subject,day,trial,cat,x,y,xt,yt,resp,rt,fb,f_name,acc,n_trials,block,session_type,ns_left_digit,ns_right_digit,ns_left_size,ns_right_size,ns_congruent,ns_cue,ns_correct_side,ns_resp,ns_rt,ns_fb,acc_stroop,acc_stroop_mean,resp_key
6,13,2700,B,47.17377629233114,21.9484031908416,2.3586888146165568,0.3447647111118737,B,839.0964999562129,Correct,sub_006_day_13_data.csv,1,300,108.0,Training at home,,,,,,,,,,,,,
6,13,2701,A,50.97305937276801,73.97061127133198,2.5486529686384007,1.1619276447578144,A,607.1765999658965,Correct,sub_006_day_13_data.csv,1,300,108.0,Training at home,,,,,,,,,,,,,
6,13,2702,A,37.77843635436488,49.02365932525904,1.888921817718244,0.7700618399416126,B,592.6828000228852,Incorrect,sub_006_day_13_data.csv,0,300,108.0,Training at home,,,,,,,,,,,,,
6,13,2703,A,18.978581683660952,42.20810418556566,0.9489290841830476,0.6630033501566284,A,594.3842999986373,Correct,sub_006_day_13_data.csv,1,300,108.0,Training at home,,,,,,,,,,,,,
6,13,2704,A,35.824902286881475,65.23317063668699,1.7912451143440735,1.0246802482129262,A,638.080800010357,Correct,sub_006_day_13_data.csv,1,300,108.0,Training at home,,,,,,,,,,,,,
6,13,2705,B,72.7535430350359,53.7783962497116,3.637677151751795,0.8447490728996742,B,422.3547999863513,Correct,sub_006_day_13_data.csv,1,300,108.0,Training at home,,,,,,,,,,,,,
6,13,2706,B,69.48789516348131,59.28678182722644,3.4743947581740655,0.9312745912169772,B,388.12469999538735,Correct,sub_006_day_13_data.csv,1,300,108.0,Training at home,,,,,,,,,,,,,
6,13,2707,A,18.1896648227158,45.227931307463955,0.90948324113579,0.7104386836629628,A,504.17120003839955,Correct,sub_006_day_13_data.csv,1,300,108.0,Training at home,,,,,,,,,,,,,
6,13,2708,B,53.33814415743059,45.01185179516437,2.6669072078715295,0.7070445146208046,B,808.8290000450797,Correct,sub_006_day_13_data.csv,1,300,108.0,Training at home,,,,,,,,,,,,,
6,13,2709,B,81.03388731567696,58.48525604819534,4.051694365783848,0.9186842537216424,B,657.9195000231266,Correct,sub_006_day_13_data.csv,1,300,108.0,Training at home,,,,,,,,,,,,,
6,13,2710,B,80.17469786231547,61.416643254884896,4.008734893115774,0.9647303762884576,B,491.27200001385063,Correct,sub_006_day_13_data.csv,1,300,108.0,Training at home,,,,,,,,,,,,,
6,13,2711,B,35.86424946306466,18.881210798186927,1.7932124731532328,0.2965853656723216,B,905.1446999656036,Correct,sub_006_day_13_data.csv,1,300,108.0,Training at home,,,,,,,,,,,,,
6,13,2712,B,42.01374564889959,26.47402790839784,2.1006872824449796,0.415853057939769,B,1081.2066000071354,Correct,sub_006_day_13_data.csv,1,300,108.0,Training at home,,,,,,,,,,,,,
6,13,2713,A,28.726613171104283,38.93751655696104,1.436330658555214,0.6116290798218988,A,709.870700025931,Correct,sub_006_day_13_data.csv,1,300,108.0,Training at home,,,,,,,,,,,,,
6,13,2714,B,68.98028683285293,42.29654251681409,3.449014341642646,0.6643925362153574,B,618.6333000077866,Correct,sub_006_day_13_data.csv,1,300,108.0,Training at home,,,,,,,,,,,,,
6,13,2715,B,64.99140826311003,45.60442979061968,3.2495704131555017,0.7163527080068113,B,453.82180000888184,Correct,sub_006_day_13_data.csv,1,300,108.0,Training at home,,,,,,,,,,,,,
6,13,2716,B,51.18375618453253,20.99011808647433,2.5591878092266263,0.3297120038922499,B,463.06219999678433,Correct,sub_006_day_13_data.csv,1,300,108.0,Training at home,,,,,,,,,,,,,
6,13,2717,A,22.447050278081647,35.96686717114357,1.1223525139040824,0.5649662283875228,A,493.98770002881065,Correct,sub_006_day_13_data.csv,1,300,108.0,Training at home,,,,,,,,,,,,,
6,13,2718,B,59.0598136947422,28.74722366980501,2.9529906847371103,0.4515603334608101,B,475.36939999554306,Correct,sub_006_day_13_data.csv,1,300,108.0,Training at home,,,,,,,,,,,,,
6,13,2719,A,55.8308302009619,83.07788064706244,2.791541510048095,1.304984297583105,A,530.5936000077054,Correct,sub_006_day_13_data.csv,1,300,108.0,Training at home,,,,,,,,,,,,,
6,13,2720,A,53.973003299343944,82.2400267548548,2.698650164967197,1.2918233194203992,A,529.7299000085331,Correct,sub_006_day_13_data.csv,1,300,108.0,Training at home,,,,,,,,,,,,,
6,13,2721,A,22.796417601315923,36.705243762595174,1.139820880065796,0.5765646207639578,B,476.92740004276857,Incorrect,sub_006_day_13_data.csv,0,300,108.0,Training at home,,,,,,,,,,,,,
6,13,2722,B,48.63509513149672,32.23331795032522,2.431754756574836,0.5063197743678287,B,439.0144000062719,Correct,sub_006_day_13_data.csv,1,300,108.0,Training at home,,,,,,,,,,,,,
6,13,2723,B,48.274456265180426,26.509892144810156,2.4137228132590214,0.4164164120479667,B,402.74789999239147,Correct,sub_006_day_13_data.csv,1,300,108.0,Training at home,,,,,,,,,,,,,
6,13,2724,B,71.37685385840967,38.889313714880394,3.5688426929204837,0.6108719113490853,B,445.9866000106558,Correct,sub_006_day_13_data.csv,1,300,108.0,Training at home,,,,,,,,,,,,,
6,13,2725,A,39.27120571304522,59.50285612317606,1.963560285652261,0.9346686783209016,A,491.08159996103495,Correct,sub_006_day_13_data.csv,1,300,109.0,Training at home,,,,,,,,,,,,,
6,13,2726,B,51.07532140008814,34.623942611219036,2.553766070004407,0.5438716187286016,B,796.6726000304334,Correct,sub_006_day_13_data.csv,1,300,109.0,Training at home,,,,,,,,,,,,,
6,13,2727,A,32.30471327723982,50.95059623772549,1.615235663861991,0.8003300941822908,A,549.1213000495918,Correct,sub_006_day_13_data.csv,1,300,109.0,Training at home,,,,,,,,,,,,,
6,13,2728,A,28.266768841193215,46.49977219344529,1.4133384420596606,0.7304167135826333,A,508.7803999776952,Correct,sub_006_day_13_data.csv,1,300,109.0,Training at home,,,,,,,,,,,,,
6,13,2729,A,45.68576109240429,66.34782480066288,2.2842880546202142,1.0421891948771258,A,762.9535999731161,Correct,sub_006_day_13_data.csv,1,300,109.0,Training at home,,,,,,,,,,,,,
6,13,2730,A,18.075182554612127,36.6386401901644,0.9037591277306064,0.5755184142947011,A,554.837400035467,Correct,sub_006_day_13_data.csv,1,300,109.0,Training at home,,,,,,,,,,,,,
6,13,2731,B,77.96587033626055,61.216968831099415,3.8982935168130273,0.9615938977740864,B,442.1933999983594,Correct,sub_006_day_13_data.csv,1,300,109.0,Training at home,,,,,,,,,,,,,
6,13,2732,B,67.66001536008118,50.60788070636532,3.3830007680040586,0.7949467312043297,B,496.5055999928154,Correct,sub_006_day_13_data.csv,1,300,109.0,Training at home,,,,,,,,,,,,,
6,13,2733,B,62.51671953607127,30.62498794827298,3.1258359768035637,0.4810561857728517,B,563.1686999695376,Correct,sub_006_day_13_data.csv,1,300,109.0,Training at home,,,,,,,,,,,,,
6,13,2734,A,37.850726898026416,45.179687111331994,1.8925363449013208,0.7096808656022303,A,827.1289000404067,Correct,sub_006_day_13_data.csv,1,300,109.0,Training at home,,,,,,,,,,,,,
6,13,2735,B,48.99366912074967,29.99667606127211,2.4496834560374836,0.4711866857310264,B,2393.765099986922,Correct,sub_006_day_13_data.csv,1,300,109.0,Training at home,,,,,,,,,,,,,
6,13,2736,A,38.70448389957041,56.706124021555645,1.9352241949785207,0.8907377131983545,A,770.4322000499815,Correct,sub_006_day_13_data.csv,1,300,109.0,Training at home,,,,,,,,,,,,,
6,13,2737,B,32.6768155892087,11.916102833550967,1.633840779460435,0.1871777056065212,B,652.7499000076205,Correct,sub_006_day_13_data.csv,1,300,109.0,Training at home,,,,,,,,,,,,,
6,13,2738,B,76.975143804997,49.67471752777559,3.84875719024985,0.7802886382720398,B,1228.2043999875896,Correct,sub_006_day_13_data.csv,1,300,109.0,Training at home,,,,,,,,,,,,,
6,13,2739,B,57.05570600537694,30.02023523158779,2.852785300268847,0.4715567523129684,B,536.953300004825,Correct,sub_006_day_13_data.csv,1,300,109.0,Training at home,,,,,,,,,,,,,
6,13,2740,A,49.19291276657359,69.5020054790001,2.4596456383286793,1.0917349491129211,A,861.8575999862514,Correct,sub_006_day_13_data.csv,1,300,109.0,Training at home,,,,,,,,,,,,,
6,13,2741,A,16.81346071306445,44.74574218422118,0.8406730356532225,0.7028644746268607,A,632.6108999783173,Correct,sub_006_day_13_data.csv,1,300,109.0,Training at home,,,,,,,,,,,,,
6,13,2742,A,44.971664199044454,64.88546062018693,2.2485832099522227,1.0192184320458453,A,708.7852999684401,Correct,sub_006_day_13_data.csv,1,300,109.0,Training at home,,,,,,,,,,,,,
6,13,2743,A,31.165539610712127,61.60871932596038,1.5582769805356065,0.9677475001575632,A,459.24870000453666,Correct,sub_006_day_13_data.csv,1,300,109.0,Training at home,,,,,,,,,,,,,
6,13,2744,B,41.773415829310665,14.950981598425248,2.088670791465533,0.2348494697678447,B,591.5548999910243,Correct,sub_006_day_13_data.csv,1,300,109.0,Training at home,,,,,,,,,,,,,
6,13,2745,B,60.61399845913677,28.18946754700431,3.0306999229568383,0.4427991207713831,B,503.2146999728866,Correct,sub_006_day_13_data.csv,1,300,109.0,Training at home,,,,,,,,,,,,,
6,13,2746,A,15.045294969770904,32.391176315021625,0.7522647484885452,0.5087994077620183,A,547.3284999607131,Correct,sub_006_day_13_data.csv,1,300,109.0,Training at home,,,,,,,,,,,,,
6,13,2747,A,22.051292230716868,36.117974914559994,1.1025646115358434,0.5673398232706105,A,925.793899979908,Correct,sub_006_day_13_data.csv,1,300,109.0,Training at home,,,,,,,,,,,,,
6,13,2748,B,45.94243029671728,20.03972381292393,2.297121514835864,0.3147832455532513,B,536.4403999992646,Correct,sub_006_day_13_data.csv,1,300,109.0,Training at home,,,,,,,,,,,,,
6,13,2749,B,78.50944074217233,65.70190159652688,3.9254720371086167,1.0320430569126418,A,817.0444000279531,Incorrect,sub_006_day_13_data.csv,0,300,109.0,Training at home,,,,,,,,,,,,,
6,13,2750,A,61.23587427008137,74.02763975046275,3.061793713504068,1.1628234460132274,A,923.3647999935783,Correct,sub_006_day_13_data.csv,1,300,110.0,Training at home,,,,,,,,,,,,,
6,13,2751,B,55.44810889477615,46.68677779685046,2.772405444738807,0.7333541907318223,B,1026.865000021644,Correct,sub_006_day_13_data.csv,1,300,110.0,Training at home,,,,,,,,,,,,,
6,13,2752,A,56.94280325644343,78.87241473228357,2.8471401628221717,1.2389249934691473,A,569.4403999950737,Correct,sub_006_day_13_data.csv,1,300,110.0,Training at home,,,,,,,,,,,,,
6,13,2753,A,59.88898610528025,87.59169941344416,2.9944493052640127,1.3758871969636075,A,1118.8405000139028,Correct,sub_006_day_13_data.csv,1,300,110.0,Training at home,,,,,,,,,,,,,
6,13,2754,A,49.73900496362164,60.78172129849176,2.486950248181082,0.95475704551942,A,1578.6134999943897,Correct,sub_006_day_13_data.csv,1,300,110.0,Training at home,,,,,,,,,,,,,
6,13,2755,B,72.52439114997631,55.20733207562667,3.6262195574988154,0.8671947443654044,B,532.8813000232913,Correct,sub_006_day_13_data.csv,1,300,110.0,Training at home,,,,,,,,,,,,,
6,13,2756,A,57.10327936429051,67.9170407121685,2.855163968214525,1.0668383807745372,B,812.5495000276715,Incorrect,sub_006_day_13_data.csv,0,300,110.0,Training at home,,,,,,,,,,,,,
6,13,2757,A,24.592055890538568,39.896226833723574,1.2296027945269286,0.6266884656338898,A,579.639200004749,Correct,sub_006_day_13_data.csv,1,300,110.0,Training at home,,,,,,,,,,,,,
6,13,2758,A,28.67124126872116,40.02902530944823,1.433562063436058,0.6287744592126122,A,568.4496000176296,Correct,sub_006_day_13_data.csv,1,300,110.0,Training at home,,,,,,,,,,,,,
6,13,2759,B,74.68457263220017,56.750713295376016,3.7342286316100086,0.8914381198736695,B,519.765599980019,Correct,sub_006_day_13_data.csv,1,300,110.0,Training at home,,,,,,,,,,,,,
6,13,2760,B,51.09721124582673,43.28688568476586,2.5548605622913363,0.679948810320208,B,862.5409000087529,Correct,sub_006_day_13_data.csv,1,300,110.0,Training at home,,,,,,,,,,,,,
6,13,2761,A,36.7791696934049,53.893848664384464,1.8389584846702451,0.8465625951885515,A,648.1564000132494,Correct,sub_006_day_13_data.csv,1,300,110.0,Training at home,,,,,,,,,,,,,
6,13,2762,A,25.94084131279542,44.575551397356435,1.297042065639771,0.700191123998246,A,682.357800018508,Correct,sub_006_day_13_data.csv,1,300,110.0,Training at home,,,,,,,,,,,,,
6,13,2763,A,37.008437148699194,65.58899718431998,1.8504218574349596,1.0302695585529065,A,495.685699977912,Correct,sub_006_day_13_data.csv,1,300,110.0,Training at home,,,,,,,,,,,,,
6,13,2764,B,45.76485928134816,18.96556906288717,2.288242964067408,0.2979104621955808,B,558.6405000067316,Correct,sub_006_day_13_data.csv,1,300,110.0,Training at home,,,,,,,,,,,,,
6,13,2765,A,25.01442796293213,47.71917814647968,1.2507213981466063,0.7495710975016159,A,605.8790000388399,Correct,sub_006_day_13_data.csv,1,300,110.0,Training at home,,,,,,,,,,,,,
6,13,2766,B,57.565572892773424,40.54723060877548,2.8782786446386712,0.6369144090197012,B,607.4795000022277,Correct,sub_006_day_13_data.csv,1,300,110.0,Training at home,,,,,,,,,,,,,
6,13,2767,B,61.83525288659767,51.389348974977224,3.091762644329884,0.807222006062753,B,486.35329998796806,Correct,sub_006_day_13_data.csv,1,300,110.0,Training at home,,,,,,,,,,,,,
6,13,2768,A,46.039279185913536,58.742681314155746,2.301963959295677,0.9227278803435904,B,733.7994999834336,Incorrect,sub_006_day_13_data.csv,0,300,110.0,Training at home,,,,,,,,,,,,,
6,13,2769,B,35.11927687553418,13.11339819387619,1.755963843776709,0.2059847771473955,B,491.54810002073646,Correct,sub_006_day_13_data.csv,1,300,110.0,Training at home,,,,,,,,,,,,,
6,13,2770,A,16.295768612821394,41.780527500423915,0.8147884306410696,0.6562869912921905,A,599.9120000051335,Correct,sub_006_day_13_data.csv,1,300,110.0,Training at home,,,,,,,,,,,,,
6,13,2771,A,59.485464680844856,77.42351800993453,2.974273234042243,1.2161657769754368,A,706.112599989865,Correct,sub_006_day_13_data.csv,1,300,110.0,Training at home,,,,,,,,,,,,,
6,13,2772,B,47.6736487333935,21.433517243072455,2.383682436669675,0.3366769015571329,B,1613.4773999801837,Correct,sub_006_day_13_data.csv,1,300,110.0,Training at home,,,,,,,,,,,,,
6,13,2773,B,64.77420364558638,47.713174409393545,3.2387101822793194,0.7494767910199965,B,521.5206000139005,Correct,sub_006_day_13_data.csv,1,300,110.0,Training at home,,,,,,,,,,,,,
6,13,2774,A,34.521293470569574,50.47303853226557,1.7260646735284786,0.7928286352866004,B,642.0598999829963,Incorrect,sub_006_day_13_data.csv,0,300,110.0,Training at home,,,,,,,,,,,,,
6,13,2775,B,31.40537183644797,11.081204485735284,1.5702685918223984,0.1740631530265611,B,664.077699999325,Correct,sub_006_day_13_data.csv,1,300,111.0,Training at home,,,,,,,,,,,,,
6,13,2776,A,58.28306678797137,66.94730347201833,2.914153339398569,1.0516057838266963,A,565.8871000050567,Correct,sub_006_day_13_data.csv,1,300,111.0,Training at home,,,,,,,,,,,,,
6,13,2777,A,35.645610814460916,56.63425327640823,1.782280540723046,0.8896087701735389,A,827.5892999954522,Correct,sub_006_day_13_data.csv,1,300,111.0,Training at home,,,,,,,,,,,,,
6,13,2778,A,24.869640047885095,46.175909922352616,1.2434820023942548,0.725329496924435,A,662.9193000262603,Correct,sub_006_day_13_data.csv,1,300,111.0,Training at home,,,,,,,,,,,,,
6,13,2779,A,27.94907448910927,40.671089817425454,1.3974537244554637,0.6388599849195723,A,663.6453000246547,Correct,sub_006_day_13_data.csv,1,300,111.0,Training at home,,,,,,,,,,,,,
6,13,2780,B,64.04447789049796,39.8683482964989,3.2022238945248978,0.6262505505952004,B,551.3551000040025,Correct,sub_006_day_13_data.csv,1,300,111.0,Training at home,,,,,,,,,,,,,
6,13,2781,A,19.260040388730506,50.181960599633854,0.9630020194365252,0.7882563938127107,A,569.7828999836929,Correct,sub_006_day_13_data.csv,1,300,111.0,Training at home,,,,,,,,,,,,,
6,13,2782,A,66.7469106888623,82.9404423891522,3.3373455344431147,1.30282542247624,A,670.2212999807671,Correct,sub_006_day_13_data.csv,1,300,111.0,Training at home,,,,,,,,,,,,,
6,13,2783,A,48.95102188769265,56.36235155928942,2.4475510943846324,0.8853377479885445,B,564.1534000169486,Incorrect,sub_006_day_13_data.csv,0,300,111.0,Training at home,,,,,,,,,,,,,
6,13,2784,A,36.95217686955649,60.14936830971596,1.8476088434778248,0.9448240679993518,A,774.053199973423,Correct,sub_006_day_13_data.csv,1,300,111.0,Training at home,,,,,,,,,,,,,
6,13,2785,A,46.093593442109665,59.63786014041622,2.3046796721054834,0.9367893164647356,B,1307.2956000105478,Incorrect,sub_006_day_13_data.csv,0,300,111.0,Training at home,,,,,,,,,,,,,
6,13,2786,A,20.98488598879691,51.85812312423849,1.0492442994398457,0.814585493180313,A,602.0790000329725,Correct,sub_006_day_13_data.csv,1,300,111.0,Training at home,,,,,,,,,,,,,
6,13,2787,A,65.28382061557832,84.06589073232252,3.2641910307789157,1.3205039237107334,A,764.6132999798283,Correct,sub_006_day_13_data.csv,1,300,111.0,Training at home,,,,,,,,,,,,,
6,13,2788,B,76.9752198498345,55.31374699443502,3.848760992491725,0.8688663060012078,B,678.3499000011943,Correct,sub_006_day_13_data.csv,1,300,111.0,Training at home,,,,,,,,,,,,,
6,13,2789,B,31.86196611420423,15.879231647804277,1.5930983057102113,0.2494303874469622,B,876.1363999801688,Correct,sub_006_day_13_data.csv,1,300,111.0,Training at home,,,,,,,,,,,,,
6,13,2790,A,44.75927522319416,76.54294073936634,2.237963761159708,1.2023337015547608,A,596.8365999870002,Correct,sub_006_day_13_data.csv,1,300,111.0,Training at home,,,,,,,,,,,,,
6,13,2791,A,40.21866435251443,55.44751296815326,2.0109332176257215,0.8709674970028755,A,881.0730000259355,Correct,sub_006_day_13_data.csv,1,300,111.0,Training at home,,,,,,,,,,,,,
6,13,2792,B,66.03660289569467,40.711678778477705,3.301830144784734,0.6394975548288652,B,518.86100001866,Correct,sub_006_day_13_data.csv,1,300,111.0,Training at home,,,,,,,,,,,,,
6,13,2793,A,55.99309889913187,74.83114059602761,2.7996549449565937,1.1754448077811264,B,925.6128999986686,Incorrect,sub_006_day_13_data.csv,0,300,111.0,Training at home,,,,,,,,,,,,,
6,13,2794,B,63.03719084207776,42.67208441234672,3.151859542103888,0.6702915345159599,B,1553.8834999897515,Correct,sub_006_day_13_data.csv,1,300,111.0,Training at home,,,,,,,,,,,,,
6,13,2795,A,68.00093742583871,85.20670033604219,3.400046871291936,1.3384237190616854,A,788.0038999719545,Correct,sub_006_day_13_data.csv,1,300,111.0,Training at home,,,,,,,,,,,,,
6,13,2796,A,38.10431254748069,55.18608660332074,1.9052156273740344,0.8668610212668126,A,1203.6070000031032,Correct,sub_006_day_13_data.csv,1,300,111.0,Training at home,,,,,,,,,,,,,
6,13,2797,B,53.678472641631295,22.666661617538725,2.683923632081565,0.356047088095327,B,665.4054000391625,Correct,sub_006_day_13_data.csv,1,300,111.0,Training at home,,,,,,,,,,,,,
6,13,2798,B,49.15151209761556,27.742528077785444,2.4575756048807778,0.4357786120058965,B,530.2325999946333,Correct,sub_006_day_13_data.csv,1,300,111.0,Training at home,,,,,,,,,,,,,
6,13,2799,B,66.54623802854849,37.479683524487704,3.327311901427424,0.5887294920970049,B,476.0337999905459,Correct,sub_006_day_13_data.csv,1,300,111.0,Training at home,,,,,,,,,,,,,
6,13,2800,B,59.06346006114719,32.95593782160797,2.9531730030573597,0.517670660762628,B,454.22910002525896,Correct,sub_006_day_13_data.csv,1,300,112.0,Training at home,,,,,,,,,,,,,
6,13,2801,A,26.936379482221945,48.1876830736808,1.3468189741110974,0.7569303556889441,A,596.4205999625847,Correct,sub_006_day_13_data.csv,1,300,112.0,Training at home,,,,,,,,,,,,,
6,13,2802,A,21.129731992071335,38.34642629102566,1.0564865996035666,0.6023442556365435,A,724.1948000155389,Correct,sub_006_day_13_data.csv,1,300,112.0,Training at home,,,,,,,,,,,,,
6,13,2803,B,64.46365824156379,33.260457629737616,3.2231829120781894,0.5224540467230914,B,619.8594000306912,Correct,sub_006_day_13_data.csv,1,300,112.0,Training at home,,,,,,,,,,,,,
6,13,2804,A,62.54429314294717,86.33572385016352,3.1272146571473582,1.356158378950154,A,651.4768999768421,Correct,sub_006_day_13_data.csv,1,300,112.0,Training at home,,,,,,,,,,,,,
6,13,2805,A,29.432723331984775,57.69120963092647,1.4716361665992388,0.9062114017661366,A,660.3863000054844,Correct,sub_006_day_13_data.csv,1,300,112.0,Training at home,,,,,,,,,,,,,
6,13,2806,B,50.25939167764782,42.28108434402768,2.512969583882391,0.6641497198050388,B,545.1155999908224,Correct,sub_006_day_13_data.csv,1,300,112.0,Training at home,,,,,,,,,,,,,
6,13,2807,A,41.664648671066594,72.53465221087276,2.08323243355333,1.1393716525818427,A,593.6618999694474,Correct,sub_006_day_13_data.csv,1,300,112.0,Training at home,,,,,,,,,,,,,
6,13,2808,B,40.25991675153841,14.921524331804813,2.012995837576921,0.2343867561057967,B,717.711600009352,Correct,sub_006_day_13_data.csv,1,300,112.0,Training at home,,,,,,,,,,,,,
6,13,2809,A,11.182677405273068,34.79012241141059,0.5591338702636535,0.5464819649258857,A,776.6106000053696,Correct,sub_006_day_13_data.csv,1,300,112.0,Training at home,,,,,,,,,,,,,
6,13,2810,A,49.711069299220945,63.10543435680719,2.4855534649610473,0.991257844884692,A,1095.3221999807283,Correct,sub_006_day_13_data.csv,1,300,112.0,Training at home,,,,,,,,,,,,,
6,13,2811,B,86.56674972579127,60.55219257546088,4.328337486289564,0.9511516167691114,B,898.2226999942213,Correct,sub_006_day_13_data.csv,1,300,112.0,Training at home,,,,,,,,,,,,,
6,13,2812,B,55.70777497440492,44.03703394473086,2.785388748720246,0.6917321116332541,B,472.66879997914657,Correct,sub_006_day_13_data.csv,1,300,112.0,Training at home,,,,,,,,,,,,,
6,13,2813,A,61.89343461043206,84.67159388233918,3.094671730521603,1.330018286542476,A,1058.9084000093862,Correct,sub_006_day_13_data.csv,1,300,112.0,Training at home,,,,,,,,,,,,,
6,13,2814,B,62.1146101494196,54.423604133998545,3.10573050747098,0.8548839746462445,B,655.6257000193,Correct,sub_006_day_13_data.csv,1,300,112.0,Training at home,,,,,,,,,,,,,
6,13,2815,A,29.53896012408054,48.84184688194678,1.476948006204027,0.7672059367604076,A,561.3764000008814,Correct,sub_006_day_13_data.csv,1,300,112.0,Training at home,,,,,,,,,,,,,
6,13,2816,B,44.58198898382696,35.083398233208605,2.229099449191348,0.5510887307620663,B,568.8735999865457,Correct,sub_006_day_13_data.csv,1,300,112.0,Training at home,,,,,,,,,,,,,
6,13,2817,B,36.57450573335876,21.843661369073335,1.8287252866679384,0.3431194304229197,B,526.2885999982245,Correct,sub_006_day_13_data.csv,1,300,112.0,Training at home,,,,,,,,,,,,,
6,13,2818,A,61.02800667801979,79.616548897721,3.0514003339009896,1.2506138256062644,A,754.1336000431329,Correct,sub_006_day_13_data.csv,1,300,112.0,Training at home,,,,,,,,,,,,,
6,13,2819,A,45.308321617130474,71.03863924278713,2.265416080856524,1.1158723358307785,A,1282.619799952954,Correct,sub_006_day_13_data.csv,1,300,112.0,Training at home,,,,,,,,,,,,,
6,13,2820,B,80.6019690591959,55.03284973096027,4.030098452959795,0.8644539821044791,B,527.9258999507874,Correct,sub_006_day_13_data.csv,1,300,112.0,Training at home,,,,,,,,,,,,,
6,13,2821,B,65.24378277595767,38.79971719171875,3.2621891387978836,0.6094645324543261,B,578.1322999973781,Correct,sub_006_day_13_data.csv,1,300,112.0,Training at home,,,,,,,,,,,,,
6,13,2822,B,63.05604909501246,49.20796255591327,3.1528024547506233,0.7729568683188938,B,753.5803000209853,Correct,sub_006_day_13_data.csv,1,300,112.0,Training at home,,,,,,,,,,,,,
6,13,2823,B,59.4027253227931,45.96694538301708,2.9701362661396553,0.7220470896162485,B,675.5817999946885,Correct,sub_006_day_13_data.csv,1,300,112.0,Training at home,,,,,,,,,,,,,
6,13,2824,B,41.801096962507295,19.607832379020586,2.090054848125365,0.3079991107737558,B,515.769999998156,Correct,sub_006_day_13_data.csv,1,300,112.0,Training at home,,,,,,,,,,,,,
6,13,2825,B,79.89361905254187,59.47866319600725,3.994680952627093,0.9342886567095898,B,495.63299998408183,Correct,sub_006_day_13_data.csv,1,300,113.0,Training at home,,,,,,,,,,,,,
6,13,2826,B,60.909642753582006,38.10497597372529,3.0454821376791004,0.5985515629213546,B,461.3303999649361,Correct,sub_006_day_13_data.csv,1,300,113.0,Training at home,,,,,,,,,,,,,
6,13,2827,A,46.58066619768546,57.88929033608371,2.329033309884273,0.909322846206836,A,623.5177000053227,Correct,sub_006_day_13_data.csv,1,300,113.0,Training at home,,,,,,,,,,,,,
6,13,2828,B,63.373608434627414,36.506582965300424,3.1686804217313704,0.5734440642572705,B,698.8460999564268,Correct,sub_006_day_13_data.csv,1,300,113.0,Training at home,,,,,,,,,,,,,
6,13,2829,B,63.961058065151065,35.236478878820314,3.1980529032575533,0.5534933159203691,B,1145.619800023269,Correct,sub_006_day_13_data.csv,1,300,113.0,Training at home,,,,,,,,,,,,,
6,13,2830,B,43.19695162394688,22.378805988065643,2.159847581197344,0.3515254624410915,B,690.3266000445001,Correct,sub_006_day_13_data.csv,1,300,113.0,Training at home,,,,,,,,,,,,,
6,13,2831,B,55.12654239226291,42.651947105996406,2.756327119613146,0.6699752184474937,B,584.8154000123031,Correct,sub_006_day_13_data.csv,1,300,113.0,Training at home,,,,,,,,,,,,,
6,13,2832,A,59.99767557840839,75.07731892343773,2.99988377892042,1.1793117679054497,A,833.9596999576315,Correct,sub_006_day_13_data.csv,1,300,113.0,Training at home,,,,,,,,,,,,,
6,13,2833,B,53.54511397667929,44.463695566582345,2.6772556988339646,0.6984340967171409,B,935.582300007809,Correct,sub_006_day_13_data.csv,1,300,113.0,Training at home,,,,,,,,,,,,,
6,13,2834,B,81.38495030734379,68.3576079764081,4.06924751536719,1.073758795178274,B,1020.8680999930948,Correct,sub_006_day_13_data.csv,1,300,113.0,Training at home,,,,,,,,,,,,,
6,13,2835,B,77.72577753195526,48.973447644158625,3.886288876597763,0.7692731166992655,B,2237.319399951957,Correct,sub_006_day_13_data.csv,1,300,113.0,Training at home,,,,,,,,,,,,,
6,13,2836,B,69.9202525964212,43.60334924105441,3.496012629821059,0.6849198082380331,B,589.3888999707997,Correct,sub_006_day_13_data.csv,1,300,113.0,Training at home,,,,,,,,,,,,,
6,13,2837,A,58.20392146828732,74.94573324180607,2.910196073414366,1.1772448248517915,A,953.3908999874257,Correct,sub_006_day_13_data.csv,1,300,113.0,Training at home,,,,,,,,,,,,,
6,13,2838,B,84.27362063771463,68.58176040306188,4.213681031885732,1.0772797732625727,B,6860.976299969479,Correct,sub_006_day_13_data.csv,1,300,113.0,Training at home,,,,,,,,,,,,,
6,13,2839,B,59.034604287520054,38.259551506289945,2.9517302143760027,0.600979629709004,B,667.8376999916509,Correct,sub_006_day_13_data.csv,1,300,113.0,Training at home,,,,,,,,,,,,,
6,13,2840,A,56.48542939183019,70.74284959458542,2.8242714695915097,1.111226082901786,B,716.7441999772564,Incorrect,sub_006_day_13_data.csv,0,300,113.0,Training at home,,,,,,,,,,,,,
6,13,2841,A,16.278428385622313,44.753250799914014,0.8139214192811156,0.702982419686357,A,662.9063000436872,Correct,sub_006_day_13_data.csv,1,300,113.0,Training at home,,,,,,,,,,,,,
6,13,2842,B,79.54906471531265,54.16468019612926,3.977453235765633,0.8508168069410013,B,583.5577000398189,Correct,sub_006_day_13_data.csv,1,300,113.0,Training at home,,,,,,,,,,,,,
6,13,2843,B,59.956168823594,29.27780563665823,2.9978084411797,0.4598946955067767,B,605.9099999838509,Correct,sub_006_day_13_data.csv,1,300,113.0,Training at home,,,,,,,,,,,,,
6,13,2844,B,55.19959079258368,44.77586780050658,2.7599795396291835,0.7033376867008962,B,652.221099997405,Correct,sub_006_day_13_data.csv,1,300,113.0,Training at home,,,,,,,,,,,,,
6,13,2845,B,54.37190548798893,36.3063426972997,2.7185952743994464,0.5702986974827509,B,2003.8929000147616,Correct,sub_006_day_13_data.csv,1,300,113.0,Training at home,,,,,,,,,,,,,
6,13,2846,A,57.23046333296288,84.41589834125234,2.861523166648144,1.3260018303753056,A,935.4015000280924,Correct,sub_006_day_13_data.csv,1,300,113.0,Training at home,,,,,,,,,,,,,
6,13,2847,B,53.99886612909962,39.310467578451195,2.699943306454981,0.61748738076821,B,1154.3880000244826,Correct,sub_006_day_13_data.csv,1,300,113.0,Training at home,,,,,,,,,,,,,
6,13,2848,A,34.64736075016154,42.96619888005972,1.732368037508077,0.6749114737713681,B,697.0760999829508,Incorrect,sub_006_day_13_data.csv,0,300,113.0,Training at home,,,,,,,,,,,,,
6,13,2849,B,86.30003119185305,69.46628617039968,4.315001559592653,1.0911738715254695,B,711.689000017941,Correct,sub_006_day_13_data.csv,1,300,113.0,Training at home,,,,,,,,,,,,,
6,13,2850,B,74.84599832167706,50.58884897225303,3.742299916083853,0.7946477814239684,B,1063.187400053721,Correct,sub_006_day_13_data.csv,1,300,114.0,Training at home,,,,,,,,,,,,,
6,13,2851,A,51.77880738463811,63.17106620349871,2.588940369231905,0.99228878752173,A,844.7333999793045,Correct,sub_006_day_13_data.csv,1,300,114.0,Training at home,,,,,,,,,,,,,
6,13,2852,A,51.3742399710776,79.90896793766262,2.56871199855388,1.255207133144516,A,623.7127000349574,Correct,sub_006_day_13_data.csv,1,300,114.0,Training at home,,,,,,,,,,,,,
6,13,2853,B,68.7603804951268,56.84250756135238,3.43801902475634,0.8928800208318345,B,637.5897999969311,Correct,sub_006_day_13_data.csv,1,300,114.0,Training at home,,,,,,,,,,,,,
6,13,2854,A,60.62645990914979,82.37491940793716,3.031322995457489,1.293942208260133,A,869.1583999898285,Correct,sub_006_day_13_data.csv,1,300,114.0,Training at home,,,,,,,,,,,,,
6,13,2855,A,12.886007622719468,38.0028956886468,0.6443003811359733,0.5969480895529601,A,544.6259999880567,Correct,sub_006_day_13_data.csv,1,300,114.0,Training at home,,,,,,,,,,,,,
6,13,2856,A,49.20192821018232,62.53846005451246,2.4600964105091156,0.9823518333703756,B,922.9290999937804,Incorrect,sub_006_day_13_data.csv,0,300,114.0,Training at home,,,,,,,,,,,,,
6,13,2857,A,33.7795231469539,51.636534632344514,1.688976157347695,0.8111047892890423,A,1891.8934999965131,Correct,sub_006_day_13_data.csv,1,300,114.0,Training at home,,,,,,,,,,,,,
6,13,2858,A,27.56981729455184,60.12488024157312,1.3784908647275922,0.9444394103244612,A,500.5115999956615,Correct,sub_006_day_13_data.csv,1,300,114.0,Training at home,,,,,,,,,,,,,
6,13,2859,B,54.57719946895932,41.99604423849124,2.7288599734479657,0.6596723202973802,B,441.6489999857731,Correct,sub_006_day_13_data.csv,1,300,114.0,Training at home,,,,,,,,,,,,,
6,13,2860,A,38.17554528575711,70.96905277514621,1.908777264287855,1.1147792741531282,A,689.5678999717347,Correct,sub_006_day_13_data.csv,1,300,114.0,Training at home,,,,,,,,,,,,,
6,13,2861,B,78.73348388678805,63.8927848827595,3.936674194339403,1.003625518025351,B,762.1006999979727,Correct,sub_006_day_13_data.csv,1,300,114.0,Training at home,,,,,,,,,,,,,
6,13,2862,B,82.80282276674941,62.12578776475078,4.14014113833747,0.9758695922010984,B,580.8876000228338,Correct,sub_006_day_13_data.csv,1,300,114.0,Training at home,,,,,,,,,,,,,
6,13,2863,B,45.346308340021686,32.35056895284404,2.2673154170010843,0.5081615488085245,B,539.541200036183,Correct,sub_006_day_13_data.csv,1,300,114.0,Training at home,,,,,,,,,,,,,
6,13,2864,A,43.180743592369474,73.64612787476062,2.159037179618474,1.1568306714834122,A,831.6234999801964,Correct,sub_006_day_13_data.csv,1,300,114.0,Training at home,,,,,,,,,,,,,
6,13,2865,A,34.40198271373072,63.98321639358173,1.7200991356865358,1.0050460128756118,A,815.1441999943927,Correct,sub_006_day_13_data.csv,1,300,114.0,Training at home,,,,,,,,,,,,,
6,13,2866,A,37.67862258602952,63.245892339274384,1.883931129301476,0.9934641537139768,A,577.3555000196211,Correct,sub_006_day_13_data.csv,1,300,114.0,Training at home,,,,,,,,,,,,,
6,13,2867,A,24.642573933419527,42.80146497453468,1.2321286966709764,0.672323839634395,A,573.0241000419483,Correct,sub_006_day_13_data.csv,1,300,114.0,Training at home,,,,,,,,,,,,,
6,13,2868,A,49.25456275742727,73.01983800185972,2.4627281378713635,1.1469929331647968,A,637.6787999761291,Correct,sub_006_day_13_data.csv,1,300,114.0,Training at home,,,,,,,,,,,,,
6,13,2869,B,66.12151545820313,55.38896039707144,3.3060757729101566,0.870047755367078,B,725.1805000123568,Correct,sub_006_day_13_data.csv,1,300,114.0,Training at home,,,,,,,,,,,,,
6,13,2870,A,46.15160823596362,78.09882583566689,2.307580411798181,1.226773487496599,A,853.4191999933682,Correct,sub_006_day_13_data.csv,1,300,114.0,Training at home,,,,,,,,,,,,,
6,13,2871,B,74.17558646107769,62.49731470862714,3.708779323053884,0.9817055237885616,B,527.1529000019655,Correct,sub_006_day_13_data.csv,1,300,114.0,Training at home,,,,,,,,,,,,,
6,13,2872,A,47.94681524147056,56.614259956979126,2.397340762073528,0.889294715846342,A,485.1216000388376,Correct,sub_006_day_13_data.csv,1,300,114.0,Training at home,,,,,,,,,,,,,
6,13,2873,A,44.08942978861017,65.9521466278519,2.2044714894305084,1.035973896672682,A,1084.6814999822527,Correct,sub_006_day_13_data.csv,1,300,114.0,Training at home,,,,,,,,,,,,,
6,13,2874,B,37.55270580412067,18.162459066578528,1.8776352902060336,0.2852952398734422,B,562.3488999553956,Correct,sub_006_day_13_data.csv,1,300,114.0,Training at home,,,,,,,,,,,,,
6,13,2875,B,59.91048734412447,27.80952353852438,2.9955243672062233,0.4368309742423031,B,771.7221999773756,Correct,sub_006_day_13_data.csv,1,300,115.0,Training at home,,,,,,,,,,,,,
6,13,2876,A,56.95340962439504,65.80373247595179,2.8476704812197524,1.0336426126261913,A,978.2853000215256,Correct,sub_006_day_13_data.csv,1,300,115.0,Training at home,,,,,,,,,,,,,
6,13,2877,B,89.1660236388124,66.349196637561,4.45830118194062,1.042210743640731,B,535.8866999740712,Correct,sub_006_day_13_data.csv,1,300,115.0,Training at home,,,,,,,,,,,,,
6,13,2878,B,71.2507834025403,45.00945004551441,3.5625391701270157,0.7070067880255243,B,701.3519000029191,Correct,sub_006_day_13_data.csv,1,300,115.0,Training at home,,,,,,,,,,,,,
6,13,2879,B,51.6120712387754,31.98353281873937,2.58060356193877,0.5023961586959983,B,666.1810000077821,Correct,sub_006_day_13_data.csv,1,300,115.0,Training at home,,,,,,,,,,,,,
6,13,2880,B,76.16115544197352,63.27477439885122,3.808057772098676,0.9939178320449126,B,565.621400019154,Correct,sub_006_day_13_data.csv,1,300,115.0,Training at home,,,,,,,,,,,,,
6,13,2881,A,30.324275378013883,59.69414319729244,1.5162137689006945,0.9376734086547552,A,577.333000022918,Correct,sub_006_day_13_data.csv,1,300,115.0,Training at home,,,,,,,,,,,,,
6,13,2882,B,48.84805020957496,38.361471611777354,2.442402510478749,0.6025805869822657,B,635.4881000006571,Correct,sub_006_day_13_data.csv,1,300,115.0,Training at home,,,,,,,,,,,,,
6,13,2883,B,59.443822454095496,35.12320961367842,2.972191122704775,0.5517140864641326,B,695.2597000054084,Correct,sub_006_day_13_data.csv,1,300,115.0,Training at home,,,,,,,,,,,,,
6,13,2884,B,75.11283571533987,53.46235322963341,3.7556417857669935,0.8397846807491943,B,903.8452999666332,Correct,sub_006_day_13_data.csv,1,300,115.0,Training at home,,,,,,,,,,,,,
6,13,2885,A,58.913031006193506,72.79233249027763,2.945651550309675,1.143419284945609,A,1406.852299987804,Correct,sub_006_day_13_data.csv,1,300,115.0,Training at home,,,,,,,,,,,,,
6,13,2886,A,24.79963491944843,52.15501981340387,1.2399817459724216,0.8192491354680985,A,1288.526099990122,Correct,sub_006_day_13_data.csv,1,300,115.0,Training at home,,,,,,,,,,,,,
6,13,2887,A,56.299093879208414,66.90293549459396,2.8149546939604204,1.050908853267041,A,1504.97260002885,Correct,sub_006_day_13_data.csv,1,300,115.0,Training at home,,,,,,,,,,,,,
6,13,2888,B,36.26411439545384,10.917431660425102,1.813205719772692,0.1714906155023005,B,969.2729000234976,Correct,sub_006_day_13_data.csv,1,300,115.0,Training at home,,,,,,,,,,,,,
6,13,2889,A,39.27485409711465,56.56071892331037,1.9637427048557323,0.8884536952561451,A,881.538100016769,Correct,sub_006_day_13_data.csv,1,300,115.0,Training at home,,,,,,,,,,,,,
6,13,2890,A,29.11879314130063,46.08649964106832,1.4559396570650314,0.7239250435102442,A,897.6798999938183,Correct,sub_006_day_13_data.csv,1,300,115.0,Training at home,,,,,,,,,,,,,
6,13,2891,B,85.7968381802018,61.70183828219574,4.28984190901009,0.969210209301658,B,685.5046999990009,Correct,sub_006_day_13_data.csv,1,300,115.0,Training at home,,,,,,,,,,,,,
6,13,2892,A,26.102601454407857,41.48613561449115,1.3051300727203925,0.6516626943615763,A,502.160299976822,Correct,sub_006_day_13_data.csv,1,300,115.0,Training at home,,,,,,,,,,,,,
6,13,2893,A,63.101851896985025,86.65205686443761,3.155092594849251,1.3611273263188113,A,584.8398999660276,Correct,sub_006_day_13_data.csv,1,300,115.0,Training at home,,,,,,,,,,,,,
6,13,2894,A,12.987066926829854,30.861912420251393,0.6493533463414927,0.4847777866759667,A,481.77620000205934,Correct,sub_006_day_13_data.csv,1,300,115.0,Training at home,,,,,,,,,,,,,
6,13,2895,B,75.14060411781365,55.92393327845996,3.7570302058906826,0.878451089737278,B,467.01859997119755,Correct,sub_006_day_13_data.csv,1,300,115.0,Training at home,,,,,,,,,,,,,
6,13,2896,A,54.1242614569148,72.83620175210947,2.70621307284574,1.1441083816990558,A,557.1960000088438,Correct,sub_006_day_13_data.csv,1,300,115.0,Training at home,,,,,,,,,,,,,
6,13,2897,A,19.66092165808341,38.46343314927584,0.9830460829041704,0.6041821950680355,A,730.1723000127822,Correct,sub_006_day_13_data.csv,1,300,115.0,Training at home,,,,,,,,,,,,,
6,13,2898,B,62.86664447636806,51.173777518767544,3.143332223818403,0.8038358175469932,B,701.9710000022314,Correct,sub_006_day_13_data.csv,1,300,115.0,Training at home,,,,,,,,,,,,,
6,13,2899,B,85.05518389959732,68.22747520475191,4.252759194979866,1.071714674381142,B,863.0498999846168,Correct,sub_006_day_13_data.csv,1,300,115.0,Training at home,,,,,,,,,,,,,
6,13,2900,A,61.08685735785026,69.78193802080023,3.054342867892513,1.0961321191970217,B,908.3698999602348,Incorrect,sub_006_day_13_data.csv,0,300,116.0,Training at home,,,,,,,,,,,,,
6,13,2901,B,45.79534141197597,32.265791345687965,2.2897670705987987,0.5068298652693722,B,355.1148999831639,Correct,sub_006_day_13_data.csv,1,300,116.0,Training at home,,,,,,,,,,,,,
6,13,2902,A,31.61070768153492,63.25466736352587,1.5805353840767458,0.9936019914725946,A,519.931299961172,Correct,sub_006_day_13_data.csv,1,300,116.0,Training at home,,,,,,,,,,,,,
6,13,2903,A,59.66081810212859,79.43948508177692,2.9830409051064293,1.2478325136893316,A,539.1495999647304,Correct,sub_006_day_13_data.csv,1,300,116.0,Training at home,,,,,,,,,,,,,
6,13,2904,A,53.966293489823215,64.23927448015606,2.6983146744911606,1.009068163893983,A,801.0267000063322,Correct,sub_006_day_13_data.csv,1,300,116.0,Training at home,,,,,,,,,,,,,
6,13,2905,B,65.58164914916878,43.175109048008395,3.2790824574584394,0.6781930270158069,B,692.4872000236064,Correct,sub_006_day_13_data.csv,1,300,116.0,Training at home,,,,,,,,,,,,,
6,13,2906,A,17.029996976455564,45.94265519939198,0.8514998488227782,0.7216655403040938,A,563.9403000241145,Correct,sub_006_day_13_data.csv,1,300,116.0,Training at home,,,,,,,,,,,,,
6,13,2907,B,54.41444271891917,47.09960180335005,2.7207221359459584,0.7398388150620453,B,523.2106999610551,Correct,sub_006_day_13_data.csv,1,300,116.0,Training at home,,,,,,,,,,,,,
6,13,2908,B,43.59244664101605,25.71396493393456,2.179622332050803,0.4039140166555718,B,593.6697999713942,Correct,sub_006_day_13_data.csv,1,300,116.0,Training at home,,,,,,,,,,,,,
6,13,2909,A,39.06520756669925,58.21367018757817,1.953260378334963,0.9144181929989738,A,931.1947000096552,Correct,sub_006_day_13_data.csv,1,300,116.0,Training at home,,,,,,,,,,,,,
6,13,2910,A,15.446432734589507,32.55741579130963,0.7723216367294754,0.5114106913492333,A,1911.852799996268,Correct,sub_006_day_13_data.csv,1,300,116.0,Training at home,,,,,,,,,,,,,
6,13,2911,A,31.8109698285566,53.68454448549911,1.5905484914278298,0.8432748528347923,A,1107.7240000013262,Correct,sub_006_day_13_data.csv,1,300,116.0,Training at home,,,,,,,,,,,,,
6,13,2912,B,78.2568687407237,48.44279634287368,3.912843437036185,0.7609376655505922,B,1705.5524000315927,Correct,sub_006_day_13_data.csv,1,300,116.0,Training at home,,,,,,,,,,,,,
6,13,2913,A,43.412560512270595,71.77512512877773,2.1706280256135297,1.1274410290752814,A,1285.8687999541871,Correct,sub_006_day_13_data.csv,1,300,116.0,Training at home,,,,,,,,,,,,,
6,13,2914,B,62.177043362034254,31.858364689635444,3.108852168101713,0.5004300223217159,B,1558.0877999891527,Correct,sub_006_day_13_data.csv,1,300,116.0,Training at home,,,,,,,,,,,,,
6,13,2915,A,32.083978408774975,41.41915333887928,1.6041989204387488,0.6506105392366616,A,820.9372000419535,Correct,sub_006_day_13_data.csv,1,300,116.0,Training at home,,,,,,,,,,,,,
6,13,2916,A,23.257969901434148,50.75689705816062,1.1628984950717074,0.7972874745846539,A,1524.9856000300497,Correct,sub_006_day_13_data.csv,1,300,116.0,Training at home,,,,,,,,,,,,,
6,13,2917,B,61.25367891717889,34.69196627132684,3.0626839458589443,0.5449401318829264,B,1582.1641000220552,Correct,sub_006_day_13_data.csv,1,300,116.0,Training at home,,,,,,,,,,,,,
6,13,2918,A,63.43156850095486,73.03793736232302,3.171578425047743,1.1472772372541271,A,1790.7499000430107,Correct,sub_006_day_13_data.csv,1,300,116.0,Training at home,,,,,,,,,,,,,
6,13,2919,B,65.05684277193846,46.01424961778822,3.2528421385969235,0.7227901427984521,B,4124.342700000852,Correct,sub_006_day_13_data.csv,1,300,116.0,Training at home,,,,,,,,,,,,,
6,13,2920,A,47.864728108832296,68.1572665972201,2.393236405441615,1.0706118401529383,A,5798.906700045336,Correct,sub_006_day_13_data.csv,1,300,116.0,Training at home,,,,,,,,,,,,,
6,13,2921,A,43.270713532351486,53.66972152674057,2.1635356766175744,0.8430420143430907,A,3184.6995999803767,Correct,sub_006_day_13_data.csv,1,300,116.0,Training at home,,,,,,,,,,,,,
6,13,2922,A,68.40122705132478,83.60018365281526,3.420061352566239,1.3131886140122098,A,2053.319400001783,Correct,sub_006_day_13_data.csv,1,300,116.0,Training at home,,,,,,,,,,,,,
6,13,2923,B,72.15007412812422,52.2928126747427,3.607503706406211,0.8214135806725944,B,3232.1055000065826,Correct,sub_006_day_13_data.csv,1,300,116.0,Training at home,,,,,,,,,,,,,
6,13,2924,A,30.985118059930787,55.28933388764486,1.5492559029965394,0.8684828258164915,A,1180.8875999995507,Correct,sub_006_day_13_data.csv,1,300,116.0,Training at home,,,,,,,,,,,,,
6,13,2925,A,16.426046007973206,44.75808384731964,0.8213023003986604,0.7030583370174768,A,1444.8741000378504,Correct,sub_006_day_13_data.csv,1,300,117.0,Training at home,,,,,,,,,,,,,
6,13,2926,A,51.94029377796553,73.63671496684155,2.5970146888982764,1.156682813871575,A,1051.1570999515243,Correct,sub_006_day_13_data.csv,1,300,117.0,Training at home,,,,,,,,,,,,,
6,13,2927,B,59.74411941631256,44.99307271571392,2.987205970815628,0.706749533530591,B,1213.2455999962986,Correct,sub_006_day_13_data.csv,1,300,117.0,Training at home,,,,,,,,,,,,,
6,13,2928,A,54.870461292729075,68.42333747147259,2.743523064636454,1.0747912716723675,A,821.4718000381254,Correct,sub_006_day_13_data.csv,1,300,117.0,Training at home,,,,,,,,,,,,,
6,13,2929,B,80.5352541558677,55.41800137856523,4.026762707793385,0.8705039300376478,B,584.5021999557503,Correct,sub_006_day_13_data.csv,1,300,117.0,Training at home,,,,,,,,,,,,,
6,13,2930,A,11.871396575376115,31.228452277425568,0.5935698287688058,0.490535381288698,A,1689.0317000215873,Correct,sub_006_day_13_data.csv,1,300,117.0,Training at home,,,,,,,,,,,,,
6,13,2931,A,23.32027703633394,44.94490483685723,1.1660138518166971,0.7059929142588153,A,469.5629000198096,Correct,sub_006_day_13_data.csv,1,300,117.0,Training at home,,,,,,,,,,,,,
6,13,2932,A,68.16374273304072,88.16070159551178,3.408187136652036,1.384825062338909,A,605.2580999676138,Correct,sub_006_day_13_data.csv,1,300,117.0,Training at home,,,,,,,,,,,,,
6,13,2933,A,16.94643998709188,43.713499684808646,0.847321999354594,0.6866500473624729,A,502.78709997655824,Correct,sub_006_day_13_data.csv,1,300,117.0,Training at home,,,,,,,,,,,,,
6,13,2934,B,54.291724697460474,36.600718869627066,2.7145862348730234,0.5749227475846286,B,482.58569999597967,Correct,sub_006_day_13_data.csv,1,300,117.0,Training at home,,,,,,,,,,,,,
6,13,2935,A,33.85823415180525,41.69101598741962,1.6929117075902624,0.6548809477338605,A,1183.6087999981828,Correct,sub_006_day_13_data.csv,1,300,117.0,Training at home,,,,,,,,,,,,,
6,13,2936,A,35.10227086087978,67.42043421230636,1.7551135430439888,1.059037704116078,A,735.8312000287697,Correct,sub_006_day_13_data.csv,1,300,117.0,Training at home,,,,,,,,,,,,,
6,13,2937,A,32.454874147417726,40.86087202855437,1.6227437073708864,0.6418410769208953,A,640.0106999790296,Correct,sub_006_day_13_data.csv,1,300,117.0,Training at home,,,,,,,,,,,,,
6,13,2938,A,58.21192619198519,67.55301141120978,2.91059630959926,1.0611202218866205,A,1203.5755999968387,Correct,sub_006_day_13_data.csv,1,300,117.0,Training at home,,,,,,,,,,,,,
6,13,2939,B,54.83065033362751,22.878353738638857,2.741532516681376,0.3593723401576821,B,450.4716999945231,Correct,sub_006_day_13_data.csv,1,300,117.0,Training at home,,,,,,,,,,,,,
6,13,2940,A,52.6852897403062,71.36009175021678,2.63426448701531,1.1209217000098737,A,1188.0318999756128,Correct,sub_006_day_13_data.csv,1,300,117.0,Training at home,,,,,,,,,,,,,
6,13,2941,B,77.86163583341286,66.42466529918238,3.893081791670643,1.0433962026053611,A,1559.5474000438116,Incorrect,sub_006_day_13_data.csv,0,300,117.0,Training at home,,,,,,,,,,,,,
6,13,2942,B,60.36859028640674,41.874715077360264,3.0184295143203372,0.6577664862910038,B,569.6467999950983,Correct,sub_006_day_13_data.csv,1,300,117.0,Training at home,,,,,,,,,,,,,
6,13,2943,B,70.05101409592899,47.35500641546832,3.5025507047964495,0.7438507013276641,B,661.046199966222,Correct,sub_006_day_13_data.csv,1,300,117.0,Training at home,,,,,,,,,,,,,
6,13,2944,A,42.86967985273475,66.79985414638914,2.1434839926367375,1.049289655235829,A,626.9638999947347,Correct,sub_006_day_13_data.csv,1,300,117.0,Training at home,,,,,,,,,,,,,
6,13,2945,B,30.497901338756304,11.130466576554578,1.5248950669378152,0.174836960139653,B,888.676599948667,Correct,sub_006_day_13_data.csv,1,300,117.0,Training at home,,,,,,,,,,,,,
6,13,2946,A,46.63775490031887,60.03097850158601,2.331887745015943,0.942964405241947,A,792.6144000375643,Correct,sub_006_day_13_data.csv,1,300,117.0,Training at home,,,,,,,,,,,,,
6,13,2947,B,51.80719837362854,31.97034383479472,2.590359918681427,0.5021889866206541,B,1368.214700021781,Correct,sub_006_day_13_data.csv,1,300,117.0,Training at home,,,,,,,,,,,,,
6,13,2948,B,67.35165013714459,49.90158633627287,3.3675825068572296,0.7838522851825585,B,657.9691999941133,Correct,sub_006_day_13_data.csv,1,300,117.0,Training at home,,,,,,,,,,,,,
6,13,2949,A,64.92355533408673,83.71468636492114,3.2461777667043363,1.314987218408049,A,731.1794999986887,Correct,sub_006_day_13_data.csv,1,300,117.0,Training at home,,,,,,,,,,,,,
6,13,2950,B,47.60895488289631,36.10833461499134,2.3804477441448157,0.5671883937990942,A,948.9874999853782,Incorrect,sub_006_day_13_data.csv,0,300,118.0,Training at home,,,,,,,,,,,,,
6,13,2951,A,48.642064079022475,66.71628874097944,2.4321032039511237,1.047977012917182,A,976.8320999573916,Correct,sub_006_day_13_data.csv,1,300,118.0,Training at home,,,,,,,,,,,,,
6,13,2952,B,69.71147340184949,59.698890099995566,3.4855736700924744,0.9377479728280526,B,498.1241000350565,Correct,sub_006_day_13_data.csv,1,300,118.0,Training at home,,,,,,,,,,,,,
6,13,2953,A,15.593171754427438,35.84746483473617,0.7796585877213719,0.5630906608731281,A,808.229299960658,Correct,sub_006_day_13_data.csv,1,300,118.0,Training at home,,,,,,,,,,,,,
6,13,2954,B,41.63937038045785,14.66147957654984,2.0819685190228925,0.2303019826422288,B,889.5054999738932,Correct,sub_006_day_13_data.csv,1,300,118.0,Training at home,,,,,,,,,,,,,
6,13,2955,B,48.844944069338794,25.06932584224683,2.44224720346694,0.393788049482257,B,510.34510001773015,Correct,sub_006_day_13_data.csv,1,300,118.0,Training at home,,,,,,,,,,,,,
6,13,2956,B,53.43836851633584,28.46805429842931,2.6719184258167923,0.4471751512297042,B,2076.0281999828294,Correct,sub_006_day_13_data.csv,1,300,118.0,Training at home,,,,,,,,,,,,,
6,13,2957,B,66.686028319966,36.896986296501254,3.3343014159983,0.5795765054434581,B,697.8927999734879,Correct,sub_006_day_13_data.csv,1,300,118.0,Training at home,,,,,,,,,,,,,
6,13,2958,B,73.14084923714091,52.88271480518948,3.6570424618570456,0.8306797416693372,A,1086.6941999993287,Incorrect,sub_006_day_13_data.csv,0,300,118.0,Training at home,,,,,,,,,,,,,
6,13,2959,B,47.76658760394482,40.61181408663944,2.388329380197241,0.6379288839177046,B,785.032800049521,Correct,sub_006_day_13_data.csv,1,300,118.0,Training at home,,,,,,,,,,,,,
6,13,2960,A,26.065389729744027,51.25476167590797,1.3032694864872014,0.8051079137126406,A,520.4082999844104,Correct,sub_006_day_13_data.csv,1,300,118.0,Training at home,,,,,,,,,,,,,
6,13,2961,B,39.07473120416077,29.97641992276987,1.9537365602080383,0.4708685030514826,A,873.0932000325993,Incorrect,sub_006_day_13_data.csv,0,300,118.0,Training at home,,,,,,,,,,,,,
6,13,2962,B,67.81512767836276,46.49626575980902,3.3907563839181374,0.7303616346518732,B,508.6674999911338,Correct,sub_006_day_13_data.csv,1,300,118.0,Training at home,,,,,,,,,,,,,
6,13,2963,B,42.586019934279946,21.82163021228124,2.1293009967139973,0.3427733658212791,B,950.1074000145308,Correct,sub_006_day_13_data.csv,1,300,118.0,Training at home,,,,,,,,,,,,,
6,13,2964,B,62.45017835028293,48.041839375411115,3.1225089175141467,0.7546394482336621,B,746.0092999972403,Correct,sub_006_day_13_data.csv,1,300,118.0,Training at home,,,,,,,,,,,,,
6,13,2965,A,61.54359701827482,87.21098747790903,3.077179850913741,1.3699069878645522,A,472.94479998527095,Correct,sub_006_day_13_data.csv,1,300,118.0,Training at home,,,,,,,,,,,,,
6,13,2966,A,55.02269150027966,78.58765139833565,2.7511345750139835,1.2344519414794346,A,474.9807000043802,Correct,sub_006_day_13_data.csv,1,300,118.0,Training at home,,,,,,,,,,,,,
6,13,2967,A,21.298835586459663,52.27729554412026,1.0649417793229832,0.8211698381547532,A,464.0144999721087,Correct,sub_006_day_13_data.csv,1,300,118.0,Training at home,,,,,,,,,,,,,
6,13,2968,A,59.51080957833585,87.21059495325743,2.9755404789167925,1.3699008221017432,A,504.4315000413917,Correct,sub_006_day_13_data.csv,1,300,118.0,Training at home,,,,,,,,,,,,,
6,13,2969,A,44.23992634577509,54.232698417460306,2.2119963172887545,0.8518852346632204,B,703.9793000440113,Incorrect,sub_006_day_13_data.csv,0,300,118.0,Training at home,,,,,,,,,,,,,
6,13,2970,B,86.71460504081502,67.19062304383381,4.335730252040751,1.0554278387231468,A,505.67210000008345,Incorrect,sub_006_day_13_data.csv,0,300,118.0,Training at home,,,,,,,,,,,,,
6,13,2971,B,44.06090387497672,14.96879595261456,2.2030451937488356,0.2351292969890926,B,540.3520000400022,Correct,sub_006_day_13_data.csv,1,300,118.0,Training at home,,,,,,,,,,,,,
6,13,2972,A,14.056155180171348,31.701270448901088,0.7028077590085674,0.4979623917586542,A,1217.8736999630928,Correct,sub_006_day_13_data.csv,1,300,118.0,Training at home,,,,,,,,,,,,,
6,13,2973,B,78.65239308578248,64.36958333990111,3.932619654289124,1.0111150506763464,B,611.9331000372767,Correct,sub_006_day_13_data.csv,1,300,118.0,Training at home,,,,,,,,,,,,,
6,13,2974,B,57.05014408422804,46.00974645030632,2.8525072042114017,0.7227194072090569,B,1291.7293999926187,Correct,sub_006_day_13_data.csv,1,300,118.0,Training at home,,,,,,,,,,,,,
6,13,2975,A,67.5176440523588,83.73494546276712,3.3758822026179405,1.3153054475728556,A,536.9794999714941,Correct,sub_006_day_13_data.csv,1,300,119.0,Training at home,,,,,,,,,,,,,
6,13,2976,B,78.59622322226573,46.707379598763886,3.929811161113286,0.733677803079532,B,709.7973999916576,Correct,sub_006_day_13_data.csv,1,300,119.0,Training at home,,,,,,,,,,,,,
6,13,2977,B,40.799777920162434,27.433247819930273,2.0399888960081216,0.4309204490760058,B,785.5937000131235,Correct,sub_006_day_13_data.csv,1,300,119.0,Training at home,,,,,,,,,,,,,
6,13,2978,B,55.66335556962362,24.70857101813775,2.783167778481181,0.3881213259564161,B,745.8217999665067,Correct,sub_006_day_13_data.csv,1,300,119.0,Training at home,,,,,,,,,,,,,
6,13,2979,A,36.47437627284509,64.90952845968852,1.8237188136422544,1.0195964887846751,A,558.9481999631971,Correct,sub_006_day_13_data.csv,1,300,119.0,Training at home,,,,,,,,,,,,,
6,13,2980,B,74.80450100323624,56.334809442541896,3.740225050161812,0.8849051174303526,B,796.2610999820754,Correct,sub_006_day_13_data.csv,1,300,119.0,Training at home,,,,,,,,,,,,,
6,13,2981,A,45.22466623934301,70.89373350438588,2.2612333119671506,1.1135961618146564,A,825.315700029023,Correct,sub_006_day_13_data.csv,1,300,119.0,Training at home,,,,,,,,,,,,,
6,13,2982,B,53.39986048959998,28.2287105072527,2.669993024479999,0.4434155477494904,B,854.2416999698617,Correct,sub_006_day_13_data.csv,1,300,119.0,Training at home,,,,,,,,,,,,,
6,13,2983,A,56.35624060897996,67.47030524984245,2.8178120304489984,1.0598210765418297,A,945.6678999704308,Correct,sub_006_day_13_data.csv,1,300,119.0,Training at home,,,,,,,,,,,,,
6,13,2984,A,55.63903921753949,81.02559505306039,2.7819519608769747,1.2727470708571798,A,626.0105000110343,Correct,sub_006_day_13_data.csv,1,300,119.0,Training at home,,,,,,,,,,,,,
6,13,2985,A,18.617597866304624,42.621101190234526,0.9308798933152312,0.66949069193574,A,528.9768000366166,Correct,sub_006_day_13_data.csv,1,300,119.0,Training at home,,,,,,,,,,,,,
6,13,2986,B,55.58925248406041,26.550145696753553,2.7794626242030205,0.4170487133632981,B,632.6475999667309,Correct,sub_006_day_13_data.csv,1,300,119.0,Training at home,,,,,,,,,,,,,
6,13,2987,A,40.1007925780315,54.802461748968554,2.0050396289015753,0.8608350561459763,A,480.651099991519,Correct,sub_006_day_13_data.csv,1,300,119.0,Training at home,,,,,,,,,,,,,
6,13,2988,B,66.32915386877133,34.197970031730954,3.3164576934385663,0.5371804570968494,B,926.6149000031874,Correct,sub_006_day_13_data.csv,1,300,119.0,Training at home,,,,,,,,,,,,,
6,13,2989,B,71.21533658343621,47.547984877011274,3.560766829171811,0.7468819999130861,B,850.0663000158966,Correct,sub_006_day_13_data.csv,1,300,119.0,Training at home,,,,,,,,,,,,,
6,13,2990,B,53.92667117062449,33.87864850818137,2.6963335585312245,0.532164566334267,B,734.7863999893889,Correct,sub_006_day_13_data.csv,1,300,119.0,Training at home,,,,,,,,,,,,,
6,13,2991,A,35.7813245340354,62.27221945293748,1.78906622670177,0.9781697357803988,A,842.7511999616399,Correct,sub_006_day_13_data.csv,1,300,119.0,Training at home,,,,,,,,,,,,,
6,13,2992,B,30.93564651636816,12.824671089334906,1.546782325818408,0.2014494623947997,B,652.3549999692477,Correct,sub_006_day_13_data.csv,1,300,119.0,Training at home,,,,,,,,,,,,,
6,13,2993,B,48.80291813866924,22.600592205533616,2.440145906933462,0.3550092721984157,B,668.881599965971,Correct,sub_006_day_13_data.csv,1,300,119.0,Training at home,,,,,,,,,,,,,
6,13,2994,A,60.87380856311917,76.94442077334998,3.0436904281559585,1.208640135181391,A,644.2618999863043,Correct,sub_006_day_13_data.csv,1,300,119.0,Training at home,,,,,,,,,,,,,
6,13,2995,A,39.22082832248525,57.438301191004136,1.9610414161242624,0.9022387252816824,A,1001.9611999741757,Correct,sub_006_day_13_data.csv,1,300,119.0,Training at home,,,,,,,,,,,,,
6,13,2996,B,67.50786876544598,44.53450983735463,3.375393438272299,0.6995464446812784,B,895.5022000009194,Correct,sub_006_day_13_data.csv,1,300,119.0,Training at home,,,,,,,,,,,,,
6,13,2997,B,31.988839965588937,14.280757593813185,1.5994419982794468,0.2243216157221007,B,704.1092999861576,Correct,sub_006_day_13_data.csv,1,300,119.0,Training at home,,,,,,,,,,,,,
6,13,2998,B,37.813799523523755,16.21960239431541,1.8906899761761875,0.2547769186306435,B,1175.7143000140786,Correct,sub_006_day_13_data.csv,1,300,119.0,Training at home,,,,,,,,,,,,,
6,13,2999,B,75.31023519624699,47.4613084932833,3.7655117598123495,0.7455204904612883,B,484.2244000174105,Correct,sub_006_day_13_data.csv,1,300,119.0,Training at home,,,,,,,,,,,,,
