subject,day,trial,cat,x,y,xt,yt,resp,rt,fb,f_name,acc,n_trials,block,session_type,ns_left_digit,ns_right_digit,ns_left_size,ns_right_size,ns_congruent,ns_cue,ns_correct_side,ns_resp,ns_rt,ns_fb,acc_stroop,acc_stroop_mean,resp_key
6,12,2400,A,21.687354656907488,48.69827286554385,1.0843677328453745,0.7649506813845186,A,858.3072000183165,Correct,sub_006_day_12_data.csv,1,300,96.0,Training at home,,,,,,,,,,,,,
6,12,2401,A,58.517469849780454,77.22122007041655,2.925873492489023,1.2129880883723068,A,981.3552999985404,Correct,sub_006_day_12_data.csv,1,300,96.0,Training at home,,,,,,,,,,,,,
6,12,2402,A,38.64087426107214,71.7700840694416,1.9320437130536072,1.1273618443003977,A,498.6726000206545,Correct,sub_006_day_12_data.csv,1,300,96.0,Training at home,,,,,,,,,,,,,
6,12,2403,A,47.60848218700897,70.02943013628011,2.3804241093504483,1.1000197162560863,A,632.7923000208102,Correct,sub_006_day_12_data.csv,1,300,96.0,Training at home,,,,,,,,,,,,,
6,12,2404,B,82.37299514380096,65.75924305054112,4.118649757190048,1.032943774366028,B,1112.0100999833085,Correct,sub_006_day_12_data.csv,1,300,96.0,Training at home,,,,,,,,,,,,,
6,12,2405,A,15.733402932832616,35.20277035357246,0.7866701466416308,0.552963823643959,A,562.3882000218146,Correct,sub_006_day_12_data.csv,1,300,96.0,Training at home,,,,,,,,,,,,,
6,12,2406,B,68.47638889234258,50.82336686798128,3.4238194446171293,0.7983315799157443,B,523.5544000170194,Correct,sub_006_day_12_data.csv,1,300,96.0,Training at home,,,,,,,,,,,,,
6,12,2407,A,43.771156056861905,51.13064989048173,2.188557802843095,0.8031583703460459,A,938.0634999834,Correct,sub_006_day_12_data.csv,1,300,96.0,Training at home,,,,,,,,,,,,,
6,12,2408,A,43.181999133757266,59.127082731642055,2.1590999566878635,0.9287660436896128,A,739.411199989263,Correct,sub_006_day_12_data.csv,1,300,96.0,Training at home,,,,,,,,,,,,,
6,12,2409,B,48.28714129958799,26.882576154351824,2.414357064979399,0.4222705187803992,B,752.6672999956645,Correct,sub_006_day_12_data.csv,1,300,96.0,Training at home,,,,,,,,,,,,,
6,12,2410,B,70.02240345880233,37.086349829380595,3.5011201729401167,0.5825510208622158,B,820.0326000223868,Correct,sub_006_day_12_data.csv,1,300,96.0,Training at home,,,,,,,,,,,,,
6,12,2411,B,51.35238749369918,30.24923049597706,2.5676193746849596,0.4751538015145293,B,1376.6879999893715,Correct,sub_006_day_12_data.csv,1,300,96.0,Training at home,,,,,,,,,,,,,
6,12,2412,B,73.77470349057114,42.89711285790683,3.6887351745285577,0.6738262730730619,B,585.8955000294372,Correct,sub_006_day_12_data.csv,1,300,96.0,Training at home,,,,,,,,,,,,,
6,12,2413,A,22.019894419560504,45.559351541186025,1.100994720978025,0.715644620520524,A,533.8467999827117,Correct,sub_006_day_12_data.csv,1,300,96.0,Training at home,,,,,,,,,,,,,
6,12,2414,A,65.60954582876913,86.35958847873576,3.2804772914384563,1.3565332436591695,A,783.5053000017069,Correct,sub_006_day_12_data.csv,1,300,96.0,Training at home,,,,,,,,,,,,,
6,12,2415,A,34.79605912896455,44.95407680449984,1.7398029564482274,0.70613698718964,A,763.6045000399463,Correct,sub_006_day_12_data.csv,1,300,96.0,Training at home,,,,,,,,,,,,,
6,12,2416,A,17.344669267015266,31.969561202180603,0.8672334633507632,0.5021766930562993,A,920.5669000511988,Correct,sub_006_day_12_data.csv,1,300,96.0,Training at home,,,,,,,,,,,,,
6,12,2417,A,24.984546439498025,36.28818635333634,1.2492273219749013,0.5700134982986942,A,1074.9897999921814,Correct,sub_006_day_12_data.csv,1,300,96.0,Training at home,,,,,,,,,,,,,
6,12,2418,B,51.69447339959423,29.749225393158262,2.5847236699797116,0.4672997397256646,B,1110.5382000096142,Correct,sub_006_day_12_data.csv,1,300,96.0,Training at home,,,,,,,,,,,,,
6,12,2419,B,62.78805923039371,54.98648982119674,3.139402961519686,0.8637257623448082,B,2050.9393000393175,Correct,sub_006_day_12_data.csv,1,300,96.0,Training at home,,,,,,,,,,,,,
6,12,2420,A,61.38971987952189,81.7203850756662,3.069485993976094,1.2836608070112094,A,849.4811999844387,Correct,sub_006_day_12_data.csv,1,300,96.0,Training at home,,,,,,,,,,,,,
6,12,2421,A,27.838441152709272,39.56516660626964,1.3919220576354636,0.6214881837415646,A,646.0149000049569,Correct,sub_006_day_12_data.csv,1,300,96.0,Training at home,,,,,,,,,,,,,
6,12,2422,B,54.41931364819393,43.00135594287644,2.7209656824096964,0.6754637196227021,B,687.0493000023998,Correct,sub_006_day_12_data.csv,1,300,96.0,Training at home,,,,,,,,,,,,,
6,12,2423,B,45.249199832003185,16.332862872746304,2.262459991600159,0.2565560100655463,B,641.7782999924384,Correct,sub_006_day_12_data.csv,1,300,96.0,Training at home,,,,,,,,,,,,,
6,12,2424,B,87.69204015848058,61.15682616620458,4.3846020079240295,0.9606491790030816,B,1155.3392999921923,Correct,sub_006_day_12_data.csv,1,300,96.0,Training at home,,,,,,,,,,,,,
6,12,2425,B,57.67943295871174,36.197327564411395,2.8839716479355872,0.5685862917796908,B,813.6235999991186,Correct,sub_006_day_12_data.csv,1,300,97.0,Training at home,,,,,,,,,,,,,
6,12,2426,B,58.50436089422389,47.5301930624079,2.925218044711195,0.7466025267428261,B,521.7026000027545,Correct,sub_006_day_12_data.csv,1,300,97.0,Training at home,,,,,,,,,,,,,
6,12,2427,A,33.72102915636599,58.93409590832428,1.6860514578182997,0.9257346137577392,A,850.1752999727614,Correct,sub_006_day_12_data.csv,1,300,97.0,Training at home,,,,,,,,,,,,,
6,12,2428,B,37.2432122859696,26.682164964338327,1.86216061429848,0.4191224671691811,B,579.8170000198297,Correct,sub_006_day_12_data.csv,1,300,97.0,Training at home,,,,,,,,,,,,,
6,12,2429,A,65.28949385926413,78.43698813303726,3.2644746929632062,1.232085328442298,A,672.0410999841988,Correct,sub_006_day_12_data.csv,1,300,97.0,Training at home,,,,,,,,,,,,,
6,12,2430,A,38.95332599135792,55.79702465030412,1.947666299567896,0.8764576136678202,A,716.1608999595046,Correct,sub_006_day_12_data.csv,1,300,97.0,Training at home,,,,,,,,,,,,,
6,12,2431,B,51.62611478316934,38.362861793397634,2.581305739158467,0.6026024239040928,B,1069.8748999857344,Correct,sub_006_day_12_data.csv,1,300,97.0,Training at home,,,,,,,,,,,,,
6,12,2432,B,54.50889436156716,33.7844180065628,2.725444718078358,0.5306843970761221,B,1466.4243999868631,Correct,sub_006_day_12_data.csv,1,300,97.0,Training at home,,,,,,,,,,,,,
6,12,2433,B,54.21992348804843,24.354002886488537,2.710996174402421,0.382551782768485,B,889.0136000118218,Correct,sub_006_day_12_data.csv,1,300,97.0,Training at home,,,,,,,,,,,,,
6,12,2434,A,29.49901902176602,56.09527457379865,1.474950951088301,0.8811425125107407,A,1291.833600029349,Correct,sub_006_day_12_data.csv,1,300,97.0,Training at home,,,,,,,,,,,,,
6,12,2435,B,63.70886026198251,53.41046918264052,3.1854430130991256,0.8389696880448374,B,965.2132000192069,Correct,sub_006_day_12_data.csv,1,300,97.0,Training at home,,,,,,,,,,,,,
6,12,2436,A,60.52747137768444,76.46691251084961,3.0263735688842224,1.201139452933893,A,1032.4738000053912,Correct,sub_006_day_12_data.csv,1,300,97.0,Training at home,,,,,,,,,,,,,
6,12,2437,B,67.83276640246241,35.51759510156907,3.391638320123121,0.5579090792213312,B,536.941799975466,Correct,sub_006_day_12_data.csv,1,300,97.0,Training at home,,,,,,,,,,,,,
6,12,2438,A,42.161969161544455,63.95566560764094,2.108098458077223,1.004613246142051,A,1007.5466000125743,Correct,sub_006_day_12_data.csv,1,300,97.0,Training at home,,,,,,,,,,,,,
6,12,2439,A,48.55567464422589,65.77204014646357,2.4277837322112945,1.0331447906787143,A,1041.6812999756075,Correct,sub_006_day_12_data.csv,1,300,97.0,Training at home,,,,,,,,,,,,,
6,12,2440,A,53.88492323223439,77.15258615493178,2.6942461616117197,1.2119099893489362,A,962.5482999836096,Correct,sub_006_day_12_data.csv,1,300,97.0,Training at home,,,,,,,,,,,,,
6,12,2441,A,37.920416226603585,49.18563278846636,1.896020811330179,0.7726061131520559,A,1422.6286999764852,Correct,sub_006_day_12_data.csv,1,300,97.0,Training at home,,,,,,,,,,,,,
6,12,2442,A,54.325014447257786,73.37791946013769,2.716250722362889,1.1526176635583605,A,750.5401999806054,Correct,sub_006_day_12_data.csv,1,300,97.0,Training at home,,,,,,,,,,,,,
6,12,2443,A,35.780572271235165,58.44710514843428,1.7890286135617584,0.9180849807895566,A,859.6689999685623,Correct,sub_006_day_12_data.csv,1,300,97.0,Training at home,,,,,,,,,,,,,
6,12,2444,A,25.82619416220058,51.464284437583274,1.2913097081100289,0.8083990895568356,A,788.256400031969,Correct,sub_006_day_12_data.csv,1,300,97.0,Training at home,,,,,,,,,,,,,
6,12,2445,A,33.70289193663949,45.99023783227882,1.6851445968319745,0.7224129665536727,A,505.7706000516191,Correct,sub_006_day_12_data.csv,1,300,97.0,Training at home,,,,,,,,,,,,,
6,12,2446,B,40.08869634685695,28.653402377959488,2.0044348173428475,0.4500865920547491,B,1428.7566999555563,Correct,sub_006_day_12_data.csv,1,300,97.0,Training at home,,,,,,,,,,,,,
6,12,2447,B,51.52211719901981,23.068849291375233,2.5761058599509905,0.3623646373027727,B,754.8191000241786,Correct,sub_006_day_12_data.csv,1,300,97.0,Training at home,,,,,,,,,,,,,
6,12,2448,A,63.09599950471723,80.47017751642744,3.154799975235861,1.264022592593375,A,558.8609999977052,Correct,sub_006_day_12_data.csv,1,300,97.0,Training at home,,,,,,,,,,,,,
6,12,2449,B,80.21617361435969,56.560160313624465,4.010808680717985,0.888444920635718,B,525.7360000396147,Correct,sub_006_day_12_data.csv,1,300,97.0,Training at home,,,,,,,,,,,,,
6,12,2450,A,19.44828145906365,36.548884175640154,0.9724140729531824,0.5741085301154767,A,678.5452000331134,Correct,sub_006_day_12_data.csv,1,300,98.0,Training at home,,,,,,,,,,,,,
6,12,2451,A,12.462539640036248,36.31007833194664,0.6231269820018124,0.5703573766945674,A,697.5080999545753,Correct,sub_006_day_12_data.csv,1,300,98.0,Training at home,,,,,,,,,,,,,
6,12,2452,B,39.796508412713976,21.526039070814207,1.989825420635699,0.3381302310287838,A,721.7297999886796,Incorrect,sub_006_day_12_data.csv,0,300,98.0,Training at home,,,,,,,,,,,,,
6,12,2453,A,34.326480105392704,50.61176800379612,1.7163240052696351,0.7950077927295841,A,1099.925999995321,Correct,sub_006_day_12_data.csv,1,300,98.0,Training at home,,,,,,,,,,,,,
6,12,2454,B,42.117973022854216,26.981246175203555,2.1058986511427107,0.423820423843586,B,668.2695000199601,Correct,sub_006_day_12_data.csv,1,300,98.0,Training at home,,,,,,,,,,,,,
6,12,2455,A,57.90733922093462,79.82227211101645,2.8953669610467307,1.2538453182840734,A,691.0146999871358,Correct,sub_006_day_12_data.csv,1,300,98.0,Training at home,,,,,,,,,,,,,
6,12,2456,A,58.75648244005383,68.82131191429764,2.9378241220026915,1.0810426396018458,A,788.433299981989,Correct,sub_006_day_12_data.csv,1,300,98.0,Training at home,,,,,,,,,,,,,
6,12,2457,B,41.32217108271314,31.329758280423,2.066108554135657,0.4921266922626044,B,644.5093000074849,Correct,sub_006_day_12_data.csv,1,300,98.0,Training at home,,,,,,,,,,,,,
6,12,2458,A,50.56447438820497,80.97911963229758,2.528223719410249,1.2720170366549757,A,798.0576999834739,Correct,sub_006_day_12_data.csv,1,300,98.0,Training at home,,,,,,,,,,,,,
6,12,2459,B,72.3417367693955,54.565552811552635,3.6170868384697745,0.8571136992591982,B,654.337799991481,Correct,sub_006_day_12_data.csv,1,300,98.0,Training at home,,,,,,,,,,,,,
6,12,2460,B,75.81430699664753,53.09228213059995,3.790715349832377,0.8339716175190471,B,627.9163000290282,Correct,sub_006_day_12_data.csv,1,300,98.0,Training at home,,,,,,,,,,,,,
6,12,2461,A,49.89906447811727,64.1355606752112,2.4949532239058634,1.0074390312555297,A,1114.1337999724783,Correct,sub_006_day_12_data.csv,1,300,98.0,Training at home,,,,,,,,,,,,,
6,12,2462,B,72.24302345127656,47.29188371265885,3.612151172563827,0.7428591722305593,B,948.9391000242904,Correct,sub_006_day_12_data.csv,1,300,98.0,Training at home,,,,,,,,,,,,,
6,12,2463,B,52.12759461277781,29.16478351468464,2.6063797306388903,0.4581193481663499,B,905.9891999932006,Correct,sub_006_day_12_data.csv,1,300,98.0,Training at home,,,,,,,,,,,,,
6,12,2464,B,65.94599729043762,47.92064570516866,3.297299864521881,0.7527357425131856,B,661.8528999970295,Correct,sub_006_day_12_data.csv,1,300,98.0,Training at home,,,,,,,,,,,,,
6,12,2465,A,68.80876061140401,84.39313351179389,3.4404380305702005,1.3256442412703713,A,817.2160999965854,Correct,sub_006_day_12_data.csv,1,300,98.0,Training at home,,,,,,,,,,,,,
6,12,2466,B,58.393037350169855,51.05882363681209,2.919651867508493,0.8020301261917288,B,784.9343999987468,Correct,sub_006_day_12_data.csv,1,300,98.0,Training at home,,,,,,,,,,,,,
6,12,2467,B,38.34636109614507,12.580470876838447,1.9173180548072537,0.19761357442688,B,743.70920000365,Correct,sub_006_day_12_data.csv,1,300,98.0,Training at home,,,,,,,,,,,,,
6,12,2468,B,76.06379722306374,45.56326920529984,3.803189861153187,0.7157061590445202,B,810.1812999811955,Correct,sub_006_day_12_data.csv,1,300,98.0,Training at home,,,,,,,,,,,,,
6,12,2469,A,18.782094270078673,47.18212158121579,0.9391047135039337,0.7411350327016399,A,526.4884000062011,Correct,sub_006_day_12_data.csv,1,300,98.0,Training at home,,,,,,,,,,,,,
6,12,2470,B,62.21861599095277,41.207641080398545,3.110930799547639,0.6472881124497252,B,842.8792000049725,Correct,sub_006_day_12_data.csv,1,300,98.0,Training at home,,,,,,,,,,,,,
6,12,2471,A,10.709838571806111,32.50797469963871,0.5354919285903057,0.5106340724973392,A,636.4430999965407,Correct,sub_006_day_12_data.csv,1,300,98.0,Training at home,,,,,,,,,,,,,
6,12,2472,B,61.610881923440786,43.63245179929197,3.0805440961720394,0.6853769501538322,B,556.0695999884047,Correct,sub_006_day_12_data.csv,1,300,98.0,Training at home,,,,,,,,,,,,,
6,12,2473,B,56.39815200800176,32.916330788527425,2.819907600400088,0.5170485149418464,B,499.8954000184313,Correct,sub_006_day_12_data.csv,1,300,98.0,Training at home,,,,,,,,,,,,,
6,12,2474,A,50.28124419398704,60.943322191039016,2.514062209699352,0.95729546640362,A,618.0656999931671,Correct,sub_006_day_12_data.csv,1,300,98.0,Training at home,,,,,,,,,,,,,
6,12,2475,B,84.7400453720539,63.248637544945424,4.237002268602695,0.9935072753038204,B,960.2781999856234,Correct,sub_006_day_12_data.csv,1,300,99.0,Training at home,,,,,,,,,,,,,
6,12,2476,B,80.1744107284923,52.551639537731184,4.008720536424615,0.8254792235291759,B,629.7614999930374,Correct,sub_006_day_12_data.csv,1,300,99.0,Training at home,,,,,,,,,,,,,
6,12,2477,B,42.31294023033925,34.40209265292425,2.115647011516962,0.5403868077327112,B,825.4482999909669,Correct,sub_006_day_12_data.csv,1,300,99.0,Training at home,,,,,,,,,,,,,
6,12,2478,A,16.81990849972582,39.230616571056125,0.8409954249862909,0.6162330840771395,A,1123.169999977108,Correct,sub_006_day_12_data.csv,1,300,99.0,Training at home,,,,,,,,,,,,,
6,12,2479,A,58.174748424231446,73.85597608862338,2.9087374212115726,1.160126959518613,A,648.9109999965876,Correct,sub_006_day_12_data.csv,1,300,99.0,Training at home,,,,,,,,,,,,,
6,12,2480,B,71.30096848893244,45.81903450317562,3.565048424446622,0.719723710948769,B,549.4830000097863,Correct,sub_006_day_12_data.csv,1,300,99.0,Training at home,,,,,,,,,,,,,
6,12,2481,A,27.164620107124485,52.70568832925117,1.358231005356224,0.8278990162878439,A,517.5165999680758,Correct,sub_006_day_12_data.csv,1,300,99.0,Training at home,,,,,,,,,,,,,
6,12,2482,A,39.4141760210367,69.29833700054868,1.970708801051835,1.0885357321345674,A,492.7231000037864,Correct,sub_006_day_12_data.csv,1,300,99.0,Training at home,,,,,,,,,,,,,
6,12,2483,A,16.966738720906832,41.64584469044822,0.8483369360453417,0.6541713986602682,A,599.9422000022605,Correct,sub_006_day_12_data.csv,1,300,99.0,Training at home,,,,,,,,,,,,,
6,12,2484,A,21.116153747024093,38.5276605211696,1.0558076873512048,0.6051910762665397,A,530.1805000053719,Correct,sub_006_day_12_data.csv,1,300,99.0,Training at home,,,,,,,,,,,,,
6,12,2485,B,88.45720114715263,66.86583474208906,4.4228600573576315,1.0503260760094808,B,513.5813999804668,Correct,sub_006_day_12_data.csv,1,300,99.0,Training at home,,,,,,,,,,,,,
6,12,2486,B,42.193415519431895,25.15442560189054,2.1096707759715945,0.3951247933808516,B,733.3046999992803,Correct,sub_006_day_12_data.csv,1,300,99.0,Training at home,,,,,,,,,,,,,
6,12,2487,A,60.50467972634467,77.19076602366451,3.0252339863172337,1.2125097173245651,A,644.180100003723,Correct,sub_006_day_12_data.csv,1,300,99.0,Training at home,,,,,,,,,,,,,
6,12,2488,A,34.58648501273378,58.540088221040826,1.7293242506366893,0.9195455554786012,A,1236.1483999993652,Correct,sub_006_day_12_data.csv,1,300,99.0,Training at home,,,,,,,,,,,,,
6,12,2489,B,46.38421664217135,36.22763507012649,2.3192108321085674,0.5690623609662067,B,706.5916000283323,Correct,sub_006_day_12_data.csv,1,300,99.0,Training at home,,,,,,,,,,,,,
6,12,2490,A,66.2135680103404,78.16921369335469,3.31067840051702,1.227879137379669,A,975.2822000300512,Correct,sub_006_day_12_data.csv,1,300,99.0,Training at home,,,,,,,,,,,,,
6,12,2491,B,33.16524695375104,15.077686694432554,1.6582623476875518,0.2368397487617894,B,1002.2874000133016,Correct,sub_006_day_12_data.csv,1,300,99.0,Training at home,,,,,,,,,,,,,
6,12,2492,B,48.23936024809902,32.409643168200134,2.4119680124049507,0.5090894844134208,B,844.5886999834329,Correct,sub_006_day_12_data.csv,1,300,99.0,Training at home,,,,,,,,,,,,,
6,12,2493,A,62.74879994581835,87.09276758747437,3.1374399972909175,1.3680499941680635,A,677.1800999995321,Correct,sub_006_day_12_data.csv,1,300,99.0,Training at home,,,,,,,,,,,,,
6,12,2494,B,72.50166735811872,47.94030002415322,3.625083367905936,0.7530444718338515,B,931.7393999663182,Correct,sub_006_day_12_data.csv,1,300,99.0,Training at home,,,,,,,,,,,,,
6,12,2495,A,60.67486870278758,73.80388569182962,3.033743435139379,1.159308725479164,A,1162.020699994173,Correct,sub_006_day_12_data.csv,1,300,99.0,Training at home,,,,,,,,,,,,,
6,12,2496,A,21.7605210162508,34.45424930693397,1.08802605081254,0.5412060825380748,B,892.7232000278309,Incorrect,sub_006_day_12_data.csv,0,300,99.0,Training at home,,,,,,,,,,,,,
6,12,2497,B,86.35019377595705,60.04824029381683,4.317509688797853,0.9432355528402476,B,1482.842300029006,Correct,sub_006_day_12_data.csv,1,300,99.0,Training at home,,,,,,,,,,,,,
6,12,2498,B,85.19708337444685,69.01578399797576,4.259854168722343,1.0840973999489032,B,1163.0707000149414,Correct,sub_006_day_12_data.csv,1,300,99.0,Training at home,,,,,,,,,,,,,
6,12,2499,B,77.27524624223625,51.54140121158805,3.863762312111812,0.8096104370102455,B,568.277999991551,Correct,sub_006_day_12_data.csv,1,300,99.0,Training at home,,,,,,,,,,,,,
6,12,2500,A,19.279994610278788,33.41605730204003,0.9639997305139394,0.5248982006601226,A,840.6948000192642,Correct,sub_006_day_12_data.csv,1,300,100.0,Training at home,,,,,,,,,,,,,
6,12,2501,A,12.92579465393409,32.076419627258275,0.6462897326967045,0.5038552212722903,A,2209.811799984891,Correct,sub_006_day_12_data.csv,1,300,100.0,Training at home,,,,,,,,,,,,,
6,12,2502,A,29.83589585819361,47.34574966137414,1.4917947929096806,0.7437052965743723,A,745.6404999829829,Correct,sub_006_day_12_data.csv,1,300,100.0,Training at home,,,,,,,,,,,,,
6,12,2503,A,67.17909366039181,85.78805677598112,3.3589546830195904,1.347555644665832,A,956.433699990157,Correct,sub_006_day_12_data.csv,1,300,100.0,Training at home,,,,,,,,,,,,,
6,12,2504,A,26.052531180065458,56.12931143245339,1.3026265590032728,0.8816771622362458,A,634.3336999998428,Correct,sub_006_day_12_data.csv,1,300,100.0,Training at home,,,,,,,,,,,,,
6,12,2505,A,15.964795263183548,33.05306397986103,0.7982397631591773,0.5191963148888241,A,662.5697999843396,Correct,sub_006_day_12_data.csv,1,300,100.0,Training at home,,,,,,,,,,,,,
6,12,2506,B,54.533734807539275,36.998942238417605,2.726686740376964,0.5811780256340293,B,584.1680999728851,Correct,sub_006_day_12_data.csv,1,300,100.0,Training at home,,,,,,,,,,,,,
6,12,2507,A,18.803925625640385,36.16556101324076,0.9401962812820192,0.568087303960753,A,585.3939999942668,Correct,sub_006_day_12_data.csv,1,300,100.0,Training at home,,,,,,,,,,,,,
6,12,2508,A,40.414836189517075,66.49894370859874,2.0207418094758536,1.044562965132075,A,769.9204999953508,Correct,sub_006_day_12_data.csv,1,300,100.0,Training at home,,,,,,,,,,,,,
6,12,2509,B,49.31272345739123,38.5236963605664,2.4656361728695613,0.6051288073773963,B,823.0388999800198,Correct,sub_006_day_12_data.csv,1,300,100.0,Training at home,,,,,,,,,,,,,
6,12,2510,B,75.68185215503429,43.48823327631578,3.7840926077517145,0.6831115708923642,B,610.3433000389487,Correct,sub_006_day_12_data.csv,1,300,100.0,Training at home,,,,,,,,,,,,,
6,12,2511,A,41.20375590703907,58.20968162838724,2.060187795351953,0.9143555408577104,A,643.4971999842674,Correct,sub_006_day_12_data.csv,1,300,100.0,Training at home,,,,,,,,,,,,,
6,12,2512,A,54.740945983201414,77.10437787729856,2.7370472991600705,1.2111527354946623,A,1050.4098000237718,Correct,sub_006_day_12_data.csv,1,300,100.0,Training at home,,,,,,,,,,,,,
6,12,2513,B,86.12479033989965,57.640819721213816,4.306239516994982,0.9054198789152952,B,544.2302000010386,Correct,sub_006_day_12_data.csv,1,300,100.0,Training at home,,,,,,,,,,,,,
6,12,2514,B,58.73711333283543,50.782617459256485,2.9368556666417716,0.7976914897003046,B,734.2161000124179,Correct,sub_006_day_12_data.csv,1,300,100.0,Training at home,,,,,,,,,,,,,
6,12,2515,B,52.72019046369962,39.00592541475952,2.636009523184981,0.6127036436473995,B,1269.6657999767922,Correct,sub_006_day_12_data.csv,1,300,100.0,Training at home,,,,,,,,,,,,,
6,12,2516,A,30.759413713182976,54.91389790954515,1.5379706856591489,0.8625854912630349,A,567.5936000188813,Correct,sub_006_day_12_data.csv,1,300,100.0,Training at home,,,,,,,,,,,,,
6,12,2517,B,74.63096266000623,50.53288763089805,3.7315481330003113,0.7937687427295391,B,543.4101999853738,Correct,sub_006_day_12_data.csv,1,300,100.0,Training at home,,,,,,,,,,,,,
6,12,2518,B,78.54046210604551,54.452185671094455,3.927023105302276,0.8553329323810885,B,464.674599992577,Correct,sub_006_day_12_data.csv,1,300,100.0,Training at home,,,,,,,,,,,,,
6,12,2519,B,69.2893910857917,53.5150081906411,3.464469554289585,0.8406117829425784,B,597.9192000231706,Correct,sub_006_day_12_data.csv,1,300,100.0,Training at home,,,,,,,,,,,,,
6,12,2520,A,14.11479924087465,38.53667081723462,0.7057399620437325,0.6053326096661623,A,701.211899984628,Correct,sub_006_day_12_data.csv,1,300,100.0,Training at home,,,,,,,,,,,,,
6,12,2521,B,69.07253660407312,56.804082852781846,3.453626830203656,0.8922764469210269,B,829.7482000198215,Correct,sub_006_day_12_data.csv,1,300,100.0,Training at home,,,,,,,,,,,,,
6,12,2522,A,52.379404581441065,77.23634671928357,2.6189702290720533,1.2132256972170772,A,599.5114999823272,Correct,sub_006_day_12_data.csv,1,300,100.0,Training at home,,,,,,,,,,,,,
6,12,2523,B,75.12687832846821,62.0113573870137,3.7563439164234103,0.974072124030867,B,661.7899000411853,Correct,sub_006_day_12_data.csv,1,300,100.0,Training at home,,,,,,,,,,,,,
6,12,2524,A,41.76472517631208,63.15681265366093,2.088236258815604,0.9920648932844404,A,514.2272000084631,Correct,sub_006_day_12_data.csv,1,300,100.0,Training at home,,,,,,,,,,,,,
6,12,2525,A,54.565296407580846,72.10866125211172,2.7282648203790423,1.1326802022491458,A,880.6136000202969,Correct,sub_006_day_12_data.csv,1,300,101.0,Training at home,,,,,,,,,,,,,
6,12,2526,B,53.46282110993576,44.29576090671551,2.673141055496788,0.6957961852485369,B,750.2628999645822,Correct,sub_006_day_12_data.csv,1,300,101.0,Training at home,,,,,,,,,,,,,
6,12,2527,A,29.10053216007689,40.962473698715826,1.4550266080038443,0.6434370322237538,A,1105.3761999937706,Correct,sub_006_day_12_data.csv,1,300,101.0,Training at home,,,,,,,,,,,,,
6,12,2528,A,25.40171779084062,53.93900475590437,1.270085889542031,0.8472719054154704,A,760.6632000533864,Correct,sub_006_day_12_data.csv,1,300,101.0,Training at home,,,,,,,,,,,,,
6,12,2529,B,39.44462061399565,23.794799286126473,1.9722310306997823,0.373767833154693,B,595.1705999905244,Correct,sub_006_day_12_data.csv,1,300,101.0,Training at home,,,,,,,,,,,,,
6,12,2530,A,40.690054686556806,65.90957220460733,2.03450273432784,1.035305139196202,A,791.0928999772295,Correct,sub_006_day_12_data.csv,1,300,101.0,Training at home,,,,,,,,,,,,,
6,12,2531,B,42.10485960655417,29.638577478460284,2.1052429803277084,0.4655616863459136,B,639.4553999998607,Correct,sub_006_day_12_data.csv,1,300,101.0,Training at home,,,,,,,,,,,,,
6,12,2532,B,44.73988218706712,30.48042996438287,2.236994109353356,0.4787854742718171,B,1814.3328999867665,Correct,sub_006_day_12_data.csv,1,300,101.0,Training at home,,,,,,,,,,,,,
6,12,2533,A,53.8600596304081,73.73278404923346,2.6930029815204053,1.1581918634889723,A,602.9569999664091,Correct,sub_006_day_12_data.csv,1,300,101.0,Training at home,,,,,,,,,,,,,
6,12,2534,B,83.70733411470754,62.40935084583604,4.185366705735377,0.9803237906629322,B,622.3899000324309,Correct,sub_006_day_12_data.csv,1,300,101.0,Training at home,,,,,,,,,,,,,
6,12,2535,A,22.719806683691907,38.85924766129524,1.1359903341845952,0.6103996348837575,A,573.5066999914125,Correct,sub_006_day_12_data.csv,1,300,101.0,Training at home,,,,,,,,,,,,,
6,12,2536,B,53.577296849752635,46.68379561552745,2.6788648424876316,0.7333073467371422,B,1978.3965999959037,Correct,sub_006_day_12_data.csv,1,300,101.0,Training at home,,,,,,,,,,,,,
6,12,2537,B,55.38627793224459,36.21477295843293,2.7693138966122297,0.568860323388176,B,2766.1486999713816,Correct,sub_006_day_12_data.csv,1,300,101.0,Training at home,,,,,,,,,,,,,
6,12,2538,B,46.34826226062664,17.803702295265506,2.317413113031332,0.2796599016875292,B,918.8483000034466,Correct,sub_006_day_12_data.csv,1,300,101.0,Training at home,,,,,,,,,,,,,
6,12,2539,B,71.74342263368126,49.669109544018134,3.587171131684063,0.7802005482691702,B,3574.176800029818,Correct,sub_006_day_12_data.csv,1,300,101.0,Training at home,,,,,,,,,,,,,
6,12,2540,A,54.465241416883714,63.60934766059131,2.7232620708441857,0.9991732965507636,A,898.8881999976002,Correct,sub_006_day_12_data.csv,1,300,101.0,Training at home,,,,,,,,,,,,,
6,12,2541,B,70.56095632955892,57.99642653668447,3.5280478164779456,0.9110057377105404,B,1609.2595999944024,Correct,sub_006_day_12_data.csv,1,300,101.0,Training at home,,,,,,,,,,,,,
6,12,2542,A,60.57280210302527,84.67847416488326,3.028640105151263,1.3301263617679515,A,1045.009299996309,Correct,sub_006_day_12_data.csv,1,300,101.0,Training at home,,,,,,,,,,,,,
6,12,2543,B,53.21177962769085,37.53637850459778,2.6605889813845427,0.589620054762051,B,1081.8312999908812,Correct,sub_006_day_12_data.csv,1,300,101.0,Training at home,,,,,,,,,,,,,
6,12,2544,B,73.92216126405025,50.05559794053997,3.696108063202512,0.7862714938052237,B,900.211300002411,Correct,sub_006_day_12_data.csv,1,300,101.0,Training at home,,,,,,,,,,,,,
6,12,2545,B,52.66290756754594,41.50265501730387,2.6331453783772973,0.6519221805341671,B,760.1026999764144,Correct,sub_006_day_12_data.csv,1,300,101.0,Training at home,,,,,,,,,,,,,
6,12,2546,A,54.591714083885805,76.55748544675052,2.72958570419429,1.2025621692840949,A,911.8237000075168,Correct,sub_006_day_12_data.csv,1,300,101.0,Training at home,,,,,,,,,,,,,
6,12,2547,B,75.7094162630349,57.518911058343406,3.7854708131517447,0.9035049421168816,B,914.1638000146486,Correct,sub_006_day_12_data.csv,1,300,101.0,Training at home,,,,,,,,,,,,,
6,12,2548,B,62.81773217246627,31.67239325375106,3.1408866086233136,0.4975087898379563,B,602.6855999953113,Correct,sub_006_day_12_data.csv,1,300,101.0,Training at home,,,,,,,,,,,,,
6,12,2549,A,59.006531225976865,84.85711251608191,2.9503265612988434,1.332932406426827,A,603.0645000282675,Correct,sub_006_day_12_data.csv,1,300,101.0,Training at home,,,,,,,,,,,,,
6,12,2550,A,12.988746673701732,31.669102470326507,0.6494373336850867,0.4974570983328006,B,604.1243000072427,Incorrect,sub_006_day_12_data.csv,0,300,102.0,Training at home,,,,,,,,,,,,,
6,12,2551,A,29.277133616093245,57.67729420850553,1.4638566808046622,0.9059928188218904,A,1036.8530999985524,Correct,sub_006_day_12_data.csv,1,300,102.0,Training at home,,,,,,,,,,,,,
6,12,2552,B,80.80719668541741,65.86956621588563,4.040359834270871,1.0346767265948635,B,639.9519999977201,Correct,sub_006_day_12_data.csv,1,300,102.0,Training at home,,,,,,,,,,,,,
6,12,2553,A,35.21708425265416,57.35845518361747,1.760854212632708,0.9009845071305602,A,567.9650999954902,Correct,sub_006_day_12_data.csv,1,300,102.0,Training at home,,,,,,,,,,,,,
6,12,2554,A,44.22638307790533,56.75508066381512,2.2113191538952663,0.8915067223366885,A,1376.6756000113674,Correct,sub_006_day_12_data.csv,1,300,102.0,Training at home,,,,,,,,,,,,,
6,12,2555,A,31.48572108866702,56.271509763874406,1.574286054433351,0.8839108084029706,A,575.7537999888882,Correct,sub_006_day_12_data.csv,1,300,102.0,Training at home,,,,,,,,,,,,,
6,12,2556,B,87.11441252027427,65.34559957440197,4.355720626013714,1.0264462778368078,B,614.0495000290684,Correct,sub_006_day_12_data.csv,1,300,102.0,Training at home,,,,,,,,,,,,,
6,12,2557,A,32.72551025203476,55.46504241446251,1.636275512601738,0.8712428489016086,A,811.5296000032686,Correct,sub_006_day_12_data.csv,1,300,102.0,Training at home,,,,,,,,,,,,,
6,12,2558,A,50.46846288886023,71.46552560303056,2.5234231444430115,1.1225778510970703,A,885.8097000047565,Correct,sub_006_day_12_data.csv,1,300,102.0,Training at home,,,,,,,,,,,,,
6,12,2559,A,28.905347625440093,50.89126455254916,1.4452673812720047,0.7993981142509154,A,597.0301000052132,Correct,sub_006_day_12_data.csv,1,300,102.0,Training at home,,,,,,,,,,,,,
6,12,2560,A,56.31002921212136,85.22735492594275,2.815501460606068,1.338748160601158,A,935.4487999808044,Correct,sub_006_day_12_data.csv,1,300,102.0,Training at home,,,,,,,,,,,,,
6,12,2561,B,63.880323550877506,31.23836826641505,3.194016177543875,0.4906911412795102,B,546.9328999752179,Correct,sub_006_day_12_data.csv,1,300,102.0,Training at home,,,,,,,,,,,,,
6,12,2562,B,79.54652393467305,60.631344085866445,3.977326196733652,0.9523949257871648,B,1009.221600019373,Correct,sub_006_day_12_data.csv,1,300,102.0,Training at home,,,,,,,,,,,,,
6,12,2563,A,25.97591149981678,53.95830142901551,1.298795574990839,0.8475750168478939,A,642.6039999932982,Correct,sub_006_day_12_data.csv,1,300,102.0,Training at home,,,,,,,,,,,,,
6,12,2564,B,65.6581330149946,57.82337316531273,3.28290665074973,0.9082874217096384,B,938.770500011742,Correct,sub_006_day_12_data.csv,1,300,102.0,Training at home,,,,,,,,,,,,,
6,12,2565,A,31.27095762885871,45.6498379406662,1.563547881442935,0.7170659775598077,A,1062.7633000258356,Correct,sub_006_day_12_data.csv,1,300,102.0,Training at home,,,,,,,,,,,,,
6,12,2566,B,52.662064309248024,30.24915973460316,2.633103215462401,0.4751526899974673,B,923.510599997826,Correct,sub_006_day_12_data.csv,1,300,102.0,Training at home,,,,,,,,,,,,,
6,12,2567,A,48.06433228570158,55.784283005853375,2.4032166142850793,0.8762574683848144,A,2217.133400030434,Correct,sub_006_day_12_data.csv,1,300,102.0,Training at home,,,,,,,,,,,,,
6,12,2568,B,71.79212767907303,54.172899213961024,3.5896063839536514,0.8509459109712012,B,519.0834000241011,Correct,sub_006_day_12_data.csv,1,300,102.0,Training at home,,,,,,,,,,,,,
6,12,2569,A,33.72897085237624,47.111613156370794,1.6864485426188125,0.7400274889540936,A,987.828899989836,Correct,sub_006_day_12_data.csv,1,300,102.0,Training at home,,,,,,,,,,,,,
6,12,2570,A,44.260695158786646,60.305520805385775,2.213034757939332,0.9472769056655316,A,815.654199977871,Correct,sub_006_day_12_data.csv,1,300,102.0,Training at home,,,,,,,,,,,,,
6,12,2571,A,23.14092130933697,53.3689140396878,1.1570460654668486,0.8383169413857418,A,844.115599989891,Correct,sub_006_day_12_data.csv,1,300,102.0,Training at home,,,,,,,,,,,,,
6,12,2572,A,51.77532156508427,67.4166357888743,2.5887660782542135,1.0589780386203311,B,571.1287000449374,Incorrect,sub_006_day_12_data.csv,0,300,102.0,Training at home,,,,,,,,,,,,,
6,12,2573,A,65.78771589858201,89.87714743721487,3.2893857949291005,1.4117869305718045,A,620.309499965515,Correct,sub_006_day_12_data.csv,1,300,102.0,Training at home,,,,,,,,,,,,,
6,12,2574,A,43.788316968003215,66.0939651264801,2.1894158484001607,1.0382015764398491,A,1439.7072999854572,Correct,sub_006_day_12_data.csv,1,300,102.0,Training at home,,,,,,,,,,,,,
6,12,2575,A,53.67807988193999,71.6266191156405,2.683903994097,1.125108302075852,B,663.8541999855079,Incorrect,sub_006_day_12_data.csv,0,300,103.0,Training at home,,,,,,,,,,,,,
6,12,2576,A,21.927267645569597,46.770535735395285,1.09636338227848,0.7346698573538836,A,575.3428000025451,Correct,sub_006_day_12_data.csv,1,300,103.0,Training at home,,,,,,,,,,,,,
6,12,2577,B,86.47162832194914,66.95970770788756,4.323581416097457,1.0518006291080968,B,566.0477999481373,Correct,sub_006_day_12_data.csv,1,300,103.0,Training at home,,,,,,,,,,,,,
6,12,2578,A,33.058899618866405,48.590811663339366,1.6529449809433203,0.763262684767561,A,837.138699949719,Correct,sub_006_day_12_data.csv,1,300,103.0,Training at home,,,,,,,,,,,,,
6,12,2579,B,68.65122553614745,51.33540160896031,3.4325612768073723,0.8063746028189568,B,500.5208000075072,Correct,sub_006_day_12_data.csv,1,300,103.0,Training at home,,,,,,,,,,,,,
6,12,2580,A,43.40520252066344,50.70267625713694,2.170260126033172,0.7964357762338153,B,554.9240999971516,Incorrect,sub_006_day_12_data.csv,0,300,103.0,Training at home,,,,,,,,,,,,,
6,12,2581,B,67.70427202952509,51.09028274276857,3.3852136014762544,0.8025242846725356,B,637.098099978175,Correct,sub_006_day_12_data.csv,1,300,103.0,Training at home,,,,,,,,,,,,,
6,12,2582,B,39.42312398057114,26.29838191755517,1.971156199028557,0.4130940171674498,A,1263.6470000143163,Incorrect,sub_006_day_12_data.csv,0,300,103.0,Training at home,,,,,,,,,,,,,
6,12,2583,A,30.077609579914196,48.04786899857464,1.50388047899571,0.7547341613328342,A,993.9041000325232,Correct,sub_006_day_12_data.csv,1,300,103.0,Training at home,,,,,,,,,,,,,
6,12,2584,A,61.6170995390768,76.2154922028368,3.08085497695384,1.1971901519708112,A,1069.1267999936829,Correct,sub_006_day_12_data.csv,1,300,103.0,Training at home,,,,,,,,,,,,,
6,12,2585,B,45.092040684514814,22.72428465393393,2.2546020342257407,0.3569522286344105,B,657.1566000347957,Correct,sub_006_day_12_data.csv,1,300,103.0,Training at home,,,,,,,,,,,,,
6,12,2586,A,37.66845999419254,49.51665391495269,1.883422999709627,0.7778057808478183,A,702.0687999902293,Correct,sub_006_day_12_data.csv,1,300,103.0,Training at home,,,,,,,,,,,,,
6,12,2587,A,35.89387208132199,46.57167418175486,1.7946936040660997,0.7315461473738926,B,630.1375000039116,Incorrect,sub_006_day_12_data.csv,0,300,103.0,Training at home,,,,,,,,,,,,,
6,12,2588,A,33.20539463688179,46.247849633190555,1.6602697318440898,0.7264595232597842,A,607.7853000024334,Correct,sub_006_day_12_data.csv,1,300,103.0,Training at home,,,,,,,,,,,,,
6,12,2589,B,75.4326542552355,51.497663103019555,3.7716327127617753,0.8089234004074419,B,700.6600000313483,Correct,sub_006_day_12_data.csv,1,300,103.0,Training at home,,,,,,,,,,,,,
6,12,2590,B,80.94522230262194,57.01221001192934,4.047261115131096,0.8955457006919781,B,747.605399985332,Correct,sub_006_day_12_data.csv,1,300,103.0,Training at home,,,,,,,,,,,,,
6,12,2591,A,13.69783369299912,42.554898952331854,0.684891684649956,0.6684507896145088,A,568.3625999954529,Correct,sub_006_day_12_data.csv,1,300,103.0,Training at home,,,,,,,,,,,,,
6,12,2592,A,67.72031967624734,89.58432236758867,3.386015983812367,1.4071872451341816,A,1261.347100022249,Correct,sub_006_day_12_data.csv,1,300,103.0,Training at home,,,,,,,,,,,,,
6,12,2593,A,58.63072773170581,86.8139866071674,2.9315363865852904,1.363670912769599,A,745.5240999697708,Correct,sub_006_day_12_data.csv,1,300,103.0,Training at home,,,,,,,,,,,,,
6,12,2594,B,69.03898954508777,54.51492670251708,3.4519494772543884,0.8563184661980685,B,1510.3644999908283,Correct,sub_006_day_12_data.csv,1,300,103.0,Training at home,,,,,,,,,,,,,
6,12,2595,A,45.473050339330726,58.38551474542203,2.273652516966536,0.917117521001382,A,1994.019100035075,Correct,sub_006_day_12_data.csv,1,300,103.0,Training at home,,,,,,,,,,,,,
6,12,2596,A,19.51633988572005,36.99678902995072,0.9758169942860024,0.5811442031145232,A,964.488799974788,Correct,sub_006_day_12_data.csv,1,300,103.0,Training at home,,,,,,,,,,,,,
6,12,2597,B,64.16900201459191,50.014635837895995,3.2084501007295954,0.7856280626015143,B,905.8284999919124,Correct,sub_006_day_12_data.csv,1,300,103.0,Training at home,,,,,,,,,,,,,
6,12,2598,B,70.35695684015893,42.512577901987086,3.517847842007946,0.6677860121102321,B,1158.950300014112,Correct,sub_006_day_12_data.csv,1,300,103.0,Training at home,,,,,,,,,,,,,
6,12,2599,B,33.47150473709334,13.758378406304704,1.673575236854667,0.2161161026327765,B,941.0207999753766,Correct,sub_006_day_12_data.csv,1,300,103.0,Training at home,,,,,,,,,,,,,
6,12,2600,B,50.05053873899418,41.24058499365105,2.502526936949709,0.647805594228998,B,610.7651999918744,Correct,sub_006_day_12_data.csv,1,300,104.0,Training at home,,,,,,,,,,,,,
6,12,2601,A,43.87607774057109,72.14914655193317,2.193803887028554,1.133316143851633,A,859.4538000179455,Correct,sub_006_day_12_data.csv,1,300,104.0,Training at home,,,,,,,,,,,,,
6,12,2602,A,24.65309602350265,52.17164040320285,1.2326548011751326,0.8195102110821526,A,587.6457000267692,Correct,sub_006_day_12_data.csv,1,300,104.0,Training at home,,,,,,,,,,,,,
6,12,2603,A,44.88221249713986,68.14936659214486,2.244110624856993,1.0704877471633998,A,515.2532000211067,Correct,sub_006_day_12_data.csv,1,300,104.0,Training at home,,,,,,,,,,,,,
6,12,2604,A,42.889985312738354,68.77002766657259,2.144499265636918,1.0802370685223563,A,588.089199969545,Correct,sub_006_day_12_data.csv,1,300,104.0,Training at home,,,,,,,,,,,,,
6,12,2605,A,69.741727206959,87.35762081780835,3.4870863603479503,1.3722102989815474,B,560.5991000193171,Incorrect,sub_006_day_12_data.csv,0,300,104.0,Training at home,,,,,,,,,,,,,
6,12,2606,A,40.954056026505526,51.17355342307262,2.0477028013252765,0.8038322974600487,A,506.2766000046395,Correct,sub_006_day_12_data.csv,1,300,104.0,Training at home,,,,,,,,,,,,,
6,12,2607,A,37.3247566139963,70.3630610049824,1.866237830699815,1.1052603776867158,A,795.0844999868423,Correct,sub_006_day_12_data.csv,1,300,104.0,Training at home,,,,,,,,,,,,,
6,12,2608,B,67.69072827862692,38.87389852290426,3.384536413931346,0.6106297700797557,B,649.2493000114337,Correct,sub_006_day_12_data.csv,1,300,104.0,Training at home,,,,,,,,,,,,,
6,12,2609,B,44.04267932865155,26.03022335047752,2.202133966432578,0.4088817922458084,B,591.2480999832042,Correct,sub_006_day_12_data.csv,1,300,104.0,Training at home,,,,,,,,,,,,,
6,12,2610,B,67.54462573602412,35.31019853211589,3.3772312868012055,0.5546513015264619,B,625.3169000265189,Correct,sub_006_day_12_data.csv,1,300,104.0,Training at home,,,,,,,,,,,,,
6,12,2611,A,65.40927919752528,84.89803475580919,3.270463959876264,1.3335752114653054,A,651.1434999993071,Correct,sub_006_day_12_data.csv,1,300,104.0,Training at home,,,,,,,,,,,,,
6,12,2612,A,30.77022202836774,57.309031656913746,1.5385111014183872,0.9002081641885257,A,1064.0867000329308,Correct,sub_006_day_12_data.csv,1,300,104.0,Training at home,,,,,,,,,,,,,
6,12,2613,B,73.90028082100518,50.37842887134668,3.695014041050259,0.7913425102080933,B,888.9024999807589,Correct,sub_006_day_12_data.csv,1,300,104.0,Training at home,,,,,,,,,,,,,
6,12,2614,B,57.10265541052028,43.42313134049386,2.855132770526014,0.6820889520758011,B,1411.1606000224128,Correct,sub_006_day_12_data.csv,1,300,104.0,Training at home,,,,,,,,,,,,,
6,12,2615,A,44.91446968271483,52.38403794988149,2.2457234841357416,0.822846543943583,B,1004.9222999950872,Incorrect,sub_006_day_12_data.csv,0,300,104.0,Training at home,,,,,,,,,,,,,
6,12,2616,B,33.46029385420886,14.044882769832071,1.6730146927104428,0.2206165026511714,B,697.8391999728046,Correct,sub_006_day_12_data.csv,1,300,104.0,Training at home,,,,,,,,,,,,,
6,12,2617,B,45.6988649543865,21.82576984889549,2.2849432477193248,0.3428383910811584,B,714.6451000007801,Correct,sub_006_day_12_data.csv,1,300,104.0,Training at home,,,,,,,,,,,,,
6,12,2618,B,68.92372218943984,55.0036908629932,3.4461861094719923,0.8639959556775174,B,1621.4524999959394,Correct,sub_006_day_12_data.csv,1,300,104.0,Training at home,,,,,,,,,,,,,
6,12,2619,B,39.49998279159135,23.253568557680783,1.9749991395795672,0.3652662007527827,B,783.3321000216529,Correct,sub_006_day_12_data.csv,1,300,104.0,Training at home,,,,,,,,,,,,,
6,12,2620,B,79.92161175248079,54.36611982671897,3.9960805876240393,0.8539810132590135,B,595.9988000104204,Correct,sub_006_day_12_data.csv,1,300,104.0,Training at home,,,,,,,,,,,,,
6,12,2621,A,33.58235346448721,66.04918492070989,1.6791176732243605,1.0374981706124795,A,651.0176000301726,Correct,sub_006_day_12_data.csv,1,300,104.0,Training at home,,,,,,,,,,,,,
6,12,2622,A,42.59398319652659,54.899014634830834,2.129699159826329,0.8623517053305155,A,822.3238000064157,Correct,sub_006_day_12_data.csv,1,300,104.0,Training at home,,,,,,,,,,,,,
6,12,2623,A,64.8027436066318,81.110804776365,3.2401371803315895,1.2740855420609207,A,631.8336999975145,Correct,sub_006_day_12_data.csv,1,300,104.0,Training at home,,,,,,,,,,,,,
6,12,2624,B,56.79648201548366,35.53075173411062,2.839824100774183,0.5581157431220237,B,569.0367000061087,Correct,sub_006_day_12_data.csv,1,300,104.0,Training at home,,,,,,,,,,,,,
6,12,2625,B,70.36690324973192,39.00321898956214,3.518345162486596,0.6126611312198117,B,1169.0486000152305,Correct,sub_006_day_12_data.csv,1,300,105.0,Training at home,,,,,,,,,,,,,
6,12,2626,A,38.715644851628824,56.3686698746812,1.9357822425814413,0.8854369958546336,A,1121.028200024739,Correct,sub_006_day_12_data.csv,1,300,105.0,Training at home,,,,,,,,,,,,,
6,12,2627,A,54.759451291135896,75.07435718053647,2.7379725645567947,1.1792652449567476,A,847.5518000195734,Correct,sub_006_day_12_data.csv,1,300,105.0,Training at home,,,,,,,,,,,,,
6,12,2628,A,36.29243749851658,62.58264596772377,1.8146218749258287,0.9830459040720596,A,1011.037899996154,Correct,sub_006_day_12_data.csv,1,300,105.0,Training at home,,,,,,,,,,,,,
6,12,2629,B,64.97043887173716,55.21073173993376,3.2485219435868578,0.8672481461674636,B,1304.431900032796,Correct,sub_006_day_12_data.csv,1,300,105.0,Training at home,,,,,,,,,,,,,
6,12,2630,A,37.310002642562665,69.8525581600008,1.8655001321281333,1.0972414177495613,A,958.0977999721654,Correct,sub_006_day_12_data.csv,1,300,105.0,Training at home,,,,,,,,,,,,,
6,12,2631,A,28.28001473230144,53.24212040611975,1.4140007366150718,0.8363252716470451,A,716.355900047347,Correct,sub_006_day_12_data.csv,1,300,105.0,Training at home,,,,,,,,,,,,,
6,12,2632,B,81.4967577401724,59.56469422236223,4.07483788700862,0.935640028911478,B,1058.3652000059374,Correct,sub_006_day_12_data.csv,1,300,105.0,Training at home,,,,,,,,,,,,,
6,12,2633,B,35.65255478594287,18.14528446037039,1.7826277392971437,0.2850254617899832,B,732.604899967555,Correct,sub_006_day_12_data.csv,1,300,105.0,Training at home,,,,,,,,,,,,,
6,12,2634,B,77.62542094178069,61.35041498280165,3.881271047089035,0.963690065023274,B,1618.8752999878488,Correct,sub_006_day_12_data.csv,1,300,105.0,Training at home,,,,,,,,,,,,,
6,12,2635,B,44.55819164150241,32.90185345777255,2.2279095820751205,0.5168211055621309,B,764.4912999821827,Correct,sub_006_day_12_data.csv,1,300,105.0,Training at home,,,,,,,,,,,,,
6,12,2636,A,10.882409625227424,31.433716262864237,0.5441204812613712,0.4937596604322015,A,519.3559999461286,Correct,sub_006_day_12_data.csv,1,300,105.0,Training at home,,,,,,,,,,,,,
6,12,2637,B,37.869063907425925,15.759323503909432,1.8934531953712963,0.2475468747271341,B,625.965399958659,Correct,sub_006_day_12_data.csv,1,300,105.0,Training at home,,,,,,,,,,,,,
6,12,2638,B,51.965740206327126,42.56181106992864,2.5982870103163567,0.6685593649038227,B,572.3743999842554,Correct,sub_006_day_12_data.csv,1,300,105.0,Training at home,,,,,,,,,,,,,
6,12,2639,B,83.73407665512188,68.82044854143442,4.186703832756094,1.0810290777726237,B,625.496499997098,Correct,sub_006_day_12_data.csv,1,300,105.0,Training at home,,,,,,,,,,,,,
6,12,2640,B,76.11253744063902,52.61617312603887,3.805626872031951,0.8264929147638622,B,743.0451999534853,Correct,sub_006_day_12_data.csv,1,300,105.0,Training at home,,,,,,,,,,,,,
6,12,2641,A,27.274939547899407,45.64716177493538,1.3637469773949704,0.717023940446809,A,585.5023000040092,Correct,sub_006_day_12_data.csv,1,300,105.0,Training at home,,,,,,,,,,,,,
6,12,2642,B,88.57377816320323,69.67449975388547,4.4286889081601615,1.094444482846752,B,1529.14390002843,Correct,sub_006_day_12_data.csv,1,300,105.0,Training at home,,,,,,,,,,,,,
6,12,2643,B,69.32528559746825,57.16379436935971,3.466264279873412,0.8979267822104902,B,600.5380999995396,Correct,sub_006_day_12_data.csv,1,300,105.0,Training at home,,,,,,,,,,,,,
6,12,2644,A,15.858217216496826,43.577946739603966,0.7929108608248413,0.6845207866783355,A,517.1670999843627,Correct,sub_006_day_12_data.csv,1,300,105.0,Training at home,,,,,,,,,,,,,
6,12,2645,B,70.79222721812782,46.57176899653808,3.5396113609063913,0.7315476367210245,B,844.2924999981187,Correct,sub_006_day_12_data.csv,1,300,105.0,Training at home,,,,,,,,,,,,,
6,12,2646,B,41.73863152771062,22.998771995330102,2.086931576385531,0.3612638657105786,B,1062.09060002584,Correct,sub_006_day_12_data.csv,1,300,105.0,Training at home,,,,,,,,,,,,,
6,12,2647,B,59.42634200758428,51.69812156712732,2.971317100379214,0.8120721945983962,B,746.6631000279449,Correct,sub_006_day_12_data.csv,1,300,105.0,Training at home,,,,,,,,,,,,,
6,12,2648,A,14.7993201434981,40.29401143183262,0.7399660071749051,0.6329368514895425,A,2285.863299970515,Correct,sub_006_day_12_data.csv,1,300,105.0,Training at home,,,,,,,,,,,,,
6,12,2649,B,55.11881263257079,32.75117348595883,2.7559406316285395,0.5144542300996654,B,567.1702999970876,Correct,sub_006_day_12_data.csv,1,300,105.0,Training at home,,,,,,,,,,,,,
6,12,2650,A,45.26709553761539,62.85667367279834,2.263354776880769,0.9873503211977712,A,880.9216999798082,Correct,sub_006_day_12_data.csv,1,300,106.0,Training at home,,,,,,,,,,,,,
6,12,2651,A,58.11014125740368,69.53219249660351,2.905507062870184,1.0922091256766049,B,622.3284999723546,Incorrect,sub_006_day_12_data.csv,0,300,106.0,Training at home,,,,,,,,,,,,,
6,12,2652,A,21.44901450438265,51.05150879795376,1.0724507252191322,0.801915224971631,A,796.2828999734484,Correct,sub_006_day_12_data.csv,1,300,106.0,Training at home,,,,,,,,,,,,,
6,12,2653,B,34.10218362024,19.199207301221097,1.7051091810119998,0.3015804430613185,B,569.1580999991857,Correct,sub_006_day_12_data.csv,1,300,106.0,Training at home,,,,,,,,,,,,,
6,12,2654,A,67.4601370063779,80.77063059374005,3.3730068503188955,1.2687420984955438,A,987.3425000114366,Correct,sub_006_day_12_data.csv,1,300,106.0,Training at home,,,,,,,,,,,,,
6,12,2655,B,63.30190444061838,46.297899143999445,3.165095222030919,0.7272456991371491,B,745.7591000129469,Correct,sub_006_day_12_data.csv,1,300,106.0,Training at home,,,,,,,,,,,,,
6,12,2656,B,57.38509180738482,37.18174588062037,2.8692545903692412,0.5840494985309974,B,726.7808999749832,Correct,sub_006_day_12_data.csv,1,300,106.0,Training at home,,,,,,,,,,,,,
6,12,2657,A,12.205615337960218,32.63259805950585,0.6102807668980109,0.5125916516564606,A,681.6370000015013,Correct,sub_006_day_12_data.csv,1,300,106.0,Training at home,,,,,,,,,,,,,
6,12,2658,B,60.57436497384584,29.126738437183025,3.028718248692292,0.4575217374864282,B,548.2324000331573,Correct,sub_006_day_12_data.csv,1,300,106.0,Training at home,,,,,,,,,,,,,
6,12,2659,A,63.0595928567991,88.30004852519289,3.152979642839955,1.387013918791841,A,815.4686000198126,Correct,sub_006_day_12_data.csv,1,300,106.0,Training at home,,,,,,,,,,,,,
6,12,2660,B,67.46187511290697,38.028754223008114,3.3730937556453484,0.5973542744608705,B,1009.6210000338032,Correct,sub_006_day_12_data.csv,1,300,106.0,Training at home,,,,,,,,,,,,,
6,12,2661,A,33.86073965324812,59.921973713482814,1.693036982662406,0.9412521620343914,A,699.6258000144735,Correct,sub_006_day_12_data.csv,1,300,106.0,Training at home,,,,,,,,,,,,,
6,12,2662,B,48.85763424102595,41.83634852158902,2.4428817120512973,0.6571638258422313,B,643.3585999766365,Correct,sub_006_day_12_data.csv,1,300,106.0,Training at home,,,,,,,,,,,,,
6,12,2663,A,40.217695305029885,57.596820353537815,2.010884765251494,0.9047287384640272,A,576.8955000094138,Correct,sub_006_day_12_data.csv,1,300,106.0,Training at home,,,,,,,,,,,,,
6,12,2664,B,41.64729009776709,29.64607632585521,2.082364504888355,0.4656794779653451,B,623.6008999985643,Correct,sub_006_day_12_data.csv,1,300,106.0,Training at home,,,,,,,,,,,,,
6,12,2665,B,54.61853841978765,43.33951825988473,2.7309269209893823,0.6807755608768727,B,561.2277000327595,Correct,sub_006_day_12_data.csv,1,300,106.0,Training at home,,,,,,,,,,,,,
6,12,2666,B,51.727120301561285,31.709340333596806,2.5863560150780645,0.4980891532110312,B,1042.7284999750557,Correct,sub_006_day_12_data.csv,1,300,106.0,Training at home,,,,,,,,,,,,,
6,12,2667,A,22.2913461219343,52.67316776405163,1.114567306096715,0.8273881844442363,A,1289.4436999922618,Correct,sub_006_day_12_data.csv,1,300,106.0,Training at home,,,,,,,,,,,,,
6,12,2668,A,30.601995009111334,45.84322897479693,1.530099750455567,0.7201037568202838,A,1928.1472999718972,Correct,sub_006_day_12_data.csv,1,300,106.0,Training at home,,,,,,,,,,,,,
6,12,2669,B,37.871457446025246,18.411352669100975,1.8935728723012624,0.2892048514394923,B,1164.2371999914758,Correct,sub_006_day_12_data.csv,1,300,106.0,Training at home,,,,,,,,,,,,,
6,12,2670,B,77.13861875877852,54.31327323390774,3.8569309379389263,0.8531509009202985,B,674.0550000104122,Correct,sub_006_day_12_data.csv,1,300,106.0,Training at home,,,,,,,,,,,,,
6,12,2671,B,38.09398058741458,28.560446912478923,1.904699029370729,0.4486264510174254,B,522.5433000014164,Correct,sub_006_day_12_data.csv,1,300,106.0,Training at home,,,,,,,,,,,,,
6,12,2672,B,45.7480270590889,33.67828809569805,2.287401352954445,0.5290173123346278,B,762.5138000003062,Correct,sub_006_day_12_data.csv,1,300,106.0,Training at home,,,,,,,,,,,,,
6,12,2673,B,41.13440196361063,28.259900389177545,2.0567200981805316,0.4439054772690975,B,865.269499947317,Correct,sub_006_day_12_data.csv,1,300,106.0,Training at home,,,,,,,,,,,,,
6,12,2674,B,50.08511990164647,19.12540916690505,2.5042559950823233,0.300421224678239,B,619.4959999993443,Correct,sub_006_day_12_data.csv,1,300,106.0,Training at home,,,,,,,,,,,,,
6,12,2675,B,84.23671779135599,59.07027007776837,4.2118358895678,0.9278736326094104,B,708.1967999693006,Correct,sub_006_day_12_data.csv,1,300,107.0,Training at home,,,,,,,,,,,,,
6,12,2676,B,85.73620338666352,58.31348476860744,4.286810169333176,0.9159860767713872,B,599.0754999802448,Correct,sub_006_day_12_data.csv,1,300,107.0,Training at home,,,,,,,,,,,,,
6,12,2677,A,63.16506664135237,78.8783487208724,3.1582533320676185,1.2390182043439328,A,998.2581000076608,Correct,sub_006_day_12_data.csv,1,300,107.0,Training at home,,,,,,,,,,,,,
6,12,2678,A,16.792855723506246,30.99053824096113,0.8396427861753124,0.4867982363429851,A,2267.003700020723,Correct,sub_006_day_12_data.csv,1,300,107.0,Training at home,,,,,,,,,,,,,
6,12,2679,A,27.7836955759144,55.86135173351084,1.38918477879572,0.8774680611279654,A,674.5778999757022,Correct,sub_006_day_12_data.csv,1,300,107.0,Training at home,,,,,,,,,,,,,
6,12,2680,A,52.210777278249154,82.3578834042443,2.610538863912458,1.293674607339893,A,744.6602999698371,Correct,sub_006_day_12_data.csv,1,300,107.0,Training at home,,,,,,,,,,,,,
6,12,2681,B,84.59091059457657,61.49783692523579,4.229545529728829,0.9660057634799194,B,657.8639000072144,Correct,sub_006_day_12_data.csv,1,300,107.0,Training at home,,,,,,,,,,,,,
6,12,2682,A,42.65918327906736,53.3229595593086,2.132959163953368,0.8375950900959476,A,539.9108999990858,Correct,sub_006_day_12_data.csv,1,300,107.0,Training at home,,,,,,,,,,,,,
6,12,2683,B,33.885592701212516,21.54433332093475,1.6942796350606255,0.338417596437692,B,619.0621000132523,Correct,sub_006_day_12_data.csv,1,300,107.0,Training at home,,,,,,,,,,,,,
6,12,2684,B,84.4395653816598,56.14971353340051,4.221978269082991,0.8819976376885121,B,1090.7194999745116,Correct,sub_006_day_12_data.csv,1,300,107.0,Training at home,,,,,,,,,,,,,
6,12,2685,B,53.9063457603608,46.658842697006705,2.69531728801804,0.7329153872095902,B,723.4718999825418,Correct,sub_006_day_12_data.csv,1,300,107.0,Training at home,,,,,,,,,,,,,
6,12,2686,A,49.248566366087864,68.30441416506436,2.462428318304393,1.072923228743604,A,559.0775000164285,Correct,sub_006_day_12_data.csv,1,300,107.0,Training at home,,,,,,,,,,,,,
6,12,2687,B,68.95304654942814,39.831022526514936,3.4476523274714066,0.6256642387713445,B,572.5361999939196,Correct,sub_006_day_12_data.csv,1,300,107.0,Training at home,,,,,,,,,,,,,
6,12,2688,B,59.8437633875908,42.54398763331512,2.99218816937954,0.668279395016189,B,586.6706999950111,Correct,sub_006_day_12_data.csv,1,300,107.0,Training at home,,,,,,,,,,,,,
6,12,2689,B,46.64377967654013,23.114421591403048,2.3321889838270065,0.3630804853176455,B,587.4654999934137,Correct,sub_006_day_12_data.csv,1,300,107.0,Training at home,,,,,,,,,,,,,
6,12,2690,B,56.02330301118872,47.40383108046733,2.8011651505594357,0.7446176373720383,B,576.1597999953665,Correct,sub_006_day_12_data.csv,1,300,107.0,Training at home,,,,,,,,,,,,,
6,12,2691,A,35.86192890279698,66.05481649806322,1.7930964451398492,1.0375866312226862,A,587.0448999921791,Correct,sub_006_day_12_data.csv,1,300,107.0,Training at home,,,,,,,,,,,,,
6,12,2692,B,66.30346894556631,49.7075982929041,3.3151734472783154,0.7808051281229005,B,573.6238000099547,Correct,sub_006_day_12_data.csv,1,300,107.0,Training at home,,,,,,,,,,,,,
6,12,2693,A,41.548715385598854,64.94188869509298,2.077435769279943,1.0201048021737509,A,620.3076999518089,Correct,sub_006_day_12_data.csv,1,300,107.0,Training at home,,,,,,,,,,,,,
6,12,2694,B,48.21654585756976,36.07598009998701,2.410827292878488,0.5666801702658537,B,564.8095999495126,Correct,sub_006_day_12_data.csv,1,300,107.0,Training at home,,,,,,,,,,,,,
6,12,2695,A,31.295676766729933,43.65751041433009,1.5647838383364967,0.6857705699583966,B,807.1255999966525,Incorrect,sub_006_day_12_data.csv,0,300,107.0,Training at home,,,,,,,,,,,,,
6,12,2696,A,45.968162207900875,70.6680176284726,2.298408110395044,1.1100506251268174,A,621.404200035613,Correct,sub_006_day_12_data.csv,1,300,107.0,Training at home,,,,,,,,,,,,,
6,12,2697,B,59.56837308412202,36.05514574482128,2.9784186542061013,0.5663529049801991,B,643.2587999734096,Correct,sub_006_day_12_data.csv,1,300,107.0,Training at home,,,,,,,,,,,,,
6,12,2698,A,35.92038772182553,45.73556540336325,1.7960193860912763,0.7184125813949076,B,574.8771000071429,Incorrect,sub_006_day_12_data.csv,0,300,107.0,Training at home,,,,,,,,,,,,,
6,12,2699,B,61.41300990750303,42.07497770540901,3.0706504953751517,0.6609122042963363,B,442.94059998355806,Correct,sub_006_day_12_data.csv,1,300,107.0,Training at home,,,,,,,,,,,,,
