subject,day,trial,cat,x,y,xt,yt,resp,rt,fb,f_name,acc,n_trials,block,session_type,ns_left_digit,ns_right_digit,ns_left_size,ns_right_size,ns_congruent,ns_cue,ns_correct_side,ns_resp,ns_rt,ns_fb,acc_stroop,acc_stroop_mean,resp_key
6,18,3900,A,29.436720689033564,52.762262270146515,1.471836034451678,0.828787677673351,A,643.0159999872558,Correct,sub_006_day_18_data.csv,1,300,156.0,Training at home,,,,,,,,,,,,,
6,18,3901,B,72.69526650895179,55.46546747862599,3.6347633254475897,0.871249525793875,B,636.7019999888726,Correct,sub_006_day_18_data.csv,1,300,156.0,Training at home,,,,,,,,,,,,,
6,18,3902,B,80.97517258329991,61.81649721193517,4.048758629164996,0.9710112675583474,B,571.304599987343,Correct,sub_006_day_18_data.csv,1,300,156.0,Training at home,,,,,,,,,,,,,
6,18,3903,A,28.52998094106846,51.95283917949692,1.426499047053423,0.8160732894971976,A,784.8358000046574,Correct,sub_006_day_18_data.csv,1,300,156.0,Training at home,,,,,,,,,,,,,
6,18,3904,A,42.52578600900353,70.89399448388171,2.1262893004501766,1.1136002612709903,B,2951.9456999842077,Incorrect,sub_006_day_18_data.csv,0,300,156.0,Training at home,,,,,,,,,,,,,
6,18,3905,B,64.53688387467042,39.26441345202742,3.226844193733521,0.616763964242008,B,734.2232000082731,Correct,sub_006_day_18_data.csv,1,300,156.0,Training at home,,,,,,,,,,,,,
6,18,3906,B,51.433057745947416,19.816041367816425,2.571652887297371,0.3112696499218176,B,5616.199299984146,Correct,sub_006_day_18_data.csv,1,300,156.0,Training at home,,,,,,,,,,,,,
6,18,3907,B,61.6691695805869,42.9746000971085,3.083458479029345,0.6750434397801764,B,3470.8228000090457,Correct,sub_006_day_18_data.csv,1,300,156.0,Training at home,,,,,,,,,,,,,
6,18,3908,A,44.13580679815614,74.26915044972871,2.2067903399078066,1.166617087206114,A,2953.377900004853,Correct,sub_006_day_18_data.csv,1,300,156.0,Training at home,,,,,,,,,,,,,
6,18,3909,A,21.482492524492088,41.919916498938655,1.0741246262246045,0.6584765085608162,A,1003.5865000099876,Correct,sub_006_day_18_data.csv,1,300,156.0,Training at home,,,,,,,,,,,,,
6,18,3910,A,68.74493478766455,83.37576059290632,3.437246739383227,1.3096633848306791,A,774.1424000123516,Correct,sub_006_day_18_data.csv,1,300,156.0,Training at home,,,,,,,,,,,,,
6,18,3911,B,74.65963424952461,45.82715576504284,3.732981712476231,0.7198512794318687,B,952.6955999899656,Correct,sub_006_day_18_data.csv,1,300,156.0,Training at home,,,,,,,,,,,,,
6,18,3912,B,77.80803535638537,50.95378972911196,3.890401767819269,0.8003802574276859,B,653.4847000148147,Correct,sub_006_day_18_data.csv,1,300,156.0,Training at home,,,,,,,,,,,,,
6,18,3913,B,73.83943322748185,58.67736168735124,3.691971661374092,0.9217018420450692,A,915.165700018406,Incorrect,sub_006_day_18_data.csv,0,300,156.0,Training at home,,,,,,,,,,,,,
6,18,3914,B,36.61292331265481,26.628305692145787,1.83064616563274,0.4182764476999424,B,539.434699981939,Correct,sub_006_day_18_data.csv,1,300,156.0,Training at home,,,,,,,,,,,,,
6,18,3915,A,40.75354934689583,48.136439993157495,2.0376774673447913,0.7561254312623474,A,732.4848000425845,Correct,sub_006_day_18_data.csv,1,300,156.0,Training at home,,,,,,,,,,,,,
6,18,3916,B,74.8489170873122,56.60793792315462,3.7424458543656103,0.8891954095712481,B,892.0761999906972,Correct,sub_006_day_18_data.csv,1,300,156.0,Training at home,,,,,,,,,,,,,
6,18,3917,A,13.296743052243295,39.99843860450113,0.6648371526121649,0.6282940043748156,A,827.514800010249,Correct,sub_006_day_18_data.csv,1,300,156.0,Training at home,,,,,,,,,,,,,
6,18,3918,A,34.41458094817733,43.80774527856315,1.7207290474088666,0.6881304536873346,A,899.1952000069432,Correct,sub_006_day_18_data.csv,1,300,156.0,Training at home,,,,,,,,,,,,,
6,18,3919,B,38.02608113860183,18.569987195142215,1.9013040569300912,0.2916966767475765,B,1219.807600020431,Correct,sub_006_day_18_data.csv,1,300,156.0,Training at home,,,,,,,,,,,,,
6,18,3920,A,43.33194400044512,69.29766379923876,2.166597200022256,1.0885251575131192,A,1057.5650000246242,Correct,sub_006_day_18_data.csv,1,300,156.0,Training at home,,,,,,,,,,,,,
6,18,3921,A,13.001250674435603,31.227582909657308,0.6500625337217801,0.4905217252917279,A,1362.9479000228455,Correct,sub_006_day_18_data.csv,1,300,156.0,Training at home,,,,,,,,,,,,,
6,18,3922,A,64.40624862970162,88.08303537905483,3.2203124314850813,1.3836050842636425,A,1102.4580000084825,Correct,sub_006_day_18_data.csv,1,300,156.0,Training at home,,,,,,,,,,,,,
6,18,3923,A,68.48551714066672,83.40714240766674,3.424275857033336,1.3101563292242175,A,1507.2051000315696,Correct,sub_006_day_18_data.csv,1,300,156.0,Training at home,,,,,,,,,,,,,
6,18,3924,B,61.47109491096144,29.023429045252513,3.073554745548072,0.4558989573527495,B,1121.9377999659628,Correct,sub_006_day_18_data.csv,1,300,156.0,Training at home,,,,,,,,,,,,,
6,18,3925,B,67.65992374973112,40.746090527268514,3.382996187486556,0.640038093314857,B,1662.4784999876283,Correct,sub_006_day_18_data.csv,1,300,157.0,Training at home,,,,,,,,,,,,,
6,18,3926,B,84.60995707769402,55.867229822860885,4.230497853884701,0.8775603939395619,B,1033.1815000390634,Correct,sub_006_day_18_data.csv,1,300,157.0,Training at home,,,,,,,,,,,,,
6,18,3927,A,40.139288299899945,53.26844863482182,2.006964414994997,0.8367388344964074,A,659.6053999965079,Correct,sub_006_day_18_data.csv,1,300,157.0,Training at home,,,,,,,,,,,,,
6,18,3928,B,51.72298091805281,33.74351437705652,2.5861490459026406,0.5300418843663117,B,522.3620000178926,Correct,sub_006_day_18_data.csv,1,300,157.0,Training at home,,,,,,,,,,,,,
6,18,3929,A,59.45786936022672,71.986798632895,2.972893468011336,1.1307659887027537,A,932.1561999968252,Correct,sub_006_day_18_data.csv,1,300,157.0,Training at home,,,,,,,,,,,,,
6,18,3930,B,62.57179620707105,44.494815400004384,3.1285898103535525,0.6989229259174389,B,1207.449399982579,Correct,sub_006_day_18_data.csv,1,300,157.0,Training at home,,,,,,,,,,,,,
6,18,3931,A,43.86768214581216,73.44222730051469,2.193384107290608,1.1536278087528435,A,559.9228999926709,Correct,sub_006_day_18_data.csv,1,300,157.0,Training at home,,,,,,,,,,,,,
6,18,3932,B,59.77115568463108,39.213610939340384,2.988557784231554,0.6159659602388005,B,799.0552000119351,Correct,sub_006_day_18_data.csv,1,300,157.0,Training at home,,,,,,,,,,,,,
6,18,3933,A,49.613675831113014,71.23665141926404,2.4806837915556508,1.118982703825484,A,572.037799982354,Correct,sub_006_day_18_data.csv,1,300,157.0,Training at home,,,,,,,,,,,,,
6,18,3934,A,55.80741285408057,64.4795129936826,2.790370642704028,1.0128418216400044,A,988.0536000127904,Correct,sub_006_day_18_data.csv,1,300,157.0,Training at home,,,,,,,,,,,,,
6,18,3935,B,72.14030126857142,44.580928245566675,3.607015063428571,0.7002755833324299,B,541.0401000408456,Correct,sub_006_day_18_data.csv,1,300,157.0,Training at home,,,,,,,,,,,,,
6,18,3936,B,41.27532808636684,22.62940594325742,2.063766404318342,0.3554618773321936,B,1047.4281000206247,Correct,sub_006_day_18_data.csv,1,300,157.0,Training at home,,,,,,,,,,,,,
6,18,3937,A,51.37652789631192,66.79569683969356,2.568826394815596,1.0492243524149614,A,519.9521000031382,Correct,sub_006_day_18_data.csv,1,300,157.0,Training at home,,,,,,,,,,,,,
6,18,3938,A,51.77793639053245,81.5926167956923,2.5888968195266227,1.2816538275625704,A,730.0262999488041,Correct,sub_006_day_18_data.csv,1,300,157.0,Training at home,,,,,,,,,,,,,
6,18,3939,B,67.36157600182251,50.92895980844175,3.368078800091126,0.7999902299458523,B,532.0068000000902,Correct,sub_006_day_18_data.csv,1,300,157.0,Training at home,,,,,,,,,,,,,
6,18,3940,A,59.994237281227214,87.34950815387343,2.999711864061361,1.3720828655544524,A,453.8657999946736,Correct,sub_006_day_18_data.csv,1,300,157.0,Training at home,,,,,,,,,,,,,
6,18,3941,A,32.478559547273996,61.717719459466274,1.6239279773636996,0.9694596702508752,A,998.92899999395,Correct,sub_006_day_18_data.csv,1,300,157.0,Training at home,,,,,,,,,,,,,
6,18,3942,B,45.72748205478615,29.67518513033002,2.2863741027393076,0.4661367179968093,B,613.3862000424415,Correct,sub_006_day_18_data.csv,1,300,157.0,Training at home,,,,,,,,,,,,,
6,18,3943,A,49.594536510242634,72.28436165263903,2.4797268255121314,1.1354400976867929,A,664.9961000075564,Correct,sub_006_day_18_data.csv,1,300,157.0,Training at home,,,,,,,,,,,,,
6,18,3944,A,20.3943257651417,45.514576930961,1.0197162882570852,0.7149413025877729,A,772.7327999891713,Correct,sub_006_day_18_data.csv,1,300,157.0,Training at home,,,,,,,,,,,,,
6,18,3945,A,23.176079986271652,52.84800283993557,1.1588039993135826,0.8301344873941705,A,1013.841899984982,Correct,sub_006_day_18_data.csv,1,300,157.0,Training at home,,,,,,,,,,,,,
6,18,3946,B,62.34881041851921,50.55598236884934,3.11744052092596,0.7941315140249611,B,1194.120300002396,Correct,sub_006_day_18_data.csv,1,300,157.0,Training at home,,,,,,,,,,,,,
6,18,3947,A,32.05733140915848,59.69635496255897,1.602866570457924,0.9377081509823192,A,590.1484999922104,Correct,sub_006_day_18_data.csv,1,300,157.0,Training at home,,,,,,,,,,,,,
6,18,3948,A,51.20478946089954,80.38579786477887,2.560239473044977,1.2626971601247166,A,972.3795000463724,Correct,sub_006_day_18_data.csv,1,300,157.0,Training at home,,,,,,,,,,,,,
6,18,3949,A,30.32161989011136,43.57967595367395,1.516080994505568,0.6845479491094293,B,833.891800022684,Incorrect,sub_006_day_18_data.csv,0,300,157.0,Training at home,,,,,,,,,,,,,
6,18,3950,A,52.57420497784929,75.91331949922343,2.6287102488924643,1.1924436342418758,A,865.9057000186294,Correct,sub_006_day_18_data.csv,1,300,158.0,Training at home,,,,,,,,,,,,,
6,18,3951,B,39.6358196539401,29.984407160293006,1.9817909826970053,0.4709939662851085,B,534.5799999777228,Correct,sub_006_day_18_data.csv,1,300,158.0,Training at home,,,,,,,,,,,,,
6,18,3952,A,46.94844488383028,54.60310586578478,2.347422244191514,0.857703581255676,B,1328.0654999543913,Incorrect,sub_006_day_18_data.csv,0,300,158.0,Training at home,,,,,,,,,,,,,
6,18,3953,B,36.29091233271224,22.89309984713137,1.814545616635612,0.3596039714882276,B,844.9784000404179,Correct,sub_006_day_18_data.csv,1,300,158.0,Training at home,,,,,,,,,,,,,
6,18,3954,B,53.96609088909947,44.375015816478765,2.698304544454974,0.6970411184599027,B,597.6885000127368,Correct,sub_006_day_18_data.csv,1,300,158.0,Training at home,,,,,,,,,,,,,
6,18,3955,B,74.98820387606065,63.193381610646874,3.749410193803032,0.9926393171175228,A,1059.777499991469,Incorrect,sub_006_day_18_data.csv,0,300,158.0,Training at home,,,,,,,,,,,,,
6,18,3956,A,66.2386251108338,85.81860195313169,3.31193125554169,1.348035447186526,A,926.510800025426,Correct,sub_006_day_18_data.csv,1,300,158.0,Training at home,,,,,,,,,,,,,
6,18,3957,A,38.73913327048896,69.52557820857457,1.936956663524448,1.0921052286832025,A,1128.9388000150211,Correct,sub_006_day_18_data.csv,1,300,158.0,Training at home,,,,,,,,,,,,,
6,18,3958,B,33.10511059837606,19.11608812643043,1.655255529918803,0.3002748101168446,B,1394.7112999740057,Correct,sub_006_day_18_data.csv,1,300,158.0,Training at home,,,,,,,,,,,,,
6,18,3959,A,35.441512554859905,51.02870823265222,1.7720756277429954,0.8015570745293861,A,118.70400002226232,Correct,sub_006_day_18_data.csv,1,300,158.0,Training at home,,,,,,,,,,,,,
6,18,3960,B,48.525877799075566,39.64386258060907,2.4262938899537785,0.6227243372158238,B,858.0783999641426,Correct,sub_006_day_18_data.csv,1,300,158.0,Training at home,,,,,,,,,,,,,
6,18,3961,B,53.9894069461018,32.9098453371646,2.6994703473050903,0.516946641710063,B,508.333700010553,Correct,sub_006_day_18_data.csv,1,300,158.0,Training at home,,,,,,,,,,,,,
6,18,3962,B,43.818094979144576,30.730284623724348,2.190904748957229,0.4827101820830789,B,4061.0503999632783,Correct,sub_006_day_18_data.csv,1,300,158.0,Training at home,,,,,,,,,,,,,
6,18,3963,B,53.199723126679814,46.490945082227505,2.659986156333991,0.7302780576438623,B,904.1238000500016,Correct,sub_006_day_18_data.csv,1,300,158.0,Training at home,,,,,,,,,,,,,
6,18,3964,B,83.87827511185891,66.29363752242966,4.193913755592946,1.0413380231010485,A,929.136999999173,Incorrect,sub_006_day_18_data.csv,0,300,158.0,Training at home,,,,,,,,,,,,,
6,18,3965,B,62.24806089321849,45.62118714799278,3.1124030446609243,0.7166159319608959,B,756.9828000268899,Correct,sub_006_day_18_data.csv,1,300,158.0,Training at home,,,,,,,,,,,,,
6,18,3966,B,54.21463834659166,27.9097811535768,2.7107319173295834,0.4384058171768786,B,757.544299995061,Correct,sub_006_day_18_data.csv,1,300,158.0,Training at home,,,,,,,,,,,,,
6,18,3967,B,31.384917145712247,14.640949837921536,1.5692458572856125,0.2299795022619548,B,727.2408999851905,Correct,sub_006_day_18_data.csv,1,300,158.0,Training at home,,,,,,,,,,,,,
6,18,3968,B,81.47144875081693,58.13380138491449,4.073572437540847,0.9131636167804774,A,609.0877000242472,Incorrect,sub_006_day_18_data.csv,0,300,158.0,Training at home,,,,,,,,,,,,,
6,18,3969,B,49.58746742588697,25.714255148583995,2.479373371294349,0.4039185753366249,B,913.9440999715588,Correct,sub_006_day_18_data.csv,1,300,158.0,Training at home,,,,,,,,,,,,,
6,18,3970,B,84.63536066069531,65.27803996314898,4.231768033034766,1.025385053944849,A,2423.157799988985,Incorrect,sub_006_day_18_data.csv,0,300,158.0,Training at home,,,,,,,,,,,,,
6,18,3971,B,83.2417842585011,63.62042230678549,4.162089212925054,0.9993472566863874,B,604.6920999651775,Correct,sub_006_day_18_data.csv,1,300,158.0,Training at home,,,,,,,,,,,,,
6,18,3972,B,74.01026603153058,49.19511700375129,3.700513301576529,0.7727550908573769,B,674.5278000016697,Correct,sub_006_day_18_data.csv,1,300,158.0,Training at home,,,,,,,,,,,,,
6,18,3973,A,47.856778878214,76.48524744130384,2.3928389439107,1.2014274573479884,A,535.2533999830484,Correct,sub_006_day_18_data.csv,1,300,158.0,Training at home,,,,,,,,,,,,,
6,18,3974,B,72.57612345963423,49.82372299731411,3.628806172981712,0.782629210714274,B,701.4748999499716,Correct,sub_006_day_18_data.csv,1,300,158.0,Training at home,,,,,,,,,,,,,
6,18,3975,B,62.55610211059409,50.13424033097668,3.1278051055297045,0.7875068055855071,B,2299.527900002431,Correct,sub_006_day_18_data.csv,1,300,159.0,Training at home,,,,,,,,,,,,,
6,18,3976,A,67.26112668327501,83.13342565280577,3.3630563341637503,1.3058567964930392,A,820.8819999708794,Correct,sub_006_day_18_data.csv,1,300,159.0,Training at home,,,,,,,,,,,,,
6,18,3977,B,54.00946939410259,26.82374516341845,2.700473469705129,0.4213464037358007,B,918.3154000202194,Correct,sub_006_day_18_data.csv,1,300,159.0,Training at home,,,,,,,,,,,,,
6,18,3978,B,37.8233608442943,17.251396162097397,1.891168042214715,0.2709842972350617,B,715.3614000417292,Correct,sub_006_day_18_data.csv,1,300,159.0,Training at home,,,,,,,,,,,,,
6,18,3979,A,54.200628448983935,79.81525983152652,2.710031422449197,1.253735169655421,A,655.9821999981068,Correct,sub_006_day_18_data.csv,1,300,159.0,Training at home,,,,,,,,,,,,,
6,18,3980,A,43.239550458285585,53.13756314361172,2.1619775229142792,0.8346828900081716,B,645.1706999796443,Incorrect,sub_006_day_18_data.csv,0,300,159.0,Training at home,,,,,,,,,,,,,
6,18,3981,B,73.0258037889852,53.432409508775585,3.65129018944926,0.8393143258818538,B,650.3498999518342,Correct,sub_006_day_18_data.csv,1,300,159.0,Training at home,,,,,,,,,,,,,
6,18,3982,B,83.48823812061016,55.142503933185274,4.1744119060305085,0.8661764262852056,B,474.4213999947533,Correct,sub_006_day_18_data.csv,1,300,159.0,Training at home,,,,,,,,,,,,,
6,18,3983,B,81.42769991261324,65.82401098429794,4.071384995630662,1.0339611466904213,B,728.1081000110134,Correct,sub_006_day_18_data.csv,1,300,159.0,Training at home,,,,,,,,,,,,,
6,18,3984,A,51.44291091901441,68.88656686962881,2.5721455459507205,1.0820676620432397,A,936.2742999801412,Correct,sub_006_day_18_data.csv,1,300,159.0,Training at home,,,,,,,,,,,,,
6,18,3985,A,35.968547376375874,58.02675483965825,1.7984273688187935,0.9114821335796318,A,690.2389000169933,Correct,sub_006_day_18_data.csv,1,300,159.0,Training at home,,,,,,,,,,,,,
6,18,3986,B,63.64800503964686,32.32071043229052,3.1824002519823433,0.5076925322644344,B,464.8134000017308,Correct,sub_006_day_18_data.csv,1,300,159.0,Training at home,,,,,,,,,,,,,
6,18,3987,A,30.890400838891097,57.71154453153355,1.5445200419445546,0.90653082163793,A,1672.929499996826,Correct,sub_006_day_18_data.csv,1,300,159.0,Training at home,,,,,,,,,,,,,
6,18,3988,A,51.54646910341014,82.06293622017138,2.577323455170507,1.2890415878064907,A,888.6918000061996,Correct,sub_006_day_18_data.csv,1,300,159.0,Training at home,,,,,,,,,,,,,
6,18,3989,A,18.053020895740453,32.81345608402063,0.9026510447870224,0.5154325628622526,B,953.547700017225,Incorrect,sub_006_day_18_data.csv,0,300,159.0,Training at home,,,,,,,,,,,,,
6,18,3990,B,33.14454144857831,11.22608801262398,1.6572270724289155,0.1763389781450596,B,507.89919996168464,Correct,sub_006_day_18_data.csv,1,300,159.0,Training at home,,,,,,,,,,,,,
6,18,3991,B,43.14185885773834,19.27394080500897,2.157092942886917,0.3027543541937035,B,510.56060002883896,Correct,sub_006_day_18_data.csv,1,300,159.0,Training at home,,,,,,,,,,,,,
6,18,3992,A,25.7168894567995,48.51120121182735,1.285844472839975,0.7620121667194654,A,828.3322000061162,Correct,sub_006_day_18_data.csv,1,300,159.0,Training at home,,,,,,,,,,,,,
6,18,3993,A,36.357099638693946,66.62057065352617,1.8178549819346972,1.0464734767153878,A,994.7802000097,Correct,sub_006_day_18_data.csv,1,300,159.0,Training at home,,,,,,,,,,,,,
6,18,3994,A,30.72431710030785,58.5985613057207,1.5362158550153924,0.9204640485449164,A,591.129100008402,Correct,sub_006_day_18_data.csv,1,300,159.0,Training at home,,,,,,,,,,,,,
6,18,3995,A,55.91959504501461,78.23720095679013,2.7959797522507306,1.2289470788164012,A,1311.857900000177,Correct,sub_006_day_18_data.csv,1,300,159.0,Training at home,,,,,,,,,,,,,
6,18,3996,B,31.013630246954005,15.346898415800286,1.5506815123477002,0.241068516592335,B,910.9953999868594,Correct,sub_006_day_18_data.csv,1,300,159.0,Training at home,,,,,,,,,,,,,
6,18,3997,A,20.991226490784666,33.84069475615091,1.0495613245392332,0.5315683901914917,B,604.7600999590941,Incorrect,sub_006_day_18_data.csv,0,300,159.0,Training at home,,,,,,,,,,,,,
6,18,3998,B,73.92000539844146,48.92164458857794,3.696000269922073,0.7684593962050367,B,574.6324000065215,Correct,sub_006_day_18_data.csv,1,300,159.0,Training at home,,,,,,,,,,,,,
6,18,3999,A,59.76145169674267,73.49916299857512,2.9880725848371332,1.1545221526066116,A,527.6905000209808,Correct,sub_006_day_18_data.csv,1,300,159.0,Training at home,,,,,,,,,,,,,
6,18,4000,B,51.51203604351781,32.317344782824094,2.5756018021758904,0.5076396647662429,B,448.3308999915607,Correct,sub_006_day_18_data.csv,1,300,160.0,Training at home,,,,,,,,,,,,,
6,18,4001,A,32.489372323980554,46.66736771558348,1.6244686161990276,0.7330492978882527,A,533.5138000082225,Correct,sub_006_day_18_data.csv,1,300,160.0,Training at home,,,,,,,,,,,,,
6,18,4002,B,75.0528187521464,49.94167582469811,3.7526409376073193,0.7844820093941727,B,435.1409999653697,Correct,sub_006_day_18_data.csv,1,300,160.0,Training at home,,,,,,,,,,,,,
6,18,4003,B,49.87818274228647,24.21374157924978,2.4939091371143234,0.380348563306464,B,472.57049998734146,Correct,sub_006_day_18_data.csv,1,300,160.0,Training at home,,,,,,,,,,,,,
6,18,4004,A,63.189112735499165,86.22521039286937,3.1594556367749584,1.3544224376223637,A,522.7010999806225,Correct,sub_006_day_18_data.csv,1,300,160.0,Training at home,,,,,,,,,,,,,
6,18,4005,B,78.73293347159105,47.69505394468679,3.936646673579553,0.7491921554259845,B,662.8015000023879,Correct,sub_006_day_18_data.csv,1,300,160.0,Training at home,,,,,,,,,,,,,
6,18,4006,B,47.19502693215999,34.211419585563846,2.3597513466079993,0.5373917221944267,A,772.1403000177816,Incorrect,sub_006_day_18_data.csv,0,300,160.0,Training at home,,,,,,,,,,,,,
6,18,4007,B,63.79821772855517,38.35449535769082,3.189910886427759,0.6024710042393266,B,1964.8149999557063,Correct,sub_006_day_18_data.csv,1,300,160.0,Training at home,,,,,,,,,,,,,
6,18,4008,A,43.53195275552018,66.91532898750911,2.176597637776009,1.0511035297985138,A,563.1117000011727,Correct,sub_006_day_18_data.csv,1,300,160.0,Training at home,,,,,,,,,,,,,
6,18,4009,A,26.452685462622043,52.56138332124263,1.322634273131102,0.8256322785226645,A,1036.4172999979928,Correct,sub_006_day_18_data.csv,1,300,160.0,Training at home,,,,,,,,,,,,,
6,18,4010,B,40.766337886297094,14.125706532471789,2.038316894314854,0.2218860793458936,B,634.9783000187017,Correct,sub_006_day_18_data.csv,1,300,160.0,Training at home,,,,,,,,,,,,,
6,18,4011,B,78.87775515376678,58.86962669420231,3.943887757688339,0.924721933710398,B,1796.0029999958351,Correct,sub_006_day_18_data.csv,1,300,160.0,Training at home,,,,,,,,,,,,,
6,18,4012,A,60.16120251837864,83.0837322234534,3.008060125918933,1.305076213930114,A,708.4837000002153,Correct,sub_006_day_18_data.csv,1,300,160.0,Training at home,,,,,,,,,,,,,
6,18,4013,A,22.749042762952634,48.21786644927805,1.1374521381476317,0.7574044750441286,B,1483.054300013464,Incorrect,sub_006_day_18_data.csv,0,300,160.0,Training at home,,,,,,,,,,,,,
6,18,4014,B,41.49100479142548,18.537316717653816,2.0745502395712743,0.2911834900872424,B,576.7132000182755,Correct,sub_006_day_18_data.csv,1,300,160.0,Training at home,,,,,,,,,,,,,
6,18,4015,A,50.18774234442549,74.11925481864989,2.5093871172212743,1.164262532139102,A,703.187600011006,Correct,sub_006_day_18_data.csv,1,300,160.0,Training at home,,,,,,,,,,,,,
6,18,4016,A,52.344833232043776,81.09736240576856,2.617241661602189,1.2738743897973577,A,566.7008000309579,Correct,sub_006_day_18_data.csv,1,300,160.0,Training at home,,,,,,,,,,,,,
6,18,4017,B,85.82363636128125,60.9761605060597,4.291181818064063,0.957811289449746,B,503.4529999829829,Correct,sub_006_day_18_data.csv,1,300,160.0,Training at home,,,,,,,,,,,,,
6,18,4018,A,26.775667165172575,46.824831313139185,1.338783358258629,0.7355227302946968,A,586.324899981264,Correct,sub_006_day_18_data.csv,1,300,160.0,Training at home,,,,,,,,,,,,,
6,18,4019,B,62.90399938508721,51.24999209718559,3.14519996925436,0.805032993345266,B,687.9460999625735,Correct,sub_006_day_18_data.csv,1,300,160.0,Training at home,,,,,,,,,,,,,
6,18,4020,A,45.94788211617661,64.01775077963782,2.2973941058088303,1.0055884777432622,A,524.5486000203528,Correct,sub_006_day_18_data.csv,1,300,160.0,Training at home,,,,,,,,,,,,,
6,18,4021,A,56.09181281993892,76.77078717727844,2.8045906409969463,1.205912705032217,A,598.645200021565,Correct,sub_006_day_18_data.csv,1,300,160.0,Training at home,,,,,,,,,,,,,
6,18,4022,B,44.96740059101338,36.13605786047632,2.248370029550669,0.5676238695208404,B,554.1072000050917,Correct,sub_006_day_18_data.csv,1,300,160.0,Training at home,,,,,,,,,,,,,
6,18,4023,A,58.71977329059736,86.09259576525793,2.9359886645298676,1.3523393319230503,A,668.4775000321679,Correct,sub_006_day_18_data.csv,1,300,160.0,Training at home,,,,,,,,,,,,,
6,18,4024,B,74.39301662869164,44.6566703541649,3.7196508314345818,0.7014653375921279,B,481.3170999987051,Correct,sub_006_day_18_data.csv,1,300,160.0,Training at home,,,,,,,,,,,,,
6,18,4025,B,51.51272709017124,25.983916804957317,2.575636354508562,0.4081544107297114,B,483.71190001489595,Correct,sub_006_day_18_data.csv,1,300,161.0,Training at home,,,,,,,,,,,,,
6,18,4026,B,73.16791025182748,51.667411840161755,3.6583955125913743,0.8115898073352522,B,581.4076999668032,Correct,sub_006_day_18_data.csv,1,300,161.0,Training at home,,,,,,,,,,,,,
6,18,4027,B,60.20249342807053,33.76528633406418,3.010124671403527,0.5303838774672593,B,675.8915999671444,Correct,sub_006_day_18_data.csv,1,300,161.0,Training at home,,,,,,,,,,,,,
6,18,4028,B,42.93574347065799,32.90839354605709,2.1467871735328994,0.5169238370286736,B,607.64860000927,Correct,sub_006_day_18_data.csv,1,300,161.0,Training at home,,,,,,,,,,,,,
6,18,4029,B,65.23169307522744,32.048313446802574,3.261584653761372,0.5034137304220897,B,451.28490001661703,Correct,sub_006_day_18_data.csv,1,300,161.0,Training at home,,,,,,,,,,,,,
6,18,4030,B,61.60812195448595,53.38924819725537,3.080406097724298,0.8386363495858977,B,455.8168999501504,Correct,sub_006_day_18_data.csv,1,300,161.0,Training at home,,,,,,,,,,,,,
6,18,4031,A,38.820026013412246,70.74999897771886,1.9410013006706124,1.1113383851494345,A,580.8365999837406,Correct,sub_006_day_18_data.csv,1,300,161.0,Training at home,,,,,,,,,,,,,
6,18,4032,A,16.457242517551908,45.50235917053018,0.8228621258775953,0.7147493864557087,A,694.0471000270918,Correct,sub_006_day_18_data.csv,1,300,161.0,Training at home,,,,,,,,,,,,,
6,18,4033,B,80.4114454068299,58.990647055761855,4.020572270341495,0.9266229171044492,B,576.5570000512525,Correct,sub_006_day_18_data.csv,1,300,161.0,Training at home,,,,,,,,,,,,,
6,18,4034,B,87.94512050157137,62.66733659411835,4.397256025078568,0.9843762213206052,B,467.46819996042177,Correct,sub_006_day_18_data.csv,1,300,161.0,Training at home,,,,,,,,,,,,,
6,18,4035,A,62.62104864252656,76.92233363352881,3.131052432126328,1.2082931912003858,A,661.1018999828957,Correct,sub_006_day_18_data.csv,1,300,161.0,Training at home,,,,,,,,,,,,,
6,18,4036,A,12.05214727886819,36.295344493035024,0.6026073639434095,0.5701259380941479,A,492.7950000273995,Correct,sub_006_day_18_data.csv,1,300,161.0,Training at home,,,,,,,,,,,,,
6,18,4037,A,15.064571650269205,34.428021133724656,0.7532285825134601,0.5407940913567175,A,567.8776000277139,Correct,sub_006_day_18_data.csv,1,300,161.0,Training at home,,,,,,,,,,,,,
6,18,4038,A,18.825113611988943,32.461992408365944,0.9412556805994472,0.5099117843550505,A,506.7910999641754,Correct,sub_006_day_18_data.csv,1,300,161.0,Training at home,,,,,,,,,,,,,
6,18,4039,A,33.46766675677311,44.836587868958304,1.6733833378386556,0.7042914753057633,A,888.0678999703377,Correct,sub_006_day_18_data.csv,1,300,161.0,Training at home,,,,,,,,,,,,,
6,18,4040,B,66.78975751184275,54.90915873975046,3.3394878755921376,0.8625110485579791,B,431.6438999958336,Correct,sub_006_day_18_data.csv,1,300,161.0,Training at home,,,,,,,,,,,,,
6,18,4041,A,22.79753148663803,53.886772744662785,1.1398765743319017,0.8464514469014763,A,564.7943000076339,Correct,sub_006_day_18_data.csv,1,300,161.0,Training at home,,,,,,,,,,,,,
6,18,4042,A,41.9806268449764,58.42816741249456,2.09903134224882,0.9177875075290374,A,887.4605000019073,Correct,sub_006_day_18_data.csv,1,300,161.0,Training at home,,,,,,,,,,,,,
6,18,4043,B,79.27079411817132,48.41421766987054,3.963539705908566,0.7604887528048122,B,496.28299998585135,Correct,sub_006_day_18_data.csv,1,300,161.0,Training at home,,,,,,,,,,,,,
6,18,4044,B,53.3288816888826,26.976192903720865,2.6664440844441297,0.4237410472407528,B,547.6144999847747,Correct,sub_006_day_18_data.csv,1,300,161.0,Training at home,,,,,,,,,,,,,
6,18,4045,B,55.368541743763906,32.15678046840485,2.7684270871881953,0.505117526413202,B,441.3554999628104,Correct,sub_006_day_18_data.csv,1,300,161.0,Training at home,,,,,,,,,,,,,
6,18,4046,A,47.73725333100124,59.065123006714146,2.386862666550062,0.9277927826063532,A,740.5493000405841,Correct,sub_006_day_18_data.csv,1,300,161.0,Training at home,,,,,,,,,,,,,
6,18,4047,A,54.162209204032,71.61025403527675,2.7081104602016,1.124851239994621,A,619.3222000147216,Correct,sub_006_day_18_data.csv,1,300,161.0,Training at home,,,,,,,,,,,,,
6,18,4048,A,59.86674865482765,85.02687411208659,2.993337432741382,1.3355990153411768,A,635.8058000332676,Correct,sub_006_day_18_data.csv,1,300,161.0,Training at home,,,,,,,,,,,,,
6,18,4049,A,40.720885181145455,67.08476641894958,2.036044259057273,1.0537650467477964,A,581.8634000024758,Correct,sub_006_day_18_data.csv,1,300,161.0,Training at home,,,,,,,,,,,,,
6,18,4050,A,22.425222439711337,44.52505142860981,1.1212611219855666,0.6993978723441414,A,488.678699999582,Correct,sub_006_day_18_data.csv,1,300,162.0,Training at home,,,,,,,,,,,,,
6,18,4051,B,41.47212385615256,32.54453626783425,2.0736061928076284,0.5112083802675733,B,1351.808000006713,Correct,sub_006_day_18_data.csv,1,300,162.0,Training at home,,,,,,,,,,,,,
6,18,4052,B,42.62781122748091,28.574788169553617,2.1313905613740456,0.4488517229567708,B,619.9982999823987,Correct,sub_006_day_18_data.csv,1,300,162.0,Training at home,,,,,,,,,,,,,
6,18,4053,A,26.231393762505547,54.12802916377769,1.3115696881252774,0.8502410938710905,A,493.89959999825805,Correct,sub_006_day_18_data.csv,1,300,162.0,Training at home,,,,,,,,,,,,,
6,18,4054,B,72.12035397893632,57.8875005184386,3.606017698946817,0.90929473181701,B,980.7263999828136,Correct,sub_006_day_18_data.csv,1,300,162.0,Training at home,,,,,,,,,,,,,
6,18,4055,A,38.58378909754007,59.627627245963,1.9291894548770032,0.9366285785345396,A,951.1618000105956,Correct,sub_006_day_18_data.csv,1,300,162.0,Training at home,,,,,,,,,,,,,
6,18,4056,A,36.001687727819636,49.03969538331139,1.800084386390982,0.7703137337524617,B,553.4248999902047,Incorrect,sub_006_day_18_data.csv,0,300,162.0,Training at home,,,,,,,,,,,,,
6,18,4057,A,17.904921551770173,42.34589368430872,0.8952460775885086,0.6651677425415934,A,534.1981000383385,Correct,sub_006_day_18_data.csv,1,300,162.0,Training at home,,,,,,,,,,,,,
6,18,4058,A,15.394985937013464,32.952296480101865,0.7697492968506731,0.5176134627040041,A,533.2990000024438,Correct,sub_006_day_18_data.csv,1,300,162.0,Training at home,,,,,,,,,,,,,
6,18,4059,B,59.1849255860458,47.987584227729805,2.95924627930229,0.7537872103667869,B,463.3534999447875,Correct,sub_006_day_18_data.csv,1,300,162.0,Training at home,,,,,,,,,,,,,
6,18,4060,B,70.71138113279335,54.48634402763365,3.5355690566396674,0.8558694905908999,B,425.65349995857105,Correct,sub_006_day_18_data.csv,1,300,162.0,Training at home,,,,,,,,,,,,,
6,18,4061,B,88.03668420802575,63.86330948444655,4.4018342104012875,1.0031625195513432,B,575.6987999775447,Correct,sub_006_day_18_data.csv,1,300,162.0,Training at home,,,,,,,,,,,,,
6,18,4062,A,36.900069426950736,56.04367569346554,1.8450034713475367,0.8803319991938009,A,565.0331000215374,Correct,sub_006_day_18_data.csv,1,300,162.0,Training at home,,,,,,,,,,,,,
6,18,4063,A,68.09081370729336,82.46468767986916,3.404540685364668,1.2953522849782684,A,630.089600046631,Correct,sub_006_day_18_data.csv,1,300,162.0,Training at home,,,,,,,,,,,,,
6,18,4064,B,79.89005321047094,51.188954171417905,3.9945026605235463,0.8040742118493555,B,1096.5321999974549,Correct,sub_006_day_18_data.csv,1,300,162.0,Training at home,,,,,,,,,,,,,
6,18,4065,A,49.62280187169763,57.26839618473589,2.4811400935848815,0.8995698636841802,A,646.1614000145346,Correct,sub_006_day_18_data.csv,1,300,162.0,Training at home,,,,,,,,,,,,,
6,18,4066,A,26.02594546088945,45.945827466636075,1.3012972730444723,0.72171537016144,A,527.5901999557391,Correct,sub_006_day_18_data.csv,1,300,162.0,Training at home,,,,,,,,,,,,,
6,18,4067,B,83.58890651292776,64.03491129230093,4.179445325646388,1.0058580344458334,B,601.6658000298776,Correct,sub_006_day_18_data.csv,1,300,162.0,Training at home,,,,,,,,,,,,,
6,18,4068,B,57.0200147689641,49.39138675656223,2.851000738448205,0.7758380889251405,B,592.7525999723002,Correct,sub_006_day_18_data.csv,1,300,162.0,Training at home,,,,,,,,,,,,,
6,18,4069,B,72.61067163312373,55.39091693963355,3.6305335816561866,0.8700784886657761,B,539.2213000450283,Correct,sub_006_day_18_data.csv,1,300,162.0,Training at home,,,,,,,,,,,,,
6,18,4070,A,23.606316497754165,52.46446419809135,1.180315824887708,0.8241098764962425,A,574.2439000168815,Correct,sub_006_day_18_data.csv,1,300,162.0,Training at home,,,,,,,,,,,,,
6,18,4071,A,30.928983124867123,51.64728832295087,1.5464491562433562,0.8112737078660819,A,508.19620001129806,Correct,sub_006_day_18_data.csv,1,300,162.0,Training at home,,,,,,,,,,,,,
6,18,4072,B,38.68783955865021,20.35072124352246,1.9343919779325105,0.3196683817695195,B,616.5428999811411,Correct,sub_006_day_18_data.csv,1,300,162.0,Training at home,,,,,,,,,,,,,
6,18,4073,A,27.12063992063584,47.91915252134309,1.3560319960317917,0.7527122876365014,A,511.9876999524422,Correct,sub_006_day_18_data.csv,1,300,162.0,Training at home,,,,,,,,,,,,,
6,18,4074,B,73.43479310677866,51.723165418874885,3.671739655338933,0.8124655825017348,B,578.5775000113063,Correct,sub_006_day_18_data.csv,1,300,162.0,Training at home,,,,,,,,,,,,,
6,18,4075,B,47.40211483642409,27.3266087989134,2.3701057418212046,0.4292453672509426,B,706.6679000272416,Correct,sub_006_day_18_data.csv,1,300,163.0,Training at home,,,,,,,,,,,,,
6,18,4076,B,82.82273429744187,52.188854214503166,4.1411367148720934,0.8197806049977593,A,2528.7649999954738,Incorrect,sub_006_day_18_data.csv,0,300,163.0,Training at home,,,,,,,,,,,,,
6,18,4077,A,39.88809080370257,57.79699723304791,1.9944045401851285,0.9078731095344648,B,650.1241000369191,Incorrect,sub_006_day_18_data.csv,0,300,163.0,Training at home,,,,,,,,,,,,,
6,18,4078,A,50.68633655718993,69.76516612699469,2.5343168278594965,1.09586866690519,A,618.1978000095114,Correct,sub_006_day_18_data.csv,1,300,163.0,Training at home,,,,,,,,,,,,,
6,18,4079,B,75.63858017786355,64.61476479102743,3.7819290088931776,1.014966351904621,B,637.1932000038214,Correct,sub_006_day_18_data.csv,1,300,163.0,Training at home,,,,,,,,,,,,,
6,18,4080,B,38.72315972254246,26.74465158473075,1.936157986127123,0.4201040047070437,B,557.8812999883667,Correct,sub_006_day_18_data.csv,1,300,163.0,Training at home,,,,,,,,,,,,,
6,18,4081,A,26.580331918133687,43.817949286439045,1.3290165959066842,0.6882907378682351,A,569.5606000372209,Correct,sub_006_day_18_data.csv,1,300,163.0,Training at home,,,,,,,,,,,,,
6,18,4082,A,27.902029066056585,58.582302175920994,1.3951014533028292,0.9202086507312536,A,496.6450000065379,Correct,sub_006_day_18_data.csv,1,300,163.0,Training at home,,,,,,,,,,,,,
6,18,4083,A,30.31174617631639,62.51393768722328,1.5155873088158194,0.9819666369257536,A,458.25610001338646,Correct,sub_006_day_18_data.csv,1,300,163.0,Training at home,,,,,,,,,,,,,
6,18,4084,B,69.42983312944521,57.74748172076234,3.471491656472261,0.9070953216862891,B,585.3421000065282,Correct,sub_006_day_18_data.csv,1,300,163.0,Training at home,,,,,,,,,,,,,
6,18,4085,A,37.15135212949347,68.56892648728359,1.8575676064746731,1.0770781785849437,A,586.5478999912739,Correct,sub_006_day_18_data.csv,1,300,163.0,Training at home,,,,,,,,,,,,,
6,18,4086,B,38.06020003230029,23.378885175101257,1.9030100016150144,0.3672346695760871,B,583.872799994424,Correct,sub_006_day_18_data.csv,1,300,163.0,Training at home,,,,,,,,,,,,,
6,18,4087,A,17.66342850552609,44.66963406645495,0.8831714252763043,0.701668971108596,A,646.5991000295617,Correct,sub_006_day_18_data.csv,1,300,163.0,Training at home,,,,,,,,,,,,,
6,18,4088,A,28.890997631060905,40.02626468781665,1.444549881553045,0.6287310954694267,A,1105.240100005176,Correct,sub_006_day_18_data.csv,1,300,163.0,Training at home,,,,,,,,,,,,,
6,18,4089,A,41.06837788968071,50.21872124626762,2.0534188944840355,0.7888338286997401,A,841.5892000193708,Correct,sub_006_day_18_data.csv,1,300,163.0,Training at home,,,,,,,,,,,,,
6,18,4090,B,73.3323552144825,44.439062099794555,3.666617760724125,0.6980471551256759,B,556.1039999593049,Correct,sub_006_day_18_data.csv,1,300,163.0,Training at home,,,,,,,,,,,,,
6,18,4091,A,49.68983383572698,77.07002635389868,2.484491691786349,1.2106131430268994,A,520.6023000064306,Correct,sub_006_day_18_data.csv,1,300,163.0,Training at home,,,,,,,,,,,,,
6,18,4092,B,55.457578975730954,30.41378929483112,2.7728789487865475,0.4777386850823467,B,545.2395000029355,Correct,sub_006_day_18_data.csv,1,300,163.0,Training at home,,,,,,,,,,,,,
6,18,4093,A,34.5392994334289,50.32267232612635,1.7269649716714452,0.7904666884438247,A,443.89290001709014,Correct,sub_006_day_18_data.csv,1,300,163.0,Training at home,,,,,,,,,,,,,
6,18,4094,B,58.96936293211952,26.672164422409423,2.948468146605976,0.4189653790239024,B,523.6610000138171,Correct,sub_006_day_18_data.csv,1,300,163.0,Training at home,,,,,,,,,,,,,
6,18,4095,A,63.52203699337501,83.80489658708727,3.1761018496687505,1.3164042372642286,A,454.85229999758303,Correct,sub_006_day_18_data.csv,1,300,163.0,Training at home,,,,,,,,,,,,,
6,18,4096,B,54.157938641478765,26.935609367213058,2.7078969320739383,0.4231035625400047,B,492.0980000169948,Correct,sub_006_day_18_data.csv,1,300,163.0,Training at home,,,,,,,,,,,,,
6,18,4097,B,86.43454023355045,58.54800750572272,4.321727011677523,0.9196699513114928,B,652.8846999863163,Correct,sub_006_day_18_data.csv,1,300,163.0,Training at home,,,,,,,,,,,,,
6,18,4098,B,81.10479508563824,62.72647102662974,4.055239754281912,0.985305102814365,B,750.8662000182085,Correct,sub_006_day_18_data.csv,1,300,163.0,Training at home,,,,,,,,,,,,,
6,18,4099,B,68.31430452439261,48.913788061047185,3.41571522621963,0.7683359861591699,B,769.9512999970466,Correct,sub_006_day_18_data.csv,1,300,163.0,Training at home,,,,,,,,,,,,,
6,18,4100,B,77.34866463724872,46.40625034596322,3.867433231862435,0.7289476758376343,B,503.1308000325226,Correct,sub_006_day_18_data.csv,1,300,164.0,Training at home,,,,,,,,,,,,,
6,18,4101,B,82.27069987678249,68.33689006407499,4.113534993839124,1.0734333589723566,B,455.7895999751054,Correct,sub_006_day_18_data.csv,1,300,164.0,Training at home,,,,,,,,,,,,,
6,18,4102,A,24.137219245628437,40.76025447954846,1.206860962281422,0.6402605801569996,A,1454.6560000162572,Correct,sub_006_day_18_data.csv,1,300,164.0,Training at home,,,,,,,,,,,,,
6,18,4103,A,56.94611965615884,78.05768045315304,2.847305982807942,1.226127177339426,A,776.1295999516733,Correct,sub_006_day_18_data.csv,1,300,164.0,Training at home,,,,,,,,,,,,,
6,18,4104,B,61.59239411030196,42.73582196825108,3.079619705515098,0.6712927217028944,B,834.9218999501318,Correct,sub_006_day_18_data.csv,1,300,164.0,Training at home,,,,,,,,,,,,,
6,18,4105,B,50.86770808833718,42.527220493130415,2.543385404416859,0.668016017394059,B,541.9380000093952,Correct,sub_006_day_18_data.csv,1,300,164.0,Training at home,,,,,,,,,,,,,
6,18,4106,A,16.76564125705764,43.66289963205948,0.838282062852882,0.6858552235925326,A,488.18119999486953,Correct,sub_006_day_18_data.csv,1,300,164.0,Training at home,,,,,,,,,,,,,
6,18,4107,B,61.9472938880841,28.743331379798967,3.0973646944042046,0.451499193512367,B,919.1343000275084,Correct,sub_006_day_18_data.csv,1,300,164.0,Training at home,,,,,,,,,,,,,
6,18,4108,B,60.03180261420594,47.98602221808016,3.001590130710297,0.7537626743765862,B,559.3130000052042,Correct,sub_006_day_18_data.csv,1,300,164.0,Training at home,,,,,,,,,,,,,
6,18,4109,B,75.26902692729466,45.25289156674744,3.7634513463647328,0.7108307584989462,B,520.9437999874353,Correct,sub_006_day_18_data.csv,1,300,164.0,Training at home,,,,,,,,,,,,,
6,18,4110,B,56.5207870669623,30.334050288550394,2.8260393533481145,0.4764861477006662,B,478.40600000927225,Correct,sub_006_day_18_data.csv,1,300,164.0,Training at home,,,,,,,,,,,,,
6,18,4111,A,41.62485255295539,72.54604671978653,2.0812426276477693,1.1395506371093165,A,579.5982999843545,Correct,sub_006_day_18_data.csv,1,300,164.0,Training at home,,,,,,,,,,,,,
6,18,4112,A,44.86153795484877,72.8824627820046,2.2430768977424385,1.1448350482573857,A,546.1454000324011,Correct,sub_006_day_18_data.csv,1,300,164.0,Training at home,,,,,,,,,,,,,
6,18,4113,A,48.9288068949175,76.81046430805314,2.446440344745875,1.2065359519450036,A,520.0178000377491,Correct,sub_006_day_18_data.csv,1,300,164.0,Training at home,,,,,,,,,,,,,
6,18,4114,A,35.65915347755916,59.24699627932444,1.782957673877958,0.9306496412919374,A,553.3656000043266,Correct,sub_006_day_18_data.csv,1,300,164.0,Training at home,,,,,,,,,,,,,
6,18,4115,B,66.4566175367056,37.606698233171606,3.3228308768352797,0.5907246344755007,B,648.899000021629,Correct,sub_006_day_18_data.csv,1,300,164.0,Training at home,,,,,,,,,,,,,
6,18,4116,A,39.65148460619274,50.77007828428373,1.982574230309637,0.7974945248004223,A,552.1860000444576,Correct,sub_006_day_18_data.csv,1,300,164.0,Training at home,,,,,,,,,,,,,
6,18,4117,A,44.2907859755673,65.77183385161072,2.214539298778365,1.0331415502067434,A,608.2347999908961,Correct,sub_006_day_18_data.csv,1,300,164.0,Training at home,,,,,,,,,,,,,
6,18,4118,B,82.54372784877168,65.50012045292726,4.127186392438585,1.0288734861208142,B,1113.398600020446,Correct,sub_006_day_18_data.csv,1,300,164.0,Training at home,,,,,,,,,,,,,
6,18,4119,B,39.52205083484036,30.840345444180542,1.9761025417420175,0.4844390134080452,B,620.8479999913834,Correct,sub_006_day_18_data.csv,1,300,164.0,Training at home,,,,,,,,,,,,,
6,18,4120,B,46.97735083451104,37.27829298823991,2.348867541725552,0.585566056951112,B,551.6031000297517,Correct,sub_006_day_18_data.csv,1,300,164.0,Training at home,,,,,,,,,,,,,
6,18,4121,A,38.24486243873355,67.99952697830149,1.9122431219366771,1.0681340720130643,A,1098.206399998162,Correct,sub_006_day_18_data.csv,1,300,164.0,Training at home,,,,,,,,,,,,,
6,18,4122,B,50.87585065034935,40.9128842115501,2.5437925325174673,0.6426580823808782,B,489.38439995981753,Correct,sub_006_day_18_data.csv,1,300,164.0,Training at home,,,,,,,,,,,,,
6,18,4123,B,45.01773491556504,36.38010938513655,2.250886745778252,0.5714574219056904,B,562.1352000162005,Correct,sub_006_day_18_data.csv,1,300,164.0,Training at home,,,,,,,,,,,,,
6,18,4124,B,65.79864178012551,53.13082019540032,3.2899320890062755,0.8345769720253492,B,484.08839997136965,Correct,sub_006_day_18_data.csv,1,300,164.0,Training at home,,,,,,,,,,,,,
6,18,4125,B,65.24458737874775,33.14258825148897,3.2622293689373874,0.5206025588591456,B,428.98750002495944,Correct,sub_006_day_18_data.csv,1,300,165.0,Training at home,,,,,,,,,,,,,
6,18,4126,A,43.82164376518537,73.01114760075981,2.1910821882592684,1.1468564246635355,A,561.7881999933161,Correct,sub_006_day_18_data.csv,1,300,165.0,Training at home,,,,,,,,,,,,,
6,18,4127,A,37.1591681581541,51.59157354365529,1.8579584079077052,0.8103985421594249,B,707.8053000150248,Incorrect,sub_006_day_18_data.csv,0,300,165.0,Training at home,,,,,,,,,,,,,
6,18,4128,A,45.76458988407737,67.77424038293469,2.2882294942038683,1.0645952784482815,A,573.3462000498548,Correct,sub_006_day_18_data.csv,1,300,165.0,Training at home,,,,,,,,,,,,,
6,18,4129,B,76.13454604318936,62.92643678225602,3.806727302159467,0.9884461575585902,B,638.7437999946997,Correct,sub_006_day_18_data.csv,1,300,165.0,Training at home,,,,,,,,,,,,,
6,18,4130,A,15.81636708856394,41.92661664344027,0.7908183544281969,0.6585817541845375,B,784.8036999930628,Incorrect,sub_006_day_18_data.csv,0,300,165.0,Training at home,,,,,,,,,,,,,
6,18,4131,A,49.46115135487438,76.58056294003558,2.473057567743719,1.2029246697009328,A,670.3426000312902,Correct,sub_006_day_18_data.csv,1,300,165.0,Training at home,,,,,,,,,,,,,
6,18,4132,A,52.42353059197921,75.82643864253632,2.6211765295989604,1.1910789129363464,A,711.9907999876887,Correct,sub_006_day_18_data.csv,1,300,165.0,Training at home,,,,,,,,,,,,,
6,18,4133,B,82.84203202553766,52.69159493349841,4.142101601276883,0.8276776377450389,B,473.6298000207171,Correct,sub_006_day_18_data.csv,1,300,165.0,Training at home,,,,,,,,,,,,,
6,18,4134,B,49.599506653054206,36.574308740128025,2.4799753326527103,0.5745078982405558,B,571.563400037121,Correct,sub_006_day_18_data.csv,1,300,165.0,Training at home,,,,,,,,,,,,,
6,18,4135,A,34.88189477294427,54.06350657237065,1.7440947386472134,0.8492275753753156,A,611.9802000466734,Correct,sub_006_day_18_data.csv,1,300,165.0,Training at home,,,,,,,,,,,,,
6,18,4136,B,41.64660952402799,23.91528667307975,2.082330476201399,0.3756604446032062,A,503.8550000172109,Incorrect,sub_006_day_18_data.csv,0,300,165.0,Training at home,,,,,,,,,,,,,
6,18,4137,A,36.52772269735881,52.218568048030605,1.8263861348679404,0.8202473488033581,A,2060.0759999942966,Correct,sub_006_day_18_data.csv,1,300,165.0,Training at home,,,,,,,,,,,,,
6,18,4138,B,63.0501933616076,52.560008939693375,3.15250966808038,0.8256106897877729,B,655.5639000143856,Correct,sub_006_day_18_data.csv,1,300,165.0,Training at home,,,,,,,,,,,,,
6,18,4139,A,49.55432202420447,75.85349578974933,2.4777161012102233,1.191503925610904,A,782.5645999982953,Correct,sub_006_day_18_data.csv,1,300,165.0,Training at home,,,,,,,,,,,,,
6,18,4140,A,60.406760765365455,85.59030603965786,3.0203380382682727,1.3444493833634563,A,1198.4230000525713,Correct,sub_006_day_18_data.csv,1,300,165.0,Training at home,,,,,,,,,,,,,
6,18,4141,A,51.8710164901929,77.792764207164,2.593550824509645,1.221965882678347,A,540.5498000327498,Correct,sub_006_day_18_data.csv,1,300,165.0,Training at home,,,,,,,,,,,,,
6,18,4142,B,42.87749820589362,21.092281398701893,2.1438749102946812,0.3313167814480525,B,913.5723000508732,Correct,sub_006_day_18_data.csv,1,300,165.0,Training at home,,,,,,,,,,,,,
6,18,4143,A,41.04383189287004,73.2421736910134,2.0521915946435016,1.1504853740031766,A,580.6283000274561,Correct,sub_006_day_18_data.csv,1,300,165.0,Training at home,,,,,,,,,,,,,
6,18,4144,B,71.83029129051577,53.23766003346867,3.591514564525789,0.8362552082772805,B,667.9902999894693,Correct,sub_006_day_18_data.csv,1,300,165.0,Training at home,,,,,,,,,,,,,
6,18,4145,A,64.93760787890795,75.24429705434088,3.2468803939453976,1.181934654252227,A,526.5076000359841,Correct,sub_006_day_18_data.csv,1,300,165.0,Training at home,,,,,,,,,,,,,
6,18,4146,A,13.283864999064573,35.96996127092868,0.6641932499532287,0.5650148303932945,A,1079.3352999608032,Correct,sub_006_day_18_data.csv,1,300,165.0,Training at home,,,,,,,,,,,,,
6,18,4147,B,60.98684698265045,36.72931195782774,3.0493423491325222,0.5769426830905968,B,536.4900999702513,Correct,sub_006_day_18_data.csv,1,300,165.0,Training at home,,,,,,,,,,,,,
6,18,4148,B,37.36795724990306,24.897160839534113,1.8683978624951527,0.3910836879436192,B,613.0586999934167,Correct,sub_006_day_18_data.csv,1,300,165.0,Training at home,,,,,,,,,,,,,
6,18,4149,A,29.375139434803646,61.978242386958016,1.4687569717401825,0.973551954826374,A,1276.991499995347,Correct,sub_006_day_18_data.csv,1,300,165.0,Training at home,,,,,,,,,,,,,
6,18,4150,A,59.655239510993255,87.09663950365528,2.982761975549663,1.36811081408521,A,579.7242000116967,Correct,sub_006_day_18_data.csv,1,300,166.0,Training at home,,,,,,,,,,,,,
6,18,4151,B,80.39102876748616,56.43206983023955,4.019551438374308,0.8864328800277339,B,492.2959999530576,Correct,sub_006_day_18_data.csv,1,300,166.0,Training at home,,,,,,,,,,,,,
6,18,4152,A,26.212181048630494,55.592038900323,1.3106090524315248,0.8732377050366639,A,617.2514000209048,Correct,sub_006_day_18_data.csv,1,300,166.0,Training at home,,,,,,,,,,,,,
6,18,4153,B,66.68034381569525,42.30511534177577,3.334017190784763,0.6645271978349581,B,555.4416999802925,Correct,sub_006_day_18_data.csv,1,300,166.0,Training at home,,,,,,,,,,,,,
6,18,4154,A,31.278650119823453,56.80329838708965,1.5639325059911726,0.8922641245627488,A,2000.2794000320137,Correct,sub_006_day_18_data.csv,1,300,166.0,Training at home,,,,,,,,,,,,,
6,18,4155,A,58.620250994386,66.61704405608488,2.9310125497193,1.0464180810523191,A,1050.5268999841064,Correct,sub_006_day_18_data.csv,1,300,166.0,Training at home,,,,,,,,,,,,,
6,18,4156,A,44.92482933967826,69.15580762238767,2.2462414669839132,1.0862968858978106,A,1077.1729000261985,Correct,sub_006_day_18_data.csv,1,300,166.0,Training at home,,,,,,,,,,,,,
6,18,4157,A,35.04761535299381,50.23300139091671,1.7523807676496903,0.7890581406873491,B,673.5281000146642,Incorrect,sub_006_day_18_data.csv,0,300,166.0,Training at home,,,,,,,,,,,,,
6,18,4158,B,64.53175594962566,53.2713833994624,3.226587797481283,0.8367849336715818,B,796.1298000300303,Correct,sub_006_day_18_data.csv,1,300,166.0,Training at home,,,,,,,,,,,,,
6,18,4159,B,46.83409990930425,39.15717095233636,2.3417049954652125,0.6150794029960978,B,910.6452999985776,Correct,sub_006_day_18_data.csv,1,300,166.0,Training at home,,,,,,,,,,,,,
6,18,4160,B,88.1214436710219,64.32225271146332,4.406072183551094,1.0103715829033968,B,622.5396000081673,Correct,sub_006_day_18_data.csv,1,300,166.0,Training at home,,,,,,,,,,,,,
6,18,4161,B,70.28494346720056,44.272360978798645,3.514247173360028,0.6954286200403463,B,487.40109999198467,Correct,sub_006_day_18_data.csv,1,300,166.0,Training at home,,,,,,,,,,,,,
6,18,4162,A,55.15067017688491,83.87455880899256,2.7575335088442454,1.3174984888870802,A,471.2461999733932,Correct,sub_006_day_18_data.csv,1,300,166.0,Training at home,,,,,,,,,,,,,
6,18,4163,A,39.4096882506563,64.8842785937481,1.9704844125328151,1.0191998648179623,A,1288.094000017736,Correct,sub_006_day_18_data.csv,1,300,166.0,Training at home,,,,,,,,,,,,,
6,18,4164,A,57.56166761874313,80.75014808125995,2.878083380937156,1.2684203599418709,B,500.83630002336577,Incorrect,sub_006_day_18_data.csv,0,300,166.0,Training at home,,,,,,,,,,,,,
6,18,4165,A,49.653791365465466,66.56239754841297,2.482689568273273,1.0455596957170872,B,697.4389999522828,Incorrect,sub_006_day_18_data.csv,0,300,166.0,Training at home,,,,,,,,,,,,,
6,18,4166,A,25.28692636325752,39.05329614873734,1.264346318162876,0.6134477413966989,A,1920.3839999972845,Correct,sub_006_day_18_data.csv,1,300,166.0,Training at home,,,,,,,,,,,,,
6,18,4167,A,29.72195445221744,41.025588516827376,1.4860977226108718,0.6444284374683134,A,841.7077999911271,Correct,sub_006_day_18_data.csv,1,300,166.0,Training at home,,,,,,,,,,,,,
6,18,4168,A,38.23201300340784,62.79155800378501,1.911600650170392,0.986327486660742,A,1590.9463000134565,Correct,sub_006_day_18_data.csv,1,300,166.0,Training at home,,,,,,,,,,,,,
6,18,4169,B,49.2015542288205,41.86854738302601,2.460077711441025,0.6576696043749534,B,515.8853000029922,Correct,sub_006_day_18_data.csv,1,300,166.0,Training at home,,,,,,,,,,,,,
6,18,4170,B,68.90712958010421,57.353874035329135,3.4453564790052105,0.900912546621522,B,682.7398000168614,Correct,sub_006_day_18_data.csv,1,300,166.0,Training at home,,,,,,,,,,,,,
6,18,4171,A,17.015034156477995,44.6216843529657,0.8507517078238997,0.7009157787703983,A,658.5196999949403,Correct,sub_006_day_18_data.csv,1,300,166.0,Training at home,,,,,,,,,,,,,
6,18,4172,A,59.12874776971165,77.51074674109253,2.9564373884855826,1.2175359626803763,A,1787.8828999819234,Correct,sub_006_day_18_data.csv,1,300,166.0,Training at home,,,,,,,,,,,,,
6,18,4173,B,58.035892982153314,30.470957563904292,2.9017946491076656,0.4786366821530403,B,490.7903000130318,Correct,sub_006_day_18_data.csv,1,300,166.0,Training at home,,,,,,,,,,,,,
6,18,4174,A,54.84127632045308,62.410515130948454,2.7420638160226543,0.9803420792107114,A,599.6589999995194,Correct,sub_006_day_18_data.csv,1,300,166.0,Training at home,,,,,,,,,,,,,
6,18,4175,B,74.48790074277423,59.89361342578189,3.724395037138712,0.9408066796769168,B,3959.712899988517,Correct,sub_006_day_18_data.csv,1,300,167.0,Training at home,,,,,,,,,,,,,
6,18,4176,A,37.12090313541088,48.660353566642655,1.856045156770544,0.7643550464302323,A,1676.4323000097647,Correct,sub_006_day_18_data.csv,1,300,167.0,Training at home,,,,,,,,,,,,,
6,18,4177,B,70.09418018482108,38.630177857213646,3.504709009241054,0.6068014148154474,B,482.86000004736707,Correct,sub_006_day_18_data.csv,1,300,167.0,Training at home,,,,,,,,,,,,,
6,18,4178,B,69.51739577832676,44.94066233244603,3.475869788916338,0.7059262731553599,B,459.5299999928102,Correct,sub_006_day_18_data.csv,1,300,167.0,Training at home,,,,,,,,,,,,,
6,18,4179,B,88.88627341193556,65.94260648861021,4.444313670596778,1.0358240405159025,B,500.6670000148006,Correct,sub_006_day_18_data.csv,1,300,167.0,Training at home,,,,,,,,,,,,,
6,18,4180,B,43.81194378504219,29.517217068668756,2.1905971892521094,0.4636553614867251,B,776.2785000377335,Correct,sub_006_day_18_data.csv,1,300,167.0,Training at home,,,,,,,,,,,,,
6,18,4181,A,41.50619526427747,64.24347171494317,2.0753097632138737,1.0091340939038458,A,502.57110001984984,Correct,sub_006_day_18_data.csv,1,300,167.0,Training at home,,,,,,,,,,,,,
6,18,4182,A,43.78077307321025,63.70969070675853,2.1890386536605124,1.0007494814341524,A,2829.5129999751225,Correct,sub_006_day_18_data.csv,1,300,167.0,Training at home,,,,,,,,,,,,,
6,18,4183,A,53.57420922729251,61.621711410098634,2.6787104613646253,0.9679515793379808,B,766.7949000024237,Incorrect,sub_006_day_18_data.csv,0,300,167.0,Training at home,,,,,,,,,,,,,
6,18,4184,A,13.095666736080831,36.86499008428224,0.6547833368040417,0.5790739101172083,A,488.6458000401035,Correct,sub_006_day_18_data.csv,1,300,167.0,Training at home,,,,,,,,,,,,,
6,18,4185,A,50.80797831709846,61.52105515647704,2.5403989158549227,0.9663704746034036,A,978.7327999947591,Correct,sub_006_day_18_data.csv,1,300,167.0,Training at home,,,,,,,,,,,,,
6,18,4186,B,80.16197150674712,64.06554623873032,4.008098575337356,1.006339247059062,B,1105.7507999939844,Correct,sub_006_day_18_data.csv,1,300,167.0,Training at home,,,,,,,,,,,,,
6,18,4187,A,63.59535275029195,75.31124838240885,3.1797676375145976,1.182986323254259,A,756.651800009422,Correct,sub_006_day_18_data.csv,1,300,167.0,Training at home,,,,,,,,,,,,,
6,18,4188,B,44.878808644342215,27.698355881206197,2.2439404322171104,0.4350847567645651,B,738.004999991972,Correct,sub_006_day_18_data.csv,1,300,167.0,Training at home,,,,,,,,,,,,,
6,18,4189,A,31.23802404921817,62.54490226399687,1.5619012024609082,0.9824530273603208,A,545.0458999839611,Correct,sub_006_day_18_data.csv,1,300,167.0,Training at home,,,,,,,,,,,,,
6,18,4190,B,50.53501344325416,39.80184701886532,2.526750672162708,0.6252059509688604,B,486.0626999870874,Correct,sub_006_day_18_data.csv,1,300,167.0,Training at home,,,,,,,,,,,,,
6,18,4191,A,62.179652783243554,87.1399189169254,3.108982639162178,1.3687906455191152,A,644.1018999903463,Correct,sub_006_day_18_data.csv,1,300,167.0,Training at home,,,,,,,,,,,,,
6,18,4192,B,66.11657224492204,53.47917074641472,3.3058286122461022,0.8400488496850532,B,738.9637000160292,Correct,sub_006_day_18_data.csv,1,300,167.0,Training at home,,,,,,,,,,,,,
6,18,4193,B,44.26785810216519,19.30106402603272,2.2133929051082593,0.3031804047532531,B,1327.2299999953248,Correct,sub_006_day_18_data.csv,1,300,167.0,Training at home,,,,,,,,,,,,,
6,18,4194,A,56.834991737802454,78.26214400704957,2.841749586890123,1.229338883333667,A,975.783700007014,Correct,sub_006_day_18_data.csv,1,300,167.0,Training at home,,,,,,,,,,,,,
6,18,4195,B,48.09575522189932,26.25511589637148,2.404787761094966,0.4124143960959462,B,664.1063999850303,Correct,sub_006_day_18_data.csv,1,300,167.0,Training at home,,,,,,,,,,,,,
6,18,4196,B,58.77480560796731,29.310932302583566,2.9387402803983655,0.4604150479583214,B,729.8756000236608,Correct,sub_006_day_18_data.csv,1,300,167.0,Training at home,,,,,,,,,,,,,
6,18,4197,B,32.106638989153524,12.091770197239388,1.605331949457676,0.1899370821027163,B,1014.2593999626116,Correct,sub_006_day_18_data.csv,1,300,167.0,Training at home,,,,,,,,,,,,,
6,18,4198,B,71.43062876513763,51.47757497271047,3.5715314382568812,0.8086078567944249,B,990.7968000043184,Correct,sub_006_day_18_data.csv,1,300,167.0,Training at home,,,,,,,,,,,,,
6,18,4199,A,22.35979190957384,34.87959971896815,1.117989595478692,0.5478874711863148,A,508.49050004035234,Correct,sub_006_day_18_data.csv,1,300,167.0,Training at home,,,,,,,,,,,,,
