subject,day,trial,cat,x,y,xt,yt,resp,rt,fb,f_name,acc,n_trials,block,session_type,ns_left_digit,ns_right_digit,ns_left_size,ns_right_size,ns_congruent,ns_cue,ns_correct_side,ns_resp,ns_rt,ns_fb,acc_stroop,acc_stroop_mean,resp_key
6,22,0,B,56.024486445193666,37.47511415506926,2.8012243222596833,0.5886577166100222,B,1528.9792999974452,Correct,sub_006_day_22_data.csv,1,283,,Dual-Task at home,8.0,4.0,small,big,False,Size,right,right,1020.2083000331186,Correct,1.0,0.9823321554770318,
6,22,1,A,30.317988580031265,62.857990246739966,1.515899429001563,0.9873710018928856,A,1196.9949000049382,Correct,sub_006_day_22_data.csv,1,283,,Dual-Task at home,2.0,8.0,big,small,False,Size,left,left,819.9497999739833,Correct,1.0,0.9823321554770318,
6,22,2,A,21.383028254840223,49.0727153507026,1.0691514127420112,0.7708324101873518,A,1035.7805999810807,Correct,sub_006_day_22_data.csv,1,283,,Dual-Task at home,3.0,5.0,big,small,False,Value,right,right,1405.6259000208229,Correct,1.0,0.9823321554770318,
6,22,3,A,48.20485199401197,64.70634969873149,2.4102425997005983,1.016404964270735,B,1181.075000029523,Incorrect,sub_006_day_22_data.csv,0,283,,Dual-Task at home,2.0,4.0,small,big,True,Size,right,right,600.6292999954894,Correct,1.0,0.9823321554770318,
6,22,4,B,79.2228071625112,63.26587994595874,3.96114035812556,0.9937781183055888,B,1076.2995000113733,Correct,sub_006_day_22_data.csv,1,283,,Dual-Task at home,5.0,4.0,small,big,False,Value,left,left,523.5695000155829,Correct,1.0,0.9823321554770318,
6,22,5,A,44.067460338707136,72.52989671565427,2.2033730169353567,1.1392969534376296,A,972.7446000324562,Correct,sub_006_day_22_data.csv,1,283,,Dual-Task at home,7.0,2.0,big,small,True,Value,left,left,556.9935999810696,Correct,1.0,0.9823321554770318,
6,22,6,B,65.09942028973148,41.856496857546595,3.254971014486574,0.6574803151633632,A,2384.053599962499,Incorrect,sub_006_day_22_data.csv,0,283,,Dual-Task at home,4.0,8.0,small,big,True,Value,right,right,2163.381099991966,Correct,1.0,0.9823321554770318,
6,22,7,A,48.202706704853234,78.64273252272298,2.4101353352426615,1.235317153758068,A,716.1512000020593,Correct,sub_006_day_22_data.csv,1,283,,Dual-Task at home,7.0,5.0,small,big,False,Size,right,right,669.1701999516226,Correct,1.0,0.9823321554770318,
6,22,8,B,73.38142056606088,61.68487399002838,3.669071028303045,0.9689437348234264,A,1204.422099981457,Incorrect,sub_006_day_22_data.csv,0,283,,Dual-Task at home,5.0,3.0,small,big,False,Size,right,right,2136.7025999934413,Correct,1.0,0.9823321554770318,
6,22,9,A,14.192370773998388,39.00202838487611,0.7096185386999194,0.6126424292451368,A,1176.887399982661,Correct,sub_006_day_22_data.csv,1,283,,Dual-Task at home,8.0,6.0,big,small,True,Size,left,left,930.6016999762504,Correct,1.0,0.9823321554770318,
6,22,10,A,23.60282303238063,47.9178350551796,1.1801411516190314,0.7526915929263984,A,1545.4771000077017,Correct,sub_006_day_22_data.csv,1,283,,Dual-Task at home,7.0,6.0,small,big,False,Value,left,left,1051.436299982015,Correct,1.0,0.9823321554770318,
6,22,11,A,26.057014136595186,58.42867788406602,1.3028507068297592,0.9177955259977312,A,1047.7957999682983,Correct,sub_006_day_22_data.csv,1,283,,Dual-Task at home,5.0,8.0,big,small,False,Value,right,right,1155.379100004211,Correct,1.0,0.9823321554770318,
6,22,12,A,62.82198078236639,82.08512184995413,3.14109903911832,1.2893900788641943,A,914.1944000148214,Correct,sub_006_day_22_data.csv,1,283,,Dual-Task at home,2.0,3.0,big,small,False,Size,left,left,1763.6328999651596,Correct,1.0,0.9823321554770318,
6,22,13,B,50.404736022006475,39.32195560591713,2.520236801100324,0.6176678342816662,B,1278.6035999888554,Correct,sub_006_day_22_data.csv,1,283,,Dual-Task at home,2.0,7.0,big,small,False,Value,right,right,1577.6670000050217,Correct,1.0,0.9823321554770318,
6,22,14,A,44.01850524051768,60.36205955382722,2.2009252620258843,0.948165014249266,A,989.2336999764666,Correct,sub_006_day_22_data.csv,1,283,,Dual-Task at home,7.0,3.0,small,big,False,Value,left,left,1909.8568999907,Correct,1.0,0.9823321554770318,
6,22,15,A,17.580243615103697,43.97618964854142,0.8790121807551848,0.6907763716636462,A,970.0415000552312,Correct,sub_006_day_22_data.csv,1,283,,Dual-Task at home,2.0,7.0,big,small,False,Value,right,right,877.3509999737144,Correct,1.0,0.9823321554770318,
6,22,16,A,57.41794149392813,83.91743200140237,2.870897074696406,1.3181719394186335,A,808.1090000341646,Correct,sub_006_day_22_data.csv,1,283,,Dual-Task at home,8.0,6.0,small,big,False,Size,right,right,1043.540100043174,Correct,1.0,0.9823321554770318,
6,22,17,B,54.87335598776964,26.445782760258503,2.743667799388482,0.4154093841902986,B,643.7353000510484,Correct,sub_006_day_22_data.csv,1,283,,Dual-Task at home,2.0,8.0,big,small,False,Value,right,right,1340.8822999917902,Correct,1.0,0.9823321554770318,
6,22,18,A,67.13099960064851,83.93350887528365,3.3565499800324257,1.318424474363024,A,1516.6278000106104,Correct,sub_006_day_22_data.csv,1,283,,Dual-Task at home,5.0,7.0,big,small,False,Size,left,left,1755.9959999634884,Correct,1.0,0.9823321554770318,
6,22,19,A,14.249858330013176,37.39855830564131,0.7124929165006588,0.5874551801392615,A,867.6680999924429,Correct,sub_006_day_22_data.csv,1,283,,Dual-Task at home,5.0,8.0,big,small,False,Size,left,left,654.3825000408106,Correct,1.0,0.9823321554770318,
6,22,20,B,70.80433333950327,42.18980946013411,3.5402166669751636,0.6627159772815523,B,684.2225000145845,Correct,sub_006_day_22_data.csv,1,283,,Dual-Task at home,3.0,5.0,big,small,False,Size,left,left,918.1760000064968,Correct,1.0,0.9823321554770318,
6,22,21,B,75.98036238251431,55.38552536326883,3.799018119125716,0.8699937979822825,B,787.9965999745764,Correct,sub_006_day_22_data.csv,1,283,,Dual-Task at home,4.0,2.0,small,big,False,Value,left,left,928.7156999926084,Correct,1.0,0.9823321554770318,
6,22,22,A,46.791963975609995,72.98786004701662,2.3395981987804997,1.146490624624737,B,2012.1588000329211,Incorrect,sub_006_day_22_data.csv,0,283,,Dual-Task at home,8.0,6.0,small,big,False,Value,left,left,486.2692999886349,Correct,1.0,0.9823321554770318,
6,22,23,B,80.5281202138764,58.72028012080621,4.02640601069382,0.9223760032212978,B,904.060799977742,Correct,sub_006_day_22_data.csv,1,283,,Dual-Task at home,8.0,7.0,small,big,False,Value,left,left,609.056499961298,Correct,1.0,0.9823321554770318,
6,22,24,B,72.31950988883399,61.97398168221564,3.6159754944416993,0.9734850278327852,B,806.2453999882564,Correct,sub_006_day_22_data.csv,1,283,,Dual-Task at home,3.0,4.0,big,small,False,Value,right,right,888.4303999948315,Correct,1.0,0.9823321554770318,
6,22,25,A,52.31982260144649,70.00361349591299,2.6159911300723246,1.0996141894174976,A,916.3133999682032,Correct,sub_006_day_22_data.csv,1,283,,Dual-Task at home,7.0,2.0,big,small,True,Size,left,left,321.12450001295656,Correct,1.0,0.9823321554770318,
6,22,26,A,33.09650155540353,62.68236566602094,1.6548250777701763,0.9846122974300024,A,908.685400034301,Correct,sub_006_day_22_data.csv,1,283,,Dual-Task at home,8.0,4.0,small,big,False,Value,left,left,559.5653000054881,Correct,1.0,0.9823321554770318,
6,22,27,B,34.30750104167668,19.99044286997794,1.715375052083834,0.3140091423116458,B,1259.188099997118,Correct,sub_006_day_22_data.csv,1,283,,Dual-Task at home,8.0,5.0,big,small,True,Size,left,left,1443.7923000077717,Correct,1.0,0.9823321554770318,
6,22,28,B,48.15863060107202,32.04759705974433,2.407931530053601,0.5034024774404932,B,714.4039000268094,Correct,sub_006_day_22_data.csv,1,283,,Dual-Task at home,2.0,5.0,big,small,False,Value,right,right,816.658700001426,Correct,1.0,0.9823321554770318,
6,22,29,B,41.6868084687626,18.504399136055156,2.08434042343813,0.2906664219246209,B,1209.0782000450415,Correct,sub_006_day_22_data.csv,1,283,,Dual-Task at home,2.0,6.0,small,big,True,Size,right,right,350.3541999962181,Correct,1.0,0.9823321554770318,
6,22,30,B,54.52909518272776,44.97918136959081,2.726454759136388,0.7065313287759469,B,1036.6722000180744,Correct,sub_006_day_22_data.csv,1,283,,Dual-Task at home,2.0,8.0,big,small,False,Size,left,left,976.6191999660804,Correct,1.0,0.9823321554770318,
6,22,31,A,51.73557936907599,77.84202833978625,2.5867789684537996,1.2227397218640048,A,1635.9603999881074,Correct,sub_006_day_22_data.csv,1,283,,Dual-Task at home,5.0,2.0,small,big,False,Value,left,left,633.916600025259,Correct,1.0,0.9823321554770318,
6,22,32,B,39.43827750507336,30.73517621995916,1.971913875253668,0.482787019097057,B,1578.294500010088,Correct,sub_006_day_22_data.csv,1,283,,Dual-Task at home,7.0,2.0,small,big,False,Value,left,left,421.0347000043839,Correct,1.0,0.9823321554770318,
6,22,33,A,12.912218372158982,39.85205870373329,0.6456109186079491,0.6259946742703885,A,1069.4097999949008,Correct,sub_006_day_22_data.csv,1,283,,Dual-Task at home,3.0,7.0,big,small,False,Value,right,right,2009.6142000402324,Correct,1.0,0.9823321554770318,
6,22,34,B,51.27340173356838,21.958085149463404,2.5636700866784192,0.3449167949622668,B,1035.689300042577,Correct,sub_006_day_22_data.csv,1,283,,Dual-Task at home,6.0,4.0,small,big,False,Size,right,right,1790.2053000289015,Correct,1.0,0.9823321554770318,
6,22,35,B,79.10192743751989,58.68536909896075,3.955096371875994,0.9218276221725026,B,827.8863999876194,Correct,sub_006_day_22_data.csv,1,283,,Dual-Task at home,5.0,6.0,small,big,True,Size,right,right,1427.4570000125095,Correct,1.0,0.9823321554770318,
6,22,36,A,24.925264267590347,37.558450530745006,1.2462632133795173,0.5899667613380208,B,1366.8490999843923,Incorrect,sub_006_day_22_data.csv,0,283,,Dual-Task at home,7.0,2.0,small,big,False,Value,left,left,527.9212000314146,Correct,1.0,0.9823321554770318,
6,22,37,A,48.01188075523873,69.45994402158449,2.4005940377619366,1.0910742492848404,A,770.8938999567181,Correct,sub_006_day_22_data.csv,1,283,,Dual-Task at home,2.0,3.0,big,small,False,Value,right,right,1474.4376999442466,Correct,1.0,0.9823321554770318,
6,22,38,B,55.89028547756933,48.78930102792932,2.7945142738784665,0.7663805484156184,B,1050.745700020343,Correct,sub_006_day_22_data.csv,1,283,,Dual-Task at home,3.0,2.0,small,big,False,Size,right,right,1838.336699991487,Correct,1.0,0.9823321554770318,
6,22,39,B,74.96467816021912,63.512482681609605,3.748233908010956,0.9976517450189684,B,1201.3401000294834,Correct,sub_006_day_22_data.csv,1,283,,Dual-Task at home,5.0,8.0,big,small,False,Size,left,left,1600.0791999977082,Correct,1.0,0.9823321554770318,
6,22,40,B,66.09998287548997,34.67157990165696,3.3049991437744985,0.5446199035369852,B,1104.6349000534974,Correct,sub_006_day_22_data.csv,1,283,,Dual-Task at home,8.0,6.0,small,big,False,Size,right,right,1216.9604999944568,Correct,1.0,0.9823321554770318,
6,22,41,B,45.79936005748205,25.155723828912897,2.2899680028741023,0.3951451858832323,B,1225.9469999698922,Correct,sub_006_day_22_data.csv,1,283,,Dual-Task at home,8.0,2.0,small,big,False,Size,right,right,670.5495999776758,Correct,1.0,0.9823321554770318,
6,22,42,B,57.563221283904845,49.77744987275947,2.878161064195242,0.7819023541734766,B,1132.8738000011072,Correct,sub_006_day_22_data.csv,1,283,,Dual-Task at home,2.0,7.0,big,small,False,Value,right,right,1858.9365999796428,Correct,1.0,0.9823321554770318,
6,22,43,B,36.46301644381896,22.382591482380622,1.823150822190948,0.3515849248467422,B,1252.8563999803737,Correct,sub_006_day_22_data.csv,1,283,,Dual-Task at home,2.0,3.0,small,big,True,Value,right,right,1278.492400015239,Correct,1.0,0.9823321554770318,
6,22,44,A,66.18676139897448,89.57745874719902,3.309338069948724,1.4070794316372155,A,1267.0324000064284,Correct,sub_006_day_22_data.csv,1,283,,Dual-Task at home,4.0,6.0,big,small,False,Value,right,right,979.7814999474213,Correct,1.0,0.9823321554770318,
6,22,45,A,43.30627483885601,52.79038645579997,2.165313741942801,0.8292294513485364,B,1169.193300011102,Incorrect,sub_006_day_22_data.csv,0,283,,Dual-Task at home,4.0,2.0,small,big,False,Size,right,right,442.9564999882132,Correct,1.0,0.9823321554770318,
6,22,46,A,47.130098004885966,73.2022433088122,2.356504900244298,1.1498581490262851,A,3869.526499998756,Correct,sub_006_day_22_data.csv,1,283,,Dual-Task at home,6.0,2.0,small,big,False,Value,left,left,1638.4970999788493,Correct,1.0,0.9823321554770318,
6,22,47,B,62.479246561365706,42.675584395616326,3.1239623280682856,0.6703465121245973,B,913.6741000111216,Correct,sub_006_day_22_data.csv,1,283,,Dual-Task at home,6.0,5.0,small,big,False,Value,left,left,1246.84569996316,Correct,1.0,0.9823321554770318,
6,22,48,B,72.37668244877818,49.783147246932664,3.61883412243891,0.7819918483177128,B,770.2153000282124,Correct,sub_006_day_22_data.csv,1,283,,Dual-Task at home,3.0,6.0,big,small,False,Size,left,left,1399.0474000456743,Correct,1.0,0.9823321554770318,
6,22,49,B,84.7821578057239,68.4694114637298,4.239107890286195,1.0755150002503515,B,836.9386999984272,Correct,sub_006_day_22_data.csv,1,283,,Dual-Task at home,2.0,5.0,big,small,False,Value,right,right,1667.0849000220187,Correct,1.0,0.9823321554770318,
6,22,50,A,64.07743890472682,83.57759522216037,3.203871945236341,1.312833795773202,B,931.5009000129066,Incorrect,sub_006_day_22_data.csv,0,283,,Dual-Task at home,2.0,7.0,small,big,True,Value,right,right,984.459600003902,Correct,1.0,0.9823321554770318,
6,22,51,A,32.37474921384761,41.93071484314729,1.6187374606923806,0.6586461285550002,A,663.9927999931388,Correct,sub_006_day_22_data.csv,1,283,,Dual-Task at home,5.0,3.0,small,big,False,Value,left,left,1054.2903999448754,Correct,1.0,0.9823321554770318,
6,22,52,B,61.21824796933906,51.86266332231668,3.0609123984669533,0.8146568104449544,B,1211.329100013245,Correct,sub_006_day_22_data.csv,1,283,,Dual-Task at home,8.0,5.0,small,big,False,Size,right,right,1759.9990000016987,Correct,1.0,0.9823321554770318,
6,22,53,B,65.57394933501102,47.41858169677481,3.2786974667505513,0.7448493395111758,B,2229.480599984526,Correct,sub_006_day_22_data.csv,1,283,,Dual-Task at home,2.0,4.0,big,small,False,Value,right,right,596.511300012935,Correct,1.0,0.9823321554770318,
6,22,54,B,62.601409094632686,54.71751719480761,3.1300704547316345,0.859500750209404,B,1026.334099995438,Correct,sub_006_day_22_data.csv,1,283,,Dual-Task at home,5.0,8.0,big,small,False,Size,left,left,1866.5765999467112,Correct,1.0,0.9823321554770318,
6,22,55,A,27.892433526534504,57.66698363205039,1.394621676326725,0.9058308606656617,B,1136.5501999971457,Incorrect,sub_006_day_22_data.csv,0,283,,Dual-Task at home,7.0,4.0,small,big,False,Value,left,left,1626.0229999898002,Correct,1.0,0.9823321554770318,
6,22,56,B,43.72845284555288,16.041673487314345,2.186422642277644,0.2519820178951645,B,759.1863999841735,Correct,sub_006_day_22_data.csv,1,283,,Dual-Task at home,6.0,3.0,small,big,False,Size,right,right,1828.5468999529255,Correct,1.0,0.9823321554770318,
6,22,57,A,64.26411166718886,83.17449688056902,3.213205583359443,1.3065019418301138,A,1248.3824999653734,Correct,sub_006_day_22_data.csv,1,283,,Dual-Task at home,7.0,2.0,big,small,True,Value,left,left,1327.1552000078373,Correct,1.0,0.9823321554770318,
6,22,58,A,53.363591088703664,65.97262562134054,2.668179554435183,1.036295579950166,A,2459.0296000242233,Correct,sub_006_day_22_data.csv,1,283,,Dual-Task at home,7.0,5.0,small,big,False,Size,right,right,613.527300010901,Correct,1.0,0.9823321554770318,
6,22,59,B,83.33070371394919,60.51566284801756,4.16653518569746,0.9505778091522438,B,1019.644199986942,Correct,sub_006_day_22_data.csv,1,283,,Dual-Task at home,8.0,2.0,small,big,False,Size,right,right,994.9074999894948,Correct,1.0,0.9823321554770318,
6,22,60,A,39.012060921405165,71.56728048332997,1.9506030460702584,1.1241762130191482,A,1436.5680000046268,Correct,sub_006_day_22_data.csv,1,283,,Dual-Task at home,8.0,5.0,big,small,True,Size,left,left,2533.7933999835514,Correct,1.0,0.9823321554770318,
6,22,61,B,74.22963359064642,57.3271743300417,3.7114816795323207,0.9004931486316019,A,1026.9778999499977,Incorrect,sub_006_day_22_data.csv,0,283,,Dual-Task at home,8.0,7.0,small,big,False,Value,left,left,659.5540999551304,Correct,1.0,0.9823321554770318,
6,22,62,B,89.19597797816786,67.19000950599872,4.459798898908393,1.0554182012933695,A,1923.534700006712,Incorrect,sub_006_day_22_data.csv,0,283,,Dual-Task at home,6.0,8.0,big,small,False,Value,right,right,992.3164999927394,Correct,1.0,0.9823321554770318,
6,22,63,B,76.96737848110712,50.75274340120677,3.848368924055356,0.7972222290937951,B,2287.627200013958,Correct,sub_006_day_22_data.csv,1,283,,Dual-Task at home,7.0,6.0,small,big,False,Value,left,left,520.2443999587558,Correct,1.0,0.9823321554770318,
6,22,64,A,10.93804840927955,31.686200794328148,0.5469024204639774,0.4977256781781619,A,2212.793899991084,Correct,sub_006_day_22_data.csv,1,283,,Dual-Task at home,3.0,2.0,small,big,False,Value,left,left,564.8715000133961,Correct,1.0,0.9823321554770318,
6,22,65,A,44.185965085547345,73.178625989519,2.209298254277367,1.1494871690423405,A,1048.297600005753,Correct,sub_006_day_22_data.csv,1,283,,Dual-Task at home,4.0,6.0,big,small,False,Value,right,right,2095.1606000307947,Correct,1.0,0.9823321554770318,
6,22,66,A,16.16453800862797,43.42500994816656,0.8082269004313986,0.6821184611761189,A,1856.975100003183,Correct,sub_006_day_22_data.csv,1,283,,Dual-Task at home,3.0,2.0,small,big,False,Size,right,right,714.4857000093907,Correct,1.0,0.9823321554770318,
6,22,67,B,49.06780523987573,19.7990402796452,2.4533902619937864,0.3110025974533089,B,995.3650999814272,Correct,sub_006_day_22_data.csv,1,283,,Dual-Task at home,2.0,5.0,big,small,False,Value,right,right,920.6529000075534,Correct,1.0,0.9823321554770318,
6,22,68,A,52.75170628724954,76.28780809083956,2.637585314362477,1.198326087283248,A,927.4376999819652,Correct,sub_006_day_22_data.csv,1,283,,Dual-Task at home,4.0,5.0,big,small,False,Value,right,right,1198.357900022529,Correct,1.0,0.9823321554770318,
6,22,69,A,49.86029299935744,77.23493190653745,2.493014649967872,1.2132034733904298,A,1078.1195999588815,Correct,sub_006_day_22_data.csv,1,283,,Dual-Task at home,7.0,8.0,small,big,True,Size,right,right,1533.64059998421,Correct,1.0,0.9823321554770318,
6,22,70,B,41.19859401893531,24.232688817422247,2.0599297009467654,0.3806461858277063,B,2108.0606999457814,Correct,sub_006_day_22_data.csv,1,283,,Dual-Task at home,4.0,7.0,small,big,True,Size,right,right,2457.100800005719,Correct,1.0,0.9823321554770318,
6,22,71,B,73.28251869447078,40.81182971264514,3.6641259347235393,0.6410707220240182,B,1786.593199998606,Correct,sub_006_day_22_data.csv,1,283,,Dual-Task at home,7.0,3.0,small,big,False,Value,left,left,547.377199982293,Correct,1.0,0.9823321554770318,
6,22,72,B,61.55782569260949,34.947348378388924,3.0778912846304745,0.548951664639949,B,2842.8991999826394,Correct,sub_006_day_22_data.csv,1,283,,Dual-Task at home,3.0,6.0,big,small,False,Value,right,right,1041.2994000362232,Correct,1.0,0.9823321554770318,
6,22,73,A,65.16898327369353,79.38588365448504,3.258449163684676,1.2469905444383211,A,927.910799975507,Correct,sub_006_day_22_data.csv,1,283,,Dual-Task at home,7.0,2.0,small,big,False,Value,left,left,1293.2473999680951,Correct,1.0,0.9823321554770318,
6,22,74,B,77.91305863507777,57.692224687650395,3.895652931753889,0.9062273462398708,B,2595.756199967582,Correct,sub_006_day_22_data.csv,1,283,,Dual-Task at home,8.0,2.0,small,big,False,Size,right,left,1499.3953999946823,Incorrect,0.0,0.9823321554770318,
6,22,75,B,86.48314999819787,68.36610003321685,4.3241574999098935,1.073892188094695,B,1243.3713999926113,Correct,sub_006_day_22_data.csv,1,283,,Dual-Task at home,6.0,8.0,big,small,False,Value,right,right,1486.2294000340626,Correct,1.0,0.9823321554770318,
6,22,76,A,28.675277747634674,57.137115114056925,1.4337638873817338,0.8975077054481779,A,1268.6348000424914,Correct,sub_006_day_22_data.csv,1,283,,Dual-Task at home,8.0,3.0,small,big,False,Value,left,left,524.3291999795474,Correct,1.0,0.9823321554770318,
6,22,77,B,63.71917891696617,53.82509038027706,3.1859589458483084,0.8454825425874254,B,1801.7957000411116,Correct,sub_006_day_22_data.csv,1,283,,Dual-Task at home,6.0,7.0,big,small,False,Size,left,left,1849.485500017181,Correct,1.0,0.9823321554770318,
6,22,78,A,14.27178202211484,31.468982351219296,0.7135891011057421,0.494313618852687,A,2076.2687999522313,Correct,sub_006_day_22_data.csv,1,283,,Dual-Task at home,8.0,3.0,small,big,False,Value,left,left,2033.1518999882976,Correct,1.0,0.9823321554770318,
6,22,79,B,80.88455678924237,58.2614195860714,4.044227839462119,0.915168238796572,B,911.2245999858716,Correct,sub_006_day_22_data.csv,1,283,,Dual-Task at home,8.0,3.0,small,big,False,Value,left,left,395.42159996926785,Correct,1.0,0.9823321554770318,
6,22,80,B,53.8264053750665,46.126606125006504,2.6913202687533246,0.7245550346867519,B,1277.7903999667617,Correct,sub_006_day_22_data.csv,1,283,,Dual-Task at home,8.0,6.0,small,big,False,Size,right,right,787.0372000033967,Correct,1.0,0.9823321554770318,
6,22,81,A,56.08060421829448,70.94181422903029,2.804030210914724,1.114351412071267,A,1055.3551000193693,Correct,sub_006_day_22_data.csv,1,283,,Dual-Task at home,3.0,2.0,small,big,False,Value,left,left,1801.3619999983348,Correct,1.0,0.9823321554770318,
6,22,82,B,86.26478997130516,66.79781601564494,4.313239498565258,1.049257640352964,B,1513.2667000289075,Correct,sub_006_day_22_data.csv,1,283,,Dual-Task at home,3.0,6.0,big,small,False,Value,right,right,951.5287000103854,Correct,1.0,0.9823321554770318,
6,22,83,B,49.07225072522834,38.943163131874186,2.453612536261417,0.6117177760132242,B,1301.0646000038832,Correct,sub_006_day_22_data.csv,1,283,,Dual-Task at home,6.0,5.0,small,big,False,Size,right,right,1711.4874999970198,Correct,1.0,0.9823321554770318,
6,22,84,A,32.772747057090875,52.17958926159673,1.6386373528545437,0.8196350714578257,A,1919.6582000004128,Correct,sub_006_day_22_data.csv,1,283,,Dual-Task at home,5.0,4.0,small,big,False,Size,right,right,1013.8196999905632,Correct,1.0,0.9823321554770318,
6,22,85,B,34.640116823774775,10.388041824645589,1.732005841188739,0.1631749794074504,B,2077.688599994872,Correct,sub_006_day_22_data.csv,1,283,,Dual-Task at home,5.0,7.0,big,small,False,Value,right,right,1692.8196999942884,Correct,1.0,0.9823321554770318,
6,22,86,A,38.84354261521437,62.80051139956264,1.9421771307607183,0.9864681262727404,A,938.7050999794156,Correct,sub_006_day_22_data.csv,1,283,,Dual-Task at home,2.0,5.0,small,big,True,Value,right,right,873.0623999726959,Correct,1.0,0.9823321554770318,
6,22,87,B,52.81660666342564,41.12580025969941,2.640830333171282,0.6460025598443644,B,3232.1393999736756,Correct,sub_006_day_22_data.csv,1,283,,Dual-Task at home,6.0,5.0,small,big,False,Value,left,left,690.6883000046946,Correct,1.0,0.9823321554770318,
6,22,88,B,39.32606235591423,23.955235802338347,1.966303117795712,0.3762879640581867,B,2410.9123999951407,Correct,sub_006_day_22_data.csv,1,283,,Dual-Task at home,4.0,5.0,small,big,True,Value,right,right,1583.3115000277758,Correct,1.0,0.9823321554770318,
6,22,89,A,43.75664616165168,70.10863180029774,2.187832308082584,1.1012638130852357,A,834.0846000355668,Correct,sub_006_day_22_data.csv,1,283,,Dual-Task at home,7.0,6.0,small,big,False,Size,right,right,2576.7425000085495,Correct,1.0,0.9823321554770318,
6,22,90,B,41.13277229666592,31.787540908012303,2.056638614833296,0.4993175249614823,B,1455.9659999795258,Correct,sub_006_day_22_data.csv,1,283,,Dual-Task at home,6.0,2.0,big,small,True,Size,left,left,1205.152900016401,Correct,1.0,0.9823321554770318,
6,22,91,B,66.70529012229892,46.138121328995666,3.3352645061149464,0.7247359150880366,B,908.0241000046954,Correct,sub_006_day_22_data.csv,1,283,,Dual-Task at home,2.0,6.0,big,small,False,Size,left,left,598.1186999706551,Correct,1.0,0.9823321554770318,
6,22,92,B,48.94827030136324,35.30777611079609,2.447413515068162,0.554613250221351,B,1226.1781999841332,Correct,sub_006_day_22_data.csv,1,283,,Dual-Task at home,2.0,3.0,big,small,False,Size,left,left,630.279499979224,Correct,1.0,0.9823321554770318,
6,22,93,B,69.26173934736315,46.36856735901096,3.4630869673681572,0.7283557528627616,B,732.7635000110604,Correct,sub_006_day_22_data.csv,1,283,,Dual-Task at home,5.0,2.0,big,small,True,Size,left,left,919.7168000391684,Correct,1.0,0.9823321554770318,
6,22,94,A,58.07375013957196,78.63958614810521,2.903687506978598,1.235267730621145,A,856.859199993778,Correct,sub_006_day_22_data.csv,1,283,,Dual-Task at home,8.0,5.0,small,big,False,Value,left,left,2037.6281999633648,Correct,1.0,0.9823321554770318,
6,22,95,A,40.29089154641975,54.364691265323096,2.0145445773209874,0.8539585734690811,B,834.5938000129536,Incorrect,sub_006_day_22_data.csv,0,283,,Dual-Task at home,6.0,7.0,big,small,False,Value,right,right,1460.185099975206,Correct,1.0,0.9823321554770318,
6,22,96,B,37.09531139201032,23.60507466740741,1.854765569600516,0.3707876458128282,B,1031.6631000023335,Correct,sub_006_day_22_data.csv,1,283,,Dual-Task at home,4.0,2.0,small,big,False,Size,right,right,596.5436999686062,Correct,1.0,0.9823321554770318,
6,22,97,B,72.41440416611894,46.43362195828555,3.620720208305947,0.7293776281185779,B,821.0180999594741,Correct,sub_006_day_22_data.csv,1,283,,Dual-Task at home,6.0,4.0,big,small,True,Value,left,left,443.89689998934045,Correct,1.0,0.9823321554770318,
6,22,98,A,50.18288091384508,73.0492837489595,2.509144045692254,1.1474554658786371,A,1334.7212000517177,Correct,sub_006_day_22_data.csv,1,283,,Dual-Task at home,4.0,3.0,small,big,False,Value,left,left,1634.7436999785714,Correct,1.0,0.9823321554770318,
6,22,99,B,81.48984610137356,52.39208275261848,4.074492305068678,0.8229729114094735,B,1066.059899982065,Correct,sub_006_day_22_data.csv,1,283,,Dual-Task at home,2.0,8.0,small,big,True,Size,right,right,1371.7153000179678,Correct,1.0,0.9823321554770318,
6,22,100,B,61.54155613557737,35.87172418938893,3.0770778067788687,0.5634717259249177,B,1706.041700032074,Correct,sub_006_day_22_data.csv,1,283,,Dual-Task at home,8.0,5.0,small,big,False,Value,left,left,1646.483700023964,Correct,1.0,0.9823321554770318,
6,22,101,A,34.668380874112074,59.02283031183712,1.7334190437056036,0.9271284505087224,A,2071.9311999855563,Correct,sub_006_day_22_data.csv,1,283,,Dual-Task at home,8.0,6.0,small,big,False,Size,right,right,1005.6006999802776,Correct,1.0,0.9823321554770318,
6,22,102,A,33.53631851452959,53.870649332094914,1.6768159257264796,0.8461981809291064,A,1072.0340000116266,Correct,sub_006_day_22_data.csv,1,283,,Dual-Task at home,2.0,6.0,small,big,True,Value,right,right,238.09020000044256,Correct,1.0,0.9823321554770318,
6,22,103,A,42.28116762407264,73.04565365410592,2.114058381203632,1.1473984444820178,A,786.8541999487206,Correct,sub_006_day_22_data.csv,1,283,,Dual-Task at home,8.0,5.0,small,big,False,Size,right,right,881.8258000537753,Correct,1.0,0.9823321554770318,
6,22,104,B,86.12071445804354,59.54329400761105,4.306035722902177,0.9353038751242402,A,1587.7837999723852,Incorrect,sub_006_day_22_data.csv,0,283,,Dual-Task at home,7.0,6.0,big,small,True,Size,left,left,445.8884999621659,Correct,1.0,0.9823321554770318,
6,22,105,A,49.74391589404817,58.4595131734136,2.4871957947024086,0.9182798855901596,A,1021.785200049635,Correct,sub_006_day_22_data.csv,1,283,,Dual-Task at home,5.0,6.0,big,small,False,Size,left,left,1949.4599999743511,Correct,1.0,0.9823321554770318,
6,22,106,A,45.375836895443285,55.86781356082557,2.2687918447721644,0.8775695632740691,A,1894.677599950228,Correct,sub_006_day_22_data.csv,1,283,,Dual-Task at home,6.0,2.0,small,big,False,Size,right,right,783.6483999853954,Correct,1.0,0.9823321554770318,
6,22,107,B,56.730747422494474,32.173993826869875,2.8365373711247237,0.5053879132156888,B,1635.8476000023074,Correct,sub_006_day_22_data.csv,1,283,,Dual-Task at home,4.0,7.0,big,small,False,Size,left,left,1769.8761000065133,Correct,1.0,0.9823321554770318,
6,22,108,B,68.29784385808611,37.79795171137759,3.414892192904306,0.593728837086028,B,1997.5058999843895,Correct,sub_006_day_22_data.csv,1,283,,Dual-Task at home,2.0,5.0,big,small,False,Size,left,left,584.5763999968767,Correct,1.0,0.9823321554770318,
6,22,109,A,64.42788764626783,76.64188139434526,3.2213943823133917,1.2038878577288763,A,944.2095999838784,Correct,sub_006_day_22_data.csv,1,283,,Dual-Task at home,5.0,7.0,big,small,False,Size,left,left,1808.413099963218,Correct,1.0,0.9823321554770318,
6,22,110,A,20.105543695821563,39.43897943743903,1.0052771847910782,0.619506040328687,B,3037.2679999563843,Incorrect,sub_006_day_22_data.csv,0,283,,Dual-Task at home,6.0,2.0,small,big,False,Value,left,left,967.021599994041,Correct,1.0,0.9823321554770318,
6,22,111,B,43.28295801595007,24.798939089803625,2.1641479007975035,0.3895408243067391,B,770.1981000136584,Correct,sub_006_day_22_data.csv,1,283,,Dual-Task at home,3.0,2.0,small,big,False,Size,right,right,603.4867000416853,Correct,1.0,0.9823321554770318,
6,22,112,B,35.632896254633,11.58822924394356,1.7816448127316502,0.1820274793044374,B,1033.984599984251,Correct,sub_006_day_22_data.csv,1,283,,Dual-Task at home,2.0,8.0,big,small,False,Value,right,right,545.8929999731481,Correct,1.0,0.9823321554770318,
6,22,113,A,48.50930709489341,70.84353499937393,2.4254653547446705,1.1128076455418223,A,861.9537000195123,Correct,sub_006_day_22_data.csv,1,283,,Dual-Task at home,4.0,6.0,small,big,True,Value,right,right,210.0124999997206,Correct,1.0,0.9823321554770318,
6,22,114,B,48.25937402592251,17.716129813260547,2.4129687012961254,0.2782843163569122,B,734.5149000175297,Correct,sub_006_day_22_data.csv,1,283,,Dual-Task at home,3.0,5.0,big,small,False,Size,left,left,2129.81040001614,Correct,1.0,0.9823321554770318,
6,22,115,A,30.472568011400615,62.80389518116903,1.523628400570031,0.98652127858992,A,805.4484999738634,Correct,sub_006_day_22_data.csv,1,283,,Dual-Task at home,5.0,8.0,big,small,False,Size,left,left,497.15529999230057,Correct,1.0,0.9823321554770318,
6,22,116,B,67.76615737545409,52.736058869799294,3.3883078687727046,0.8283760756232016,A,1530.0710000446998,Incorrect,sub_006_day_22_data.csv,0,283,,Dual-Task at home,7.0,8.0,big,small,False,Value,right,right,1550.6046000518836,Correct,1.0,0.9823321554770318,
6,22,117,B,53.981174976888546,26.70232591582502,2.6990587488444273,0.4194391546545812,B,861.4760000491515,Correct,sub_006_day_22_data.csv,1,283,,Dual-Task at home,2.0,7.0,big,small,False,Size,left,left,1254.963899962604,Correct,1.0,0.9823321554770318,
6,22,118,A,45.718011380171006,57.90367975403577,2.2859005690085503,0.909548874655474,A,779.425100015942,Correct,sub_006_day_22_data.csv,1,283,,Dual-Task at home,6.0,4.0,big,small,True,Value,left,left,2296.361999993678,Correct,1.0,0.9823321554770318,
6,22,119,A,48.73685726430288,59.60561321742405,2.436842863215144,0.9362827829828704,A,653.5142000066116,Correct,sub_006_day_22_data.csv,1,283,,Dual-Task at home,4.0,8.0,big,small,False,Value,right,right,621.334699972067,Correct,1.0,0.9823321554770318,
6,22,120,A,18.42138215243576,38.04113156538335,0.9210691076217878,0.5975486973002556,A,1158.6216000141576,Correct,sub_006_day_22_data.csv,1,283,,Dual-Task at home,7.0,8.0,big,small,False,Value,right,right,423.845799989067,Correct,1.0,0.9823321554770318,
6,22,121,A,22.872588210572665,48.69644906501023,1.143629410528633,0.7649220331927283,A,1257.1779999998398,Correct,sub_006_day_22_data.csv,1,283,,Dual-Task at home,8.0,7.0,small,big,False,Size,right,right,900.3567000036128,Correct,1.0,0.9823321554770318,
6,22,122,A,57.45745908018942,69.54371468755252,2.8728729540094715,1.092390115828798,A,654.9876999924891,Correct,sub_006_day_22_data.csv,1,283,,Dual-Task at home,6.0,2.0,small,big,False,Value,left,left,1432.484499993734,Correct,1.0,0.9823321554770318,
6,22,123,B,86.4612697687485,57.93574644801937,4.323063488437424,0.910052577106693,A,1123.2232000329532,Incorrect,sub_006_day_22_data.csv,0,283,,Dual-Task at home,8.0,5.0,small,big,False,Value,left,left,1989.3239999655632,Correct,1.0,0.9823321554770318,
6,22,124,A,35.29921038347399,61.86419012806343,1.7649605191736994,0.9717604261330312,A,1986.3268000190144,Correct,sub_006_day_22_data.csv,1,283,,Dual-Task at home,3.0,2.0,big,small,True,Size,left,left,2027.526299993042,Correct,1.0,0.9823321554770318,
6,22,125,B,50.65133083689042,19.962009806625517,2.5325665418445213,0.3135625167969106,A,2442.935300001409,Incorrect,sub_006_day_22_data.csv,0,283,,Dual-Task at home,4.0,8.0,big,small,False,Value,right,right,593.8270000042394,Correct,1.0,0.9823321554770318,
6,22,126,A,36.37373660855442,57.15517835742793,1.8186868304277208,0.8977914422115496,A,665.52010003943,Correct,sub_006_day_22_data.csv,1,283,,Dual-Task at home,6.0,2.0,small,big,False,Size,right,left,1513.5683999978935,Incorrect,0.0,0.9823321554770318,
6,22,127,B,70.66977309134975,41.92952994883984,3.5334886545674875,0.658627516278742,A,744.3729999940842,Incorrect,sub_006_day_22_data.csv,0,283,,Dual-Task at home,7.0,5.0,small,big,False,Value,left,left,1284.3332000193186,Correct,1.0,0.9823321554770318,
6,22,128,A,29.61583638339012,57.49930853119383,1.4807918191695058,0.9031970263404574,A,925.8311999728904,Correct,sub_006_day_22_data.csv,1,283,,Dual-Task at home,4.0,5.0,big,small,False,Size,left,left,1679.6712999930603,Correct,1.0,0.9823321554770318,
6,22,129,B,33.14331304219872,10.301740798715436,1.6571656521099358,0.1618193660621533,B,837.1707000187598,Correct,sub_006_day_22_data.csv,1,283,,Dual-Task at home,6.0,7.0,big,small,False,Value,right,right,1874.9951000208969,Correct,1.0,0.9823321554770318,
6,22,130,A,49.003587215635555,69.47495201170193,2.4501793607817777,1.091309994242331,A,953.08320003096,Correct,sub_006_day_22_data.csv,1,283,,Dual-Task at home,7.0,4.0,small,big,False,Size,right,right,487.8815999836661,Correct,1.0,0.9823321554770318,
6,22,131,A,19.51036006119245,45.12625707177644,0.9755180030596224,0.7088415885034867,A,980.7215000037104,Correct,sub_006_day_22_data.csv,1,283,,Dual-Task at home,7.0,8.0,big,small,False,Size,left,left,1290.275399980601,Correct,1.0,0.9823321554770318,
6,22,132,A,45.71430751528053,61.65233660740407,2.2857153757640263,0.9684326388123284,A,1359.0257999603637,Correct,sub_006_day_22_data.csv,1,283,,Dual-Task at home,2.0,7.0,small,big,True,Size,right,right,1478.8434999645688,Correct,1.0,0.9823321554770318,
6,22,133,A,37.59309878231837,66.74427999652868,1.879654939115918,1.0484166985311734,A,951.1214999947696,Correct,sub_006_day_22_data.csv,1,283,,Dual-Task at home,4.0,5.0,big,small,False,Value,right,right,444.490300025791,Correct,1.0,0.9823321554770318,
6,22,134,A,30.216793960779512,46.97786162785109,1.5108396980389756,0.737926524857074,A,1999.3668000097389,Correct,sub_006_day_22_data.csv,1,283,,Dual-Task at home,7.0,5.0,small,big,False,Value,left,left,1893.1449999799952,Correct,1.0,0.9823321554770318,
6,22,135,A,14.511779227951596,43.0059579736169,0.7255889613975798,0.6755360081525313,A,1491.1661999649368,Correct,sub_006_day_22_data.csv,1,283,,Dual-Task at home,8.0,5.0,small,big,False,Size,right,right,763.9459000201896,Correct,1.0,0.9823321554770318,
6,22,136,A,42.4190695914711,54.11926865256568,2.120953479573555,0.8501034840827637,A,779.6290999976918,Correct,sub_006_day_22_data.csv,1,283,,Dual-Task at home,4.0,5.0,big,small,False,Size,left,left,1871.917000040412,Correct,1.0,0.9823321554770318,
6,22,137,B,42.74405140319225,26.696661315772452,2.1372025701596127,0.4193501753250278,B,2260.9072999912314,Correct,sub_006_day_22_data.csv,1,283,,Dual-Task at home,4.0,6.0,small,big,True,Size,right,right,742.2194000100717,Correct,1.0,0.9823321554770318,
6,22,138,A,29.411829063587287,43.45323257277837,1.4705914531793645,0.6825617811268462,A,825.2602000138722,Correct,sub_006_day_22_data.csv,1,283,,Dual-Task at home,3.0,7.0,big,small,False,Size,left,left,2066.7616999708116,Correct,1.0,0.9823321554770318,
6,22,139,A,19.429922644805643,47.89102086561176,0.9714961322402822,0.7522703966216071,A,684.0556000242941,Correct,sub_006_day_22_data.csv,1,283,,Dual-Task at home,8.0,2.0,small,big,False,Size,right,right,1552.6383999967948,Correct,1.0,0.9823321554770318,
6,22,140,B,84.78661672808107,68.86588491858186,4.239330836404053,1.0817427907158843,A,995.1261000242084,Incorrect,sub_006_day_22_data.csv,0,283,,Dual-Task at home,2.0,8.0,big,small,False,Size,left,left,453.26929999282584,Correct,1.0,0.9823321554770318,
6,22,141,A,39.65299700284985,48.77154806991994,1.9826498501424925,0.7661016856033096,A,2668.7538000405766,Correct,sub_006_day_22_data.csv,1,283,,Dual-Task at home,8.0,5.0,small,big,False,Value,left,left,401.9465000019409,Correct,1.0,0.9823321554770318,
6,22,142,B,39.74694610240611,30.287069937871763,1.987347305120306,0.475748182077891,B,2981.194799998775,Correct,sub_006_day_22_data.csv,1,283,,Dual-Task at home,5.0,2.0,small,big,False,Size,right,right,1359.3537000124345,Correct,1.0,0.9823321554770318,
6,22,143,A,46.57502653520675,64.18039469022041,2.3287513267603375,1.0081432823164491,A,797.515399986878,Correct,sub_006_day_22_data.csv,1,283,,Dual-Task at home,6.0,2.0,small,big,False,Size,right,right,1848.1145999976432,Correct,1.0,0.9823321554770318,
6,22,144,A,68.29173479935466,85.20509230296457,3.414586739967733,1.3383984601371688,A,1096.5403000009246,Correct,sub_006_day_22_data.csv,1,283,,Dual-Task at home,5.0,7.0,big,small,False,Size,left,left,2666.97220003698,Correct,1.0,0.9823321554770318,
6,22,145,A,23.35962334166804,34.77390395604631,1.167981167083402,0.5462272060247607,A,1127.884300018195,Correct,sub_006_day_22_data.csv,1,283,,Dual-Task at home,5.0,7.0,big,small,False,Size,left,left,1746.6459999559447,Correct,1.0,0.9823321554770318,
6,22,146,B,74.98853173038998,56.82286283169086,3.749426586519499,0.8925714421399026,A,1955.225999990944,Incorrect,sub_006_day_22_data.csv,0,283,,Dual-Task at home,4.0,7.0,big,small,False,Size,left,left,1202.5089000235312,Correct,1.0,0.9823321554770318,
6,22,147,B,71.16100578681649,50.57005926017584,3.5580502893408243,0.7943526333168447,B,1050.7326999795623,Correct,sub_006_day_22_data.csv,1,283,,Dual-Task at home,6.0,4.0,small,big,False,Value,left,left,2941.515900020022,Correct,1.0,0.9823321554770318,
6,22,148,B,73.2308035315839,59.88027048252888,3.661540176579195,0.9405970892144122,A,1765.754599997308,Incorrect,sub_006_day_22_data.csv,0,283,,Dual-Task at home,6.0,2.0,small,big,False,Value,left,left,1966.87160001602,Correct,1.0,0.9823321554770318,
6,22,149,A,39.811383506980285,57.388770927100055,1.9905691753490145,0.9014607057156252,A,919.2604999989272,Correct,sub_006_day_22_data.csv,1,283,,Dual-Task at home,2.0,7.0,small,big,True,Size,right,right,306.1530000413768,Correct,1.0,0.9823321554770318,
6,22,150,A,57.96672957726969,66.3031572400955,2.8983364788634844,1.041487558476465,A,986.1591000226326,Correct,sub_006_day_22_data.csv,1,283,,Dual-Task at home,2.0,8.0,big,small,False,Value,right,right,2392.361300007906,Correct,1.0,0.9823321554770318,
6,22,151,A,39.51818383843376,52.83580614598951,1.975909191921688,0.8299429021736755,A,803.2718000467867,Correct,sub_006_day_22_data.csv,1,283,,Dual-Task at home,2.0,3.0,big,small,False,Size,left,left,3243.62750002183,Correct,1.0,0.9823321554770318,
6,22,152,B,31.639792103774468,15.514505933214828,1.5819896051887234,0.2437012893193147,B,719.0153999836184,Correct,sub_006_day_22_data.csv,1,283,,Dual-Task at home,7.0,4.0,big,small,True,Value,left,left,1135.740199999418,Correct,1.0,0.9823321554770318,
6,22,153,B,61.3686723095455,53.510130951029424,3.068433615477275,0.8405351714419093,A,1039.364799973555,Incorrect,sub_006_day_22_data.csv,0,283,,Dual-Task at home,5.0,6.0,big,small,False,Value,right,right,920.4326000181028,Correct,1.0,0.9823321554770318,
6,22,154,B,47.97803319112865,25.202571005085776,2.3989016595564325,0.3958810596057631,B,1040.7166999648323,Correct,sub_006_day_22_data.csv,1,283,,Dual-Task at home,2.0,6.0,big,small,False,Size,left,left,1642.5781000289137,Correct,1.0,0.9823321554770318,
6,22,155,A,28.182616723538352,52.47804264937794,1.4091308361769177,0.8243231663102879,A,2124.914499989245,Correct,sub_006_day_22_data.csv,1,283,,Dual-Task at home,8.0,2.0,small,big,False,Size,right,right,874.9247000087053,Correct,1.0,0.9823321554770318,
6,22,156,B,55.51322042167484,25.094649946951325,2.775661021083742,0.3941858395887488,A,1544.7263999958525,Incorrect,sub_006_day_22_data.csv,0,283,,Dual-Task at home,4.0,6.0,big,small,False,Value,right,right,800.3319999552332,Correct,1.0,0.9823321554770318,
6,22,157,B,50.40026296964448,35.815624609166306,2.520013148482224,0.5625905157794334,B,1452.0281999721192,Correct,sub_006_day_22_data.csv,1,283,,Dual-Task at home,2.0,6.0,big,small,False,Value,right,right,1526.2803999939931,Correct,1.0,0.9823321554770318,
6,22,158,B,46.34423655828855,39.24691808874918,2.3172118279144276,0.616489147718274,B,2481.992499961052,Correct,sub_006_day_22_data.csv,1,283,,Dual-Task at home,4.0,3.0,big,small,True,Size,left,left,530.3095999988727,Correct,1.0,0.9823321554770318,
6,22,159,B,69.60975934492356,50.35457480337058,3.480487967246178,0.7909678113845335,B,736.7770999553613,Correct,sub_006_day_22_data.csv,1,283,,Dual-Task at home,5.0,8.0,big,small,False,Size,left,left,1423.324200033676,Correct,1.0,0.9823321554770318,
6,22,160,B,58.6798104442969,38.98161841209201,2.9339905222148452,0.6123218301423444,B,1894.69879999524,Correct,sub_006_day_22_data.csv,1,283,,Dual-Task at home,7.0,6.0,small,big,False,Value,left,left,4351.54090001015,Correct,1.0,0.9823321554770318,
6,22,161,B,54.9714488261338,26.359590664735492,2.74857244130669,0.4140554819198356,B,2837.13220001664,Correct,sub_006_day_22_data.csv,1,283,,Dual-Task at home,8.0,5.0,small,big,False,Size,right,right,451.9294999772683,Correct,1.0,0.9823321554770318,
6,22,162,A,27.14587189186015,41.017969103342786,1.3572935945930076,0.644308752001174,A,939.28789999336,Correct,sub_006_day_22_data.csv,1,283,,Dual-Task at home,8.0,4.0,small,big,False,Value,left,left,3447.756599984132,Correct,1.0,0.9823321554770318,
6,22,163,A,41.972207574994854,50.12248718255642,2.0986103787497425,0.787322187561839,A,3743.157399992924,Correct,sub_006_day_22_data.csv,1,283,,Dual-Task at home,5.0,6.0,big,small,False,Value,right,right,1229.6001000213437,Correct,1.0,0.9823321554770318,
6,22,164,A,34.98557613072044,68.24932635449414,1.749278806536022,1.0720579114386553,A,1252.207899990026,Correct,sub_006_day_22_data.csv,1,283,,Dual-Task at home,7.0,8.0,small,big,True,Size,right,right,1696.7220999649726,Correct,1.0,0.9823321554770318,
6,22,165,A,13.02225982543095,30.431715390544532,0.6511129912715475,0.4780202675353507,A,1552.0487000467256,Correct,sub_006_day_22_data.csv,1,283,,Dual-Task at home,7.0,5.0,small,big,False,Size,right,right,1611.6907999967225,Correct,1.0,0.9823321554770318,
6,22,166,B,56.20887126516513,27.823941566975456,2.8104435632582567,0.4370574521036089,B,1439.1561999800615,Correct,sub_006_day_22_data.csv,1,283,,Dual-Task at home,6.0,2.0,big,small,True,Value,left,left,3047.7439999813214,Correct,1.0,0.9823321554770318,
6,22,167,A,21.40333266216418,50.7140851509056,1.070166633108209,0.7966149867180612,A,558.1599000142887,Correct,sub_006_day_22_data.csv,1,283,,Dual-Task at home,2.0,3.0,big,small,False,Value,right,right,607.5286000268534,Correct,1.0,0.9823321554770318,
6,22,168,A,53.644897906354494,74.50624618548642,2.6822448953177247,1.1703413783143832,A,889.0821000095457,Correct,sub_006_day_22_data.csv,1,283,,Dual-Task at home,7.0,5.0,big,small,True,Size,left,left,647.5428999983706,Correct,1.0,0.9823321554770318,
6,22,169,B,55.34954800140667,26.081227471158886,2.7674774000703333,0.4096829630999852,B,2619.683899974916,Correct,sub_006_day_22_data.csv,1,283,,Dual-Task at home,7.0,5.0,small,big,False,Size,right,right,2145.42519999668,Correct,1.0,0.9823321554770318,
6,22,170,B,81.83442313162391,60.196113346787435,4.091721156581196,0.9455583373246296,A,1105.9064000146464,Incorrect,sub_006_day_22_data.csv,0,283,,Dual-Task at home,7.0,6.0,small,big,False,Value,left,left,1578.2783000031486,Correct,1.0,0.9823321554770318,
6,22,171,B,59.77678143233445,45.90027052070849,2.9888390716167224,0.7209997633282097,A,1138.0188000039198,Incorrect,sub_006_day_22_data.csv,0,283,,Dual-Task at home,3.0,2.0,small,big,False,Value,left,left,1427.965699986089,Correct,1.0,0.9823321554770318,
6,22,172,B,45.10496877084152,32.41962095091352,2.255248438542076,0.5092462150577782,A,689.9674999876879,Incorrect,sub_006_day_22_data.csv,0,283,,Dual-Task at home,3.0,6.0,big,small,False,Value,right,right,736.3986999844201,Correct,1.0,0.9823321554770318,
6,22,173,B,52.7858457561436,22.154603646580213,2.63929228780718,0.3480037002964502,B,835.3428000118583,Correct,sub_006_day_22_data.csv,1,283,,Dual-Task at home,8.0,5.0,small,big,False,Size,right,right,1138.6960999807343,Correct,1.0,0.9823321554770318,
6,22,174,B,48.31209701042112,21.977579011420204,2.415604850521056,0.3452230038298347,B,1731.9176999735646,Correct,sub_006_day_22_data.csv,1,283,,Dual-Task at home,2.0,8.0,big,small,False,Size,left,left,2806.194400007371,Correct,1.0,0.9823321554770318,
6,22,175,B,64.89824943479103,37.31595983206859,3.244912471739551,0.5861577263503925,B,852.8172000078484,Correct,sub_006_day_22_data.csv,1,283,,Dual-Task at home,8.0,7.0,small,big,False,Size,right,right,2767.455200024415,Correct,1.0,0.9823321554770318,
6,22,176,A,34.62318050065231,56.86304707906402,1.7311590250326157,0.8932026548215903,A,3191.5273999911733,Correct,sub_006_day_22_data.csv,1,283,,Dual-Task at home,6.0,7.0,big,small,False,Size,left,left,448.2981000328437,Correct,1.0,0.9823321554770318,
6,22,177,A,34.26142938134511,65.36421858853443,1.7130714690672555,1.026738744626886,A,1052.5001999922097,Correct,sub_006_day_22_data.csv,1,283,,Dual-Task at home,7.0,3.0,small,big,False,Value,left,left,1867.6474999519996,Correct,1.0,0.9823321554770318,
6,22,178,A,14.948841952291506,32.780413483957304,0.7474420976145753,0.5149135309141802,A,861.8055999977514,Correct,sub_006_day_22_data.csv,1,283,,Dual-Task at home,7.0,8.0,big,small,False,Value,right,right,3053.838199994061,Correct,1.0,0.9823321554770318,
6,22,179,B,76.59438424961962,48.83841909208331,3.829719212480981,0.7671520931631421,B,716.1375000141561,Correct,sub_006_day_22_data.csv,1,283,,Dual-Task at home,2.0,3.0,big,small,False,Value,right,right,1420.946599973831,Correct,1.0,0.9823321554770318,
6,22,180,B,53.681446596747925,34.377696289186005,2.684072329837396,0.5400035905472393,B,813.2006000378169,Correct,sub_006_day_22_data.csv,1,283,,Dual-Task at home,7.0,8.0,big,small,False,Size,left,left,2099.072100012563,Correct,1.0,0.9823321554770318,
6,22,181,A,40.36323770568507,69.58332846529221,2.0181618852842536,1.0930123675944377,A,1427.181200007908,Correct,sub_006_day_22_data.csv,1,283,,Dual-Task at home,2.0,3.0,small,big,True,Value,right,right,299.59149996284395,Correct,1.0,0.9823321554770318,
6,22,182,A,27.244725722457336,57.09292682781932,1.362236286122867,0.8968135974710838,A,713.173599971924,Correct,sub_006_day_22_data.csv,1,283,,Dual-Task at home,8.0,6.0,small,big,False,Value,left,left,446.4707000297494,Correct,1.0,0.9823321554770318,
6,22,183,B,48.36531618391639,36.53718140520889,2.4182658091958196,0.5739247034274093,B,1476.574900036212,Correct,sub_006_day_22_data.csv,1,283,,Dual-Task at home,2.0,3.0,big,small,False,Size,left,left,1355.344699986745,Correct,1.0,0.9823321554770318,
6,22,184,A,27.954843855379657,60.4331612177135,1.3977421927689826,0.9492818765738816,A,1909.6506999921985,Correct,sub_006_day_22_data.csv,1,283,,Dual-Task at home,7.0,4.0,small,big,False,Size,right,right,2485.3626000112854,Correct,1.0,0.9823321554770318,
6,22,185,B,73.95578738622187,49.386151450866905,3.6977893693110935,0.7757558529355818,B,1803.0522000044584,Correct,sub_006_day_22_data.csv,1,283,,Dual-Task at home,7.0,2.0,small,big,False,Value,left,left,2231.471100007184,Correct,1.0,0.9823321554770318,
6,22,186,B,43.86435048717887,31.02206790377727,2.193217524358943,0.4872935031283519,B,1499.29400003748,Correct,sub_006_day_22_data.csv,1,283,,Dual-Task at home,6.0,7.0,big,small,False,Size,left,left,1241.4303999976255,Correct,1.0,0.9823321554770318,
6,22,187,A,42.698421974419176,51.04725401773757,2.134921098720959,0.8018483910402819,A,2191.0983999841847,Correct,sub_006_day_22_data.csv,1,283,,Dual-Task at home,5.0,8.0,small,big,True,Value,right,right,2064.407799975015,Correct,1.0,0.9823321554770318,
6,22,188,B,85.2643349813248,65.29490049514963,4.26321674906624,1.0256498985621931,A,3393.210000009276,Incorrect,sub_006_day_22_data.csv,0,283,,Dual-Task at home,7.0,4.0,big,small,True,Value,left,left,519.1004000371322,Correct,1.0,0.9823321554770318,
6,22,189,B,45.783238846027274,33.33576074896597,2.2891619423013636,0.5236369053538923,B,937.4834999907762,Correct,sub_006_day_22_data.csv,1,283,,Dual-Task at home,5.0,8.0,big,small,False,Size,left,left,1311.4821999915875,Correct,1.0,0.9823321554770318,
6,22,190,B,81.82410724879986,66.20742841709794,4.091205362439993,1.039983853641135,B,910.400299995672,Correct,sub_006_day_22_data.csv,1,283,,Dual-Task at home,8.0,3.0,small,big,False,Value,left,left,425.3568000276573,Correct,1.0,0.9823321554770318,
6,22,191,B,35.52461277573624,11.888287532596046,1.776230638786812,0.1867407838808343,B,1962.6594000146724,Correct,sub_006_day_22_data.csv,1,283,,Dual-Task at home,4.0,6.0,big,small,False,Value,right,right,603.9951000129804,Correct,1.0,0.9823321554770318,
6,22,192,B,84.90044822264213,59.490733106740954,4.245022411132107,0.9344782504240424,B,804.5810000039637,Correct,sub_006_day_22_data.csv,1,283,,Dual-Task at home,6.0,2.0,small,big,False,Value,left,left,556.6337000345811,Correct,1.0,0.9823321554770318,
6,22,193,B,43.10279424964091,25.94278058229247,2.1551397124820455,0.4075082444551098,B,1877.49129999429,Correct,sub_006_day_22_data.csv,1,283,,Dual-Task at home,7.0,2.0,big,small,True,Value,left,left,549.0549999522045,Correct,1.0,0.9823321554770318,
6,22,194,B,70.99267261494126,57.58692048781517,3.549633630747063,0.9045732317368984,A,945.4564999905416,Incorrect,sub_006_day_22_data.csv,0,283,,Dual-Task at home,2.0,5.0,big,small,False,Value,right,right,761.5441999514587,Correct,1.0,0.9823321554770318,
6,22,195,B,64.59995074550457,40.44514799296123,3.2299975372752283,0.6353108990401949,B,1582.280099974014,Correct,sub_006_day_22_data.csv,1,283,,Dual-Task at home,4.0,5.0,big,small,False,Value,right,right,2197.9816000093706,Correct,1.0,0.9823321554770318,
6,22,196,B,38.60470890587778,11.636702419111373,1.9302354452938888,0.1827888941594543,B,1108.4504000027664,Correct,sub_006_day_22_data.csv,1,283,,Dual-Task at home,3.0,2.0,small,big,False,Size,right,right,1643.183099979069,Correct,1.0,0.9823321554770318,
6,22,197,A,36.06363771252225,68.45207459793839,1.8031818856261128,1.0752426733993186,A,1133.9315000222996,Correct,sub_006_day_22_data.csv,1,283,,Dual-Task at home,7.0,2.0,small,big,False,Value,left,left,1850.8226000121797,Correct,1.0,0.9823321554770318,
6,22,198,B,40.993241764202935,23.87564761130792,2.049662088210147,0.3750377956769182,B,1321.068799996283,Correct,sub_006_day_22_data.csv,1,283,,Dual-Task at home,7.0,6.0,small,big,False,Value,left,left,1376.8303000251765,Correct,1.0,0.9823321554770318,
6,22,199,A,40.08151395419197,55.00804896564484,2.0040756977095984,0.8640644125938871,A,2259.2374999658205,Correct,sub_006_day_22_data.csv,1,283,,Dual-Task at home,2.0,7.0,big,small,False,Value,right,left,2438.4272000170313,Incorrect,0.0,0.9823321554770318,
6,22,200,A,33.76713799107194,48.16260972669268,1.688356899553597,0.7565365044754502,A,2847.7204000228085,Correct,sub_006_day_22_data.csv,1,283,,Dual-Task at home,7.0,2.0,small,big,False,Value,left,left,652.766699960921,Correct,1.0,0.9823321554770318,
6,22,201,A,60.99809704109544,85.3330047058959,3.049904852054772,1.340407703463929,A,803.9660999784246,Correct,sub_006_day_22_data.csv,1,283,,Dual-Task at home,7.0,2.0,small,big,False,Value,left,left,1619.0330000245012,Correct,1.0,0.9823321554770318,
6,22,202,B,51.02272008537684,23.32370662721366,2.5511360042688422,0.3663679269726901,B,4299.099600000773,Correct,sub_006_day_22_data.csv,1,283,,Dual-Task at home,4.0,5.0,small,big,True,Value,right,right,791.0098999855109,Correct,1.0,0.9823321554770318,
6,22,203,A,24.58712306184757,56.596301944986635,1.2293561530923784,0.8890126320535986,A,793.0458999471739,Correct,sub_006_day_22_data.csv,1,283,,Dual-Task at home,4.0,8.0,big,small,False,Size,left,right,1858.903200016357,Incorrect,0.0,0.9823321554770318,
6,22,204,B,77.16314348064151,48.113484761058245,3.8581571740320753,0.7557648513197252,B,3006.696299999021,Correct,sub_006_day_22_data.csv,1,283,,Dual-Task at home,3.0,8.0,small,big,True,Value,right,right,498.2956000021659,Correct,1.0,0.9823321554770318,
6,22,205,B,59.3795085597001,32.093858743527264,2.9689754279850047,0.504129154270069,B,1268.7555000302382,Correct,sub_006_day_22_data.csv,1,283,,Dual-Task at home,2.0,7.0,big,small,False,Value,right,right,4535.405099974014,Correct,1.0,0.9823321554770318,
6,22,206,B,40.41463142106174,16.744543327631423,2.020731571053087,0.2630226715290143,B,2601.4833000372164,Correct,sub_006_day_22_data.csv,1,283,,Dual-Task at home,8.0,5.0,small,big,False,Value,left,left,2175.247400009539,Correct,1.0,0.9823321554770318,
6,22,207,A,47.61176909459488,77.33753460311777,2.380588454729744,1.214815152779506,A,885.7126999646425,Correct,sub_006_day_22_data.csv,1,283,,Dual-Task at home,3.0,5.0,big,small,False,Value,right,right,1483.7114000110887,Correct,1.0,0.9823321554770318,
6,22,208,B,32.54860436961019,20.12431843138869,1.6274302184805094,0.3161120547127619,B,907.9202999710104,Correct,sub_006_day_22_data.csv,1,283,,Dual-Task at home,5.0,7.0,big,small,False,Size,left,left,3486.631000007037,Correct,1.0,0.9823321554770318,
6,22,209,A,32.38330030628999,47.38849330390955,1.6191650153144994,0.7443767121412568,A,620.532299974002,Correct,sub_006_day_22_data.csv,1,283,,Dual-Task at home,3.0,7.0,big,small,False,Value,right,right,646.5989999705926,Correct,1.0,0.9823321554770318,
6,22,210,A,59.43884892726235,86.49386371625137,2.971942446363118,1.3586424341578602,A,698.4587999759242,Correct,sub_006_day_22_data.csv,1,283,,Dual-Task at home,6.0,3.0,small,big,False,Size,right,right,1225.3588000312448,Correct,1.0,0.9823321554770318,
6,22,211,B,48.82058411602912,34.260269564168816,2.441029205801456,0.5381590558639937,B,1672.0828000106849,Correct,sub_006_day_22_data.csv,1,283,,Dual-Task at home,7.0,2.0,small,big,False,Value,left,left,2408.4087999654,Correct,1.0,0.9823321554770318,
6,22,212,A,14.130772493307898,40.724450176428576,0.706538624665395,0.6396981674787579,A,1269.7029000264592,Correct,sub_006_day_22_data.csv,1,283,,Dual-Task at home,3.0,7.0,big,small,False,Size,left,left,819.821699988097,Correct,1.0,0.9823321554770318,
6,22,213,A,23.494854375500104,43.617301678499295,1.174742718775005,0.6851389726129158,A,717.9976999759674,Correct,sub_006_day_22_data.csv,1,283,,Dual-Task at home,3.0,4.0,big,small,False,Value,right,right,1119.070400018245,Correct,1.0,0.9823321554770318,
6,22,214,B,40.7589184390678,12.817729014772029,2.0379459219533897,0.2013404165425626,B,915.846599964425,Correct,sub_006_day_22_data.csv,1,283,,Dual-Task at home,8.0,3.0,small,big,False,Size,right,right,1391.2055999971926,Correct,1.0,0.9823321554770318,
6,22,215,A,45.84136872279848,73.50860425298053,2.2920684361399237,1.1546704554840153,A,1722.771799948532,Correct,sub_006_day_22_data.csv,1,283,,Dual-Task at home,2.0,4.0,big,small,False,Size,left,left,3150.3046000143513,Correct,1.0,0.9823321554770318,
6,22,216,B,81.4099697475497,63.38648707832984,4.070498487377485,0.9956726107107268,B,953.3277999726124,Correct,sub_006_day_22_data.csv,1,283,,Dual-Task at home,4.0,8.0,small,big,True,Size,right,right,2964.605099987238,Correct,1.0,0.9823321554770318,
6,22,217,A,23.48098503661549,36.07140046815273,1.1740492518307744,0.5666082335772202,B,700.511499948334,Incorrect,sub_006_day_22_data.csv,0,283,,Dual-Task at home,7.0,6.0,small,big,False,Value,left,left,1717.445999966003,Correct,1.0,0.9823321554770318,
6,22,218,A,59.205457871488306,77.14637737747357,2.960272893574415,1.2118124621006838,A,1089.276899991091,Correct,sub_006_day_22_data.csv,1,283,,Dual-Task at home,8.0,5.0,small,big,False,Value,left,left,1663.9829000341706,Correct,1.0,0.9823321554770318,
6,22,219,A,64.2921309898127,74.22360631795968,3.214606549490635,1.1659016816572154,A,3242.603600025177,Correct,sub_006_day_22_data.csv,1,283,,Dual-Task at home,5.0,2.0,small,big,False,Value,left,left,449.843599984888,Correct,1.0,0.9823321554770318,
6,22,220,B,43.498362643079936,23.530538490374777,2.1749181321539965,0.3696168342818663,B,979.543499997817,Correct,sub_006_day_22_data.csv,1,283,,Dual-Task at home,5.0,7.0,big,small,False,Size,left,left,3416.6932000080124,Correct,1.0,0.9823321554770318,
6,22,221,A,39.71216404840047,70.39525705246197,1.9856082024200232,1.105766112017898,A,1448.8824000000022,Correct,sub_006_day_22_data.csv,1,283,,Dual-Task at home,2.0,5.0,big,small,False,Size,left,left,763.7083999579772,Correct,1.0,0.9823321554770318,
6,22,222,A,19.56258521817154,47.741258775113415,0.978129260908577,0.7499179392051278,A,1367.167000018526,Correct,sub_006_day_22_data.csv,1,283,,Dual-Task at home,5.0,4.0,small,big,False,Value,left,left,2205.3007000358775,Correct,1.0,0.9823321554770318,
6,22,223,B,61.88553842797262,29.151617106923844,3.094276921398631,0.4579125307168724,B,1084.372200013604,Correct,sub_006_day_22_data.csv,1,283,,Dual-Task at home,2.0,4.0,big,small,False,Value,right,right,1540.1309999870136,Correct,1.0,0.9823321554770318,
6,22,224,B,57.47766247640597,30.93712856076538,2.873883123820298,0.4859592790483174,B,875.7593999616802,Correct,sub_006_day_22_data.csv,1,283,,Dual-Task at home,6.0,7.0,big,small,False,Value,right,right,1014.43979999749,Correct,1.0,0.9823321554770318,
6,22,225,A,45.04259729871696,77.24687978877,2.252129864935847,1.213391150285669,A,825.4363000160083,Correct,sub_006_day_22_data.csv,1,283,,Dual-Task at home,3.0,8.0,big,small,False,Size,left,left,2306.212500028778,Correct,1.0,0.9823321554770318,
6,22,226,B,51.90149927769877,37.263792940766855,2.5950749638849384,0.5853382907380217,A,3627.75819998933,Incorrect,sub_006_day_22_data.csv,0,283,,Dual-Task at home,4.0,3.0,small,big,False,Size,right,right,685.2861000224948,Correct,1.0,0.9823321554770318,
6,22,227,A,27.66161685514163,50.37800635212115,1.3830808427570815,0.7913358732916186,A,950.1892999978736,Correct,sub_006_day_22_data.csv,1,283,,Dual-Task at home,5.0,2.0,small,big,False,Value,left,left,585.0769000244327,Correct,1.0,0.9823321554770318,
6,22,228,A,41.052791562134686,73.09603593688196,2.0526395781067346,1.1481898475292194,A,1019.418100011535,Correct,sub_006_day_22_data.csv,1,283,,Dual-Task at home,7.0,2.0,small,big,False,Size,right,right,1389.2924999818206,Correct,1.0,0.9823321554770318,
6,22,229,A,25.106898770075905,52.18009556815367,1.2553449385037951,0.8196430245026245,A,975.5154000013137,Correct,sub_006_day_22_data.csv,1,283,,Dual-Task at home,7.0,4.0,small,big,False,Value,left,left,871.1130000301637,Correct,1.0,0.9823321554770318,
6,22,230,A,41.41670415553881,50.45812392305924,2.0708352077769403,0.7925943571530314,A,927.3531999788248,Correct,sub_006_day_22_data.csv,1,283,,Dual-Task at home,5.0,3.0,small,big,False,Value,left,left,1114.1482000239191,Correct,1.0,0.9823321554770318,
6,22,231,A,19.921054796939675,40.210042490784815,0.9960527398469836,0.6316178704479151,A,784.9621999775991,Correct,sub_006_day_22_data.csv,1,283,,Dual-Task at home,6.0,5.0,small,big,False,Value,left,left,1287.1763000148349,Correct,1.0,0.9823321554770318,
6,22,232,A,15.92125191066961,33.03448748804987,0.7960625955334806,0.5189045160378071,A,786.150700005237,Correct,sub_006_day_22_data.csv,1,283,,Dual-Task at home,8.0,6.0,small,big,False,Value,left,left,886.4780999720097,Correct,1.0,0.9823321554770318,
6,22,233,B,36.91663285198186,25.248322093838222,1.845831642599093,0.3965997160273551,B,1478.5065000178292,Correct,sub_006_day_22_data.csv,1,283,,Dual-Task at home,8.0,4.0,small,big,False,Size,right,right,1439.8147000465542,Correct,1.0,0.9823321554770318,
6,22,234,A,28.989508885746133,61.18803101225609,1.4494754442873068,0.9611393435786408,A,959.068300027866,Correct,sub_006_day_22_data.csv,1,283,,Dual-Task at home,8.0,2.0,small,big,False,Size,right,right,2233.3037999924272,Correct,1.0,0.9823321554770318,
6,22,235,A,46.74589679900405,61.95137559369719,2.3372948399502023,0.9731299322247056,A,1958.0664000241088,Correct,sub_006_day_22_data.csv,1,283,,Dual-Task at home,4.0,6.0,big,small,False,Size,left,left,506.30289997207,Correct,1.0,0.9823321554770318,
6,22,236,A,45.16124304419607,59.26428272006438,2.258062152209803,0.930921176068114,B,1047.545599984005,Incorrect,sub_006_day_22_data.csv,0,283,,Dual-Task at home,2.0,5.0,big,small,False,Size,left,left,1616.6386000113562,Correct,1.0,0.9823321554770318,
6,22,237,A,35.33649829084025,65.67364464868444,1.7668249145420123,1.0315991978138683,A,1447.1040000207722,Correct,sub_006_day_22_data.csv,1,283,,Dual-Task at home,5.0,3.0,big,small,True,Size,left,left,622.3300999845378,Correct,1.0,0.9823321554770318,
6,22,238,A,41.564789043992825,58.04143671632576,2.0782394521996412,0.9117127559590296,A,972.0073999487796,Correct,sub_006_day_22_data.csv,1,283,,Dual-Task at home,5.0,8.0,small,big,True,Value,right,right,875.8353999583051,Correct,1.0,0.9823321554770318,
6,22,239,B,37.23741910885784,21.768741245248577,1.861870955442892,0.3419425878698502,B,1445.157099980861,Correct,sub_006_day_22_data.csv,1,283,,Dual-Task at home,7.0,4.0,small,big,False,Value,left,left,2003.4224999835717,Correct,1.0,0.9823321554770318,
6,22,240,B,42.83074420381085,21.718163322865184,2.1415372101905428,0.3411481117228828,B,664.2775000073016,Correct,sub_006_day_22_data.csv,1,283,,Dual-Task at home,6.0,2.0,small,big,False,Size,right,right,3743.342000001576,Correct,1.0,0.9823321554770318,
6,22,241,A,50.3822078710683,80.27522951486462,2.519110393553415,1.2609603565456662,A,776.6918999841437,Correct,sub_006_day_22_data.csv,1,283,,Dual-Task at home,4.0,3.0,small,big,False,Value,left,left,3127.5034999707714,Correct,1.0,0.9823321554770318,
6,22,242,B,78.15982820351743,65.65590348545399,3.907991410175872,1.0313205202735136,A,1014.03299998492,Incorrect,sub_006_day_22_data.csv,0,283,,Dual-Task at home,2.0,7.0,small,big,True,Value,right,right,3173.0684000067413,Correct,1.0,0.9823321554770318,
6,22,243,A,29.309602690763963,60.79979697419744,1.465480134538198,0.955040977569448,A,876.4708999660797,Correct,sub_006_day_22_data.csv,1,283,,Dual-Task at home,8.0,5.0,small,big,False,Size,right,right,804.5509999501519,Correct,1.0,0.9823321554770318,
6,22,244,A,51.36190343541013,59.660041173445606,2.5680951717705063,0.9371377353168066,A,1302.6783000095747,Correct,sub_006_day_22_data.csv,1,283,,Dual-Task at home,5.0,2.0,small,big,False,Value,left,left,588.7029000441544,Correct,1.0,0.9823321554770318,
6,22,245,A,37.01899230904711,47.37008684831898,1.8509496154523557,0.7440875842129469,A,913.62130001653,Correct,sub_006_day_22_data.csv,1,283,,Dual-Task at home,4.0,7.0,big,small,False,Size,left,left,1531.6689999890514,Correct,1.0,0.9823321554770318,
6,22,246,B,47.67456266581958,28.57484524699141,2.3837281332909788,0.4488526195270672,B,830.6576000177301,Correct,sub_006_day_22_data.csv,1,283,,Dual-Task at home,6.0,8.0,big,small,False,Value,right,right,1711.5144000272269,Correct,1.0,0.9823321554770318,
6,22,247,A,43.87417990403517,54.02651010787244,2.1937089952017583,0.8486464362699337,A,866.462700010743,Correct,sub_006_day_22_data.csv,1,283,,Dual-Task at home,2.0,8.0,big,small,False,Value,right,right,1322.990500018932,Correct,1.0,0.9823321554770318,
6,22,248,B,54.14551899816976,32.57048471546223,2.7072759499084884,0.511615977529774,B,797.4769999855198,Correct,sub_006_day_22_data.csv,1,283,,Dual-Task at home,4.0,2.0,small,big,False,Value,left,left,1338.320700044278,Correct,1.0,0.9823321554770318,
6,22,249,B,31.189569691935084,14.134414482946688,1.5594784845967542,0.2220228635120925,A,2360.372500028461,Incorrect,sub_006_day_22_data.csv,0,283,,Dual-Task at home,3.0,4.0,big,small,False,Size,left,left,1403.1477000098675,Correct,1.0,0.9823321554770318,
6,22,250,B,74.47077824943553,58.62968763368433,3.723538912471776,0.920952979761235,A,1374.8031000141054,Incorrect,sub_006_day_22_data.csv,0,283,,Dual-Task at home,5.0,3.0,small,big,False,Value,left,left,1184.8643000121228,Correct,1.0,0.9823321554770318,
6,22,251,A,35.37432206214724,47.717537227844865,1.7687161031073624,0.7495453220119745,A,774.7418999788351,Correct,sub_006_day_22_data.csv,1,283,,Dual-Task at home,7.0,8.0,big,small,False,Value,right,right,777.1955999778584,Correct,1.0,0.9823321554770318,
6,22,252,A,60.39073884332909,68.82064998283182,3.019536942166454,1.081032242006695,A,1472.4209999549205,Correct,sub_006_day_22_data.csv,1,283,,Dual-Task at home,4.0,8.0,small,big,True,Value,right,right,591.4341999450698,Correct,1.0,0.9823321554770318,
6,22,253,B,68.67683514474928,47.05280922199324,3.4338417572374635,0.7391037989128802,B,721.6987999854609,Correct,sub_006_day_22_data.csv,1,283,,Dual-Task at home,7.0,3.0,small,big,False,Value,left,left,737.6749000395648,Correct,1.0,0.9823321554770318,
6,22,254,A,28.664916709772942,57.02426976654164,1.4332458354886473,0.8957351348744488,A,638.8998999609612,Correct,sub_006_day_22_data.csv,1,283,,Dual-Task at home,2.0,5.0,big,small,False,Value,right,right,762.1042000246234,Correct,1.0,0.9823321554770318,
6,22,255,B,52.26470132720597,33.30018749608782,2.613235066360298,0.523078122004361,B,1243.9130999846384,Correct,sub_006_day_22_data.csv,1,283,,Dual-Task at home,3.0,6.0,big,small,False,Size,left,left,816.2989999982528,Correct,1.0,0.9823321554770318,
6,22,256,B,45.72291798782121,26.5180871133239,2.2861458993910606,0.4165451383123627,B,1396.6039000079036,Correct,sub_006_day_22_data.csv,1,283,,Dual-Task at home,8.0,6.0,small,big,False,Size,right,right,989.4837000174448,Correct,1.0,0.9823321554770318,
6,22,257,B,45.564127327497,30.173859226899243,2.27820636637485,0.4739698723883962,B,2306.714500009548,Correct,sub_006_day_22_data.csv,1,283,,Dual-Task at home,3.0,4.0,big,small,False,Value,right,right,1068.11779999407,Correct,1.0,0.9823321554770318,
6,22,258,A,39.39071822397658,50.85222180494505,1.969535911198829,0.7987848322056703,A,1710.243800014723,Correct,sub_006_day_22_data.csv,1,283,,Dual-Task at home,2.0,6.0,big,small,False,Value,right,right,828.3555000089109,Correct,1.0,0.9823321554770318,
6,22,259,A,45.93956379157972,72.8409149950892,2.296978189578986,1.144182417146654,A,681.0325000551529,Correct,sub_006_day_22_data.csv,1,283,,Dual-Task at home,2.0,6.0,big,small,False,Value,right,right,2499.8433999717236,Correct,1.0,0.9823321554770318,
6,22,260,A,56.36796254964565,69.40244842021339,2.8183981274822822,1.0901711104904346,A,916.0785999847576,Correct,sub_006_day_22_data.csv,1,283,,Dual-Task at home,4.0,6.0,big,small,False,Value,right,right,1031.8400000105612,Correct,1.0,0.9823321554770318,
6,22,261,B,72.29677777618083,59.32257869624145,3.6148388888090417,0.9318368871205726,A,1954.250400012825,Incorrect,sub_006_day_22_data.csv,0,283,,Dual-Task at home,6.0,3.0,small,big,False,Size,right,left,2254.9679999938235,Incorrect,0.0,0.9823321554770318,
6,22,262,A,17.23753373949775,35.45639980589844,0.8618766869748875,0.5569478257647655,A,927.6609999942592,Correct,sub_006_day_22_data.csv,1,283,,Dual-Task at home,2.0,7.0,small,big,True,Size,right,right,851.9901999970898,Correct,1.0,0.9823321554770318,
6,22,263,A,58.91509428933246,76.78232781150133,2.9457547144666227,1.206093984890679,A,1302.924500021618,Correct,sub_006_day_22_data.csv,1,283,,Dual-Task at home,2.0,5.0,big,small,False,Value,right,right,897.9330000001937,Correct,1.0,0.9823321554770318,
6,22,264,A,25.256140253874932,53.24680976140248,1.2628070126937463,0.8363989318675766,A,2525.51249996759,Correct,sub_006_day_22_data.csv,1,283,,Dual-Task at home,7.0,3.0,small,big,False,Size,right,right,1823.7699000164864,Correct,1.0,0.9823321554770318,
6,22,265,B,82.84626600258221,54.29997025763724,4.142313300129111,0.8529419382576872,A,1630.1422000396997,Incorrect,sub_006_day_22_data.csv,0,283,,Dual-Task at home,7.0,3.0,big,small,True,Value,left,left,330.52109996788204,Correct,1.0,0.9823321554770318,
6,22,266,A,50.208584413003805,73.13848549410733,2.51042922065019,1.1488566436148562,A,1441.8153999722565,Correct,sub_006_day_22_data.csv,1,283,,Dual-Task at home,7.0,2.0,small,big,False,Size,right,right,936.4341999753378,Correct,1.0,0.9823321554770318,
6,22,267,B,71.35047368720126,48.630283445587565,3.567523684360063,0.7638827060732359,A,792.677600053139,Incorrect,sub_006_day_22_data.csv,0,283,,Dual-Task at home,7.0,6.0,small,big,False,Size,right,right,599.9541999772191,Correct,1.0,0.9823321554770318,
6,22,268,A,61.09689393547768,71.54134081903737,3.054844696773884,1.123768753725257,A,700.183900014963,Correct,sub_006_day_22_data.csv,1,283,,Dual-Task at home,3.0,2.0,small,big,False,Size,right,right,1804.8852999927476,Correct,1.0,0.9823321554770318,
6,22,269,A,43.28040721449664,71.73729761138293,2.164020360724832,1.1268468358215262,A,699.3711999966763,Correct,sub_006_day_22_data.csv,1,283,,Dual-Task at home,8.0,6.0,small,big,False,Value,left,left,1675.23400002392,Correct,1.0,0.9823321554770318,
6,22,270,B,57.279410956733656,39.72360756681648,2.863970547836683,0.6239769685299728,A,1520.8144999924116,Incorrect,sub_006_day_22_data.csv,0,283,,Dual-Task at home,8.0,2.0,small,big,False,Value,left,left,1079.9890999915078,Correct,1.0,0.9823321554770318,
6,22,271,B,34.44439178770279,16.915919632856763,1.7222195893851395,0.2657146442364907,B,1743.2403999846429,Correct,sub_006_day_22_data.csv,1,283,,Dual-Task at home,4.0,7.0,big,small,False,Value,right,right,3506.315100006759,Correct,1.0,0.9823321554770318,
6,22,272,A,51.68172437290041,63.99824523200069,2.5840862186450204,1.0052820853174569,A,1018.996300001163,Correct,sub_006_day_22_data.csv,1,283,,Dual-Task at home,8.0,5.0,small,big,False,Value,left,left,658.6933000362478,Correct,1.0,0.9823321554770318,
6,22,273,A,16.73734377787332,43.64837092224923,0.8368671888936661,0.6856270071525027,A,1402.362999971956,Correct,sub_006_day_22_data.csv,1,283,,Dual-Task at home,5.0,8.0,big,small,False,Size,left,left,1698.408299998846,Correct,1.0,0.9823321554770318,
6,22,274,B,39.57740419911059,15.89126721180006,1.9788702099555295,0.2496194416441171,B,1003.0279000056908,Correct,sub_006_day_22_data.csv,1,283,,Dual-Task at home,3.0,5.0,big,small,False,Size,left,left,1190.5477999825962,Correct,1.0,0.9823321554770318,
6,22,275,A,28.32288071964645,49.08188912290987,1.4161440359823223,0.7709765114642121,A,163.91120001208037,Correct,sub_006_day_22_data.csv,1,283,,Dual-Task at home,5.0,4.0,big,small,True,Value,left,left,503.3166999928653,Correct,1.0,0.9823321554770318,
6,22,276,B,66.84238843762145,52.60803544352915,3.342119421881073,0.826365088345913,A,1128.7013000110164,Incorrect,sub_006_day_22_data.csv,0,283,,Dual-Task at home,8.0,4.0,small,big,False,Value,left,left,511.3102999748662,Correct,1.0,0.9823321554770318,
6,22,277,A,22.830570655042845,41.50579475798688,1.1415285327521425,0.6519714994654866,A,636.362100020051,Correct,sub_006_day_22_data.csv,1,283,,Dual-Task at home,5.0,3.0,small,big,False,Value,left,left,2439.7415000130422,Correct,1.0,0.9823321554770318,
6,22,278,A,30.842354161926316,64.07945784676222,1.542117708096316,1.0065577700870252,A,1500.760800030548,Correct,sub_006_day_22_data.csv,1,283,,Dual-Task at home,5.0,4.0,small,big,False,Value,left,left,581.8174000014551,Correct,1.0,0.9823321554770318,
6,22,279,B,78.07552643354418,54.66640424608977,3.903776321677209,0.8586978698884274,A,1455.9453999972902,Incorrect,sub_006_day_22_data.csv,0,283,,Dual-Task at home,6.0,4.0,small,big,False,Size,right,right,2166.726799972821,Correct,1.0,0.9823321554770318,
6,22,280,A,28.179622655188048,53.61108387918356,1.4089811327594024,0.8421209363291463,A,803.0569999828003,Correct,sub_006_day_22_data.csv,1,283,,Dual-Task at home,8.0,7.0,small,big,False,Value,left,left,3161.858099978417,Correct,1.0,0.9823321554770318,
6,22,281,A,54.966073800420205,67.36023652679116,2.74830369002101,1.0580921210831895,A,873.2207999564707,Correct,sub_006_day_22_data.csv,1,283,,Dual-Task at home,4.0,2.0,small,big,False,Value,left,left,804.2661999934353,Correct,1.0,0.9823321554770318,
6,22,282,A,19.11724002403888,43.22939459158037,0.955862001201944,0.6790457423402162,A,1707.8366999630816,Correct,sub_006_day_22_data.csv,1,283,,Dual-Task at home,5.0,4.0,small,big,False,Size,right,right,990.205500042066,Correct,1.0,0.9823321554770318,
