subject,day,trial,cat,x,y,xt,yt,resp,rt,fb,f_name,acc,n_trials,block,session_type,ns_left_digit,ns_right_digit,ns_left_size,ns_right_size,ns_congruent,ns_cue,ns_correct_side,ns_resp,ns_rt,ns_fb,acc_stroop,acc_stroop_mean,resp_key
6,7,1200,B,35.720804672170715,21.59345381641507,1.7860402336085357,0.3391891793764004,B,2228.0754999956116,Correct,sub_006_day_07_data.csv,1,300,48.0,Training at home,,,,,,,,,,,,,
6,7,1201,A,59.033116613064216,71.36768263669138,2.951655830653211,1.1210409373757877,A,1118.461200007005,Correct,sub_006_day_07_data.csv,1,300,48.0,Training at home,,,,,,,,,,,,,
6,7,1202,B,57.96238627781447,37.68945557345087,2.8981193138907235,0.5920245837367608,B,907.9453000158536,Correct,sub_006_day_07_data.csv,1,300,48.0,Training at home,,,,,,,,,,,,,
6,7,1203,A,18.34500286054803,48.31344583387733,0.9172501430274014,0.7589058325065869,A,535.2950000087731,Correct,sub_006_day_07_data.csv,1,300,48.0,Training at home,,,,,,,,,,,,,
6,7,1204,B,61.873194750423586,42.01252147820361,3.0936597375211794,0.6599311441735393,B,424.229700001888,Correct,sub_006_day_07_data.csv,1,300,48.0,Training at home,,,,,,,,,,,,,
6,7,1205,A,61.2744553100712,71.3977289530909,3.06372276550356,1.1215129038101284,B,626.8199000041932,Incorrect,sub_006_day_07_data.csv,0,300,48.0,Training at home,,,,,,,,,,,,,
6,7,1206,A,63.58935031423306,84.50019467560149,3.1794675157116528,1.327325954098885,A,603.2066000043415,Correct,sub_006_day_07_data.csv,1,300,48.0,Training at home,,,,,,,,,,,,,
6,7,1207,A,15.353420028468086,34.315566574146715,0.7676710014234044,0.5390276592655538,A,563.994800002547,Correct,sub_006_day_07_data.csv,1,300,48.0,Training at home,,,,,,,,,,,,,
6,7,1208,A,44.0120054024535,60.82772322627734,2.200600270122675,0.9554796421113306,B,1169.8087999830022,Incorrect,sub_006_day_07_data.csv,0,300,48.0,Training at home,,,,,,,,,,,,,
6,7,1209,A,61.6507775401928,72.37801978243522,3.08253887700964,1.1369112761493758,B,581.5983999927994,Incorrect,sub_006_day_07_data.csv,0,300,48.0,Training at home,,,,,,,,,,,,,
6,7,1210,A,45.72661015743304,57.85156138264846,2.286330507871652,0.908730201192137,B,922.9544999834616,Incorrect,sub_006_day_07_data.csv,0,300,48.0,Training at home,,,,,,,,,,,,,
6,7,1211,B,59.61552773742577,39.17847669009826,2.9807763868712884,0.6154140727422581,B,721.9619000097737,Correct,sub_006_day_07_data.csv,1,300,48.0,Training at home,,,,,,,,,,,,,
6,7,1212,A,28.748817164000588,50.76014036339318,1.437440858200029,0.7973384203041135,A,954.321199998958,Correct,sub_006_day_07_data.csv,1,300,48.0,Training at home,,,,,,,,,,,,,
6,7,1213,A,33.80335865401027,61.183562585387456,1.6901679327005132,0.9610691536935227,A,1292.0321999990847,Correct,sub_006_day_07_data.csv,1,300,48.0,Training at home,,,,,,,,,,,,,
6,7,1214,A,46.50296143188253,67.683247786377,2.3251480715941266,1.063165970083898,A,771.9356000015978,Correct,sub_006_day_07_data.csv,1,300,48.0,Training at home,,,,,,,,,,,,,
6,7,1215,A,38.064350586805794,60.660528988612285,1.9032175293402895,0.9528533611674752,A,590.4635999759194,Correct,sub_006_day_07_data.csv,1,300,48.0,Training at home,,,,,,,,,,,,,
6,7,1216,B,38.910450699225166,28.267152839245696,1.9455225349612584,0.4440193984883707,B,867.9888999904506,Correct,sub_006_day_07_data.csv,1,300,48.0,Training at home,,,,,,,,,,,,,
6,7,1217,A,35.47451767574629,64.87018450918569,1.7737258837873144,1.0189784754553608,A,568.9662999939173,Correct,sub_006_day_07_data.csv,1,300,48.0,Training at home,,,,,,,,,,,,,
6,7,1218,B,43.906513273000094,16.74987594158089,2.1953256636500047,0.2631064360330546,B,2215.685699979076,Correct,sub_006_day_07_data.csv,1,300,48.0,Training at home,,,,,,,,,,,,,
6,7,1219,B,69.16454129357084,55.53508869670993,3.4582270646785416,0.8723431333302072,B,1189.130100014154,Correct,sub_006_day_07_data.csv,1,300,48.0,Training at home,,,,,,,,,,,,,
6,7,1220,A,34.381522832979826,49.38834694167066,1.7190761416489917,0.7757903396244825,A,659.27620002185,Correct,sub_006_day_07_data.csv,1,300,48.0,Training at home,,,,,,,,,,,,,
6,7,1221,A,17.61148886167917,42.66609723908326,0.8805744430839585,0.6701974882182586,A,568.6650999996345,Correct,sub_006_day_07_data.csv,1,300,48.0,Training at home,,,,,,,,,,,,,
6,7,1222,A,21.22668211349951,33.00949751942112,1.061334105674976,0.5185119745285194,A,725.6534000043757,Correct,sub_006_day_07_data.csv,1,300,48.0,Training at home,,,,,,,,,,,,,
6,7,1223,A,33.72015713149151,49.60457115547695,1.6860078565745755,0.7791867816325927,A,548.0045999865979,Correct,sub_006_day_07_data.csv,1,300,48.0,Training at home,,,,,,,,,,,,,
6,7,1224,B,48.53687501069224,21.37002819034936,2.426843750534612,0.3356796178490416,B,548.9425999985542,Correct,sub_006_day_07_data.csv,1,300,48.0,Training at home,,,,,,,,,,,,,
6,7,1225,B,83.3233247609555,67.2637348365677,4.166166238047776,1.056576276077865,A,1500.8011999889277,Incorrect,sub_006_day_07_data.csv,0,300,49.0,Training at home,,,,,,,,,,,,,
6,7,1226,A,25.679606569803372,40.66997514058116,1.2839803284901683,0.6388424756166464,A,1093.731700006174,Correct,sub_006_day_07_data.csv,1,300,49.0,Training at home,,,,,,,,,,,,,
6,7,1227,A,46.38315115116698,72.67706962058115,2.319157557558349,1.1416087400222583,A,1210.1270999992266,Correct,sub_006_day_07_data.csv,1,300,49.0,Training at home,,,,,,,,,,,,,
6,7,1228,A,24.50769419720547,46.56886786090362,1.2253847098602737,0.7315020657890432,A,681.258099997649,Correct,sub_006_day_07_data.csv,1,300,49.0,Training at home,,,,,,,,,,,,,
6,7,1229,A,51.89182039454871,62.03162525904996,2.5945910197274356,0.9743904910203318,B,3025.8481000200845,Incorrect,sub_006_day_07_data.csv,0,300,49.0,Training at home,,,,,,,,,,,,,
6,7,1230,A,28.594574294374233,59.065322217661546,1.4297287147187117,0.9277959118045976,A,1054.4897000072524,Correct,sub_006_day_07_data.csv,1,300,49.0,Training at home,,,,,,,,,,,,,
6,7,1231,A,17.60791931644055,41.859431984470625,0.8803959658220276,0.6575264200292726,A,1117.4412000109442,Correct,sub_006_day_07_data.csv,1,300,49.0,Training at home,,,,,,,,,,,,,
6,7,1232,A,16.97502613451324,33.3699980156468,0.848751306725662,0.5241747030813099,A,850.2155999885872,Correct,sub_006_day_07_data.csv,1,300,49.0,Training at home,,,,,,,,,,,,,
6,7,1233,A,61.370369995314206,79.65196219184534,3.0685184997657102,1.2511700963295664,A,1027.4040999938734,Correct,sub_006_day_07_data.csv,1,300,49.0,Training at home,,,,,,,,,,,,,
6,7,1234,A,17.91612612801564,42.365383760910966,0.895806306400782,0.665473891948951,A,706.1144000035711,Correct,sub_006_day_07_data.csv,1,300,49.0,Training at home,,,,,,,,,,,,,
6,7,1235,A,11.939802381407429,35.21249094861449,0.5969901190703715,0.5531165143938218,A,510.4087000072468,Correct,sub_006_day_07_data.csv,1,300,49.0,Training at home,,,,,,,,,,,,,
6,7,1236,A,65.88629906873459,76.83412247162701,3.2943149534367295,1.2069075735094092,A,902.5134000112304,Correct,sub_006_day_07_data.csv,1,300,49.0,Training at home,,,,,,,,,,,,,
6,7,1237,A,55.22856484488042,79.03187779700048,2.761428242244021,1.2414298334323148,A,941.597199998796,Correct,sub_006_day_07_data.csv,1,300,49.0,Training at home,,,,,,,,,,,,,
6,7,1238,A,48.65793098724842,59.5860008699783,2.432896549362421,0.9359747129495942,A,884.0189999900758,Correct,sub_006_day_07_data.csv,1,300,49.0,Training at home,,,,,,,,,,,,,
6,7,1239,B,60.57354188726383,42.066308768330146,3.0286770943631915,0.6607760329511294,B,1346.302599995397,Correct,sub_006_day_07_data.csv,1,300,49.0,Training at home,,,,,,,,,,,,,
6,7,1240,A,29.587706331317904,58.44630387969469,1.4793853165658952,0.9180723944896272,A,544.1446000186261,Correct,sub_006_day_07_data.csv,1,300,49.0,Training at home,,,,,,,,,,,,,
6,7,1241,A,37.12162134597861,54.02782151209489,1.8560810672989303,0.8486670357592895,A,918.2033000106458,Correct,sub_006_day_07_data.csv,1,300,49.0,Training at home,,,,,,,,,,,,,
6,7,1242,B,40.33435322281309,29.30170070484195,2.0167176611406545,0.4602700383600916,B,812.3062999802642,Correct,sub_006_day_07_data.csv,1,300,49.0,Training at home,,,,,,,,,,,,,
6,7,1243,B,82.03068572212067,66.0185727665924,4.101534286106033,1.037017316020049,A,1128.6815999774262,Incorrect,sub_006_day_07_data.csv,0,300,49.0,Training at home,,,,,,,,,,,,,
6,7,1244,A,58.259200038596205,81.59075046621156,2.91296000192981,1.2816245113276412,A,953.4609999973328,Correct,sub_006_day_07_data.csv,1,300,49.0,Training at home,,,,,,,,,,,,,
6,7,1245,B,81.40910246105382,50.50109209881369,4.070455123052691,0.7932692996794732,B,633.4414000157267,Correct,sub_006_day_07_data.csv,1,300,49.0,Training at home,,,,,,,,,,,,,
6,7,1246,B,39.29621357989156,13.395074569301638,1.964810678994578,0.2104093393060274,B,1150.7396000088193,Correct,sub_006_day_07_data.csv,1,300,49.0,Training at home,,,,,,,,,,,,,
6,7,1247,B,64.06722104016208,46.53327051421463,3.2033610520081037,0.7309429039748161,B,920.660500007216,Correct,sub_006_day_07_data.csv,1,300,49.0,Training at home,,,,,,,,,,,,,
6,7,1248,A,39.77483257053663,58.5621565031482,1.9887416285268316,0.9198922032433304,A,943.6181000201032,Correct,sub_006_day_07_data.csv,1,300,49.0,Training at home,,,,,,,,,,,,,
6,7,1249,B,55.227320313583405,34.889467492800506,2.76136601567917,0.5480424738152099,B,1147.8704000182915,Correct,sub_006_day_07_data.csv,1,300,49.0,Training at home,,,,,,,,,,,,,
6,7,1250,B,49.36500398181101,27.469180026685702,2.4682501990905505,0.4314848708598565,B,674.3309999874327,Correct,sub_006_day_07_data.csv,1,300,50.0,Training at home,,,,,,,,,,,,,
6,7,1251,A,56.77188610031969,80.51188039948103,2.8385943050159845,1.2646776599485483,A,564.2930000030901,Correct,sub_006_day_07_data.csv,1,300,50.0,Training at home,,,,,,,,,,,,,
6,7,1252,A,30.423340897991608,44.58613886026333,1.5211670448995804,0.7003574314766884,A,628.4003000182565,Correct,sub_006_day_07_data.csv,1,300,50.0,Training at home,,,,,,,,,,,,,
6,7,1253,B,52.78861175216721,40.23495821618019,2.6394305876083606,0.6320092457472198,B,783.5056999756489,Correct,sub_006_day_07_data.csv,1,300,50.0,Training at home,,,,,,,,,,,,,
6,7,1254,A,39.30104913534478,62.23912931443006,1.9650524567672392,0.9776499571001932,A,776.377499976661,Correct,sub_006_day_07_data.csv,1,300,50.0,Training at home,,,,,,,,,,,,,
6,7,1255,B,72.57409878636084,55.12842149035099,3.6287049393180415,0.8659552197904417,A,1341.3537000014912,Incorrect,sub_006_day_07_data.csv,0,300,50.0,Training at home,,,,,,,,,,,,,
6,7,1256,A,15.851512292429035,42.39964109492804,0.7925756146214518,0.6660120048933492,A,664.3712999939453,Correct,sub_006_day_07_data.csv,1,300,50.0,Training at home,,,,,,,,,,,,,
6,7,1257,A,19.831808073085448,43.34012878906768,0.9915904036542724,0.6807851510468527,A,968.7966000055894,Correct,sub_006_day_07_data.csv,1,300,50.0,Training at home,,,,,,,,,,,,,
6,7,1258,B,42.40620091250992,30.661292714506285,2.1203100456254957,0.481626459707296,B,1291.329500003485,Correct,sub_006_day_07_data.csv,1,300,50.0,Training at home,,,,,,,,,,,,,
6,7,1259,B,79.24311063828306,54.51027935779173,3.962155531914153,0.8562454658778293,B,2594.961399998283,Correct,sub_006_day_07_data.csv,1,300,50.0,Training at home,,,,,,,,,,,,,
6,7,1260,B,81.13105240608697,61.66606186012325,4.056552620304348,0.9686482345778844,B,767.6617999968585,Correct,sub_006_day_07_data.csv,1,300,50.0,Training at home,,,,,,,,,,,,,
6,7,1261,B,72.56460977764095,44.28056765409974,3.628230488882048,0.6955575301945278,B,1175.3212999901734,Correct,sub_006_day_07_data.csv,1,300,50.0,Training at home,,,,,,,,,,,,,
6,7,1262,B,48.612855353616155,31.432429904118536,2.430642767680808,0.4937394543562745,A,731.8363999947906,Incorrect,sub_006_day_07_data.csv,0,300,50.0,Training at home,,,,,,,,,,,,,
6,7,1263,A,43.94656273819406,67.6191441931451,2.1973281369097033,1.062159033196068,A,730.8871000132058,Correct,sub_006_day_07_data.csv,1,300,50.0,Training at home,,,,,,,,,,,,,
6,7,1264,B,73.58974728543215,52.516217711919595,3.679487364271608,0.8249228187904437,B,570.9068999858573,Correct,sub_006_day_07_data.csv,1,300,50.0,Training at home,,,,,,,,,,,,,
6,7,1265,A,15.960605834834729,31.17840896510896,0.7980302917417363,0.4897493027770223,A,844.836199976271,Correct,sub_006_day_07_data.csv,1,300,50.0,Training at home,,,,,,,,,,,,,
6,7,1266,B,46.91401647770933,21.38878431013514,2.345700823885467,0.335974238289686,B,593.7037999974564,Correct,sub_006_day_07_data.csv,1,300,50.0,Training at home,,,,,,,,,,,,,
6,7,1267,A,30.547739916077347,45.08944159370061,1.5273869958038673,0.7082632923261796,A,540.8217999793123,Correct,sub_006_day_07_data.csv,1,300,50.0,Training at home,,,,,,,,,,,,,
6,7,1268,A,18.2922384255597,38.78822880221469,0.914611921277985,0.6092840732539885,A,590.5207000032533,Correct,sub_006_day_07_data.csv,1,300,50.0,Training at home,,,,,,,,,,,,,
6,7,1269,B,46.383649954947,17.405795928126093,2.31918249774735,0.2734096030884203,B,679.2648999835365,Correct,sub_006_day_07_data.csv,1,300,50.0,Training at home,,,,,,,,,,,,,
6,7,1270,A,38.40914500995163,51.81686230489988,1.9204572504975816,0.8139373697457366,A,1011.6856999811716,Correct,sub_006_day_07_data.csv,1,300,50.0,Training at home,,,,,,,,,,,,,
6,7,1271,B,78.92228468244392,65.61153784352597,3.946114234122195,1.0306236263997497,B,1267.6025000109803,Correct,sub_006_day_07_data.csv,1,300,50.0,Training at home,,,,,,,,,,,,,
6,7,1272,A,30.829240146701125,61.84380813022389,1.5414620073350562,0.9714402664596404,A,541.141100024106,Correct,sub_006_day_07_data.csv,1,300,50.0,Training at home,,,,,,,,,,,,,
6,7,1273,B,60.24007268434029,28.90054459590509,3.012003634217015,0.4539686929361981,B,1170.8702000032645,Correct,sub_006_day_07_data.csv,1,300,50.0,Training at home,,,,,,,,,,,,,
6,7,1274,A,67.11356839102216,88.63932544036493,3.355678419551108,1.3923432681130263,A,663.3989000110887,Correct,sub_006_day_07_data.csv,1,300,50.0,Training at home,,,,,,,,,,,,,
6,7,1275,A,49.27619582216913,77.08763078611915,2.4638097911084564,1.2108896728015717,A,994.4602999894414,Correct,sub_006_day_07_data.csv,1,300,51.0,Training at home,,,,,,,,,,,,,
6,7,1276,B,50.94755218090436,32.86980259028298,2.547377609045218,0.5163176517128989,B,856.6944999911357,Correct,sub_006_day_07_data.csv,1,300,51.0,Training at home,,,,,,,,,,,,,
6,7,1277,B,62.75400292721537,35.55416503254638,3.1377001463607685,0.558483518353834,B,682.346299989149,Correct,sub_006_day_07_data.csv,1,300,51.0,Training at home,,,,,,,,,,,,,
6,7,1278,A,16.551464790627215,46.63085040772638,0.8275732395313607,0.732475685357789,A,492.69049998838454,Correct,sub_006_day_07_data.csv,1,300,51.0,Training at home,,,,,,,,,,,,,
6,7,1279,A,47.127216361753824,63.41064708265544,2.3563608180876914,0.9960521151712268,B,902.5969000067562,Incorrect,sub_006_day_07_data.csv,0,300,51.0,Training at home,,,,,,,,,,,,,
6,7,1280,A,29.696067152883774,49.91015978053283,1.484803357644189,0.7839869565300734,A,691.9223000004422,Correct,sub_006_day_07_data.csv,1,300,51.0,Training at home,,,,,,,,,,,,,
6,7,1281,B,39.67890590141467,21.18769489544313,1.9839452950707337,0.3328155331501304,A,643.5956000059377,Incorrect,sub_006_day_07_data.csv,0,300,51.0,Training at home,,,,,,,,,,,,,
6,7,1282,A,54.33622113993041,81.68166526325726,2.7168110569965207,1.283052597620148,A,1029.6975999954157,Correct,sub_006_day_07_data.csv,1,300,51.0,Training at home,,,,,,,,,,,,,
6,7,1283,B,73.52513556505302,51.52674108770065,3.6762567782526503,0.8093801563227185,B,988.3168000087608,Correct,sub_006_day_07_data.csv,1,300,51.0,Training at home,,,,,,,,,,,,,
6,7,1284,B,63.173170390217024,46.0270899757898,3.158658519510851,0.7229918386702882,B,777.0000000018626,Correct,sub_006_day_07_data.csv,1,300,51.0,Training at home,,,,,,,,,,,,,
6,7,1285,A,27.708526773143127,40.73566568600042,1.3854263386571564,0.6398743402911437,A,614.6795999957249,Correct,sub_006_day_07_data.csv,1,300,51.0,Training at home,,,,,,,,,,,,,
6,7,1286,B,79.23288091583439,64.80070317365657,3.961644045791719,1.0178870651890612,B,929.660399997374,Correct,sub_006_day_07_data.csv,1,300,51.0,Training at home,,,,,,,,,,,,,
6,7,1287,B,84.88602470477058,62.91631611052125,4.244301235238529,0.9882871824187336,B,685.7928000099491,Correct,sub_006_day_07_data.csv,1,300,51.0,Training at home,,,,,,,,,,,,,
6,7,1288,A,28.42748346888795,56.347954143159726,1.4213741734443974,0.8851115939048256,A,636.4611999888439,Correct,sub_006_day_07_data.csv,1,300,51.0,Training at home,,,,,,,,,,,,,
6,7,1289,A,19.86859308093031,45.76658085992282,0.9934296540465156,0.718899771047284,A,495.12459998368286,Correct,sub_006_day_07_data.csv,1,300,51.0,Training at home,,,,,,,,,,,,,
6,7,1290,B,40.28768136064737,21.61713727003732,2.0143840680323684,0.3395611981959568,A,1355.761699989671,Incorrect,sub_006_day_07_data.csv,0,300,51.0,Training at home,,,,,,,,,,,,,
6,7,1291,B,53.62180879008146,40.14428084524096,2.681090439504073,0.6305848889352722,B,757.4966000101995,Correct,sub_006_day_07_data.csv,1,300,51.0,Training at home,,,,,,,,,,,,,
6,7,1292,B,55.85500027899156,34.92831696521216,2.7927500139495782,0.5486527199008313,B,527.6444999908563,Correct,sub_006_day_07_data.csv,1,300,51.0,Training at home,,,,,,,,,,,,,
6,7,1293,A,17.004489044044043,43.6487011030484,0.8502244522022022,0.6856321936203676,A,512.2528999927454,Correct,sub_006_day_07_data.csv,1,300,51.0,Training at home,,,,,,,,,,,,,
6,7,1294,B,57.41000171766344,29.522759255329063,2.870500085883172,0.4637424179512093,B,843.3712999976706,Correct,sub_006_day_07_data.csv,1,300,51.0,Training at home,,,,,,,,,,,,,
6,7,1295,A,52.14880758365043,77.08904495800533,2.607440379182522,1.2109118865616142,A,973.4611000167206,Correct,sub_006_day_07_data.csv,1,300,51.0,Training at home,,,,,,,,,,,,,
6,7,1296,A,59.59494565112804,79.99637808243263,2.9797472825564024,1.2565801684878095,A,653.448999975808,Correct,sub_006_day_07_data.csv,1,300,51.0,Training at home,,,,,,,,,,,,,
6,7,1297,B,35.9270067984074,22.212768992027485,1.79635033992037,0.3489173594062035,B,637.8535999974702,Correct,sub_006_day_07_data.csv,1,300,51.0,Training at home,,,,,,,,,,,,,
6,7,1298,A,55.09923074217491,83.87614840602623,2.7549615371087453,1.3175234582188962,B,1096.7327999824192,Incorrect,sub_006_day_07_data.csv,0,300,51.0,Training at home,,,,,,,,,,,,,
6,7,1299,A,67.69207551332237,80.18672429984638,3.3846037756661183,1.2595701198791376,B,666.0047000041232,Incorrect,sub_006_day_07_data.csv,0,300,51.0,Training at home,,,,,,,,,,,,,
6,7,1300,A,27.70240182917891,51.98172074591324,1.3851200914589454,0.816526960081586,A,719.2016000044532,Correct,sub_006_day_07_data.csv,1,300,52.0,Training at home,,,,,,,,,,,,,
6,7,1301,A,18.625879443838347,32.56549146898605,0.9312939721919172,0.5115375437975384,A,534.3987999949604,Correct,sub_006_day_07_data.csv,1,300,52.0,Training at home,,,,,,,,,,,,,
6,7,1302,A,44.56901325394181,68.0129478909986,2.2284506626970906,1.0683448872167332,A,766.5492999949493,Correct,sub_006_day_07_data.csv,1,300,52.0,Training at home,,,,,,,,,,,,,
6,7,1303,A,57.21451190891731,78.42638064986828,2.8607255954458655,1.2319187064863144,B,1249.648500001058,Incorrect,sub_006_day_07_data.csv,0,300,52.0,Training at home,,,,,,,,,,,,,
6,7,1304,A,33.004453200214165,54.46690761118248,1.6502226600107082,0.8555641840752242,A,630.2588999969885,Correct,sub_006_day_07_data.csv,1,300,52.0,Training at home,,,,,,,,,,,,,
6,7,1305,B,38.71037622690953,24.396199823382624,1.9355188113454769,0.3832146107032373,B,1210.1627999800255,Correct,sub_006_day_07_data.csv,1,300,52.0,Training at home,,,,,,,,,,,,,
6,7,1306,B,66.76329352978192,54.74190760301287,3.338164676489096,0.8598838738455824,B,873.1553999823518,Correct,sub_006_day_07_data.csv,1,300,52.0,Training at home,,,,,,,,,,,,,
6,7,1307,B,56.0570647575678,26.438501914676188,2.8028532378783897,0.4152950169353319,B,578.6283999914303,Correct,sub_006_day_07_data.csv,1,300,52.0,Training at home,,,,,,,,,,,,,
6,7,1308,A,63.0714125651004,74.41343894935908,3.15357062825502,1.168883565658295,B,591.4425999799278,Incorrect,sub_006_day_07_data.csv,0,300,52.0,Training at home,,,,,,,,,,,,,
6,7,1309,B,43.14083787014758,17.83266911992695,2.1570418935073787,0.2801149115053004,B,1151.201900007436,Correct,sub_006_day_07_data.csv,1,300,52.0,Training at home,,,,,,,,,,,,,
6,7,1310,A,18.39379163510263,45.50161826320434,0.9196895817551316,0.7147377483106496,A,561.4154000068083,Correct,sub_006_day_07_data.csv,1,300,52.0,Training at home,,,,,,,,,,,,,
6,7,1311,A,45.47019088043953,64.10570029457402,2.2735095440219766,1.006969985493314,A,1012.6673000049776,Correct,sub_006_day_07_data.csv,1,300,52.0,Training at home,,,,,,,,,,,,,
6,7,1312,B,52.67311793335416,42.934285605818715,2.633655896667708,0.6744101812318303,B,632.0261000073515,Correct,sub_006_day_07_data.csv,1,300,52.0,Training at home,,,,,,,,,,,,,
6,7,1313,B,74.37146672351884,50.48196973245349,3.718573336175942,0.7929689262510908,B,532.7057000249624,Correct,sub_006_day_07_data.csv,1,300,52.0,Training at home,,,,,,,,,,,,,
6,7,1314,A,58.811747345576975,78.0764896081827,2.940587367278849,1.2264226308557329,A,723.8059999945108,Correct,sub_006_day_07_data.csv,1,300,52.0,Training at home,,,,,,,,,,,,,
6,7,1315,B,64.37988938812238,48.13664675077295,3.2189944694061188,0.7561286790033765,B,656.7723999905866,Correct,sub_006_day_07_data.csv,1,300,52.0,Training at home,,,,,,,,,,,,,
6,7,1316,B,42.02828079298288,19.00966839463206,2.101414039649144,0.2986031728787707,A,664.8064999899361,Incorrect,sub_006_day_07_data.csv,0,300,52.0,Training at home,,,,,,,,,,,,,
6,7,1317,A,55.99172439909214,64.85920026198721,2.799586219954607,1.018805935303841,B,618.8698999758344,Incorrect,sub_006_day_07_data.csv,0,300,52.0,Training at home,,,,,,,,,,,,,
6,7,1318,A,21.474771080395563,43.32491466306753,1.073738554019778,0.6805461681144883,A,676.9888999988325,Correct,sub_006_day_07_data.csv,1,300,52.0,Training at home,,,,,,,,,,,,,
6,7,1319,A,11.650568844645676,36.62054290799387,0.5825284422322838,0.5752341428511167,A,579.087599995546,Correct,sub_006_day_07_data.csv,1,300,52.0,Training at home,,,,,,,,,,,,,
6,7,1320,B,55.65951790821112,39.03731675402713,2.7829758954105563,0.613196737651547,B,941.1313000018708,Correct,sub_006_day_07_data.csv,1,300,52.0,Training at home,,,,,,,,,,,,,
6,7,1321,A,33.85149431289922,56.54109146918648,1.6925747156449609,0.8881453879277239,A,650.2646000008099,Correct,sub_006_day_07_data.csv,1,300,52.0,Training at home,,,,,,,,,,,,,
6,7,1322,B,47.29026850041283,27.495739348970837,2.3645134250206414,0.4319020637187329,B,624.3431000038981,Correct,sub_006_day_07_data.csv,1,300,52.0,Training at home,,,,,,,,,,,,,
6,7,1323,B,56.41738869579815,45.92321948502513,2.8208694347899073,0.7213602448167328,B,579.5475999766495,Correct,sub_006_day_07_data.csv,1,300,52.0,Training at home,,,,,,,,,,,,,
6,7,1324,B,82.85806328691342,61.90175376438468,4.142903164345671,0.972350474352576,B,1413.9927000214811,Correct,sub_006_day_07_data.csv,1,300,52.0,Training at home,,,,,,,,,,,,,
6,7,1325,B,75.80365212567601,63.708488874477645,3.7901826062838007,1.0007306030968302,B,2173.272699990775,Correct,sub_006_day_07_data.csv,1,300,53.0,Training at home,,,,,,,,,,,,,
6,7,1326,A,33.58744152050721,66.98957272013365,1.6793720760253603,1.0522697476234557,A,585.3647000039928,Correct,sub_006_day_07_data.csv,1,300,53.0,Training at home,,,,,,,,,,,,,
6,7,1327,B,43.19663000460544,27.41166417629547,2.159831500230272,0.4305814139946018,B,730.0855999928899,Correct,sub_006_day_07_data.csv,1,300,53.0,Training at home,,,,,,,,,,,,,
6,7,1328,B,31.906936499465036,13.456403359069792,1.595346824973252,0.2113726896829733,A,525.4363999993075,Incorrect,sub_006_day_07_data.csv,0,300,53.0,Training at home,,,,,,,,,,,,,
6,7,1329,A,40.22406966343342,52.69801298474177,2.011203483171671,0.8277784522582213,A,1074.6987000165973,Correct,sub_006_day_07_data.csv,1,300,53.0,Training at home,,,,,,,,,,,,,
6,7,1330,A,22.584979124211003,38.57609003730501,1.12924895621055,0.605951805327079,A,540.6331999984104,Correct,sub_006_day_07_data.csv,1,300,53.0,Training at home,,,,,,,,,,,,,
6,7,1331,B,68.47443625026537,47.3449423769983,3.4237218125132687,0.7436926157810496,B,1148.104299994884,Correct,sub_006_day_07_data.csv,1,300,53.0,Training at home,,,,,,,,,,,,,
6,7,1332,B,51.43881506102037,33.146917698737624,2.5719407530510185,0.520670565657498,B,567.8446000092663,Correct,sub_006_day_07_data.csv,1,300,53.0,Training at home,,,,,,,,,,,,,
6,7,1333,B,46.036089078364256,29.992126472211027,2.301804453918213,0.4711152209531706,B,523.6262000107672,Correct,sub_006_day_07_data.csv,1,300,53.0,Training at home,,,,,,,,,,,,,
6,7,1334,B,48.299765743348786,27.500152245539404,2.4149882871674393,0.4319713813359372,B,609.789100009948,Correct,sub_006_day_07_data.csv,1,300,53.0,Training at home,,,,,,,,,,,,,
6,7,1335,B,56.3513569053531,34.949227207883254,2.817567845267655,0.5489811772246327,B,465.97389999078587,Correct,sub_006_day_07_data.csv,1,300,53.0,Training at home,,,,,,,,,,,,,
6,7,1336,B,71.26987090746574,59.06782747039796,3.563493545373287,0.927835264222558,B,828.6034999764524,Correct,sub_006_day_07_data.csv,1,300,53.0,Training at home,,,,,,,,,,,,,
6,7,1337,B,30.823792515226295,14.76634794250593,1.541189625761315,0.2319492510826369,A,651.4427000074647,Incorrect,sub_006_day_07_data.csv,0,300,53.0,Training at home,,,,,,,,,,,,,
6,7,1338,A,39.08679966915044,64.8236792367802,1.9543399834575217,1.0182479723446494,A,643.2134000060614,Correct,sub_006_day_07_data.csv,1,300,53.0,Training at home,,,,,,,,,,,,,
6,7,1339,B,75.48094950973811,62.55321376801689,3.774047475486906,0.9825835841601688,B,576.9521999754943,Correct,sub_006_day_07_data.csv,1,300,53.0,Training at home,,,,,,,,,,,,,
6,7,1340,A,63.58076889701742,80.70576384015276,3.179038444850871,1.2677231739128834,B,605.6348000129219,Incorrect,sub_006_day_07_data.csv,0,300,53.0,Training at home,,,,,,,,,,,,,
6,7,1341,A,31.47003135758945,64.6197622648821,1.5735015678794724,1.0150448520403628,A,606.4093000022694,Correct,sub_006_day_07_data.csv,1,300,53.0,Training at home,,,,,,,,,,,,,
6,7,1342,B,53.77060833975036,36.08876375218501,2.688530416987518,0.5668809754050101,B,858.3600999845657,Correct,sub_006_day_07_data.csv,1,300,53.0,Training at home,,,,,,,,,,,,,
6,7,1343,B,53.42032586376682,41.13782571170827,2.671016293188341,0.6461914552028,B,994.8579000192694,Correct,sub_006_day_07_data.csv,1,300,53.0,Training at home,,,,,,,,,,,,,
6,7,1344,A,51.9661196240087,77.84436282199869,2.5983059812004345,1.2227763918248475,B,1038.1382000050507,Incorrect,sub_006_day_07_data.csv,0,300,53.0,Training at home,,,,,,,,,,,,,
6,7,1345,B,65.40174839974553,37.9688535432787,3.2700874199872767,0.5964133567839558,B,686.077699996531,Correct,sub_006_day_07_data.csv,1,300,53.0,Training at home,,,,,,,,,,,,,
6,7,1346,B,53.83032063422028,33.24825437488315,2.691516031711014,0.5222623584440881,B,669.1583000065293,Correct,sub_006_day_07_data.csv,1,300,53.0,Training at home,,,,,,,,,,,,,
6,7,1347,B,35.09417062662138,12.50579491447372,1.7547085313310689,0.1964405671530562,B,846.6385000210721,Correct,sub_006_day_07_data.csv,1,300,53.0,Training at home,,,,,,,,,,,,,
6,7,1348,A,22.577307092061,35.68436940468819,1.12886535460305,0.5605287638487639,A,606.8360999925062,Correct,sub_006_day_07_data.csv,1,300,53.0,Training at home,,,,,,,,,,,,,
6,7,1349,B,84.39134752244689,56.90208673906143,4.219567376122344,0.8938158883668229,B,618.538599985186,Correct,sub_006_day_07_data.csv,1,300,53.0,Training at home,,,,,,,,,,,,,
6,7,1350,B,74.30007727900355,43.02214201018302,3.715003863950177,0.6757902264044389,B,525.938100006897,Correct,sub_006_day_07_data.csv,1,300,54.0,Training at home,,,,,,,,,,,,,
6,7,1351,A,46.116745587961695,78.2658944264163,2.305837279398085,1.2293977947833188,A,650.767499988433,Correct,sub_006_day_07_data.csv,1,300,54.0,Training at home,,,,,,,,,,,,,
6,7,1352,B,46.73519351141633,29.160792341603532,2.3367596755708164,0.4580566549661959,B,614.8237999877892,Correct,sub_006_day_07_data.csv,1,300,54.0,Training at home,,,,,,,,,,,,,
6,7,1353,A,41.721816389957255,73.53384679443984,2.086090819497863,1.1550669643980476,A,899.6882000064943,Correct,sub_006_day_07_data.csv,1,300,54.0,Training at home,,,,,,,,,,,,,
6,7,1354,B,87.47492391508075,62.86879613979143,4.373746195754038,0.9875407404640154,B,684.985300002154,Correct,sub_006_day_07_data.csv,1,300,54.0,Training at home,,,,,,,,,,,,,
6,7,1355,B,71.8288319842525,48.05491305740811,3.591441599212625,0.7548448091502478,A,725.5285999854095,Incorrect,sub_006_day_07_data.csv,0,300,54.0,Training at home,,,,,,,,,,,,,
6,7,1356,B,56.07549423634168,24.85449050558163,2.8037747118170837,0.3904134239052625,B,613.482999993721,Correct,sub_006_day_07_data.csv,1,300,54.0,Training at home,,,,,,,,,,,,,
6,7,1357,A,10.001088472007376,32.91442465589963,0.5000544236003688,0.5170185734805451,A,570.3463000245392,Correct,sub_006_day_07_data.csv,1,300,54.0,Training at home,,,,,,,,,,,,,
6,7,1358,B,85.12295720498783,62.24946622270728,4.256147860249391,0.9778123288757158,B,598.1312000076286,Correct,sub_006_day_07_data.csv,1,300,54.0,Training at home,,,,,,,,,,,,,
6,7,1359,B,69.36881546151537,38.011705028579776,3.4684407730757685,0.5970864663410421,B,1126.601900003152,Correct,sub_006_day_07_data.csv,1,300,54.0,Training at home,,,,,,,,,,,,,
6,7,1360,B,85.44263572630425,61.44761426085552,4.272131786315213,0.9652168677126154,B,734.1483000200242,Correct,sub_006_day_07_data.csv,1,300,54.0,Training at home,,,,,,,,,,,,,
6,7,1361,B,85.1692152758652,66.05822138603243,4.25846076379326,1.037640115077838,B,713.2602999918163,Correct,sub_006_day_07_data.csv,1,300,54.0,Training at home,,,,,,,,,,,,,
6,7,1362,A,24.078885009835492,51.90688820576401,1.2039442504917746,0.8153514932896744,A,561.193400004413,Correct,sub_006_day_07_data.csv,1,300,54.0,Training at home,,,,,,,,,,,,,
6,7,1363,A,43.635471207372824,56.13333881197845,2.1817735603686415,0.8817404241658916,A,1224.6974000008777,Correct,sub_006_day_07_data.csv,1,300,54.0,Training at home,,,,,,,,,,,,,
6,7,1364,A,53.02052620858042,72.7786738431343,2.651026310429021,1.143204735417992,A,835.8761000272352,Correct,sub_006_day_07_data.csv,1,300,54.0,Training at home,,,,,,,,,,,,,
6,7,1365,A,22.80428668803761,40.70707141990401,1.1402143344018805,0.6394251826096273,A,558.0465999955777,Correct,sub_006_day_07_data.csv,1,300,54.0,Training at home,,,,,,,,,,,,,
6,7,1366,A,52.88739618420764,75.9560648640958,2.644369809210382,1.1931150768631658,A,698.5707999847364,Correct,sub_006_day_07_data.csv,1,300,54.0,Training at home,,,,,,,,,,,,,
6,7,1367,A,17.06936249102877,40.16343794673985,0.8534681245514385,0.6308858079819372,A,475.3476000041701,Correct,sub_006_day_07_data.csv,1,300,54.0,Training at home,,,,,,,,,,,,,
6,7,1368,A,16.50283123363044,42.458413775134034,0.8251415616815221,0.6669352039951837,B,660.3433999989647,Incorrect,sub_006_day_07_data.csv,0,300,54.0,Training at home,,,,,,,,,,,,,
6,7,1369,B,56.19936690389656,41.31702831474276,2.8099683451948283,0.6490063631087866,B,1217.1464999846648,Correct,sub_006_day_07_data.csv,1,300,54.0,Training at home,,,,,,,,,,,,,
6,7,1370,A,30.74913657448371,54.665244695852905,1.5374568287241854,0.8586796557158995,A,640.4493000009097,Correct,sub_006_day_07_data.csv,1,300,54.0,Training at home,,,,,,,,,,,,,
6,7,1371,B,86.25872896328457,60.500334780208426,4.312936448164228,0.9503370364261292,B,573.7335000012536,Correct,sub_006_day_07_data.csv,1,300,54.0,Training at home,,,,,,,,,,,,,
6,7,1372,A,37.72691426782803,62.669588621352275,1.8863457133914017,0.984411596081674,A,679.9927000247408,Correct,sub_006_day_07_data.csv,1,300,54.0,Training at home,,,,,,,,,,,,,
6,7,1373,B,48.0768693653969,18.541364638543023,2.4038434682698453,0.2912470746798816,B,991.7405999731272,Correct,sub_006_day_07_data.csv,1,300,54.0,Training at home,,,,,,,,,,,,,
6,7,1374,B,58.37384344446758,41.42248766896355,2.918692172223379,0.6506629147711485,B,947.4242999858689,Correct,sub_006_day_07_data.csv,1,300,54.0,Training at home,,,,,,,,,,,,,
6,7,1375,B,51.770584230884694,28.464012844590172,2.588529211544235,0.4471116682212498,B,509.54539998201653,Correct,sub_006_day_07_data.csv,1,300,55.0,Training at home,,,,,,,,,,,,,
6,7,1376,B,47.95926979393718,34.423834473878145,2.397963489696859,0.5407283274576332,B,496.3681999943219,Correct,sub_006_day_07_data.csv,1,300,55.0,Training at home,,,,,,,,,,,,,
6,7,1377,B,41.83309385969574,32.75163174570804,2.091654692984787,0.5144614284269731,B,461.7730999889318,Correct,sub_006_day_07_data.csv,1,300,55.0,Training at home,,,,,,,,,,,,,
6,7,1378,A,58.488489671976055,81.90017495552027,2.9244244835988025,1.2864849398399063,A,733.2741999998689,Correct,sub_006_day_07_data.csv,1,300,55.0,Training at home,,,,,,,,,,,,,
6,7,1379,B,70.79368021036291,53.33439431674741,3.5396840105181457,0.8377747068457745,B,506.8494000006467,Correct,sub_006_day_07_data.csv,1,300,55.0,Training at home,,,,,,,,,,,,,
6,7,1380,A,60.624808025322906,73.2230228867054,3.0312404012661456,1.150184553872555,A,631.4323000260629,Correct,sub_006_day_07_data.csv,1,300,55.0,Training at home,,,,,,,,,,,,,
6,7,1381,A,18.114100225928564,35.418593411334854,0.9057050112964282,0.5563539643076671,A,495.9189000073821,Correct,sub_006_day_07_data.csv,1,300,55.0,Training at home,,,,,,,,,,,,,
6,7,1382,B,38.0840998436675,11.377523964346867,1.904204992183375,0.1787177285121696,B,636.361200013198,Correct,sub_006_day_07_data.csv,1,300,55.0,Training at home,,,,,,,,,,,,,
6,7,1383,B,38.360429508892175,22.548486486614344,1.9180214754446083,0.3541907974795817,B,785.7149000046775,Correct,sub_006_day_07_data.csv,1,300,55.0,Training at home,,,,,,,,,,,,,
6,7,1384,B,51.79372300845995,44.46535824776972,2.589686150422998,0.6984602140521583,B,560.0370999891311,Correct,sub_006_day_07_data.csv,1,300,55.0,Training at home,,,,,,,,,,,,,
6,7,1385,A,26.212598964687256,57.04864588128427,1.3106299482343626,0.8961180339894413,A,536.5241999970749,Correct,sub_006_day_07_data.csv,1,300,55.0,Training at home,,,,,,,,,,,,,
6,7,1386,B,71.2316190701411,40.376975879676806,3.561580953507055,0.6342400539888245,B,579.369700019015,Correct,sub_006_day_07_data.csv,1,300,55.0,Training at home,,,,,,,,,,,,,
6,7,1387,B,45.074448532526944,19.757401789117615,2.2537224266263474,0.3103485415735687,B,589.4865000154823,Correct,sub_006_day_07_data.csv,1,300,55.0,Training at home,,,,,,,,,,,,,
6,7,1388,A,22.95257496608439,53.60676393934776,1.1476287483042196,0.8420530788728857,A,794.1505000053439,Correct,sub_006_day_07_data.csv,1,300,55.0,Training at home,,,,,,,,,,,,,
6,7,1389,B,82.97184848358769,65.48758597074577,4.148592424179385,1.0286765949351246,A,874.1602000081912,Incorrect,sub_006_day_07_data.csv,0,300,55.0,Training at home,,,,,,,,,,,,,
6,7,1390,A,64.4844671292916,85.95095372416222,3.22422335646458,1.3501144239443217,A,945.7467999891378,Correct,sub_006_day_07_data.csv,1,300,55.0,Training at home,,,,,,,,,,,,,
6,7,1391,A,26.05824614230267,53.93894704614812,1.3029123071151334,0.847270998912739,A,921.8554999970364,Correct,sub_006_day_07_data.csv,1,300,55.0,Training at home,,,,,,,,,,,,,
6,7,1392,B,43.80187604257604,15.516641092565967,2.190093802128802,0.2437348283239737,B,624.9867999868002,Correct,sub_006_day_07_data.csv,1,300,55.0,Training at home,,,,,,,,,,,,,
6,7,1393,B,49.412329459726514,33.55886735053919,2.470616472986326,0.5271414556562414,B,695.799499982968,Correct,sub_006_day_07_data.csv,1,300,55.0,Training at home,,,,,,,,,,,,,
6,7,1394,B,37.63444117955923,15.38678132761195,1.8817220589779615,0.2416949959060915,B,773.2438999810256,Correct,sub_006_day_07_data.csv,1,300,55.0,Training at home,,,,,,,,,,,,,
6,7,1395,B,57.56127030575281,25.834445893746583,2.87806351528764,0.4058065271467863,B,444.3013000127394,Correct,sub_006_day_07_data.csv,1,300,55.0,Training at home,,,,,,,,,,,,,
6,7,1396,B,50.39718099534255,26.558635331122467,2.5198590497671276,0.4171820682281233,B,570.0501000101212,Correct,sub_006_day_07_data.csv,1,300,55.0,Training at home,,,,,,,,,,,,,
6,7,1397,B,82.52777736001762,66.56822653872149,4.126388868000881,1.0456512572827428,A,669.4574000139255,Incorrect,sub_006_day_07_data.csv,0,300,55.0,Training at home,,,,,,,,,,,,,
6,7,1398,B,54.25241089599322,44.34529686121586,2.7126205447996607,0.6965742942022712,B,1056.0633999994025,Correct,sub_006_day_07_data.csv,1,300,55.0,Training at home,,,,,,,,,,,,,
6,7,1399,B,72.33488372054771,61.58841225383884,3.6167441860273857,0.9674285174145985,B,540.316200000234,Correct,sub_006_day_07_data.csv,1,300,55.0,Training at home,,,,,,,,,,,,,
6,7,1400,B,67.02427585264242,53.56999594341896,3.351213792632121,0.8414755285434001,B,468.9578999823425,Correct,sub_006_day_07_data.csv,1,300,56.0,Training at home,,,,,,,,,,,,,
6,7,1401,A,55.571767710486974,68.8436329063579,2.7785883855243485,1.0813932569252325,A,789.1592000087257,Correct,sub_006_day_07_data.csv,1,300,56.0,Training at home,,,,,,,,,,,,,
6,7,1402,B,75.06239213735597,50.184185021598495,3.7531196068677986,0.7882913349512239,B,500.0098000164144,Correct,sub_006_day_07_data.csv,1,300,56.0,Training at home,,,,,,,,,,,,,
6,7,1403,A,27.762052583141575,40.19156101328127,1.3881026291570788,0.6313275640781519,A,488.6795000056736,Correct,sub_006_day_07_data.csv,1,300,56.0,Training at home,,,,,,,,,,,,,
6,7,1404,A,63.655023941794795,76.19103057070019,3.1827511970897397,1.1968059095517354,B,1154.8747000051662,Incorrect,sub_006_day_07_data.csv,0,300,56.0,Training at home,,,,,,,,,,,,,
6,7,1405,B,52.65711499735254,26.86400409906581,2.632855749867627,0.4219787896181561,B,1540.8506999956444,Correct,sub_006_day_07_data.csv,1,300,56.0,Training at home,,,,,,,,,,,,,
6,7,1406,B,48.65293215899025,32.69127167674707,2.432646607949512,0.5135132946808834,B,657.5167000119109,Correct,sub_006_day_07_data.csv,1,300,56.0,Training at home,,,,,,,,,,,,,
6,7,1407,B,65.47510585209572,56.64185300902996,3.273755292604786,0.8897281464944072,B,728.8715000031516,Correct,sub_006_day_07_data.csv,1,300,56.0,Training at home,,,,,,,,,,,,,
6,7,1408,A,33.07788566032255,49.99066693901564,1.6538942830161276,0.7852515600183284,A,700.6642000051215,Correct,sub_006_day_07_data.csv,1,300,56.0,Training at home,,,,,,,,,,,,,
6,7,1409,B,56.05474798493642,30.670321682739996,2.802737399246821,0.4817682864086586,B,545.4773999808822,Correct,sub_006_day_07_data.csv,1,300,56.0,Training at home,,,,,,,,,,,,,
6,7,1410,B,58.72479379417979,27.012862955340395,2.93623968970899,0.4243170590646263,B,491.6764000081457,Correct,sub_006_day_07_data.csv,1,300,56.0,Training at home,,,,,,,,,,,,,
6,7,1411,B,74.49350352633621,59.8956914784563,3.7246751763168104,0.9408393216519956,B,753.7038000009488,Correct,sub_006_day_07_data.csv,1,300,56.0,Training at home,,,,,,,,,,,,,
6,7,1412,A,16.192463133381832,31.844050003364035,0.8096231566690917,0.5002051677555723,A,526.3178999884985,Correct,sub_006_day_07_data.csv,1,300,56.0,Training at home,,,,,,,,,,,,,
6,7,1413,A,35.24060595493902,50.713028330573266,1.7620302977469509,0.7965983862231001,A,571.2215999956243,Correct,sub_006_day_07_data.csv,1,300,56.0,Training at home,,,,,,,,,,,,,
6,7,1414,B,32.26395913433342,16.148176773657305,1.613197956716671,0.2536549676049556,A,884.1454999928828,Incorrect,sub_006_day_07_data.csv,0,300,56.0,Training at home,,,,,,,,,,,,,
6,7,1415,A,25.09094188957069,48.804365798006955,1.2545470944785344,0.766617185270638,A,568.1079000059981,Correct,sub_006_day_07_data.csv,1,300,56.0,Training at home,,,,,,,,,,,,,
6,7,1416,A,29.75766687984811,50.88888717291862,1.4878833439924053,0.7993607704590049,A,647.9827000002842,Correct,sub_006_day_07_data.csv,1,300,56.0,Training at home,,,,,,,,,,,,,
6,7,1417,A,32.10892589195558,42.975358503637935,1.605446294597779,0.675055352802083,A,778.9748000213876,Correct,sub_006_day_07_data.csv,1,300,56.0,Training at home,,,,,,,,,,,,,
6,7,1418,A,28.38266031170726,42.03536112422806,1.419133015585363,0.6602899084943442,A,518.5772000113502,Correct,sub_006_day_07_data.csv,1,300,56.0,Training at home,,,,,,,,,,,,,
6,7,1419,B,78.69665242119233,60.373570329849954,3.934832621059616,0.9483458250962168,B,964.143499993952,Correct,sub_006_day_07_data.csv,1,300,56.0,Training at home,,,,,,,,,,,,,
6,7,1420,A,47.678836853122014,74.4622412915849,2.383941842656101,1.1696501510573682,A,808.2357999810483,Correct,sub_006_day_07_data.csv,1,300,56.0,Training at home,,,,,,,,,,,,,
6,7,1421,A,41.26620468127203,61.932507411596866,2.063310234063602,0.9728335515133406,A,658.3456000080332,Correct,sub_006_day_07_data.csv,1,300,56.0,Training at home,,,,,,,,,,,,,
6,7,1422,A,29.955038190137373,43.342444611079394,1.4977519095068683,0.6808215278939477,A,571.957600011956,Correct,sub_006_day_07_data.csv,1,300,56.0,Training at home,,,,,,,,,,,,,
6,7,1423,B,75.242413321387,42.83261728679674,3.7621206660693502,0.6728131790111191,B,568.9591999980621,Correct,sub_006_day_07_data.csv,1,300,56.0,Training at home,,,,,,,,,,,,,
6,7,1424,A,40.64094791605523,71.22093600163245,2.0320473958027616,1.1187358466225867,A,739.2492000071798,Correct,sub_006_day_07_data.csv,1,300,56.0,Training at home,,,,,,,,,,,,,
6,7,1425,A,54.68304520394935,69.21543595962447,2.7341522601974675,1.087233525628855,B,692.7939000015613,Incorrect,sub_006_day_07_data.csv,0,300,57.0,Training at home,,,,,,,,,,,,,
6,7,1426,A,54.47842474592339,69.04570469775285,2.7239212372961696,1.0845673932019533,A,1074.0857000055255,Correct,sub_006_day_07_data.csv,1,300,57.0,Training at home,,,,,,,,,,,,,
6,7,1427,A,28.67564308957141,40.77399860564583,1.4337821544785705,0.640476472384887,A,982.5181000051087,Correct,sub_006_day_07_data.csv,1,300,57.0,Training at home,,,,,,,,,,,,,
6,7,1428,A,39.753599313507245,53.24062973152939,1.987679965675362,0.8363018561853351,A,2274.8765999858733,Correct,sub_006_day_07_data.csv,1,300,57.0,Training at home,,,,,,,,,,,,,
6,7,1429,A,61.31100806839377,80.64915000292757,3.0655504034196883,1.2668338858372925,B,691.240399988601,Incorrect,sub_006_day_07_data.csv,0,300,57.0,Training at home,,,,,,,,,,,,,
6,7,1430,A,54.19724755920639,78.65083528479776,2.7098623779603197,1.2354444316471078,A,1114.554700005101,Correct,sub_006_day_07_data.csv,1,300,57.0,Training at home,,,,,,,,,,,,,
6,7,1431,A,36.69792129706927,67.41442855844939,1.834896064853464,1.0589433675258928,A,715.0352999742609,Correct,sub_006_day_07_data.csv,1,300,57.0,Training at home,,,,,,,,,,,,,
6,7,1432,B,37.650321271794446,17.472259846739142,1.8825160635897225,0.274453615880638,B,604.8252999898978,Correct,sub_006_day_07_data.csv,1,300,57.0,Training at home,,,,,,,,,,,,,
6,7,1433,A,49.71409776843134,66.19497868376311,2.485704888421567,1.0397882936872156,B,972.9395000031218,Incorrect,sub_006_day_07_data.csv,0,300,57.0,Training at home,,,,,,,,,,,,,
6,7,1434,A,43.12255568332034,55.33724116374135,2.156127784166017,0.8692353515496827,A,834.4291000103112,Correct,sub_006_day_07_data.csv,1,300,57.0,Training at home,,,,,,,,,,,,,
6,7,1435,B,55.95313488217062,24.248774041208065,2.797656744108531,0.3808988519320906,B,1715.9287000249606,Correct,sub_006_day_07_data.csv,1,300,57.0,Training at home,,,,,,,,,,,,,
6,7,1436,B,69.0677816169811,41.78556160487915,3.453389080849055,0.6563660668200603,B,691.0865000099875,Correct,sub_006_day_07_data.csv,1,300,57.0,Training at home,,,,,,,,,,,,,
6,7,1437,B,74.48673192060849,50.7871685178103,3.724336596030424,0.7977629775608983,B,511.732100014342,Correct,sub_006_day_07_data.csv,1,300,57.0,Training at home,,,,,,,,,,,,,
6,7,1438,A,19.965434417131483,49.33531686546388,0.9982717208565742,0.7749573451353298,A,608.699299977161,Correct,sub_006_day_07_data.csv,1,300,57.0,Training at home,,,,,,,,,,,,,
6,7,1439,B,51.21985757041132,30.68915854347516,2.560992878520566,0.48206417512517,B,712.7389000088442,Correct,sub_006_day_07_data.csv,1,300,57.0,Training at home,,,,,,,,,,,,,
6,7,1440,B,88.58457142088645,66.1975379776101,4.429228571044322,1.0398284949809562,B,511.1228000023402,Correct,sub_006_day_07_data.csv,1,300,57.0,Training at home,,,,,,,,,,,,,
6,7,1441,B,86.70327063347071,59.37063172597194,4.335163531673535,0.9325917023464926,B,488.8102999830153,Correct,sub_006_day_07_data.csv,1,300,57.0,Training at home,,,,,,,,,,,,,
6,7,1442,B,58.64952428846416,47.816627488774,2.932476214423208,0.7511018281908607,B,493.03060001693666,Correct,sub_006_day_07_data.csv,1,300,57.0,Training at home,,,,,,,,,,,,,
6,7,1443,A,52.53351255382625,70.6423118617393,2.6266756276913124,1.1096468398871964,B,438.2837000011932,Incorrect,sub_006_day_07_data.csv,0,300,57.0,Training at home,,,,,,,,,,,,,
6,7,1444,A,65.43897191334236,87.63269511652558,3.271948595667118,1.3765311559617543,A,747.6448000234086,Correct,sub_006_day_07_data.csv,1,300,57.0,Training at home,,,,,,,,,,,,,
6,7,1445,B,70.57739216130439,40.73105099059665,3.5288696080652193,0.6398018528252485,B,882.0483000017703,Correct,sub_006_day_07_data.csv,1,300,57.0,Training at home,,,,,,,,,,,,,
6,7,1446,B,36.36982056016764,17.9274843638018,1.818491028008382,0.2816042658733281,B,1090.417700004764,Correct,sub_006_day_07_data.csv,1,300,57.0,Training at home,,,,,,,,,,,,,
6,7,1447,B,85.18919310304639,64.68393388866215,4.25945965515232,1.0160528575495442,B,739.1195000091102,Correct,sub_006_day_07_data.csv,1,300,57.0,Training at home,,,,,,,,,,,,,
6,7,1448,B,73.49148550487891,55.49806915436072,3.6745742752439456,0.8717616317187896,B,524.2522000044119,Correct,sub_006_day_07_data.csv,1,300,57.0,Training at home,,,,,,,,,,,,,
6,7,1449,B,75.15103212712609,59.27755788158538,3.757551606356304,0.931129701817662,B,581.4742000075057,Correct,sub_006_day_07_data.csv,1,300,57.0,Training at home,,,,,,,,,,,,,
6,7,1450,B,38.714988791651905,26.19227437568096,1.9357494395825952,0.4114272837972373,A,2217.718400002923,Incorrect,sub_006_day_07_data.csv,0,300,58.0,Training at home,,,,,,,,,,,,,
6,7,1451,A,41.50645389061218,61.445906829440176,2.075322694530609,0.9651900474426608,A,786.6367999813519,Correct,sub_006_day_07_data.csv,1,300,58.0,Training at home,,,,,,,,,,,,,
6,7,1452,A,37.34315962564742,57.891855319412386,1.8671579812823709,0.9093631368707455,A,964.6753999986686,Correct,sub_006_day_07_data.csv,1,300,58.0,Training at home,,,,,,,,,,,,,
6,7,1453,A,42.14164587242185,66.71133176789968,2.1070822936210925,1.0478991489661251,A,566.0991999902762,Correct,sub_006_day_07_data.csv,1,300,58.0,Training at home,,,,,,,,,,,,,
6,7,1454,B,84.29308884023787,59.127907689866234,4.214654442011894,0.928779002103096,B,680.3395000169985,Correct,sub_006_day_07_data.csv,1,300,58.0,Training at home,,,,,,,,,,,,,
6,7,1455,A,32.77603440804416,61.95850715772855,1.638801720402208,0.9732419545705532,A,566.5877000137698,Correct,sub_006_day_07_data.csv,1,300,58.0,Training at home,,,,,,,,,,,,,
6,7,1456,B,63.52069396144192,54.475771124244694,3.1760346980720957,0.8557034118128306,B,600.8599000051618,Correct,sub_006_day_07_data.csv,1,300,58.0,Training at home,,,,,,,,,,,,,
6,7,1457,B,49.60648986851925,37.52894695382675,2.4803244934259623,0.5895033202355158,B,477.499100001296,Correct,sub_006_day_07_data.csv,1,300,58.0,Training at home,,,,,,,,,,,,,
6,7,1458,A,25.1280212845769,51.964651050095654,1.256401064228845,0.8162588299266882,B,713.6303999868687,Incorrect,sub_006_day_07_data.csv,0,300,58.0,Training at home,,,,,,,,,,,,,
6,7,1459,B,59.59691614998815,31.861900521546907,2.9798458074994074,0.5004855630395028,B,578.0935999937356,Correct,sub_006_day_07_data.csv,1,300,58.0,Training at home,,,,,,,,,,,,,
6,7,1460,A,26.06598523508867,58.39083357929229,1.3032992617544334,0.9172010690484445,A,680.9872000012547,Correct,sub_006_day_07_data.csv,1,300,58.0,Training at home,,,,,,,,,,,,,
6,7,1461,B,77.60914387666074,53.63404373544469,3.880457193833037,0.8424815889079336,B,467.3406999791041,Correct,sub_006_day_07_data.csv,1,300,58.0,Training at home,,,,,,,,,,,,,
6,7,1462,A,23.334614922864287,44.38870496481506,1.1667307461432144,0.6972561470991389,A,493.4431999863591,Correct,sub_006_day_07_data.csv,1,300,58.0,Training at home,,,,,,,,,,,,,
6,7,1463,B,40.56154272161528,25.81915294886202,2.028077136080764,0.4055663061302808,A,799.3703999964055,Incorrect,sub_006_day_07_data.csv,0,300,58.0,Training at home,,,,,,,,,,,,,
6,7,1464,B,84.28813315052754,54.58015850289084,4.214406657526377,0.8573431249222417,B,603.7206999899354,Correct,sub_006_day_07_data.csv,1,300,58.0,Training at home,,,,,,,,,,,,,
6,7,1465,B,78.32516748999785,58.752472218077926,3.916258374499893,0.9228816755027602,B,542.0946000085678,Correct,sub_006_day_07_data.csv,1,300,58.0,Training at home,,,,,,,,,,,,,
6,7,1466,A,62.20841001115549,86.59309859731827,3.1104205005577743,1.3602012120245586,A,745.5218000104651,Correct,sub_006_day_07_data.csv,1,300,58.0,Training at home,,,,,,,,,,,,,
6,7,1467,B,56.376258133685305,32.182612824769315,2.8188129066842653,0.5055233001180998,B,583.8418000203092,Correct,sub_006_day_07_data.csv,1,300,58.0,Training at home,,,,,,,,,,,,,
6,7,1468,B,52.63038932957464,30.67631012772698,2.631519466478732,0.4818623526825462,B,399.9618000234477,Correct,sub_006_day_07_data.csv,1,300,58.0,Training at home,,,,,,,,,,,,,
6,7,1469,A,56.30717405661519,72.62884854295153,2.8153587028307596,1.1408512851061114,A,728.2697000191547,Correct,sub_006_day_07_data.csv,1,300,58.0,Training at home,,,,,,,,,,,,,
6,7,1470,B,38.82317155360292,29.458265688521312,1.941158577680146,0.462729355372774,B,776.6206999949645,Correct,sub_006_day_07_data.csv,1,300,58.0,Training at home,,,,,,,,,,,,,
6,7,1471,B,82.82064646544542,62.27608712062241,4.141032323272271,0.9782304889623264,B,607.8224999946542,Correct,sub_006_day_07_data.csv,1,300,58.0,Training at home,,,,,,,,,,,,,
6,7,1472,B,41.5022018959587,19.208329860877026,2.075110094797935,0.3017237398933035,B,885.0731000129599,Correct,sub_006_day_07_data.csv,1,300,58.0,Training at home,,,,,,,,,,,,,
6,7,1473,A,16.005436852934913,37.47104417533062,0.8002718426467456,0.5885937855177865,A,726.2742000166327,Correct,sub_006_day_07_data.csv,1,300,58.0,Training at home,,,,,,,,,,,,,
6,7,1474,B,82.55884867442182,67.00148377552186,4.127942433721091,1.052456846043976,B,545.8306999935303,Correct,sub_006_day_07_data.csv,1,300,58.0,Training at home,,,,,,,,,,,,,
6,7,1475,A,23.328088921278223,45.06174234207347,1.1664044460639111,0.7078281934990707,A,546.3546999963,Correct,sub_006_day_07_data.csv,1,300,59.0,Training at home,,,,,,,,,,,,,
6,7,1476,B,40.35200361339376,21.317351627399873,2.0176001806696884,0.3348521763331493,B,923.625900002662,Correct,sub_006_day_07_data.csv,1,300,59.0,Training at home,,,,,,,,,,,,,
6,7,1477,A,32.85183628596104,63.272200890284275,1.642591814298052,0.9938774074668734,A,846.1978000123054,Correct,sub_006_day_07_data.csv,1,300,59.0,Training at home,,,,,,,,,,,,,
6,7,1478,B,71.44935096740666,42.11760658789045,3.5724675483703328,0.6615818172165084,B,547.1116999979131,Correct,sub_006_day_07_data.csv,1,300,59.0,Training at home,,,,,,,,,,,,,
6,7,1479,A,38.939258936255186,61.99287640187949,1.9469629468127592,0.9737818253952232,A,1007.8813000000082,Correct,sub_006_day_07_data.csv,1,300,59.0,Training at home,,,,,,,,,,,,,
6,7,1480,A,50.132924051392735,78.0225278877334,2.506646202569637,1.22557500213304,A,641.115299978992,Correct,sub_006_day_07_data.csv,1,300,59.0,Training at home,,,,,,,,,,,,,
6,7,1481,A,44.0844418205294,76.581042556975,2.20422209102647,1.2029322035062,A,693.9662999939173,Correct,sub_006_day_07_data.csv,1,300,59.0,Training at home,,,,,,,,,,,,,
6,7,1482,A,44.00156717265998,61.48875087565487,2.200078358632999,0.9658630401468516,A,646.2107999832369,Correct,sub_006_day_07_data.csv,1,300,59.0,Training at home,,,,,,,,,,,,,
6,7,1483,B,86.72809518462716,58.98568514666951,4.336404759231358,0.9265449756186876,B,646.0719000024255,Correct,sub_006_day_07_data.csv,1,300,59.0,Training at home,,,,,,,,,,,,,
6,7,1484,B,66.5262809996789,42.51962104930252,3.326314049983945,0.6678966456095538,B,1060.8939999947324,Correct,sub_006_day_07_data.csv,1,300,59.0,Training at home,,,,,,,,,,,,,
6,7,1485,A,61.2773969024687,85.84090911377785,3.063869845123435,1.3483858472465682,A,616.1921999882907,Correct,sub_006_day_07_data.csv,1,300,59.0,Training at home,,,,,,,,,,,,,
6,7,1486,B,86.18603868753617,57.2569681232096,4.309301934376808,0.8993903521135012,B,639.0369999862742,Correct,sub_006_day_07_data.csv,1,300,59.0,Training at home,,,,,,,,,,,,,
6,7,1487,A,55.23509774228832,73.97063025672169,2.7617548871144155,1.1619279429796188,A,997.9783000017052,Correct,sub_006_day_07_data.csv,1,300,59.0,Training at home,,,,,,,,,,,,,
6,7,1488,B,87.87843935451953,66.81101702180095,4.393921967725976,1.0494650012727624,B,825.6460000120569,Correct,sub_006_day_07_data.csv,1,300,59.0,Training at home,,,,,,,,,,,,,
6,7,1489,A,11.536536329203436,30.651934162255557,0.5768268164601718,0.4814794559123003,A,623.1212000129744,Correct,sub_006_day_07_data.csv,1,300,59.0,Training at home,,,,,,,,,,,,,
6,7,1490,B,40.57425480384801,29.311056106639935,2.0287127401924003,0.4604169926678913,B,728.2412000058684,Correct,sub_006_day_07_data.csv,1,300,59.0,Training at home,,,,,,,,,,,,,
6,7,1491,B,74.83153734570983,61.17209873684383,3.741576867285492,0.9608890799816902,B,1306.6696999885608,Correct,sub_006_day_07_data.csv,1,300,59.0,Training at home,,,,,,,,,,,,,
6,7,1492,A,66.73327276877065,85.59375643446324,3.336663638438532,1.344503582038319,A,677.7291999896988,Correct,sub_006_day_07_data.csv,1,300,59.0,Training at home,,,,,,,,,,,,,
6,7,1493,A,17.501645375669987,40.72220336312773,0.8750822687834995,0.6396628746179583,A,611.3259999838192,Correct,sub_006_day_07_data.csv,1,300,59.0,Training at home,,,,,,,,,,,,,
6,7,1494,A,49.45335845418895,72.9491957544204,2.4726679227094475,1.1458832873368543,A,758.7422000069637,Correct,sub_006_day_07_data.csv,1,300,59.0,Training at home,,,,,,,,,,,,,
6,7,1495,B,64.06142198719773,47.98411410698816,3.2030710993598865,0.7537327018376417,B,713.4899999946356,Correct,sub_006_day_07_data.csv,1,300,59.0,Training at home,,,,,,,,,,,,,
6,7,1496,B,32.26332910449399,16.011040421164243,1.6131664552246996,0.251500834817294,A,591.199200018309,Incorrect,sub_006_day_07_data.csv,0,300,59.0,Training at home,,,,,,,,,,,,,
6,7,1497,A,30.47854248461526,63.392054846258205,1.5239271242307633,0.9957600690048302,A,533.4611999860499,Correct,sub_006_day_07_data.csv,1,300,59.0,Training at home,,,,,,,,,,,,,
6,7,1498,A,34.283427168364526,60.42416221464575,1.7141713584182263,0.9491405205642452,A,1125.158899987582,Correct,sub_006_day_07_data.csv,1,300,59.0,Training at home,,,,,,,,,,,,,
6,7,1499,A,55.29017758141201,78.77806457844453,2.7645088790706005,1.2374429447183182,B,887.5406000006478,Incorrect,sub_006_day_07_data.csv,0,300,59.0,Training at home,,,,,,,,,,,,,
