subject,day,trial,cat,x,y,xt,yt,resp,rt,fb,f_name,acc,n_trials,block,session_type,ns_left_digit,ns_right_digit,ns_left_size,ns_right_size,ns_congruent,ns_cue,ns_correct_side,ns_resp,ns_rt,ns_fb,acc_stroop,acc_stroop_mean,resp_key
6,23,0,A,29.04806179044256,38.165005557658205,1.4524030895221278,0.5994945054207632,A,789.6621000254527,Correct,sub_006_day_23_data.csv,1,548,,Button-Switch at home,,,,,,,,,,,,,k
6,23,1,B,80.27256128710756,64.80623971736469,4.0136280643553786,1.01797403301426,A,1091.795100015588,Incorrect,sub_006_day_23_data.csv,0,548,,Button-Switch at home,,,,,,,,,,,,,k
6,23,2,A,46.11221924775944,77.8731396011255,2.305610962387972,1.2232284164143412,A,1250.521200010553,Correct,sub_006_day_23_data.csv,1,548,,Button-Switch at home,,,,,,,,,,,,,k
6,23,3,B,65.36813624204905,33.077246741656765,3.2684068121024525,0.5195761768228291,B,922.0848999684677,Correct,sub_006_day_23_data.csv,1,548,,Button-Switch at home,,,,,,,,,,,,,d
6,23,4,B,58.97362872366182,49.301398859681264,2.948681436183091,0.7744245623463744,A,1567.547199956607,Incorrect,sub_006_day_23_data.csv,0,548,,Button-Switch at home,,,,,,,,,,,,,k
6,23,5,A,28.589897069780037,38.078695547453144,1.4294948534890015,0.5981387509508058,A,1067.9887000005692,Correct,sub_006_day_23_data.csv,1,548,,Button-Switch at home,,,,,,,,,,,,,k
6,23,6,B,41.09259736146946,31.97174748211929,2.054629868073473,0.5022110350612696,B,1865.4908000025896,Correct,sub_006_day_23_data.csv,1,548,,Button-Switch at home,,,,,,,,,,,,,d
6,23,7,A,56.76297216702362,73.8589869427035,2.8381486083511813,1.1601742539039088,A,2623.187399993185,Correct,sub_006_day_23_data.csv,1,548,,Button-Switch at home,,,,,,,,,,,,,k
6,23,8,B,71.45763643500722,52.77588600155558,3.572881821750361,0.829001678745897,B,1754.409699991811,Correct,sub_006_day_23_data.csv,1,548,,Button-Switch at home,,,,,,,,,,,,,d
6,23,9,A,63.05418525199407,82.40517254604235,3.1527092625997035,1.2944174234422297,A,1324.5984999812208,Correct,sub_006_day_23_data.csv,1,548,,Button-Switch at home,,,,,,,,,,,,,k
6,23,10,A,60.00618026965726,83.78449327915229,3.000309013482863,1.3160837428526413,A,1260.7135999714956,Correct,sub_006_day_23_data.csv,1,548,,Button-Switch at home,,,,,,,,,,,,,k
6,23,11,B,76.52999979273928,53.28015685367245,3.826499989636963,0.8369227467680461,B,914.3851999542676,Correct,sub_006_day_23_data.csv,1,548,,Button-Switch at home,,,,,,,,,,,,,d
6,23,12,B,60.93713751892466,45.633052330377446,3.046856875946233,0.716802309809962,B,1563.822500000242,Correct,sub_006_day_23_data.csv,1,548,,Button-Switch at home,,,,,,,,,,,,,d
6,23,13,A,10.602128162039689,31.237644101146532,0.5301064081019844,0.4906797661180724,A,1256.3837000052445,Correct,sub_006_day_23_data.csv,1,548,,Button-Switch at home,,,,,,,,,,,,,k
6,23,14,A,21.121954669372705,34.83615515832821,1.056097733468635,0.5472050456235904,A,715.0304000242613,Correct,sub_006_day_23_data.csv,1,548,,Button-Switch at home,,,,,,,,,,,,,k
6,23,15,A,59.519229933860835,79.14036581894194,2.9759614966930417,1.243133959295984,B,942.6492999773473,Incorrect,sub_006_day_23_data.csv,0,548,,Button-Switch at home,,,,,,,,,,,,,d
6,23,16,B,75.04207348654676,63.756274721859945,3.752103674327338,1.0014812214322393,B,1878.991799952928,Correct,sub_006_day_23_data.csv,1,548,,Button-Switch at home,,,,,,,,,,,,,d
6,23,17,B,44.33867633591567,32.65983925679184,2.2169338167957835,0.5130195553828039,A,1171.573299972806,Incorrect,sub_006_day_23_data.csv,0,548,,Button-Switch at home,,,,,,,,,,,,,k
6,23,18,B,63.09929764076447,43.17160087362957,3.1549648820382235,0.6781379207415268,B,1537.3229999677278,Correct,sub_006_day_23_data.csv,1,548,,Button-Switch at home,,,,,,,,,,,,,d
6,23,19,A,25.6525843405592,49.710801400594605,1.28262921702796,0.780855442420846,A,1241.6367000550963,Correct,sub_006_day_23_data.csv,1,548,,Button-Switch at home,,,,,,,,,,,,,k
6,23,20,B,60.839469115622336,30.34992052351661,3.041973455781117,0.4767354367685693,B,1954.8040999798104,Correct,sub_006_day_23_data.csv,1,548,,Button-Switch at home,,,,,,,,,,,,,d
6,23,21,B,46.541719496541965,24.10662356789044,2.327085974827098,0.3786659575186958,B,1399.5678999926895,Correct,sub_006_day_23_data.csv,1,548,,Button-Switch at home,,,,,,,,,,,,,d
6,23,22,B,86.0457735517258,65.33252890886385,4.30228867758629,1.026240964302647,A,952.9720999998972,Incorrect,sub_006_day_23_data.csv,0,548,,Button-Switch at home,,,,,,,,,,,,,k
6,23,23,B,51.573137829384365,33.23413729158081,2.578656891469218,0.5220406078181242,A,1273.890400014352,Incorrect,sub_006_day_23_data.csv,0,548,,Button-Switch at home,,,,,,,,,,,,,k
6,23,24,B,34.135461843484364,12.453707581654808,1.706773092174218,0.1956223812424112,B,765.0377000099979,Correct,sub_006_day_23_data.csv,1,548,,Button-Switch at home,,,,,,,,,,,,,d
6,23,25,B,79.89192812988468,62.63325752646597,3.9945964064942334,0.9838409085777156,A,1394.527400028892,Incorrect,sub_006_day_23_data.csv,0,548,,Button-Switch at home,,,,,,,,,,,,,k
6,23,26,A,39.175882824085555,53.05440743646087,1.9587941412042775,0.8333766832147257,A,1561.8704999797046,Correct,sub_006_day_23_data.csv,1,548,,Button-Switch at home,,,,,,,,,,,,,k
6,23,27,B,73.84073511217252,51.764410487251936,3.692036755608626,0.8131134585207855,B,1691.0955000203105,Correct,sub_006_day_23_data.csv,1,548,,Button-Switch at home,,,,,,,,,,,,,d
6,23,28,B,67.56782909607595,59.45709008680444,3.378391454803798,0.9339497871026567,B,1806.1493000132032,Correct,sub_006_day_23_data.csv,1,548,,Button-Switch at home,,,,,,,,,,,,,d
6,23,29,B,36.041446391554544,19.88875864743587,1.802072319577727,0.312411890279025,A,1312.56150000263,Incorrect,sub_006_day_23_data.csv,0,548,,Button-Switch at home,,,,,,,,,,,,,k
6,23,30,A,33.003823174510096,44.78497248810073,1.650191158725505,0.7034807027991913,A,2637.8263999940827,Correct,sub_006_day_23_data.csv,1,548,,Button-Switch at home,,,,,,,,,,,,,k
6,23,31,B,44.84339469155367,33.13969111653594,2.2421697345776836,0.5205570507697213,B,1822.051199967973,Correct,sub_006_day_23_data.csv,1,548,,Button-Switch at home,,,,,,,,,,,,,d
6,23,32,B,41.85950178349857,27.57378702228968,2.0929750891749284,0.4331280337043742,B,1202.1446999860927,Correct,sub_006_day_23_data.csv,1,548,,Button-Switch at home,,,,,,,,,,,,,d
6,23,33,B,65.93801916152889,49.31385379167536,3.296900958076444,0.7746202039606425,A,1516.9176000053994,Incorrect,sub_006_day_23_data.csv,0,548,,Button-Switch at home,,,,,,,,,,,,,k
6,23,34,A,41.34346355019153,58.93350154241452,2.0671731775095763,0.925725277479861,B,978.8394999923185,Incorrect,sub_006_day_23_data.csv,0,548,,Button-Switch at home,,,,,,,,,,,,,d
6,23,35,A,42.02432992387972,70.15593118290298,2.101216496193986,1.1020067900497954,B,966.2283000070602,Incorrect,sub_006_day_23_data.csv,0,548,,Button-Switch at home,,,,,,,,,,,,,d
6,23,36,A,35.72587913464395,51.145866400102186,1.7862939567321974,0.8033973907202303,A,892.4279999919236,Correct,sub_006_day_23_data.csv,1,548,,Button-Switch at home,,,,,,,,,,,,,k
6,23,37,A,46.98291983894955,75.77955994625029,2.3491459919474775,1.190342544097036,A,1834.860300004948,Correct,sub_006_day_23_data.csv,1,548,,Button-Switch at home,,,,,,,,,,,,,k
6,23,38,A,35.62808196153726,62.66814832171366,1.781404098076863,0.9843889719078558,A,888.5765000013635,Correct,sub_006_day_23_data.csv,1,548,,Button-Switch at home,,,,,,,,,,,,,k
6,23,39,A,62.465031221473254,78.62717351972492,3.123251561073663,1.2350727535104886,A,1161.956799973268,Correct,sub_006_day_23_data.csv,1,548,,Button-Switch at home,,,,,,,,,,,,,k
6,23,40,B,73.23135931013854,53.09599380263455,3.661567965506927,0.8340299203270294,B,1167.9004000034183,Correct,sub_006_day_23_data.csv,1,548,,Button-Switch at home,,,,,,,,,,,,,d
6,23,41,A,22.732795213671256,50.85909724218186,1.1366397606835628,0.7988928313212371,B,809.3955999938771,Incorrect,sub_006_day_23_data.csv,0,548,,Button-Switch at home,,,,,,,,,,,,,d
6,23,42,B,36.81121172311062,25.988605868749033,1.8405605861555308,0.4082280663715127,B,1700.78640000429,Correct,sub_006_day_23_data.csv,1,548,,Button-Switch at home,,,,,,,,,,,,,d
6,23,43,A,32.37702774162413,51.1617473252449,1.618851387081207,0.8036468477090332,A,3391.5107999928296,Correct,sub_006_day_23_data.csv,1,548,,Button-Switch at home,,,,,,,,,,,,,k
6,23,44,A,53.68899174309744,69.82181637360742,2.6844495871548717,1.096758526898103,A,1712.6642999937758,Correct,sub_006_day_23_data.csv,1,548,,Button-Switch at home,,,,,,,,,,,,,k
6,23,45,B,83.06186719684777,65.26813256077835,4.153093359842388,1.0252294288323305,B,1243.330999976024,Correct,sub_006_day_23_data.csv,1,548,,Button-Switch at home,,,,,,,,,,,,,d
6,23,46,B,83.71637089999722,57.233267341215424,4.185818544999861,0.8990180611005152,B,1242.3072999808935,Correct,sub_006_day_23_data.csv,1,548,,Button-Switch at home,,,,,,,,,,,,,d
6,23,47,A,42.681513501745144,71.12599102540217,2.134075675087258,1.1172444544234852,A,945.5996000324376,Correct,sub_006_day_23_data.csv,1,548,,Button-Switch at home,,,,,,,,,,,,,k
6,23,48,A,29.960835602445265,47.41576807331301,1.4980417801222632,0.744805143217188,A,832.1363999857567,Correct,sub_006_day_23_data.csv,1,548,,Button-Switch at home,,,,,,,,,,,,,k
6,23,49,A,62.929669609157855,76.06430510555464,3.1464834804578925,1.1948153106001151,A,2232.8482000157237,Correct,sub_006_day_23_data.csv,1,548,,Button-Switch at home,,,,,,,,,,,,,k
6,23,50,A,60.84878078145033,86.43816101569993,3.0424390390725167,1.3577674581836727,A,689.0638000331819,Correct,sub_006_day_23_data.csv,1,548,,Button-Switch at home,,,,,,,,,,,,,k
6,23,51,A,45.84596823440148,75.03882212065187,2.292298411720074,1.1787070615413555,A,1072.7986000129022,Correct,sub_006_day_23_data.csv,1,548,,Button-Switch at home,,,,,,,,,,,,,k
6,23,52,B,80.46821553827715,52.295284812014955,4.023410776913858,0.8214524129140602,B,839.1525999759324,Correct,sub_006_day_23_data.csv,1,548,,Button-Switch at home,,,,,,,,,,,,,d
6,23,53,A,44.886392392227265,61.66102742099046,2.244319619611363,0.968569153792912,A,1632.595199975185,Correct,sub_006_day_23_data.csv,1,548,,Button-Switch at home,,,,,,,,,,,,,k
6,23,54,A,16.54072300679363,39.176288478681215,0.8270361503396815,0.6153797003976967,B,1041.535299969837,Incorrect,sub_006_day_23_data.csv,0,548,,Button-Switch at home,,,,,,,,,,,,,d
6,23,55,A,49.6137203827345,70.61827653771279,2.480686019136725,1.1092692939002549,B,1221.7946000164377,Incorrect,sub_006_day_23_data.csv,0,548,,Button-Switch at home,,,,,,,,,,,,,d
6,23,56,B,71.18440321875865,60.650238044984306,3.559220160937932,0.9526917114029744,B,1712.9571000114083,Correct,sub_006_day_23_data.csv,1,548,,Button-Switch at home,,,,,,,,,,,,,d
6,23,57,A,31.011826733250203,41.63556800941275,1.55059133666251,0.6540099729320465,A,1765.151400002651,Correct,sub_006_day_23_data.csv,1,548,,Button-Switch at home,,,,,,,,,,,,,k
6,23,58,A,46.283137383363126,58.4207843428084,2.314156869168156,0.9176715345416024,A,1752.7458000113256,Correct,sub_006_day_23_data.csv,1,548,,Button-Switch at home,,,,,,,,,,,,,k
6,23,59,B,46.74437480652288,34.24170181333058,2.337218740326144,0.5378673943158583,B,1147.8574000066146,Correct,sub_006_day_23_data.csv,1,548,,Button-Switch at home,,,,,,,,,,,,,d
6,23,60,B,66.20893734210753,37.0185756455195,3.310446867105377,0.5814864264716104,B,924.9421000131406,Correct,sub_006_day_23_data.csv,1,548,,Button-Switch at home,,,,,,,,,,,,,d
6,23,61,B,64.15158590409006,38.86002696355547,3.2075792952045026,0.6104118761350357,B,739.7033000015654,Correct,sub_006_day_23_data.csv,1,548,,Button-Switch at home,,,,,,,,,,,,,d
6,23,62,A,36.679483534894054,49.15885693943656,1.8339741767447024,0.7721855190990277,A,2434.7564000054263,Correct,sub_006_day_23_data.csv,1,548,,Button-Switch at home,,,,,,,,,,,,,k
6,23,63,A,55.17528161472118,64.46402490032538,2.758764080736059,1.0125985352384586,B,685.4348999913782,Incorrect,sub_006_day_23_data.csv,0,548,,Button-Switch at home,,,,,,,,,,,,,d
6,23,64,B,55.98675323533219,47.74188627446845,2.799337661766609,0.7499277959419473,A,1215.6064999871887,Incorrect,sub_006_day_23_data.csv,0,548,,Button-Switch at home,,,,,,,,,,,,,k
6,23,65,B,55.01778871601062,44.09301533196098,2.750889435800531,0.6926114652075536,A,716.3820000132546,Incorrect,sub_006_day_23_data.csv,0,548,,Button-Switch at home,,,,,,,,,,,,,k
6,23,66,A,55.6657321039381,67.77721437808069,2.783286605196905,1.0646419938547942,A,1133.1904000253417,Correct,sub_006_day_23_data.csv,1,548,,Button-Switch at home,,,,,,,,,,,,,k
6,23,67,B,80.18196960647686,50.86812860864039,4.009098480323843,0.7990346956938272,B,888.5226999991573,Correct,sub_006_day_23_data.csv,1,548,,Button-Switch at home,,,,,,,,,,,,,d
6,23,68,B,82.58292737644705,58.042812103606245,4.129146368822353,0.9117343604919106,B,756.4722000388429,Correct,sub_006_day_23_data.csv,1,548,,Button-Switch at home,,,,,,,,,,,,,d
6,23,69,B,54.52153788141866,29.444125615683575,2.726076894070933,0.4625072436280328,B,929.8718000063672,Correct,sub_006_day_23_data.csv,1,548,,Button-Switch at home,,,,,,,,,,,,,d
6,23,70,B,73.78901457616303,45.96461616440675,3.689450728808151,0.7220105023358746,B,1071.312999993097,Correct,sub_006_day_23_data.csv,1,548,,Button-Switch at home,,,,,,,,,,,,,d
6,23,71,A,46.80158756566416,60.998210252580456,2.340079378283208,0.958157646058162,A,1198.353899992071,Correct,sub_006_day_23_data.csv,1,548,,Button-Switch at home,,,,,,,,,,,,,k
6,23,72,B,36.69841663179565,14.134338281626729,1.8349208315897827,0.2220216665445575,B,3151.9485999597237,Correct,sub_006_day_23_data.csv,1,548,,Button-Switch at home,,,,,,,,,,,,,d
6,23,73,A,22.50642251124873,34.4340110380391,1.1253211255624362,0.5408881805536675,B,1329.3286999687552,Incorrect,sub_006_day_23_data.csv,0,548,,Button-Switch at home,,,,,,,,,,,,,d
6,23,74,A,35.611629848464034,50.449036101642136,1.7805814924232015,0.792451605988026,B,994.3483000388368,Incorrect,sub_006_day_23_data.csv,0,548,,Button-Switch at home,,,,,,,,,,,,,d
6,23,75,B,67.91556514621736,38.6903399268289,3.395778257310868,0.6077464383950877,B,672.291100025177,Correct,sub_006_day_23_data.csv,1,548,,Button-Switch at home,,,,,,,,,,,,,d
6,23,76,A,44.8650349054034,71.78945548614439,2.24325174527017,1.1276661298024135,A,1698.1866999994963,Correct,sub_006_day_23_data.csv,1,548,,Button-Switch at home,,,,,,,,,,,,,k
6,23,77,B,77.45272938477288,64.8717397466942,3.872636469238644,1.0190029050690177,A,1698.4710000106134,Incorrect,sub_006_day_23_data.csv,0,548,,Button-Switch at home,,,,,,,,,,,,,k
6,23,78,A,54.52236166394162,66.61464896366081,2.7261180831970813,1.0463804590284989,B,1641.9262999552302,Incorrect,sub_006_day_23_data.csv,0,548,,Button-Switch at home,,,,,,,,,,,,,d
6,23,79,B,56.22899382973295,31.176879637997505,2.8114496914866476,0.4897252801629308,B,1645.177699974738,Correct,sub_006_day_23_data.csv,1,548,,Button-Switch at home,,,,,,,,,,,,,d
6,23,80,B,53.82541336585235,42.208537303666944,2.6912706682926175,0.663010153559854,B,933.348999998998,Correct,sub_006_day_23_data.csv,1,548,,Button-Switch at home,,,,,,,,,,,,,d
6,23,81,A,67.10895621733738,87.42967474631547,3.355447810866869,1.3733421194438489,A,793.9497000188567,Correct,sub_006_day_23_data.csv,1,548,,Button-Switch at home,,,,,,,,,,,,,k
6,23,82,B,63.50483484426923,45.72643453705651,3.175241742213462,0.7182691540823566,B,997.9590000002644,Correct,sub_006_day_23_data.csv,1,548,,Button-Switch at home,,,,,,,,,,,,,d
6,23,83,A,41.23235144871134,61.744970943214135,2.061617572435567,0.969887735556584,A,2139.305600023363,Correct,sub_006_day_23_data.csv,1,548,,Button-Switch at home,,,,,,,,,,,,,k
6,23,84,A,58.000209849322616,85.29218325791238,2.900010492466131,1.3397664816584596,A,1354.1701000067403,Correct,sub_006_day_23_data.csv,1,548,,Button-Switch at home,,,,,,,,,,,,,k
6,23,85,A,23.11206232885195,54.966121532539695,1.1556031164425975,0.8634058180147522,A,1300.5735999904573,Correct,sub_006_day_23_data.csv,1,548,,Button-Switch at home,,,,,,,,,,,,,k
6,23,86,A,55.27825086244624,84.85111350236457,2.7639125431223124,1.3328381741397113,A,1048.4268000000156,Correct,sub_006_day_23_data.csv,1,548,,Button-Switch at home,,,,,,,,,,,,,k
6,23,87,B,77.64629016248172,61.55116729502957,3.882314508124086,0.9668434749697062,B,2386.1740000429563,Correct,sub_006_day_23_data.csv,1,548,,Button-Switch at home,,,,,,,,,,,,,d
6,23,88,A,56.816841780145396,83.20622166511106,2.84084208900727,1.3070002735803838,A,2002.945100015495,Correct,sub_006_day_23_data.csv,1,548,,Button-Switch at home,,,,,,,,,,,,,k
6,23,89,A,23.21390801972745,48.91423687367853,1.1606954009863726,0.7683430360914971,A,2290.101299993694,Correct,sub_006_day_23_data.csv,1,548,,Button-Switch at home,,,,,,,,,,,,,k
6,23,90,A,36.830029399865566,54.0995632621463,1.8415014699932784,0.8497939525338754,B,1035.5029000202194,Incorrect,sub_006_day_23_data.csv,0,548,,Button-Switch at home,,,,,,,,,,,,,d
6,23,91,A,25.865495888917707,53.338527010514206,1.2932747944458851,0.8378396230476609,A,644.5490000187419,Correct,sub_006_day_23_data.csv,1,548,,Button-Switch at home,,,,,,,,,,,,,k
6,23,92,A,64.95274033596601,84.66895660732416,3.247637016798301,1.3299768603234128,B,1190.2273999876345,Incorrect,sub_006_day_23_data.csv,0,548,,Button-Switch at home,,,,,,,,,,,,,d
6,23,93,A,50.69709162448538,57.801345802385406,2.534854581224269,0.9079414167018862,B,1005.3701000288128,Incorrect,sub_006_day_23_data.csv,0,548,,Button-Switch at home,,,,,,,,,,,,,d
6,23,94,B,86.20797163626341,62.015604859399026,4.310398581813171,0.9741388431710772,A,519.4581999676302,Incorrect,sub_006_day_23_data.csv,0,548,,Button-Switch at home,,,,,,,,,,,,,k
6,23,95,B,73.05904911076375,40.96220110220015,3.652952455538187,0.6434327502876985,B,1649.0621999837458,Correct,sub_006_day_23_data.csv,1,548,,Button-Switch at home,,,,,,,,,,,,,d
6,23,96,A,42.98296988956331,50.43470348188826,2.149148494478166,0.7922264697233986,A,2734.75469998084,Correct,sub_006_day_23_data.csv,1,548,,Button-Switch at home,,,,,,,,,,,,,k
6,23,97,B,38.18776776422983,22.31283971436763,1.9093883882114917,0.3504892666369196,A,1155.57699999772,Incorrect,sub_006_day_23_data.csv,0,548,,Button-Switch at home,,,,,,,,,,,,,k
6,23,98,B,54.77046276494401,42.18947124052119,2.7385231382472006,0.6627106645402961,B,1971.200299973134,Correct,sub_006_day_23_data.csv,1,548,,Button-Switch at home,,,,,,,,,,,,,d
6,23,99,B,69.63157624009327,52.4426607351968,3.481578812004664,0.8237673885019808,B,1190.3365000034682,Correct,sub_006_day_23_data.csv,1,548,,Button-Switch at home,,,,,,,,,,,,,d
6,23,100,B,46.83164789733269,30.77784154977605,2.3415823948666343,0.4834572045306356,B,2892.4554000259377,Correct,sub_006_day_23_data.csv,1,548,,Button-Switch at home,,,,,,,,,,,,,d
6,23,101,B,45.423271396904624,32.15980291888722,2.271163569845231,0.5051650029543584,B,829.602400015574,Correct,sub_006_day_23_data.csv,1,548,,Button-Switch at home,,,,,,,,,,,,,d
6,23,102,B,48.365923786514,32.743924664523625,2.4182961893257,0.5143403658788253,B,778.2791000208817,Correct,sub_006_day_23_data.csv,1,548,,Button-Switch at home,,,,,,,,,,,,,d
6,23,103,B,59.1765577489569,36.310878894768095,2.9588278874478453,0.5703699519059606,B,707.9578000120819,Correct,sub_006_day_23_data.csv,1,548,,Button-Switch at home,,,,,,,,,,,,,d
6,23,104,A,20.777899085982295,49.685751389097575,1.0388949542991148,0.7804619577603891,A,935.8941999962552,Correct,sub_006_day_23_data.csv,1,548,,Button-Switch at home,,,,,,,,,,,,,k
6,23,105,A,25.51521968613847,58.30866996154992,1.2757609843069233,0.9159104459589852,A,456.26290002837777,Correct,sub_006_day_23_data.csv,1,548,,Button-Switch at home,,,,,,,,,,,,,k
6,23,106,B,74.71576766184155,63.306983359655966,3.7357883830920775,0.9944237692181324,B,1223.0656000319868,Correct,sub_006_day_23_data.csv,1,548,,Button-Switch at home,,,,,,,,,,,,,d
6,23,107,A,25.771384736006777,57.33930848960317,1.2885692368003387,0.900683751564281,A,884.9810999818146,Correct,sub_006_day_23_data.csv,1,548,,Button-Switch at home,,,,,,,,,,,,,k
6,23,108,B,42.04490658106026,29.572339590288763,2.102245329053013,0.4645212240315688,B,1817.6815999904647,Correct,sub_006_day_23_data.csv,1,548,,Button-Switch at home,,,,,,,,,,,,,d
6,23,109,A,57.02350646732138,68.15126831462852,2.8511753233660695,1.0705176193503192,A,1840.741199965123,Correct,sub_006_day_23_data.csv,1,548,,Button-Switch at home,,,,,,,,,,,,,k
6,23,110,A,47.08881435773964,68.03851791108306,2.354440717886982,1.0687465401529803,A,1925.587999983691,Correct,sub_006_day_23_data.csv,1,548,,Button-Switch at home,,,,,,,,,,,,,k
6,23,111,B,37.395840696992266,13.503445187614478,1.869792034849613,0.2121116209978104,B,842.3331000376493,Correct,sub_006_day_23_data.csv,1,548,,Button-Switch at home,,,,,,,,,,,,,d
6,23,112,B,52.40502464778842,29.787151052580978,2.620251232389421,0.4678954745907893,B,1178.2262000488115,Correct,sub_006_day_23_data.csv,1,548,,Button-Switch at home,,,,,,,,,,,,,d
6,23,113,A,59.00344353861879,67.95917456944503,2.9501721769309395,1.067500217856974,A,699.3481999961659,Correct,sub_006_day_23_data.csv,1,548,,Button-Switch at home,,,,,,,,,,,,,k
6,23,114,B,72.52020882101996,39.97956433920723,3.6260104410509983,0.6279975281088697,A,1339.5551000139676,Incorrect,sub_006_day_23_data.csv,0,548,,Button-Switch at home,,,,,,,,,,,,,k
6,23,115,B,85.23565261132765,69.4911254587666,4.261782630566382,1.091564046154739,B,891.2799999816343,Correct,sub_006_day_23_data.csv,1,548,,Button-Switch at home,,,,,,,,,,,,,d
6,23,116,B,62.40486014889296,42.365735402663994,3.120243007444648,0.6654794155246911,B,705.7550000026822,Correct,sub_006_day_23_data.csv,1,548,,Button-Switch at home,,,,,,,,,,,,,d
6,23,117,A,55.12282216337486,70.46081725369426,2.756141108168743,1.106795929250694,A,1315.8922999864444,Correct,sub_006_day_23_data.csv,1,548,,Button-Switch at home,,,,,,,,,,,,,k
6,23,118,B,60.94245979093996,37.38383720351733,3.047122989546998,0.5872239416078342,A,3511.073900037445,Incorrect,sub_006_day_23_data.csv,0,548,,Button-Switch at home,,,,,,,,,,,,,k
6,23,119,A,56.308935640148874,69.34208927131586,2.815446782007444,1.0892229911966675,A,1328.2299000420608,Correct,sub_006_day_23_data.csv,1,548,,Button-Switch at home,,,,,,,,,,,,,k
6,23,120,A,35.812420359534705,60.93234142238699,1.7906210179767357,0.95712298089298,B,1318.2441999670118,Incorrect,sub_006_day_23_data.csv,0,548,,Button-Switch at home,,,,,,,,,,,,,d
6,23,121,B,61.62177612125795,48.29240102179685,3.0810888060628976,0.758575261371446,A,1189.9490999639966,Incorrect,sub_006_day_23_data.csv,0,548,,Button-Switch at home,,,,,,,,,,,,,k
6,23,122,B,54.3164093084352,28.224268964994216,2.7158204654217597,0.4433457801668411,B,726.5521999797784,Correct,sub_006_day_23_data.csv,1,548,,Button-Switch at home,,,,,,,,,,,,,d
6,23,123,B,78.68455856376028,54.11918262938534,3.934227928188014,0.8501021328338066,B,1161.6857000044547,Correct,sub_006_day_23_data.csv,1,548,,Button-Switch at home,,,,,,,,,,,,,d
6,23,124,B,82.62308308346402,59.23066956042109,4.131154154173202,0.9303931817911172,B,714.5875000278465,Correct,sub_006_day_23_data.csv,1,548,,Button-Switch at home,,,,,,,,,,,,,d
6,23,125,B,59.41507560388232,42.18491304210434,2.970753780194116,0.6626390645269963,B,1045.4579999786802,Correct,sub_006_day_23_data.csv,1,548,,Button-Switch at home,,,,,,,,,,,,,d
6,23,126,A,68.89631327191198,86.41034866429767,3.444815663595599,1.3573305827894508,A,805.8153999736533,Correct,sub_006_day_23_data.csv,1,548,,Button-Switch at home,,,,,,,,,,,,,k
6,23,127,B,35.06353182262532,18.86640585511588,1.753176591131266,0.2963528101703776,B,1259.988100035116,Correct,sub_006_day_23_data.csv,1,548,,Button-Switch at home,,,,,,,,,,,,,d
6,23,128,A,54.51087646959308,63.35695392131086,2.725543823479654,0.995208704965086,A,945.3630999778396,Correct,sub_006_day_23_data.csv,1,548,,Button-Switch at home,,,,,,,,,,,,,k
6,23,129,A,54.225436580478686,80.10162082085655,2.7112718290239344,1.2582333175571907,B,724.4110999745317,Incorrect,sub_006_day_23_data.csv,0,548,,Button-Switch at home,,,,,,,,,,,,,d
6,23,130,A,53.389298572506945,63.99704809692987,2.6694649286253473,1.0052632807637376,A,801.577800011728,Correct,sub_006_day_23_data.csv,1,548,,Button-Switch at home,,,,,,,,,,,,,k
6,23,131,B,83.32928451831806,59.401492343314,4.166464225915903,0.933076459790128,A,1650.6119999685325,Incorrect,sub_006_day_23_data.csv,0,548,,Button-Switch at home,,,,,,,,,,,,,k
6,23,132,B,49.919796765988366,26.860172071529384,2.495989838299418,0.4219185962703723,B,516.3254999788478,Correct,sub_006_day_23_data.csv,1,548,,Button-Switch at home,,,,,,,,,,,,,d
6,23,133,B,52.586700402835405,23.123877602138386,2.6293350201417702,0.3632290199869376,B,746.8626000336371,Correct,sub_006_day_23_data.csv,1,548,,Button-Switch at home,,,,,,,,,,,,,d
6,23,134,A,20.557517787536167,49.17673050058092,1.0278758893768083,0.7724662763409508,A,1099.855199980084,Correct,sub_006_day_23_data.csv,1,548,,Button-Switch at home,,,,,,,,,,,,,k
6,23,135,A,40.81614046061082,69.4110686592802,2.040807023030541,1.090306516889057,A,1524.2999999900348,Correct,sub_006_day_23_data.csv,1,548,,Button-Switch at home,,,,,,,,,,,,,k
6,23,136,A,24.853508927518256,40.08691655695557,1.2426754463759129,0.6296838128019934,A,639.6361000370234,Correct,sub_006_day_23_data.csv,1,548,,Button-Switch at home,,,,,,,,,,,,,k
6,23,137,A,60.336641601741846,74.13589852023681,3.0168320800870925,1.164523970792272,A,1001.267799991183,Correct,sub_006_day_23_data.csv,1,548,,Button-Switch at home,,,,,,,,,,,,,k
6,23,138,A,22.816883588573056,39.46432949711675,1.1408441794286528,0.6199042381349448,A,537.5781000475399,Correct,sub_006_day_23_data.csv,1,548,,Button-Switch at home,,,,,,,,,,,,,k
6,23,139,A,44.97976793521214,74.22780537957172,2.248988396760607,1.1659676403627774,A,1609.487399982754,Correct,sub_006_day_23_data.csv,1,548,,Button-Switch at home,,,,,,,,,,,,,k
6,23,140,A,46.08279015724117,67.4681047131948,2.3041395078620583,1.0597865105929984,A,977.7694999938832,Correct,sub_006_day_23_data.csv,1,548,,Button-Switch at home,,,,,,,,,,,,,k
6,23,141,A,33.724425713516325,44.035272159526215,1.6862212856758163,0.6917044375759736,A,734.9738000193611,Correct,sub_006_day_23_data.csv,1,548,,Button-Switch at home,,,,,,,,,,,,,k
6,23,142,A,13.420566333265404,33.99849705823809,0.6710283166632703,0.5340471429562749,A,962.7192000043578,Correct,sub_006_day_23_data.csv,1,548,,Button-Switch at home,,,,,,,,,,,,,k
6,23,143,B,31.468012481411336,15.475752145049931,1.5734006240705667,0.2430925462383267,B,1942.7260999800635,Correct,sub_006_day_23_data.csv,1,548,,Button-Switch at home,,,,,,,,,,,,,d
6,23,144,A,36.93417663276591,63.00645747289026,1.8467088316382956,0.9897031196277488,A,1003.0493999947794,Correct,sub_006_day_23_data.csv,1,548,,Button-Switch at home,,,,,,,,,,,,,k
6,23,145,B,57.615597641189126,38.59729887683005,2.880779882059457,0.6062849529992944,B,1372.3797999555245,Correct,sub_006_day_23_data.csv,1,548,,Button-Switch at home,,,,,,,,,,,,,d
6,23,146,A,53.27605235967871,81.32731069824717,2.663802617983935,1.2774864091291394,B,652.9389999923296,Incorrect,sub_006_day_23_data.csv,0,548,,Button-Switch at home,,,,,,,,,,,,,d
6,23,147,A,20.15631723784993,41.82662708428287,1.0078158618924962,0.6570111218621146,B,739.7975999629125,Incorrect,sub_006_day_23_data.csv,0,548,,Button-Switch at home,,,,,,,,,,,,,d
6,23,148,A,47.86595131192261,54.49928811288194,2.3932975655961304,0.8560728158065173,A,892.375199997332,Correct,sub_006_day_23_data.csv,1,548,,Button-Switch at home,,,,,,,,,,,,,k
6,23,149,A,50.37244772552539,67.87785835465029,2.5186223862762693,1.0662229057418895,A,545.0549999950454,Correct,sub_006_day_23_data.csv,1,548,,Button-Switch at home,,,,,,,,,,,,,k
6,23,150,A,40.719477813406435,50.13409365118423,2.0359738906703218,0.7875045015447153,B,1198.2900999719277,Incorrect,sub_006_day_23_data.csv,0,548,,Button-Switch at home,,,,,,,,,,,,,d
6,23,151,A,45.625299161331206,54.93165711417936,2.2812649580665605,0.8628644521970967,A,2047.398499969859,Correct,sub_006_day_23_data.csv,1,548,,Button-Switch at home,,,,,,,,,,,,,k
6,23,152,B,70.85807524086874,41.48152283224239,3.542903762043437,0.6515902369474498,B,1735.4021000210196,Correct,sub_006_day_23_data.csv,1,548,,Button-Switch at home,,,,,,,,,,,,,d
6,23,153,B,51.34916801780989,23.153591046975187,2.567458400890495,0.3636957576869982,B,813.387000001967,Correct,sub_006_day_23_data.csv,1,548,,Button-Switch at home,,,,,,,,,,,,,d
6,23,154,B,34.28494716413663,17.04383795199724,1.7142473582068316,0.2677239804948472,B,1115.8133000135422,Correct,sub_006_day_23_data.csv,1,548,,Button-Switch at home,,,,,,,,,,,,,d
6,23,155,A,38.06462536496652,63.305300285660664,1.9032312682483257,0.9943973315536369,A,943.452299979981,Correct,sub_006_day_23_data.csv,1,548,,Button-Switch at home,,,,,,,,,,,,,k
6,23,156,A,49.48869367583523,75.27550473496272,2.474434683791762,1.182424863353113,A,1675.511799985543,Correct,sub_006_day_23_data.csv,1,548,,Button-Switch at home,,,,,,,,,,,,,k
6,23,157,A,67.53436274758477,80.68174689817977,3.376718137379238,1.2673459166705632,A,2492.3115000128746,Correct,sub_006_day_23_data.csv,1,548,,Button-Switch at home,,,,,,,,,,,,,k
6,23,158,A,26.711672804707653,58.761577645703525,1.335583640235383,0.923024703225442,A,1533.5071999579668,Correct,sub_006_day_23_data.csv,1,548,,Button-Switch at home,,,,,,,,,,,,,k
6,23,159,A,40.27549940332408,52.844107279484994,2.0137749701662044,0.830073296073705,A,1642.1531999949366,Correct,sub_006_day_23_data.csv,1,548,,Button-Switch at home,,,,,,,,,,,,,k
6,23,160,B,84.96406865280179,63.32951368014124,4.248203432640089,0.9947776746647302,A,546.9936999725178,Incorrect,sub_006_day_23_data.csv,0,548,,Button-Switch at home,,,,,,,,,,,,,k
6,23,161,B,78.2987606573195,64.37556514667972,3.914938032865975,1.0112090126775009,B,545.0380999827757,Correct,sub_006_day_23_data.csv,1,548,,Button-Switch at home,,,,,,,,,,,,,d
6,23,162,B,67.85497214300163,49.05217973947461,3.392748607150082,0.7705098375604977,B,1196.1136999889277,Correct,sub_006_day_23_data.csv,1,548,,Button-Switch at home,,,,,,,,,,,,,d
6,23,163,A,25.610266946751437,39.95349423986498,1.2805133473375718,0.6275880199460098,A,2592.3885999945924,Correct,sub_006_day_23_data.csv,1,548,,Button-Switch at home,,,,,,,,,,,,,k
6,23,164,B,67.48453611273791,46.24690155647261,3.374226805636896,0.7264446309055236,B,1443.0321999825535,Correct,sub_006_day_23_data.csv,1,548,,Button-Switch at home,,,,,,,,,,,,,d
6,23,165,B,74.93267359760597,63.6986004351284,3.7466336798802984,1.0005752758547548,B,1382.958600006532,Correct,sub_006_day_23_data.csv,1,548,,Button-Switch at home,,,,,,,,,,,,,d
6,23,166,A,41.36640301211876,69.33556353781205,2.068320150605938,1.0891204852144931,B,682.3729000170715,Incorrect,sub_006_day_23_data.csv,0,548,,Button-Switch at home,,,,,,,,,,,,,d
6,23,167,A,54.605957428318504,81.92706607729781,2.7302978714159254,1.2869073445930217,B,555.1620000042021,Incorrect,sub_006_day_23_data.csv,0,548,,Button-Switch at home,,,,,,,,,,,,,d
6,23,168,B,86.27447121847233,69.08086690226207,4.313723560923616,1.085119719818804,B,3576.3926000217907,Correct,sub_006_day_23_data.csv,1,548,,Button-Switch at home,,,,,,,,,,,,,d
6,23,169,B,59.92597479257629,47.05796147681619,2.9962987396288145,0.7391847303423863,B,1408.2288999925368,Correct,sub_006_day_23_data.csv,1,548,,Button-Switch at home,,,,,,,,,,,,,d
6,23,170,B,37.98980410416111,13.090001388880374,1.8994902052080556,0.2056172609939338,B,1350.5853000096977,Correct,sub_006_day_23_data.csv,1,548,,Button-Switch at home,,,,,,,,,,,,,d
6,23,171,B,34.599824946526795,22.517236453750527,1.7299912473263397,0.3536999231112347,B,1011.6096999845468,Correct,sub_006_day_23_data.csv,1,548,,Button-Switch at home,,,,,,,,,,,,,d
6,23,172,A,22.75966504378857,39.26330440301682,1.1379832521894284,0.6167465433408871,A,1075.3081999719143,Correct,sub_006_day_23_data.csv,1,548,,Button-Switch at home,,,,,,,,,,,,,k
6,23,173,A,48.02512483949529,65.20705097339273,2.4012562419747643,1.0242699615013289,A,2356.9050999940373,Correct,sub_006_day_23_data.csv,1,548,,Button-Switch at home,,,,,,,,,,,,,k
6,23,174,B,68.01052088741541,54.63611306179284,3.4005260443707703,0.8582220570781487,B,2465.938000008464,Correct,sub_006_day_23_data.csv,1,548,,Button-Switch at home,,,,,,,,,,,,,d
6,23,175,A,12.206311504431454,31.750573145003877,0.6103155752215728,0.4987368366980478,A,704.8982999986038,Correct,sub_006_day_23_data.csv,1,548,,Button-Switch at home,,,,,,,,,,,,,k
6,23,176,B,88.53261989647022,69.18000978733207,4.426630994823511,1.086677052615762,B,823.6634000204504,Correct,sub_006_day_23_data.csv,1,548,,Button-Switch at home,,,,,,,,,,,,,d
6,23,177,A,12.805150421018825,34.485354390106764,0.6402575210509411,0.5416946800419997,A,629.1589000029489,Correct,sub_006_day_23_data.csv,1,548,,Button-Switch at home,,,,,,,,,,,,,k
6,23,178,B,65.75718313283886,41.45876830394751,3.287859156641943,0.6512328096528144,B,985.7549000298604,Correct,sub_006_day_23_data.csv,1,548,,Button-Switch at home,,,,,,,,,,,,,d
6,23,179,A,29.50240302605504,56.85629899941351,1.475120151302752,0.893096656234311,A,1084.986999980174,Correct,sub_006_day_23_data.csv,1,548,,Button-Switch at home,,,,,,,,,,,,,k
6,23,180,A,30.916636782315297,45.768103090092374,1.5458318391157646,0.7189236821828727,A,669.5406999788247,Correct,sub_006_day_23_data.csv,1,548,,Button-Switch at home,,,,,,,,,,,,,k
6,23,181,A,14.09960243824496,33.03895231942579,0.704980121912248,0.5189746494450576,A,700.8242000010796,Correct,sub_006_day_23_data.csv,1,548,,Button-Switch at home,,,,,,,,,,,,,k
6,23,182,A,13.302111869561704,32.14383972570549,0.6651055934780851,0.5049142537022205,A,656.9635000196286,Correct,sub_006_day_23_data.csv,1,548,,Button-Switch at home,,,,,,,,,,,,,k
6,23,183,A,17.444647838773736,33.02528851265694,0.8722323919386867,0.5187600188702322,A,2404.3710000114515,Correct,sub_006_day_23_data.csv,1,548,,Button-Switch at home,,,,,,,,,,,,,k
6,23,184,B,35.014561001323756,11.495201742723136,1.7507280500661877,0.1805662067323579,B,1159.9951999960467,Correct,sub_006_day_23_data.csv,1,548,,Button-Switch at home,,,,,,,,,,,,,d
6,23,185,B,88.19538308764037,61.11194865930358,4.409769154382018,0.9599442447731236,B,1029.7602000064217,Correct,sub_006_day_23_data.csv,1,548,,Button-Switch at home,,,,,,,,,,,,,d
6,23,186,B,58.61612192563069,42.18016655715756,2.9308060962815343,0.6625645069158004,B,728.1672999961302,Correct,sub_006_day_23_data.csv,1,548,,Button-Switch at home,,,,,,,,,,,,,d
6,23,187,B,54.262750912624035,24.809702091177627,2.713137545631202,0.3897098891369748,B,616.6170000215061,Correct,sub_006_day_23_data.csv,1,548,,Button-Switch at home,,,,,,,,,,,,,d
6,23,188,A,38.27785821601296,63.177001418097994,1.913892910800648,0.9923820176546432,A,2631.2614000053145,Correct,sub_006_day_23_data.csv,1,548,,Button-Switch at home,,,,,,,,,,,,,k
6,23,189,A,30.922573673581677,54.26661198670139,1.546128683679084,0.8524179477631445,A,817.9949000477791,Correct,sub_006_day_23_data.csv,1,548,,Button-Switch at home,,,,,,,,,,,,,k
6,23,190,B,77.98906102557743,54.40978946173061,3.899453051278871,0.8546669742817011,B,1140.2073000208477,Correct,sub_006_day_23_data.csv,1,548,,Button-Switch at home,,,,,,,,,,,,,d
6,23,191,A,36.57837762716005,59.42283488413592,1.8289188813580024,0.9334117076374034,A,1761.8596000247635,Correct,sub_006_day_23_data.csv,1,548,,Button-Switch at home,,,,,,,,,,,,,k
6,23,192,A,57.99492363801035,71.16643856187285,2.8997461819005173,1.1178798028406454,A,873.5713999485597,Correct,sub_006_day_23_data.csv,1,548,,Button-Switch at home,,,,,,,,,,,,,k
6,23,193,B,63.840472346615215,35.44994849316899,3.192023617330761,0.5568464887813813,B,2025.873699982185,Correct,sub_006_day_23_data.csv,1,548,,Button-Switch at home,,,,,,,,,,,,,d
6,23,194,B,68.04699130070476,51.644918189797096,3.4023495650352378,0.8112364779015622,A,1917.153399961535,Incorrect,sub_006_day_23_data.csv,0,548,,Button-Switch at home,,,,,,,,,,,,,k
6,23,195,A,56.50879068305842,78.99689606548993,2.825439534152921,1.240880341678698,A,1126.343599986285,Correct,sub_006_day_23_data.csv,1,548,,Button-Switch at home,,,,,,,,,,,,,k
6,23,196,B,61.251607372662754,41.49362017399522,3.0625803686331374,0.6517802615473431,B,1315.728300018236,Correct,sub_006_day_23_data.csv,1,548,,Button-Switch at home,,,,,,,,,,,,,d
6,23,197,B,49.163876244442555,33.719172205743696,2.458193812222128,0.5296595184334676,B,2375.5214999546297,Correct,sub_006_day_23_data.csv,1,548,,Button-Switch at home,,,,,,,,,,,,,d
6,23,198,B,76.37094979632312,63.87813483055524,3.818547489816156,1.003395395543453,A,1632.888099993579,Incorrect,sub_006_day_23_data.csv,0,548,,Button-Switch at home,,,,,,,,,,,,,k
6,23,199,B,54.1173003156335,25.996173802250446,2.705865015781675,0.4083469431929672,B,3117.2597000258975,Correct,sub_006_day_23_data.csv,1,548,,Button-Switch at home,,,,,,,,,,,,,d
6,23,200,A,44.14823654762146,62.94978725465505,2.207411827381073,0.9888129459213234,A,3281.2326999846846,Correct,sub_006_day_23_data.csv,1,548,,Button-Switch at home,,,,,,,,,,,,,k
6,23,201,B,39.70215598948053,25.961810308729294,1.9851077994740265,0.4078071626989786,B,1400.1436000107788,Correct,sub_006_day_23_data.csv,1,548,,Button-Switch at home,,,,,,,,,,,,,d
6,23,202,A,49.46824343426908,66.75892987498834,2.473412171713454,1.0486468182838975,A,1969.1759999841452,Correct,sub_006_day_23_data.csv,1,548,,Button-Switch at home,,,,,,,,,,,,,k
6,23,203,A,69.20974850299781,86.0191397205429,3.4604874251498905,1.3511854870708575,B,867.4891000264324,Incorrect,sub_006_day_23_data.csv,0,548,,Button-Switch at home,,,,,,,,,,,,,d
6,23,204,B,37.70009637540963,19.518528918207895,1.8850048187704815,0.3065963352916093,B,835.7997000566684,Correct,sub_006_day_23_data.csv,1,548,,Button-Switch at home,,,,,,,,,,,,,d
6,23,205,B,41.7207754318858,19.99118309808581,2.0860387715942896,0.3140207697875741,B,766.5656000026502,Correct,sub_006_day_23_data.csv,1,548,,Button-Switch at home,,,,,,,,,,,,,d
6,23,206,A,50.45700366234322,75.65039632755665,2.522850183117161,1.1883136467190412,A,882.4414000264369,Correct,sub_006_day_23_data.csv,1,548,,Button-Switch at home,,,,,,,,,,,,,k
6,23,207,B,54.52622243991525,42.34066343881427,2.7263111219957623,0.6650855860374842,B,3468.6813000007533,Correct,sub_006_day_23_data.csv,1,548,,Button-Switch at home,,,,,,,,,,,,,d
6,23,208,B,56.79539483657942,48.09116383690642,2.839769741828971,0.7554142350630416,B,4288.8418000075035,Correct,sub_006_day_23_data.csv,1,548,,Button-Switch at home,,,,,,,,,,,,,d
6,23,209,B,56.47066882305408,48.92998422579576,2.8235334411527044,0.768590394920122,B,1461.2551999744028,Correct,sub_006_day_23_data.csv,1,548,,Button-Switch at home,,,,,,,,,,,,,d
6,23,210,B,73.6531568905007,41.60509432546523,3.682657844525034,0.6535312934239598,B,827.0934000029229,Correct,sub_006_day_23_data.csv,1,548,,Button-Switch at home,,,,,,,,,,,,,d
6,23,211,B,45.80058586405559,18.450576182787348,2.2900292932027795,0.2898209729517177,A,679.5882000005804,Incorrect,sub_006_day_23_data.csv,0,548,,Button-Switch at home,,,,,,,,,,,,,k
6,23,212,B,49.04333457376687,27.97985627742284,2.4521667286883435,0.4395065546482491,B,755.4271999979392,Correct,sub_006_day_23_data.csv,1,548,,Button-Switch at home,,,,,,,,,,,,,d
6,23,213,B,65.41710815840631,32.931831006607226,3.270855407920316,0.5172919917980892,B,1051.855899975635,Correct,sub_006_day_23_data.csv,1,548,,Button-Switch at home,,,,,,,,,,,,,d
6,23,214,A,14.693965130463251,36.40895485773152,0.7346982565231626,0.5719105255296587,A,1300.4887999850323,Correct,sub_006_day_23_data.csv,1,548,,Button-Switch at home,,,,,,,,,,,,,k
6,23,215,A,15.783444486752664,42.124746393369904,0.7891722243376332,0.6616939690187201,A,567.5527999992482,Correct,sub_006_day_23_data.csv,1,548,,Button-Switch at home,,,,,,,,,,,,,k
6,23,216,A,45.41118813324263,59.70154734553396,2.2705594066621315,0.9377897127433636,B,842.9745999746956,Incorrect,sub_006_day_23_data.csv,0,548,,Button-Switch at home,,,,,,,,,,,,,d
6,23,217,A,49.486761710165226,79.1531929146408,2.4743380855082613,1.243335446844056,A,708.1233999924734,Correct,sub_006_day_23_data.csv,1,548,,Button-Switch at home,,,,,,,,,,,,,k
6,23,218,B,63.99629074763192,35.71789968851183,3.1998145373815965,0.5610554563154295,B,1309.2066999524832,Correct,sub_006_day_23_data.csv,1,548,,Button-Switch at home,,,,,,,,,,,,,d
6,23,219,B,41.815251027908374,33.04570409595567,2.090762551395419,0.5190807061027823,B,1829.2358999606224,Correct,sub_006_day_23_data.csv,1,548,,Button-Switch at home,,,,,,,,,,,,,d
6,23,220,B,69.97209372773145,50.76998987767245,3.4986046863865727,0.7974931361126195,B,2911.1397999804467,Correct,sub_006_day_23_data.csv,1,548,,Button-Switch at home,,,,,,,,,,,,,d
6,23,221,A,26.31168896058023,47.23381383376684,1.3155844480290115,0.7419470127059493,A,1241.130799986422,Correct,sub_006_day_23_data.csv,1,548,,Button-Switch at home,,,,,,,,,,,,,k
6,23,222,A,23.561138338994095,53.079893440797015,1.1780569169497048,0.8337770164346848,A,2301.2653999612667,Correct,sub_006_day_23_data.csv,1,548,,Button-Switch at home,,,,,,,,,,,,,k
6,23,223,B,80.17904916847412,58.16199906010455,4.008952458423706,0.9136065448266046,B,844.0478999982588,Correct,sub_006_day_23_data.csv,1,548,,Button-Switch at home,,,,,,,,,,,,,d
6,23,224,B,63.700087312813935,39.02582239428619,3.185004365640697,0.6130161846709477,B,865.6434000004083,Correct,sub_006_day_23_data.csv,1,548,,Button-Switch at home,,,,,,,,,,,,,d
6,23,225,B,59.727925262985295,27.33564043400744,2.986396263149265,0.4293872358432493,B,1111.453999998048,Correct,sub_006_day_23_data.csv,1,548,,Button-Switch at home,,,,,,,,,,,,,d
6,23,226,B,84.46342080349541,61.366640688080494,4.223171040174771,0.9639449378057908,B,2107.714899990242,Correct,sub_006_day_23_data.csv,1,548,,Button-Switch at home,,,,,,,,,,,,,d
6,23,227,A,35.3267847646968,55.42318090106693,1.76633923823484,0.8705852897868499,A,1428.7537999916822,Correct,sub_006_day_23_data.csv,1,548,,Button-Switch at home,,,,,,,,,,,,,k
6,23,228,A,66.262984144065,78.26049978879773,3.3131492072032502,1.2293130560137626,A,2106.4369000378065,Correct,sub_006_day_23_data.csv,1,548,,Button-Switch at home,,,,,,,,,,,,,k
6,23,229,B,47.08665792423447,19.652765924603955,2.354332896211724,0.308704925257278,B,1164.0436999732628,Correct,sub_006_day_23_data.csv,1,548,,Button-Switch at home,,,,,,,,,,,,,d
6,23,230,B,58.99650342483646,30.353464364730986,2.949825171241823,0.4767911032961922,B,1509.0127000003122,Correct,sub_006_day_23_data.csv,1,548,,Button-Switch at home,,,,,,,,,,,,,d
6,23,231,A,36.18184813132458,64.88373405255635,1.809092406566229,1.019191311184925,A,1167.865100025665,Correct,sub_006_day_23_data.csv,1,548,,Button-Switch at home,,,,,,,,,,,,,k
6,23,232,A,65.56561380715968,76.73020351209253,3.278280690357984,1.2052752183101985,A,862.2536999755539,Correct,sub_006_day_23_data.csv,1,548,,Button-Switch at home,,,,,,,,,,,,,k
6,23,233,A,17.88766732673522,39.175334608345345,0.894383366336761,0.6153647170374986,A,784.1308999923058,Correct,sub_006_day_23_data.csv,1,548,,Button-Switch at home,,,,,,,,,,,,,k
6,23,234,B,36.03325499657943,16.84038394947839,1.8016627498289717,0.2645281324965639,B,1845.936300000176,Correct,sub_006_day_23_data.csv,1,548,,Button-Switch at home,,,,,,,,,,,,,d
6,23,235,A,54.81015408430399,80.62712071851561,2.740507704215199,1.26648785064693,A,2059.802100004162,Correct,sub_006_day_23_data.csv,1,548,,Button-Switch at home,,,,,,,,,,,,,k
6,23,236,B,46.44256301462091,34.862124099190325,2.322128150731045,0.54761296479276,B,2345.1694000395946,Correct,sub_006_day_23_data.csv,1,548,,Button-Switch at home,,,,,,,,,,,,,d
6,23,237,B,66.81563988125997,34.17088627438879,3.340781994062999,0.5367550264313605,B,1766.9393999967724,Correct,sub_006_day_23_data.csv,1,548,,Button-Switch at home,,,,,,,,,,,,,d
6,23,238,B,31.853365806365055,18.07902905238238,1.5926682903182527,0.2839847242750046,B,1156.0287000029348,Correct,sub_006_day_23_data.csv,1,548,,Button-Switch at home,,,,,,,,,,,,,d
6,23,239,A,39.86214835841972,53.65453949944627,1.9931074179209856,0.842803535616019,A,1477.5673999683931,Correct,sub_006_day_23_data.csv,1,548,,Button-Switch at home,,,,,,,,,,,,,k
6,23,240,A,14.128162060497264,35.09712822938653,0.7064081030248631,0.5513044010376983,A,661.6234999964945,Correct,sub_006_day_23_data.csv,1,548,,Button-Switch at home,,,,,,,,,,,,,k
6,23,241,A,26.53376013714044,48.6327368309595,1.326688006857022,0.7639212437605407,A,901.8711000098848,Correct,sub_006_day_23_data.csv,1,548,,Button-Switch at home,,,,,,,,,,,,,k
6,23,242,A,65.6247836519437,89.30781532089077,3.2812391825971847,1.402843882601322,A,2701.731299981475,Correct,sub_006_day_23_data.csv,1,548,,Button-Switch at home,,,,,,,,,,,,,k
6,23,243,A,41.13290780537746,51.63914131511224,2.056645390268873,0.8111457349662089,A,2261.934799957089,Correct,sub_006_day_23_data.csv,1,548,,Button-Switch at home,,,,,,,,,,,,,k
6,23,244,A,22.752652535452068,47.65732433516607,1.1376326267726034,0.748599500105519,A,832.6261999900453,Correct,sub_006_day_23_data.csv,1,548,,Button-Switch at home,,,,,,,,,,,,,k
6,23,245,B,80.54467939515236,60.26637531253152,4.027233969757618,0.9466620097016716,B,1847.0212999964133,Correct,sub_006_day_23_data.csv,1,548,,Button-Switch at home,,,,,,,,,,,,,d
6,23,246,A,48.25004679478697,62.46800140096025,2.412502339739348,0.981245071428468,A,931.0468999901786,Correct,sub_006_day_23_data.csv,1,548,,Button-Switch at home,,,,,,,,,,,,,k
6,23,247,B,38.54697209947308,20.973782704546657,1.927348604973654,0.3294554083129621,B,1686.621000000741,Correct,sub_006_day_23_data.csv,1,548,,Button-Switch at home,,,,,,,,,,,,,d
6,23,248,A,28.72196009476528,58.31234150488097,1.436098004738264,0.915968118426766,A,1155.243200017139,Correct,sub_006_day_23_data.csv,1,548,,Button-Switch at home,,,,,,,,,,,,,k
6,23,249,B,79.67909893481577,47.88320758749321,3.9839549467407886,0.7521476659359186,B,1148.1584000284784,Correct,sub_006_day_23_data.csv,1,548,,Button-Switch at home,,,,,,,,,,,,,d
6,23,250,A,44.49087569554583,56.669853442028575,2.224543784777292,0.890167976267436,B,1383.0886000068858,Incorrect,sub_006_day_23_data.csv,0,548,,Button-Switch at home,,,,,,,,,,,,,d
6,23,251,B,33.187647434796375,12.14185439575994,1.6593823717398186,0.1907238028533818,B,886.5188999916427,Correct,sub_006_day_23_data.csv,1,548,,Button-Switch at home,,,,,,,,,,,,,d
6,23,252,B,68.28320300162645,46.32464100641939,3.414160150081323,0.7276657593297582,B,970.3653000178748,Correct,sub_006_day_23_data.csv,1,548,,Button-Switch at home,,,,,,,,,,,,,d
6,23,253,A,45.57739975583863,66.95017424887918,2.278869987791931,1.0516508778841769,A,831.3382000196725,Correct,sub_006_day_23_data.csv,1,548,,Button-Switch at home,,,,,,,,,,,,,k
6,23,254,A,50.89218422789687,66.54041205932381,2.544609211394844,1.0452143484620469,A,1657.9683999880217,Correct,sub_006_day_23_data.csv,1,548,,Button-Switch at home,,,,,,,,,,,,,k
6,23,255,B,64.12712864159481,34.66860581342817,3.2063564320797404,0.5445731866683317,B,1584.141900006216,Correct,sub_006_day_23_data.csv,1,548,,Button-Switch at home,,,,,,,,,,,,,d
6,23,256,B,70.73422891844444,55.91154036235285,3.536711445922222,0.8782564222662846,A,1326.8768999841996,Incorrect,sub_006_day_23_data.csv,0,548,,Button-Switch at home,,,,,,,,,,,,,k
6,23,257,A,18.323031348706472,47.869849076911066,0.9161515674353236,0.7519378309423796,A,1258.6061999900269,Correct,sub_006_day_23_data.csv,1,548,,Button-Switch at home,,,,,,,,,,,,,k
6,23,258,A,46.51020574733217,59.568318592616905,2.3255102873666087,0.9356969603863078,A,2343.3447999996133,Correct,sub_006_day_23_data.csv,1,548,,Button-Switch at home,,,,,,,,,,,,,k
6,23,259,A,24.535743829398065,48.00031485513186,1.2267871914699031,0.7539871825943963,B,1644.5842999964952,Incorrect,sub_006_day_23_data.csv,0,548,,Button-Switch at home,,,,,,,,,,,,,d
6,23,260,B,57.38907872754284,35.93784861524278,2.8694539363771416,0.5645104059773441,B,927.1765999728814,Correct,sub_006_day_23_data.csv,1,548,,Button-Switch at home,,,,,,,,,,,,,d
6,23,261,A,35.572474702478836,54.21743861658534,1.7786237351239418,0.8516455342716003,A,1050.3677999950014,Correct,sub_006_day_23_data.csv,1,548,,Button-Switch at home,,,,,,,,,,,,,k
6,23,262,A,28.73637410599204,41.42990486136685,1.4368187052996018,0.6507794237569708,A,1125.2537000109442,Correct,sub_006_day_23_data.csv,1,548,,Button-Switch at home,,,,,,,,,,,,,k
6,23,263,A,22.735919466886315,52.98912263724704,1.1367959733443158,0.8323511919867195,A,1135.015600011684,Correct,sub_006_day_23_data.csv,1,548,,Button-Switch at home,,,,,,,,,,,,,k
6,23,264,B,66.88770542093208,34.59809962024771,3.344385271046604,0.5434656779756901,B,1090.5722999596037,Correct,sub_006_day_23_data.csv,1,548,,Button-Switch at home,,,,,,,,,,,,,d
6,23,265,B,86.38647427327247,69.4104640090526,4.319323713663624,1.090297019065492,A,1702.3597999941558,Incorrect,sub_006_day_23_data.csv,0,548,,Button-Switch at home,,,,,,,,,,,,,k
6,23,266,B,50.41800509309685,37.82964024351055,2.5209002546548422,0.5942265993847877,B,1003.77790001221,Correct,sub_006_day_23_data.csv,1,548,,Button-Switch at home,,,,,,,,,,,,,d
6,23,267,A,47.2410735432355,59.54268395987686,2.362053677161775,0.9352942925168398,A,1144.6988999960013,Correct,sub_006_day_23_data.csv,1,548,,Button-Switch at home,,,,,,,,,,,,,k
6,23,268,B,59.43019813677694,44.46160376172961,2.971509906838847,0.6984012387233504,B,3469.6875999798067,Correct,sub_006_day_23_data.csv,1,548,,Button-Switch at home,,,,,,,,,,,,,d
6,23,269,A,46.96810377969949,69.06077455354009,2.348405188984975,1.0848041099431125,B,1583.9264000533149,Incorrect,sub_006_day_23_data.csv,0,548,,Button-Switch at home,,,,,,,,,,,,,d
6,23,270,B,50.52279580363682,40.116604349217525,2.526139790181841,0.6301501475523507,B,951.9473999971524,Correct,sub_006_day_23_data.csv,1,548,,Button-Switch at home,,,,,,,,,,,,,d
6,23,271,A,65.51549711867283,84.93872621575441,3.2757748559336415,1.3342143914234443,A,1599.7331999824382,Correct,sub_006_day_23_data.csv,1,548,,Button-Switch at home,,,,,,,,,,,,,k
6,23,272,A,47.303934454491554,55.12918642418225,2.3651967227245776,0.8659672353429656,A,1497.9890000540763,Correct,sub_006_day_23_data.csv,1,548,,Button-Switch at home,,,,,,,,,,,,,k
6,23,273,B,49.55012507792082,23.353530423851986,2.477506253896041,0.3668363980747955,B,2863.1837000139058,Correct,sub_006_day_23_data.csv,1,548,,Button-Switch at home,,,,,,,,,,,,,d
6,23,274,B,46.168001854324025,19.429408459590434,2.308400092716201,0.3051964344012234,B,1713.6318000266328,Correct,sub_006_day_23_data.csv,1,548,,Button-Switch at home,,,,,,,,,,,,,d
6,23,275,B,49.549706149806184,27.068145346434584,2.47748530749031,0.4251854328332982,B,2296.307499986142,Correct,sub_006_day_23_data.csv,1,548,,Button-Switch at home,,,,,,,,,,,,,d
6,23,276,B,69.90316529899779,53.22904105244712,3.4951582649498896,0.8361198216399869,B,2744.201300025452,Correct,sub_006_day_23_data.csv,1,548,,Button-Switch at home,,,,,,,,,,,,,d
6,23,277,A,49.78566930154344,61.0825276265049,2.489283465077172,0.9594821002706168,A,1655.8557999669574,Correct,sub_006_day_23_data.csv,1,548,,Button-Switch at home,,,,,,,,,,,,,k
6,23,278,B,46.64134323268179,37.06475048285118,2.3320671616340896,0.58221173912032,B,1147.1345000318252,Correct,sub_006_day_23_data.csv,1,548,,Button-Switch at home,,,,,,,,,,,,,d
6,23,279,B,69.65275899885366,51.830621329251954,3.4826379499426827,0.8141534959948618,B,2955.623599991668,Correct,sub_006_day_23_data.csv,1,548,,Button-Switch at home,,,,,,,,,,,,,d
6,23,280,A,43.65768414707106,65.63651029216032,2.182884207353553,1.0310158927056086,A,3130.498400016222,Correct,sub_006_day_23_data.csv,1,548,,Button-Switch at home,,,,,,,,,,,,,k
6,23,281,A,16.06719143509228,33.62787233385066,0.803359571754614,0.5282253833994035,A,1783.5903000086546,Correct,sub_006_day_23_data.csv,1,548,,Button-Switch at home,,,,,,,,,,,,,k
6,23,282,A,14.435349138941415,32.83705912577304,0.7217674569470708,0.5158033185751112,A,844.9635999859311,Correct,sub_006_day_23_data.csv,1,548,,Button-Switch at home,,,,,,,,,,,,,k
6,23,283,B,84.83593062939403,62.61949596413078,4.241796531469702,0.9836247424620448,B,1044.7864000452682,Correct,sub_006_day_23_data.csv,1,548,,Button-Switch at home,,,,,,,,,,,,,d
6,23,284,A,38.172668993037995,57.28724962697672,1.9086334496518995,0.8998660128623734,A,1146.9647000194527,Correct,sub_006_day_23_data.csv,1,548,,Button-Switch at home,,,,,,,,,,,,,k
6,23,285,A,64.69846089363924,74.90035902736602,3.2349230446819615,1.1765320883580557,A,920.5018999637103,Correct,sub_006_day_23_data.csv,1,548,,Button-Switch at home,,,,,,,,,,,,,k
6,23,286,A,47.98749402058743,58.64356164719799,2.3993747010293713,0.9211709122558868,A,787.3328999849036,Correct,sub_006_day_23_data.csv,1,548,,Button-Switch at home,,,,,,,,,,,,,k
6,23,287,A,24.896515970113747,53.557478019368354,1.2448257985056872,0.8412788974522223,A,937.6203999854624,Correct,sub_006_day_23_data.csv,1,548,,Button-Switch at home,,,,,,,,,,,,,k
6,23,288,B,37.56390483197268,11.524038378556543,1.8781952415986336,0.1810191715488003,B,715.0524000171572,Correct,sub_006_day_23_data.csv,1,548,,Button-Switch at home,,,,,,,,,,,,,d
6,23,289,B,61.808947207944925,33.44787021946732,3.0904473603972464,0.5253979167985168,A,1981.262399989646,Incorrect,sub_006_day_23_data.csv,0,548,,Button-Switch at home,,,,,,,,,,,,,k
6,23,290,A,44.32165014107766,58.27206069233451,2.216082507053883,0.9153353889028834,A,1348.3985000057146,Correct,sub_006_day_23_data.csv,1,548,,Button-Switch at home,,,,,,,,,,,,,k
6,23,291,A,33.57065520590761,57.30965686546379,1.6785327602953806,0.9002179849414645,A,1240.8068999648094,Correct,sub_006_day_23_data.csv,1,548,,Button-Switch at home,,,,,,,,,,,,,k
6,23,292,B,32.769405027814244,14.378477263249067,1.638470251390712,0.2258565927001557,B,992.5073999911548,Correct,sub_006_day_23_data.csv,1,548,,Button-Switch at home,,,,,,,,,,,,,d
6,23,293,A,41.28800002157529,60.730151619943186,2.0644000010787646,0.9539469909030388,A,1016.435300000012,Correct,sub_006_day_23_data.csv,1,548,,Button-Switch at home,,,,,,,,,,,,,k
6,23,294,A,48.6001360125665,62.07075602267184,2.430006800628325,0.9750051556179514,A,1852.957899973262,Correct,sub_006_day_23_data.csv,1,548,,Button-Switch at home,,,,,,,,,,,,,k
6,23,295,A,21.61746430296508,35.539337684782936,1.080873215148254,0.5582506109198048,A,1255.1701000193134,Correct,sub_006_day_23_data.csv,1,548,,Button-Switch at home,,,,,,,,,,,,,k
6,23,296,A,35.062850746666385,61.67749868842889,1.7531425373333192,0.9688278838568114,A,869.4252999848686,Correct,sub_006_day_23_data.csv,1,548,,Button-Switch at home,,,,,,,,,,,,,k
6,23,297,A,14.704096392030674,36.19979935271611,0.7352048196015337,0.5686251185395873,A,1394.0632999874651,Correct,sub_006_day_23_data.csv,1,548,,Button-Switch at home,,,,,,,,,,,,,k
6,23,298,B,73.58721720169495,51.09249858717862,3.679360860084748,0.8025590910751361,B,2004.1876999894157,Correct,sub_006_day_23_data.csv,1,548,,Button-Switch at home,,,,,,,,,,,,,d
6,23,299,B,79.14494394642087,61.737968415167245,3.957247197321044,0.9697777401032404,B,1919.9281999608504,Correct,sub_006_day_23_data.csv,1,548,,Button-Switch at home,,,,,,,,,,,,,d
6,23,300,A,55.304776283621166,76.20808182476657,2.765238814181058,1.1970737500242823,A,1607.198400015477,Correct,sub_006_day_23_data.csv,1,548,,Button-Switch at home,,,,,,,,,,,,,k
6,23,301,A,30.15667902466344,43.37492147877897,1.507833951233172,0.6813316733388307,A,3385.058799991384,Correct,sub_006_day_23_data.csv,1,548,,Button-Switch at home,,,,,,,,,,,,,k
6,23,302,B,33.97996987736769,18.275717858272408,1.6989984938683844,0.287074304813142,B,876.3135999906808,Correct,sub_006_day_23_data.csv,1,548,,Button-Switch at home,,,,,,,,,,,,,d
6,23,303,B,62.16842391479246,51.401021422973486,3.108421195739623,0.8074053564471253,B,1604.7979000140913,Correct,sub_006_day_23_data.csv,1,548,,Button-Switch at home,,,,,,,,,,,,,d
6,23,304,B,69.84065102446229,37.01793438404216,3.4920325512231147,0.5814763535598793,B,926.3589999754912,Correct,sub_006_day_23_data.csv,1,548,,Button-Switch at home,,,,,,,,,,,,,d
6,23,305,B,38.45328815173222,17.623460370557538,1.9226644075866108,0.276828668154872,B,812.4648000230081,Correct,sub_006_day_23_data.csv,1,548,,Button-Switch at home,,,,,,,,,,,,,d
6,23,306,B,48.024865906375375,33.14615491508591,2.401243295318769,0.5206585838799155,B,843.2909999974072,Correct,sub_006_day_23_data.csv,1,548,,Button-Switch at home,,,,,,,,,,,,,d
6,23,307,B,80.85681419325661,57.474201955105514,4.04284070966283,0.902802653165478,B,1227.616999996826,Correct,sub_006_day_23_data.csv,1,548,,Button-Switch at home,,,,,,,,,,,,,d
6,23,308,B,64.35273929287446,45.275713490576095,3.217636964643723,0.7111892444401509,B,1579.4746999745255,Correct,sub_006_day_23_data.csv,1,548,,Button-Switch at home,,,,,,,,,,,,,d
6,23,309,B,35.77096377150062,21.630510316820292,1.788548188575031,0.3397712615236043,B,1250.185499957297,Correct,sub_006_day_23_data.csv,1,548,,Button-Switch at home,,,,,,,,,,,,,d
6,23,310,B,39.19514854845268,17.96784520213883,1.9597574274226337,0.2822382524393897,B,2430.1915999967605,Correct,sub_006_day_23_data.csv,1,548,,Button-Switch at home,,,,,,,,,,,,,d
6,23,311,A,23.048961926108813,51.29727886875826,1.1524480963054409,0.8057757722161893,A,1428.1607999582775,Correct,sub_006_day_23_data.csv,1,548,,Button-Switch at home,,,,,,,,,,,,,k
6,23,312,B,81.01664869283827,53.0818894582475,4.050832434641913,0.8338083698034792,B,6517.54000002984,Correct,sub_006_day_23_data.csv,1,548,,Button-Switch at home,,,,,,,,,,,,,d
6,23,313,B,69.0240900114933,51.993383715139146,3.451204500574665,0.8167101615737816,B,4597.36640000483,Correct,sub_006_day_23_data.csv,1,548,,Button-Switch at home,,,,,,,,,,,,,d
6,23,314,B,52.270801371867186,28.17636532564605,2.6135400685933594,0.442593311559559,B,1271.6218999703417,Correct,sub_006_day_23_data.csv,1,548,,Button-Switch at home,,,,,,,,,,,,,d
6,23,315,A,21.38918434112195,48.003358791620826,1.0694592170560977,0.7540349966369551,A,949.5183000108228,Correct,sub_006_day_23_data.csv,1,548,,Button-Switch at home,,,,,,,,,,,,,k
6,23,316,B,53.82773263337186,25.17963459131247,2.691386631668593,0.3955207752607134,B,3500.2560000284575,Correct,sub_006_day_23_data.csv,1,548,,Button-Switch at home,,,,,,,,,,,,,d
6,23,317,B,70.942097988221,44.81750099228878,3.5471048994110497,0.7039916593481383,B,1716.943999985233,Correct,sub_006_day_23_data.csv,1,548,,Button-Switch at home,,,,,,,,,,,,,d
6,23,318,A,37.34890151661403,62.319984089913305,1.8674450758307015,0.9789200209435224,A,1770.305800018832,Correct,sub_006_day_23_data.csv,1,548,,Button-Switch at home,,,,,,,,,,,,,k
6,23,319,B,75.77540515433735,55.61846411497959,3.788770257716868,0.873652791337837,B,789.6762999589555,Correct,sub_006_day_23_data.csv,1,548,,Button-Switch at home,,,,,,,,,,,,,d
6,23,320,B,50.24860570361541,25.395809738589744,2.5124302851807703,0.3989164465335883,B,1881.433799979277,Correct,sub_006_day_23_data.csv,1,548,,Button-Switch at home,,,,,,,,,,,,,d
6,23,321,B,81.16408041821352,53.474430944977456,4.058204020910676,0.8399743970581793,A,1358.2775000249967,Incorrect,sub_006_day_23_data.csv,0,548,,Button-Switch at home,,,,,,,,,,,,,k
6,23,322,A,44.07190418924907,76.21293891050188,2.2035952094624536,1.197150044948602,A,1563.6474000057206,Correct,sub_006_day_23_data.csv,1,548,,Button-Switch at home,,,,,,,,,,,,,k
6,23,323,A,17.71644196435046,46.20333251151935,0.8858220982175229,0.7257602499477782,A,1450.332399981562,Correct,sub_006_day_23_data.csv,1,548,,Button-Switch at home,,,,,,,,,,,,,k
6,23,324,B,78.9250030412677,52.861130198991226,3.946250152063385,0.8303406914680219,B,3327.823800034821,Correct,sub_006_day_23_data.csv,1,548,,Button-Switch at home,,,,,,,,,,,,,d
6,23,325,B,49.52168768949845,26.441004467879424,2.4760843844749223,0.4153343269491245,A,2881.302800029516,Incorrect,sub_006_day_23_data.csv,0,548,,Button-Switch at home,,,,,,,,,,,,,k
6,23,326,B,35.334583770775794,19.65600829062921,1.7667291885387897,0.3087558562237039,B,2246.6406999737956,Correct,sub_006_day_23_data.csv,1,548,,Button-Switch at home,,,,,,,,,,,,,d
6,23,327,B,52.759674794841935,22.563167160210533,2.6379837397420967,0.3544214009611794,B,981.2597000272943,Correct,sub_006_day_23_data.csv,1,548,,Button-Switch at home,,,,,,,,,,,,,d
6,23,328,A,35.62836705052368,60.33154215132077,1.781418352526184,0.9476856480116612,A,1232.4577000108548,Correct,sub_006_day_23_data.csv,1,548,,Button-Switch at home,,,,,,,,,,,,,k
6,23,329,B,62.84889278909857,39.56751809199517,3.1424446394549284,0.6215251207929662,B,1312.1643000049517,Correct,sub_006_day_23_data.csv,1,548,,Button-Switch at home,,,,,,,,,,,,,d
6,23,330,B,55.65528843161997,38.02604660953288,2.782764421580999,0.5973117433678578,B,947.4224000005051,Correct,sub_006_day_23_data.csv,1,548,,Button-Switch at home,,,,,,,,,,,,,d
6,23,331,A,28.58895072633141,53.10028722789695,1.4294475363165704,0.834097361293345,B,1482.572800014168,Incorrect,sub_006_day_23_data.csv,0,548,,Button-Switch at home,,,,,,,,,,,,,d
6,23,332,B,64.17520516461397,32.198950009592856,3.208760258230699,0.5057799240172096,B,953.0433000181802,Correct,sub_006_day_23_data.csv,1,548,,Button-Switch at home,,,,,,,,,,,,,d
6,23,333,B,35.19232858338129,14.9459817649296,1.7596164291690644,0.2347709325669491,B,1007.7717000385746,Correct,sub_006_day_23_data.csv,1,548,,Button-Switch at home,,,,,,,,,,,,,d
6,23,334,A,31.470890197984332,63.16212147036614,1.5735445098992165,0.992148283982242,A,1224.7123999986798,Correct,sub_006_day_23_data.csv,1,548,,Button-Switch at home,,,,,,,,,,,,,k
6,23,335,A,25.63563027617387,42.545025683399274,1.2817815138086934,0.6682957006687811,A,1664.328300044872,Correct,sub_006_day_23_data.csv,1,548,,Button-Switch at home,,,,,,,,,,,,,k
6,23,336,A,67.74597960868454,86.43744355504768,3.3872989804342266,1.357756188338101,A,1591.5605000336654,Correct,sub_006_day_23_data.csv,1,548,,Button-Switch at home,,,,,,,,,,,,,k
6,23,337,A,43.30043197183121,64.27770576414636,2.1650215985915606,1.0096718410912426,A,1085.378399991896,Correct,sub_006_day_23_data.csv,1,548,,Button-Switch at home,,,,,,,,,,,,,k
6,23,338,A,58.02490801966693,84.20899304357903,2.901245400983346,1.3227517695595097,A,1752.4033000227064,Correct,sub_006_day_23_data.csv,1,548,,Button-Switch at home,,,,,,,,,,,,,k
6,23,339,A,54.14027262731544,69.94624069189642,2.707013631365772,1.098712979519426,A,1506.246600009035,Correct,sub_006_day_23_data.csv,1,548,,Button-Switch at home,,,,,,,,,,,,,k
6,23,340,B,54.75198222430762,45.039921983624744,2.737599111215381,0.7074854401100646,B,2593.8403999898583,Correct,sub_006_day_23_data.csv,1,548,,Button-Switch at home,,,,,,,,,,,,,d
6,23,341,B,59.95389755125291,39.931768255189525,2.9976948775626453,0.6272467489767676,A,966.0248000291176,Incorrect,sub_006_day_23_data.csv,0,548,,Button-Switch at home,,,,,,,,,,,,,k
6,23,342,B,78.83800409443656,62.50963672837635,3.941900204721827,0.9818990776221692,B,935.5182999861428,Correct,sub_006_day_23_data.csv,1,548,,Button-Switch at home,,,,,,,,,,,,,d
6,23,343,A,32.00826049922925,49.81839971559757,1.6004130249614628,0.7825455928006059,A,819.0171999740414,Correct,sub_006_day_23_data.csv,1,548,,Button-Switch at home,,,,,,,,,,,,,k
6,23,344,B,40.60028793049868,20.68433795432137,2.0300143965249338,0.3249088208083227,B,633.2908000331372,Correct,sub_006_day_23_data.csv,1,548,,Button-Switch at home,,,,,,,,,,,,,d
6,23,345,A,47.62164882455627,70.60887122254088,2.3810824412278135,1.1091215555550111,A,997.37430003006,Correct,sub_006_day_23_data.csv,1,548,,Button-Switch at home,,,,,,,,,,,,,k
6,23,346,A,50.0358460444978,73.65928575635743,2.5017923022248905,1.157037355004219,A,619.512900011614,Correct,sub_006_day_23_data.csv,1,548,,Button-Switch at home,,,,,,,,,,,,,k
6,23,347,A,45.229677331054944,66.61059921754568,2.261483866552747,1.0463168457652778,A,1148.696899996139,Correct,sub_006_day_23_data.csv,1,548,,Button-Switch at home,,,,,,,,,,,,,k
6,23,348,B,70.59549865208496,38.61785017710051,3.529774932604248,0.6066077720690511,B,1099.809399980586,Correct,sub_006_day_23_data.csv,1,548,,Button-Switch at home,,,,,,,,,,,,,d
6,23,349,A,43.970008971323885,75.03006789779512,2.1985004485661945,1.1785695505302825,A,1579.0890000062063,Correct,sub_006_day_23_data.csv,1,548,,Button-Switch at home,,,,,,,,,,,,,k
6,23,350,A,47.5707880998133,67.73762924359994,2.378539404990665,1.0640201920164136,A,2585.0013000308536,Correct,sub_006_day_23_data.csv,1,548,,Button-Switch at home,,,,,,,,,,,,,k
6,23,351,A,51.26581393620921,67.62419587113291,2.5632906968104607,1.062238384768342,A,1150.081700005103,Correct,sub_006_day_23_data.csv,1,548,,Button-Switch at home,,,,,,,,,,,,,k
6,23,352,A,45.04548514356114,54.723540846753515,2.252274257178057,0.859595369512909,B,1599.9041000031866,Incorrect,sub_006_day_23_data.csv,0,548,,Button-Switch at home,,,,,,,,,,,,,d
6,23,353,A,40.52498277383126,48.7314951934475,2.026249138691563,0.7654725364909049,A,2192.8657999960706,Correct,sub_006_day_23_data.csv,1,548,,Button-Switch at home,,,,,,,,,,,,,k
6,23,354,B,64.47362184414399,37.572885752350906,3.2236810922071992,0.590193509268771,B,1237.6275999704376,Correct,sub_006_day_23_data.csv,1,548,,Button-Switch at home,,,,,,,,,,,,,d
6,23,355,A,35.06690237229937,52.573891097984784,1.7533451186149682,0.8258287502202942,A,2605.9105999884196,Correct,sub_006_day_23_data.csv,1,548,,Button-Switch at home,,,,,,,,,,,,,k
6,23,356,B,83.93490334021294,57.453130561249665,4.196745167010647,0.9024716644847858,B,743.4402999933809,Correct,sub_006_day_23_data.csv,1,548,,Button-Switch at home,,,,,,,,,,,,,d
6,23,357,B,45.96714245165228,33.12213933211366,2.298357122582614,0.5202813479847291,B,1670.2792999567464,Correct,sub_006_day_23_data.csv,1,548,,Button-Switch at home,,,,,,,,,,,,,d
6,23,358,A,17.498698748414988,35.51162232277476,0.8749349374207495,0.5578152590314225,A,1837.7299000276253,Correct,sub_006_day_23_data.csv,1,548,,Button-Switch at home,,,,,,,,,,,,,k
6,23,359,B,72.83762775249788,54.89591502280515,3.641881387624894,0.8623030167386712,B,1192.3150999937209,Correct,sub_006_day_23_data.csv,1,548,,Button-Switch at home,,,,,,,,,,,,,d
6,23,360,A,50.18690915785552,69.01499066210053,2.509345457892776,1.084084938258116,A,1061.0855999984778,Correct,sub_006_day_23_data.csv,1,548,,Button-Switch at home,,,,,,,,,,,,,k
6,23,361,A,52.80411230522933,74.35679975612967,2.640205615261466,1.1679938792915214,A,1247.404900030233,Correct,sub_006_day_23_data.csv,1,548,,Button-Switch at home,,,,,,,,,,,,,k
6,23,362,B,46.20049543897801,30.740404494074387,2.3100247719489007,0.4828691446348138,B,950.4853999824264,Correct,sub_006_day_23_data.csv,1,548,,Button-Switch at home,,,,,,,,,,,,,d
6,23,363,B,44.948055228944625,16.398893501929848,2.247402761447231,0.257593216763321,B,1122.3173000034876,Correct,sub_006_day_23_data.csv,1,548,,Button-Switch at home,,,,,,,,,,,,,d
6,23,364,B,36.94740742045501,19.73787397652544,1.8473703710227505,0.3100417994106674,B,731.6318999510258,Correct,sub_006_day_23_data.csv,1,548,,Button-Switch at home,,,,,,,,,,,,,d
6,23,365,A,45.34630579783002,53.86861932597646,2.267315289891501,0.846166293667564,A,3348.41909998795,Correct,sub_006_day_23_data.csv,1,548,,Button-Switch at home,,,,,,,,,,,,,k
6,23,366,B,67.23909145493836,44.84797053108059,3.3619545727469182,0.7044702737442715,B,3373.4087999910116,Correct,sub_006_day_23_data.csv,1,548,,Button-Switch at home,,,,,,,,,,,,,d
6,23,367,A,33.56321856244562,63.80555207287249,1.6781609281222811,1.002255268251886,A,893.09799997136,Correct,sub_006_day_23_data.csv,1,548,,Button-Switch at home,,,,,,,,,,,,,k
6,23,368,B,57.70434335242171,33.67812783953215,2.885217167621086,0.5290147950366605,B,951.4541999669746,Correct,sub_006_day_23_data.csv,1,548,,Button-Switch at home,,,,,,,,,,,,,d
6,23,369,A,14.62167029572138,42.92500038174684,0.7310835147860689,0.6742643292731747,A,1560.739699983969,Correct,sub_006_day_23_data.csv,1,548,,Button-Switch at home,,,,,,,,,,,,,k
6,23,370,A,42.03212902001896,54.22858018957784,2.1016064510009485,0.8518205456909137,A,1030.5020999512635,Correct,sub_006_day_23_data.csv,1,548,,Button-Switch at home,,,,,,,,,,,,,k
6,23,371,B,55.96508588888224,48.70888362300736,2.798254294444112,0.7651173547730005,A,1824.5859000016935,Incorrect,sub_006_day_23_data.csv,0,548,,Button-Switch at home,,,,,,,,,,,,,k
6,23,372,A,15.63724265693601,30.578806317525867,0.7818621328468005,0.4803307664134221,A,1336.9538999977522,Correct,sub_006_day_23_data.csv,1,548,,Button-Switch at home,,,,,,,,,,,,,k
6,23,373,A,40.56682892354282,73.44078133553012,2.028341446177141,1.153605095587979,B,913.2619999581948,Incorrect,sub_006_day_23_data.csv,0,548,,Button-Switch at home,,,,,,,,,,,,,d
6,23,374,B,62.257335645659104,32.485341814561224,3.112866782282955,0.5102785559698944,B,476.9899999955669,Correct,sub_006_day_23_data.csv,1,548,,Button-Switch at home,,,,,,,,,,,,,d
6,23,375,B,62.00732746027539,53.23963220596079,3.10036637301377,0.8362861870903449,B,1401.9409999600612,Correct,sub_006_day_23_data.csv,1,548,,Button-Switch at home,,,,,,,,,,,,,d
6,23,376,B,44.75946877418458,20.52987084166448,2.237973438709229,0.3224824570766021,B,813.4815000230446,Correct,sub_006_day_23_data.csv,1,548,,Button-Switch at home,,,,,,,,,,,,,d
6,23,377,B,64.91276670280794,33.77284727880183,3.2456383351403972,0.5305026445094693,B,972.4570999969728,Correct,sub_006_day_23_data.csv,1,548,,Button-Switch at home,,,,,,,,,,,,,d
6,23,378,B,75.52491754530787,54.80002705013091,3.7762458772653935,0.860796811986066,B,792.6857999991626,Correct,sub_006_day_23_data.csv,1,548,,Button-Switch at home,,,,,,,,,,,,,d
6,23,379,B,72.94119133042504,45.843798196017374,3.647059566521252,0.7201126981263059,B,2606.7101000226103,Correct,sub_006_day_23_data.csv,1,548,,Button-Switch at home,,,,,,,,,,,,,d
6,23,380,A,53.21203585298975,76.66451646122255,2.6606017926494876,1.2042434085279523,A,797.4086999893188,Correct,sub_006_day_23_data.csv,1,548,,Button-Switch at home,,,,,,,,,,,,,k
6,23,381,B,48.65062822820157,21.347096085590604,2.4325314114100784,0.3353194011898344,B,834.8306999541819,Correct,sub_006_day_23_data.csv,1,548,,Button-Switch at home,,,,,,,,,,,,,d
6,23,382,A,31.59087938664485,48.24241845907023,1.5795439693322424,0.7577901371120982,A,1229.0161999990232,Correct,sub_006_day_23_data.csv,1,548,,Button-Switch at home,,,,,,,,,,,,,k
6,23,383,A,10.455638537851776,33.495109442087404,0.5227819268925888,0.5261399487722395,A,795.7006000215188,Correct,sub_006_day_23_data.csv,1,548,,Button-Switch at home,,,,,,,,,,,,,k
6,23,384,B,55.99993805257135,46.54653787315991,2.7999969026285676,0.7311513071617912,A,1638.3500999654643,Incorrect,sub_006_day_23_data.csv,0,548,,Button-Switch at home,,,,,,,,,,,,,k
6,23,385,B,62.99643169642064,55.580286232952986,3.149821584821032,0.8730530945693151,A,792.9581999778748,Incorrect,sub_006_day_23_data.csv,0,548,,Button-Switch at home,,,,,,,,,,,,,k
6,23,386,A,33.11711388366459,55.89092391238525,1.6558556941832294,0.877932579827478,A,596.4939999976195,Correct,sub_006_day_23_data.csv,1,548,,Button-Switch at home,,,,,,,,,,,,,k
6,23,387,B,47.01959172302665,28.071481945640635,2.3509795861513325,0.4409458072790156,B,1183.7303999927826,Correct,sub_006_day_23_data.csv,1,548,,Button-Switch at home,,,,,,,,,,,,,d
6,23,388,B,71.0900161822234,41.234506676174355,3.5545008091111696,0.6477101162413432,B,973.0585000361316,Correct,sub_006_day_23_data.csv,1,548,,Button-Switch at home,,,,,,,,,,,,,d
6,23,389,A,12.83347566846874,38.510526285862,0.641673783423437,0.6049219323277034,A,713.3574999752454,Correct,sub_006_day_23_data.csv,1,548,,Button-Switch at home,,,,,,,,,,,,,k
6,23,390,B,71.10715949752174,45.77200788610763,3.5553579748760864,0.7189850185752491,B,835.905600048136,Correct,sub_006_day_23_data.csv,1,548,,Button-Switch at home,,,,,,,,,,,,,d
6,23,391,A,63.13322201659186,75.20098065429555,3.156661100829593,1.1812542418314154,A,1400.7506999769248,Correct,sub_006_day_23_data.csv,1,548,,Button-Switch at home,,,,,,,,,,,,,k
6,23,392,A,59.367866918567955,69.78081046882285,2.968393345928398,1.096114407651978,A,949.2155999760143,Correct,sub_006_day_23_data.csv,1,548,,Button-Switch at home,,,,,,,,,,,,,k
6,23,393,B,57.127330217533626,27.87958990792543,2.856366510876682,0.4379315741991733,B,1355.2082999958657,Correct,sub_006_day_23_data.csv,1,548,,Button-Switch at home,,,,,,,,,,,,,d
6,23,394,A,60.68721331230995,87.39417882776806,3.0343606656154973,1.372784550859144,A,805.7539999717847,Correct,sub_006_day_23_data.csv,1,548,,Button-Switch at home,,,,,,,,,,,,,k
6,23,395,B,81.28457026387336,55.801408346450735,4.064228513193668,0.876526472605869,A,3708.1927999970503,Incorrect,sub_006_day_23_data.csv,0,548,,Button-Switch at home,,,,,,,,,,,,,k
6,23,396,B,86.59948702677552,59.59903436379584,4.329974351338776,0.9361794425917332,B,709.5453999936581,Correct,sub_006_day_23_data.csv,1,548,,Button-Switch at home,,,,,,,,,,,,,d
6,23,397,A,16.319076680100277,41.7686575359875,0.8159538340050139,0.6561005383268315,A,2159.93670001626,Correct,sub_006_day_23_data.csv,1,548,,Button-Switch at home,,,,,,,,,,,,,k
6,23,398,A,18.30876205515408,47.12773335972804,0.915438102757704,0.7402807045163012,A,764.1588999540545,Correct,sub_006_day_23_data.csv,1,548,,Button-Switch at home,,,,,,,,,,,,,k
6,23,399,B,66.83368044713725,41.94722596830989,3.3416840223568625,0.6589054847025666,B,1687.4660000321455,Correct,sub_006_day_23_data.csv,1,548,,Button-Switch at home,,,,,,,,,,,,,d
6,23,400,B,63.10450373008318,39.187516769417094,3.1552251865041594,0.6155560739761378,B,1111.6474000154994,Correct,sub_006_day_23_data.csv,1,548,,Button-Switch at home,,,,,,,,,,,,,d
6,23,401,B,37.92036030796568,13.251946683242547,1.896018015398284,0.2081610917291921,B,870.662400033325,Correct,sub_006_day_23_data.csv,1,548,,Button-Switch at home,,,,,,,,,,,,,d
6,23,402,A,29.789244032253908,51.16171442731674,1.4894622016126953,0.8036463309495859,A,1260.2006000233814,Correct,sub_006_day_23_data.csv,1,548,,Button-Switch at home,,,,,,,,,,,,,k
6,23,403,B,77.02333007887454,49.92410573896766,3.851166503943727,0.7842060191329043,B,927.8529000002892,Correct,sub_006_day_23_data.csv,1,548,,Button-Switch at home,,,,,,,,,,,,,d
6,23,404,B,44.5323015481279,31.334184710404344,2.226615077406395,0.4921962224621595,B,1906.0258999816144,Correct,sub_006_day_23_data.csv,1,548,,Button-Switch at home,,,,,,,,,,,,,d
6,23,405,B,36.57903045075962,16.770815752918846,1.8289515225379809,0.2634353578203891,B,690.9225999843329,Correct,sub_006_day_23_data.csv,1,548,,Button-Switch at home,,,,,,,,,,,,,d
6,23,406,B,63.40058153896736,30.72724390550205,3.1700290769483677,0.4826624185929349,B,1616.1085999920033,Correct,sub_006_day_23_data.csv,1,548,,Button-Switch at home,,,,,,,,,,,,,d
6,23,407,A,29.832782012796343,43.02930940042161,1.491639100639817,0.6759028115070338,A,3358.1153000122868,Correct,sub_006_day_23_data.csv,1,548,,Button-Switch at home,,,,,,,,,,,,,k
6,23,408,A,54.27238533647028,82.77853499566561,2.713619266823514,1.3002821870865433,A,785.2999999886379,Correct,sub_006_day_23_data.csv,1,548,,Button-Switch at home,,,,,,,,,,,,,k
6,23,409,B,62.34831690526263,40.12048170807108,3.1174158452631313,0.6302110529627989,B,899.9470999697223,Correct,sub_006_day_23_data.csv,1,548,,Button-Switch at home,,,,,,,,,,,,,d
6,23,410,A,59.933017012421786,80.21452897109961,2.996650850621089,1.2600068746338606,A,2765.7594999764115,Correct,sub_006_day_23_data.csv,1,548,,Button-Switch at home,,,,,,,,,,,,,k
6,23,411,A,47.57025887342875,78.8197020025321,2.378512943671438,1.2380969838464575,A,774.2645000107586,Correct,sub_006_day_23_data.csv,1,548,,Button-Switch at home,,,,,,,,,,,,,k
6,23,412,A,51.151431340417254,73.70924137494572,2.5575715670208625,1.1578220560260315,A,931.3192999688908,Correct,sub_006_day_23_data.csv,1,548,,Button-Switch at home,,,,,,,,,,,,,k
6,23,413,B,37.81938738690614,18.23532667489999,1.8909693693453071,0.286439841588379,B,628.0914999661036,Correct,sub_006_day_23_data.csv,1,548,,Button-Switch at home,,,,,,,,,,,,,d
6,23,414,B,58.458269921832155,35.14554600891855,2.9229134960916077,0.5520649457401029,B,2004.5030000037511,Correct,sub_006_day_23_data.csv,1,548,,Button-Switch at home,,,,,,,,,,,,,d
6,23,415,A,43.14448988594583,73.27551204003652,2.1572244942972914,1.1510090515650455,A,1717.0141999959014,Correct,sub_006_day_23_data.csv,1,548,,Button-Switch at home,,,,,,,,,,,,,k
6,23,416,B,56.77158888322556,34.84939585782775,2.8385794441612777,0.5474130300449711,B,877.7632999699563,Correct,sub_006_day_23_data.csv,1,548,,Button-Switch at home,,,,,,,,,,,,,d
6,23,417,B,46.216505406069125,34.59898151232102,2.3108252703034564,0.5434795307039839,B,891.873000015039,Correct,sub_006_day_23_data.csv,1,548,,Button-Switch at home,,,,,,,,,,,,,d
6,23,418,B,82.22085187372755,53.80400641318074,4.111042593686378,0.8451513564067338,B,625.5347999976948,Correct,sub_006_day_23_data.csv,1,548,,Button-Switch at home,,,,,,,,,,,,,d
6,23,419,A,38.40483755421202,47.58092892236659,1.920241877710601,0.747399483767425,B,760.9890000312589,Incorrect,sub_006_day_23_data.csv,0,548,,Button-Switch at home,,,,,,,,,,,,,d
6,23,420,B,52.696008205187425,45.49684454251531,2.634800410259371,0.714662762881415,B,797.7538999984972,Correct,sub_006_day_23_data.csv,1,548,,Button-Switch at home,,,,,,,,,,,,,d
6,23,421,B,71.84149740196582,54.860844462768675,3.5920748700982914,0.8617521296698318,B,1028.5472000250593,Correct,sub_006_day_23_data.csv,1,548,,Button-Switch at home,,,,,,,,,,,,,d
6,23,422,B,41.68702691238569,26.001768139366433,2.0843513456192846,0.4084348188348937,B,2830.0925999647006,Correct,sub_006_day_23_data.csv,1,548,,Button-Switch at home,,,,,,,,,,,,,d
6,23,423,A,37.88604209235231,61.208151354314126,1.8943021046176156,0.961455393172627,A,1274.448299955111,Correct,sub_006_day_23_data.csv,1,548,,Button-Switch at home,,,,,,,,,,,,,k
6,23,424,B,49.61176978449237,30.222791465020983,2.480588489224618,0.4747384981874311,B,1378.596400027163,Correct,sub_006_day_23_data.csv,1,548,,Button-Switch at home,,,,,,,,,,,,,d
6,23,425,A,25.480195700479193,42.227070015530416,1.2740097850239596,0.663301264717061,A,2270.7735000294633,Correct,sub_006_day_23_data.csv,1,548,,Button-Switch at home,,,,,,,,,,,,,k
6,23,426,B,33.45117217238479,19.440288692941284,1.6725586086192394,0.3053673407070452,B,1066.9341000029815,Correct,sub_006_day_23_data.csv,1,548,,Button-Switch at home,,,,,,,,,,,,,d
6,23,427,A,41.63455635335914,51.93327495065539,2.081727817667957,0.8157659753091888,A,3148.61870004097,Correct,sub_006_day_23_data.csv,1,548,,Button-Switch at home,,,,,,,,,,,,,k
6,23,428,A,64.79614310320163,82.54724623248487,3.2398071551600816,1.296649111690211,A,710.9701999579556,Correct,sub_006_day_23_data.csv,1,548,,Button-Switch at home,,,,,,,,,,,,,k
6,23,429,B,49.6396985010658,26.688309274361707,2.48198492505329,0.4192189817653353,B,736.5297999931499,Correct,sub_006_day_23_data.csv,1,548,,Button-Switch at home,,,,,,,,,,,,,d
6,23,430,A,25.408564689076787,39.32993414904608,1.2704282344538391,0.6177931609440676,A,789.5986000075936,Correct,sub_006_day_23_data.csv,1,548,,Button-Switch at home,,,,,,,,,,,,,k
6,23,431,A,49.36404424067975,57.319073052102766,2.468202212033988,0.9003658940553135,A,1019.8121000430548,Correct,sub_006_day_23_data.csv,1,548,,Button-Switch at home,,,,,,,,,,,,,k
6,23,432,A,26.37497708406707,51.45158671369006,1.3187488542033534,0.8081996341763347,A,685.2996000088751,Correct,sub_006_day_23_data.csv,1,548,,Button-Switch at home,,,,,,,,,,,,,k
6,23,433,B,72.34957606162156,57.91553712592966,3.6174788030810783,0.9097351298176376,B,953.060199972242,Correct,sub_006_day_23_data.csv,1,548,,Button-Switch at home,,,,,,,,,,,,,d
6,23,434,A,30.8017122915936,54.182424572880905,1.54008561457968,0.8510955349592286,A,926.8634999752976,Correct,sub_006_day_23_data.csv,1,548,,Button-Switch at home,,,,,,,,,,,,,k
6,23,435,A,16.670375157772465,40.5010953244369,0.8335187578886233,0.6361897176679544,A,968.9834999735468,Correct,sub_006_day_23_data.csv,1,548,,Button-Switch at home,,,,,,,,,,,,,k
6,23,436,B,41.456537596829904,13.948974960299823,2.072826879841495,0.2191099863019295,B,893.2690999936312,Correct,sub_006_day_23_data.csv,1,548,,Button-Switch at home,,,,,,,,,,,,,d
6,23,437,B,68.76827586532406,40.766844364052545,3.438413793266203,0.6403640938207298,B,2188.8877999735996,Correct,sub_006_day_23_data.csv,1,548,,Button-Switch at home,,,,,,,,,,,,,d
6,23,438,B,36.495976375549745,16.398199934424696,1.824798818777487,0.2575823222304262,B,3621.96010001935,Correct,sub_006_day_23_data.csv,1,548,,Button-Switch at home,,,,,,,,,,,,,d
6,23,439,A,35.133597335044314,44.06403789438125,1.756679866752216,0.6921562886824519,A,1444.1081000259146,Correct,sub_006_day_23_data.csv,1,548,,Button-Switch at home,,,,,,,,,,,,,k
6,23,440,A,52.796536601999605,71.7457554671665,2.63982683009998,1.1269796915095,A,2116.3782000076026,Correct,sub_006_day_23_data.csv,1,548,,Button-Switch at home,,,,,,,,,,,,,k
6,23,441,A,29.68419741335356,42.002236409794406,1.4842098706676785,0.6597695866967592,B,955.2774999756366,Incorrect,sub_006_day_23_data.csv,0,548,,Button-Switch at home,,,,,,,,,,,,,d
6,23,442,B,56.38974255900503,26.160271486666403,2.8194871279502514,0.4109245835921284,B,1017.4727000412532,Correct,sub_006_day_23_data.csv,1,548,,Button-Switch at home,,,,,,,,,,,,,d
6,23,443,A,68.1471985839874,88.60722741880228,3.4073599291993704,1.3918390735693469,A,752.5068999966606,Correct,sub_006_day_23_data.csv,1,548,,Button-Switch at home,,,,,,,,,,,,,k
6,23,444,B,64.61972712073195,53.52770739646329,3.2309863560365977,0.8408112616011655,B,1995.3005000134,Correct,sub_006_day_23_data.csv,1,548,,Button-Switch at home,,,,,,,,,,,,,d
6,23,445,B,52.23155553766581,25.502773795878205,2.61157777688329,0.4005966340164663,A,1746.1079999920912,Incorrect,sub_006_day_23_data.csv,0,548,,Button-Switch at home,,,,,,,,,,,,,k
6,23,446,A,23.26284002385044,36.3182983793163,1.163142001192522,0.570486496896711,A,1575.7985000382178,Correct,sub_006_day_23_data.csv,1,548,,Button-Switch at home,,,,,,,,,,,,,k
6,23,447,A,24.20608596886793,51.694875278619875,1.2103042984433967,0.8120212020177642,A,959.9695999640973,Correct,sub_006_day_23_data.csv,1,548,,Button-Switch at home,,,,,,,,,,,,,k
6,23,448,A,61.68689296738319,81.39749494447132,3.084344648369159,1.2785888606908171,A,699.7894999803975,Correct,sub_006_day_23_data.csv,1,548,,Button-Switch at home,,,,,,,,,,,,,k
6,23,449,A,65.62016014869809,81.49313110753101,3.2810080074349046,1.2800911100272463,A,574.0601000143215,Correct,sub_006_day_23_data.csv,1,548,,Button-Switch at home,,,,,,,,,,,,,k
6,23,450,B,33.38286222204735,16.782850103295583,1.6691431111023676,0.2636243929540605,B,941.5162000223064,Correct,sub_006_day_23_data.csv,1,548,,Button-Switch at home,,,,,,,,,,,,,d
6,23,451,A,40.51816866277425,52.61956774197411,2.0259084331387127,0.8265462372662816,A,2145.1362999505363,Correct,sub_006_day_23_data.csv,1,548,,Button-Switch at home,,,,,,,,,,,,,k
6,23,452,A,16.005414898269976,33.21728492495289,0.8002707449134988,0.521775891462155,A,805.9756999718957,Correct,sub_006_day_23_data.csv,1,548,,Button-Switch at home,,,,,,,,,,,,,k
6,23,453,A,36.29537849230446,49.92047139152371,1.8147689246152228,0.7841489309367518,A,2143.420199980028,Correct,sub_006_day_23_data.csv,1,548,,Button-Switch at home,,,,,,,,,,,,,k
6,23,454,A,27.817776399244387,39.18814515864116,1.3908888199622194,0.6155659446909875,A,924.5422999956644,Correct,sub_006_day_23_data.csv,1,548,,Button-Switch at home,,,,,,,,,,,,,k
6,23,455,B,54.805741811938944,45.71751458245479,2.740287090596947,0.7181290397631209,A,2376.556500035804,Incorrect,sub_006_day_23_data.csv,0,548,,Button-Switch at home,,,,,,,,,,,,,k
6,23,456,A,57.52662446959664,75.23756548809213,2.876331223479832,1.181828915056856,A,903.8161999778822,Correct,sub_006_day_23_data.csv,1,548,,Button-Switch at home,,,,,,,,,,,,,k
6,23,457,B,44.76346597345365,16.678967353593606,2.2381732986726828,0.2619926065375683,B,2362.8492999705486,Correct,sub_006_day_23_data.csv,1,548,,Button-Switch at home,,,,,,,,,,,,,d
6,23,458,B,77.84798118061595,55.35918336242361,3.8923990590307977,0.8695800188006015,B,1122.8151000104845,Correct,sub_006_day_23_data.csv,1,548,,Button-Switch at home,,,,,,,,,,,,,d
6,23,459,A,68.3444950445907,83.52610555871307,3.417224752229535,1.3120249980310927,A,824.8125999816693,Correct,sub_006_day_23_data.csv,1,548,,Button-Switch at home,,,,,,,,,,,,,k
6,23,460,B,50.24335409970491,29.048138430974547,2.5121677049852456,0.4562870914760448,B,935.6411999906412,Correct,sub_006_day_23_data.csv,1,548,,Button-Switch at home,,,,,,,,,,,,,d
6,23,461,B,83.16965644798373,60.34523976851187,4.158482822399186,0.9479008096793576,B,2773.268899996765,Correct,sub_006_day_23_data.csv,1,548,,Button-Switch at home,,,,,,,,,,,,,d
6,23,462,B,64.41086368637828,50.90209900099519,3.2205431843189136,0.7995683013691344,B,1156.060199951753,Correct,sub_006_day_23_data.csv,1,548,,Button-Switch at home,,,,,,,,,,,,,d
6,23,463,A,58.43104488664503,83.45226530733461,2.9215522443322515,1.3108651180747437,A,764.6736999740824,Correct,sub_006_day_23_data.csv,1,548,,Button-Switch at home,,,,,,,,,,,,,k
6,23,464,B,43.22722219631677,17.125693738327563,2.1613611098158385,0.2690097681797929,B,1706.951799977105,Correct,sub_006_day_23_data.csv,1,548,,Button-Switch at home,,,,,,,,,,,,,d
6,23,465,A,49.64459317466771,62.04504800724247,2.4822296587333854,0.9746013350558947,A,1780.0777000375092,Correct,sub_006_day_23_data.csv,1,548,,Button-Switch at home,,,,,,,,,,,,,k
6,23,466,B,58.979468005235205,39.420669884894046,2.94897340026176,0.6192184345498576,B,1111.113100021612,Correct,sub_006_day_23_data.csv,1,548,,Button-Switch at home,,,,,,,,,,,,,d
6,23,467,B,34.35253073956433,14.182246547870005,1.7176265369782164,0.222774207830938,B,1186.4256999688223,Correct,sub_006_day_23_data.csv,1,548,,Button-Switch at home,,,,,,,,,,,,,d
6,23,468,B,63.10363691137105,46.549064188140306,3.1551818455685527,0.7311909904247066,A,1349.4793000281788,Incorrect,sub_006_day_23_data.csv,0,548,,Button-Switch at home,,,,,,,,,,,,,k
6,23,469,B,58.69945875894537,29.12766243201557,2.9349729379472684,0.4575362515633176,B,890.919900033623,Correct,sub_006_day_23_data.csv,1,548,,Button-Switch at home,,,,,,,,,,,,,d
6,23,470,B,46.471168614616474,26.299516464944144,2.3235584307308237,0.4131118385961616,B,1012.9812000086532,Correct,sub_006_day_23_data.csv,1,548,,Button-Switch at home,,,,,,,,,,,,,d
6,23,471,A,21.81154765298597,51.91709225313389,1.0905773826492984,0.815511778090945,A,1147.000199998729,Correct,sub_006_day_23_data.csv,1,548,,Button-Switch at home,,,,,,,,,,,,,k
6,23,472,A,16.037899907701892,44.73611930404678,0.8018949953850947,0.7027133187785495,A,924.873000010848,Correct,sub_006_day_23_data.csv,1,548,,Button-Switch at home,,,,,,,,,,,,,k
6,23,473,B,46.49750527708984,21.925783313625473,2.324875263854492,0.3444093989114373,B,856.2949000042863,Correct,sub_006_day_23_data.csv,1,548,,Button-Switch at home,,,,,,,,,,,,,d
6,23,474,A,24.443893532739903,49.92012605621345,1.222194676636995,0.7841435064223828,A,760.7766999863088,Correct,sub_006_day_23_data.csv,1,548,,Button-Switch at home,,,,,,,,,,,,,k
6,23,475,A,38.035156263584206,51.85688813439516,1.9017578131792103,0.8145660940052178,A,1557.5079999980517,Correct,sub_006_day_23_data.csv,1,548,,Button-Switch at home,,,,,,,,,,,,,k
6,23,476,A,29.02385737763109,43.344307603043816,1.4511928688815543,0.6808507917032933,A,1106.3099000020884,Correct,sub_006_day_23_data.csv,1,548,,Button-Switch at home,,,,,,,,,,,,,k
6,23,477,A,14.207217722294123,30.380210710587363,0.7103608861147063,0.4772112339144561,A,990.3602999984288,Correct,sub_006_day_23_data.csv,1,548,,Button-Switch at home,,,,,,,,,,,,,k
6,23,478,B,57.567721753171234,32.982354044321376,2.8783860876585616,0.5180856058186881,A,1439.2795000458136,Incorrect,sub_006_day_23_data.csv,0,548,,Button-Switch at home,,,,,,,,,,,,,k
6,23,479,B,64.54493905177861,51.58882553088394,3.2272469525889305,0.8103553764757527,B,858.5396999842487,Correct,sub_006_day_23_data.csv,1,548,,Button-Switch at home,,,,,,,,,,,,,d
6,23,480,A,33.93918056276313,55.87729228569108,1.696959028138156,0.8777184547360836,A,1254.1715999832377,Correct,sub_006_day_23_data.csv,1,548,,Button-Switch at home,,,,,,,,,,,,,k
6,23,481,B,76.86996347208097,62.16804531363896,3.843498173604048,0.9765333722268276,B,768.0998999858275,Correct,sub_006_day_23_data.csv,1,548,,Button-Switch at home,,,,,,,,,,,,,d
6,23,482,A,49.29063426475918,58.92879110034011,2.464531713237959,0.9256512860287804,A,1242.00699996436,Correct,sub_006_day_23_data.csv,1,548,,Button-Switch at home,,,,,,,,,,,,,k
6,23,483,B,79.05424856868015,59.30806115932797,3.9527124284340074,0.9316088461839944,B,2089.7708000265993,Correct,sub_006_day_23_data.csv,1,548,,Button-Switch at home,,,,,,,,,,,,,d
6,23,484,B,81.57932174916832,64.57696442145067,4.078966087458416,1.0143725850877945,B,1530.145100026857,Correct,sub_006_day_23_data.csv,1,548,,Button-Switch at home,,,,,,,,,,,,,d
6,23,485,B,51.93039619805157,42.55443136935449,2.596519809902578,0.6684434448382756,B,1438.652999990154,Correct,sub_006_day_23_data.csv,1,548,,Button-Switch at home,,,,,,,,,,,,,d
6,23,486,A,66.95883831525002,85.06751298670505,3.347941915762501,1.3362373692909346,A,784.6036999835633,Correct,sub_006_day_23_data.csv,1,548,,Button-Switch at home,,,,,,,,,,,,,k
6,23,487,A,35.50050027530098,58.762758070347274,1.7750250137650487,0.9230432452923866,A,1240.796899946872,Correct,sub_006_day_23_data.csv,1,548,,Button-Switch at home,,,,,,,,,,,,,k
6,23,488,B,59.35111164695837,52.06757459776708,2.9675555823479187,0.8178755492329179,B,927.5549000012688,Correct,sub_006_day_23_data.csv,1,548,,Button-Switch at home,,,,,,,,,,,,,d
6,23,489,A,15.78854146280235,32.68956335377192,0.7894270731401175,0.5134864604063399,A,1437.252499978058,Correct,sub_006_day_23_data.csv,1,548,,Button-Switch at home,,,,,,,,,,,,,k
6,23,490,B,43.145061097993825,23.72324464042847,2.1572530548996913,0.3726438554084175,B,1076.4945999835618,Correct,sub_006_day_23_data.csv,1,548,,Button-Switch at home,,,,,,,,,,,,,d
6,23,491,B,41.80497789449463,28.618005775577828,2.0902488947247315,0.4495305835247278,B,2438.9432999887504,Correct,sub_006_day_23_data.csv,1,548,,Button-Switch at home,,,,,,,,,,,,,d
6,23,492,A,28.40667945122597,51.173002527459026,1.4203339725612982,0.8038236440119858,A,1193.6085999477657,Correct,sub_006_day_23_data.csv,1,548,,Button-Switch at home,,,,,,,,,,,,,k
6,23,493,B,44.99106730604002,32.15172988076898,2.249553365302001,0.5050381919681363,B,3075.5205000168644,Correct,sub_006_day_23_data.csv,1,548,,Button-Switch at home,,,,,,,,,,,,,d
6,23,494,B,37.0534503304403,15.779290247700434,1.8526725165220148,0.2478605116051837,B,2685.6847999733873,Correct,sub_006_day_23_data.csv,1,548,,Button-Switch at home,,,,,,,,,,,,,d
6,23,495,B,56.38284417894299,25.718763728628765,2.8191422089471496,0.4039893959463588,B,4353.198700002395,Correct,sub_006_day_23_data.csv,1,548,,Button-Switch at home,,,,,,,,,,,,,d
6,23,496,B,52.786231369764586,44.85926370437816,2.639311568488229,0.7046476664956083,B,2907.774100021925,Correct,sub_006_day_23_data.csv,1,548,,Button-Switch at home,,,,,,,,,,,,,d
6,23,497,B,59.27854406105974,31.034359764853303,2.9639272030529873,0.487486583230629,B,2980.9561000438407,Correct,sub_006_day_23_data.csv,1,548,,Button-Switch at home,,,,,,,,,,,,,d
6,23,498,A,34.178985686186856,48.462386878020254,1.7089492843093428,0.7612453929570739,B,1507.25850003073,Incorrect,sub_006_day_23_data.csv,0,548,,Button-Switch at home,,,,,,,,,,,,,d
6,23,499,A,38.01508288165042,61.99236408229114,1.900754144082521,0.973773777897948,B,1180.023099994287,Incorrect,sub_006_day_23_data.csv,0,548,,Button-Switch at home,,,,,,,,,,,,,d
6,23,500,A,60.93674603340428,85.67874686578526,3.046837301670214,1.3458386086116525,A,786.2890000105835,Correct,sub_006_day_23_data.csv,1,548,,Button-Switch at home,,,,,,,,,,,,,k
6,23,501,B,67.8754729783457,57.549721885962654,3.3937736489172847,0.90398891746538,B,1057.3383000446483,Correct,sub_006_day_23_data.csv,1,548,,Button-Switch at home,,,,,,,,,,,,,d
6,23,502,B,39.20438782027397,14.825025105816849,1.960219391013699,0.2328709498085923,B,977.06120001385,Correct,sub_006_day_23_data.csv,1,548,,Button-Switch at home,,,,,,,,,,,,,d
6,23,503,A,59.13485963473124,79.01673051157177,2.956742981736562,1.2411919004291916,A,954.1779000428504,Correct,sub_006_day_23_data.csv,1,548,,Button-Switch at home,,,,,,,,,,,,,k
6,23,504,A,20.57221203472669,38.80321228275075,1.0286106017363346,0.6095194332158751,B,1423.7184000085108,Incorrect,sub_006_day_23_data.csv,0,548,,Button-Switch at home,,,,,,,,,,,,,d
6,23,505,A,57.98749777064088,68.99544872328596,2.899374888532044,1.083777974201032,A,1357.0592000032775,Correct,sub_006_day_23_data.csv,1,548,,Button-Switch at home,,,,,,,,,,,,,k
6,23,506,B,62.27218860205138,47.05269044584098,3.113609430102569,0.7391019331814433,B,1660.7616000110283,Correct,sub_006_day_23_data.csv,1,548,,Button-Switch at home,,,,,,,,,,,,,d
6,23,507,A,48.87766501835387,77.47055172692662,2.4438832509176938,1.2169045808743033,A,1047.3533000331372,Correct,sub_006_day_23_data.csv,1,548,,Button-Switch at home,,,,,,,,,,,,,k
6,23,508,A,10.226292582721875,32.16379233872023,0.5113146291360937,0.5052276686145557,A,784.4146999996156,Correct,sub_006_day_23_data.csv,1,548,,Button-Switch at home,,,,,,,,,,,,,k
6,23,509,B,63.75199244295667,54.7909848196517,3.1875996221478333,0.8606547769618383,B,1116.3229999947362,Correct,sub_006_day_23_data.csv,1,548,,Button-Switch at home,,,,,,,,,,,,,d
6,23,510,A,48.724774646525994,64.13557064605942,2.4362387323262995,1.0074391878772473,A,4968.499799957499,Correct,sub_006_day_23_data.csv,1,548,,Button-Switch at home,,,,,,,,,,,,,k
6,23,511,B,76.74525956330251,47.92538653368766,3.8372629781651257,0.7528102112734218,B,670.9746000124142,Correct,sub_006_day_23_data.csv,1,548,,Button-Switch at home,,,,,,,,,,,,,d
6,23,512,A,51.33301286982661,67.59921990170004,2.5666506434913305,1.061846063157909,A,1300.162800005637,Correct,sub_006_day_23_data.csv,1,548,,Button-Switch at home,,,,,,,,,,,,,k
6,23,513,A,35.671285540756024,47.03957526437439,1.7835642770378013,0.7388959203927137,B,1642.487200035248,Incorrect,sub_006_day_23_data.csv,0,548,,Button-Switch at home,,,,,,,,,,,,,d
6,23,514,B,70.90373250625784,38.146421823719145,3.545186625312892,0.5992025928106671,B,885.0171000231057,Correct,sub_006_day_23_data.csv,1,548,,Button-Switch at home,,,,,,,,,,,,,d
6,23,515,B,63.16756845390703,47.992640858271,3.1583784226953515,0.7538666397335875,B,1965.6177999568172,Correct,sub_006_day_23_data.csv,1,548,,Button-Switch at home,,,,,,,,,,,,,d
6,23,516,A,12.78306005380182,34.607784265582346,0.6391530026900909,0.5436178040288696,A,868.4138000244275,Correct,sub_006_day_23_data.csv,1,548,,Button-Switch at home,,,,,,,,,,,,,k
6,23,517,A,58.630947348661685,72.3748679769941,2.9315473674330845,1.1368617677052792,A,809.3023999826983,Correct,sub_006_day_23_data.csv,1,548,,Button-Switch at home,,,,,,,,,,,,,k
6,23,518,B,42.68466184683368,29.693110162731045,2.134233092341684,0.4664182837473414,B,1607.6094000018202,Correct,sub_006_day_23_data.csv,1,548,,Button-Switch at home,,,,,,,,,,,,,d
6,23,519,A,42.40414306745145,49.83142546872459,2.1202071533725726,0.7827502008522624,A,1065.222500008531,Correct,sub_006_day_23_data.csv,1,548,,Button-Switch at home,,,,,,,,,,,,,k
6,23,520,A,10.792663181820746,33.101170188460756,0.5396331590910373,0.5199519654464688,A,563.0081000272185,Correct,sub_006_day_23_data.csv,1,548,,Button-Switch at home,,,,,,,,,,,,,k
6,23,521,A,43.4972400667352,68.5036654488685,2.1748620033367603,1.076053060590691,A,1376.063100004103,Correct,sub_006_day_23_data.csv,1,548,,Button-Switch at home,,,,,,,,,,,,,k
6,23,522,A,35.338395365193264,51.32113298130683,1.7669197682596631,0.8061504717398918,A,1300.8458000258545,Correct,sub_006_day_23_data.csv,1,548,,Button-Switch at home,,,,,,,,,,,,,k
6,23,523,B,76.73080229802244,54.43761482246534,3.8365401149011222,0.85510405402604,B,983.0500999814832,Correct,sub_006_day_23_data.csv,1,548,,Button-Switch at home,,,,,,,,,,,,,d
6,23,524,B,74.76050441590651,45.67191762479658,3.7380252207953255,0.7174128044270957,B,1115.4512999928556,Correct,sub_006_day_23_data.csv,1,548,,Button-Switch at home,,,,,,,,,,,,,d
6,23,525,B,37.71767564492758,24.52003274542521,1.885883782246379,0.385159773694045,B,1023.6109999823384,Correct,sub_006_day_23_data.csv,1,548,,Button-Switch at home,,,,,,,,,,,,,d
6,23,526,A,58.23108616255211,79.95600630066872,2.9115543081276054,1.2559460100228002,A,778.4682000055909,Correct,sub_006_day_23_data.csv,1,548,,Button-Switch at home,,,,,,,,,,,,,k
6,23,527,A,39.648184911000406,53.9636829398917,1.9824092455500204,0.847659549423063,A,2743.1715999846347,Correct,sub_006_day_23_data.csv,1,548,,Button-Switch at home,,,,,,,,,,,,,k
6,23,528,B,64.51745077112523,44.01523621742,3.2258725385562617,0.6913897137333302,B,755.3858999744989,Correct,sub_006_day_23_data.csv,1,548,,Button-Switch at home,,,,,,,,,,,,,d
6,23,529,A,27.491663781528285,47.794642452627755,1.3745831890764142,0.7507564880506311,B,891.3717000395991,Incorrect,sub_006_day_23_data.csv,0,548,,Button-Switch at home,,,,,,,,,,,,,d
6,23,530,A,21.72712106641159,37.808986939994114,1.0863560533205796,0.5939021780517897,A,1017.77790003689,Correct,sub_006_day_23_data.csv,1,548,,Button-Switch at home,,,,,,,,,,,,,k
6,23,531,A,42.06262662213357,68.42770339676507,2.1031313311066784,1.0748598514664922,A,727.5875000050291,Correct,sub_006_day_23_data.csv,1,548,,Button-Switch at home,,,,,,,,,,,,,k
6,23,532,A,54.86661450524517,65.45847335090087,2.743330725262258,1.0282192949719673,A,645.8102000178769,Correct,sub_006_day_23_data.csv,1,548,,Button-Switch at home,,,,,,,,,,,,,k
6,23,533,B,45.424354686649,35.353648697971714,2.27121773433245,0.5553338151357115,B,708.9558999869041,Correct,sub_006_day_23_data.csv,1,548,,Button-Switch at home,,,,,,,,,,,,,d
6,23,534,B,83.90947378387136,67.43662928920344,4.195473689193568,1.0592920957890992,B,1520.2573999995366,Correct,sub_006_day_23_data.csv,1,548,,Button-Switch at home,,,,,,,,,,,,,d
6,23,535,B,62.910928887785445,36.525506464153864,3.145546444389272,0.5737413138821613,B,957.0674999849872,Correct,sub_006_day_23_data.csv,1,548,,Button-Switch at home,,,,,,,,,,,,,d
6,23,536,A,18.201657021059283,32.46993999473179,0.910082851052964,0.5100366247497539,A,1368.449600005988,Correct,sub_006_day_23_data.csv,1,548,,Button-Switch at home,,,,,,,,,,,,,k
6,23,537,A,43.105531223388155,51.41413659020867,2.1552765611694076,0.8076113690123086,B,2746.9585999497212,Incorrect,sub_006_day_23_data.csv,0,548,,Button-Switch at home,,,,,,,,,,,,,d
6,23,538,B,66.41144916650856,44.469266061698825,3.3205724583254277,0.6985215978498147,B,843.6994000221603,Correct,sub_006_day_23_data.csv,1,548,,Button-Switch at home,,,,,,,,,,,,,d
6,23,539,B,70.80885488709083,38.07366335287035,3.5404427443545416,0.5980597054231421,B,9391.73849998042,Correct,sub_006_day_23_data.csv,1,548,,Button-Switch at home,,,,,,,,,,,,,d
6,23,540,B,45.51843177712893,22.867011262688745,2.275921588856446,0.3591941729620901,B,617.5326000084169,Correct,sub_006_day_23_data.csv,1,548,,Button-Switch at home,,,,,,,,,,,,,d
6,23,541,B,53.01030267379463,32.06503173415894,2.6505151336897312,0.5036763406657866,B,584.8182000336237,Correct,sub_006_day_23_data.csv,1,548,,Button-Switch at home,,,,,,,,,,,,,d
6,23,542,B,53.19991898389899,31.31686891738049,2.65999594919495,0.4919242266213854,B,659.2266000225209,Correct,sub_006_day_23_data.csv,1,548,,Button-Switch at home,,,,,,,,,,,,,d
6,23,543,A,69.96672410190831,86.39305380700827,3.498336205095415,1.3570589158064246,A,643.6727999825962,Correct,sub_006_day_23_data.csv,1,548,,Button-Switch at home,,,,,,,,,,,,,k
6,23,544,B,32.535094982679006,10.712569091041878,1.6267547491339502,0.1682726417874512,B,597.5665000150912,Correct,sub_006_day_23_data.csv,1,548,,Button-Switch at home,,,,,,,,,,,,,d
6,23,545,A,63.68612672219477,74.29746923104939,3.1843063361097386,1.1670619175828922,B,1456.4700000337325,Incorrect,sub_006_day_23_data.csv,0,548,,Button-Switch at home,,,,,,,,,,,,,d
6,23,546,A,29.753830570079675,43.19653097745458,1.4876915285039838,0.6785295218966761,A,2588.9209999586456,Correct,sub_006_day_23_data.csv,1,548,,Button-Switch at home,,,,,,,,,,,,,k
6,23,547,B,75.91716457795712,65.07302465798475,3.795858228897856,1.0221646810619616,A,1278.0105999554507,Incorrect,sub_006_day_23_data.csv,0,548,,Button-Switch at home,,,,,,,,,,,,,k
