subject,day,trial,cat,x,y,xt,yt,resp,rt,fb,f_name,acc,n_trials,block,session_type,ns_left_digit,ns_right_digit,ns_left_size,ns_right_size,ns_congruent,ns_cue,ns_correct_side,ns_resp,ns_rt,ns_fb,acc_stroop,acc_stroop_mean,resp_key
6,17,3600,B,83.0483615662289,65.7303768603153,4.152418078311445,1.0324903453102754,B,1635.7383000431582,Correct,sub_006_day_17_data.csv,1,300,144.0,Training at home,,,,,,,,,,,,,
6,17,3601,B,72.0002948744789,56.57133225378928,3.6000147437239445,0.8886204090614586,A,902.3892999975942,Incorrect,sub_006_day_17_data.csv,0,300,144.0,Training at home,,,,,,,,,,,,,
6,17,3602,B,50.99582902249104,31.525027589728246,2.5497914511245523,0.495193975400529,B,995.9181000012904,Correct,sub_006_day_17_data.csv,1,300,144.0,Training at home,,,,,,,,,,,,,
6,17,3603,A,55.6987812540022,76.08622841976998,2.78493906270011,1.1951596812145215,A,634.9310000077821,Correct,sub_006_day_17_data.csv,1,300,144.0,Training at home,,,,,,,,,,,,,
6,17,3604,A,24.57011571628184,52.59968797117491,1.228505785814092,0.8262339665567926,A,608.5120999487117,Correct,sub_006_day_17_data.csv,1,300,144.0,Training at home,,,,,,,,,,,,,
6,17,3605,B,65.33297956628483,57.30358805676295,3.266648978314242,0.9001226563173114,B,883.3373000379652,Correct,sub_006_day_17_data.csv,1,300,144.0,Training at home,,,,,,,,,,,,,
6,17,3606,A,36.73453431926055,51.858127543373406,1.8367267159630272,0.8145855625959219,A,668.9841999905184,Correct,sub_006_day_17_data.csv,1,300,144.0,Training at home,,,,,,,,,,,,,
6,17,3607,B,35.96981594538299,24.02679793335492,1.7984907972691495,0.3774120593835712,B,675.6005000206642,Correct,sub_006_day_17_data.csv,1,300,144.0,Training at home,,,,,,,,,,,,,
6,17,3608,A,43.91471439971709,70.21350836289537,2.195735719985854,1.102911210278188,A,707.6217999565415,Correct,sub_006_day_17_data.csv,1,300,144.0,Training at home,,,,,,,,,,,,,
6,17,3609,A,35.25873887712596,53.336685408667115,1.7629369438562978,0.8378106952334927,A,592.8638000041246,Correct,sub_006_day_17_data.csv,1,300,144.0,Training at home,,,,,,,,,,,,,
6,17,3610,B,42.4990324701186,34.188745754595395,2.1249516235059303,0.5370355624904307,A,1002.8740999987348,Incorrect,sub_006_day_17_data.csv,0,300,144.0,Training at home,,,,,,,,,,,,,
6,17,3611,A,41.946042669474785,55.37186770473623,2.097302133473739,0.8697792639837263,A,777.5785999838263,Correct,sub_006_day_17_data.csv,1,300,144.0,Training at home,,,,,,,,,,,,,
6,17,3612,B,51.85208898111544,36.992791633794155,2.5926044490557723,0.5810814121625284,B,609.8069000290707,Correct,sub_006_day_17_data.csv,1,300,144.0,Training at home,,,,,,,,,,,,,
6,17,3613,B,72.91699035580504,62.49499819188637,3.645849517790252,0.9816691360286882,B,664.1041000257246,Correct,sub_006_day_17_data.csv,1,300,144.0,Training at home,,,,,,,,,,,,,
6,17,3614,A,24.9660651290239,52.101938640204395,1.248303256451195,0.8184153383492617,A,610.0270999595523,Correct,sub_006_day_17_data.csv,1,300,144.0,Training at home,,,,,,,,,,,,,
6,17,3615,B,41.69118149964081,26.26287070147226,2.0845590749820406,0.4125362082896193,B,621.8896000063978,Correct,sub_006_day_17_data.csv,1,300,144.0,Training at home,,,,,,,,,,,,,
6,17,3616,B,32.34847444028881,14.670071509681566,1.6174237220144403,0.2304369444122626,B,913.4809999959544,Correct,sub_006_day_17_data.csv,1,300,144.0,Training at home,,,,,,,,,,,,,
6,17,3617,A,36.93262768931275,46.307338957724994,1.8466313844656377,0.7273939793844063,A,1077.9966000118293,Correct,sub_006_day_17_data.csv,1,300,144.0,Training at home,,,,,,,,,,,,,
6,17,3618,A,35.36664730952218,60.72691663312064,1.7683323654761092,0.953896175848858,A,999.9904000433162,Correct,sub_006_day_17_data.csv,1,300,144.0,Training at home,,,,,,,,,,,,,
6,17,3619,B,62.861083869383954,43.95941409522601,3.143054193469198,0.6905128618883682,B,1083.6914000101388,Correct,sub_006_day_17_data.csv,1,300,144.0,Training at home,,,,,,,,,,,,,
6,17,3620,A,19.871530732182773,45.55904360812545,0.9935765366091388,0.7156397835193196,A,764.4803000148386,Correct,sub_006_day_17_data.csv,1,300,144.0,Training at home,,,,,,,,,,,,,
6,17,3621,A,37.17650876653794,67.3976731973295,1.8588254383268972,1.05868017492888,A,1001.9207000150344,Correct,sub_006_day_17_data.csv,1,300,144.0,Training at home,,,,,,,,,,,,,
6,17,3622,B,58.18888194130827,34.866566056471854,2.9094440970654136,0.5476827388945761,B,789.5460000145249,Correct,sub_006_day_17_data.csv,1,300,144.0,Training at home,,,,,,,,,,,,,
6,17,3623,B,58.39335146224256,39.932269794247674,2.919667573112128,0.6272546271338705,B,896.255099971313,Correct,sub_006_day_17_data.csv,1,300,144.0,Training at home,,,,,,,,,,,,,
6,17,3624,B,43.04726535736615,28.6723763973197,2.1523632678683073,0.4503846352539046,B,739.8866000003181,Correct,sub_006_day_17_data.csv,1,300,144.0,Training at home,,,,,,,,,,,,,
6,17,3625,A,25.076850422740748,43.34543717427627,1.2538425211370374,0.6808685349667213,A,489.7319999872707,Correct,sub_006_day_17_data.csv,1,300,145.0,Training at home,,,,,,,,,,,,,
6,17,3626,B,62.48830451142709,49.67741710498113,3.1244152255713544,0.7803310431316233,B,498.6985999858007,Correct,sub_006_day_17_data.csv,1,300,145.0,Training at home,,,,,,,,,,,,,
6,17,3627,B,61.19863367409429,32.14021103477124,3.0599316837047144,0.5048572543583146,B,447.47880002250895,Correct,sub_006_day_17_data.csv,1,300,145.0,Training at home,,,,,,,,,,,,,
6,17,3628,A,55.97618961335653,78.50945377408604,2.798809480667826,1.233223616070081,A,579.3128000223078,Correct,sub_006_day_17_data.csv,1,300,145.0,Training at home,,,,,,,,,,,,,
6,17,3629,B,70.2705215946657,37.82368270190356,3.513526079733285,0.5941330185400577,B,477.50619996804744,Correct,sub_006_day_17_data.csv,1,300,145.0,Training at home,,,,,,,,,,,,,
6,17,3630,A,61.10133440087296,70.90951111681547,3.055066720043647,1.1138439959711564,A,459.39820003695786,Correct,sub_006_day_17_data.csv,1,300,145.0,Training at home,,,,,,,,,,,,,
6,17,3631,B,38.76480692000945,13.929704638475537,1.9382403460004725,0.218807288794552,B,572.606600006111,Correct,sub_006_day_17_data.csv,1,300,145.0,Training at home,,,,,,,,,,,,,
6,17,3632,A,62.01481893268562,85.05385316712211,3.1007409466342812,1.336022801346679,A,568.2947000022978,Correct,sub_006_day_17_data.csv,1,300,145.0,Training at home,,,,,,,,,,,,,
6,17,3633,B,70.200878408041,55.90502485573256,3.5100439204020506,0.8781540769276209,B,533.8725000037812,Correct,sub_006_day_17_data.csv,1,300,145.0,Training at home,,,,,,,,,,,,,
6,17,3634,B,74.42131239771118,53.0791808985014,3.7210656198855583,0.8337658238464785,B,518.5341999749653,Correct,sub_006_day_17_data.csv,1,300,145.0,Training at home,,,,,,,,,,,,,
6,17,3635,B,82.93359724813034,63.24868615893987,4.1466798624065175,0.9935080389306596,B,578.3143999869935,Correct,sub_006_day_17_data.csv,1,300,145.0,Training at home,,,,,,,,,,,,,
6,17,3636,A,49.78096728941657,57.551476503648615,2.489048364470829,0.9040164789355406,A,1513.6440999922345,Correct,sub_006_day_17_data.csv,1,300,145.0,Training at home,,,,,,,,,,,,,
6,17,3637,B,33.413199048157466,12.397188153959362,1.6706599524078731,0.1947345761482456,B,802.0754999597557,Correct,sub_006_day_17_data.csv,1,300,145.0,Training at home,,,,,,,,,,,,,
6,17,3638,B,48.93327922072425,23.714686074116013,2.4466639610362124,0.3725094177631552,B,542.7568999584764,Correct,sub_006_day_17_data.csv,1,300,145.0,Training at home,,,,,,,,,,,,,
6,17,3639,B,72.32155608366335,56.219718215069314,3.616077804183168,0.8830972686567501,B,519.6002000011504,Correct,sub_006_day_17_data.csv,1,300,145.0,Training at home,,,,,,,,,,,,,
6,17,3640,A,28.36905153435884,44.08843078068894,1.418452576717942,0.6925394512445723,A,493.7083999975584,Correct,sub_006_day_17_data.csv,1,300,145.0,Training at home,,,,,,,,,,,,,
6,17,3641,B,69.97699348123753,58.581312912787034,3.4988496740618764,0.9201931114222832,B,585.546999995131,Correct,sub_006_day_17_data.csv,1,300,145.0,Training at home,,,,,,,,,,,,,
6,17,3642,A,65.12588658818248,79.02590102331087,3.256294329409124,1.2413359504907375,A,695.7264000084251,Correct,sub_006_day_17_data.csv,1,300,145.0,Training at home,,,,,,,,,,,,,
6,17,3643,B,38.61451378327908,19.64841804886027,1.930725689163954,0.3086366289848026,B,580.7501999661326,Correct,sub_006_day_17_data.csv,1,300,145.0,Training at home,,,,,,,,,,,,,
6,17,3644,B,46.10818921939702,31.38446590682185,2.3054094609698508,0.4929860376485542,B,495.0940999551676,Correct,sub_006_day_17_data.csv,1,300,145.0,Training at home,,,,,,,,,,,,,
6,17,3645,B,50.70452595955723,39.01617864510223,2.5352262979778617,0.6128647010130006,A,680.8715000515804,Incorrect,sub_006_day_17_data.csv,0,300,145.0,Training at home,,,,,,,,,,,,,
6,17,3646,B,65.11718754327732,32.6251043052411,3.2558593771638664,0.5124739400397308,B,552.4714000057429,Correct,sub_006_day_17_data.csv,1,300,145.0,Training at home,,,,,,,,,,,,,
6,17,3647,A,43.00340217185621,73.99286719999743,2.1501701085928104,1.1622772400677854,A,568.9813999924809,Correct,sub_006_day_17_data.csv,1,300,145.0,Training at home,,,,,,,,,,,,,
6,17,3648,B,80.00957683194255,64.74748674538714,4.000478841597128,1.0170511434885536,B,516.9655000208877,Correct,sub_006_day_17_data.csv,1,300,145.0,Training at home,,,,,,,,,,,,,
6,17,3649,A,59.47021020143206,80.78027712341103,2.9735105100716033,1.268893625829279,A,557.8439999953844,Correct,sub_006_day_17_data.csv,1,300,145.0,Training at home,,,,,,,,,,,,,
6,17,3650,A,29.989669327547546,40.67768514839078,1.4994834663773773,0.6389635841361156,A,751.5022000297904,Correct,sub_006_day_17_data.csv,1,300,146.0,Training at home,,,,,,,,,,,,,
6,17,3651,B,60.845811652332046,36.02736752463789,3.042290582616602,0.5659165657179094,B,530.4716000100598,Correct,sub_006_day_17_data.csv,1,300,146.0,Training at home,,,,,,,,,,,,,
6,17,3652,A,21.46647936521836,40.41172666186069,1.073323968260918,0.6347859179989015,A,523.4425000380725,Correct,sub_006_day_17_data.csv,1,300,146.0,Training at home,,,,,,,,,,,,,
6,17,3653,A,56.874533523331976,68.4840352116136,2.843726676166599,1.07574470954495,A,563.0492000491358,Correct,sub_006_day_17_data.csv,1,300,146.0,Training at home,,,,,,,,,,,,,
6,17,3654,A,59.35467932202462,82.39059534738938,2.967733966101231,1.2941884453412391,A,1600.134500011336,Correct,sub_006_day_17_data.csv,1,300,146.0,Training at home,,,,,,,,,,,,,
6,17,3655,A,61.613218742656805,72.37729869040872,3.08066093713284,1.1368999492623109,A,1001.2483000173232,Correct,sub_006_day_17_data.csv,1,300,146.0,Training at home,,,,,,,,,,,,,
6,17,3656,A,32.86602922917939,62.23790112829862,1.6433014614589694,0.977630664797554,A,766.4754000143148,Correct,sub_006_day_17_data.csv,1,300,146.0,Training at home,,,,,,,,,,,,,
6,17,3657,A,36.579773641790425,66.67663858913579,1.8289886820895216,1.0473541897884535,A,508.64429998910055,Correct,sub_006_day_17_data.csv,1,300,146.0,Training at home,,,,,,,,,,,,,
6,17,3658,B,60.32317631140299,28.358950461001008,3.0161588155701495,0.4454613521589883,B,477.8091000043787,Correct,sub_006_day_17_data.csv,1,300,146.0,Training at home,,,,,,,,,,,,,
6,17,3659,A,66.69406258410413,78.68084877940962,3.3347031292052067,1.2359158825180134,A,547.0960999955423,Correct,sub_006_day_17_data.csv,1,300,146.0,Training at home,,,,,,,,,,,,,
6,17,3660,B,43.27840195642969,26.695709578080603,2.1639200978214843,0.4193352254643235,B,894.7968000429682,Correct,sub_006_day_17_data.csv,1,300,146.0,Training at home,,,,,,,,,,,,,
6,17,3661,B,57.98637203581986,45.498692976811114,2.899318601790993,0.7146917980194366,B,763.1702999933623,Correct,sub_006_day_17_data.csv,1,300,146.0,Training at home,,,,,,,,,,,,,
6,17,3662,B,57.34794747197821,40.47155176407944,2.8673973735989104,0.6357256485070552,B,695.1047000475228,Correct,sub_006_day_17_data.csv,1,300,146.0,Training at home,,,,,,,,,,,,,
6,17,3663,B,43.062958188253376,24.037484212978292,2.153147909412669,0.3775799190713662,B,579.9382000113837,Correct,sub_006_day_17_data.csv,1,300,146.0,Training at home,,,,,,,,,,,,,
6,17,3664,B,34.01009542339217,13.931257262119288,1.7005047711696084,0.218831677349717,B,1028.540300030727,Correct,sub_006_day_17_data.csv,1,300,146.0,Training at home,,,,,,,,,,,,,
6,17,3665,A,36.306162028530736,56.274548427105906,1.8153081014265369,0.8839585396133948,A,485.00610003247857,Correct,sub_006_day_17_data.csv,1,300,146.0,Training at home,,,,,,,,,,,,,
6,17,3666,B,53.47314718243876,45.16589150284349,2.673657359121938,0.709464164690834,B,503.80890001542866,Correct,sub_006_day_17_data.csv,1,300,146.0,Training at home,,,,,,,,,,,,,
6,17,3667,B,75.5201618586283,63.335556953611224,3.7760080929314146,0.9948726021824148,B,651.7190999584273,Correct,sub_006_day_17_data.csv,1,300,146.0,Training at home,,,,,,,,,,,,,
6,17,3668,A,16.479870640923693,40.753560064048266,0.8239935320461846,0.640155424524222,A,442.84629996400326,Correct,sub_006_day_17_data.csv,1,300,146.0,Training at home,,,,,,,,,,,,,
6,17,3669,A,26.06626087741857,54.475162129676065,1.3033130438709286,0.8556938457485161,A,512.258299975656,Correct,sub_006_day_17_data.csv,1,300,146.0,Training at home,,,,,,,,,,,,,
6,17,3670,B,77.64479625694513,50.98020695045613,3.882239812847256,0.8007952181702014,B,803.5146999754943,Correct,sub_006_day_17_data.csv,1,300,146.0,Training at home,,,,,,,,,,,,,
6,17,3671,A,41.11448071631637,70.82539994902416,2.0557240358158184,1.112522780837066,A,631.267899996601,Correct,sub_006_day_17_data.csv,1,300,146.0,Training at home,,,,,,,,,,,,,
6,17,3672,B,82.83518069873733,59.59464221754999,4.141759034936866,0.936110450919836,B,832.1672999882139,Correct,sub_006_day_17_data.csv,1,300,146.0,Training at home,,,,,,,,,,,,,
6,17,3673,B,66.78189873823973,46.25978594227481,3.339094936911987,0.7266470183644346,B,436.21140002505854,Correct,sub_006_day_17_data.csv,1,300,146.0,Training at home,,,,,,,,,,,,,
6,17,3674,B,83.38289150261029,67.33526611884379,4.169144575130514,1.0576998868323668,A,649.3602999835275,Incorrect,sub_006_day_17_data.csv,0,300,146.0,Training at home,,,,,,,,,,,,,
6,17,3675,A,18.87784310247973,32.30478802541891,0.9438921551239864,0.5074424236821579,A,529.3729999684729,Correct,sub_006_day_17_data.csv,1,300,147.0,Training at home,,,,,,,,,,,,,
6,17,3676,B,62.02684471107147,29.900631231854103,3.101342235553574,0.4696780170784519,B,429.600500036031,Correct,sub_006_day_17_data.csv,1,300,147.0,Training at home,,,,,,,,,,,,,
6,17,3677,A,48.412117490807375,75.29857039906416,2.4206058745403687,1.1827871779575692,A,510.8602999825962,Correct,sub_006_day_17_data.csv,1,300,147.0,Training at home,,,,,,,,,,,,,
6,17,3678,A,32.99153834035333,45.89361793351843,1.6495769170176664,0.7208952647329911,A,731.3001000438817,Correct,sub_006_day_17_data.csv,1,300,147.0,Training at home,,,,,,,,,,,,,
6,17,3679,B,68.8729078120899,57.40790583814521,3.4436453906044955,0.901761276195458,B,875.8876000065356,Correct,sub_006_day_17_data.csv,1,300,147.0,Training at home,,,,,,,,,,,,,
6,17,3680,A,43.96716959117978,58.8321323188785,2.198358479558989,0.9241329734400568,A,716.7489000130445,Correct,sub_006_day_17_data.csv,1,300,147.0,Training at home,,,,,,,,,,,,,
6,17,3681,B,71.68070008789513,50.082928042502125,3.584035004394757,0.7867007940429547,B,470.8270000410266,Correct,sub_006_day_17_data.csv,1,300,147.0,Training at home,,,,,,,,,,,,,
6,17,3682,B,58.4738688387378,34.371543227234575,2.9236934419368903,0.5399069384761207,B,491.4699999499135,Correct,sub_006_day_17_data.csv,1,300,147.0,Training at home,,,,,,,,,,,,,
6,17,3683,B,51.76140133949737,45.06848141449127,2.5880700669748684,0.7079340506010696,B,432.7338999719359,Correct,sub_006_day_17_data.csv,1,300,147.0,Training at home,,,,,,,,,,,,,
6,17,3684,B,77.69903720174909,50.3551894424519,3.884951860087454,0.7909774661126461,B,419.761200028006,Correct,sub_006_day_17_data.csv,1,300,147.0,Training at home,,,,,,,,,,,,,
6,17,3685,B,63.99519877991439,54.860038431486025,3.1997599389957196,0.8617394685600511,B,480.8441000059247,Correct,sub_006_day_17_data.csv,1,300,147.0,Training at home,,,,,,,,,,,,,
6,17,3686,B,58.80909005655998,38.29165828367478,2.9404545028279987,0.6014839617888171,B,447.5552000221796,Correct,sub_006_day_17_data.csv,1,300,147.0,Training at home,,,,,,,,,,,,,
6,17,3687,B,57.822066810125875,46.90118578905371,2.8911033405062936,0.7367221035977057,B,490.74059998383746,Correct,sub_006_day_17_data.csv,1,300,147.0,Training at home,,,,,,,,,,,,,
6,17,3688,A,36.70917479668729,63.060985726691065,1.8354587398343647,0.9905596474355174,A,761.3766000140458,Correct,sub_006_day_17_data.csv,1,300,147.0,Training at home,,,,,,,,,,,,,
6,17,3689,A,54.45313045330649,64.54590256446848,2.7226565226653245,1.0138846665792838,A,1039.905700017698,Correct,sub_006_day_17_data.csv,1,300,147.0,Training at home,,,,,,,,,,,,,
6,17,3690,B,42.95249741575944,29.13356554340625,2.147624870787972,0.4576289774202089,B,553.0542999622412,Correct,sub_006_day_17_data.csv,1,300,147.0,Training at home,,,,,,,,,,,,,
6,17,3691,B,51.80224556811363,43.18470319914724,2.5901122784056816,0.6783437315894831,B,782.3259999859147,Correct,sub_006_day_17_data.csv,1,300,147.0,Training at home,,,,,,,,,,,,,
6,17,3692,B,40.25396606273483,23.054156093960607,2.012698303136742,0.362133837097495,B,497.30580003233626,Correct,sub_006_day_17_data.csv,1,300,147.0,Training at home,,,,,,,,,,,,,
6,17,3693,B,85.05025919613419,61.21497141729462,4.25251295980671,0.9615625224714096,B,491.6240999591537,Correct,sub_006_day_17_data.csv,1,300,147.0,Training at home,,,,,,,,,,,,,
6,17,3694,A,20.870031348741016,43.133154879840255,1.0435015674370507,0.6775340124832844,A,935.3039000416176,Correct,sub_006_day_17_data.csv,1,300,147.0,Training at home,,,,,,,,,,,,,
6,17,3695,A,56.113022163034,75.33844272419407,2.8056511081516997,1.1834134909761176,A,575.8953000186011,Correct,sub_006_day_17_data.csv,1,300,147.0,Training at home,,,,,,,,,,,,,
6,17,3696,B,69.9206504731138,58.82021588790026,3.49603252365569,0.9239457905799656,B,1045.6848999601789,Correct,sub_006_day_17_data.csv,1,300,147.0,Training at home,,,,,,,,,,,,,
6,17,3697,A,33.53253168618722,56.50423690941558,1.6766265843093608,0.8875664778565862,A,853.9052000269294,Correct,sub_006_day_17_data.csv,1,300,147.0,Training at home,,,,,,,,,,,,,
6,17,3698,A,63.205632964066545,86.49911739957918,3.1602816482033274,1.3587249588225951,A,578.8965999963693,Correct,sub_006_day_17_data.csv,1,300,147.0,Training at home,,,,,,,,,,,,,
6,17,3699,A,25.496879645576453,48.16110189663702,1.274843982278823,0.7565128195363215,A,528.8591000135057,Correct,sub_006_day_17_data.csv,1,300,147.0,Training at home,,,,,,,,,,,,,
6,17,3700,A,23.367735701477397,53.635108457648734,1.1683867850738698,0.8424983135252052,A,489.3861999735236,Correct,sub_006_day_17_data.csv,1,300,148.0,Training at home,,,,,,,,,,,,,
6,17,3701,B,37.10704933687154,19.97744484397229,1.855352466843577,0.3138049697965931,B,635.6931000482291,Correct,sub_006_day_17_data.csv,1,300,148.0,Training at home,,,,,,,,,,,,,
6,17,3702,B,53.34582929106916,38.76896293924046,2.667291464553458,0.608981445786064,B,557.4203000287525,Correct,sub_006_day_17_data.csv,1,300,148.0,Training at home,,,,,,,,,,,,,
6,17,3703,B,66.56162216286333,44.239569252459454,3.3280811081431665,0.6949135288075176,B,522.1773000084795,Correct,sub_006_day_17_data.csv,1,300,148.0,Training at home,,,,,,,,,,,,,
6,17,3704,B,80.04355964832237,48.74334807145607,4.002177982416118,0.7656587210632829,B,523.6619000206701,Correct,sub_006_day_17_data.csv,1,300,148.0,Training at home,,,,,,,,,,,,,
6,17,3705,A,49.60110682099349,63.347285538051025,2.480055341049675,0.99505683435598,A,519.0061999601312,Correct,sub_006_day_17_data.csv,1,300,148.0,Training at home,,,,,,,,,,,,,
6,17,3706,B,49.20224646846517,23.494771444397724,2.4601123234232585,0.3690550068374557,B,581.8041000165977,Correct,sub_006_day_17_data.csv,1,300,148.0,Training at home,,,,,,,,,,,,,
6,17,3707,B,75.72528490486681,54.46253986098601,3.786264245243341,0.8554955756155747,B,739.9341000127606,Correct,sub_006_day_17_data.csv,1,300,148.0,Training at home,,,,,,,,,,,,,
6,17,3708,A,20.73530161625612,41.02457025043054,1.036765080812806,0.6444124425771549,A,517.1991999959573,Correct,sub_006_day_17_data.csv,1,300,148.0,Training at home,,,,,,,,,,,,,
6,17,3709,B,59.621082586527805,31.33683409894042,2.98105412932639,0.4922378389599667,B,714.1568000079133,Correct,sub_006_day_17_data.csv,1,300,148.0,Training at home,,,,,,,,,,,,,
6,17,3710,A,40.83851276715251,73.30345921276894,2.0419256383576254,1.1514480447277695,A,1097.5777000421658,Correct,sub_006_day_17_data.csv,1,300,148.0,Training at home,,,,,,,,,,,,,
6,17,3711,A,12.842552473593464,36.112153509068605,0.6421276236796731,0.5672483808469839,A,859.8031000001356,Correct,sub_006_day_17_data.csv,1,300,148.0,Training at home,,,,,,,,,,,,,
6,17,3712,B,80.48852992540559,60.099629150177805,4.024426496270279,0.944042767108348,B,584.3014999991283,Correct,sub_006_day_17_data.csv,1,300,148.0,Training at home,,,,,,,,,,,,,
6,17,3713,A,49.2175669438343,79.83985757511742,2.460878347191715,1.2541215501082217,A,983.1640999764204,Correct,sub_006_day_17_data.csv,1,300,148.0,Training at home,,,,,,,,,,,,,
6,17,3714,B,40.06972683537097,28.8474997306377,2.0034863417685487,0.4531354661410246,A,641.6472000419162,Incorrect,sub_006_day_17_data.csv,0,300,148.0,Training at home,,,,,,,,,,,,,
6,17,3715,B,52.16924452766646,45.2198062733758,2.6084622263833226,0.7103110559259553,B,665.3292000410147,Correct,sub_006_day_17_data.csv,1,300,148.0,Training at home,,,,,,,,,,,,,
6,17,3716,B,33.74662704236367,16.140276392607124,1.6873313521181836,0.2535308687096165,B,1707.0417000213638,Correct,sub_006_day_17_data.csv,1,300,148.0,Training at home,,,,,,,,,,,,,
6,17,3717,A,27.136189117541782,46.88886527339737,1.3568094558770891,0.7365285733903336,A,2178.106200008187,Correct,sub_006_day_17_data.csv,1,300,148.0,Training at home,,,,,,,,,,,,,
6,17,3718,A,36.25086717090713,67.98513529224775,1.8125433585453563,1.0679080079371686,A,600.5009000073187,Correct,sub_006_day_17_data.csv,1,300,148.0,Training at home,,,,,,,,,,,,,
6,17,3719,B,70.31249089999656,52.61850552856395,3.515624544999828,0.826529552057052,B,1144.4738000282086,Correct,sub_006_day_17_data.csv,1,300,148.0,Training at home,,,,,,,,,,,,,
6,17,3720,B,59.5864187163223,35.76909720608523,2.9793209358161152,0.5618596650408828,B,767.5668000010774,Correct,sub_006_day_17_data.csv,1,300,148.0,Training at home,,,,,,,,,,,,,
6,17,3721,A,57.49515717675027,73.22126359901772,2.8747578588375133,1.150156919046179,A,1783.2629000185989,Correct,sub_006_day_17_data.csv,1,300,148.0,Training at home,,,,,,,,,,,,,
6,17,3722,A,30.09489722494349,42.88322690809267,1.5047448612471743,0.6736081530834402,A,752.9608000186272,Correct,sub_006_day_17_data.csv,1,300,148.0,Training at home,,,,,,,,,,,,,
6,17,3723,B,44.19068003077267,36.42114949816324,2.2095340015386338,0.572102078493626,A,1146.890899981372,Incorrect,sub_006_day_17_data.csv,0,300,148.0,Training at home,,,,,,,,,,,,,
6,17,3724,A,20.646367709268898,37.01871051867741,1.0323183854634448,0.5814885450542208,A,525.3268000087701,Correct,sub_006_day_17_data.csv,1,300,148.0,Training at home,,,,,,,,,,,,,
6,17,3725,B,83.40128987796473,53.031157319711795,4.170064493898236,0.8330114712348559,B,520.8719000220299,Correct,sub_006_day_17_data.csv,1,300,149.0,Training at home,,,,,,,,,,,,,
6,17,3726,A,45.72570474969529,55.87364748577077,2.2862852374847646,0.8776612023528162,B,549.2612999514677,Incorrect,sub_006_day_17_data.csv,0,300,149.0,Training at home,,,,,,,,,,,,,
6,17,3727,B,43.615326745861914,20.265105104883716,2.180766337293096,0.3183235266086385,B,1224.0675000357442,Correct,sub_006_day_17_data.csv,1,300,149.0,Training at home,,,,,,,,,,,,,
6,17,3728,A,56.18501750327252,85.08824765146716,2.809250875163626,1.336563068643391,A,605.682999943383,Correct,sub_006_day_17_data.csv,1,300,149.0,Training at home,,,,,,,,,,,,,
6,17,3729,A,40.53470911784631,61.71707972960992,2.026735455892316,0.9694496213977902,A,747.8497999836691,Correct,sub_006_day_17_data.csv,1,300,149.0,Training at home,,,,,,,,,,,,,
6,17,3730,A,30.304131511779534,53.15207473417908,1.5152065755889768,0.8349108375397633,A,506.72669999767095,Correct,sub_006_day_17_data.csv,1,300,149.0,Training at home,,,,,,,,,,,,,
6,17,3731,A,42.5200414277145,59.76079305817288,2.126002071385725,0.9387203422212792,A,789.3452999996953,Correct,sub_006_day_17_data.csv,1,300,149.0,Training at home,,,,,,,,,,,,,
6,17,3732,B,50.61462828573831,21.23330350217082,2.5307314142869157,0.3335319514693113,B,595.3639000072144,Correct,sub_006_day_17_data.csv,1,300,149.0,Training at home,,,,,,,,,,,,,
6,17,3733,B,72.54100148440367,60.20680019094584,3.627050074220183,0.94572620588012,B,560.1350999786519,Correct,sub_006_day_17_data.csv,1,300,149.0,Training at home,,,,,,,,,,,,,
6,17,3734,A,22.35984032494004,48.50840588103538,1.117992016247002,0.7619682577660634,A,614.2550999647938,Correct,sub_006_day_17_data.csv,1,300,149.0,Training at home,,,,,,,,,,,,,
6,17,3735,A,51.68392463042888,75.52758897069515,2.5841962315214437,1.186384593268427,A,614.0578999766149,Correct,sub_006_day_17_data.csv,1,300,149.0,Training at home,,,,,,,,,,,,,
6,17,3736,A,20.91676665797291,34.95635773698468,1.0458383328986458,0.549093183313839,A,909.7385000204667,Correct,sub_006_day_17_data.csv,1,300,149.0,Training at home,,,,,,,,,,,,,
6,17,3737,A,53.22647194999449,68.58706319307215,2.6613235974997247,1.077363069293272,A,770.093499973882,Correct,sub_006_day_17_data.csv,1,300,149.0,Training at home,,,,,,,,,,,,,
6,17,3738,B,54.05431390431614,31.77051968723265,2.702715695215807,0.4990501562506999,B,939.3291999585928,Correct,sub_006_day_17_data.csv,1,300,149.0,Training at home,,,,,,,,,,,,,
6,17,3739,B,80.02213417083365,59.196796838121735,4.001106708541682,0.9298611103134538,B,580.1434000022709,Correct,sub_006_day_17_data.csv,1,300,149.0,Training at home,,,,,,,,,,,,,
6,17,3740,A,21.50554054158457,48.91041999841207,1.0752770270792285,0.7682830807550133,A,495.1024000183679,Correct,sub_006_day_17_data.csv,1,300,149.0,Training at home,,,,,,,,,,,,,
6,17,3741,B,50.31862371214368,25.26025078853848,2.515931185607184,0.3967870915255413,B,542.6173000014387,Correct,sub_006_day_17_data.csv,1,300,149.0,Training at home,,,,,,,,,,,,,
6,17,3742,B,36.12646215645064,22.98003207963967,1.8063231078225317,0.3609694998032687,B,859.4534000148997,Correct,sub_006_day_17_data.csv,1,300,149.0,Training at home,,,,,,,,,,,,,
6,17,3743,B,74.65240060012778,55.97979956225268,3.7326200300063888,0.8793286352710107,B,831.5874999971129,Correct,sub_006_day_17_data.csv,1,300,149.0,Training at home,,,,,,,,,,,,,
6,17,3744,A,54.57156691376351,79.9185613254159,2.7285783456881756,1.2553578257269598,A,672.1102999872528,Correct,sub_006_day_17_data.csv,1,300,149.0,Training at home,,,,,,,,,,,,,
6,17,3745,B,77.21815559889733,54.05546370349485,3.8609077799448666,0.8491012382864458,B,600.3603999852203,Correct,sub_006_day_17_data.csv,1,300,149.0,Training at home,,,,,,,,,,,,,
6,17,3746,A,54.99288119774228,62.29443817559549,2.749644059887114,0.9785187466597718,B,1000.0096000148916,Incorrect,sub_006_day_17_data.csv,0,300,149.0,Training at home,,,,,,,,,,,,,
6,17,3747,A,44.86325168639632,54.9824866070748,2.243162584319816,0.863662880004427,A,846.3971999590285,Correct,sub_006_day_17_data.csv,1,300,149.0,Training at home,,,,,,,,,,,,,
6,17,3748,B,37.19611934764369,25.786855328256294,1.8598059673821845,0.4050589762921639,B,506.99729996267706,Correct,sub_006_day_17_data.csv,1,300,149.0,Training at home,,,,,,,,,,,,,
6,17,3749,B,70.10245052006461,59.002167522917134,3.5051225260032304,0.9268038801793536,B,639.5901000360027,Correct,sub_006_day_17_data.csv,1,300,149.0,Training at home,,,,,,,,,,,,,
6,17,3750,B,62.902179928383255,52.51937379670687,3.1451089964191628,0.824972394454353,B,589.1064999741502,Correct,sub_006_day_17_data.csv,1,300,150.0,Training at home,,,,,,,,,,,,,
6,17,3751,B,38.43847064773797,20.623546491026303,1.9219235323868984,0.323953910735879,B,1356.5052999765612,Correct,sub_006_day_17_data.csv,1,300,150.0,Training at home,,,,,,,,,,,,,
6,17,3752,B,60.449550657526984,40.82248836726189,3.022477532876349,0.6412381477792237,B,659.6348999883048,Correct,sub_006_day_17_data.csv,1,300,150.0,Training at home,,,,,,,,,,,,,
6,17,3753,A,30.42490277261173,47.363502954926425,1.5212451386305867,0.7439841646573767,A,627.6096999645233,Correct,sub_006_day_17_data.csv,1,300,150.0,Training at home,,,,,,,,,,,,,
6,17,3754,A,16.58818421140011,33.78618782302721,0.8294092105700056,0.5307121972881361,A,501.1871999595314,Correct,sub_006_day_17_data.csv,1,300,150.0,Training at home,,,,,,,,,,,,,
6,17,3755,B,51.35245076990997,30.056728565099487,2.5676225384954985,0.4721299882552951,B,550.4477999638766,Correct,sub_006_day_17_data.csv,1,300,150.0,Training at home,,,,,,,,,,,,,
6,17,3756,A,47.71622625239796,66.05026600405523,2.3858113126198983,1.0375151522299575,A,700.0503999879584,Correct,sub_006_day_17_data.csv,1,300,150.0,Training at home,,,,,,,,,,,,,
6,17,3757,A,14.385555874036864,40.656134480183866,0.7192777937018433,0.6386250670315216,A,466.2356000044383,Correct,sub_006_day_17_data.csv,1,300,150.0,Training at home,,,,,,,,,,,,,
6,17,3758,A,22.11010009204962,43.38209780904434,1.105505004602481,0.6814443988710378,A,498.1552999815904,Correct,sub_006_day_17_data.csv,1,300,150.0,Training at home,,,,,,,,,,,,,
6,17,3759,B,68.04674321258197,38.333801187204486,3.402337160629098,0.6021459409694665,B,567.214899987448,Correct,sub_006_day_17_data.csv,1,300,150.0,Training at home,,,,,,,,,,,,,
6,17,3760,B,80.41873577234617,59.091668016337245,4.020936788617308,0.92820975064246,B,770.4095999943092,Correct,sub_006_day_17_data.csv,1,300,150.0,Training at home,,,,,,,,,,,,,
6,17,3761,A,44.20476985314501,58.844820639318215,2.2102384926572505,0.9243322811114556,A,669.4114999845624,Correct,sub_006_day_17_data.csv,1,300,150.0,Training at home,,,,,,,,,,,,,
6,17,3762,B,57.74140987070803,28.216728026983738,2.887070493535402,0.4432273273895666,B,511.37100002961233,Correct,sub_006_day_17_data.csv,1,300,150.0,Training at home,,,,,,,,,,,,,
6,17,3763,A,57.558802295334075,79.71403206382035,2.877940114766704,1.2521450875985962,A,740.1651000254788,Correct,sub_006_day_17_data.csv,1,300,150.0,Training at home,,,,,,,,,,,,,
6,17,3764,B,54.58817756751662,26.32354201157998,2.729408878375831,0.4134892310002098,B,648.3652999741025,Correct,sub_006_day_17_data.csv,1,300,150.0,Training at home,,,,,,,,,,,,,
6,17,3765,A,30.159920060260603,38.799302729837834,1.5079960030130304,0.6094580221023247,A,635.5017999885604,Correct,sub_006_day_17_data.csv,1,300,150.0,Training at home,,,,,,,,,,,,,
6,17,3766,B,79.53951039606322,48.41127580193107,3.9769755198031618,0.7604425420512798,B,631.6772000282072,Correct,sub_006_day_17_data.csv,1,300,150.0,Training at home,,,,,,,,,,,,,
6,17,3767,B,71.98552273099926,56.91335756889585,3.599276136549963,0.8939929301478612,B,584.3386999913491,Correct,sub_006_day_17_data.csv,1,300,150.0,Training at home,,,,,,,,,,,,,
6,17,3768,A,58.37825984632278,77.28154645045511,2.9189129923161388,1.2139356929340406,A,603.6703999852762,Correct,sub_006_day_17_data.csv,1,300,150.0,Training at home,,,,,,,,,,,,,
6,17,3769,B,64.41778804669877,32.624009198630965,3.220889402334939,0.5124567381453243,B,941.9512000167742,Correct,sub_006_day_17_data.csv,1,300,150.0,Training at home,,,,,,,,,,,,,
6,17,3770,B,68.67197471984811,59.49017704256472,3.433598735992405,0.9344695157883876,B,658.0110000213608,Correct,sub_006_day_17_data.csv,1,300,150.0,Training at home,,,,,,,,,,,,,
6,17,3771,A,15.850927585533071,43.27946375714928,0.7925463792766536,0.6798322269538294,A,529.2451999848709,Correct,sub_006_day_17_data.csv,1,300,150.0,Training at home,,,,,,,,,,,,,
6,17,3772,B,45.57826298679067,35.562186063344974,2.278913149339534,0.5586095124109896,B,453.3961999695748,Correct,sub_006_day_17_data.csv,1,300,150.0,Training at home,,,,,,,,,,,,,
6,17,3773,B,43.6864029186257,22.89923714260736,2.1843201459312853,0.359700375900129,B,675.6879999884404,Correct,sub_006_day_17_data.csv,1,300,150.0,Training at home,,,,,,,,,,,,,
6,17,3774,A,31.476662084098056,48.642009609977606,1.573833104204903,0.7640669002327488,A,678.7613999913447,Correct,sub_006_day_17_data.csv,1,300,150.0,Training at home,,,,,,,,,,,,,
6,17,3775,B,40.00154700347642,23.59243337589171,2.0000773501738207,0.3705890768700401,B,811.0970999696292,Correct,sub_006_day_17_data.csv,1,300,151.0,Training at home,,,,,,,,,,,,,
6,17,3776,A,48.11214888428765,67.7663901416298,2.4056074442143824,1.0644719671462195,A,562.4986000475474,Correct,sub_006_day_17_data.csv,1,300,151.0,Training at home,,,,,,,,,,,,,
6,17,3777,A,37.822864258727655,53.83108772090144,1.8911432129363828,0.8455767485936584,B,568.8953999779187,Incorrect,sub_006_day_17_data.csv,0,300,151.0,Training at home,,,,,,,,,,,,,
6,17,3778,B,76.96356924894815,48.094772287589095,3.8481784624474074,0.7554709164738195,B,591.2715999875218,Correct,sub_006_day_17_data.csv,1,300,151.0,Training at home,,,,,,,,,,,,,
6,17,3779,B,56.06864423769965,39.377727986984965,2.803432211884983,0.6185439047948458,B,592.9735000245273,Correct,sub_006_day_17_data.csv,1,300,151.0,Training at home,,,,,,,,,,,,,
6,17,3780,B,73.18684662491177,45.968448553546395,3.659342331245589,0.7220707013637084,B,643.0433000205085,Correct,sub_006_day_17_data.csv,1,300,151.0,Training at home,,,,,,,,,,,,,
6,17,3781,A,20.94607359719521,34.78457971458962,1.0473036798597604,0.5463949004478165,A,616.0810999572277,Correct,sub_006_day_17_data.csv,1,300,151.0,Training at home,,,,,,,,,,,,,
6,17,3782,B,40.52112606436301,29.042322832318007,2.0260563032181507,0.4561957402659667,B,509.86690004356205,Correct,sub_006_day_17_data.csv,1,300,151.0,Training at home,,,,,,,,,,,,,
6,17,3783,B,50.500133844030536,25.582026539587105,2.525006692201526,0.4018415332035298,B,458.45079998252913,Correct,sub_006_day_17_data.csv,1,300,151.0,Training at home,,,,,,,,,,,,,
6,17,3784,A,50.82142181111713,81.69341844583303,2.5410710905558567,1.2832372161803298,A,569.460499973502,Correct,sub_006_day_17_data.csv,1,300,151.0,Training at home,,,,,,,,,,,,,
6,17,3785,B,45.93265203788482,24.27311801960635,2.296632601894241,0.3812812462505666,B,506.0333000146784,Correct,sub_006_day_17_data.csv,1,300,151.0,Training at home,,,,,,,,,,,,,
6,17,3786,A,23.919830343366204,45.83191057769794,1.1959915171683102,0.7199259678544009,A,638.6722999741323,Correct,sub_006_day_17_data.csv,1,300,151.0,Training at home,,,,,,,,,,,,,
6,17,3787,A,22.06636938500272,49.015007091509375,1.103318469250136,0.7699259309716873,A,810.2329000248574,Correct,sub_006_day_17_data.csv,1,300,151.0,Training at home,,,,,,,,,,,,,
6,17,3788,A,28.956794786446302,42.05236356862237,1.447839739322315,0.6605569822663554,A,529.2535999906249,Correct,sub_006_day_17_data.csv,1,300,151.0,Training at home,,,,,,,,,,,,,
6,17,3789,B,35.017487872309005,20.446761334008364,1.7508743936154505,0.3211769759831225,B,922.0688000204972,Correct,sub_006_day_17_data.csv,1,300,151.0,Training at home,,,,,,,,,,,,,
6,17,3790,B,48.10857356585119,30.97192464436535,2.4054286782925596,0.4865058546513742,B,586.0201999894343,Correct,sub_006_day_17_data.csv,1,300,151.0,Training at home,,,,,,,,,,,,,
6,17,3791,B,67.3794914383131,34.7007308971504,3.368974571915655,0.5450778063034202,B,489.5515000098385,Correct,sub_006_day_17_data.csv,1,300,151.0,Training at home,,,,,,,,,,,,,
6,17,3792,A,60.639539360559795,83.85196798892083,3.03197696802799,1.317143633115201,A,561.8972000083886,Correct,sub_006_day_17_data.csv,1,300,151.0,Training at home,,,,,,,,,,,,,
6,17,3793,B,32.07020590823914,13.72262878082956,1.6035102954119569,0.21555454882897,B,591.4117000065744,Correct,sub_006_day_17_data.csv,1,300,151.0,Training at home,,,,,,,,,,,,,
6,17,3794,A,21.45629083500336,38.57513965864304,1.072814541750168,0.6059368768139662,A,570.7007999881171,Correct,sub_006_day_17_data.csv,1,300,151.0,Training at home,,,,,,,,,,,,,
6,17,3795,B,71.43250980155658,46.06556726273307,3.571625490077829,0.7235962384802435,B,545.6393999629654,Correct,sub_006_day_17_data.csv,1,300,151.0,Training at home,,,,,,,,,,,,,
6,17,3796,B,33.03588624960418,18.98786837636841,1.651794312480209,0.2982607389926447,B,1104.3771000113338,Correct,sub_006_day_17_data.csv,1,300,151.0,Training at home,,,,,,,,,,,,,
6,17,3797,A,46.754398985083114,77.92903314869041,2.337719949254156,1.2241063902064064,A,657.8552999999374,Correct,sub_006_day_17_data.csv,1,300,151.0,Training at home,,,,,,,,,,,,,
6,17,3798,B,77.80504831439698,48.14888136474852,3.890252415719849,0.7563208598703022,B,494.3180999835022,Correct,sub_006_day_17_data.csv,1,300,151.0,Training at home,,,,,,,,,,,,,
6,17,3799,A,32.26357180837411,47.64941833628929,1.6131785904187057,0.748475312965566,A,668.2605000096373,Correct,sub_006_day_17_data.csv,1,300,151.0,Training at home,,,,,,,,,,,,,
6,17,3800,B,60.65845934274334,28.598329236338262,3.0329229671371674,0.4492215051691124,B,503.702100017108,Correct,sub_006_day_17_data.csv,1,300,152.0,Training at home,,,,,,,,,,,,,
6,17,3801,A,18.202848829262273,31.700461469667506,0.9101424414631136,0.4979496843425686,A,512.519100040663,Correct,sub_006_day_17_data.csv,1,300,152.0,Training at home,,,,,,,,,,,,,
6,17,3802,A,16.496809817372945,35.49759451283337,0.8248404908686473,0.5575949107081334,A,609.3669999972917,Correct,sub_006_day_17_data.csv,1,300,152.0,Training at home,,,,,,,,,,,,,
6,17,3803,A,52.32489889462019,68.82631867505768,2.61624494473101,1.081121285615956,A,627.876800019294,Correct,sub_006_day_17_data.csv,1,300,152.0,Training at home,,,,,,,,,,,,,
6,17,3804,B,69.2686870790702,60.757451583168944,3.4634343539535104,0.9543758177226056,B,1488.3220000192523,Correct,sub_006_day_17_data.csv,1,300,152.0,Training at home,,,,,,,,,,,,,
6,17,3805,A,58.167062413886654,69.31187497633827,2.9083531206943327,1.0887483861609928,B,585.4005999863148,Incorrect,sub_006_day_17_data.csv,0,300,152.0,Training at home,,,,,,,,,,,,,
6,17,3806,B,54.82212474041628,43.02795691187049,2.741106237020814,0.6758815666665524,B,1594.044799974654,Correct,sub_006_day_17_data.csv,1,300,152.0,Training at home,,,,,,,,,,,,,
6,17,3807,A,36.95495217599491,68.6835505203805,1.8477476087997455,1.078878688686454,A,547.4535000394098,Correct,sub_006_day_17_data.csv,1,300,152.0,Training at home,,,,,,,,,,,,,
6,17,3808,A,57.330364749616976,72.5114914035205,2.866518237480849,1.1390078434706972,A,709.8384000128135,Correct,sub_006_day_17_data.csv,1,300,152.0,Training at home,,,,,,,,,,,,,
6,17,3809,A,31.4578718430946,63.361721439263064,1.5728935921547298,0.9952835929619588,A,616.1710000014864,Correct,sub_006_day_17_data.csv,1,300,152.0,Training at home,,,,,,,,,,,,,
6,17,3810,A,20.994990315875867,47.65839483587929,1.0497495157937933,0.7486163154914007,A,688.3131999638863,Correct,sub_006_day_17_data.csv,1,300,152.0,Training at home,,,,,,,,,,,,,
6,17,3811,B,74.81657743138095,59.855647168906984,3.740828871569048,0.9402103071085044,B,1227.599099976942,Correct,sub_006_day_17_data.csv,1,300,152.0,Training at home,,,,,,,,,,,,,
6,17,3812,B,62.37528650838774,34.27005428753151,3.118764325419387,0.5383127539391619,B,1455.2130000083707,Correct,sub_006_day_17_data.csv,1,300,152.0,Training at home,,,,,,,,,,,,,
6,17,3813,A,23.449761217678585,48.07307851691391,1.1724880608839292,0.7551301515209102,A,645.547800057102,Correct,sub_006_day_17_data.csv,1,300,152.0,Training at home,,,,,,,,,,,,,
6,17,3814,A,19.80850248072228,38.15160470171395,0.990425124036114,0.5992840052678318,A,763.6701000155881,Correct,sub_006_day_17_data.csv,1,300,152.0,Training at home,,,,,,,,,,,,,
6,17,3815,A,47.59922885640988,73.51896548766587,2.379961442820494,1.154833209377863,A,1104.818099993281,Correct,sub_006_day_17_data.csv,1,300,152.0,Training at home,,,,,,,,,,,,,
6,17,3816,A,34.22999546660346,54.79627642876899,1.7114997733301731,0.860737897363481,A,1651.3989999657497,Correct,sub_006_day_17_data.csv,1,300,152.0,Training at home,,,,,,,,,,,,,
6,17,3817,A,14.96258183640524,33.6308489047489,0.7481290918202619,0.5282721392657375,A,491.40820000320673,Correct,sub_006_day_17_data.csv,1,300,152.0,Training at home,,,,,,,,,,,,,
6,17,3818,B,84.33603947002612,64.81366516876045,4.216801973501306,1.0180906717320324,B,1546.4671999798156,Correct,sub_006_day_17_data.csv,1,300,152.0,Training at home,,,,,,,,,,,,,
6,17,3819,B,49.17373658801175,37.65548555505094,2.4586868294005875,0.591490983935523,B,971.0079000215046,Correct,sub_006_day_17_data.csv,1,300,152.0,Training at home,,,,,,,,,,,,,
6,17,3820,B,75.36320981419722,59.80002192551747,3.7681604907098607,0.9393365478285712,B,812.8931999672204,Correct,sub_006_day_17_data.csv,1,300,152.0,Training at home,,,,,,,,,,,,,
6,17,3821,A,30.237078710425735,43.30611531198042,1.5118539355212868,0.6802508685981506,A,948.4700000029987,Correct,sub_006_day_17_data.csv,1,300,152.0,Training at home,,,,,,,,,,,,,
6,17,3822,B,84.415125877007,56.43975424693027,4.22075629385035,0.8865535865628473,A,415.4338999651373,Incorrect,sub_006_day_17_data.csv,0,300,152.0,Training at home,,,,,,,,,,,,,
6,17,3823,A,26.46729812086425,55.80058457148275,1.3233649060432122,0.876513532778931,A,619.9718999559991,Correct,sub_006_day_17_data.csv,1,300,152.0,Training at home,,,,,,,,,,,,,
6,17,3824,A,16.05097493636764,40.18058978415063,0.8025487468183821,0.6311552284139634,B,574.0398999769241,Incorrect,sub_006_day_17_data.csv,0,300,152.0,Training at home,,,,,,,,,,,,,
6,17,3825,A,17.557694279269846,39.527859020065414,0.8778847139634922,0.6209021575478527,A,569.9525999953039,Correct,sub_006_day_17_data.csv,1,300,153.0,Training at home,,,,,,,,,,,,,
6,17,3826,A,43.87496259472654,67.8759141523245,2.193748129736327,1.0661923662831707,A,658.8229999761097,Correct,sub_006_day_17_data.csv,1,300,153.0,Training at home,,,,,,,,,,,,,
6,17,3827,A,50.707479090133155,78.78535386227134,2.5353739545066576,1.2375574445209192,A,526.576499978546,Correct,sub_006_day_17_data.csv,1,300,153.0,Training at home,,,,,,,,,,,,,
6,17,3828,A,35.18551122947431,55.76049243661285,1.7592755614737154,0.8758837669970608,A,814.3701000371948,Correct,sub_006_day_17_data.csv,1,300,153.0,Training at home,,,,,,,,,,,,,
6,17,3829,A,30.729636746136016,48.601918937660685,1.5364818373068008,0.7634371574246072,A,559.3129000044428,Correct,sub_006_day_17_data.csv,1,300,153.0,Training at home,,,,,,,,,,,,,
6,17,3830,B,57.63113681036177,30.48416328609308,2.8815568405180887,0.4788441171521085,B,607.3235000367276,Correct,sub_006_day_17_data.csv,1,300,153.0,Training at home,,,,,,,,,,,,,
6,17,3831,A,10.764648261947404,33.348856908143674,0.5382324130973701,0.523842619341207,A,544.3896999931894,Correct,sub_006_day_17_data.csv,1,300,153.0,Training at home,,,,,,,,,,,,,
6,17,3832,B,73.98515543119731,58.616231761883746,3.6992577715598656,0.9207416154212532,B,634.3916999758221,Correct,sub_006_day_17_data.csv,1,300,153.0,Training at home,,,,,,,,,,,,,
6,17,3833,A,36.11058579136644,54.87743870618271,1.805529289568322,0.8620127914358389,A,1376.9088999833912,Correct,sub_006_day_17_data.csv,1,300,153.0,Training at home,,,,,,,,,,,,,
6,17,3834,A,43.36734214328864,62.70332731648734,2.168367107164432,0.9849415622655642,A,510.9408000134863,Correct,sub_006_day_17_data.csv,1,300,153.0,Training at home,,,,,,,,,,,,,
6,17,3835,A,24.889538494358423,55.58370332410235,1.2444769247179213,0.8731067701115728,A,734.6608000225388,Correct,sub_006_day_17_data.csv,1,300,153.0,Training at home,,,,,,,,,,,,,
6,17,3836,A,35.33271381503576,44.234139438373504,1.766635690751788,0.6948282374873037,A,498.50049999076873,Correct,sub_006_day_17_data.csv,1,300,153.0,Training at home,,,,,,,,,,,,,
6,17,3837,B,32.684833294758135,20.644114605129865,1.6342416647379068,0.3242769939167086,B,1651.7868000082672,Correct,sub_006_day_17_data.csv,1,300,153.0,Training at home,,,,,,,,,,,,,
6,17,3838,A,24.28985060619049,40.72789070021091,1.2144925303095246,0.6397522110999533,A,633.8205999927595,Correct,sub_006_day_17_data.csv,1,300,153.0,Training at home,,,,,,,,,,,,,
6,17,3839,B,54.62841065360155,25.096094820665588,2.731420532680078,0.3942085356119792,B,918.0666000465862,Correct,sub_006_day_17_data.csv,1,300,153.0,Training at home,,,,,,,,,,,,,
6,17,3840,A,55.53098231246517,79.9800910364247,2.7765491156232587,1.2563243321673736,A,649.6009000111371,Correct,sub_006_day_17_data.csv,1,300,153.0,Training at home,,,,,,,,,,,,,
6,17,3841,B,64.18924802519471,34.755333554482235,3.209462401259736,0.5459355028391211,B,665.217199944891,Correct,sub_006_day_17_data.csv,1,300,153.0,Training at home,,,,,,,,,,,,,
6,17,3842,A,27.436571666185017,50.69055808759776,1.371828583309251,0.796245424471819,A,1395.0864999787882,Correct,sub_006_day_17_data.csv,1,300,153.0,Training at home,,,,,,,,,,,,,
6,17,3843,A,47.60905687625936,74.62524433228063,2.380452843812968,1.1722105968331809,A,1068.6711000162177,Correct,sub_006_day_17_data.csv,1,300,153.0,Training at home,,,,,,,,,,,,,
6,17,3844,B,34.107193996807844,17.61711102698009,1.7053596998403922,0.2767289328991819,B,1798.0164000182413,Correct,sub_006_day_17_data.csv,1,300,153.0,Training at home,,,,,,,,,,,,,
6,17,3845,B,85.37604568907905,68.18309944588651,4.268802284453952,1.0710176215908969,B,927.9911000048742,Correct,sub_006_day_17_data.csv,1,300,153.0,Training at home,,,,,,,,,,,,,
6,17,3846,B,72.03203542085828,57.25405826703687,3.601601771042914,0.8993446441996249,A,1157.6214999658987,Incorrect,sub_006_day_17_data.csv,0,300,153.0,Training at home,,,,,,,,,,,,,
6,17,3847,A,42.85565186869596,51.05108684071301,2.1427825934347977,0.8019085968827928,A,572.7471999707632,Correct,sub_006_day_17_data.csv,1,300,153.0,Training at home,,,,,,,,,,,,,
6,17,3848,A,20.34732176573028,44.66028850374369,1.017366088286514,0.7015221713528094,A,500.91150001389906,Correct,sub_006_day_17_data.csv,1,300,153.0,Training at home,,,,,,,,,,,,,
6,17,3849,B,83.91455086877394,62.63938443092528,4.195727543438697,0.9839371497679084,B,493.92310000257567,Correct,sub_006_day_17_data.csv,1,300,153.0,Training at home,,,,,,,,,,,,,
6,17,3850,B,75.24995232156512,47.543776643869634,3.762497616078256,0.7468158971414741,B,708.5821999935433,Correct,sub_006_day_17_data.csv,1,300,154.0,Training at home,,,,,,,,,,,,,
6,17,3851,B,63.621715906876496,31.04512513440691,3.181085795343825,0.4876556852601429,B,484.5299000153318,Correct,sub_006_day_17_data.csv,1,300,154.0,Training at home,,,,,,,,,,,,,
6,17,3852,A,38.41784190159722,68.8640294100388,1.9208920950798611,1.0817136444558466,A,584.6212000469677,Correct,sub_006_day_17_data.csv,1,300,154.0,Training at home,,,,,,,,,,,,,
6,17,3853,A,29.310503055160332,58.424603894883134,1.4655251527580164,0.9177315319252924,A,833.7751000071876,Correct,sub_006_day_17_data.csv,1,300,154.0,Training at home,,,,,,,,,,,,,
6,17,3854,B,48.03566094891892,38.74163439609367,2.401783047445946,0.6085521700341476,B,2221.380200004205,Correct,sub_006_day_17_data.csv,1,300,154.0,Training at home,,,,,,,,,,,,,
6,17,3855,B,57.17320200932744,37.98540410344988,2.858660100466372,0.5966733323751886,B,1775.939599960111,Correct,sub_006_day_17_data.csv,1,300,154.0,Training at home,,,,,,,,,,,,,
6,17,3856,A,22.01283275682844,39.075422695290634,1.100641637841422,0.6137953043772045,A,844.4692000048235,Correct,sub_006_day_17_data.csv,1,300,154.0,Training at home,,,,,,,,,,,,,
6,17,3857,A,47.1628373322728,72.55910051482115,2.35814186661364,1.1397556856422275,A,605.8536999626085,Correct,sub_006_day_17_data.csv,1,300,154.0,Training at home,,,,,,,,,,,,,
6,17,3858,B,51.2726356327343,27.422544488064943,2.563631781636715,0.4307523215322205,B,519.5373999886215,Correct,sub_006_day_17_data.csv,1,300,154.0,Training at home,,,,,,,,,,,,,
6,17,3859,A,44.90047338333957,54.60153761377895,2.2450236691669785,0.8576789472107735,A,522.73080003215,Correct,sub_006_day_17_data.csv,1,300,154.0,Training at home,,,,,,,,,,,,,
6,17,3860,B,81.55516323538046,67.97418852772918,4.077758161769023,1.067736056562208,A,1861.8742999969984,Incorrect,sub_006_day_17_data.csv,0,300,154.0,Training at home,,,,,,,,,,,,,
6,17,3861,A,45.65611395770493,69.49582152670936,2.2828056978852462,1.0916378118174876,A,661.8706000153907,Correct,sub_006_day_17_data.csv,1,300,154.0,Training at home,,,,,,,,,,,,,
6,17,3862,A,19.763685030979996,50.38592300543258,0.9881842515489998,0.7914602277910396,A,821.338499954436,Correct,sub_006_day_17_data.csv,1,300,154.0,Training at home,,,,,,,,,,,,,
6,17,3863,B,58.749838990232014,40.98877231193221,2.9374919495116005,0.6438501298741548,B,973.61099999398,Correct,sub_006_day_17_data.csv,1,300,154.0,Training at home,,,,,,,,,,,,,
6,17,3864,B,68.25165711781631,52.571679466244056,3.4125828558908156,0.8257940099901486,B,1386.258100043051,Correct,sub_006_day_17_data.csv,1,300,154.0,Training at home,,,,,,,,,,,,,
6,17,3865,B,39.438552331907005,14.79100215662898,1.9719276165953503,0.232336518572482,B,1100.9103000396865,Correct,sub_006_day_17_data.csv,1,300,154.0,Training at home,,,,,,,,,,,,,
6,17,3866,A,47.4440579371428,69.93980226365117,2.3722028968571403,1.0986118449250464,A,1155.846300011035,Correct,sub_006_day_17_data.csv,1,300,154.0,Training at home,,,,,,,,,,,,,
6,17,3867,A,17.110889264438825,37.97728596138784,0.8555444632219412,0.596545812897874,A,599.3777999537997,Correct,sub_006_day_17_data.csv,1,300,154.0,Training at home,,,,,,,,,,,,,
6,17,3868,A,33.31738365284195,46.93707730739596,1.6658691826420975,0.7372858862494567,A,1140.2855000342242,Correct,sub_006_day_17_data.csv,1,300,154.0,Training at home,,,,,,,,,,,,,
6,17,3869,A,15.4067185519411,32.56696663925527,0.7703359275970549,0.5115607157179412,A,784.8251999821514,Correct,sub_006_day_17_data.csv,1,300,154.0,Training at home,,,,,,,,,,,,,
6,17,3870,A,31.551931252031252,43.628892804465394,1.5775965626015624,0.6853210455938255,A,704.4587000273168,Correct,sub_006_day_17_data.csv,1,300,154.0,Training at home,,,,,,,,,,,,,
6,17,3871,A,11.977930187696565,33.49562788090829,0.5988965093848282,0.5261480923901947,A,773.2033999636769,Correct,sub_006_day_17_data.csv,1,300,154.0,Training at home,,,,,,,,,,,,,
6,17,3872,A,62.00830398019683,88.36835911407695,3.1004151990098414,1.388086939012844,A,659.913300012704,Correct,sub_006_day_17_data.csv,1,300,154.0,Training at home,,,,,,,,,,,,,
6,17,3873,A,66.08419354969678,82.98339152695362,3.304209677484839,1.303500065955215,A,608.8156999903731,Correct,sub_006_day_17_data.csv,1,300,154.0,Training at home,,,,,,,,,,,,,
6,17,3874,B,85.27090223562031,62.51807247150671,4.263545111781016,0.9820315859653987,B,931.1355000245384,Correct,sub_006_day_17_data.csv,1,300,154.0,Training at home,,,,,,,,,,,,,
6,17,3875,A,66.3832467591312,79.99274926000876,3.31916233795656,1.2565231670784696,B,996.1100000073202,Incorrect,sub_006_day_17_data.csv,0,300,155.0,Training at home,,,,,,,,,,,,,
6,17,3876,A,25.71694346477458,44.69818134229558,1.2858471732387289,0.7021173906689008,A,663.5731999995187,Correct,sub_006_day_17_data.csv,1,300,155.0,Training at home,,,,,,,,,,,,,
6,17,3877,B,37.38431300672629,23.67835099255274,1.8692156503363144,0.3719386676366213,B,655.221100023482,Correct,sub_006_day_17_data.csv,1,300,155.0,Training at home,,,,,,,,,,,,,
6,17,3878,A,66.75132803649772,79.59504186792385,3.3375664018248865,1.250275993972208,A,987.4635000014678,Correct,sub_006_day_17_data.csv,1,300,155.0,Training at home,,,,,,,,,,,,,
6,17,3879,B,53.51194530737724,45.43380692205386,2.675597265368862,0.7136725702547075,B,649.6595999924466,Correct,sub_006_day_17_data.csv,1,300,155.0,Training at home,,,,,,,,,,,,,
6,17,3880,B,71.64371902370694,40.20978721861743,3.5821859511853464,0.6316138606420864,B,680.726999999024,Correct,sub_006_day_17_data.csv,1,300,155.0,Training at home,,,,,,,,,,,,,
6,17,3881,A,14.602314796772006,33.571577738745994,0.7301157398386003,0.5273411099673153,A,699.6269999654032,Correct,sub_006_day_17_data.csv,1,300,155.0,Training at home,,,,,,,,,,,,,
6,17,3882,B,66.8793773736617,42.001206672595885,3.3439688686830844,0.6597534116226692,B,561.1404000082985,Correct,sub_006_day_17_data.csv,1,300,155.0,Training at home,,,,,,,,,,,,,
6,17,3883,A,47.78761137043697,58.525390802852634,2.3893805685218483,0.9193146889735674,A,908.4779999684542,Correct,sub_006_day_17_data.csv,1,300,155.0,Training at home,,,,,,,,,,,,,
6,17,3884,A,18.907451477037988,46.66627652251817,0.9453725738518994,0.7330321574676646,A,1300.6282999995165,Correct,sub_006_day_17_data.csv,1,300,155.0,Training at home,,,,,,,,,,,,,
6,17,3885,A,28.392183816605964,48.68024889259917,1.419609190830298,0.764667561479561,A,585.2497000014409,Correct,sub_006_day_17_data.csv,1,300,155.0,Training at home,,,,,,,,,,,,,
6,17,3886,B,84.50664279530363,60.42872956131109,4.2253321397651815,0.9492122642778964,B,697.5931000197306,Correct,sub_006_day_17_data.csv,1,300,155.0,Training at home,,,,,,,,,,,,,
6,17,3887,A,11.97583614781454,30.297567391160484,0.598791807390727,0.4759130756885572,A,506.6469999728725,Correct,sub_006_day_17_data.csv,1,300,155.0,Training at home,,,,,,,,,,,,,
6,17,3888,A,49.16691040292123,60.15004681843595,2.458345520146062,0.9448347259894024,A,665.7047999906354,Correct,sub_006_day_17_data.csv,1,300,155.0,Training at home,,,,,,,,,,,,,
6,17,3889,B,49.76739883582365,33.606305957647734,2.4883699417911824,0.5278866195541851,B,522.3503999877721,Correct,sub_006_day_17_data.csv,1,300,155.0,Training at home,,,,,,,,,,,,,
6,17,3890,B,38.1178164155997,21.015368275506106,1.9058908207799847,0.3301086329340699,B,618.0330999777652,Correct,sub_006_day_17_data.csv,1,300,155.0,Training at home,,,,,,,,,,,,,
6,17,3891,B,65.7310514173631,35.312383501001406,3.2865525708681553,0.5546856229374573,B,488.1214000051841,Correct,sub_006_day_17_data.csv,1,300,155.0,Training at home,,,,,,,,,,,,,
6,17,3892,A,39.23383721193305,52.906382616466665,1.961691860596653,0.8310515147795121,A,777.1692000096664,Correct,sub_006_day_17_data.csv,1,300,155.0,Training at home,,,,,,,,,,,,,
6,17,3893,B,86.70502674041572,62.4187625031709,4.335251337020786,0.9804716286306387,A,1612.4847000464797,Incorrect,sub_006_day_17_data.csv,0,300,155.0,Training at home,,,,,,,,,,,,,
6,17,3894,A,46.586801272243584,58.426293025252335,2.3293400636121793,0.9177580647230864,A,654.5811000396498,Correct,sub_006_day_17_data.csv,1,300,155.0,Training at home,,,,,,,,,,,,,
6,17,3895,B,47.91033341807531,35.984945114111476,2.3955166709037656,0.5652501960516226,B,808.4830999723636,Correct,sub_006_day_17_data.csv,1,300,155.0,Training at home,,,,,,,,,,,,,
6,17,3896,B,49.92364227697002,35.011739962567546,2.496182113848501,0.5499631252789919,B,1591.7038000188768,Correct,sub_006_day_17_data.csv,1,300,155.0,Training at home,,,,,,,,,,,,,
6,17,3897,A,34.22947509486599,58.84235679335178,1.7114737547432994,0.9242935791095171,A,1054.0531000006013,Correct,sub_006_day_17_data.csv,1,300,155.0,Training at home,,,,,,,,,,,,,
6,17,3898,A,59.25797558877774,78.23103938132037,2.9628987794388872,1.2288502930152494,A,1018.5569999739528,Correct,sub_006_day_17_data.csv,1,300,155.0,Training at home,,,,,,,,,,,,,
6,17,3899,A,64.36582386405644,88.82000669622533,3.218291193202822,1.3951814026432885,A,880.0158000085503,Correct,sub_006_day_17_data.csv,1,300,155.0,Training at home,,,,,,,,,,,,,
