subject,day,trial,cat,x,y,xt,yt,resp,rt,fb,f_name,acc,n_trials,block,session_type,ns_left_digit,ns_right_digit,ns_left_size,ns_right_size,ns_congruent,ns_cue,ns_correct_side,ns_resp,ns_rt,ns_fb,acc_stroop,acc_stroop_mean,resp_key
6,10,2100,B,63.99066771425992,42.72554372318012,3.199533385712996,0.6711312714068608,A,1105.2004000011948,Incorrect,sub_006_day_10_data.csv,0,300,84.0,Training at home,,,,,,,,,,,,,
6,10,2101,B,72.27329987411704,40.191727236490465,3.613664993705852,0.6313301751062161,B,570.9163999999873,Correct,sub_006_day_10_data.csv,1,300,84.0,Training at home,,,,,,,,,,,,,
6,10,2102,A,41.62771732986545,60.72114792049839,2.0813858664932723,0.9538055611228844,A,572.2803999960888,Correct,sub_006_day_10_data.csv,1,300,84.0,Training at home,,,,,,,,,,,,,
6,10,2103,B,53.02926567148275,31.13766868191964,2.651463283574137,0.4891093559051586,B,691.0461000006762,Correct,sub_006_day_10_data.csv,1,300,84.0,Training at home,,,,,,,,,,,,,
6,10,2104,A,16.221217446839045,37.81723553925739,0.8110608723419523,0.5940317467460292,A,522.9589000009582,Correct,sub_006_day_10_data.csv,1,300,84.0,Training at home,,,,,,,,,,,,,
6,10,2105,B,69.38296688028669,47.04855767240956,3.4691483440143345,0.7390370157281877,B,714.3753999989713,Correct,sub_006_day_10_data.csv,1,300,84.0,Training at home,,,,,,,,,,,,,
6,10,2106,B,83.62052395857995,61.6735244039856,4.181026197928998,0.9687654559427598,B,861.8902000016533,Correct,sub_006_day_10_data.csv,1,300,84.0,Training at home,,,,,,,,,,,,,
6,10,2107,B,61.57080720557212,47.87899172758465,3.0785403602786063,0.752081443363332,B,686.6835000037099,Correct,sub_006_day_10_data.csv,1,300,84.0,Training at home,,,,,,,,,,,,,
6,10,2108,A,43.481270654203506,60.12511227097747,2.1740635327101754,0.9444430550338218,A,912.006599995948,Correct,sub_006_day_10_data.csv,1,300,84.0,Training at home,,,,,,,,,,,,,
6,10,2109,B,73.3263335941496,43.92116619169817,3.66631667970748,0.6899120652246767,B,504.1497999991406,Correct,sub_006_day_10_data.csv,1,300,84.0,Training at home,,,,,,,,,,,,,
6,10,2110,B,62.02203429959444,32.95645570520643,3.101101714979722,0.5176787956591699,B,559.4646000026842,Correct,sub_006_day_10_data.csv,1,300,84.0,Training at home,,,,,,,,,,,,,
6,10,2111,B,69.9575825951113,47.815789776756006,3.4978791297555656,0.751088669441253,B,680.4711000004318,Correct,sub_006_day_10_data.csv,1,300,84.0,Training at home,,,,,,,,,,,,,
6,10,2112,B,80.23382298277124,64.47101517439344,4.011691149138562,1.0127083382067528,B,403.49170000263257,Correct,sub_006_day_10_data.csv,1,300,84.0,Training at home,,,,,,,,,,,,,
6,10,2113,B,70.1832162082612,43.416893484839015,3.5091608104130603,0.681990968068304,B,710.5271000036737,Correct,sub_006_day_10_data.csv,1,300,84.0,Training at home,,,,,,,,,,,,,
6,10,2114,B,76.52985764259849,56.130238304854245,3.826492882129924,0.8816917215138725,B,456.0014000016963,Correct,sub_006_day_10_data.csv,1,300,84.0,Training at home,,,,,,,,,,,,,
6,10,2115,A,47.34173747775535,72.2064488478287,2.3670868738877675,1.134216246210729,A,509.81080000201473,Correct,sub_006_day_10_data.csv,1,300,84.0,Training at home,,,,,,,,,,,,,
6,10,2116,A,54.84800988736771,68.89230004185579,2.7424004943683853,1.08215771850199,A,480.1635999974678,Correct,sub_006_day_10_data.csv,1,300,84.0,Training at home,,,,,,,,,,,,,
6,10,2117,A,36.29560290445876,53.08492493773798,1.814780145222938,0.8338560510038162,A,524.6779000008246,Correct,sub_006_day_10_data.csv,1,300,84.0,Training at home,,,,,,,,,,,,,
6,10,2118,A,38.77391156583971,66.69896278256854,1.9386955782919857,1.047704857398882,A,443.5425999981817,Correct,sub_006_day_10_data.csv,1,300,84.0,Training at home,,,,,,,,,,,,,
6,10,2119,B,43.6092828750659,34.65655068247556,2.1804641437532952,0.5443838251141379,A,517.0647999984794,Incorrect,sub_006_day_10_data.csv,0,300,84.0,Training at home,,,,,,,,,,,,,
6,10,2120,B,35.61860125177672,22.68866486149833,1.7809300625888358,0.3563927142432202,A,592.3439000034705,Incorrect,sub_006_day_10_data.csv,0,300,84.0,Training at home,,,,,,,,,,,,,
6,10,2121,B,69.83376168352733,48.737814192817254,3.4916880841763662,0.7655717951008951,B,1344.4869000013568,Correct,sub_006_day_10_data.csv,1,300,84.0,Training at home,,,,,,,,,,,,,
6,10,2122,A,48.20561174023804,69.22410506682658,2.4102805870119024,1.0873696996463518,A,612.5629999951343,Correct,sub_006_day_10_data.csv,1,300,84.0,Training at home,,,,,,,,,,,,,
6,10,2123,A,67.13673244480006,78.92175606561013,3.3568366222400026,1.2397000453206324,A,983.0249000006006,Correct,sub_006_day_10_data.csv,1,300,84.0,Training at home,,,,,,,,,,,,,
6,10,2124,B,44.79819471080941,20.26716655180469,2.2399097355404707,0.3183559077411519,B,864.5386999996845,Correct,sub_006_day_10_data.csv,1,300,84.0,Training at home,,,,,,,,,,,,,
6,10,2125,B,76.78195760090277,58.068018022133224,3.8390978800451383,0.912130294134267,B,685.1200000019162,Correct,sub_006_day_10_data.csv,1,300,85.0,Training at home,,,,,,,,,,,,,
6,10,2126,A,60.52365006212864,87.2085564520591,3.026182503106432,1.369868801399798,A,675.755800002662,Correct,sub_006_day_10_data.csv,1,300,85.0,Training at home,,,,,,,,,,,,,
6,10,2127,A,57.53510466710752,83.73559873692386,2.876755233355376,1.3153157091793135,A,509.06929999473505,Correct,sub_006_day_10_data.csv,1,300,85.0,Training at home,,,,,,,,,,,,,
6,10,2128,A,21.55723154721783,48.299802624942515,1.0778615773608915,0.7586915254817822,A,557.4979000011808,Correct,sub_006_day_10_data.csv,1,300,85.0,Training at home,,,,,,,,,,,,,
6,10,2129,B,79.71253168020235,61.92798883660608,3.9856265840101175,0.9727625739033618,B,618.2960000005551,Correct,sub_006_day_10_data.csv,1,300,85.0,Training at home,,,,,,,,,,,,,
6,10,2130,A,18.60644711753244,35.262757119243446,0.930322355876622,0.553906093555682,A,514.3595000045025,Correct,sub_006_day_10_data.csv,1,300,85.0,Training at home,,,,,,,,,,,,,
6,10,2131,A,14.651968134358285,41.95721097850079,0.7325984067179142,0.6590623288758756,A,703.1552999978885,Correct,sub_006_day_10_data.csv,1,300,85.0,Training at home,,,,,,,,,,,,,
6,10,2132,A,28.924123805560384,60.46194693776378,1.4462061902780192,0.9497340416070728,A,631.952600000659,Correct,sub_006_day_10_data.csv,1,300,85.0,Training at home,,,,,,,,,,,,,
6,10,2133,A,49.513693362363675,61.192799901342234,2.4756846681181837,0.961214253113235,A,696.6891000047326,Correct,sub_006_day_10_data.csv,1,300,85.0,Training at home,,,,,,,,,,,,,
6,10,2134,A,35.726115558188575,65.38218433351761,1.786305777909429,1.027020949889163,A,530.5024999979651,Correct,sub_006_day_10_data.csv,1,300,85.0,Training at home,,,,,,,,,,,,,
6,10,2135,A,26.031345085318343,53.754987124016,1.3015672542659171,0.844381363213113,A,608.8290000043344,Correct,sub_006_day_10_data.csv,1,300,85.0,Training at home,,,,,,,,,,,,,
6,10,2136,A,43.80128385887296,74.70148809328113,2.190064192943648,1.1734082310303868,A,894.4020999988425,Correct,sub_006_day_10_data.csv,1,300,85.0,Training at home,,,,,,,,,,,,,
6,10,2137,B,36.0016918133788,13.32355951630104,1.8000845906689398,0.2092859834803886,B,603.0046999949263,Correct,sub_006_day_10_data.csv,1,300,85.0,Training at home,,,,,,,,,,,,,
6,10,2138,A,32.430079782509985,45.85111757947004,1.6215039891254992,0.7202276707327245,A,1147.206499997992,Correct,sub_006_day_10_data.csv,1,300,85.0,Training at home,,,,,,,,,,,,,
6,10,2139,A,50.25894853554286,72.70963138845462,2.512947426777143,1.1421202190759543,A,976.2341000023298,Correct,sub_006_day_10_data.csv,1,300,85.0,Training at home,,,,,,,,,,,,,
6,10,2140,A,41.45363659914168,50.44450008513805,2.072681829957084,0.7923803544073971,A,809.8864999992657,Correct,sub_006_day_10_data.csv,1,300,85.0,Training at home,,,,,,,,,,,,,
6,10,2141,A,12.843152352497505,31.076546877082393,0.6421576176248752,0.4881492568399044,A,593.5023999991245,Correct,sub_006_day_10_data.csv,1,300,85.0,Training at home,,,,,,,,,,,,,
6,10,2142,A,24.70149876505491,44.22250519163689,1.2350749382527455,0.6946454871669147,A,675.8364999986952,Correct,sub_006_day_10_data.csv,1,300,85.0,Training at home,,,,,,,,,,,,,
6,10,2143,B,66.90630576774171,42.0696844404069,3.345315288387086,0.6608290578841157,B,553.2230000026175,Correct,sub_006_day_10_data.csv,1,300,85.0,Training at home,,,,,,,,,,,,,
6,10,2144,A,56.74514886954573,81.46332468699813,2.8372574434772866,1.2796229118683669,A,757.5235000040266,Correct,sub_006_day_10_data.csv,1,300,85.0,Training at home,,,,,,,,,,,,,
6,10,2145,A,52.707952540688744,63.73773655587305,2.6353976270344375,1.001190024601862,B,630.8525999993435,Incorrect,sub_006_day_10_data.csv,0,300,85.0,Training at home,,,,,,,,,,,,,
6,10,2146,A,29.859484036056717,42.98025032958555,1.4929742018028358,0.6751321934243812,A,543.4435000061058,Correct,sub_006_day_10_data.csv,1,300,85.0,Training at home,,,,,,,,,,,,,
6,10,2147,A,64.67571906991465,83.7133450496806,3.2337859534957323,1.3149661490775202,A,769.989299995359,Correct,sub_006_day_10_data.csv,1,300,85.0,Training at home,,,,,,,,,,,,,
6,10,2148,B,35.94515991492218,10.572846250877582,1.797257995746109,0.1660778805464569,B,705.4337000008672,Correct,sub_006_day_10_data.csv,1,300,85.0,Training at home,,,,,,,,,,,,,
6,10,2149,A,23.611158633518716,54.49448243045616,1.1805579316759358,0.8559973283234957,A,633.4236999973655,Correct,sub_006_day_10_data.csv,1,300,85.0,Training at home,,,,,,,,,,,,,
6,10,2150,A,58.07377873455612,72.28921926039524,2.903688936727806,1.1355164008109977,B,1972.8202000042072,Incorrect,sub_006_day_10_data.csv,0,300,86.0,Training at home,,,,,,,,,,,,,
6,10,2151,A,65.90206208871851,80.84438128645346,3.295103104435926,1.2699005716676717,A,899.9173000047449,Correct,sub_006_day_10_data.csv,1,300,86.0,Training at home,,,,,,,,,,,,,
6,10,2152,A,50.965171190704034,59.41133451385272,2.548258559535202,0.9332310602434272,A,824.6500000022934,Correct,sub_006_day_10_data.csv,1,300,86.0,Training at home,,,,,,,,,,,,,
6,10,2153,B,46.543107578380074,26.749334399505628,2.3271553789190036,0.4201775621895181,B,992.2590999995008,Correct,sub_006_day_10_data.csv,1,300,86.0,Training at home,,,,,,,,,,,,,
6,10,2154,B,47.946036778615955,18.66290130061565,2.397301838930798,0.2931561681034276,B,536.3147000025492,Correct,sub_006_day_10_data.csv,1,300,86.0,Training at home,,,,,,,,,,,,,
6,10,2155,B,40.0827090832952,21.0251840480728,2.00413545416476,0.330262818728994,B,417.0483999987482,Correct,sub_006_day_10_data.csv,1,300,86.0,Training at home,,,,,,,,,,,,,
6,10,2156,A,45.71771500270587,53.220941507385206,2.2858857501352934,0.8359925942836672,A,778.9150000025984,Correct,sub_006_day_10_data.csv,1,300,86.0,Training at home,,,,,,,,,,,,,
6,10,2157,B,79.31965898687518,66.2742884634232,3.965982949343759,1.0410340887929057,B,925.417300000845,Correct,sub_006_day_10_data.csv,1,300,86.0,Training at home,,,,,,,,,,,,,
6,10,2158,A,40.91597283518124,51.6164322279574,2.045798641759062,0.810789021459332,A,756.6294000062044,Correct,sub_006_day_10_data.csv,1,300,86.0,Training at home,,,,,,,,,,,,,
6,10,2159,B,77.5281703681585,48.676709433898154,3.876408518407925,0.7646119637922971,B,1225.8512999978848,Correct,sub_006_day_10_data.csv,1,300,86.0,Training at home,,,,,,,,,,,,,
6,10,2160,A,59.77121899558841,68.31933825596178,2.988560949779421,1.0731576558152285,B,613.4402999960002,Incorrect,sub_006_day_10_data.csv,0,300,86.0,Training at home,,,,,,,,,,,,,
6,10,2161,B,52.810176030198015,34.64976142034721,2.6405088015099007,0.5442771796340092,B,675.5981000023894,Correct,sub_006_day_10_data.csv,1,300,86.0,Training at home,,,,,,,,,,,,,
6,10,2162,B,50.514585313021755,33.83940695129886,2.525729265651088,0.5315481614001794,B,1029.6059000029345,Correct,sub_006_day_10_data.csv,1,300,86.0,Training at home,,,,,,,,,,,,,
6,10,2163,B,30.938038167260853,14.072894967588995,1.5469019083630426,0.2210565172245918,A,1002.7942999950028,Incorrect,sub_006_day_10_data.csv,0,300,86.0,Training at home,,,,,,,,,,,,,
6,10,2164,B,64.3384166010559,39.612305119051435,3.2169208300527945,0.6222286337688467,B,561.2060999992536,Correct,sub_006_day_10_data.csv,1,300,86.0,Training at home,,,,,,,,,,,,,
6,10,2165,A,34.805897329372655,57.7944031330597,1.7402948664686329,0.9078323615071364,A,626.5070999943418,Correct,sub_006_day_10_data.csv,1,300,86.0,Training at home,,,,,,,,,,,,,
6,10,2166,A,24.50749569235448,41.95992573634622,1.225374784617724,0.659104972192393,A,610.4735000044457,Correct,sub_006_day_10_data.csv,1,300,86.0,Training at home,,,,,,,,,,,,,
6,10,2167,B,69.2630441890216,37.75016824522539,3.4631522094510796,0.5929782561548939,B,619.8996999955853,Correct,sub_006_day_10_data.csv,1,300,86.0,Training at home,,,,,,,,,,,,,
6,10,2168,B,49.75243370139239,31.029773475483537,2.4876216850696196,0.4874145419656726,B,603.4912000031909,Correct,sub_006_day_10_data.csv,1,300,86.0,Training at home,,,,,,,,,,,,,
6,10,2169,A,34.12995289583104,66.64088180415354,1.706497644791552,1.0467925235233724,A,673.9637999999104,Correct,sub_006_day_10_data.csv,1,300,86.0,Training at home,,,,,,,,,,,,,
6,10,2170,B,78.95226845884312,56.91156035511599,3.947613422942157,0.8939646995798225,B,966.5932999996584,Correct,sub_006_day_10_data.csv,1,300,86.0,Training at home,,,,,,,,,,,,,
6,10,2171,A,43.57824636761728,73.07936154071122,2.1789123183808643,1.147927926726654,A,538.5925000009593,Correct,sub_006_day_10_data.csv,1,300,86.0,Training at home,,,,,,,,,,,,,
6,10,2172,A,28.17455452863339,42.96866612742628,1.408727726431669,0.674950229202375,A,705.6403999959002,Correct,sub_006_day_10_data.csv,1,300,86.0,Training at home,,,,,,,,,,,,,
6,10,2173,A,29.030824583230547,56.342110811412226,1.4515412291615275,0.8850198070643736,A,566.3338000013027,Correct,sub_006_day_10_data.csv,1,300,86.0,Training at home,,,,,,,,,,,,,
6,10,2174,B,71.02164705101674,48.14954136407468,3.5510823525508375,0.7563312271154743,B,544.4294000044465,Correct,sub_006_day_10_data.csv,1,300,86.0,Training at home,,,,,,,,,,,,,
6,10,2175,A,26.006735838124577,42.70450933150446,1.3003367919062288,0.6708008639550559,A,613.3417000019108,Correct,sub_006_day_10_data.csv,1,300,87.0,Training at home,,,,,,,,,,,,,
6,10,2176,B,52.78146430202902,32.432503469142766,2.639073215101451,0.509448573180922,B,1502.2945000018808,Correct,sub_006_day_10_data.csv,1,300,87.0,Training at home,,,,,,,,,,,,,
6,10,2177,B,75.7890724475001,54.91915941501495,3.789453622375005,0.8626681387976884,B,559.7812999985763,Correct,sub_006_day_10_data.csv,1,300,87.0,Training at home,,,,,,,,,,,,,
6,10,2178,A,51.00275058669333,68.73766262650727,2.550137529334666,1.0797286796618446,A,602.0114999992074,Correct,sub_006_day_10_data.csv,1,300,87.0,Training at home,,,,,,,,,,,,,
6,10,2179,B,47.76789644605819,37.97893911103563,2.3883948223029092,0.596571780511818,B,608.1359000017983,Correct,sub_006_day_10_data.csv,1,300,87.0,Training at home,,,,,,,,,,,,,
6,10,2180,B,86.61460336442414,60.621077580944075,4.330730168221208,0.952233659904954,B,546.5915000022505,Correct,sub_006_day_10_data.csv,1,300,87.0,Training at home,,,,,,,,,,,,,
6,10,2181,A,20.512972233466332,45.58285666351604,1.0256486116733166,0.7160138381186927,A,505.2849999992759,Correct,sub_006_day_10_data.csv,1,300,87.0,Training at home,,,,,,,,,,,,,
6,10,2182,B,36.9077414241013,26.209445532616023,1.845387071205065,0.4116970076996417,A,1489.0376000039396,Incorrect,sub_006_day_10_data.csv,0,300,87.0,Training at home,,,,,,,,,,,,,
6,10,2183,A,31.492274635704703,54.34542853047654,1.5746137317852351,0.8536559951376712,A,800.4395000025397,Correct,sub_006_day_10_data.csv,1,300,87.0,Training at home,,,,,,,,,,,,,
6,10,2184,A,37.54788556579696,46.53662039857849,1.877394278289848,0.7309955238353556,A,1102.636900002835,Correct,sub_006_day_10_data.csv,1,300,87.0,Training at home,,,,,,,,,,,,,
6,10,2185,B,45.09015073377479,31.356245297139935,2.25450753668874,0.4925427493482717,A,871.7092000006232,Incorrect,sub_006_day_10_data.csv,0,300,87.0,Training at home,,,,,,,,,,,,,
6,10,2186,B,50.30370668492537,33.375986085749396,2.5151853342462687,0.5242687634665273,B,772.6589000012609,Correct,sub_006_day_10_data.csv,1,300,87.0,Training at home,,,,,,,,,,,,,
6,10,2187,B,60.89372560263709,31.595468239142185,3.0446862801318546,0.4963004545340936,B,778.9676999964286,Correct,sub_006_day_10_data.csv,1,300,87.0,Training at home,,,,,,,,,,,,,
6,10,2188,B,73.9140607806334,58.03824916359862,3.6957030390316703,0.9116626859978768,B,589.1829999964102,Correct,sub_006_day_10_data.csv,1,300,87.0,Training at home,,,,,,,,,,,,,
6,10,2189,A,14.438493401366806,34.862118962528925,0.7219246700683403,0.5476128841062714,A,553.3433000018704,Correct,sub_006_day_10_data.csv,1,300,87.0,Training at home,,,,,,,,,,,,,
6,10,2190,B,42.62342334037762,14.035363153830282,2.131171167018881,0.2204669688726904,B,1031.819600000745,Correct,sub_006_day_10_data.csv,1,300,87.0,Training at home,,,,,,,,,,,,,
6,10,2191,A,41.605532921927534,66.68694876422018,2.080276646096377,1.0475161416399652,A,601.3890999965952,Correct,sub_006_day_10_data.csv,1,300,87.0,Training at home,,,,,,,,,,,,,
6,10,2192,A,39.8130764883916,71.85063563992286,1.99065382441958,1.128627145410693,A,616.4210999995703,Correct,sub_006_day_10_data.csv,1,300,87.0,Training at home,,,,,,,,,,,,,
6,10,2193,A,13.246034168138763,34.51267249365486,0.6623017084069381,0.5421237918090832,A,641.2343999982113,Correct,sub_006_day_10_data.csv,1,300,87.0,Training at home,,,,,,,,,,,,,
6,10,2194,A,18.213773461514027,38.8316152672344,0.9106886730757012,0.6099655862528441,A,544.2192999980762,Correct,sub_006_day_10_data.csv,1,300,87.0,Training at home,,,,,,,,,,,,,
6,10,2195,A,61.66441235833884,79.86225733580466,3.0832206179169424,1.2544734047263073,A,1361.563300000853,Correct,sub_006_day_10_data.csv,1,300,87.0,Training at home,,,,,,,,,,,,,
6,10,2196,A,28.555781010279595,42.83578670415548,1.4277890505139796,0.6728629641025711,A,1024.325399994268,Correct,sub_006_day_10_data.csv,1,300,87.0,Training at home,,,,,,,,,,,,,
6,10,2197,A,34.580788173419876,48.354986613275514,1.7290394086709937,0.7595583535434957,A,728.8413000060245,Correct,sub_006_day_10_data.csv,1,300,87.0,Training at home,,,,,,,,,,,,,
6,10,2198,B,39.58008852462916,29.820348583271425,1.979004426231458,0.4684169401834615,A,776.5093999987585,Incorrect,sub_006_day_10_data.csv,0,300,87.0,Training at home,,,,,,,,,,,,,
6,10,2199,B,76.68294256663587,59.44322051474297,3.8341471283317934,0.9337319243741729,B,636.8244999976014,Correct,sub_006_day_10_data.csv,1,300,87.0,Training at home,,,,,,,,,,,,,
6,10,2200,A,13.843716908038497,38.80164179885369,0.6921858454019246,0.6094947641125069,A,731.9806000014069,Correct,sub_006_day_10_data.csv,1,300,88.0,Training at home,,,,,,,,,,,,,
6,10,2201,A,46.39890582840651,54.39291498356297,2.319945291420326,0.8544019105984779,B,1057.8862000038498,Incorrect,sub_006_day_10_data.csv,0,300,88.0,Training at home,,,,,,,,,,,,,
6,10,2202,A,54.37525251162932,75.12683161236941,2.718762625581466,1.180089511404486,A,1178.8876999999047,Correct,sub_006_day_10_data.csv,1,300,88.0,Training at home,,,,,,,,,,,,,
6,10,2203,B,68.99740973426339,53.732837443058976,3.449870486713169,0.8440334368382433,B,1007.2590999989188,Correct,sub_006_day_10_data.csv,1,300,88.0,Training at home,,,,,,,,,,,,,
6,10,2204,A,44.004981895289305,70.04539569272472,2.200249094764465,1.1002705026302706,A,1241.6143999944325,Correct,sub_006_day_10_data.csv,1,300,88.0,Training at home,,,,,,,,,,,,,
6,10,2205,B,49.0826263859435,38.18299492707763,2.454131319297175,0.5997770817748171,B,1083.0095000055735,Correct,sub_006_day_10_data.csv,1,300,88.0,Training at home,,,,,,,,,,,,,
6,10,2206,A,21.641718825684084,52.31428897016168,1.082085941284204,0.8217509295321673,A,492.55319999792846,Correct,sub_006_day_10_data.csv,1,300,88.0,Training at home,,,,,,,,,,,,,
6,10,2207,A,39.43488933388162,68.97361909097161,1.9717444666940809,1.0834350751384856,A,576.7030999995768,Correct,sub_006_day_10_data.csv,1,300,88.0,Training at home,,,,,,,,,,,,,
6,10,2208,B,38.0725792186101,19.66064455544573,1.903628960930505,0.3088286825011424,B,594.4968000039808,Correct,sub_006_day_10_data.csv,1,300,88.0,Training at home,,,,,,,,,,,,,
6,10,2209,B,79.61632644215707,51.73285290733115,3.9808163221078536,0.8126177532145645,B,598.538299993379,Correct,sub_006_day_10_data.csv,1,300,88.0,Training at home,,,,,,,,,,,,,
6,10,2210,A,42.415623966685814,51.343360768373664,2.120781198334291,0.8064996250026656,B,588.5626999952365,Incorrect,sub_006_day_10_data.csv,0,300,88.0,Training at home,,,,,,,,,,,,,
6,10,2211,A,39.14633123844541,59.141274314122754,1.9573165619222703,0.9289889645459338,A,832.4376000018674,Correct,sub_006_day_10_data.csv,1,300,88.0,Training at home,,,,,,,,,,,,,
6,10,2212,B,37.20566895514473,27.97650186410022,1.8602834477572368,0.439453863646992,A,551.930399997218,Incorrect,sub_006_day_10_data.csv,0,300,88.0,Training at home,,,,,,,,,,,,,
6,10,2213,B,71.71078514177896,41.74118215836529,3.5855392570889477,0.6556689561043687,B,491.4726999995764,Correct,sub_006_day_10_data.csv,1,300,88.0,Training at home,,,,,,,,,,,,,
6,10,2214,B,53.27067846289429,26.471804155274985,2.663533923144714,0.4158181273073982,B,432.2761000003083,Correct,sub_006_day_10_data.csv,1,300,88.0,Training at home,,,,,,,,,,,,,
6,10,2215,B,43.470275435495175,19.68043785540342,2.173513771774759,0.3091395949298292,B,1041.9238999966185,Correct,sub_006_day_10_data.csv,1,300,88.0,Training at home,,,,,,,,,,,,,
6,10,2216,A,25.338735384266492,37.87250383658572,1.2669367692133249,0.5948998991303448,A,570.3712999966228,Correct,sub_006_day_10_data.csv,1,300,88.0,Training at home,,,,,,,,,,,,,
6,10,2217,B,36.87919455693766,25.591321762943117,1.843959727846883,0.4019875422305735,B,533.6411000025691,Correct,sub_006_day_10_data.csv,1,300,88.0,Training at home,,,,,,,,,,,,,
6,10,2218,B,78.82509983752803,48.33416816703032,3.9412549918764017,0.7592313381545805,B,492.2394000022905,Correct,sub_006_day_10_data.csv,1,300,88.0,Training at home,,,,,,,,,,,,,
6,10,2219,B,76.20584784136754,54.74917670528724,3.810292392068377,0.859998056637099,B,470.6896999996388,Correct,sub_006_day_10_data.csv,1,300,88.0,Training at home,,,,,,,,,,,,,
6,10,2220,A,48.64534265889197,66.18318699187428,2.4322671329445984,1.039603070224159,A,888.7506000028225,Correct,sub_006_day_10_data.csv,1,300,88.0,Training at home,,,,,,,,,,,,,
6,10,2221,B,70.39501218979849,50.10811298096683,3.5197506094899245,0.7870963981312636,B,655.6153000055929,Correct,sub_006_day_10_data.csv,1,300,88.0,Training at home,,,,,,,,,,,,,
6,10,2222,A,37.848580659670255,49.56500090976192,1.8924290329835127,0.7785652136663971,A,1026.6210999980103,Correct,sub_006_day_10_data.csv,1,300,88.0,Training at home,,,,,,,,,,,,,
6,10,2223,B,46.83909924282992,32.15818544831707,2.3419549621414957,0.5051395957860555,B,609.7259999951348,Correct,sub_006_day_10_data.csv,1,300,88.0,Training at home,,,,,,,,,,,,,
6,10,2224,A,47.80657048043035,70.22496504910859,2.390328524021518,1.1030911714843976,A,567.2421000053873,Correct,sub_006_day_10_data.csv,1,300,88.0,Training at home,,,,,,,,,,,,,
6,10,2225,A,24.899249910245818,38.85531748535626,1.2449624955122909,0.6103378998244713,A,568.3983999988413,Correct,sub_006_day_10_data.csv,1,300,89.0,Training at home,,,,,,,,,,,,,
6,10,2226,B,39.81506103076975,18.055039976015856,1.9907530515384877,0.2836079047446072,B,924.528499999724,Correct,sub_006_day_10_data.csv,1,300,89.0,Training at home,,,,,,,,,,,,,
6,10,2227,A,62.94647175172068,73.7017677208352,3.1473235875860337,1.157704660141786,B,1145.7503999990877,Incorrect,sub_006_day_10_data.csv,0,300,89.0,Training at home,,,,,,,,,,,,,
6,10,2228,A,50.81025308302006,70.42088401838447,2.540512654151003,1.1061686594572775,A,636.8509000021731,Correct,sub_006_day_10_data.csv,1,300,89.0,Training at home,,,,,,,,,,,,,
6,10,2229,B,34.770370152950136,21.565826001039863,1.7385185076475067,0.3387552026673129,B,784.4038000039291,Correct,sub_006_day_10_data.csv,1,300,89.0,Training at home,,,,,,,,,,,,,
6,10,2230,B,85.48407529308719,64.9266022258807,4.274203764654359,1.0198646828768676,B,730.4547999956412,Correct,sub_006_day_10_data.csv,1,300,89.0,Training at home,,,,,,,,,,,,,
6,10,2231,A,12.118843501456986,31.141908327524057,0.6059421750728493,0.4891759521025818,A,632.907699997304,Correct,sub_006_day_10_data.csv,1,300,89.0,Training at home,,,,,,,,,,,,,
6,10,2232,B,80.42409615572248,63.330958269966416,4.021204807786124,0.9948003662286412,B,1142.435599998862,Correct,sub_006_day_10_data.csv,1,300,89.0,Training at home,,,,,,,,,,,,,
6,10,2233,A,30.21538674945848,50.58661363033647,1.510769337472924,0.7946126687552518,A,529.232699998829,Correct,sub_006_day_10_data.csv,1,300,89.0,Training at home,,,,,,,,,,,,,
6,10,2234,B,42.181217246651286,20.583116900336723,2.109060862332564,0.3233188442103888,B,642.584799999895,Correct,sub_006_day_10_data.csv,1,300,89.0,Training at home,,,,,,,,,,,,,
6,10,2235,A,63.00834149582822,74.51656472351065,3.1504170747914113,1.1705034615306469,A,862.6916000066558,Correct,sub_006_day_10_data.csv,1,300,89.0,Training at home,,,,,,,,,,,,,
6,10,2236,A,11.114374347346882,35.25951685327065,0.5557187173673441,0.5538551955768029,A,545.5585000017891,Correct,sub_006_day_10_data.csv,1,300,89.0,Training at home,,,,,,,,,,,,,
6,10,2237,A,47.10161414791224,55.12267203100366,2.355080707395612,0.8658649074942033,B,782.2119999982533,Incorrect,sub_006_day_10_data.csv,0,300,89.0,Training at home,,,,,,,,,,,,,
6,10,2238,A,44.8932039557961,63.54303229861442,2.244660197789805,0.9981316172807302,A,915.1717000058852,Correct,sub_006_day_10_data.csv,1,300,89.0,Training at home,,,,,,,,,,,,,
6,10,2239,A,35.421235663723486,56.113989567513,1.771061783186174,0.8814364869445656,A,519.1995999994106,Correct,sub_006_day_10_data.csv,1,300,89.0,Training at home,,,,,,,,,,,,,
6,10,2240,B,35.09742760446082,24.80667319654848,1.754871380223041,0.3896623113713977,B,919.8329000064404,Correct,sub_006_day_10_data.csv,1,300,89.0,Training at home,,,,,,,,,,,,,
6,10,2241,B,54.48957672018855,38.472439494294,2.7244788360094274,0.6043236664047593,B,523.7534999978379,Correct,sub_006_day_10_data.csv,1,300,89.0,Training at home,,,,,,,,,,,,,
6,10,2242,B,56.72448355299514,28.63495439893128,2.8362241776497568,0.4497968118778061,B,863.6416000008467,Correct,sub_006_day_10_data.csv,1,300,89.0,Training at home,,,,,,,,,,,,,
6,10,2243,B,78.37457116492664,57.30436953579981,3.918728558246331,0.9001349317613171,B,848.5545000003185,Correct,sub_006_day_10_data.csv,1,300,89.0,Training at home,,,,,,,,,,,,,
6,10,2244,A,60.749052287913,69.77425635586462,3.03745261439565,1.0960114558863765,A,843.0908000009367,Correct,sub_006_day_10_data.csv,1,300,89.0,Training at home,,,,,,,,,,,,,
6,10,2245,A,49.23144957876068,71.68080111500377,2.461572478938034,1.1259593909316343,A,892.1845999939251,Correct,sub_006_day_10_data.csv,1,300,89.0,Training at home,,,,,,,,,,,,,
6,10,2246,B,50.06324371958601,19.949662725462023,2.5031621859793005,0.3133685692995281,B,1182.75469999935,Correct,sub_006_day_10_data.csv,1,300,89.0,Training at home,,,,,,,,,,,,,
6,10,2247,A,63.07056824910583,86.74288903800445,3.1535284124552914,1.3625541147647469,A,1631.3399999999092,Correct,sub_006_day_10_data.csv,1,300,89.0,Training at home,,,,,,,,,,,,,
6,10,2248,B,56.35160549437004,43.89961645197911,2.817580274718502,0.6895735627047358,B,748.4450999982073,Correct,sub_006_day_10_data.csv,1,300,89.0,Training at home,,,,,,,,,,,,,
6,10,2249,B,69.65171849467848,39.53992998431143,3.4825859247339235,0.6210917678108379,B,862.8106999967713,Correct,sub_006_day_10_data.csv,1,300,89.0,Training at home,,,,,,,,,,,,,
6,10,2250,A,23.175045960088905,53.20276473987524,1.1587522980044451,0.8357070742872906,A,609.5392999995966,Correct,sub_006_day_10_data.csv,1,300,90.0,Training at home,,,,,,,,,,,,,
6,10,2251,A,63.997251383618504,76.97297892603889,3.199862569180925,1.2090887255948288,A,737.0623999959207,Correct,sub_006_day_10_data.csv,1,300,90.0,Training at home,,,,,,,,,,,,,
6,10,2252,A,27.353780277913465,50.60934619160169,1.3676890138956734,0.7949697509925922,A,818.2053999989876,Correct,sub_006_day_10_data.csv,1,300,90.0,Training at home,,,,,,,,,,,,,
6,10,2253,A,30.783753646362733,54.74568333319162,1.5391876823181363,0.8599431828765399,A,564.2663999969955,Correct,sub_006_day_10_data.csv,1,300,90.0,Training at home,,,,,,,,,,,,,
6,10,2254,B,45.81389588139314,31.10233364345971,2.290694794069657,0.4885543144189584,B,861.9314999959897,Correct,sub_006_day_10_data.csv,1,300,90.0,Training at home,,,,,,,,,,,,,
6,10,2255,A,30.821219923782888,46.504917995581785,1.5410609961891444,0.7304975436535774,A,1419.8631000035675,Correct,sub_006_day_10_data.csv,1,300,90.0,Training at home,,,,,,,,,,,,,
6,10,2256,B,68.07443588300377,49.92115674045154,3.4037217941501887,0.7841596963725357,B,582.1694000042044,Correct,sub_006_day_10_data.csv,1,300,90.0,Training at home,,,,,,,,,,,,,
6,10,2257,B,42.344223767219646,19.02694691886975,2.1172111883609825,0.2988745833028208,A,665.8967000039411,Incorrect,sub_006_day_10_data.csv,0,300,90.0,Training at home,,,,,,,,,,,,,
6,10,2258,B,56.812330422666534,30.148913645177025,2.840616521133327,0.4735780281070061,B,628.6531000005198,Correct,sub_006_day_10_data.csv,1,300,90.0,Training at home,,,,,,,,,,,,,
6,10,2259,B,51.85518842407478,42.189614010795935,2.592759421203739,0.6627129071705277,B,555.7738999996218,Correct,sub_006_day_10_data.csv,1,300,90.0,Training at home,,,,,,,,,,,,,
6,10,2260,A,48.59190617446186,57.15737241859485,2.429595308723093,0.8978259064437674,A,909.0228999993996,Correct,sub_006_day_10_data.csv,1,300,90.0,Training at home,,,,,,,,,,,,,
6,10,2261,B,60.44436668979811,51.48786327164531,3.022218334489905,0.8087694650161832,B,704.417500004638,Correct,sub_006_day_10_data.csv,1,300,90.0,Training at home,,,,,,,,,,,,,
6,10,2262,A,17.239724201709294,44.100319541307655,0.8619862100854647,0.6927261994596726,A,466.9735999996192,Correct,sub_006_day_10_data.csv,1,300,90.0,Training at home,,,,,,,,,,,,,
6,10,2263,B,55.306320465464694,26.8542736946004,2.765316023273235,0.4218259447822312,B,873.4012999993865,Correct,sub_006_day_10_data.csv,1,300,90.0,Training at home,,,,,,,,,,,,,
6,10,2264,B,71.53177687843369,54.31105360060951,3.576588843921684,0.8531160350019817,B,776.3689999992494,Correct,sub_006_day_10_data.csv,1,300,90.0,Training at home,,,,,,,,,,,,,
6,10,2265,B,76.9763027327708,54.50068244075349,3.8488151366385406,0.8560947178575069,B,706.515899997612,Correct,sub_006_day_10_data.csv,1,300,90.0,Training at home,,,,,,,,,,,,,
6,10,2266,A,30.066389890231704,49.49529201644538,1.5033194945115853,0.7774702289307318,A,699.8960999990231,Correct,sub_006_day_10_data.csv,1,300,90.0,Training at home,,,,,,,,,,,,,
6,10,2267,A,48.34507635206558,72.38912395578645,2.417253817603279,1.137085700096498,A,774.3974000040907,Correct,sub_006_day_10_data.csv,1,300,90.0,Training at home,,,,,,,,,,,,,
6,10,2268,B,54.38479353695696,42.56441268945151,2.7192396768478484,0.6686002310477251,B,716.800800000783,Correct,sub_006_day_10_data.csv,1,300,90.0,Training at home,,,,,,,,,,,,,
6,10,2269,A,61.9714600914745,83.24472150952894,3.098573004573725,1.3076050277223217,A,995.5707999979496,Correct,sub_006_day_10_data.csv,1,300,90.0,Training at home,,,,,,,,,,,,,
6,10,2270,A,57.32943397856391,70.85411656278886,2.8664716989281955,1.1129738603512618,A,1099.445799998648,Correct,sub_006_day_10_data.csv,1,300,90.0,Training at home,,,,,,,,,,,,,
6,10,2271,A,25.327845002733532,38.051277650381024,1.266392250136677,0.5977080716307126,A,3017.2279000034905,Correct,sub_006_day_10_data.csv,1,300,90.0,Training at home,,,,,,,,,,,,,
6,10,2272,B,69.9848128796692,44.97046825109019,3.4992406439834607,0.7063944634305899,B,1713.8087000057567,Correct,sub_006_day_10_data.csv,1,300,90.0,Training at home,,,,,,,,,,,,,
6,10,2273,A,55.163566745413384,71.92223131961316,2.758178337270669,1.1297517677174125,A,2064.471499994397,Correct,sub_006_day_10_data.csv,1,300,90.0,Training at home,,,,,,,,,,,,,
6,10,2274,A,35.07940676777574,68.03573197014207,1.7539703383887868,1.0687027786950127,A,613.3651999989524,Correct,sub_006_day_10_data.csv,1,300,90.0,Training at home,,,,,,,,,,,,,
6,10,2275,B,50.051130223950274,25.088476340707835,2.502556511197514,0.3940888648086452,B,686.026800001855,Correct,sub_006_day_10_data.csv,1,300,91.0,Training at home,,,,,,,,,,,,,
6,10,2276,A,16.801294869457315,43.266578301356525,0.8400647434728657,0.679629822687546,A,869.7813999970094,Correct,sub_006_day_10_data.csv,1,300,91.0,Training at home,,,,,,,,,,,,,
6,10,2277,B,58.93104797121736,34.062142400292906,2.946552398560868,0.535046881651448,B,574.7677000035765,Correct,sub_006_day_10_data.csv,1,300,91.0,Training at home,,,,,,,,,,,,,
6,10,2278,A,39.23610306625849,51.94172284809868,1.9618051533129244,0.8158986745719197,A,550.9046000006492,Correct,sub_006_day_10_data.csv,1,300,91.0,Training at home,,,,,,,,,,,,,
6,10,2279,B,48.56151630191843,35.41715267097407,2.4280758150959216,0.5563313332110014,B,685.6313000025693,Correct,sub_006_day_10_data.csv,1,300,91.0,Training at home,,,,,,,,,,,,,
6,10,2280,A,44.384898201062335,56.375119080618525,2.2192449100531166,0.8855382997446046,A,974.7109999952954,Correct,sub_006_day_10_data.csv,1,300,91.0,Training at home,,,,,,,,,,,,,
6,10,2281,A,24.750021991889273,51.08641769341434,1.2375010995944635,0.8024635726192505,A,558.7711999978637,Correct,sub_006_day_10_data.csv,1,300,91.0,Training at home,,,,,,,,,,,,,
6,10,2282,A,41.39862987638118,72.89293905514677,2.069931493819059,1.144999609171088,A,653.8092999981018,Correct,sub_006_day_10_data.csv,1,300,91.0,Training at home,,,,,,,,,,,,,
6,10,2283,A,45.143211376856485,66.77232662203178,2.257160568842824,1.048857253894366,A,628.0439999973169,Correct,sub_006_day_10_data.csv,1,300,91.0,Training at home,,,,,,,,,,,,,
6,10,2284,A,29.047035622325662,49.04430360634484,1.452351781116283,0.7703861195506019,A,457.32029999635415,Correct,sub_006_day_10_data.csv,1,300,91.0,Training at home,,,,,,,,,,,,,
6,10,2285,B,44.821087188153214,34.72538865710452,2.241054359407661,0.5454651294910494,B,763.4877000018605,Correct,sub_006_day_10_data.csv,1,300,91.0,Training at home,,,,,,,,,,,,,
6,10,2286,B,37.81222886119002,16.07344017485997,1.8906114430595011,0.2524810078562756,B,1019.0435000040452,Correct,sub_006_day_10_data.csv,1,300,91.0,Training at home,,,,,,,,,,,,,
6,10,2287,B,42.553490004553986,30.12901697477545,2.1276745002276995,0.4732654919391836,B,696.2334000054398,Correct,sub_006_day_10_data.csv,1,300,91.0,Training at home,,,,,,,,,,,,,
6,10,2288,B,48.25660896739727,31.56337502749043,2.4128304483698635,0.4957963355443173,B,583.4211000037612,Correct,sub_006_day_10_data.csv,1,300,91.0,Training at home,,,,,,,,,,,,,
6,10,2289,B,71.59315661676264,47.41181107460545,3.579657830838132,0.7447429868268384,B,905.0597999957972,Correct,sub_006_day_10_data.csv,1,300,91.0,Training at home,,,,,,,,,,,,,
6,10,2290,B,71.35197948107388,55.181757238988894,3.5675989740536944,0.8667930157709146,B,553.0971999978647,Correct,sub_006_day_10_data.csv,1,300,91.0,Training at home,,,,,,,,,,,,,
6,10,2291,A,48.74264858783379,74.23311910320409,2.43713242939169,1.1660511081384106,A,477.3847999967984,Correct,sub_006_day_10_data.csv,1,300,91.0,Training at home,,,,,,,,,,,,,
6,10,2292,B,67.08711215407152,43.31048429365691,3.354355607703576,0.6803194964018433,B,1705.6223999970823,Correct,sub_006_day_10_data.csv,1,300,91.0,Training at home,,,,,,,,,,,,,
6,10,2293,A,19.68095457633401,35.40089036501861,0.9840477288167002,0.5560758855064007,A,657.2626000051969,Correct,sub_006_day_10_data.csv,1,300,91.0,Training at home,,,,,,,,,,,,,
6,10,2294,B,82.96923658343437,53.90418184152264,4.148461829171719,0.8467249083554793,B,547.2145000021555,Correct,sub_006_day_10_data.csv,1,300,91.0,Training at home,,,,,,,,,,,,,
6,10,2295,B,73.8965219162949,47.28977380751567,3.694826095814745,0.7428260299180713,B,654.7688000064227,Correct,sub_006_day_10_data.csv,1,300,91.0,Training at home,,,,,,,,,,,,,
6,10,2296,A,51.97066665955343,68.42970775131604,2.598533332977672,1.074891335794155,B,719.883400000981,Incorrect,sub_006_day_10_data.csv,0,300,91.0,Training at home,,,,,,,,,,,,,
6,10,2297,A,57.220805897875586,66.75157010207425,2.861040294893779,1.0485312112413028,A,545.7156999982544,Correct,sub_006_day_10_data.csv,1,300,91.0,Training at home,,,,,,,,,,,,,
6,10,2298,A,51.87759353088652,67.29604126669162,2.593879676544326,1.0570837442955696,B,1379.4370999967214,Incorrect,sub_006_day_10_data.csv,0,300,91.0,Training at home,,,,,,,,,,,,,
6,10,2299,B,33.28408617141763,11.37664292217686,1.6642043085708815,0.1787038891341257,B,771.1281000010786,Correct,sub_006_day_10_data.csv,1,300,91.0,Training at home,,,,,,,,,,,,,
6,10,2300,B,51.80466896775451,39.91591009994278,2.5902334483877256,0.6269976496566543,B,819.2598999958136,Correct,sub_006_day_10_data.csv,1,300,92.0,Training at home,,,,,,,,,,,,,
6,10,2301,B,73.76794526691432,49.732224090293215,3.688397263345717,0.7811919492437325,B,533.2866000026115,Correct,sub_006_day_10_data.csv,1,300,92.0,Training at home,,,,,,,,,,,,,
6,10,2302,B,85.83763753998416,67.90240468256658,4.2918818769992075,1.0666084785591616,B,835.0487999996403,Correct,sub_006_day_10_data.csv,1,300,92.0,Training at home,,,,,,,,,,,,,
6,10,2303,B,73.0226792260105,42.59933732505582,3.6511339613005247,0.6691488259409442,B,460.8652999959304,Correct,sub_006_day_10_data.csv,1,300,92.0,Training at home,,,,,,,,,,,,,
6,10,2304,A,18.07928752174871,38.94150139904748,0.9039643760874356,0.6116916735750212,A,525.6149999986519,Correct,sub_006_day_10_data.csv,1,300,92.0,Training at home,,,,,,,,,,,,,
6,10,2305,B,64.62287245148873,51.75912208148984,3.2311436225744363,0.8130303884373286,B,1439.628599997377,Correct,sub_006_day_10_data.csv,1,300,92.0,Training at home,,,,,,,,,,,,,
6,10,2306,A,56.11829909026815,81.87969393456203,2.805914954513407,1.286163224715004,A,765.3984999997192,Correct,sub_006_day_10_data.csv,1,300,92.0,Training at home,,,,,,,,,,,,,
6,10,2307,B,51.71866671329115,21.607893242824048,2.5859333356645573,0.3394159933560428,B,507.1870999963721,Correct,sub_006_day_10_data.csv,1,300,92.0,Training at home,,,,,,,,,,,,,
6,10,2308,A,45.922054106980475,74.63348221564189,2.296102705349024,1.172339997202425,A,631.303799993475,Correct,sub_006_day_10_data.csv,1,300,92.0,Training at home,,,,,,,,,,,,,
6,10,2309,B,71.1787600813002,46.55906917767084,3.55893800406501,0.7313481484327484,B,634.908500003803,Correct,sub_006_day_10_data.csv,1,300,92.0,Training at home,,,,,,,,,,,,,
6,10,2310,A,49.599809780365455,58.38782842536497,2.479990489018273,0.9171538642009396,B,936.6177999982028,Incorrect,sub_006_day_10_data.csv,0,300,92.0,Training at home,,,,,,,,,,,,,
6,10,2311,B,39.97194893098006,15.114475542299951,1.998597446549003,0.2374176266327606,B,733.6090000026161,Correct,sub_006_day_10_data.csv,1,300,92.0,Training at home,,,,,,,,,,,,,
6,10,2312,B,75.13140331098323,45.63723299924994,3.7565701655491615,0.7168679796030465,B,557.151499997417,Correct,sub_006_day_10_data.csv,1,300,92.0,Training at home,,,,,,,,,,,,,
6,10,2313,A,10.72853306302254,33.920427510388414,0.5364266531511269,0.5328208293663068,A,513.5981000057654,Correct,sub_006_day_10_data.csv,1,300,92.0,Training at home,,,,,,,,,,,,,
6,10,2314,B,57.2227871109216,37.801572124975245,2.86113935554608,0.5937857064098347,B,563.4619999982533,Correct,sub_006_day_10_data.csv,1,300,92.0,Training at home,,,,,,,,,,,,,
6,10,2315,B,86.31755793870627,68.44685088105818,4.315877896935314,1.075160619446442,B,557.5869000022067,Correct,sub_006_day_10_data.csv,1,300,92.0,Training at home,,,,,,,,,,,,,
6,10,2316,B,70.02059385004179,55.51346865797257,3.5010296925020894,0.8720035265558692,B,480.83929999847896,Correct,sub_006_day_10_data.csv,1,300,92.0,Training at home,,,,,,,,,,,,,
6,10,2317,A,28.353776055726897,40.66280857839645,1.4176888027863448,0.6387299035210916,A,543.6534999971627,Correct,sub_006_day_10_data.csv,1,300,92.0,Training at home,,,,,,,,,,,,,
6,10,2318,A,24.24276965670868,45.695710817478144,1.2121384828354338,0.717786547023765,A,572.5370999934967,Correct,sub_006_day_10_data.csv,1,300,92.0,Training at home,,,,,,,,,,,,,
6,10,2319,B,80.0269685059207,54.1323211581111,4.001348425296035,0.8503085123604257,B,541.0969000004116,Correct,sub_006_day_10_data.csv,1,300,92.0,Training at home,,,,,,,,,,,,,
6,10,2320,B,51.91150471853659,41.78601467848248,2.59557523592683,0.6563731836835791,B,505.509800001164,Correct,sub_006_day_10_data.csv,1,300,92.0,Training at home,,,,,,,,,,,,,
6,10,2321,A,64.15882884694007,75.6875611926113,3.2079414423470034,1.188897431054178,B,1768.3802000028663,Incorrect,sub_006_day_10_data.csv,0,300,92.0,Training at home,,,,,,,,,,,,,
6,10,2322,B,77.18626075168265,49.27096118099226,3.859313037584133,0.7739464484075659,B,698.7643000029493,Correct,sub_006_day_10_data.csv,1,300,92.0,Training at home,,,,,,,,,,,,,
6,10,2323,B,71.26013368648816,39.51345795779763,3.5630066843244084,0.620675946190731,B,1102.298800004064,Correct,sub_006_day_10_data.csv,1,300,92.0,Training at home,,,,,,,,,,,,,
6,10,2324,A,20.674764912740955,50.09434882122923,1.0337382456370476,0.7868801912156913,A,519.5512999998755,Correct,sub_006_day_10_data.csv,1,300,92.0,Training at home,,,,,,,,,,,,,
6,10,2325,A,22.962413821972024,48.53605932146721,1.1481206910986013,0.762402636992599,A,600.7495000012568,Correct,sub_006_day_10_data.csv,1,300,93.0,Training at home,,,,,,,,,,,,,
6,10,2326,A,67.17794962541733,82.2365418966958,3.3588974812708665,1.2917685793964435,B,606.8566999965697,Incorrect,sub_006_day_10_data.csv,0,300,93.0,Training at home,,,,,,,,,,,,,
6,10,2327,A,52.93997652454673,72.95206346342205,2.6469988262273363,1.1459283332045151,A,1228.137500002049,Correct,sub_006_day_10_data.csv,1,300,93.0,Training at home,,,,,,,,,,,,,
6,10,2328,B,36.26466120756003,20.305335392549487,1.8132330603780016,0.3189554624895514,B,826.2573999963934,Correct,sub_006_day_10_data.csv,1,300,93.0,Training at home,,,,,,,,,,,,,
6,10,2329,A,63.094068435184994,74.43690016214144,3.15470342175925,1.1692520935269022,B,647.2150999979931,Incorrect,sub_006_day_10_data.csv,0,300,93.0,Training at home,,,,,,,,,,,,,
6,10,2330,B,55.06493699449138,44.609765653347445,2.7532468497245692,0.700728560274593,B,570.8373000015854,Correct,sub_006_day_10_data.csv,1,300,93.0,Training at home,,,,,,,,,,,,,
6,10,2331,B,83.02522425793586,60.79547591587807,4.151261212896793,0.9549731025440888,B,1057.4883000008413,Correct,sub_006_day_10_data.csv,1,300,93.0,Training at home,,,,,,,,,,,,,
6,10,2332,B,37.463394849691,16.304762676157022,1.87316974248455,0.2561146132096997,B,1346.6932000010274,Correct,sub_006_day_10_data.csv,1,300,93.0,Training at home,,,,,,,,,,,,,
6,10,2333,A,31.546003015954213,46.05041281942408,1.577300150797711,0.7233581930413997,A,582.4119000026258,Correct,sub_006_day_10_data.csv,1,300,93.0,Training at home,,,,,,,,,,,,,
6,10,2334,A,52.54176108683566,68.85062948125577,2.627088054341783,1.0815031588667297,A,965.2458999989904,Correct,sub_006_day_10_data.csv,1,300,93.0,Training at home,,,,,,,,,,,,,
6,10,2335,B,36.640342753250096,13.285326747459482,1.8320171376625047,0.2086854245517934,B,733.5658000010881,Correct,sub_006_day_10_data.csv,1,300,93.0,Training at home,,,,,,,,,,,,,
6,10,2336,A,30.231426529751936,60.62795262966177,1.5115713264875967,0.9523416529176768,A,472.378899998148,Correct,sub_006_day_10_data.csv,1,300,93.0,Training at home,,,,,,,,,,,,,
6,10,2337,B,48.580809020886875,36.18128013638571,2.4290404510443437,0.5683342193697183,B,551.548700001149,Correct,sub_006_day_10_data.csv,1,300,93.0,Training at home,,,,,,,,,,,,,
6,10,2338,B,55.787753397380094,27.680033728210137,2.7893876698690048,0.4347969530583132,B,558.4748999972362,Correct,sub_006_day_10_data.csv,1,300,93.0,Training at home,,,,,,,,,,,,,
6,10,2339,B,52.67917186136739,23.712533750844184,2.6339585930683693,0.3724756091482605,B,1419.5693000001484,Correct,sub_006_day_10_data.csv,1,300,93.0,Training at home,,,,,,,,,,,,,
6,10,2340,A,67.74170072016963,88.96886368883804,3.387085036008482,1.3975196428154266,A,2755.5453999957535,Correct,sub_006_day_10_data.csv,1,300,93.0,Training at home,,,,,,,,,,,,,
6,10,2341,A,66.3436396267162,81.35558674719381,3.3171819813358097,1.277930568267356,A,1255.283500002406,Correct,sub_006_day_10_data.csv,1,300,93.0,Training at home,,,,,,,,,,,,,
6,10,2342,A,65.27023818727622,81.7851001875936,3.263511909363811,1.284677349612246,A,1093.7451000063447,Correct,sub_006_day_10_data.csv,1,300,93.0,Training at home,,,,,,,,,,,,,
6,10,2343,B,71.08608470218374,60.483796707571734,3.554304235109187,0.9500772569886294,B,737.7988000007463,Correct,sub_006_day_10_data.csv,1,300,93.0,Training at home,,,,,,,,,,,,,
6,10,2344,B,41.00272292719694,20.68788379280794,2.050136146359847,0.3249645187090239,B,735.3476999996928,Correct,sub_006_day_10_data.csv,1,300,93.0,Training at home,,,,,,,,,,,,,
6,10,2345,B,34.19037615721169,14.415603402394922,1.7095188078605843,0.2264397687301395,B,707.9819999999017,Correct,sub_006_day_10_data.csv,1,300,93.0,Training at home,,,,,,,,,,,,,
6,10,2346,A,46.95352328301616,67.01230056995158,2.347676164150808,1.052626755853555,A,1290.3016999989632,Correct,sub_006_day_10_data.csv,1,300,93.0,Training at home,,,,,,,,,,,,,
6,10,2347,A,25.825326983015756,46.719203897454555,1.291266349150788,0.7338635387290343,A,746.5321999989101,Correct,sub_006_day_10_data.csv,1,300,93.0,Training at home,,,,,,,,,,,,,
6,10,2348,A,39.17538191272506,51.38789668989809,1.9587690956362531,0.8071991936220755,A,784.5173999958206,Correct,sub_006_day_10_data.csv,1,300,93.0,Training at home,,,,,,,,,,,,,
6,10,2349,B,67.21908784021335,54.99499190036368,3.360954392010667,0.8638593126920635,B,758.9394000024186,Correct,sub_006_day_10_data.csv,1,300,93.0,Training at home,,,,,,,,,,,,,
6,10,2350,A,54.471742574917755,72.09582621293963,2.723587128745888,1.1324785899252878,A,690.7792000056361,Correct,sub_006_day_10_data.csv,1,300,94.0,Training at home,,,,,,,,,,,,,
6,10,2351,A,58.67827008473266,67.43690246097817,2.9339135042366333,1.0592963867613023,B,1112.0908000011696,Incorrect,sub_006_day_10_data.csv,0,300,94.0,Training at home,,,,,,,,,,,,,
6,10,2352,B,58.393485844186955,49.086999972651256,2.919674292209348,0.7710567925042177,B,1276.099000002432,Correct,sub_006_day_10_data.csv,1,300,94.0,Training at home,,,,,,,,,,,,,
6,10,2353,A,43.93101069185305,66.29787713903063,2.196550534592652,1.0414046188428867,A,727.8124000004027,Correct,sub_006_day_10_data.csv,1,300,94.0,Training at home,,,,,,,,,,,,,
6,10,2354,A,42.1585087075809,58.94114448437456,2.107925435379045,0.9258453325314284,A,699.6164999945904,Correct,sub_006_day_10_data.csv,1,300,94.0,Training at home,,,,,,,,,,,,,
6,10,2355,A,30.621881662057177,40.4834604585392,1.5310940831028583,0.6359127098421982,A,712.4452000061865,Correct,sub_006_day_10_data.csv,1,300,94.0,Training at home,,,,,,,,,,,,,
6,10,2356,B,57.648667488594185,43.150216737142706,2.8824333744297093,0.6778020195110743,B,1489.1281000018353,Correct,sub_006_day_10_data.csv,1,300,94.0,Training at home,,,,,,,,,,,,,
6,10,2357,A,57.12716664131601,81.7726969787534,2.856358332065801,1.28448252046338,A,603.3890000035171,Correct,sub_006_day_10_data.csv,1,300,94.0,Training at home,,,,,,,,,,,,,
6,10,2358,A,40.53030895167112,54.50857527672656,2.026515447583556,0.8562186982350519,B,719.1237000006367,Incorrect,sub_006_day_10_data.csv,0,300,94.0,Training at home,,,,,,,,,,,,,
6,10,2359,B,64.63567271092705,39.37799470526195,3.2317836355463525,0.6185480943957435,B,872.4284999989322,Correct,sub_006_day_10_data.csv,1,300,94.0,Training at home,,,,,,,,,,,,,
6,10,2360,A,29.216464059441996,57.3940419789656,1.4608232029720998,0.9015435032047124,A,568.0925000051502,Correct,sub_006_day_10_data.csv,1,300,94.0,Training at home,,,,,,,,,,,,,
6,10,2361,B,86.45789110361048,63.36451058791691,4.322894555180524,0.995327404806562,B,548.2686000032118,Correct,sub_006_day_10_data.csv,1,300,94.0,Training at home,,,,,,,,,,,,,
6,10,2362,A,49.04095323674159,64.8095396422928,2.4520476618370797,1.018025868113818,A,1278.773199999705,Correct,sub_006_day_10_data.csv,1,300,94.0,Training at home,,,,,,,,,,,,,
6,10,2363,A,42.571195287289434,69.20454152154343,2.128559764364472,1.0870623961956534,A,857.232299997122,Correct,sub_006_day_10_data.csv,1,300,94.0,Training at home,,,,,,,,,,,,,
6,10,2364,A,62.69924062985281,83.95430012851165,3.1349620314926403,1.318751062605024,B,616.7977000004612,Incorrect,sub_006_day_10_data.csv,0,300,94.0,Training at home,,,,,,,,,,,,,
6,10,2365,B,55.9091074801475,25.89672682896449,2.795455374007375,0.4067848337894827,B,806.6174999985378,Correct,sub_006_day_10_data.csv,1,300,94.0,Training at home,,,,,,,,,,,,,
6,10,2366,B,38.8180963135712,18.463334051555528,1.94090481567856,0.2900213730857055,B,1255.99130000046,Correct,sub_006_day_10_data.csv,1,300,94.0,Training at home,,,,,,,,,,,,,
6,10,2367,B,83.24586056972628,55.89687731174627,4.162293028486314,0.8780260956059603,B,581.2003999963054,Correct,sub_006_day_10_data.csv,1,300,94.0,Training at home,,,,,,,,,,,,,
6,10,2368,B,44.33307235293658,35.27519635308445,2.216653617646829,0.5541014885839378,B,786.268600000767,Correct,sub_006_day_10_data.csv,1,300,94.0,Training at home,,,,,,,,,,,,,
6,10,2369,A,57.007893270578066,77.2734522182925,2.850394663528903,1.2138085490325483,A,878.9995999977691,Correct,sub_006_day_10_data.csv,1,300,94.0,Training at home,,,,,,,,,,,,,
6,10,2370,A,33.84650057963176,58.44324536055978,1.692325028981588,0.9180243513834018,A,828.3519999968121,Correct,sub_006_day_10_data.csv,1,300,94.0,Training at home,,,,,,,,,,,,,
6,10,2371,A,51.80737965042539,64.91584710195822,2.5903689825212695,1.019695741785351,A,805.2976000035414,Correct,sub_006_day_10_data.csv,1,300,94.0,Training at home,,,,,,,,,,,,,
6,10,2372,B,70.32803351221824,43.045567753014296,3.516401675610912,0.6761581971123571,B,925.00850000215,Correct,sub_006_day_10_data.csv,1,300,94.0,Training at home,,,,,,,,,,,,,
6,10,2373,B,73.56560520588059,48.40482551084095,3.6782802602940294,0.7603412211157687,B,686.5101000003051,Correct,sub_006_day_10_data.csv,1,300,94.0,Training at home,,,,,,,,,,,,,
6,10,2374,B,64.61124703747099,31.259633621034652,3.23056235187355,0.4910251766887548,B,493.087499999092,Correct,sub_006_day_10_data.csv,1,300,94.0,Training at home,,,,,,,,,,,,,
6,10,2375,A,61.04619906449073,83.9320461218025,3.0523099532245364,1.3184014974850722,A,583.3468999990146,Correct,sub_006_day_10_data.csv,1,300,95.0,Training at home,,,,,,,,,,,,,
6,10,2376,B,59.31329207678371,44.57861496736777,2.965664603839185,0.7002392464434529,B,729.9056999981985,Correct,sub_006_day_10_data.csv,1,300,95.0,Training at home,,,,,,,,,,,,,
6,10,2377,B,42.07303580589578,15.063994271831348,2.103651790294789,0.2366246686905204,B,594.9939999991329,Correct,sub_006_day_10_data.csv,1,300,95.0,Training at home,,,,,,,,,,,,,
6,10,2378,B,85.52055903996613,69.18282541719881,4.276027951998307,1.0867212804262851,B,799.6350999965216,Correct,sub_006_day_10_data.csv,1,300,95.0,Training at home,,,,,,,,,,,,,
6,10,2379,A,53.39156976930167,74.06172789664183,2.6695784884650835,1.163358901361281,A,621.4508999983082,Correct,sub_006_day_10_data.csv,1,300,95.0,Training at home,,,,,,,,,,,,,
6,10,2380,B,78.09328221164614,62.5982660452216,3.9046641105823072,0.983291263675638,B,781.3308999975561,Correct,sub_006_day_10_data.csv,1,300,95.0,Training at home,,,,,,,,,,,,,
6,10,2381,B,40.22664923906977,28.460065225123444,2.0113324619534887,0.4470496591596708,B,687.6875000016298,Correct,sub_006_day_10_data.csv,1,300,95.0,Training at home,,,,,,,,,,,,,
6,10,2382,A,50.79415471368095,73.41724369126197,2.5397077356840474,1.153235367136401,A,797.036099997058,Correct,sub_006_day_10_data.csv,1,300,95.0,Training at home,,,,,,,,,,,,,
6,10,2383,A,65.66650960371743,81.01505635225655,3.2833254801858716,1.2725815293320613,A,689.5279999953345,Correct,sub_006_day_10_data.csv,1,300,95.0,Training at home,,,,,,,,,,,,,
6,10,2384,B,67.35851584765666,50.13613727219994,3.367925792382833,0.7875366026685637,B,717.989699995087,Correct,sub_006_day_10_data.csv,1,300,95.0,Training at home,,,,,,,,,,,,,
6,10,2385,B,55.99281592362299,31.199708910253374,2.7996407961811496,0.4900838815329601,B,2005.789700000605,Correct,sub_006_day_10_data.csv,1,300,95.0,Training at home,,,,,,,,,,,,,
6,10,2386,B,47.236772877912216,21.843582827693982,2.3618386438956107,0.3431181966978178,B,540.1020999997854,Correct,sub_006_day_10_data.csv,1,300,95.0,Training at home,,,,,,,,,,,,,
6,10,2387,B,75.92831384299232,56.752399785960094,3.796415692149616,0.891464611205816,B,677.5496000045678,Correct,sub_006_day_10_data.csv,1,300,95.0,Training at home,,,,,,,,,,,,,
6,10,2388,B,53.112612250216976,33.7366867390851,2.655630612510849,0.5299346360798498,B,599.8162999967462,Correct,sub_006_day_10_data.csv,1,300,95.0,Training at home,,,,,,,,,,,,,
6,10,2389,A,56.18845474452601,82.42516008528999,2.8094227372263005,1.2947313869745485,A,993.9043999984278,Correct,sub_006_day_10_data.csv,1,300,95.0,Training at home,,,,,,,,,,,,,
6,10,2390,A,59.032602427274185,71.86808538701567,2.951630121363709,1.128901245397062,B,599.339799999143,Incorrect,sub_006_day_10_data.csv,0,300,95.0,Training at home,,,,,,,,,,,,,
6,10,2391,A,29.70208852951465,47.930548314316255,1.4851044264757325,0.7528912923339329,A,656.5640999979223,Correct,sub_006_day_10_data.csv,1,300,95.0,Training at home,,,,,,,,,,,,,
6,10,2392,B,85.78199071131147,57.442006249799945,4.2890995355655726,0.9022969242091524,B,536.3808999973116,Correct,sub_006_day_10_data.csv,1,300,95.0,Training at home,,,,,,,,,,,,,
6,10,2393,B,64.5560642211778,55.89161840723823,3.22780321105889,0.8779434889271184,B,408.57859999960056,Correct,sub_006_day_10_data.csv,1,300,95.0,Training at home,,,,,,,,,,,,,
6,10,2394,A,36.36620982312926,68.39295113648242,1.818310491156463,1.0743139642384942,A,567.2166000003926,Correct,sub_006_day_10_data.csv,1,300,95.0,Training at home,,,,,,,,,,,,,
6,10,2395,B,74.83205095456111,62.86253425868298,3.741602547728056,0.9874423790655756,B,486.2215000030119,Correct,sub_006_day_10_data.csv,1,300,95.0,Training at home,,,,,,,,,,,,,
6,10,2396,A,65.52574038520217,77.36748789131319,3.276287019260109,1.2152856579302338,B,636.3730999946711,Incorrect,sub_006_day_10_data.csv,0,300,95.0,Training at home,,,,,,,,,,,,,
6,10,2397,B,88.336456538357,69.1980803686611,4.4168228269178496,1.086960904643509,B,601.0452999980771,Correct,sub_006_day_10_data.csv,1,300,95.0,Training at home,,,,,,,,,,,,,
6,10,2398,B,65.56473440291664,45.60119790366571,3.2782367201458325,0.7163019416452523,B,452.6438999964739,Correct,sub_006_day_10_data.csv,1,300,95.0,Training at home,,,,,,,,,,,,,
6,10,2399,B,44.18112269759688,31.41690046544493,2.209056134879844,0.4934955185040178,B,608.5980999996536,Correct,sub_006_day_10_data.csv,1,300,95.0,Training at home,,,,,,,,,,,,,
