subject,day,trial,cat,x,y,xt,yt,resp,rt,fb,f_name,acc,n_trials,block,session_type,ns_left_digit,ns_right_digit,ns_left_size,ns_right_size,ns_congruent,ns_cue,ns_correct_side,ns_resp,ns_rt,ns_fb,acc_stroop,acc_stroop_mean,resp_key
6,4,600,A,27.060021168145397,47.50418169276195,1.3530010584072698,0.7461939411038785,A,1169.288199977018,Correct,sub_006_day_04_data.csv,1,300,24.0,Training at home,,,,,,,,,,,,,
6,4,601,A,42.16395940328469,62.37695366575096,2.108197970164235,0.9798148969481706,B,539.2480000155047,Incorrect,sub_006_day_04_data.csv,0,300,24.0,Training at home,,,,,,,,,,,,,
6,4,602,B,33.373482800593564,13.202640457438848,1.6686741400296785,0.2073865913453863,B,621.3355999789201,Correct,sub_006_day_04_data.csv,1,300,24.0,Training at home,,,,,,,,,,,,,
6,4,603,B,70.95029778630827,56.205897394681216,3.547514889315414,0.882880171717761,B,703.2528999843635,Correct,sub_006_day_04_data.csv,1,300,24.0,Training at home,,,,,,,,,,,,,
6,4,604,A,34.044372856037185,67.43019120924895,1.702218642801859,1.0591909666656576,A,728.9276999945287,Correct,sub_006_day_04_data.csv,1,300,24.0,Training at home,,,,,,,,,,,,,
6,4,605,B,41.03838357934187,28.16197138935339,2.0519191789670934,0.4423672121369927,A,988.3972000097856,Incorrect,sub_006_day_04_data.csv,0,300,24.0,Training at home,,,,,,,,,,,,,
6,4,606,B,61.39885995975586,29.343256236640137,3.069942997987793,0.4609227911271576,B,630.3069999848958,Correct,sub_006_day_04_data.csv,1,300,24.0,Training at home,,,,,,,,,,,,,
6,4,607,A,18.879626619350617,41.1678183294007,0.9439813309675308,0.6466625781398224,A,1117.4885999935211,Correct,sub_006_day_04_data.csv,1,300,24.0,Training at home,,,,,,,,,,,,,
6,4,608,B,84.2865005476005,59.53063957888196,4.214325027380025,0.9351050998225868,B,528.3055000181776,Correct,sub_006_day_04_data.csv,1,300,24.0,Training at home,,,,,,,,,,,,,
6,4,609,A,17.68620462433562,41.26146408256819,0.884310231216781,0.6481335621907769,A,614.1326999932062,Correct,sub_006_day_04_data.csv,1,300,24.0,Training at home,,,,,,,,,,,,,
6,4,610,B,47.40284636593984,35.11437185326278,2.3701423182969923,0.5515752632481528,B,617.0435000094585,Correct,sub_006_day_04_data.csv,1,300,24.0,Training at home,,,,,,,,,,,,,
6,4,611,B,58.473683855241184,49.66901396154759,2.9236841927620594,0.780199046863234,B,812.707600009162,Correct,sub_006_day_04_data.csv,1,300,24.0,Training at home,,,,,,,,,,,,,
6,4,612,B,53.126127731611895,34.61418867300094,2.6563063865805945,0.5437184042253539,B,586.6803000099026,Correct,sub_006_day_04_data.csv,1,300,24.0,Training at home,,,,,,,,,,,,,
6,4,613,A,29.31081677424571,60.1183359230183,1.4655408387122857,0.944336612408988,A,584.5057000115048,Correct,sub_006_day_04_data.csv,1,300,24.0,Training at home,,,,,,,,,,,,,
6,4,614,A,22.513934559321363,35.436754537077434,1.1256967279660683,0.5566392386037361,A,606.1340000014752,Correct,sub_006_day_04_data.csv,1,300,24.0,Training at home,,,,,,,,,,,,,
6,4,615,B,71.21923358246234,59.86316307453326,3.5609616791231167,0.9403283666780072,B,680.5271999910474,Correct,sub_006_day_04_data.csv,1,300,24.0,Training at home,,,,,,,,,,,,,
6,4,616,A,37.89117642325487,61.76655506549058,1.8945588211627435,0.9702267781564732,A,777.4998999957461,Correct,sub_006_day_04_data.csv,1,300,24.0,Training at home,,,,,,,,,,,,,
6,4,617,B,87.79739774645653,69.92904732938156,4.389869887322826,1.0984429068125905,A,1138.5425000044052,Incorrect,sub_006_day_04_data.csv,0,300,24.0,Training at home,,,,,,,,,,,,,
6,4,618,A,31.556912870169555,61.40037609012079,1.5778456435084778,0.9644748522618694,A,583.3067999919876,Correct,sub_006_day_04_data.csv,1,300,24.0,Training at home,,,,,,,,,,,,,
6,4,619,A,61.281577869670656,73.11295012070397,3.0640788934835324,1.148455534907403,A,775.547600002028,Correct,sub_006_day_04_data.csv,1,300,24.0,Training at home,,,,,,,,,,,,,
6,4,620,B,58.528463145577426,37.38257983655224,2.9264231572788715,0.5872041909337322,B,546.7481999949086,Correct,sub_006_day_04_data.csv,1,300,24.0,Training at home,,,,,,,,,,,,,
6,4,621,A,57.85146886695195,73.55013997468762,2.892573443347598,1.155322897074898,A,844.0082999877632,Correct,sub_006_day_04_data.csv,1,300,24.0,Training at home,,,,,,,,,,,,,
6,4,622,B,52.50645558332327,22.21847962689616,2.6253227791661633,0.3490070618489573,B,856.0141999914777,Correct,sub_006_day_04_data.csv,1,300,24.0,Training at home,,,,,,,,,,,,,
6,4,623,B,78.70152964965695,46.73441421408209,3.935076482482847,0.7341024618239135,B,598.0281000083778,Correct,sub_006_day_04_data.csv,1,300,24.0,Training at home,,,,,,,,,,,,,
6,4,624,A,29.3949263596741,38.732490430307976,1.469746317983705,0.6084085369554626,A,753.4731999912765,Correct,sub_006_day_04_data.csv,1,300,24.0,Training at home,,,,,,,,,,,,,
6,4,625,A,53.94692141498759,76.90162590986307,2.6973460707493797,1.2079679150376816,A,826.541599992197,Correct,sub_006_day_04_data.csv,1,300,25.0,Training at home,,,,,,,,,,,,,
6,4,626,B,49.478936992888215,39.91072160902109,2.4739468496444106,0.6269161490318403,B,1126.4857999922242,Correct,sub_006_day_04_data.csv,1,300,25.0,Training at home,,,,,,,,,,,,,
6,4,627,B,86.37431166223868,61.585164143501856,4.318715583111935,0.967377496216735,B,775.0159999995958,Correct,sub_006_day_04_data.csv,1,300,25.0,Training at home,,,,,,,,,,,,,
6,4,628,B,88.89787386995097,65.51584987159406,4.444893693497549,1.0291205632514584,B,702.7422999963164,Correct,sub_006_day_04_data.csv,1,300,25.0,Training at home,,,,,,,,,,,,,
6,4,629,B,45.26310646134087,15.540442142667535,2.2631553230670436,0.2441086943447078,A,1201.8571000080556,Incorrect,sub_006_day_04_data.csv,0,300,25.0,Training at home,,,,,,,,,,,,,
6,4,630,B,88.11784932284901,61.290978384147394,4.405892466142451,0.9627564371148414,B,776.1860000027809,Correct,sub_006_day_04_data.csv,1,300,25.0,Training at home,,,,,,,,,,,,,
6,4,631,B,71.8458674922037,57.20739746151831,3.592293374610185,0.8986116979804866,B,865.1232999982312,Correct,sub_006_day_04_data.csv,1,300,25.0,Training at home,,,,,,,,,,,,,
6,4,632,B,51.47125152908437,34.873574504036526,2.5735625764542185,0.5477928273314874,B,1043.451500008814,Correct,sub_006_day_04_data.csv,1,300,25.0,Training at home,,,,,,,,,,,,,
6,4,633,B,52.14866965484251,45.10818639579379,2.6074334827421253,0.708557734988924,B,1098.4935000014957,Correct,sub_006_day_04_data.csv,1,300,25.0,Training at home,,,,,,,,,,,,,
6,4,634,B,84.52517451760866,66.07042265228934,4.226258725880433,1.0378317721200243,B,1373.4912000072654,Correct,sub_006_day_04_data.csv,1,300,25.0,Training at home,,,,,,,,,,,,,
6,4,635,A,26.157515246901877,42.35510537939756,1.3078757623450938,0.6653124395096846,A,783.1066999933682,Correct,sub_006_day_04_data.csv,1,300,25.0,Training at home,,,,,,,,,,,,,
6,4,636,A,37.060065231999,47.56986617153335,1.85300326159995,0.747225710483694,A,661.8608999997377,Correct,sub_006_day_04_data.csv,1,300,25.0,Training at home,,,,,,,,,,,,,
6,4,637,B,86.28489953072653,67.44140145919314,4.314244976536327,1.0593670568600055,A,1161.4210000261664,Incorrect,sub_006_day_04_data.csv,0,300,25.0,Training at home,,,,,,,,,,,,,
6,4,638,B,74.16848661206426,63.0837003072168,3.708424330603213,0.9909164472320624,B,1494.3753999832552,Correct,sub_006_day_04_data.csv,1,300,25.0,Training at home,,,,,,,,,,,,,
6,4,639,A,61.41276944550651,75.07659486386713,3.0706384722753257,1.1793003944043108,B,835.9806999797001,Incorrect,sub_006_day_04_data.csv,0,300,25.0,Training at home,,,,,,,,,,,,,
6,4,640,A,36.07332286103761,60.26166259741606,1.8036661430518808,0.9465879825457456,A,559.1062000021338,Correct,sub_006_day_04_data.csv,1,300,25.0,Training at home,,,,,,,,,,,,,
6,4,641,B,41.58499686876874,24.62730861337327,2.079249843438437,0.3868448590873105,B,873.2218999939505,Correct,sub_006_day_04_data.csv,1,300,25.0,Training at home,,,,,,,,,,,,,
6,4,642,A,34.27090827146681,54.66704929365487,1.7135454135733403,0.8587080022718863,A,1089.074999996228,Correct,sub_006_day_04_data.csv,1,300,25.0,Training at home,,,,,,,,,,,,,
6,4,643,A,62.67857979713053,85.64061067308967,3.133928989856526,1.3452395666976105,A,1596.854000003077,Correct,sub_006_day_04_data.csv,1,300,25.0,Training at home,,,,,,,,,,,,,
6,4,644,B,54.73437397975321,40.81374709962276,2.7367186989876604,0.641100840268233,B,1137.150499998825,Correct,sub_006_day_04_data.csv,1,300,25.0,Training at home,,,,,,,,,,,,,
6,4,645,B,65.39069454636326,33.80238874020222,3.269534727318163,0.5309666807000282,B,851.8848000094295,Correct,sub_006_day_04_data.csv,1,300,25.0,Training at home,,,,,,,,,,,,,
6,4,646,A,65.70761551962691,83.5064188795806,3.285380775981346,1.311715760398412,A,1031.2272000010123,Correct,sub_006_day_04_data.csv,1,300,25.0,Training at home,,,,,,,,,,,,,
6,4,647,A,38.94695788658446,61.448072405614205,1.947347894329223,0.9652240642336564,A,1424.264300003415,Correct,sub_006_day_04_data.csv,1,300,25.0,Training at home,,,,,,,,,,,,,
6,4,648,A,12.92345919613144,34.478275252587906,0.6461729598065719,0.5415834812098846,A,544.4851000211202,Correct,sub_006_day_04_data.csv,1,300,25.0,Training at home,,,,,,,,,,,,,
6,4,649,B,53.526023386872936,44.98054036894617,2.6763011693436467,0.7065526758879019,B,666.1500999762211,Correct,sub_006_day_04_data.csv,1,300,25.0,Training at home,,,,,,,,,,,,,
6,4,650,B,60.349645361761496,47.67857313670589,3.017482268088075,0.7489332754995944,B,579.924799996661,Correct,sub_006_day_04_data.csv,1,300,26.0,Training at home,,,,,,,,,,,,,
6,4,651,A,61.15413478697607,81.58051838690524,3.057706739348804,1.2814637862017426,A,742.4489000113681,Correct,sub_006_day_04_data.csv,1,300,26.0,Training at home,,,,,,,,,,,,,
6,4,652,A,15.806439007433962,36.069131972210926,0.7903219503716982,0.566572600126293,A,614.5758999919053,Correct,sub_006_day_04_data.csv,1,300,26.0,Training at home,,,,,,,,,,,,,
6,4,653,B,59.683138927530095,30.516768657078813,2.9841569463765047,0.4793562811218903,B,591.1753000109456,Correct,sub_006_day_04_data.csv,1,300,26.0,Training at home,,,,,,,,,,,,,
6,4,654,B,53.0580040676391,25.11648987378787,2.652900203381954,0.394528900357272,B,614.7611000051256,Correct,sub_006_day_04_data.csv,1,300,26.0,Training at home,,,,,,,,,,,,,
6,4,655,B,60.970402540551355,45.77768046648994,3.048520127027568,0.7190741232595289,B,638.9346999931149,Correct,sub_006_day_04_data.csv,1,300,26.0,Training at home,,,,,,,,,,,,,
6,4,656,B,61.93698265174065,49.91329746189184,3.0968491325870326,0.7840362431136073,B,885.0415000051726,Correct,sub_006_day_04_data.csv,1,300,26.0,Training at home,,,,,,,,,,,,,
6,4,657,A,37.42602330507527,64.67720142770946,1.8713011652537632,1.0159471043001966,A,624.2073999892455,Correct,sub_006_day_04_data.csv,1,300,26.0,Training at home,,,,,,,,,,,,,
6,4,658,B,43.54916716455078,34.62910252197205,2.1774583582275393,0.5439526704171759,B,841.2469000031706,Correct,sub_006_day_04_data.csv,1,300,26.0,Training at home,,,,,,,,,,,,,
6,4,659,B,77.17922401546434,57.390890884182085,3.858961200773217,0.9014940059235992,B,950.8644999878017,Correct,sub_006_day_04_data.csv,1,300,26.0,Training at home,,,,,,,,,,,,,
6,4,660,A,40.67026586851818,64.26901120367792,2.033513293425909,1.0095352672547733,A,1500.0018999853637,Correct,sub_006_day_04_data.csv,1,300,26.0,Training at home,,,,,,,,,,,,,
6,4,661,A,25.287642111021594,53.847554511496696,1.2643821055510798,0.8458354083354697,A,638.5175999894273,Correct,sub_006_day_04_data.csv,1,300,26.0,Training at home,,,,,,,,,,,,,
6,4,662,B,51.051951015154536,30.383451618450223,2.552597550757727,0.4772621419761205,B,570.0209999922663,Correct,sub_006_day_04_data.csv,1,300,26.0,Training at home,,,,,,,,,,,,,
6,4,663,A,38.17435367073803,62.41699352691124,1.908717683536902,0.98044384161653,B,1145.9930000128224,Incorrect,sub_006_day_04_data.csv,0,300,26.0,Training at home,,,,,,,,,,,,,
6,4,664,A,50.70425102083272,58.560522141608466,2.535212551041636,0.919866530752298,A,1041.7643999971915,Correct,sub_006_day_04_data.csv,1,300,26.0,Training at home,,,,,,,,,,,,,
6,4,665,B,61.7256053973197,51.57184044183433,3.0862802698659846,0.8100885753208585,B,601.8017000169493,Correct,sub_006_day_04_data.csv,1,300,26.0,Training at home,,,,,,,,,,,,,
6,4,666,A,38.308512932744094,55.14399357911366,1.9154256466372048,0.866199825588731,B,981.3496999850032,Incorrect,sub_006_day_04_data.csv,0,300,26.0,Training at home,,,,,,,,,,,,,
6,4,667,A,27.83659516830467,60.24807527132965,1.3918297584152333,0.9463745533266704,A,661.7665000085253,Correct,sub_006_day_04_data.csv,1,300,26.0,Training at home,,,,,,,,,,,,,
6,4,668,B,80.78271657027456,54.44088312826119,4.039135828513728,0.8551553924534292,A,685.0827000162099,Incorrect,sub_006_day_04_data.csv,0,300,26.0,Training at home,,,,,,,,,,,,,
6,4,669,A,40.40712342226743,51.212849080738174,2.0203561711133715,0.8044495522072492,A,631.8474000145216,Correct,sub_006_day_04_data.csv,1,300,26.0,Training at home,,,,,,,,,,,,,
6,4,670,B,58.64558859333771,35.782953651613305,2.9322794296668855,0.5620773215782621,B,655.2213000250049,Correct,sub_006_day_04_data.csv,1,300,26.0,Training at home,,,,,,,,,,,,,
6,4,671,A,51.20675693301044,80.52083849336876,2.5603378466505218,1.2648183733582874,A,881.206000020029,Correct,sub_006_day_04_data.csv,1,300,26.0,Training at home,,,,,,,,,,,,,
6,4,672,A,46.0850680807759,53.94874777176556,2.304253404038795,0.8474249483507369,B,977.403900003992,Incorrect,sub_006_day_04_data.csv,0,300,26.0,Training at home,,,,,,,,,,,,,
6,4,673,B,47.98546808340803,31.68937859996054,2.3992734041704016,0.4977755950323082,B,592.1699000173248,Correct,sub_006_day_04_data.csv,1,300,26.0,Training at home,,,,,,,,,,,,,
6,4,674,B,41.9468789323536,18.227934871307212,2.09734394661768,0.2863237314090597,B,721.5823000005912,Correct,sub_006_day_04_data.csv,1,300,26.0,Training at home,,,,,,,,,,,,,
6,4,675,A,28.20841510214848,41.194134020583505,1.4104207551074242,0.6470759440502926,A,1208.1412999832537,Correct,sub_006_day_04_data.csv,1,300,27.0,Training at home,,,,,,,,,,,,,
6,4,676,A,46.82613834048511,76.6551841457629,2.3413069170242555,1.2040968168595076,A,2507.4281000124756,Correct,sub_006_day_04_data.csv,1,300,27.0,Training at home,,,,,,,,,,,,,
6,4,677,A,21.95591147293584,51.11191650833091,1.097795573646792,0.8028641070673362,A,648.5873000056017,Correct,sub_006_day_04_data.csv,1,300,27.0,Training at home,,,,,,,,,,,,,
6,4,678,A,11.839070375582748,33.246706630604834,0.5919535187791374,0.5222380465338161,A,540.1047000195831,Correct,sub_006_day_04_data.csv,1,300,27.0,Training at home,,,,,,,,,,,,,
6,4,679,A,32.928526096821734,42.15066468280587,1.6464263048410868,0.6621010925571482,A,746.5123000147287,Correct,sub_006_day_04_data.csv,1,300,27.0,Training at home,,,,,,,,,,,,,
6,4,680,A,46.47242511577035,60.75898699926165,2.323621255788518,0.9543999359821908,B,565.2101000014227,Incorrect,sub_006_day_04_data.csv,0,300,27.0,Training at home,,,,,,,,,,,,,
6,4,681,B,60.64680928757756,35.36388235853648,3.032340464378878,0.5554945650999594,B,666.1433999834117,Correct,sub_006_day_04_data.csv,1,300,27.0,Training at home,,,,,,,,,,,,,
6,4,682,B,38.33117918496637,16.666534833728146,1.9165589592483188,0.2617973169721936,A,1500.9219000057783,Incorrect,sub_006_day_04_data.csv,0,300,27.0,Training at home,,,,,,,,,,,,,
6,4,683,A,42.84505939299294,58.417678769546754,2.142252969649647,0.9176227523108824,A,1030.8249999943655,Correct,sub_006_day_04_data.csv,1,300,27.0,Training at home,,,,,,,,,,,,,
6,4,684,A,24.906225221382492,50.194229519358075,1.2453112610691246,0.7884491135530762,A,638.0697000131477,Correct,sub_006_day_04_data.csv,1,300,27.0,Training at home,,,,,,,,,,,,,
6,4,685,B,64.23560823038815,52.33454309513736,3.2117804115194075,0.8220690805833097,B,651.5963999845553,Correct,sub_006_day_04_data.csv,1,300,27.0,Training at home,,,,,,,,,,,,,
6,4,686,B,86.82017419680041,61.31773494700596,4.34100870984002,0.9631767282214004,B,593.0232999962755,Correct,sub_006_day_04_data.csv,1,300,27.0,Training at home,,,,,,,,,,,,,
6,4,687,A,47.56379765418909,75.41414592885708,2.3781898827094547,1.1846026341342302,A,854.0237999986857,Correct,sub_006_day_04_data.csv,1,300,27.0,Training at home,,,,,,,,,,,,,
6,4,688,A,64.19769718244989,77.28331555484483,3.209884859122494,1.2139634819608114,A,1128.9648000092711,Correct,sub_006_day_04_data.csv,1,300,27.0,Training at home,,,,,,,,,,,,,
6,4,689,B,54.23748097439879,30.469742025667102,2.71187404871994,0.4786175885230597,B,986.839700024575,Correct,sub_006_day_04_data.csv,1,300,27.0,Training at home,,,,,,,,,,,,,
6,4,690,A,22.377843702352315,38.46546839243237,1.118892185117616,0.6042141645927797,A,605.7737999944948,Correct,sub_006_day_04_data.csv,1,300,27.0,Training at home,,,,,,,,,,,,,
6,4,691,B,51.30797234547797,21.09783561900924,2.5653986172738983,0.3314040269366225,B,860.9050999803003,Correct,sub_006_day_04_data.csv,1,300,27.0,Training at home,,,,,,,,,,,,,
6,4,692,A,50.04035653223292,74.46373675087636,2.502017826611646,1.1696736416769873,A,921.5562000172212,Correct,sub_006_day_04_data.csv,1,300,27.0,Training at home,,,,,,,,,,,,,
6,4,693,A,50.77976423118064,62.285538316738126,2.5389882115590323,0.9783789480037502,B,1037.3193999985233,Incorrect,sub_006_day_04_data.csv,0,300,27.0,Training at home,,,,,,,,,,,,,
6,4,694,B,58.043453975288074,29.411344350757116,2.902172698764403,0.461992316722691,B,825.4935000149999,Correct,sub_006_day_04_data.csv,1,300,27.0,Training at home,,,,,,,,,,,,,
6,4,695,A,53.557537162787376,68.2296440487442,2.677876858139369,1.0717487425029069,B,988.3728999993764,Incorrect,sub_006_day_04_data.csv,0,300,27.0,Training at home,,,,,,,,,,,,,
6,4,696,A,26.942630777991923,56.3979070139695,1.347131538899596,0.8858962517646343,A,565.4104000132065,Correct,sub_006_day_04_data.csv,1,300,27.0,Training at home,,,,,,,,,,,,,
6,4,697,A,32.99813673502404,60.81977190741483,1.6499068367512022,0.9553547430867064,A,603.5046000033617,Correct,sub_006_day_04_data.csv,1,300,27.0,Training at home,,,,,,,,,,,,,
6,4,698,A,12.380686171358937,38.96376364968483,0.6190343085679467,0.6120413681902945,A,485.6482000031974,Correct,sub_006_day_04_data.csv,1,300,27.0,Training at home,,,,,,,,,,,,,
6,4,699,A,32.72336218837082,60.920681814442105,1.6361681094185412,0.9569398321996632,A,736.7457999789622,Correct,sub_006_day_04_data.csv,1,300,27.0,Training at home,,,,,,,,,,,,,
6,4,700,B,62.4341701736132,50.560793635779035,3.12170850868066,0.794207089229165,B,849.7701000014786,Correct,sub_006_day_04_data.csv,1,300,28.0,Training at home,,,,,,,,,,,,,
6,4,701,A,39.57114163830276,49.99427331873749,1.9785570819151383,0.7853082088985294,B,923.166399996262,Incorrect,sub_006_day_04_data.csv,0,300,28.0,Training at home,,,,,,,,,,,,,
6,4,702,A,44.18208116648507,70.06151440294829,2.2091040583242534,1.1005236947383892,A,812.9479000053834,Correct,sub_006_day_04_data.csv,1,300,28.0,Training at home,,,,,,,,,,,,,
6,4,703,A,40.99837495126636,66.28576524004305,2.049918747563318,1.0412143655784845,A,1289.0352999966126,Correct,sub_006_day_04_data.csv,1,300,28.0,Training at home,,,,,,,,,,,,,
6,4,704,A,53.89648844591946,72.22881040786905,2.6948244222959725,1.134567500774457,A,1670.9836999943946,Correct,sub_006_day_04_data.csv,1,300,28.0,Training at home,,,,,,,,,,,,,
6,4,705,B,32.04017750401705,17.469772202716147,1.6020088752008526,0.2744145400597011,B,747.060199995758,Correct,sub_006_day_04_data.csv,1,300,28.0,Training at home,,,,,,,,,,,,,
6,4,706,A,42.06964535284534,73.83480377239457,2.103482267642267,1.1597943855529933,A,1169.0595999825746,Correct,sub_006_day_04_data.csv,1,300,28.0,Training at home,,,,,,,,,,,,,
6,4,707,B,48.80936314363208,41.29365567319042,2.4404681571816043,0.6486392265138076,B,702.5927999929991,Correct,sub_006_day_04_data.csv,1,300,28.0,Training at home,,,,,,,,,,,,,
6,4,708,A,15.965439395335494,35.76917178728195,0.7982719697667747,0.5618608365595813,A,549.0073999972083,Correct,sub_006_day_04_data.csv,1,300,28.0,Training at home,,,,,,,,,,,,,
6,4,709,A,62.69809371761632,87.61964988034106,3.134904685880816,1.3763262418709463,B,593.3532000053674,Incorrect,sub_006_day_04_data.csv,0,300,28.0,Training at home,,,,,,,,,,,,,
6,4,710,A,68.53364346150123,85.77239932176035,3.4266821730750614,1.3473096979500625,A,1091.9629999843892,Correct,sub_006_day_04_data.csv,1,300,28.0,Training at home,,,,,,,,,,,,,
6,4,711,B,37.53673251967261,21.25172943476386,1.8768366259836309,0.3338213853416605,B,836.8201000266708,Correct,sub_006_day_04_data.csv,1,300,28.0,Training at home,,,,,,,,,,,,,
6,4,712,A,39.4188908135559,64.16217093009222,1.9709445406777948,1.0078570241617515,A,1444.7583000001032,Correct,sub_006_day_04_data.csv,1,300,28.0,Training at home,,,,,,,,,,,,,
6,4,713,A,57.78821130500067,83.89100374428337,2.8894105652500337,1.3177568053265722,A,962.9867000039668,Correct,sub_006_day_04_data.csv,1,300,28.0,Training at home,,,,,,,,,,,,,
6,4,714,B,48.41119245113741,32.018525828009636,2.420559622556871,0.5029458276002506,B,953.3573999942746,Correct,sub_006_day_04_data.csv,1,300,28.0,Training at home,,,,,,,,,,,,,
6,4,715,B,48.726663708866326,38.55764103854092,2.436333185443317,0.6056620091321624,B,2107.0288000046276,Correct,sub_006_day_04_data.csv,1,300,28.0,Training at home,,,,,,,,,,,,,
6,4,716,B,62.04823047027232,50.73093152986995,3.102411523513616,0.7968796090200314,B,965.44110000832,Correct,sub_006_day_04_data.csv,1,300,28.0,Training at home,,,,,,,,,,,,,
6,4,717,B,55.00827666098863,39.07549862741432,2.750413833049431,0.6137964971162143,A,1931.5743999904953,Incorrect,sub_006_day_04_data.csv,0,300,28.0,Training at home,,,,,,,,,,,,,
6,4,718,B,62.20314708327722,49.12162271883583,3.1101573541638614,0.7716006453295204,B,1257.4424000049476,Correct,sub_006_day_04_data.csv,1,300,28.0,Training at home,,,,,,,,,,,,,
6,4,719,A,47.0570406303871,55.16118002291196,2.352852031519355,0.8664697896166214,B,1216.805599979125,Incorrect,sub_006_day_04_data.csv,0,300,28.0,Training at home,,,,,,,,,,,,,
6,4,720,B,33.3102731163013,11.630367768008863,1.665513655815065,0.1826893896926208,B,1313.8096000184305,Correct,sub_006_day_04_data.csv,1,300,28.0,Training at home,,,,,,,,,,,,,
6,4,721,A,33.320935979528926,41.69478442422964,1.6660467989764465,0.6549401422008498,A,798.2920000213198,Correct,sub_006_day_04_data.csv,1,300,28.0,Training at home,,,,,,,,,,,,,
6,4,722,A,32.12849029217048,56.12417525580659,1.606424514608524,0.8815964833621402,A,870.0327999831643,Correct,sub_006_day_04_data.csv,1,300,28.0,Training at home,,,,,,,,,,,,,
6,4,723,A,36.02582956073041,53.61863946126092,1.8012914780365206,0.8422396191348852,A,745.1628999842796,Correct,sub_006_day_04_data.csv,1,300,28.0,Training at home,,,,,,,,,,,,,
6,4,724,A,57.94656359075748,83.72918304161044,2.897328179537874,1.3152149316729924,A,875.1258999982383,Correct,sub_006_day_04_data.csv,1,300,28.0,Training at home,,,,,,,,,,,,,
6,4,725,B,85.69370604770803,67.60453279462747,4.284685302385402,1.0619295178848596,B,652.9271999897901,Correct,sub_006_day_04_data.csv,1,300,29.0,Training at home,,,,,,,,,,,,,
6,4,726,B,72.8948869692292,57.03943528421945,3.64474434846146,0.8959733542690713,B,1125.3488000074867,Correct,sub_006_day_04_data.csv,1,300,29.0,Training at home,,,,,,,,,,,,,
6,4,727,B,76.65145187312528,60.07246121430556,3.832572593656264,0.9436160141696008,B,1159.447200014256,Correct,sub_006_day_04_data.csv,1,300,29.0,Training at home,,,,,,,,,,,,,
6,4,728,B,48.40942574308188,25.331714451195896,2.4204712871540943,0.3979096401135571,B,983.0049000156578,Correct,sub_006_day_04_data.csv,1,300,29.0,Training at home,,,,,,,,,,,,,
6,4,729,A,65.57796164212104,84.1536507034229,3.278898082106052,1.3218824541131744,A,1518.5208000184502,Correct,sub_006_day_04_data.csv,1,300,29.0,Training at home,,,,,,,,,,,,,
6,4,730,A,21.06025903294464,42.21703304959499,1.053012951647232,0.6631436044248257,A,621.2495999934617,Correct,sub_006_day_04_data.csv,1,300,29.0,Training at home,,,,,,,,,,,,,
6,4,731,B,69.8302687589724,42.806124313321334,3.49151343794862,0.6723970283569087,B,842.5015999819152,Correct,sub_006_day_04_data.csv,1,300,29.0,Training at home,,,,,,,,,,,,,
6,4,732,B,56.04158627258592,36.73607493978564,2.8020793136292963,0.5770489157627733,B,524.9356999993324,Correct,sub_006_day_04_data.csv,1,300,29.0,Training at home,,,,,,,,,,,,,
6,4,733,B,54.86290786613608,41.999721472542504,2.743145393306804,0.6597300821547851,B,750.415399990743,Correct,sub_006_day_04_data.csv,1,300,29.0,Training at home,,,,,,,,,,,,,
6,4,734,A,34.23574380748948,47.29596457728783,1.711787190374474,0.7429232743022526,A,816.3517999928445,Correct,sub_006_day_04_data.csv,1,300,29.0,Training at home,,,,,,,,,,,,,
6,4,735,A,44.94126315082337,69.98004357848623,2.2470631575411684,1.0992439540203296,B,1395.4957999812905,Incorrect,sub_006_day_04_data.csv,0,300,29.0,Training at home,,,,,,,,,,,,,
6,4,736,A,48.367250248795656,71.71351827817539,2.4183625124397827,1.1264733109289655,A,895.9704999870155,Correct,sub_006_day_04_data.csv,1,300,29.0,Training at home,,,,,,,,,,,,,
6,4,737,A,38.6112190068741,48.90390063664731,1.9305609503437051,0.768180674859882,A,557.5285999802873,Correct,sub_006_day_04_data.csv,1,300,29.0,Training at home,,,,,,,,,,,,,
6,4,738,A,40.58037443811954,49.46955957717897,2.029018721905977,0.7770660247199401,B,990.7166000048164,Incorrect,sub_006_day_04_data.csv,0,300,29.0,Training at home,,,,,,,,,,,,,
6,4,739,B,80.26348697018521,64.02191153553086,4.013174348509261,1.005653834743997,B,839.5834999973886,Correct,sub_006_day_04_data.csv,1,300,29.0,Training at home,,,,,,,,,,,,,
6,4,740,A,55.53856322807952,84.1510648602231,2.776928161403976,1.3218418357831754,A,806.2638000119478,Correct,sub_006_day_04_data.csv,1,300,29.0,Training at home,,,,,,,,,,,,,
6,4,741,A,39.684012645226,58.330496773463466,1.9842006322613,0.9162533007187798,B,1037.574299989501,Incorrect,sub_006_day_04_data.csv,0,300,29.0,Training at home,,,,,,,,,,,,,
6,4,742,A,45.149839824589314,72.05087847673154,2.257491991229466,1.131772552535954,B,920.5696000135504,Incorrect,sub_006_day_04_data.csv,0,300,29.0,Training at home,,,,,,,,,,,,,
6,4,743,A,54.2698951072938,79.72934740108803,2.71349475536469,1.2523856603538333,A,887.9553000151645,Correct,sub_006_day_04_data.csv,1,300,29.0,Training at home,,,,,,,,,,,,,
6,4,744,B,51.53573164129618,39.44134270857452,2.576786582064809,0.6195431625048753,B,833.7986999831628,Correct,sub_006_day_04_data.csv,1,300,29.0,Training at home,,,,,,,,,,,,,
6,4,745,A,41.71347861920118,56.12029858240019,2.085673930960059,0.8815355887186708,A,895.8247999835294,Correct,sub_006_day_04_data.csv,1,300,29.0,Training at home,,,,,,,,,,,,,
6,4,746,B,41.307573415692666,17.48120944037288,2.0653786707846336,0.2745941957686998,B,589.3696999992244,Correct,sub_006_day_04_data.csv,1,300,29.0,Training at home,,,,,,,,,,,,,
6,4,747,B,85.85897962692881,63.83482354028958,4.2929489813464405,1.0027150633868729,B,720.2464999863878,Correct,sub_006_day_04_data.csv,1,300,29.0,Training at home,,,,,,,,,,,,,
6,4,748,A,20.084443927899827,43.52365399715787,1.004222196394991,0.683667958274276,A,635.1761000114493,Correct,sub_006_day_04_data.csv,1,300,29.0,Training at home,,,,,,,,,,,,,
6,4,749,B,51.261666966392816,22.47586463571416,2.563083348319641,0.3530500561131912,B,1170.4279000114184,Correct,sub_006_day_04_data.csv,1,300,29.0,Training at home,,,,,,,,,,,,,
6,4,750,B,50.516877959406536,22.051319964081426,2.525843897970327,0.3463813240055807,B,755.3959999931976,Correct,sub_006_day_04_data.csv,1,300,30.0,Training at home,,,,,,,,,,,,,
6,4,751,B,55.45646077697202,37.108918336736174,2.772823038848601,0.5829055261467696,B,671.8426999868825,Correct,sub_006_day_04_data.csv,1,300,30.0,Training at home,,,,,,,,,,,,,
6,4,752,B,75.58466771863417,50.38810204192925,3.779233385931708,0.7914944560162888,B,1125.5983000155538,Correct,sub_006_day_04_data.csv,1,300,30.0,Training at home,,,,,,,,,,,,,
6,4,753,B,40.16644566884486,22.46872047846956,2.0083222834422427,0.3529378359536125,B,1027.1109000022989,Correct,sub_006_day_04_data.csv,1,300,30.0,Training at home,,,,,,,,,,,,,
6,4,754,B,71.13054787082463,44.22799610735677,3.556527393541231,0.6947317382693501,B,676.8516000011005,Correct,sub_006_day_04_data.csv,1,300,30.0,Training at home,,,,,,,,,,,,,
6,4,755,B,35.09814276306158,24.83130922736577,1.7549071381530792,0.3900492932385438,A,841.0980000044219,Incorrect,sub_006_day_04_data.csv,0,300,30.0,Training at home,,,,,,,,,,,,,
6,4,756,A,55.0662166264751,72.44049588991653,2.753310831323755,1.137892648550817,A,906.497699994361,Correct,sub_006_day_04_data.csv,1,300,30.0,Training at home,,,,,,,,,,,,,
6,4,757,B,69.74422150204335,48.95424431452142,3.487211075102167,0.768971471502702,B,684.8148000135552,Correct,sub_006_day_04_data.csv,1,300,30.0,Training at home,,,,,,,,,,,,,
6,4,758,A,51.49373164826744,62.58153088092482,2.574686582413372,0.983028388329581,B,839.9567999877036,Incorrect,sub_006_day_04_data.csv,0,300,30.0,Training at home,,,,,,,,,,,,,
6,4,759,B,65.06986474503108,52.357848274606056,3.2534932372515537,0.8224351574863571,B,689.974600012647,Correct,sub_006_day_04_data.csv,1,300,30.0,Training at home,,,,,,,,,,,,,
6,4,760,B,40.869378377657995,22.922796754766303,2.0434689188829,0.3600704494225288,A,758.0632999888621,Incorrect,sub_006_day_04_data.csv,0,300,30.0,Training at home,,,,,,,,,,,,,
6,4,761,B,65.3629722859988,44.8944056355068,3.26814861429994,0.7051996746589418,B,1018.052599974908,Correct,sub_006_day_04_data.csv,1,300,30.0,Training at home,,,,,,,,,,,,,
6,4,762,A,24.447305057678054,53.35345362104184,1.2223652528839029,0.8380740896975439,A,591.0918000154197,Correct,sub_006_day_04_data.csv,1,300,30.0,Training at home,,,,,,,,,,,,,
6,4,763,B,73.6009779645048,50.070889228487765,3.68004889822524,0.7865116887946273,B,659.1465000237804,Correct,sub_006_day_04_data.csv,1,300,30.0,Training at home,,,,,,,,,,,,,
6,4,764,B,77.34076008684681,53.47430417744053,3.86703800434234,0.8399724057983656,B,604.3205999885686,Correct,sub_006_day_04_data.csv,1,300,30.0,Training at home,,,,,,,,,,,,,
6,4,765,A,19.596294798859223,44.676476472117926,0.9798147399429612,0.7017764513654146,A,1225.1095999963582,Correct,sub_006_day_04_data.csv,1,300,30.0,Training at home,,,,,,,,,,,,,
6,4,766,B,71.69734842746205,51.46400272463575,3.584867421373102,0.8083946644202039,B,865.2213999885134,Correct,sub_006_day_04_data.csv,1,300,30.0,Training at home,,,,,,,,,,,,,
6,4,767,A,42.172422318477,74.12621583256792,2.10862111592385,1.1643718754900338,A,858.6573000065982,Correct,sub_006_day_04_data.csv,1,300,30.0,Training at home,,,,,,,,,,,,,
6,4,768,A,45.57434760152275,75.50353672326233,2.2787173800761376,1.1860067814492403,A,709.9665999994613,Correct,sub_006_day_04_data.csv,1,300,30.0,Training at home,,,,,,,,,,,,,
6,4,769,B,43.96190251445621,29.259075216472148,2.1980951257228103,0.4596004787545004,B,707.4204999953508,Correct,sub_006_day_04_data.csv,1,300,30.0,Training at home,,,,,,,,,,,,,
6,4,770,B,58.50262588171796,47.51348529134323,2.9251312940858982,0.7463400816886531,B,900.6596999824978,Correct,sub_006_day_04_data.csv,1,300,30.0,Training at home,,,,,,,,,,,,,
6,4,771,B,47.78735524556116,19.36295455558036,2.389367762278058,0.3041525789180214,B,822.9694999754429,Correct,sub_006_day_04_data.csv,1,300,30.0,Training at home,,,,,,,,,,,,,
6,4,772,B,42.12567083019563,30.20468042672113,2.106283541509782,0.4744540106630726,B,1906.0257000091951,Correct,sub_006_day_04_data.csv,1,300,30.0,Training at home,,,,,,,,,,,,,
6,4,773,B,45.007324260458105,25.719996747835687,2.2503662130229056,0.4040087641667699,B,899.9279999989085,Correct,sub_006_day_04_data.csv,1,300,30.0,Training at home,,,,,,,,,,,,,
6,4,774,A,17.92454734230659,43.71146987636003,0.8962273671153295,0.6866181632059211,A,603.2307999848854,Correct,sub_006_day_04_data.csv,1,300,30.0,Training at home,,,,,,,,,,,,,
6,4,775,B,48.79233218214125,32.26881500053565,2.4396166091070626,0.5068773607286546,B,777.3512999992818,Correct,sub_006_day_04_data.csv,1,300,31.0,Training at home,,,,,,,,,,,,,
6,4,776,A,11.06487831855662,30.526101223468476,0.5532439159278311,0.4795028767319348,A,543.301400000928,Correct,sub_006_day_04_data.csv,1,300,31.0,Training at home,,,,,,,,,,,,,
6,4,777,A,26.977820865313056,44.84968252352412,1.348891043265653,0.7044971656586896,A,691.7469000036363,Correct,sub_006_day_04_data.csv,1,300,31.0,Training at home,,,,,,,,,,,,,
6,4,778,B,33.36894101625466,19.075190610634387,1.6684470508127331,0.2996323934409699,A,1023.6005000188017,Incorrect,sub_006_day_04_data.csv,0,300,31.0,Training at home,,,,,,,,,,,,,
6,4,779,B,51.653757896811086,22.529921303748996,2.5826878948405545,0.3538991762690701,B,1304.4060999818612,Correct,sub_006_day_04_data.csv,1,300,31.0,Training at home,,,,,,,,,,,,,
6,4,780,A,32.544415639784816,65.67428796011143,1.6272207819892406,1.0316093029261333,A,1173.6000000091735,Correct,sub_006_day_04_data.csv,1,300,31.0,Training at home,,,,,,,,,,,,,
6,4,781,B,51.617885258019975,40.90660999061713,2.580894262900999,0.6425595271489281,B,1291.92720001447,Correct,sub_006_day_04_data.csv,1,300,31.0,Training at home,,,,,,,,,,,,,
6,4,782,B,44.80978021397956,31.656466409778705,2.240489010698978,0.4972586115578641,B,591.9605999952182,Correct,sub_006_day_04_data.csv,1,300,31.0,Training at home,,,,,,,,,,,,,
6,4,783,B,64.86678446611505,52.88044703194852,3.2433392233057527,0.8306441195705683,B,691.3394999864977,Correct,sub_006_day_04_data.csv,1,300,31.0,Training at home,,,,,,,,,,,,,
6,4,784,B,54.61086219669909,32.162974104661146,2.7305431098349544,0.5052148158240111,B,745.3622000175528,Correct,sub_006_day_04_data.csv,1,300,31.0,Training at home,,,,,,,,,,,,,
6,4,785,A,54.50160036470295,76.3395280989781,2.7250800182351473,1.199138503271306,A,950.8368999813684,Correct,sub_006_day_04_data.csv,1,300,31.0,Training at home,,,,,,,,,,,,,
6,4,786,B,58.959177642897906,35.106009427746514,2.947958882144895,0.5514439065753123,B,1195.973399997456,Correct,sub_006_day_04_data.csv,1,300,31.0,Training at home,,,,,,,,,,,,,
6,4,787,A,67.7690151065774,89.27525650344353,3.38845075532887,1.402332449892813,A,804.5407999888994,Correct,sub_006_day_04_data.csv,1,300,31.0,Training at home,,,,,,,,,,,,,
6,4,788,A,42.32275931032141,52.586854346140264,2.1161379655160704,0.8260323764461537,A,920.4385000048204,Correct,sub_006_day_04_data.csv,1,300,31.0,Training at home,,,,,,,,,,,,,
6,4,789,B,67.47863301352238,34.66669500668445,3.373931650676119,0.5445431717861892,B,666.9594999984838,Correct,sub_006_day_04_data.csv,1,300,31.0,Training at home,,,,,,,,,,,,,
6,4,790,A,51.90026334451812,63.00196078263871,2.5950131672259062,0.98963248578245,B,641.1418000061531,Incorrect,sub_006_day_04_data.csv,0,300,31.0,Training at home,,,,,,,,,,,,,
6,4,791,B,68.26365167538543,47.7983952871424,3.4131825837692715,0.7508154374373378,A,761.3371000043117,Incorrect,sub_006_day_04_data.csv,0,300,31.0,Training at home,,,,,,,,,,,,,
6,4,792,A,26.45614993989748,40.99033369476639,1.3228074969948742,0.6438746560183614,A,621.9880999997258,Correct,sub_006_day_04_data.csv,1,300,31.0,Training at home,,,,,,,,,,,,,
6,4,793,B,73.7809717855327,58.15577026223423,3.689048589276635,0.913508703098454,B,869.6035000029951,Correct,sub_006_day_04_data.csv,1,300,31.0,Training at home,,,,,,,,,,,,,
6,4,794,A,61.34620716058265,82.3864443367228,3.0673103580291325,1.294123241418164,A,976.0591000085695,Correct,sub_006_day_04_data.csv,1,300,31.0,Training at home,,,,,,,,,,,,,
6,4,795,A,54.76748739466684,68.5556939045151,2.738374369733342,1.0768703216608757,A,1015.6424000160767,Correct,sub_006_day_04_data.csv,1,300,31.0,Training at home,,,,,,,,,,,,,
6,4,796,B,45.64450461239488,32.092196043812855,2.2822252306197437,0.5041030366440294,A,649.4709999824408,Incorrect,sub_006_day_04_data.csv,0,300,31.0,Training at home,,,,,,,,,,,,,
6,4,797,A,61.60859400702054,71.28900772709707,3.080429700351027,1.1198051147857706,B,716.7393999989145,Incorrect,sub_006_day_04_data.csv,0,300,31.0,Training at home,,,,,,,,,,,,,
6,4,798,B,47.2628897944268,34.70259825963743,2.36314448972134,0.5451071387647745,B,622.438799997326,Correct,sub_006_day_04_data.csv,1,300,31.0,Training at home,,,,,,,,,,,,,
6,4,799,A,56.868748254944784,69.63931419848731,2.8434374127472393,1.0938917894349955,A,1132.5434999889694,Correct,sub_006_day_04_data.csv,1,300,31.0,Training at home,,,,,,,,,,,,,
6,4,800,B,77.43948215699157,48.508219303164495,3.871974107849579,0.7619653270077208,B,805.9428000124171,Correct,sub_006_day_04_data.csv,1,300,32.0,Training at home,,,,,,,,,,,,,
6,4,801,B,78.91560224196351,61.91208652046423,3.9457801120981753,0.9725127809055304,B,1761.3957999856211,Correct,sub_006_day_04_data.csv,1,300,32.0,Training at home,,,,,,,,,,,,,
6,4,802,B,49.40312325448068,24.202150672047047,2.470156162724034,0.3801664937618814,B,1189.8340999905486,Correct,sub_006_day_04_data.csv,1,300,32.0,Training at home,,,,,,,,,,,,,
6,4,803,B,69.04303879805066,55.61520848395618,3.452151939902533,0.8736016520053074,B,821.5906999830622,Correct,sub_006_day_04_data.csv,1,300,32.0,Training at home,,,,,,,,,,,,,
6,4,804,A,41.325263828894606,51.050321455582754,2.0662631914447305,0.8018965742412809,A,1144.3058000004385,Correct,sub_006_day_04_data.csv,1,300,32.0,Training at home,,,,,,,,,,,,,
6,4,805,B,63.14953829865384,31.34122935590146,3.157476914932692,0.492306879494864,B,886.6057000122964,Correct,sub_006_day_04_data.csv,1,300,32.0,Training at home,,,,,,,,,,,,,
6,4,806,A,46.58111500718598,56.7134120715265,2.329055750359299,0.8908521936195917,A,628.6627000081353,Correct,sub_006_day_04_data.csv,1,300,32.0,Training at home,,,,,,,,,,,,,
6,4,807,A,61.44055810523351,75.69122287411403,3.0720279052616752,1.1889549486127218,A,879.9848000053316,Correct,sub_006_day_04_data.csv,1,300,32.0,Training at home,,,,,,,,,,,,,
6,4,808,A,46.40613447324233,68.84922391423066,2.3203067236621164,1.081481080271529,A,659.6924000186846,Correct,sub_006_day_04_data.csv,1,300,32.0,Training at home,,,,,,,,,,,,,
6,4,809,A,52.29898694001004,66.80764107841685,2.614949347000502,1.0494119720780903,A,699.4747999997344,Correct,sub_006_day_04_data.csv,1,300,32.0,Training at home,,,,,,,,,,,,,
6,4,810,A,30.417757021397936,45.38526790656347,1.5208878510698969,0.712910121182322,A,602.0132999983616,Correct,sub_006_day_04_data.csv,1,300,32.0,Training at home,,,,,,,,,,,,,
6,4,811,A,25.477344144998213,42.963146601371776,1.2738672072499106,0.6748635286898543,A,568.7140999943949,Correct,sub_006_day_04_data.csv,1,300,32.0,Training at home,,,,,,,,,,,,,
6,4,812,A,61.95408211100238,78.87768640710944,3.097704105550119,1.2390078007436724,A,718.0284000060055,Correct,sub_006_day_04_data.csv,1,300,32.0,Training at home,,,,,,,,,,,,,
6,4,813,A,16.352012342120446,45.965189945266815,0.8176006171060223,0.7220195152645483,A,854.0175999805797,Correct,sub_006_day_04_data.csv,1,300,32.0,Training at home,,,,,,,,,,,,,
6,4,814,A,18.86346729143788,40.17425424493903,0.9431733645718938,0.6310557099967451,A,733.4324000112247,Correct,sub_006_day_04_data.csv,1,300,32.0,Training at home,,,,,,,,,,,,,
6,4,815,B,81.23255550238827,66.86882631333984,4.061627775119414,1.0503730675008014,B,606.1534999753349,Correct,sub_006_day_04_data.csv,1,300,32.0,Training at home,,,,,,,,,,,,,
6,4,816,A,55.79152357200947,68.56816183167979,2.789576178600474,1.0770661674028064,B,831.5822000149637,Incorrect,sub_006_day_04_data.csv,0,300,32.0,Training at home,,,,,,,,,,,,,
6,4,817,B,34.34868261578119,13.194833234849654,1.7174341307890597,0.2072639557797305,B,1094.4480999896768,Correct,sub_006_day_04_data.csv,1,300,32.0,Training at home,,,,,,,,,,,,,
6,4,818,A,66.35016076087715,78.71572317139699,3.317508038043857,1.2364636881863431,A,1041.5373999858275,Correct,sub_006_day_04_data.csv,1,300,32.0,Training at home,,,,,,,,,,,,,
6,4,819,A,52.63075629135846,73.06025137935076,2.6315378145679227,1.1476277450139594,B,745.429000002332,Incorrect,sub_006_day_04_data.csv,0,300,32.0,Training at home,,,,,,,,,,,,,
6,4,820,A,60.64638913743393,86.38099537822798,3.032319456871696,1.3568695024500743,A,1117.4902000057043,Correct,sub_006_day_04_data.csv,1,300,32.0,Training at home,,,,,,,,,,,,,
6,4,821,B,39.6391997675428,29.066905675598328,1.98195998837714,0.4565818866652358,A,946.2952000030782,Incorrect,sub_006_day_04_data.csv,0,300,32.0,Training at home,,,,,,,,,,,,,
6,4,822,A,16.385124890294634,36.21958326664049,0.8192562445147317,0.5689358835328078,A,571.8463000084739,Correct,sub_006_day_04_data.csv,1,300,32.0,Training at home,,,,,,,,,,,,,
6,4,823,B,76.6076729229385,65.32015762802274,3.830383646146925,1.0260466366776175,B,543.6793999979272,Correct,sub_006_day_04_data.csv,1,300,32.0,Training at home,,,,,,,,,,,,,
6,4,824,B,82.10494037343986,58.06845764518785,4.105247018671992,0.912137199717061,B,498.6216999823227,Correct,sub_006_day_04_data.csv,1,300,32.0,Training at home,,,,,,,,,,,,,
6,4,825,B,32.64255675233335,13.687827632505025,1.6321278376166677,0.2150078936694057,B,1064.5634999964386,Correct,sub_006_day_04_data.csv,1,300,33.0,Training at home,,,,,,,,,,,,,
6,4,826,B,79.10122418137286,47.144339222313015,3.955061209068643,0.7405415487958185,B,1367.8162999858614,Correct,sub_006_day_04_data.csv,1,300,33.0,Training at home,,,,,,,,,,,,,
6,4,827,A,25.871524677313744,54.64197134317514,1.293576233865687,0.8583140787469151,A,561.0414999828208,Correct,sub_006_day_04_data.csv,1,300,33.0,Training at home,,,,,,,,,,,,,
6,4,828,B,58.50608879465626,50.14317316829607,2.925304439732813,0.7876471222659989,A,941.710699989926,Incorrect,sub_006_day_04_data.csv,0,300,33.0,Training at home,,,,,,,,,,,,,
6,4,829,A,32.245627132173404,41.859616579657526,1.6122813566086702,0.6575293196436879,A,3813.399099977687,Correct,sub_006_day_04_data.csv,1,300,33.0,Training at home,,,,,,,,,,,,,
6,4,830,B,57.1756484494232,31.245050988354333,2.85878242247116,0.4907961132302623,B,960.5689999880268,Correct,sub_006_day_04_data.csv,1,300,33.0,Training at home,,,,,,,,,,,,,
6,4,831,A,43.32451369302448,75.55837019846186,2.166225684651224,1.186868103663529,A,670.4802000022028,Correct,sub_006_day_04_data.csv,1,300,33.0,Training at home,,,,,,,,,,,,,
6,4,832,B,64.74240717738357,38.19482903323531,3.237120358869179,0.5999629714796509,B,613.6218000028748,Correct,sub_006_day_04_data.csv,1,300,33.0,Training at home,,,,,,,,,,,,,
6,4,833,B,41.58616693249418,33.46924396733263,2.0793083466247086,0.5257336548448834,B,627.122000005329,Correct,sub_006_day_04_data.csv,1,300,33.0,Training at home,,,,,,,,,,,,,
6,4,834,B,72.67766843959754,49.620071475389835,3.633883421979877,0.7794302600884258,B,428.30030000186525,Correct,sub_006_day_04_data.csv,1,300,33.0,Training at home,,,,,,,,,,,,,
6,4,835,B,62.854169135641285,45.24351155494354,3.1427084567820645,0.7106834176180776,B,842.4149999918882,Correct,sub_006_day_04_data.csv,1,300,33.0,Training at home,,,,,,,,,,,,,
6,4,836,B,36.48016714029161,22.016135390124017,1.8240083570145804,0.3458286460102593,B,1618.083100009244,Correct,sub_006_day_04_data.csv,1,300,33.0,Training at home,,,,,,,,,,,,,
6,4,837,B,47.851159730256136,35.68632910592539,2.392557986512807,0.5605595467638141,B,563.0806999979541,Correct,sub_006_day_04_data.csv,1,300,33.0,Training at home,,,,,,,,,,,,,
6,4,838,A,26.270409032413028,37.2610186733483,1.3135204516206511,0.5852947126473156,A,544.3565000023227,Correct,sub_006_day_04_data.csv,1,300,33.0,Training at home,,,,,,,,,,,,,
6,4,839,A,65.94561371203436,85.09105443502783,3.297280685601718,1.3366071574964629,A,897.8190000052564,Correct,sub_006_day_04_data.csv,1,300,33.0,Training at home,,,,,,,,,,,,,
6,4,840,A,32.058510417040075,64.034156930792,1.602925520852004,1.0058461849629603,A,515.7641999830958,Correct,sub_006_day_04_data.csv,1,300,33.0,Training at home,,,,,,,,,,,,,
6,4,841,B,34.060055752918984,15.487682730078564,1.703002787645949,0.2432799514297216,A,567.9899000097066,Incorrect,sub_006_day_04_data.csv,0,300,33.0,Training at home,,,,,,,,,,,,,
6,4,842,A,21.92866756961914,47.09036376027651,1.096433378480957,0.7396937042207786,A,525.8599000226241,Correct,sub_006_day_04_data.csv,1,300,33.0,Training at home,,,,,,,,,,,,,
6,4,843,B,70.17320984658672,57.35714076808168,3.5086604923293354,0.9009638603396052,B,765.815399994608,Correct,sub_006_day_04_data.csv,1,300,33.0,Training at home,,,,,,,,,,,,,
6,4,844,A,30.936456152364265,52.63008074744319,1.5468228076182131,0.8267113751700256,A,757.3158000013791,Correct,sub_006_day_04_data.csv,1,300,33.0,Training at home,,,,,,,,,,,,,
6,4,845,B,76.9798305434943,52.803281075131025,3.8489915271747153,0.8294319995553429,B,620.2503999811597,Correct,sub_006_day_04_data.csv,1,300,33.0,Training at home,,,,,,,,,,,,,
6,4,846,A,20.238300026339104,35.052486733683395,1.011915001316955,0.5506031740629672,A,622.7311000111513,Correct,sub_006_day_04_data.csv,1,300,33.0,Training at home,,,,,,,,,,,,,
6,4,847,A,38.68962566584806,48.124768771249144,1.9344812832924032,0.7559421001373191,B,1238.149099983275,Incorrect,sub_006_day_04_data.csv,0,300,33.0,Training at home,,,,,,,,,,,,,
6,4,848,A,47.44843875743116,71.69425763574495,2.3724219378715583,1.1261707654651514,A,1393.6665000219364,Correct,sub_006_day_04_data.csv,1,300,33.0,Training at home,,,,,,,,,,,,,
6,4,849,A,47.60452103104358,74.47360218983562,2.3802260515521794,1.1698286076297817,A,630.8683999814093,Correct,sub_006_day_04_data.csv,1,300,33.0,Training at home,,,,,,,,,,,,,
6,4,850,A,46.60542984578677,56.11403600877566,2.330271492289339,0.8814372164422137,A,1468.5274999937974,Correct,sub_006_day_04_data.csv,1,300,34.0,Training at home,,,,,,,,,,,,,
6,4,851,B,67.58475909542825,54.68023551774195,3.3792379547714124,0.8589151309954889,A,1106.7861999908928,Incorrect,sub_006_day_04_data.csv,0,300,34.0,Training at home,,,,,,,,,,,,,
6,4,852,A,29.937819234933393,39.70525305509443,1.4968909617466697,0.6236886565340418,A,703.1262000091374,Correct,sub_006_day_04_data.csv,1,300,34.0,Training at home,,,,,,,,,,,,,
6,4,853,B,58.9044371946216,27.68623885022616,2.9452218597310797,0.4348944228870141,B,619.7150000080001,Correct,sub_006_day_04_data.csv,1,300,34.0,Training at home,,,,,,,,,,,,,
6,4,854,B,73.13294089477435,59.788516041910086,3.6566470447387176,0.9391558138315012,A,1038.9905000047293,Incorrect,sub_006_day_04_data.csv,0,300,34.0,Training at home,,,,,,,,,,,,,
6,4,855,A,38.776226458720146,68.93430928583324,1.938811322936007,1.0828175981633017,A,761.5910000167787,Correct,sub_006_day_04_data.csv,1,300,34.0,Training at home,,,,,,,,,,,,,
6,4,856,B,42.64263425878873,18.392742389998883,2.1321317129394366,0.2889125218589503,B,628.8439000200015,Correct,sub_006_day_04_data.csv,1,300,34.0,Training at home,,,,,,,,,,,,,
6,4,857,B,80.21211179940008,66.92114130001355,4.0106055899700035,1.0511948293898352,A,914.2003000015392,Incorrect,sub_006_day_04_data.csv,0,300,34.0,Training at home,,,,,,,,,,,,,
6,4,858,B,45.71398054117352,29.3577398192539,2.285699027058676,0.4611502987108429,A,531.0228999878746,Incorrect,sub_006_day_04_data.csv,0,300,34.0,Training at home,,,,,,,,,,,,,
6,4,859,A,48.77561981618421,60.69079983956387,2.43878099080921,0.9533288545823124,A,663.3624999958556,Correct,sub_006_day_04_data.csv,1,300,34.0,Training at home,,,,,,,,,,,,,
6,4,860,B,71.61694257254489,48.41888941332533,3.5808471286272443,0.7605621363793972,B,793.5536000004504,Correct,sub_006_day_04_data.csv,1,300,34.0,Training at home,,,,,,,,,,,,,
6,4,861,B,50.60294158756018,25.594439493166707,2.530147079378009,0.402036515422405,B,1053.4451999992598,Correct,sub_006_day_04_data.csv,1,300,34.0,Training at home,,,,,,,,,,,,,
6,4,862,A,38.385629355534675,49.87344305154479,1.9192814677767336,0.7834102114998102,A,679.4025000126567,Correct,sub_006_day_04_data.csv,1,300,34.0,Training at home,,,,,,,,,,,,,
6,4,863,B,37.31491316990004,18.312761876002327,1.8657456584950016,0.2876561908829407,A,595.6510000105482,Incorrect,sub_006_day_04_data.csv,0,300,34.0,Training at home,,,,,,,,,,,,,
6,4,864,B,85.59823236753614,56.29711484999584,4.279911618376807,0.884313012155239,B,640.9941000165418,Correct,sub_006_day_04_data.csv,1,300,34.0,Training at home,,,,,,,,,,,,,
6,4,865,A,52.075103957996134,67.94217790079661,2.603755197899807,1.0672332348101672,A,824.9144000001252,Correct,sub_006_day_04_data.csv,1,300,34.0,Training at home,,,,,,,,,,,,,
6,4,866,A,41.86356558249672,70.85605456086913,2.093178279124836,1.11300430235392,A,722.5469999830239,Correct,sub_006_day_04_data.csv,1,300,34.0,Training at home,,,,,,,,,,,,,
6,4,867,B,60.298994781952175,48.84472263887997,3.0149497390976085,0.7672511090446819,B,756.3377000042237,Correct,sub_006_day_04_data.csv,1,300,34.0,Training at home,,,,,,,,,,,,,
6,4,868,B,36.763406431726054,24.96028964642152,1.8381703215863028,0.392075312923356,A,650.152700021863,Incorrect,sub_006_day_04_data.csv,0,300,34.0,Training at home,,,,,,,,,,,,,
6,4,869,B,70.05852410745781,47.06821548383188,3.5029262053728907,0.7393457999079378,B,969.2761000187602,Correct,sub_006_day_04_data.csv,1,300,34.0,Training at home,,,,,,,,,,,,,
6,4,870,B,83.41671413912343,54.354775854014974,4.170835706956171,0.8538028225524665,B,2094.266100000823,Correct,sub_006_day_04_data.csv,1,300,34.0,Training at home,,,,,,,,,,,,,
6,4,871,A,44.08090878603803,60.4136035397083,2.2040454393019018,0.9489746652861696,A,1421.4333000127226,Correct,sub_006_day_04_data.csv,1,300,34.0,Training at home,,,,,,,,,,,,,
6,4,872,A,44.88457781534675,65.28678228457292,2.2442288907673373,1.0255223780086526,A,1867.4494000151751,Correct,sub_006_day_04_data.csv,1,300,34.0,Training at home,,,,,,,,,,,,,
6,4,873,A,46.63776155432465,57.07939134106128,2.3318880777162323,0.8966009825422748,A,881.9799000048079,Correct,sub_006_day_04_data.csv,1,300,34.0,Training at home,,,,,,,,,,,,,
6,4,874,A,68.33607274634298,88.1309678491578,3.416803637317149,1.384358005743362,A,1041.9601000030525,Correct,sub_006_day_04_data.csv,1,300,34.0,Training at home,,,,,,,,,,,,,
6,4,875,A,47.43988531879339,57.25578821189625,2.3719942659396693,0.8993718181099317,B,2165.1345000136644,Incorrect,sub_006_day_04_data.csv,0,300,35.0,Training at home,,,,,,,,,,,,,
6,4,876,A,31.72643593844053,41.5677077322093,1.586321796922027,0.6529440261903818,A,1108.3918000222184,Correct,sub_006_day_04_data.csv,1,300,35.0,Training at home,,,,,,,,,,,,,
6,4,877,A,54.99311337868595,63.08068345183557,2.7496556689342975,0.9908690585785492,B,1515.06849998259,Incorrect,sub_006_day_04_data.csv,0,300,35.0,Training at home,,,,,,,,,,,,,
6,4,878,B,45.619364005828224,34.714564133919964,2.280968200291411,0.5452950982784734,B,479.1761999949813,Correct,sub_006_day_04_data.csv,1,300,35.0,Training at home,,,,,,,,,,,,,
6,4,879,A,33.23049619257576,42.93887314105653,1.6615248096287878,0.6744822420668364,A,685.5246000050101,Correct,sub_006_day_04_data.csv,1,300,35.0,Training at home,,,,,,,,,,,,,
6,4,880,B,61.79841409307757,35.04195774125121,3.089920704653878,0.5504377850365939,B,631.0407999844756,Correct,sub_006_day_04_data.csv,1,300,35.0,Training at home,,,,,,,,,,,,,
6,4,881,A,64.14531538001862,86.26746897259812,3.2072657690009305,1.3550862338404983,A,1098.1199000088964,Correct,sub_006_day_04_data.csv,1,300,35.0,Training at home,,,,,,,,,,,,,
6,4,882,A,64.66985434277058,74.78612179325052,3.233492717138529,1.1747376540807366,B,855.8174000063445,Incorrect,sub_006_day_04_data.csv,0,300,35.0,Training at home,,,,,,,,,,,,,
6,4,883,B,52.38925612277457,30.564176960648197,2.619462806138728,0.4801009690129539,B,924.9421000131406,Correct,sub_006_day_04_data.csv,1,300,35.0,Training at home,,,,,,,,,,,,,
6,4,884,A,61.13552947745201,73.90534700174459,3.0567764738726004,1.1609024760084263,A,974.3512000131886,Correct,sub_006_day_04_data.csv,1,300,35.0,Training at home,,,,,,,,,,,,,
6,4,885,B,64.55529567327898,38.77063619903511,3.227764783663949,0.609007729289456,B,571.8399999896064,Correct,sub_006_day_04_data.csv,1,300,35.0,Training at home,,,,,,,,,,,,,
6,4,886,B,77.13098636846402,48.57806334701238,3.856549318423202,0.7630624346829683,B,568.6885999748483,Correct,sub_006_day_04_data.csv,1,300,35.0,Training at home,,,,,,,,,,,,,
6,4,887,A,44.97323262733059,53.779186670635525,2.2486616313665295,0.8447614888025134,A,1176.9311999960337,Correct,sub_006_day_04_data.csv,1,300,35.0,Training at home,,,,,,,,,,,,,
6,4,888,A,21.756361800676455,39.1578975458969,1.0878180900338228,0.6150908163010576,A,597.4062999885064,Correct,sub_006_day_04_data.csv,1,300,35.0,Training at home,,,,,,,,,,,,,
6,4,889,B,62.49753810464059,44.1329951935985,3.1248769052320298,0.6932394674056134,B,992.900200013537,Correct,sub_006_day_04_data.csv,1,300,35.0,Training at home,,,,,,,,,,,,,
6,4,890,B,79.1438499235786,64.14276423810621,3.95719249617893,1.007552184556883,B,1121.5662000176962,Correct,sub_006_day_04_data.csv,1,300,35.0,Training at home,,,,,,,,,,,,,
6,4,891,B,78.79180782345958,54.41716443217916,3.939590391172979,0.8547828200466093,B,943.042200000491,Correct,sub_006_day_04_data.csv,1,300,35.0,Training at home,,,,,,,,,,,,,
6,4,892,A,54.58028992423175,68.77619204118031,2.7290144962115876,1.0803338982922643,A,776.6299999784678,Correct,sub_006_day_04_data.csv,1,300,35.0,Training at home,,,,,,,,,,,,,
6,4,893,A,12.187150604763817,36.87417624065882,0.6093575302381907,0.5792182059241452,A,596.7166000045836,Correct,sub_006_day_04_data.csv,1,300,35.0,Training at home,,,,,,,,,,,,,
6,4,894,B,53.65156474989213,31.652910088318045,2.6825782374946066,0.4972027489909911,B,1993.902899994282,Correct,sub_006_day_04_data.csv,1,300,35.0,Training at home,,,,,,,,,,,,,
6,4,895,B,73.6560930883697,51.3581345447298,3.6828046544184847,0.8067316909389965,B,1781.6916999872774,Correct,sub_006_day_04_data.csv,1,300,35.0,Training at home,,,,,,,,,,,,,
6,4,896,B,45.530836996566435,34.80694684378692,2.276541849828322,0.5467462424916572,B,734.3424999853596,Correct,sub_006_day_04_data.csv,1,300,35.0,Training at home,,,,,,,,,,,,,
6,4,897,A,44.78692215532816,54.239586991622645,2.239346107766408,0.851993440133131,A,1346.473400015384,Correct,sub_006_day_04_data.csv,1,300,35.0,Training at home,,,,,,,,,,,,,
6,4,898,A,44.46857408662058,68.18119733335394,2.223428704331029,1.0709877432771036,A,772.164399997564,Correct,sub_006_day_04_data.csv,1,300,35.0,Training at home,,,,,,,,,,,,,
6,4,899,B,56.06628398451979,28.34765910942977,2.80331419922599,0.4452839880232617,B,815.7783999922685,Correct,sub_006_day_04_data.csv,1,300,35.0,Training at home,,,,,,,,,,,,,
