subject,day,trial,cat,x,y,xt,yt,resp,rt,fb,f_name,acc,n_trials,block,session_type,ns_left_digit,ns_right_digit,ns_left_size,ns_right_size,ns_congruent,ns_cue,ns_correct_side,ns_resp,ns_rt,ns_fb,acc_stroop,acc_stroop_mean,resp_key
6,2,0,A,30.145913065174,48.992017227864466,1.5072956532587,0.7695648070380178,A,915.8252999768592,Correct,sub_006_day_02_data.csv,1,300,0.0,Training at home,,,,,,,,,,,,,
6,2,1,B,61.01763341991341,52.514440056273926,3.0508816709956705,0.8248948954408587,A,829.4735999952536,Incorrect,sub_006_day_02_data.csv,0,300,0.0,Training at home,,,,,,,,,,,,,
6,2,2,B,68.97175921765665,37.83016651647629,3.4485879608828327,0.5942348660612025,B,762.9505000077188,Correct,sub_006_day_02_data.csv,1,300,0.0,Training at home,,,,,,,,,,,,,
6,2,3,B,44.295058441786,31.96431401682202,2.2147529220893003,0.5020942704614265,A,741.3802999944892,Incorrect,sub_006_day_02_data.csv,0,300,0.0,Training at home,,,,,,,,,,,,,
6,2,4,B,71.20558344726727,43.80932260534525,3.5602791723633636,0.6881552302784892,B,683.384300005855,Correct,sub_006_day_02_data.csv,1,300,0.0,Training at home,,,,,,,,,,,,,
6,2,5,B,76.44347519386832,56.105768935604694,3.822173759693416,0.8813073575605107,B,823.0875000008382,Correct,sub_006_day_02_data.csv,1,300,0.0,Training at home,,,,,,,,,,,,,
6,2,6,A,18.857704815345677,45.03065973695823,0.9428852407672836,0.7073399490796481,A,582.3638000001665,Correct,sub_006_day_02_data.csv,1,300,0.0,Training at home,,,,,,,,,,,,,
6,2,7,A,11.500918469236687,31.64039390673599,0.5750459234618344,0.4970061452704452,A,530.3606000088621,Correct,sub_006_day_02_data.csv,1,300,0.0,Training at home,,,,,,,,,,,,,
6,2,8,B,64.6552765870861,54.95785694658368,3.2327638293543055,0.8632759982021304,B,1115.795399993658,Correct,sub_006_day_02_data.csv,1,300,0.0,Training at home,,,,,,,,,,,,,
6,2,9,B,47.3075845730328,24.6092847129376,2.3653792286516397,0.3865617403213219,A,748.3580999833066,Incorrect,sub_006_day_02_data.csv,0,300,0.0,Training at home,,,,,,,,,,,,,
6,2,10,B,46.04538572602662,18.086871773420484,2.302269286301331,0.2841079174489919,B,1153.0772999976762,Correct,sub_006_day_02_data.csv,1,300,0.0,Training at home,,,,,,,,,,,,,
6,2,11,A,26.924966642661463,57.44968134791438,1.3462483321330732,0.9024174843684118,A,613.7728000176139,Correct,sub_006_day_02_data.csv,1,300,0.0,Training at home,,,,,,,,,,,,,
6,2,12,B,72.8080112066409,50.914839962092,3.6404005603320457,0.7997684359180411,B,664.2411999928299,Correct,sub_006_day_02_data.csv,1,300,0.0,Training at home,,,,,,,,,,,,,
6,2,13,B,41.76781647973132,27.363267011378348,2.088390823986566,0.4298211931058107,A,1164.4265000068117,Incorrect,sub_006_day_02_data.csv,0,300,0.0,Training at home,,,,,,,,,,,,,
6,2,14,A,12.983340637794004,41.34607523635617,0.6491670318897002,0.6494626310865371,A,927.6569999929052,Correct,sub_006_day_02_data.csv,1,300,0.0,Training at home,,,,,,,,,,,,,
6,2,15,A,53.12519194953467,70.19431863481265,2.6562595974767333,1.1026097787343427,A,1974.2436000087764,Correct,sub_006_day_02_data.csv,1,300,0.0,Training at home,,,,,,,,,,,,,
6,2,16,A,32.95757672947861,42.83056080084438,1.6478788364739303,0.6727808758053184,B,661.8425000051502,Incorrect,sub_006_day_02_data.csv,0,300,0.0,Training at home,,,,,,,,,,,,,
6,2,17,A,60.37712436679288,74.26842343690448,3.018856218339644,1.1666056673153755,A,1505.2929999947082,Correct,sub_006_day_02_data.csv,1,300,0.0,Training at home,,,,,,,,,,,,,
6,2,18,A,41.1714580930026,64.20402396556227,2.0585729046501298,1.0085144501055672,A,1883.841000002576,Correct,sub_006_day_02_data.csv,1,300,0.0,Training at home,,,,,,,,,,,,,
6,2,19,A,26.838090447996052,41.54776258834387,1.3419045223998023,0.6526307286031697,A,1206.385900004534,Correct,sub_006_day_02_data.csv,1,300,0.0,Training at home,,,,,,,,,,,,,
6,2,20,A,56.398020197376496,72.28488346589005,2.8199010098688246,1.1354482943101725,B,983.8112999859732,Incorrect,sub_006_day_02_data.csv,0,300,0.0,Training at home,,,,,,,,,,,,,
6,2,21,B,36.341212511156776,21.11210350448431,1.817060625557839,0.3316281463575761,B,679.8395999940112,Correct,sub_006_day_02_data.csv,1,300,0.0,Training at home,,,,,,,,,,,,,
6,2,22,B,39.75473357780272,30.68405621710439,1.987736678890136,0.4819840279699569,B,792.5687000097241,Correct,sub_006_day_02_data.csv,1,300,0.0,Training at home,,,,,,,,,,,,,
6,2,23,A,32.18621326523942,55.29118785423453,1.609310663261971,0.8685119478555821,A,954.0277000050992,Correct,sub_006_day_02_data.csv,1,300,0.0,Training at home,,,,,,,,,,,,,
6,2,24,B,45.76390242752619,24.337789591204743,2.28819512137631,0.3822971049217148,B,1793.0509999860078,Correct,sub_006_day_02_data.csv,1,300,0.0,Training at home,,,,,,,,,,,,,
6,2,25,A,42.20323623951008,68.9364343963836,2.1101618119755043,1.082850979321767,A,965.8748999936506,Correct,sub_006_day_02_data.csv,1,300,1.0,Training at home,,,,,,,,,,,,,
6,2,26,A,45.193807783433456,70.17059397117067,2.2596903891716726,1.1022371125893102,A,1819.002800009912,Correct,sub_006_day_02_data.csv,1,300,1.0,Training at home,,,,,,,,,,,,,
6,2,27,A,51.8515722565358,62.4959485232915,2.5925786128267903,0.9816840637994922,B,962.3934999981428,Incorrect,sub_006_day_02_data.csv,0,300,1.0,Training at home,,,,,,,,,,,,,
6,2,28,B,49.36072083465104,31.60195409108455,2.468036041732552,0.4964023340581656,B,879.7664000012446,Correct,sub_006_day_02_data.csv,1,300,1.0,Training at home,,,,,,,,,,,,,
6,2,29,A,46.76045077301685,75.57267402935327,2.338022538650842,1.1870927877137616,A,1131.6677000140771,Correct,sub_006_day_02_data.csv,1,300,1.0,Training at home,,,,,,,,,,,,,
6,2,30,A,20.41767274887491,43.43097462601898,1.0208836374437456,0.6822121541167298,A,804.4768999970984,Correct,sub_006_day_02_data.csv,1,300,1.0,Training at home,,,,,,,,,,,,,
6,2,31,B,81.49515537567838,53.3105463192376,4.074757768783919,0.8374001033768762,B,866.0298000031617,Correct,sub_006_day_02_data.csv,1,300,1.0,Training at home,,,,,,,,,,,,,
6,2,32,B,45.19228057732408,28.80545293385658,2.259614028866204,0.4524749966016518,B,862.449199979892,Correct,sub_006_day_02_data.csv,1,300,1.0,Training at home,,,,,,,,,,,,,
6,2,33,A,25.65293394657252,42.806391088944835,1.282646697328626,0.6724012188586034,A,801.46539999987,Correct,sub_006_day_02_data.csv,1,300,1.0,Training at home,,,,,,,,,,,,,
6,2,34,A,61.406077511110375,73.82250313721542,3.0703038755555188,1.1596011676274272,A,3122.2309000149835,Correct,sub_006_day_02_data.csv,1,300,1.0,Training at home,,,,,,,,,,,,,
6,2,35,B,49.4021860630763,40.47405848683472,2.470109303153815,0.6357650240160179,B,619.2129999981262,Correct,sub_006_day_02_data.csv,1,300,1.0,Training at home,,,,,,,,,,,,,
6,2,36,A,61.12875331253261,76.80961918514745,3.05643766562663,1.2065226767854444,A,1238.771899981657,Correct,sub_006_day_02_data.csv,1,300,1.0,Training at home,,,,,,,,,,,,,
6,2,37,A,50.51511875688729,58.036286843686725,2.5257559378443646,0.9116318619487808,B,1069.1826999827754,Incorrect,sub_006_day_02_data.csv,0,300,1.0,Training at home,,,,,,,,,,,,,
6,2,38,A,35.11171354061159,47.20642667509528,1.7555856770305796,0.7415168162235228,A,898.6342000134755,Correct,sub_006_day_02_data.csv,1,300,1.0,Training at home,,,,,,,,,,,,,
6,2,39,A,56.52278661171955,76.1226842979819,2.8261393305859777,1.1957323288103754,A,899.4735000014771,Correct,sub_006_day_02_data.csv,1,300,1.0,Training at home,,,,,,,,,,,,,
6,2,40,B,31.854179054106098,11.56536718818072,1.5927089527053049,0.1816683629722849,B,1156.8800999957602,Correct,sub_006_day_02_data.csv,1,300,1.0,Training at home,,,,,,,,,,,,,
6,2,41,A,49.831080348355975,59.81275143568781,2.491554017417799,0.9395365025067458,A,1878.7018000148237,Correct,sub_006_day_02_data.csv,1,300,1.0,Training at home,,,,,,,,,,,,,
6,2,42,B,61.94494583986761,34.77091487684713,3.09724729199338,0.546180253678495,A,1482.3681999987457,Incorrect,sub_006_day_02_data.csv,0,300,1.0,Training at home,,,,,,,,,,,,,
6,2,43,B,66.06131267406278,53.92798400145507,3.303065633703139,0.8470987918093957,B,1313.7935000122525,Correct,sub_006_day_02_data.csv,1,300,1.0,Training at home,,,,,,,,,,,,,
6,2,44,A,47.96510598809775,57.05191426778832,2.3982552994048874,0.8961693736845924,B,1420.432900020387,Incorrect,sub_006_day_02_data.csv,0,300,1.0,Training at home,,,,,,,,,,,,,
6,2,45,B,81.0371822323013,65.10183723034777,4.051859111615065,1.0226172678902952,B,657.2784000018146,Correct,sub_006_day_02_data.csv,1,300,1.0,Training at home,,,,,,,,,,,,,
6,2,46,A,43.7373781619951,76.05935233685267,2.186868908099755,1.1947375126912698,A,771.7602000047918,Correct,sub_006_day_02_data.csv,1,300,1.0,Training at home,,,,,,,,,,,,,
6,2,47,B,52.930851405144466,35.048334921681956,2.6465425702572234,0.5505379575525532,A,1048.1972999987192,Incorrect,sub_006_day_02_data.csv,0,300,1.0,Training at home,,,,,,,,,,,,,
6,2,48,B,79.23552885045162,47.66099522710028,3.9617764425225808,0.7486571623411823,B,705.2620000031311,Correct,sub_006_day_02_data.csv,1,300,1.0,Training at home,,,,,,,,,,,,,
6,2,49,B,50.06661366386834,39.78122430061327,2.503330683193417,0.624882010068072,A,1351.2343000038527,Incorrect,sub_006_day_02_data.csv,0,300,1.0,Training at home,,,,,,,,,,,,,
6,2,50,A,46.80451472886303,57.49842018780025,2.3402257364431516,0.9031830722750616,B,971.7486000154169,Incorrect,sub_006_day_02_data.csv,0,300,2.0,Training at home,,,,,,,,,,,,,
6,2,51,B,41.35601660631495,22.40462226961863,2.0678008303157474,0.3519309836434408,B,1196.1959000036586,Correct,sub_006_day_02_data.csv,1,300,2.0,Training at home,,,,,,,,,,,,,
6,2,52,A,33.974070954855755,43.27708437968053,1.698703547742788,0.6797948517799496,A,841.0325000004377,Correct,sub_006_day_02_data.csv,1,300,2.0,Training at home,,,,,,,,,,,,,
6,2,53,B,72.39253594394759,41.48082175622542,3.619626797197379,0.6515792244711271,B,902.6101999916136,Correct,sub_006_day_02_data.csv,1,300,2.0,Training at home,,,,,,,,,,,,,
6,2,54,B,47.53568823959011,38.46750198148271,2.3767844119795054,0.6042461081348844,B,3247.322699986398,Correct,sub_006_day_02_data.csv,1,300,2.0,Training at home,,,,,,,,,,,,,
6,2,55,B,32.96975037609796,13.751195009095344,1.6484875188048982,0.2160032660932727,A,783.0962000007275,Incorrect,sub_006_day_02_data.csv,0,300,2.0,Training at home,,,,,,,,,,,,,
6,2,56,A,15.163552286198172,36.58071440214147,0.7581776143099086,0.5746085181441699,A,657.2453000117093,Correct,sub_006_day_02_data.csv,1,300,2.0,Training at home,,,,,,,,,,,,,
6,2,57,A,46.48069988482383,59.64447203199651,2.3240349942411913,0.9368931758148106,A,1063.782799988985,Correct,sub_006_day_02_data.csv,1,300,2.0,Training at home,,,,,,,,,,,,,
6,2,58,A,33.720356115181744,51.08503364164956,1.686017805759087,0.8024418319849685,B,1321.7699000088032,Incorrect,sub_006_day_02_data.csv,0,300,2.0,Training at home,,,,,,,,,,,,,
6,2,59,A,12.301881604084496,35.73274075768913,0.6150940802042248,0.5612885792849237,A,631.6197999985889,Correct,sub_006_day_02_data.csv,1,300,2.0,Training at home,,,,,,,,,,,,,
6,2,60,B,65.6929570949908,39.04615557040377,3.28464785474954,0.6133355774545233,B,1366.0859999945387,Correct,sub_006_day_02_data.csv,1,300,2.0,Training at home,,,,,,,,,,,,,
6,2,61,A,64.91951919088447,76.92518241885946,3.2459759595442232,1.208337939815718,A,852.1633000054862,Correct,sub_006_day_02_data.csv,1,300,2.0,Training at home,,,,,,,,,,,,,
6,2,62,A,37.09405918210825,68.61444971171073,1.8547029591054127,1.0777932557220835,A,1079.1877000010572,Correct,sub_006_day_02_data.csv,1,300,2.0,Training at home,,,,,,,,,,,,,
6,2,63,B,81.67244634396825,57.92062159825566,4.0836223171984125,0.9098149965221716,B,669.7640999918804,Correct,sub_006_day_02_data.csv,1,300,2.0,Training at home,,,,,,,,,,,,,
6,2,64,B,32.76024823192941,12.184559480148328,1.6380124115964705,0.1913946127503092,B,1514.4053999974858,Correct,sub_006_day_02_data.csv,1,300,2.0,Training at home,,,,,,,,,,,,,
6,2,65,A,47.09473376219311,62.18900719541768,2.3547366881096554,0.9768626406958348,A,957.1819999837315,Correct,sub_006_day_02_data.csv,1,300,2.0,Training at home,,,,,,,,,,,,,
6,2,66,A,29.3322479867886,57.65227807430781,1.4666123993394302,0.9055998663048068,A,800.2584999776445,Correct,sub_006_day_02_data.csv,1,300,2.0,Training at home,,,,,,,,,,,,,
6,2,67,B,76.36153046166899,51.37324948437526,3.8180765230834495,0.8069691158557445,B,767.3239000141621,Correct,sub_006_day_02_data.csv,1,300,2.0,Training at home,,,,,,,,,,,,,
6,2,68,B,74.49458033109757,49.09165456545729,3.7247290165548783,0.7711299066770423,B,703.9772999996785,Correct,sub_006_day_02_data.csv,1,300,2.0,Training at home,,,,,,,,,,,,,
6,2,69,B,89.31520518407284,66.05714097252414,4.465760259203642,1.0376231439821355,B,1085.5853999964893,Correct,sub_006_day_02_data.csv,1,300,2.0,Training at home,,,,,,,,,,,,,
6,2,70,A,34.564713005304284,45.93630931573553,1.728235650265214,0.7215658593967155,A,877.5832999963313,Correct,sub_006_day_02_data.csv,1,300,2.0,Training at home,,,,,,,,,,,,,
6,2,71,A,40.16060279569521,67.4288262438327,2.0080301397847604,1.0591695258390377,A,744.7463000135031,Correct,sub_006_day_02_data.csv,1,300,2.0,Training at home,,,,,,,,,,,,,
6,2,72,B,46.979744775173835,33.18547335014323,2.3489872387586916,0.5212761964135493,B,758.7090999877546,Correct,sub_006_day_02_data.csv,1,300,2.0,Training at home,,,,,,,,,,,,,
6,2,73,A,35.94744615375518,59.93174300321407,1.797372307687759,0.941405617678644,B,1151.171900011832,Incorrect,sub_006_day_02_data.csv,0,300,2.0,Training at home,,,,,,,,,,,,,
6,2,74,B,30.130588246559135,13.539671303885612,1.506529412327957,0.2126806595015379,A,636.0581000044476,Incorrect,sub_006_day_02_data.csv,0,300,2.0,Training at home,,,,,,,,,,,,,
6,2,75,B,51.95355868075947,23.143126880184223,2.597677934037973,0.3635313869394161,A,865.2040000015404,Incorrect,sub_006_day_02_data.csv,0,300,3.0,Training at home,,,,,,,,,,,,,
6,2,76,B,56.50497478088154,26.593181222217172,2.825248739044077,0.4177247138164975,B,595.9165999956895,Correct,sub_006_day_02_data.csv,1,300,3.0,Training at home,,,,,,,,,,,,,
6,2,77,A,52.4961496043248,69.0355744020346,2.62480748021624,1.0844082668889174,A,906.917100015562,Correct,sub_006_day_02_data.csv,1,300,3.0,Training at home,,,,,,,,,,,,,
6,2,78,B,50.904657463351015,38.650070102192686,2.54523287316755,0.6071138814688951,B,604.9206999887247,Correct,sub_006_day_02_data.csv,1,300,3.0,Training at home,,,,,,,,,,,,,
6,2,79,B,52.54231561051635,24.254622425606623,2.627115780525817,0.3809907181394,B,559.3637000129092,Correct,sub_006_day_02_data.csv,1,300,3.0,Training at home,,,,,,,,,,,,,
6,2,80,A,13.915122901679116,36.947723194658394,0.6957561450839558,0.5803734787760401,A,652.1751999971457,Correct,sub_006_day_02_data.csv,1,300,3.0,Training at home,,,,,,,,,,,,,
6,2,81,A,27.327286962853577,46.40213013090986,1.3663643481426788,0.7288829556509201,A,1002.3763999924996,Correct,sub_006_day_02_data.csv,1,300,3.0,Training at home,,,,,,,,,,,,,
6,2,82,B,33.45769313240933,20.838007111115036,1.6728846566204667,0.3273226502786543,A,842.4569000198971,Incorrect,sub_006_day_02_data.csv,0,300,3.0,Training at home,,,,,,,,,,,,,
6,2,83,B,63.908198436032364,41.84040266655722,3.1954099218016183,0.6572275082024747,B,848.6624000070151,Correct,sub_006_day_02_data.csv,1,300,3.0,Training at home,,,,,,,,,,,,,
6,2,84,A,67.43731584081533,85.6912405483724,3.371865792040767,1.346034858918813,A,986.7325000232086,Correct,sub_006_day_02_data.csv,1,300,3.0,Training at home,,,,,,,,,,,,,
6,2,85,B,63.69859024428662,42.772347676796784,3.184929512214331,0.6718664661910662,B,1223.0755999917164,Correct,sub_006_day_02_data.csv,1,300,3.0,Training at home,,,,,,,,,,,,,
6,2,86,B,70.12870377407091,48.7609963657379,3.506435188703546,0.765935939821604,B,695.4013000067789,Correct,sub_006_day_02_data.csv,1,300,3.0,Training at home,,,,,,,,,,,,,
6,2,87,B,34.11782799272338,21.680944870969636,1.705891399636169,0.3405634856476175,A,580.9764000005089,Incorrect,sub_006_day_02_data.csv,0,300,3.0,Training at home,,,,,,,,,,,,,
6,2,88,B,78.74765977830499,47.47434961146456,3.9373829889152496,0.7457253398666525,A,968.600799998967,Incorrect,sub_006_day_02_data.csv,0,300,3.0,Training at home,,,,,,,,,,,,,
6,2,89,A,33.34387113147064,58.24484304899928,1.6671935565735323,0.9149078551611332,A,679.4527999882121,Correct,sub_006_day_02_data.csv,1,300,3.0,Training at home,,,,,,,,,,,,,
6,2,90,A,17.815022973085618,36.78734265474947,0.890751148654281,0.577854227146257,A,746.5834000031464,Correct,sub_006_day_02_data.csv,1,300,3.0,Training at home,,,,,,,,,,,,,
6,2,91,A,39.530468944231714,54.24553482143267,1.9765234472115856,0.8520868684253109,A,1303.7641999835614,Correct,sub_006_day_02_data.csv,1,300,3.0,Training at home,,,,,,,,,,,,,
6,2,92,A,41.88725338239719,57.158564302414135,2.09436266911986,0.8978446285110203,A,824.2019000172149,Correct,sub_006_day_02_data.csv,1,300,3.0,Training at home,,,,,,,,,,,,,
6,2,93,A,55.24084571793464,76.89261328516432,2.762042285896732,1.2078263450599656,A,897.2907999996096,Correct,sub_006_day_02_data.csv,1,300,3.0,Training at home,,,,,,,,,,,,,
6,2,94,B,35.060880971357264,21.482933528785026,1.7530440485678631,0.3374531307579444,B,863.3765999984462,Correct,sub_006_day_02_data.csv,1,300,3.0,Training at home,,,,,,,,,,,,,
6,2,95,B,43.53368286626713,29.45802587727473,2.1766841433133566,0.4627255884265215,B,512.5262999790721,Correct,sub_006_day_02_data.csv,1,300,3.0,Training at home,,,,,,,,,,,,,
6,2,96,A,24.33490563485903,40.838573438694894,1.2167452817429514,0.6414908114904556,A,856.2050999898929,Correct,sub_006_day_02_data.csv,1,300,3.0,Training at home,,,,,,,,,,,,,
6,2,97,B,83.72716973131276,62.12557222052551,4.186358486565638,0.9758662064403254,A,1004.2993999959436,Incorrect,sub_006_day_02_data.csv,0,300,3.0,Training at home,,,,,,,,,,,,,
6,2,98,A,25.55651139205044,36.95395092475618,1.277825569602522,0.5804713037316587,A,566.1155999987386,Correct,sub_006_day_02_data.csv,1,300,3.0,Training at home,,,,,,,,,,,,,
6,2,99,A,48.067871446632296,64.35540763681311,2.403393572331615,1.0108923792529427,A,921.3620999944396,Correct,sub_006_day_02_data.csv,1,300,3.0,Training at home,,,,,,,,,,,,,
6,2,100,A,15.87634301712631,37.60129313771362,0.7938171508563155,0.590639731434587,A,582.8284999879543,Correct,sub_006_day_02_data.csv,1,300,4.0,Training at home,,,,,,,,,,,,,
6,2,101,B,39.4980175970184,16.82385520697759,1.97490087985092,0.2642684996164959,B,735.2684999932535,Correct,sub_006_day_02_data.csv,1,300,4.0,Training at home,,,,,,,,,,,,,
6,2,102,B,83.75408592294372,67.30783022024511,4.187704296147186,1.0572689247449556,B,1114.2544000176713,Correct,sub_006_day_02_data.csv,1,300,4.0,Training at home,,,,,,,,,,,,,
6,2,103,B,74.32845646819048,62.57452970345117,3.716422823409524,0.9829184140909925,B,748.745399992913,Correct,sub_006_day_02_data.csv,1,300,4.0,Training at home,,,,,,,,,,,,,
6,2,104,B,65.4710276370676,54.64217169507173,3.2735513818533803,0.8583172258671474,B,745.6926000013482,Correct,sub_006_day_02_data.csv,1,300,4.0,Training at home,,,,,,,,,,,,,
6,2,105,A,20.962478309715493,46.25880835829806,1.0481239154857749,0.7266316625112363,A,693.6788000166416,Correct,sub_006_day_02_data.csv,1,300,4.0,Training at home,,,,,,,,,,,,,
6,2,106,B,60.748083925077395,37.741219356892664,3.0374041962538696,0.5928376873456744,B,1097.322499990696,Correct,sub_006_day_02_data.csv,1,300,4.0,Training at home,,,,,,,,,,,,,
6,2,107,A,49.66233803682252,58.78775924543736,2.483116901841126,0.9234359628323572,B,720.3927999944426,Incorrect,sub_006_day_02_data.csv,0,300,4.0,Training at home,,,,,,,,,,,,,
6,2,108,A,29.418295701119455,49.7325765286785,1.4709147850559727,0.7811974853329429,A,700.5797000019811,Correct,sub_006_day_02_data.csv,1,300,4.0,Training at home,,,,,,,,,,,,,
6,2,109,B,78.72217876105677,48.11717688093781,3.936108938052838,0.7558228470031743,B,1784.4368999940343,Correct,sub_006_day_02_data.csv,1,300,4.0,Training at home,,,,,,,,,,,,,
6,2,110,B,73.47258797197547,55.09318004966025,3.6736293985987736,0.8654016485345619,B,692.3202000034507,Correct,sub_006_day_02_data.csv,1,300,4.0,Training at home,,,,,,,,,,,,,
6,2,111,A,50.3473860524624,71.00854416095287,2.51736930262312,1.1153996033907796,B,1394.519900000887,Incorrect,sub_006_day_02_data.csv,0,300,4.0,Training at home,,,,,,,,,,,,,
6,2,112,A,36.00201371498689,51.85102523671143,1.8001006857493445,0.814473999823758,A,649.7203999897465,Correct,sub_006_day_02_data.csv,1,300,4.0,Training at home,,,,,,,,,,,,,
6,2,113,B,80.66273983844044,64.15444430847604,4.033136991922022,1.0077356546732192,A,1189.4428000086918,Incorrect,sub_006_day_02_data.csv,0,300,4.0,Training at home,,,,,,,,,,,,,
6,2,114,B,72.67928362558727,49.79336352640049,3.633964181279364,0.7821523252603286,A,735.5733000149485,Incorrect,sub_006_day_02_data.csv,0,300,4.0,Training at home,,,,,,,,,,,,,
6,2,115,B,88.48818833882254,68.48133526580702,4.424409416941127,1.0757022988953948,B,680.0430000002962,Correct,sub_006_day_02_data.csv,1,300,4.0,Training at home,,,,,,,,,,,,,
6,2,116,B,43.96810766941676,28.989172712285516,2.198405383470838,0.4553608601328093,A,897.3220000043511,Incorrect,sub_006_day_02_data.csv,0,300,4.0,Training at home,,,,,,,,,,,,,
6,2,117,A,31.28774098382107,58.34279217172315,1.5643870491910536,0.9164464363830076,A,1466.8340000207536,Correct,sub_006_day_02_data.csv,1,300,4.0,Training at home,,,,,,,,,,,,,
6,2,118,A,19.322225205483985,45.28739835542311,0.9661112602741992,0.7113727898679585,A,640.1856000011321,Correct,sub_006_day_02_data.csv,1,300,4.0,Training at home,,,,,,,,,,,,,
6,2,119,A,45.29277423549466,66.51325650189285,2.264638711774733,1.0447877899634008,A,1444.637699984014,Correct,sub_006_day_02_data.csv,1,300,4.0,Training at home,,,,,,,,,,,,,
6,2,120,A,21.78903891743725,39.17960256125877,1.089451945871862,0.6154317578850919,A,666.1051999835763,Correct,sub_006_day_02_data.csv,1,300,4.0,Training at home,,,,,,,,,,,,,
6,2,121,A,23.738042852648633,37.802160975936495,1.1869021426324315,0.5937949560591044,A,710.5549999978393,Correct,sub_006_day_02_data.csv,1,300,4.0,Training at home,,,,,,,,,,,,,
6,2,122,B,60.23827113090591,51.252933967559656,3.0119135565452955,0.8050792041370408,A,927.1048000082374,Incorrect,sub_006_day_02_data.csv,0,300,4.0,Training at home,,,,,,,,,,,,,
6,2,123,A,24.889699556054005,38.55625015090259,1.2444849778027005,0.6056401611202296,A,619.5177000190597,Correct,sub_006_day_02_data.csv,1,300,4.0,Training at home,,,,,,,,,,,,,
6,2,124,B,83.00171426121058,57.88760810880957,4.150085713060529,0.9092964218426054,B,1072.6753000053577,Correct,sub_006_day_02_data.csv,1,300,4.0,Training at home,,,,,,,,,,,,,
6,2,125,B,51.88722745292765,25.72019446430021,2.594361372646382,0.404011869889732,B,1461.077700019814,Correct,sub_006_day_02_data.csv,1,300,5.0,Training at home,,,,,,,,,,,,,
6,2,126,B,89.60878371623554,67.10370897689693,4.480439185811776,1.0540625957522345,A,2381.3939999963623,Incorrect,sub_006_day_02_data.csv,0,300,5.0,Training at home,,,,,,,,,,,,,
6,2,127,A,42.50401652545811,50.57259401992111,2.1252008262729056,0.7943924492298162,A,2346.805199980736,Correct,sub_006_day_02_data.csv,1,300,5.0,Training at home,,,,,,,,,,,,,
6,2,128,B,53.70211137923215,31.583413724602437,2.6851055689616077,0.4961111026624902,B,1021.8381000158844,Correct,sub_006_day_02_data.csv,1,300,5.0,Training at home,,,,,,,,,,,,,
6,2,129,A,63.524241649667104,77.85700303334234,3.176212082483355,1.2229749438003326,A,802.1235000051092,Correct,sub_006_day_02_data.csv,1,300,5.0,Training at home,,,,,,,,,,,,,
6,2,130,B,63.261130309187706,48.13486828302841,3.1630565154593855,0.756100742897372,B,525.2378000004683,Correct,sub_006_day_02_data.csv,1,300,5.0,Training at home,,,,,,,,,,,,,
6,2,131,B,50.158741366601944,38.78883631442385,2.507937068330097,0.6092936160334547,A,756.1805000004824,Incorrect,sub_006_day_02_data.csv,0,300,5.0,Training at home,,,,,,,,,,,,,
6,2,132,B,72.23137173448163,54.73111362104291,3.6115685867240814,0.8597143223732832,A,1492.1891999838408,Incorrect,sub_006_day_02_data.csv,0,300,5.0,Training at home,,,,,,,,,,,,,
6,2,133,A,55.851900977591505,78.06345353846518,2.792595048879575,1.2262178607514518,A,522.2511000174563,Correct,sub_006_day_02_data.csv,1,300,5.0,Training at home,,,,,,,,,,,,,
6,2,134,B,77.80157674591787,65.28044851187704,3.890078837295894,1.025422887339798,B,611.9898000033572,Correct,sub_006_day_02_data.csv,1,300,5.0,Training at home,,,,,,,,,,,,,
6,2,135,A,42.191624605103,50.51856762436677,2.1095812302551504,0.793543804592949,A,818.0865999893285,Correct,sub_006_day_02_data.csv,1,300,5.0,Training at home,,,,,,,,,,,,,
6,2,136,A,17.77054796253323,39.87081339540421,0.8885273981266615,0.626289272278257,A,633.3390999934636,Correct,sub_006_day_02_data.csv,1,300,5.0,Training at home,,,,,,,,,,,,,
6,2,137,A,33.68544561554591,46.50574643662106,1.6842722807772956,0.7305105567749921,A,761.3415999803692,Correct,sub_006_day_02_data.csv,1,300,5.0,Training at home,,,,,,,,,,,,,
6,2,138,B,52.01417138810843,30.068370784845087,2.6007085694054215,0.4723128638154164,B,976.59800000838,Correct,sub_006_day_02_data.csv,1,300,5.0,Training at home,,,,,,,,,,,,,
6,2,139,B,85.44759534580935,57.99285786025331,4.2723797672904675,0.9109496810722444,B,543.3142999827396,Correct,sub_006_day_02_data.csv,1,300,5.0,Training at home,,,,,,,,,,,,,
6,2,140,A,44.59198750365073,53.89162010855391,2.2295993751825365,0.8465275891154246,A,826.5456999943126,Correct,sub_006_day_02_data.csv,1,300,5.0,Training at home,,,,,,,,,,,,,
6,2,141,B,56.50142063636326,40.80844810840463,2.8250710318181627,0.6410176039088215,B,1028.9234000083525,Correct,sub_006_day_02_data.csv,1,300,5.0,Training at home,,,,,,,,,,,,,
6,2,142,A,43.26622750801488,57.95091986258911,2.163311375400744,0.9102909205454036,B,791.8314000125974,Incorrect,sub_006_day_02_data.csv,0,300,5.0,Training at home,,,,,,,,,,,,,
6,2,143,B,68.04892960418006,40.011556164932266,3.402446480209002,0.628500054532233,B,872.4220000149217,Correct,sub_006_day_02_data.csv,1,300,5.0,Training at home,,,,,,,,,,,,,
6,2,144,B,53.26367259725555,44.99471381427728,2.6631836298627776,0.7067753118465434,B,788.4257000114303,Correct,sub_006_day_02_data.csv,1,300,5.0,Training at home,,,,,,,,,,,,,
6,2,145,A,19.461659101127708,36.37230951640664,0.9730829550563854,0.571334901854186,A,641.2386999872979,Correct,sub_006_day_02_data.csv,1,300,5.0,Training at home,,,,,,,,,,,,,
6,2,146,B,65.35318089682768,45.83629562343806,3.267659044841384,0.719994847991815,B,1072.5813999888487,Correct,sub_006_day_02_data.csv,1,300,5.0,Training at home,,,,,,,,,,,,,
6,2,147,A,59.08316174216798,70.24656976945917,2.954158087108399,1.1034305376380789,A,618.1390999990981,Correct,sub_006_day_02_data.csv,1,300,5.0,Training at home,,,,,,,,,,,,,
6,2,148,A,39.621701704216605,52.011505103334045,1.9810850852108304,0.8169948116739113,A,774.4134000095073,Correct,sub_006_day_02_data.csv,1,300,5.0,Training at home,,,,,,,,,,,,,
6,2,149,A,55.088569292161,67.56954828491004,2.7544284646080497,1.061379982491271,A,1306.8114000197966,Correct,sub_006_day_02_data.csv,1,300,5.0,Training at home,,,,,,,,,,,,,
6,2,150,A,41.55523041235626,62.181242820774536,2.077761520617813,0.9767406781841418,A,610.7310999941546,Correct,sub_006_day_02_data.csv,1,300,6.0,Training at home,,,,,,,,,,,,,
6,2,151,A,47.438417032018194,62.14051031388875,2.37192085160091,0.9761008534621682,A,712.5185999902897,Correct,sub_006_day_02_data.csv,1,300,6.0,Training at home,,,,,,,,,,,,,
6,2,152,A,42.132360873492,59.01165884928971,2.1066180436745996,0.9269529695853784,A,755.5825000163168,Correct,sub_006_day_02_data.csv,1,300,6.0,Training at home,,,,,,,,,,,,,
6,2,153,B,87.00976278860944,60.807406528156626,4.350488139430472,0.9551605081635244,B,1162.7128000254745,Correct,sub_006_day_02_data.csv,1,300,6.0,Training at home,,,,,,,,,,,,,
6,2,154,B,70.004823398416,46.117362339661554,3.5002411699207996,0.7244098336460967,B,744.4823999830987,Correct,sub_006_day_02_data.csv,1,300,6.0,Training at home,,,,,,,,,,,,,
6,2,155,A,67.95847110861303,84.08094528143474,3.3979235554306513,1.3207404000152037,A,707.4127999949269,Correct,sub_006_day_02_data.csv,1,300,6.0,Training at home,,,,,,,,,,,,,
6,2,156,A,55.68167172620061,66.78971749758284,2.7840835863100306,1.0491304291287196,B,822.2951000207104,Incorrect,sub_006_day_02_data.csv,0,300,6.0,Training at home,,,,,,,,,,,,,
6,2,157,B,65.0866478633046,46.952517595735046,3.2543323931652304,0.7375284217315337,B,568.9341999823228,Correct,sub_006_day_02_data.csv,1,300,6.0,Training at home,,,,,,,,,,,,,
6,2,158,B,38.11315672778297,15.348640050587008,1.9056578363891488,0.241095874127591,B,1118.8862000126392,Correct,sub_006_day_02_data.csv,1,300,6.0,Training at home,,,,,,,,,,,,,
6,2,159,B,66.24727286841136,32.903983150538636,3.312363643420568,0.5168545586978726,B,697.9498000000603,Correct,sub_006_day_02_data.csv,1,300,6.0,Training at home,,,,,,,,,,,,,
6,2,160,A,42.409021329683306,59.092171908652055,2.120451066484166,0.9282176657644322,A,625.4989999870304,Correct,sub_006_day_02_data.csv,1,300,6.0,Training at home,,,,,,,,,,,,,
6,2,161,A,40.74130503193425,62.45779630233167,2.0370652515967125,0.9810847701140648,A,913.423000019975,Correct,sub_006_day_02_data.csv,1,300,6.0,Training at home,,,,,,,,,,,,,
6,2,162,A,46.44181321478576,75.54397387629696,2.322090660739288,1.1866419667637689,A,979.5166999974754,Correct,sub_006_day_02_data.csv,1,300,6.0,Training at home,,,,,,,,,,,,,
6,2,163,B,39.74666269206756,13.36271222555489,1.987333134603378,0.2099009927991888,B,742.761800007429,Correct,sub_006_day_02_data.csv,1,300,6.0,Training at home,,,,,,,,,,,,,
6,2,164,A,38.86879736583606,63.84460826559306,1.943439868291803,1.002868761492527,B,972.0261999755166,Incorrect,sub_006_day_02_data.csv,0,300,6.0,Training at home,,,,,,,,,,,,,
6,2,165,A,40.1968542343692,53.69336139692981,2.00984271171846,0.8434133485556823,A,762.9963000072166,Correct,sub_006_day_02_data.csv,1,300,6.0,Training at home,,,,,,,,,,,,,
6,2,166,A,42.96423809464441,73.37532552690686,2.14821190473222,1.152576918150451,A,1006.8842000036966,Correct,sub_006_day_02_data.csv,1,300,6.0,Training at home,,,,,,,,,,,,,
6,2,167,B,58.23107422194305,27.288838004148648,2.9115537110971523,0.4286520649941767,B,683.7048000015784,Correct,sub_006_day_02_data.csv,1,300,6.0,Training at home,,,,,,,,,,,,,
6,2,168,B,73.90125846925946,49.81357690125201,3.695062923462973,0.7824698362100178,B,1380.2915000123903,Correct,sub_006_day_02_data.csv,1,300,6.0,Training at home,,,,,,,,,,,,,
6,2,169,B,54.97799341969464,26.540399565633344,2.7488996709847324,0.4168956214936572,B,1018.167899979744,Correct,sub_006_day_02_data.csv,1,300,6.0,Training at home,,,,,,,,,,,,,
6,2,170,A,56.924622725668534,68.49843328092491,2.8462311362834267,1.0759708738888216,A,880.7116000098176,Correct,sub_006_day_02_data.csv,1,300,6.0,Training at home,,,,,,,,,,,,,
6,2,171,A,46.39376826599762,72.87872378839722,2.3196884132998807,1.144776316283142,A,774.4139000133146,Correct,sub_006_day_02_data.csv,1,300,6.0,Training at home,,,,,,,,,,,,,
6,2,172,B,85.04993421525374,63.917966282714616,4.252496710762688,1.0040210665308815,A,1437.998500012327,Incorrect,sub_006_day_02_data.csv,0,300,6.0,Training at home,,,,,,,,,,,,,
6,2,173,A,32.30996886035818,49.3715027724539,1.6154984430179091,0.7755257520331464,A,615.6798000156414,Correct,sub_006_day_02_data.csv,1,300,6.0,Training at home,,,,,,,,,,,,,
6,2,174,B,56.59949307928958,33.02465483000871,2.829974653964479,0.5187500650064703,A,873.1848000024911,Incorrect,sub_006_day_02_data.csv,0,300,6.0,Training at home,,,,,,,,,,,,,
6,2,175,A,33.49209093751229,55.34483959259147,1.6746045468756143,0.8693547073909543,A,563.9675999991596,Correct,sub_006_day_02_data.csv,1,300,7.0,Training at home,,,,,,,,,,,,,
6,2,176,B,69.74622783122851,53.66887793309425,3.4873113915614256,0.8430287632050812,B,633.9687000145204,Correct,sub_006_day_02_data.csv,1,300,7.0,Training at home,,,,,,,,,,,,,
6,2,177,B,41.87979692415169,16.041158594526554,2.0939898462075845,0.251973929978167,B,988.28470002627,Correct,sub_006_day_02_data.csv,1,300,7.0,Training at home,,,,,,,,,,,,,
6,2,178,A,38.39817983085883,53.657049567537946,1.9199089915429417,0.842842963673403,A,1278.141799994046,Correct,sub_006_day_02_data.csv,1,300,7.0,Training at home,,,,,,,,,,,,,
6,2,179,A,49.607234036925504,61.61498471926848,2.480361701846275,0.967845916725506,B,711.8449000117835,Incorrect,sub_006_day_02_data.csv,0,300,7.0,Training at home,,,,,,,,,,,,,
6,2,180,B,34.91056593222246,19.66922517219039,1.745528296611123,0.3089634665137838,B,849.3508000101428,Correct,sub_006_day_02_data.csv,1,300,7.0,Training at home,,,,,,,,,,,,,
6,2,181,A,60.14596805213296,86.49011510673027,3.007298402606648,1.358583551137197,A,1148.26250000624,Correct,sub_006_day_02_data.csv,1,300,7.0,Training at home,,,,,,,,,,,,,
6,2,182,A,60.7321353603873,76.23653643893606,3.036606768019366,1.1975207140584605,A,715.8728999784216,Correct,sub_006_day_02_data.csv,1,300,7.0,Training at home,,,,,,,,,,,,,
6,2,183,A,49.25500376360759,58.46943996359302,2.4627501881803795,0.9184358152456664,A,778.5582999931648,Correct,sub_006_day_02_data.csv,1,300,7.0,Training at home,,,,,,,,,,,,,
6,2,184,B,81.05251350807525,62.89844303434597,4.052625675403763,0.9880064327946873,A,1016.5410000190604,Incorrect,sub_006_day_02_data.csv,0,300,7.0,Training at home,,,,,,,,,,,,,
6,2,185,B,83.33771494453511,58.86572778690641,4.166885747226755,0.9246606898178088,B,557.4818000022788,Correct,sub_006_day_02_data.csv,1,300,7.0,Training at home,,,,,,,,,,,,,
6,2,186,B,56.36060560581105,29.68921312346557,2.818030280290553,0.4663570691977056,B,693.2753000000957,Correct,sub_006_day_02_data.csv,1,300,7.0,Training at home,,,,,,,,,,,,,
6,2,187,B,53.76082088343836,37.90834440852121,2.6880410441719182,0.5954628815178097,B,613.5486999992281,Correct,sub_006_day_02_data.csv,1,300,7.0,Training at home,,,,,,,,,,,,,
6,2,188,B,73.71899870531982,63.06195144963681,3.685949935265991,0.990574816976076,B,552.2206000168808,Correct,sub_006_day_02_data.csv,1,300,7.0,Training at home,,,,,,,,,,,,,
6,2,189,B,59.11016119976252,46.10088873575678,2.955508059988126,0.7241510668810697,B,917.8959999990184,Correct,sub_006_day_02_data.csv,1,300,7.0,Training at home,,,,,,,,,,,,,
6,2,190,A,67.293106066779,83.0114424569677,3.36465530333895,1.3039406889335077,B,949.4742999959273,Incorrect,sub_006_day_02_data.csv,0,300,7.0,Training at home,,,,,,,,,,,,,
6,2,191,A,44.725367293020234,57.63978927985196,2.236268364651012,0.9054036927802332,B,892.1067999908701,Incorrect,sub_006_day_02_data.csv,0,300,7.0,Training at home,,,,,,,,,,,,,
6,2,192,B,84.99164004336619,63.98144325519789,4.249582002168309,1.0050181604830095,A,1127.9296999855433,Incorrect,sub_006_day_02_data.csv,0,300,7.0,Training at home,,,,,,,,,,,,,
6,2,193,A,36.01830827904158,57.71301106185809,1.8009154139520789,0.9065538578423992,A,801.2966999958735,Correct,sub_006_day_02_data.csv,1,300,7.0,Training at home,,,,,,,,,,,,,
6,2,194,A,17.503237585220965,47.12371191410348,0.8751618792610484,0.7402175357961465,A,643.4463000041433,Correct,sub_006_day_02_data.csv,1,300,7.0,Training at home,,,,,,,,,,,,,
6,2,195,B,62.71846462302214,53.58486617714816,3.135923231151107,0.8417091096286043,B,769.5644999912474,Correct,sub_006_day_02_data.csv,1,300,7.0,Training at home,,,,,,,,,,,,,
6,2,196,B,89.7919708278557,67.99644329955446,4.489598541392786,1.0680856337005762,B,834.0535000024829,Correct,sub_006_day_02_data.csv,1,300,7.0,Training at home,,,,,,,,,,,,,
6,2,197,B,75.81366288605673,64.47590622599887,3.790683144302837,1.0127851666657124,B,583.0494000110775,Correct,sub_006_day_02_data.csv,1,300,7.0,Training at home,,,,,,,,,,,,,
6,2,198,A,24.91488444455642,41.164219744854186,1.245744222227821,0.6466060517059491,A,741.8982999806758,Correct,sub_006_day_02_data.csv,1,300,7.0,Training at home,,,,,,,,,,,,,
6,2,199,A,38.45000535336428,54.26191942446815,1.922500267668214,0.852344237167952,A,777.9764999868348,Correct,sub_006_day_02_data.csv,1,300,7.0,Training at home,,,,,,,,,,,,,
6,2,200,B,79.83126432051247,48.24931678279913,3.9915632160256234,0.7578984957278424,B,667.3009000078309,Correct,sub_006_day_02_data.csv,1,300,8.0,Training at home,,,,,,,,,,,,,
6,2,201,B,46.570133825011055,18.242421415263653,2.3285066912505528,0.286551285509407,B,899.0932999877259,Correct,sub_006_day_02_data.csv,1,300,8.0,Training at home,,,,,,,,,,,,,
6,2,202,A,36.188920923336894,66.52793225233012,1.809446046166845,1.0450183161121986,A,701.2454000068828,Correct,sub_006_day_02_data.csv,1,300,8.0,Training at home,,,,,,,,,,,,,
6,2,203,A,22.3848602521588,50.27173869510758,1.11924301260794,0.7896666248386784,A,629.3590999848675,Correct,sub_006_day_02_data.csv,1,300,8.0,Training at home,,,,,,,,,,,,,
6,2,204,B,47.804844284802094,26.749168639851447,2.390242214240105,0.4201749584429589,B,1026.138200017158,Correct,sub_006_day_02_data.csv,1,300,8.0,Training at home,,,,,,,,,,,,,
6,2,205,B,57.32616319339826,49.67443957874441,2.866308159669913,0.7802842722588675,B,805.8694999781437,Correct,sub_006_day_02_data.csv,1,300,8.0,Training at home,,,,,,,,,,,,,
6,2,206,A,18.7160616593473,37.12315331176741,0.935803082967365,0.5831291286116804,A,1436.537200002931,Correct,sub_006_day_02_data.csv,1,300,8.0,Training at home,,,,,,,,,,,,,
6,2,207,A,48.80808533743309,64.05583098021347,2.440404266871654,1.0061866401351407,B,1061.076200014213,Incorrect,sub_006_day_02_data.csv,0,300,8.0,Training at home,,,,,,,,,,,,,
6,2,208,A,29.291887662326573,49.88085741119861,1.4645943831163288,0.7835266759889079,A,1026.366300007794,Correct,sub_006_day_02_data.csv,1,300,8.0,Training at home,,,,,,,,,,,,,
6,2,209,A,28.56757236408691,41.06165756750935,1.4283786182043454,0.6449950087915356,A,532.6602999994066,Correct,sub_006_day_02_data.csv,1,300,8.0,Training at home,,,,,,,,,,,,,
6,2,210,A,48.98624550118385,63.99346592390227,2.4493122750591927,1.0052070121214007,A,941.41159998253,Correct,sub_006_day_02_data.csv,1,300,8.0,Training at home,,,,,,,,,,,,,
6,2,211,B,54.60125520500333,45.56067060014404,2.730062760250167,0.7156653402501849,B,955.8411999896634,Correct,sub_006_day_02_data.csv,1,300,8.0,Training at home,,,,,,,,,,,,,
6,2,212,A,20.067755107573294,48.23504825162412,1.0033877553786648,0.7576743661642578,A,661.6360999760218,Correct,sub_006_day_02_data.csv,1,300,8.0,Training at home,,,,,,,,,,,,,
6,2,213,B,55.3873099899307,24.520979931653095,2.7693654994965353,0.3851746520605205,B,616.6568000044208,Correct,sub_006_day_02_data.csv,1,300,8.0,Training at home,,,,,,,,,,,,,
6,2,214,A,51.500512903460226,66.62897028573241,2.5750256451730116,1.046605417829548,A,908.6408999864944,Correct,sub_006_day_02_data.csv,1,300,8.0,Training at home,,,,,,,,,,,,,
6,2,215,B,43.27564105314947,25.95780775248792,2.163782052657474,0.4077442906925611,A,1254.8872999905143,Incorrect,sub_006_day_02_data.csv,0,300,8.0,Training at home,,,,,,,,,,,,,
6,2,216,B,56.70643986515664,24.458577403499113,2.835321993257832,0.3841944354404507,B,721.3706000184175,Correct,sub_006_day_02_data.csv,1,300,8.0,Training at home,,,,,,,,,,,,,
6,2,217,A,28.937039135092785,38.78655032880252,1.4468519567546392,0.6092577078552838,A,587.9266000119969,Correct,sub_006_day_02_data.csv,1,300,8.0,Training at home,,,,,,,,,,,,,
6,2,218,B,48.04552622111024,35.49723371786453,2.402276311055512,0.5575892433540156,B,626.8951999954879,Correct,sub_006_day_02_data.csv,1,300,8.0,Training at home,,,,,,,,,,,,,
6,2,219,A,61.84665118341295,85.38491961972478,3.0923325591706474,1.341223181023412,A,815.4761000187136,Correct,sub_006_day_02_data.csv,1,300,8.0,Training at home,,,,,,,,,,,,,
6,2,220,B,57.87172013490671,28.136785952632472,2.8935860067453354,0.4419716002220933,B,599.1068999865092,Correct,sub_006_day_02_data.csv,1,300,8.0,Training at home,,,,,,,,,,,,,
6,2,221,A,45.06950667571779,53.58770728248061,2.2534753337858895,0.8417537376068067,A,1650.3851999877952,Correct,sub_006_day_02_data.csv,1,300,8.0,Training at home,,,,,,,,,,,,,
6,2,222,A,35.84693223343985,69.04125903905006,1.7923466116719924,1.084497560958348,A,933.6755000113044,Correct,sub_006_day_02_data.csv,1,300,8.0,Training at home,,,,,,,,,,,,,
6,2,223,B,39.11629425739142,25.65318088036654,1.9558147128695709,0.4029592229748483,B,622.9832000099123,Correct,sub_006_day_02_data.csv,1,300,8.0,Training at home,,,,,,,,,,,,,
6,2,224,B,71.63918171752579,58.25453802575241,3.5819590858762895,0.9150601434998552,B,973.417300003348,Correct,sub_006_day_02_data.csv,1,300,8.0,Training at home,,,,,,,,,,,,,
6,2,225,B,50.69577466090025,42.32912887076625,2.5347887330450125,0.6649044014662744,B,733.4205000079237,Correct,sub_006_day_02_data.csv,1,300,9.0,Training at home,,,,,,,,,,,,,
6,2,226,B,72.86232783018193,51.550321373308805,3.643116391509096,0.8097505545828992,B,830.7103000115603,Correct,sub_006_day_02_data.csv,1,300,9.0,Training at home,,,,,,,,,,,,,
6,2,227,B,34.28021954522717,14.388772964866783,1.7140109772613583,0.2260183172029845,A,532.8372000076342,Incorrect,sub_006_day_02_data.csv,0,300,9.0,Training at home,,,,,,,,,,,,,
6,2,228,A,47.448210350216335,58.80752746365168,2.3724105175108168,0.9237464812779408,A,873.5989999840967,Correct,sub_006_day_02_data.csv,1,300,9.0,Training at home,,,,,,,,,,,,,
6,2,229,A,21.37366438309907,43.69818484617792,1.0686832191549531,0.6864094824398067,A,610.4936000192538,Correct,sub_006_day_02_data.csv,1,300,9.0,Training at home,,,,,,,,,,,,,
6,2,230,A,31.113584603613855,43.54195987379538,1.5556792301806928,0.6839555063120857,A,559.3921999970917,Correct,sub_006_day_02_data.csv,1,300,9.0,Training at home,,,,,,,,,,,,,
6,2,231,A,69.33642555367572,85.36556675032915,3.466821277683786,1.340919186861816,B,661.673199996585,Incorrect,sub_006_day_02_data.csv,0,300,9.0,Training at home,,,,,,,,,,,,,
6,2,232,A,58.44268133178838,67.67049212747348,2.922134066589419,1.062965604662383,A,591.8769999989308,Correct,sub_006_day_02_data.csv,1,300,9.0,Training at home,,,,,,,,,,,,,
6,2,233,B,80.00984898856824,58.532560276331466,4.000492449428412,0.9194273067996234,A,1126.9782000163104,Incorrect,sub_006_day_02_data.csv,0,300,9.0,Training at home,,,,,,,,,,,,,
6,2,234,A,39.64405518933838,70.05083048585723,1.9822027594669192,1.1003558721611648,A,604.341199999908,Correct,sub_006_day_02_data.csv,1,300,9.0,Training at home,,,,,,,,,,,,,
6,2,235,B,39.70251158812255,21.591662473920227,1.985125579406127,0.339161041034291,B,811.7954999906942,Correct,sub_006_day_02_data.csv,1,300,9.0,Training at home,,,,,,,,,,,,,
6,2,236,A,64.86951138371873,81.58914061821594,3.2434755691859367,1.281599223894459,A,1397.3919000127353,Correct,sub_006_day_02_data.csv,1,300,9.0,Training at home,,,,,,,,,,,,,
6,2,237,B,73.80515601340969,49.68641674479561,3.690257800670485,0.7804724091432538,B,738.3294999890495,Correct,sub_006_day_02_data.csv,1,300,9.0,Training at home,,,,,,,,,,,,,
6,2,238,A,33.726567234252265,65.165398606099,1.6863283617126132,1.023615687645856,A,589.9906000122428,Correct,sub_006_day_02_data.csv,1,300,9.0,Training at home,,,,,,,,,,,,,
6,2,239,B,62.79823347829211,43.11349767116781,3.1399116739146056,0.6772252377715073,B,833.4961999789812,Correct,sub_006_day_02_data.csv,1,300,9.0,Training at home,,,,,,,,,,,,,
6,2,240,A,42.430067225070026,49.75915669777714,2.121503361253501,0.7816150056528001,A,787.1506999945268,Correct,sub_006_day_02_data.csv,1,300,9.0,Training at home,,,,,,,,,,,,,
6,2,241,A,44.681559977014125,65.34710489610296,2.2340779988507062,1.0264699233747934,B,889.5176000078209,Incorrect,sub_006_day_02_data.csv,0,300,9.0,Training at home,,,,,,,,,,,,,
6,2,242,A,47.22428514830392,67.58825491531225,2.361214257415196,1.061673825554496,B,935.0919999997132,Incorrect,sub_006_day_02_data.csv,0,300,9.0,Training at home,,,,,,,,,,,,,
6,2,243,A,28.036573912891303,44.11101585717603,1.4018286956445651,0.6928942167964354,A,593.5835000127554,Correct,sub_006_day_02_data.csv,1,300,9.0,Training at home,,,,,,,,,,,,,
6,2,244,A,56.35040531473753,76.9229624835527,2.8175202657368765,1.208303069153462,A,1473.0147999944163,Correct,sub_006_day_02_data.csv,1,300,9.0,Training at home,,,,,,,,,,,,,
6,2,245,A,43.20367650925061,53.981148405248504,2.1601838254625307,0.8479338963113455,A,840.2082999818958,Correct,sub_006_day_02_data.csv,1,300,9.0,Training at home,,,,,,,,,,,,,
6,2,246,B,30.016292828268803,13.254603812141063,1.5008146414134402,0.2082028298123281,B,904.79490000871,Correct,sub_006_day_02_data.csv,1,300,9.0,Training at home,,,,,,,,,,,,,
6,2,247,A,60.45024888751021,78.60104956716293,3.0225124443755105,1.2346623994232313,A,962.8284999926108,Correct,sub_006_day_02_data.csv,1,300,9.0,Training at home,,,,,,,,,,,,,
6,2,248,A,14.898022576755114,32.27287840535108,0.7449011288377556,0.5069411885422381,A,584.3512999999803,Correct,sub_006_day_02_data.csv,1,300,9.0,Training at home,,,,,,,,,,,,,
6,2,249,B,63.022373580079645,40.66338438433598,3.1511186790039822,0.6387389482596391,B,832.5146000133827,Correct,sub_006_day_02_data.csv,1,300,9.0,Training at home,,,,,,,,,,,,,
6,2,250,B,44.126531458193526,19.51397269305975,2.2063265729096764,0.3065247662743416,B,1183.4475999930874,Correct,sub_006_day_02_data.csv,1,300,10.0,Training at home,,,,,,,,,,,,,
6,2,251,A,17.816813612543804,35.18925688479842,0.8908406806271901,0.5527515545728338,A,622.1369999984745,Correct,sub_006_day_02_data.csv,1,300,10.0,Training at home,,,,,,,,,,,,,
6,2,252,B,46.846338780952,38.154891141591115,2.3423169390476004,0.5993356285447046,A,1524.8444999742787,Incorrect,sub_006_day_02_data.csv,0,300,10.0,Training at home,,,,,,,,,,,,,
6,2,253,B,74.52431301053787,61.252425790790376,3.7262156505268935,0.962150854394505,B,652.6121000060812,Correct,sub_006_day_02_data.csv,1,300,10.0,Training at home,,,,,,,,,,,,,
6,2,254,A,44.871569933588574,66.77223289204342,2.2435784966794285,1.048855781587152,A,1947.659700002987,Correct,sub_006_day_02_data.csv,1,300,10.0,Training at home,,,,,,,,,,,,,
6,2,255,A,35.64516893641021,66.01351806724647,1.7822584468205105,1.0369379169883928,A,656.7566999874543,Correct,sub_006_day_02_data.csv,1,300,10.0,Training at home,,,,,,,,,,,,,
6,2,256,B,59.74929898496765,28.128101253986344,2.9874649492483827,0.4418351812947667,B,1232.2702999808826,Correct,sub_006_day_02_data.csv,1,300,10.0,Training at home,,,,,,,,,,,,,
6,2,257,A,36.07229525930718,54.60255749323984,1.803614762965359,0.8576949674398829,A,719.5119000098202,Correct,sub_006_day_02_data.csv,1,300,10.0,Training at home,,,,,,,,,,,,,
6,2,258,B,68.01376210199281,49.01444219121065,3.4006881050996407,0.7699170575385449,B,815.3486000082921,Correct,sub_006_day_02_data.csv,1,300,10.0,Training at home,,,,,,,,,,,,,
6,2,259,A,43.44605899807169,60.010484002504555,2.1723029499035844,0.9426424784031806,A,863.6578999867197,Correct,sub_006_day_02_data.csv,1,300,10.0,Training at home,,,,,,,,,,,,,
6,2,260,A,12.546016935541587,39.69461530782062,0.6273008467770793,0.623521559190611,A,597.0747999963351,Correct,sub_006_day_02_data.csv,1,300,10.0,Training at home,,,,,,,,,,,,,
6,2,261,A,44.907322714293706,62.63174242579722,2.2453661357146855,0.9838171094320636,A,704.5937000075355,Correct,sub_006_day_02_data.csv,1,300,10.0,Training at home,,,,,,,,,,,,,
6,2,262,A,56.08418625245,76.09816056105797,2.8042093126225,1.1953471108515812,A,822.4364999914542,Correct,sub_006_day_02_data.csv,1,300,10.0,Training at home,,,,,,,,,,,,,
6,2,263,B,52.63471500710568,35.50343209432487,2.631735750355284,0.5576866072237755,B,630.7167000195477,Correct,sub_006_day_02_data.csv,1,300,10.0,Training at home,,,,,,,,,,,,,
6,2,264,A,51.99516933707921,73.18426394141267,2.5997584668539604,1.149575729783592,A,631.1023999878671,Correct,sub_006_day_02_data.csv,1,300,10.0,Training at home,,,,,,,,,,,,,
6,2,265,B,72.11333179708981,48.096248936749845,3.605666589854491,0.7554941116245961,B,869.9289000069257,Correct,sub_006_day_02_data.csv,1,300,10.0,Training at home,,,,,,,,,,,,,
6,2,266,B,36.83303284030633,26.084800442484006,1.8416516420153164,0.4097390872023177,B,1161.869299976388,Correct,sub_006_day_02_data.csv,1,300,10.0,Training at home,,,,,,,,,,,,,
6,2,267,B,35.80519774107459,22.667380586862276,1.7902598870537298,0.356058381639052,B,957.3180000006688,Correct,sub_006_day_02_data.csv,1,300,10.0,Training at home,,,,,,,,,,,,,
6,2,268,B,55.852142132589904,26.08526042067664,2.7926071066294953,0.4097463125228717,B,644.6729000017513,Correct,sub_006_day_02_data.csv,1,300,10.0,Training at home,,,,,,,,,,,,,
6,2,269,A,48.962661406327165,56.537639350484106,2.448133070316358,0.8880911621739503,A,843.221299990546,Correct,sub_006_day_02_data.csv,1,300,10.0,Training at home,,,,,,,,,,,,,
6,2,270,B,67.68990874981938,38.39410346838672,3.384495437490969,0.6030931669872505,B,531.3866999931633,Correct,sub_006_day_02_data.csv,1,300,10.0,Training at home,,,,,,,,,,,,,
6,2,271,B,35.69571627103518,18.32053246175996,1.784785813551759,0.2877782509585921,B,977.5344000081532,Correct,sub_006_day_02_data.csv,1,300,10.0,Training at home,,,,,,,,,,,,,
6,2,272,B,52.547910391120624,21.044633996144793,2.6273955195560315,0.3305683377988724,B,688.1199000054039,Correct,sub_006_day_02_data.csv,1,300,10.0,Training at home,,,,,,,,,,,,,
6,2,273,B,85.94259325351476,62.33171574553763,4.297129662675738,0.9791043013591414,B,924.1880000045056,Correct,sub_006_day_02_data.csv,1,300,10.0,Training at home,,,,,,,,,,,,,
6,2,274,B,62.87883098278333,52.38168887212382,3.143941549139166,0.8228096447164519,B,652.1849999844562,Correct,sub_006_day_02_data.csv,1,300,10.0,Training at home,,,,,,,,,,,,,
6,2,275,B,69.82386448764645,37.14872043833049,3.4911932243823225,0.5835307360966004,B,561.4347999799065,Correct,sub_006_day_02_data.csv,1,300,11.0,Training at home,,,,,,,,,,,,,
6,2,276,A,26.95707990572662,47.43653349615798,1.3478539952863309,0.7451313257164803,A,620.1614000019617,Correct,sub_006_day_02_data.csv,1,300,11.0,Training at home,,,,,,,,,,,,,
6,2,277,B,32.816831572699144,20.87659527515807,1.640841578634957,0.3279287917420199,A,572.2213999833912,Incorrect,sub_006_day_02_data.csv,0,300,11.0,Training at home,,,,,,,,,,,,,
6,2,278,A,54.99356200729286,79.88383904301854,2.749678100364643,1.2548124093904829,A,893.9903999853414,Correct,sub_006_day_02_data.csv,1,300,11.0,Training at home,,,,,,,,,,,,,
6,2,279,A,28.5600107836216,46.341257680111475,1.4280005391810802,0.727926773429749,A,629.8117999976967,Correct,sub_006_day_02_data.csv,1,300,11.0,Training at home,,,,,,,,,,,,,
6,2,280,A,54.15330795272772,80.64221713116976,2.707665397636386,1.2667249845423794,A,1102.2587000043131,Correct,sub_006_day_02_data.csv,1,300,11.0,Training at home,,,,,,,,,,,,,
6,2,281,B,54.819181997454294,30.209139193274712,2.7409590998727147,0.4745240488043166,B,613.9834000205155,Correct,sub_006_day_02_data.csv,1,300,11.0,Training at home,,,,,,,,,,,,,
6,2,282,A,56.280783564468294,81.25872242503753,2.8140391782234144,1.2764090270529502,A,578.8656999939121,Correct,sub_006_day_02_data.csv,1,300,11.0,Training at home,,,,,,,,,,,,,
6,2,283,B,56.96435165047712,33.20175665111883,2.8482175825238563,0.5215319739071548,B,538.4202999994159,Correct,sub_006_day_02_data.csv,1,300,11.0,Training at home,,,,,,,,,,,,,
6,2,284,B,69.43135039568945,51.59388774564391,3.471567519784472,0.8104348935592569,B,711.536699993303,Correct,sub_006_day_02_data.csv,1,300,11.0,Training at home,,,,,,,,,,,,,
6,2,285,B,39.23547165032085,16.575383112554306,1.9617735825160425,0.2603655090841846,B,981.5145000175108,Correct,sub_006_day_02_data.csv,1,300,11.0,Training at home,,,,,,,,,,,,,
6,2,286,B,70.45077251822771,56.35195798225929,3.522538625911386,0.8851744860623324,B,712.7939999918453,Correct,sub_006_day_02_data.csv,1,300,11.0,Training at home,,,,,,,,,,,,,
6,2,287,B,44.12549928297667,23.855453142488372,2.2062749641488337,0.374720581702485,A,952.5600000051782,Incorrect,sub_006_day_02_data.csv,0,300,11.0,Training at home,,,,,,,,,,,,,
6,2,288,B,51.88997577440129,42.92067373634705,2.594498788720065,0.6741963664861614,B,704.5794999867212,Correct,sub_006_day_02_data.csv,1,300,11.0,Training at home,,,,,,,,,,,,,
6,2,289,B,60.10447758866354,38.587046861269314,3.005223879433177,0.6061239147154439,B,653.1048000033479,Correct,sub_006_day_02_data.csv,1,300,11.0,Training at home,,,,,,,,,,,,,
6,2,290,B,66.69311893372344,53.75620825070527,3.334655946686172,0.8444005446262933,B,701.2685999798123,Correct,sub_006_day_02_data.csv,1,300,11.0,Training at home,,,,,,,,,,,,,
6,2,291,A,22.9943486636141,47.57958747835225,1.1497174331807052,0.7473784124141215,A,595.0761999993119,Correct,sub_006_day_02_data.csv,1,300,11.0,Training at home,,,,,,,,,,,,,
6,2,292,A,21.661289583208056,47.619570428919594,1.083064479160403,0.7480064631329777,A,551.4592000108678,Correct,sub_006_day_02_data.csv,1,300,11.0,Training at home,,,,,,,,,,,,,
6,2,293,B,83.26684064658744,60.19802678127162,4.163342032329371,0.9455883934832228,B,632.7571000147145,Correct,sub_006_day_02_data.csv,1,300,11.0,Training at home,,,,,,,,,,,,,
6,2,294,B,69.14596997569134,53.9968788000355,3.457298498784567,0.84818098877485,B,1352.094699977897,Correct,sub_006_day_02_data.csv,1,300,11.0,Training at home,,,,,,,,,,,,,
6,2,295,B,54.83529567163859,25.426677469168823,2.74176478358193,0.3994013157116895,B,1233.3225999900606,Correct,sub_006_day_02_data.csv,1,300,11.0,Training at home,,,,,,,,,,,,,
6,2,296,A,17.091846072634727,33.63172178781748,0.8545923036317363,0.5282858504809159,A,545.8096000074875,Correct,sub_006_day_02_data.csv,1,300,11.0,Training at home,,,,,,,,,,,,,
6,2,297,A,18.446946349541584,38.83185006333298,0.9223473174770792,0.6099692744213362,A,481.3140999758616,Correct,sub_006_day_02_data.csv,1,300,11.0,Training at home,,,,,,,,,,,,,
6,2,298,B,53.06233324497711,34.966265129130605,2.653116662248856,0.5492488082657483,B,664.0125999983866,Correct,sub_006_day_02_data.csv,1,300,11.0,Training at home,,,,,,,,,,,,,
6,2,299,A,26.780434851251343,37.8375415938461,1.3390217425625672,0.5943507135056257,A,685.1768000051379,Correct,sub_006_day_02_data.csv,1,300,11.0,Training at home,,,,,,,,,,,,,
