subject,day,trial,cat,x,y,xt,yt,resp,rt,fb,f_name,acc,n_trials,block,session_type,ns_left_digit,ns_right_digit,ns_left_size,ns_right_size,ns_congruent,ns_cue,ns_correct_side,ns_resp,ns_rt,ns_fb,acc_stroop,acc_stroop_mean,resp_key
6,14,3000,B,69.8710747212795,40.18328692757505,3.493553736063975,0.6311975950438027,B,499.0139999999883,Correct,sub_006_day_14_data.csv,1,300,120.0,Training at home,,,,,,,,,,,,,
6,14,3001,B,63.52239477860155,51.67428389189575,3.1761197389300775,0.8116977532714653,B,649.072799999999,Correct,sub_006_day_14_data.csv,1,300,120.0,Training at home,,,,,,,,,,,,,
6,14,3002,B,52.80902648757105,39.72385937630135,2.640451324378553,0.6239809239441116,B,685.1497999999765,Correct,sub_006_day_14_data.csv,1,300,120.0,Training at home,,,,,,,,,,,,,
6,14,3003,A,64.60577144852714,78.68535273119888,3.230288572426357,1.2359866304272795,A,595.6556000000433,Correct,sub_006_day_14_data.csv,1,300,120.0,Training at home,,,,,,,,,,,,,
6,14,3004,B,86.33843585510516,63.345878756297765,4.316921792755258,0.995034736679874,B,763.1648000000268,Correct,sub_006_day_14_data.csv,1,300,120.0,Training at home,,,,,,,,,,,,,
6,14,3005,B,47.322220383687394,34.12849028423512,2.3661110191843697,0.5360890717753184,A,749.95279999996,Incorrect,sub_006_day_14_data.csv,0,300,120.0,Training at home,,,,,,,,,,,,,
6,14,3006,B,33.12117899520959,18.186691601864105,1.6560589497604794,0.2856758836475973,A,662.7669999999739,Incorrect,sub_006_day_14_data.csv,0,300,120.0,Training at home,,,,,,,,,,,,,
6,14,3007,A,39.936987010182285,66.50959625621819,1.9968493505091145,1.044730294958791,A,856.7446000000132,Correct,sub_006_day_14_data.csv,1,300,120.0,Training at home,,,,,,,,,,,,,
6,14,3008,B,54.69558777829151,46.04215831566931,2.7347793889145753,0.7232285315996246,B,1105.9119999999891,Correct,sub_006_day_14_data.csv,1,300,120.0,Training at home,,,,,,,,,,,,,
6,14,3009,A,37.47929744071452,49.30422384315876,1.8739648720357256,0.7744689370830714,B,950.6336000000032,Incorrect,sub_006_day_14_data.csv,0,300,120.0,Training at home,,,,,,,,,,,,,
6,14,3010,A,51.9738332978431,66.64301257532387,2.598691664892155,1.0468259935986484,A,808.5643000000005,Correct,sub_006_day_14_data.csv,1,300,120.0,Training at home,,,,,,,,,,,,,
6,14,3011,A,40.41967000621368,50.043422920722065,2.0209835003106837,0.7860802490411376,A,610.2641999999605,Correct,sub_006_day_14_data.csv,1,300,120.0,Training at home,,,,,,,,,,,,,
6,14,3012,A,31.201498050082623,39.90636254437867,1.5600749025041312,0.6268476770045546,A,669.571899999994,Correct,sub_006_day_14_data.csv,1,300,120.0,Training at home,,,,,,,,,,,,,
6,14,3013,B,42.69088738612069,31.00706732551532,2.134544369306034,0.4870578745960153,A,1235.8874999999898,Incorrect,sub_006_day_14_data.csv,0,300,120.0,Training at home,,,,,,,,,,,,,
6,14,3014,B,44.91951512461944,26.790032597697554,2.2459757562309717,0.4208168479917886,B,683.3405000000425,Correct,sub_006_day_14_data.csv,1,300,120.0,Training at home,,,,,,,,,,,,,
6,14,3015,B,45.777942143458624,28.35339319247337,2.2888971071729314,0.4453740587890858,B,633.1744999999955,Correct,sub_006_day_14_data.csv,1,300,120.0,Training at home,,,,,,,,,,,,,
6,14,3016,A,38.61104183845615,52.674386868617965,1.9305520919228076,0.8274073340939844,A,780.3425000000175,Correct,sub_006_day_14_data.csv,1,300,120.0,Training at home,,,,,,,,,,,,,
6,14,3017,A,13.045901720796756,40.79168756652643,0.6522950860398379,0.6407543299326477,A,718.7415000000215,Correct,sub_006_day_14_data.csv,1,300,120.0,Training at home,,,,,,,,,,,,,
6,14,3018,B,48.10927007348145,21.654579269222737,2.4054635036740724,0.3401493357438399,B,792.2621000000163,Correct,sub_006_day_14_data.csv,1,300,120.0,Training at home,,,,,,,,,,,,,
6,14,3019,A,40.68159372579151,59.82407767887432,2.0340796862895756,0.9397144147186834,A,724.5994999999539,Correct,sub_006_day_14_data.csv,1,300,120.0,Training at home,,,,,,,,,,,,,
6,14,3020,B,66.95992656690154,33.68172630204412,3.3479963283450775,0.5290713195536196,B,875.2167999999756,Correct,sub_006_day_14_data.csv,1,300,120.0,Training at home,,,,,,,,,,,,,
6,14,3021,A,10.52586586332395,31.33785231401557,0.5262932931661976,0.4922538330449661,A,480.4791999999906,Correct,sub_006_day_14_data.csv,1,300,120.0,Training at home,,,,,,,,,,,,,
6,14,3022,B,56.05141083602575,36.91189575763027,2.8025705418012876,0.5798107027112177,B,735.9710000000064,Correct,sub_006_day_14_data.csv,1,300,120.0,Training at home,,,,,,,,,,,,,
6,14,3023,A,30.325300493579668,53.9249384563364,1.5162650246789835,0.8470509524985407,A,605.9046999999964,Correct,sub_006_day_14_data.csv,1,300,120.0,Training at home,,,,,,,,,,,,,
6,14,3024,A,22.635901798382474,46.05611071875722,1.1317950899191238,0.7234476954348291,A,503.215100000034,Correct,sub_006_day_14_data.csv,1,300,120.0,Training at home,,,,,,,,,,,,,
6,14,3025,B,33.692022670825246,13.83241702540802,1.6846011335412625,0.217279098542061,B,797.7868000000399,Correct,sub_006_day_14_data.csv,1,300,121.0,Training at home,,,,,,,,,,,,,
6,14,3026,B,47.27932474329206,21.772844284931004,2.363966237164602,0.3420070382664687,B,536.1232999999856,Correct,sub_006_day_14_data.csv,1,300,121.0,Training at home,,,,,,,,,,,,,
6,14,3027,B,73.41606667852588,63.619850280241984,3.6708033339262944,0.999338271314454,B,1460.4051999999683,Correct,sub_006_day_14_data.csv,1,300,121.0,Training at home,,,,,,,,,,,,,
6,14,3028,B,74.73922037255241,42.962181917722575,3.73696101862762,0.6748483754745275,B,916.2478000000078,Correct,sub_006_day_14_data.csv,1,300,121.0,Training at home,,,,,,,,,,,,,
6,14,3029,B,39.20930339418744,23.331444606194975,1.960465169709372,0.3664894748622967,B,579.5593999999937,Correct,sub_006_day_14_data.csv,1,300,121.0,Training at home,,,,,,,,,,,,,
6,14,3030,B,50.376767033209106,27.165074409114748,2.518838351660455,0.4267079909894749,B,478.41809999999896,Correct,sub_006_day_14_data.csv,1,300,121.0,Training at home,,,,,,,,,,,,,
6,14,3031,A,65.13672135299049,82.34453213248067,3.2568360676495245,1.2934648860534497,A,781.1752999999726,Correct,sub_006_day_14_data.csv,1,300,121.0,Training at home,,,,,,,,,,,,,
6,14,3032,A,48.05240192217703,61.80086437276084,2.4026200961088517,0.9707657074948232,B,1421.435200000019,Incorrect,sub_006_day_14_data.csv,0,300,121.0,Training at home,,,,,,,,,,,,,
6,14,3033,B,31.42194429487033,13.739725945769464,1.5710972147435165,0.2158231104678321,B,598.69359999999,Correct,sub_006_day_14_data.csv,1,300,121.0,Training at home,,,,,,,,,,,,,
6,14,3034,A,25.14315450731607,51.50215477113848,1.2571577253658035,0.8089939553652659,A,681.248700000026,Correct,sub_006_day_14_data.csv,1,300,121.0,Training at home,,,,,,,,,,,,,
6,14,3035,B,53.21676666201946,44.025653609191934,2.660838333100973,0.6915533497406318,B,498.556600000029,Correct,sub_006_day_14_data.csv,1,300,121.0,Training at home,,,,,,,,,,,,,
6,14,3036,A,48.59011626019161,67.25719169141927,2.4295058130095804,1.056473496594216,A,899.6046999999976,Correct,sub_006_day_14_data.csv,1,300,121.0,Training at home,,,,,,,,,,,,,
6,14,3037,A,31.595607080628163,56.627161222166954,1.5797803540314082,0.8894973684460226,A,598.0968000000075,Correct,sub_006_day_14_data.csv,1,300,121.0,Training at home,,,,,,,,,,,,,
6,14,3038,B,39.43815536328836,25.59153962572735,1.971907768164418,0.4019909644111856,B,537.9308000000265,Correct,sub_006_day_14_data.csv,1,300,121.0,Training at home,,,,,,,,,,,,,
6,14,3039,B,78.25205944772196,47.51514335161129,3.9126029723860984,0.7463661264384397,B,934.5294000000308,Correct,sub_006_day_14_data.csv,1,300,121.0,Training at home,,,,,,,,,,,,,
6,14,3040,B,48.656332960821125,22.7593757247714,2.432816648041056,0.3575034378861584,B,821.9656999999643,Correct,sub_006_day_14_data.csv,1,300,121.0,Training at home,,,,,,,,,,,,,
6,14,3041,A,14.974220570818126,36.07235581366023,0.7487110285409062,0.5666232401093602,A,709.6331999999848,Correct,sub_006_day_14_data.csv,1,300,121.0,Training at home,,,,,,,,,,,,,
6,14,3042,A,17.475514482665346,46.94237711410344,0.8737757241332673,0.737369135418545,A,643.5354999999845,Correct,sub_006_day_14_data.csv,1,300,121.0,Training at home,,,,,,,,,,,,,
6,14,3043,B,56.53986304867644,42.726408202152776,2.8269931524338223,0.6711448506108091,B,566.9597999999496,Correct,sub_006_day_14_data.csv,1,300,121.0,Training at home,,,,,,,,,,,,,
6,14,3044,B,68.60161088991259,39.00113397966047,3.4300805444956297,0.612628379960863,B,670.5486000000747,Correct,sub_006_day_14_data.csv,1,300,121.0,Training at home,,,,,,,,,,,,,
6,14,3045,A,45.21037783248705,63.79656477810217,2.2605188916243524,1.0021140961557555,A,517.9607000000033,Correct,sub_006_day_14_data.csv,1,300,121.0,Training at home,,,,,,,,,,,,,
6,14,3046,A,12.615674382900076,34.68798068475661,0.6307837191450038,0.54487752643548,A,588.2727000000614,Correct,sub_006_day_14_data.csv,1,300,121.0,Training at home,,,,,,,,,,,,,
6,14,3047,A,16.104970487236997,45.13280572280576,0.8052485243618499,0.7089444544733097,A,604.5553000000154,Correct,sub_006_day_14_data.csv,1,300,121.0,Training at home,,,,,,,,,,,,,
6,14,3048,B,52.6513241092441,21.77535179857253,2.632566205462205,0.3420464261986437,B,545.4732000000604,Correct,sub_006_day_14_data.csv,1,300,121.0,Training at home,,,,,,,,,,,,,
6,14,3049,A,30.42220266696839,52.63486901283516,1.5211101333484194,0.8267865890669199,A,610.2387999999337,Correct,sub_006_day_14_data.csv,1,300,121.0,Training at home,,,,,,,,,,,,,
6,14,3050,A,25.58707956905924,46.83051906580998,1.2793539784529622,0.7356120733047269,A,522.2797999999784,Correct,sub_006_day_14_data.csv,1,300,122.0,Training at home,,,,,,,,,,,,,
6,14,3051,A,59.14612358911741,79.93780250377485,2.95730617945587,1.2556600654498542,A,659.599500000013,Correct,sub_006_day_14_data.csv,1,300,122.0,Training at home,,,,,,,,,,,,,
6,14,3052,B,37.6240614576263,11.385344069622544,1.8812030728813147,0.1788405664385915,B,559.2332999999599,Correct,sub_006_day_14_data.csv,1,300,122.0,Training at home,,,,,,,,,,,,,
6,14,3053,B,37.18790825212079,16.329612703948317,1.8593954126060397,0.2565049565334529,B,542.2896999999693,Correct,sub_006_day_14_data.csv,1,300,122.0,Training at home,,,,,,,,,,,,,
6,14,3054,B,46.649562738234295,18.41635857262081,2.332478136911715,0.2892834839881047,B,736.0671000000139,Correct,sub_006_day_14_data.csv,1,300,122.0,Training at home,,,,,,,,,,,,,
6,14,3055,B,59.75071680650272,39.34831531747238,2.9875358403251355,0.6180818916625298,B,725.9426000000531,Correct,sub_006_day_14_data.csv,1,300,122.0,Training at home,,,,,,,,,,,,,
6,14,3056,A,30.360180860333394,59.765667422646715,1.5180090430166695,0.9387969085593888,A,738.3369000000357,Correct,sub_006_day_14_data.csv,1,300,122.0,Training at home,,,,,,,,,,,,,
6,14,3057,A,45.209086246703784,74.51764237408729,2.260454312335189,1.1705203892263203,A,1290.5602999999246,Correct,sub_006_day_14_data.csv,1,300,122.0,Training at home,,,,,,,,,,,,,
6,14,3058,A,45.42830733225646,69.67112243401327,2.271415366612823,1.0943914320302557,A,927.5129999999764,Correct,sub_006_day_14_data.csv,1,300,122.0,Training at home,,,,,,,,,,,,,
6,14,3059,A,25.24346672020004,55.7175578649484,1.262173336010002,0.8752093523224305,A,673.7751999999091,Correct,sub_006_day_14_data.csv,1,300,122.0,Training at home,,,,,,,,,,,,,
6,14,3060,A,34.811565179862974,60.60795231668331,1.7405782589931489,0.952027488736064,A,641.0723999999846,Correct,sub_006_day_14_data.csv,1,300,122.0,Training at home,,,,,,,,,,,,,
6,14,3061,A,64.37190811027914,78.41944657060426,3.218595405513957,1.2318097862239383,A,695.6998000000567,Correct,sub_006_day_14_data.csv,1,300,122.0,Training at home,,,,,,,,,,,,,
6,14,3062,A,43.26091061943196,74.99743349107347,2.163045530971598,1.1780569304682276,A,679.1701000000785,Correct,sub_006_day_14_data.csv,1,300,122.0,Training at home,,,,,,,,,,,,,
6,14,3063,B,51.357518508842205,40.376790202898455,2.56787592544211,0.6342371373848105,B,889.2779999999902,Correct,sub_006_day_14_data.csv,1,300,122.0,Training at home,,,,,,,,,,,,,
6,14,3064,B,58.08283543116511,27.7690677919028,2.9041417715582556,0.4361954968603938,B,1055.1163000000088,Correct,sub_006_day_14_data.csv,1,300,122.0,Training at home,,,,,,,,,,,,,
6,14,3065,B,34.094922640694634,17.440959817202096,1.7047461320347317,0.2739619561663844,B,486.5519999999606,Correct,sub_006_day_14_data.csv,1,300,122.0,Training at home,,,,,,,,,,,,,
6,14,3066,B,59.99525357820254,51.4016611108432,2.999762678910127,0.8074154046406857,A,819.1445999999587,Incorrect,sub_006_day_14_data.csv,0,300,122.0,Training at home,,,,,,,,,,,,,
6,14,3067,A,69.6229226721044,88.39540762238944,3.4811461336052196,1.3885118159878695,A,1188.6330999999473,Correct,sub_006_day_14_data.csv,1,300,122.0,Training at home,,,,,,,,,,,,,
6,14,3068,A,53.939081554948466,62.10520062276695,2.696954077747423,0.9755462101310244,B,616.5509999999585,Incorrect,sub_006_day_14_data.csv,0,300,122.0,Training at home,,,,,,,,,,,,,
6,14,3069,A,23.80022026711387,47.189759535223715,1.1900110133556934,0.7412550094026384,A,703.4588999999869,Correct,sub_006_day_14_data.csv,1,300,122.0,Training at home,,,,,,,,,,,,,
6,14,3070,A,21.140323458976827,37.704931182719534,1.0570161729488412,0.592267674038702,A,775.9876000000077,Correct,sub_006_day_14_data.csv,1,300,122.0,Training at home,,,,,,,,,,,,,
6,14,3071,A,38.69944233385605,51.03863574377501,1.9349721166928024,0.801713015509445,A,1441.798899999981,Correct,sub_006_day_14_data.csv,1,300,122.0,Training at home,,,,,,,,,,,,,
6,14,3072,B,72.0472358742623,54.083476750204625,3.602361793713115,0.849541266195186,B,907.5583999999708,Correct,sub_006_day_14_data.csv,1,300,122.0,Training at home,,,,,,,,,,,,,
6,14,3073,B,35.52919909988194,14.868395620734788,1.7764599549940971,0.2335522122638352,B,1004.60570000007,Correct,sub_006_day_14_data.csv,1,300,122.0,Training at home,,,,,,,,,,,,,
6,14,3074,B,36.2538437250638,12.48001704454915,1.8126921862531904,0.196035649319155,B,488.8005999999905,Correct,sub_006_day_14_data.csv,1,300,122.0,Training at home,,,,,,,,,,,,,
6,14,3075,A,45.82868270982699,57.221132323137745,2.2914341354913494,0.8988274446822948,A,885.891700000002,Correct,sub_006_day_14_data.csv,1,300,123.0,Training at home,,,,,,,,,,,,,
6,14,3076,B,82.75616700080877,64.77441414856956,4.137808350040439,1.0174741181486444,B,1331.2346999999818,Correct,sub_006_day_14_data.csv,1,300,123.0,Training at home,,,,,,,,,,,,,
6,14,3077,B,38.11109414966461,27.92103331725551,1.9055547074832304,0.4385825657506288,B,577.2071999999753,Correct,sub_006_day_14_data.csv,1,300,123.0,Training at home,,,,,,,,,,,,,
6,14,3078,B,61.011207313102865,47.50533199119184,3.050560365655143,0.7462120099493622,B,481.6983999999138,Correct,sub_006_day_14_data.csv,1,300,123.0,Training at home,,,,,,,,,,,,,
6,14,3079,A,41.0145533831826,63.51788858131795,2.05072766915913,0.9977366606930174,A,610.0826999999072,Correct,sub_006_day_14_data.csv,1,300,123.0,Training at home,,,,,,,,,,,,,
6,14,3080,A,52.78830733574341,76.09402059089008,2.6394153667871705,1.1952820803522537,A,782.4885999999651,Correct,sub_006_day_14_data.csv,1,300,123.0,Training at home,,,,,,,,,,,,,
6,14,3081,B,79.71119158855777,52.289826331526896,3.985559579427888,0.8213666713030552,B,633.9698999998973,Correct,sub_006_day_14_data.csv,1,300,123.0,Training at home,,,,,,,,,,,,,
6,14,3082,A,48.06539498395642,79.04451037944719,2.403269749197821,1.2416282655733673,A,643.6120999999275,Correct,sub_006_day_14_data.csv,1,300,123.0,Training at home,,,,,,,,,,,,,
6,14,3083,B,83.37780797940664,63.99897400294033,4.168890398970332,1.0052935328246075,B,590.1143999999476,Correct,sub_006_day_14_data.csv,1,300,123.0,Training at home,,,,,,,,,,,,,
6,14,3084,B,45.15529587767295,30.479815144579835,2.2577647938836476,0.4787758167049346,B,746.4568000000327,Correct,sub_006_day_14_data.csv,1,300,123.0,Training at home,,,,,,,,,,,,,
6,14,3085,A,40.33643911407848,71.3797114443179,2.016821955703924,1.121229885444142,A,551.999300000034,Correct,sub_006_day_14_data.csv,1,300,123.0,Training at home,,,,,,,,,,,,,
6,14,3086,A,40.081844085804256,62.14708530177929,2.0040922042902127,0.9762041331304404,A,563.7538999999379,Correct,sub_006_day_14_data.csv,1,300,123.0,Training at home,,,,,,,,,,,,,
6,14,3087,B,53.687312587754235,35.582386146966584,2.684365629387712,0.5589268145825272,B,493.3565000000044,Correct,sub_006_day_14_data.csv,1,300,123.0,Training at home,,,,,,,,,,,,,
6,14,3088,B,82.36339168635291,53.98219311071499,4.118169584317645,0.8479503065064388,B,649.7779000000037,Correct,sub_006_day_14_data.csv,1,300,123.0,Training at home,,,,,,,,,,,,,
6,14,3089,A,52.75463019135302,72.42376393510999,2.6377315095676512,1.1376298236193148,A,922.4037999999836,Correct,sub_006_day_14_data.csv,1,300,123.0,Training at home,,,,,,,,,,,,,
6,14,3090,B,38.86165450220559,19.020704623411852,1.9430827251102796,0.2987765295550604,B,842.0875000000478,Correct,sub_006_day_14_data.csv,1,300,123.0,Training at home,,,,,,,,,,,,,
6,14,3091,A,38.85195403528838,63.90222423941736,1.942597701764419,1.0037737910930058,A,861.5214999999807,Correct,sub_006_day_14_data.csv,1,300,123.0,Training at home,,,,,,,,,,,,,
6,14,3092,B,40.24481230626938,14.247926847678553,2.012240615313469,0.2238059115677585,B,667.3445000000129,Correct,sub_006_day_14_data.csv,1,300,123.0,Training at home,,,,,,,,,,,,,
6,14,3093,A,50.46084709967263,69.86850136895832,2.5230423549836316,1.0974918530902391,A,487.9845000000387,Correct,sub_006_day_14_data.csv,1,300,123.0,Training at home,,,,,,,,,,,,,
6,14,3094,A,48.20054613629946,55.46668773040989,2.410027306814973,0.8712686934640742,A,811.7498999999953,Correct,sub_006_day_14_data.csv,1,300,123.0,Training at home,,,,,,,,,,,,,
6,14,3095,A,14.593290338345646,32.57140862755176,0.7296645169172823,0.5116304903069391,A,676.4054000000215,Correct,sub_006_day_14_data.csv,1,300,123.0,Training at home,,,,,,,,,,,,,
6,14,3096,B,43.281040336468386,24.062078031213133,2.1640520168234194,0.3779662378648177,B,495.880800000009,Correct,sub_006_day_14_data.csv,1,300,123.0,Training at home,,,,,,,,,,,,,
6,14,3097,B,86.43998528514832,58.59049968248454,4.321999264257417,0.9203374168632428,B,959.5669999999928,Correct,sub_006_day_14_data.csv,1,300,123.0,Training at home,,,,,,,,,,,,,
6,14,3098,A,37.41153228638326,48.95850694438304,1.8705766143191631,0.7690384287359932,A,1360.7690000000048,Correct,sub_006_day_14_data.csv,1,300,123.0,Training at home,,,,,,,,,,,,,
6,14,3099,A,28.717536947488057,40.76108921166045,1.4358768473744028,0.6402736920983532,A,557.1647000000439,Correct,sub_006_day_14_data.csv,1,300,123.0,Training at home,,,,,,,,,,,,,
6,14,3100,B,72.73447633752856,47.46081716959447,3.636723816876428,0.7455127727668316,B,894.3555000000742,Correct,sub_006_day_14_data.csv,1,300,124.0,Training at home,,,,,,,,,,,,,
6,14,3101,A,18.422663640707164,48.83674663227937,0.921133182035358,0.7671258222259747,A,595.2001000000564,Correct,sub_006_day_14_data.csv,1,300,124.0,Training at home,,,,,,,,,,,,,
6,14,3102,B,72.48826527819435,42.90214319808798,3.6244132639097177,0.6739052894718525,B,585.9984999999597,Correct,sub_006_day_14_data.csv,1,300,124.0,Training at home,,,,,,,,,,,,,
6,14,3103,A,13.61001745498476,31.097915244133052,0.680500872749238,0.4884849103646322,A,515.8028000000741,Correct,sub_006_day_14_data.csv,1,300,124.0,Training at home,,,,,,,,,,,,,
6,14,3104,B,68.89284069385991,51.541172148651526,3.4446420346929956,0.8096068388980525,B,538.198800000032,Correct,sub_006_day_14_data.csv,1,300,124.0,Training at home,,,,,,,,,,,,,
6,14,3105,B,83.01883197458197,53.55430126589496,4.150941598729099,0.8412289971253508,B,659.1968000000179,Correct,sub_006_day_14_data.csv,1,300,124.0,Training at home,,,,,,,,,,,,,
6,14,3106,A,24.216085681517765,41.41976902432238,1.2108042840758884,0.6506202104009863,A,665.6411000000162,Correct,sub_006_day_14_data.csv,1,300,124.0,Training at home,,,,,,,,,,,,,
6,14,3107,A,60.934926242342115,72.95355088509143,3.0467463121171057,1.145951697569462,A,767.8425999999945,Correct,sub_006_day_14_data.csv,1,300,124.0,Training at home,,,,,,,,,,,,,
6,14,3108,A,42.37177075296045,54.72562236479659,2.1185885376480225,0.8596280659218712,A,772.5933000000396,Correct,sub_006_day_14_data.csv,1,300,124.0,Training at home,,,,,,,,,,,,,
6,14,3109,A,36.93083814380241,55.225672651624095,1.8465419071901208,0.8674828374594851,A,530.1182000000608,Correct,sub_006_day_14_data.csv,1,300,124.0,Training at home,,,,,,,,,,,,,
6,14,3110,A,20.499220316905983,33.28696903510716,1.0249610158452993,0.5228704869048179,A,763.8230000000021,Correct,sub_006_day_14_data.csv,1,300,124.0,Training at home,,,,,,,,,,,,,
6,14,3111,A,37.98957447058552,46.74764811553801,1.899478723529276,0.7343103394618746,A,831.5012000000479,Correct,sub_006_day_14_data.csv,1,300,124.0,Training at home,,,,,,,,,,,,,
6,14,3112,B,48.78354873170614,37.271045973548624,2.439177436585307,0.5854522211105391,B,554.1607999999769,Correct,sub_006_day_14_data.csv,1,300,124.0,Training at home,,,,,,,,,,,,,
6,14,3113,A,28.12719567439575,59.18691461717097,1.4063597837197874,0.9297058807497532,A,784.6835999999939,Correct,sub_006_day_14_data.csv,1,300,124.0,Training at home,,,,,,,,,,,,,
6,14,3114,B,76.22304734895663,46.79333313662148,3.811152367447832,0.7350279580949493,B,707.2944000000234,Correct,sub_006_day_14_data.csv,1,300,124.0,Training at home,,,,,,,,,,,,,
6,14,3115,B,42.53602824427523,26.27221808068724,2.1268014122137613,0.4126830365789798,B,792.8164999999581,Correct,sub_006_day_14_data.csv,1,300,124.0,Training at home,,,,,,,,,,,,,
6,14,3116,B,44.00614381834651,21.066379299499516,2.200307190917326,0.3309099122252188,B,741.5609000000813,Correct,sub_006_day_14_data.csv,1,300,124.0,Training at home,,,,,,,,,,,,,
6,14,3117,B,39.82170819461646,22.078762522557508,1.991085409730823,0.3468123907061015,B,551.7809000000398,Correct,sub_006_day_14_data.csv,1,300,124.0,Training at home,,,,,,,,,,,,,
6,14,3118,A,50.199031986275386,66.86157901124841,2.5099515993137693,1.0502592271457576,A,684.3447999999626,Correct,sub_006_day_14_data.csv,1,300,124.0,Training at home,,,,,,,,,,,,,
6,14,3119,A,15.360458634514911,40.87203708487223,0.7680229317257457,0.642016457215421,A,530.1143000000366,Correct,sub_006_day_14_data.csv,1,300,124.0,Training at home,,,,,,,,,,,,,
6,14,3120,A,58.82043470234726,67.47839880130371,2.941021735117362,1.05994820975089,A,864.5115000000487,Correct,sub_006_day_14_data.csv,1,300,124.0,Training at home,,,,,,,,,,,,,
6,14,3121,B,63.050275174693475,39.66827326095175,3.152513758734674,0.6231077792859921,B,466.8724000000566,Correct,sub_006_day_14_data.csv,1,300,124.0,Training at home,,,,,,,,,,,,,
6,14,3122,B,66.44018417398131,52.097572061557216,3.3220092086990656,0.818346748292265,B,588.2216999999628,Correct,sub_006_day_14_data.csv,1,300,124.0,Training at home,,,,,,,,,,,,,
6,14,3123,B,47.91022342886129,33.63900402876524,2.3955111714430646,0.5284002396542317,B,537.0834999999943,Correct,sub_006_day_14_data.csv,1,300,124.0,Training at home,,,,,,,,,,,,,
6,14,3124,A,43.119847570610794,50.15121729874363,2.1559923785305397,0.7877734791715917,B,693.2064999999739,Incorrect,sub_006_day_14_data.csv,0,300,124.0,Training at home,,,,,,,,,,,,,
6,14,3125,B,67.58101007819127,48.48385084962273,3.3790505039095637,0.76158254823459,B,554.5453000000862,Correct,sub_006_day_14_data.csv,1,300,125.0,Training at home,,,,,,,,,,,,,
6,14,3126,A,31.150075934340627,48.55846581349272,1.5575037967170315,0.7627545973462991,A,777.6924999999437,Correct,sub_006_day_14_data.csv,1,300,125.0,Training at home,,,,,,,,,,,,,
6,14,3127,B,66.4919603607684,57.44350127165217,3.3245980180384205,0.902320407957492,B,890.9225999999535,Correct,sub_006_day_14_data.csv,1,300,125.0,Training at home,,,,,,,,,,,,,
6,14,3128,B,83.55837613020346,68.8650988649906,4.1779188065101724,1.0817304434149464,B,516.2714000000506,Correct,sub_006_day_14_data.csv,1,300,125.0,Training at home,,,,,,,,,,,,,
6,14,3129,B,40.84407887504756,32.623237376096704,2.042203943752378,0.5124446143853068,B,1681.7991000000347,Correct,sub_006_day_14_data.csv,1,300,125.0,Training at home,,,,,,,,,,,,,
6,14,3130,B,74.2367797220854,50.619204672167626,3.7118389861042704,0.7951246076431998,B,641.4281000000983,Correct,sub_006_day_14_data.csv,1,300,125.0,Training at home,,,,,,,,,,,,,
6,14,3131,A,19.36271774627481,32.8557362081684,0.9681358873137406,0.5160966974993301,A,838.7771999999813,Correct,sub_006_day_14_data.csv,1,300,125.0,Training at home,,,,,,,,,,,,,
6,14,3132,B,52.669455717336255,29.52664618161689,2.6334727858668128,0.4638034736465636,B,1065.9398000000238,Correct,sub_006_day_14_data.csv,1,300,125.0,Training at home,,,,,,,,,,,,,
6,14,3133,A,59.783855443155744,71.1984745702297,2.989192772157787,1.1183830232831666,A,1456.0474999999542,Correct,sub_006_day_14_data.csv,1,300,125.0,Training at home,,,,,,,,,,,,,
6,14,3134,B,50.37213459722629,38.22475296281626,2.5186067298613146,0.6004330154663412,B,1025.263099999961,Correct,sub_006_day_14_data.csv,1,300,125.0,Training at home,,,,,,,,,,,,,
6,14,3135,B,81.5498520947095,67.25366969865276,4.0774926047354745,1.05641817326121,B,831.4419000000726,Correct,sub_006_day_14_data.csv,1,300,125.0,Training at home,,,,,,,,,,,,,
6,14,3136,B,52.98661350074345,31.54805935122666,2.649330675037173,0.4955557574641422,B,740.3795000000173,Correct,sub_006_day_14_data.csv,1,300,125.0,Training at home,,,,,,,,,,,,,
6,14,3137,A,31.416643187529157,54.11349482510278,1.5708321593764578,0.8500127890130609,A,810.1652000000286,Correct,sub_006_day_14_data.csv,1,300,125.0,Training at home,,,,,,,,,,,,,
6,14,3138,B,49.24625078531552,22.13576184569368,2.462312539265776,0.3477077339802225,B,1101.9837999999709,Correct,sub_006_day_14_data.csv,1,300,125.0,Training at home,,,,,,,,,,,,,
6,14,3139,A,36.79219847186143,65.15887753495511,1.8396099235930716,1.0235132548998598,A,553.4983999999668,Correct,sub_006_day_14_data.csv,1,300,125.0,Training at home,,,,,,,,,,,,,
6,14,3140,B,34.91996155704224,15.510243628346856,1.7459980778521125,0.2436343371910118,B,2209.746300000006,Correct,sub_006_day_14_data.csv,1,300,125.0,Training at home,,,,,,,,,,,,,
6,14,3141,B,64.50578928887448,33.95960148873633,3.2252894644437244,0.5334361727792553,B,1367.5642000000607,Correct,sub_006_day_14_data.csv,1,300,125.0,Training at home,,,,,,,,,,,,,
6,14,3142,B,65.77121654471426,51.30852727663733,3.288560827235713,0.8059524617939767,A,892.3939999999675,Incorrect,sub_006_day_14_data.csv,0,300,125.0,Training at home,,,,,,,,,,,,,
6,14,3143,B,42.712648936654894,16.926290311428396,2.135632446832745,0.2658775464745577,B,691.4052000000765,Correct,sub_006_day_14_data.csv,1,300,125.0,Training at home,,,,,,,,,,,,,
6,14,3144,B,72.31435366699222,46.38956012559077,3.615717683349611,0.7286855064690899,B,564.9253999999928,Correct,sub_006_day_14_data.csv,1,300,125.0,Training at home,,,,,,,,,,,,,
6,14,3145,A,54.07843566948531,80.80508396936528,2.7039217834742653,1.2692832908543217,A,547.8587000000061,Correct,sub_006_day_14_data.csv,1,300,125.0,Training at home,,,,,,,,,,,,,
6,14,3146,A,32.66007717906826,52.20830030361087,1.6330038589534128,0.8200860634511684,A,1005.5601000000252,Correct,sub_006_day_14_data.csv,1,300,125.0,Training at home,,,,,,,,,,,,,
6,14,3147,A,16.624201788810332,32.89232537490752,0.8312100894405166,0.516671438786473,A,507.72300000005544,Correct,sub_006_day_14_data.csv,1,300,125.0,Training at home,,,,,,,,,,,,,
6,14,3148,B,63.01123821566574,43.94357199201081,3.150561910783287,0.6902640147129767,B,1334.1668000000482,Correct,sub_006_day_14_data.csv,1,300,125.0,Training at home,,,,,,,,,,,,,
6,14,3149,A,25.943210567384572,50.655309527488534,1.297160528369229,0.7956917413843752,A,1096.7128999999431,Correct,sub_006_day_14_data.csv,1,300,125.0,Training at home,,,,,,,,,,,,,
6,14,3150,B,54.91091980323211,39.91925148455318,2.745545990161606,0.6270501360033786,B,894.5656999999301,Correct,sub_006_day_14_data.csv,1,300,126.0,Training at home,,,,,,,,,,,,,
6,14,3151,A,30.765513718658525,45.01918945440348,1.5382756859329263,0.7071597743026053,A,1517.1106999999893,Correct,sub_006_day_14_data.csv,1,300,126.0,Training at home,,,,,,,,,,,,,
6,14,3152,A,49.47505153469854,65.38393938423586,2.4737525767349267,1.0270485181613789,B,1484.5555999999078,Incorrect,sub_006_day_14_data.csv,0,300,126.0,Training at home,,,,,,,,,,,,,
6,14,3153,A,60.115275315086535,83.33745641515651,3.0057637657543266,1.3090617042135764,A,1024.082099999987,Correct,sub_006_day_14_data.csv,1,300,126.0,Training at home,,,,,,,,,,,,,
6,14,3154,B,43.71725749704389,19.760174226990987,2.1858628748521944,0.3103920909258463,B,980.6145999999673,Correct,sub_006_day_14_data.csv,1,300,126.0,Training at home,,,,,,,,,,,,,
6,14,3155,A,36.535598723864986,60.22704453367762,1.8267799361932493,0.9460442032721346,A,1234.2423000000051,Correct,sub_006_day_14_data.csv,1,300,126.0,Training at home,,,,,,,,,,,,,
6,14,3156,A,35.36656842452735,44.54648184713385,1.7683284212263677,0.699734500571134,A,2148.9001999999573,Correct,sub_006_day_14_data.csv,1,300,126.0,Training at home,,,,,,,,,,,,,
6,14,3157,B,56.39273068047854,48.48089780215458,2.819636534023927,0.7615361618734318,B,689.3198000000211,Correct,sub_006_day_14_data.csv,1,300,126.0,Training at home,,,,,,,,,,,,,
6,14,3158,A,38.071976136271346,63.47679055046551,1.9035988068135672,0.9970910943340022,B,1155.0678000000971,Incorrect,sub_006_day_14_data.csv,0,300,126.0,Training at home,,,,,,,,,,,,,
6,14,3159,A,35.0450102638917,49.67692201908022,1.752250513194585,0.7803232663404773,A,1010.2339999999684,Correct,sub_006_day_14_data.csv,1,300,126.0,Training at home,,,,,,,,,,,,,
6,14,3160,B,33.89432261180326,19.752837724651016,1.694716130590163,0.3102768494165748,B,1092.8118999999017,Correct,sub_006_day_14_data.csv,1,300,126.0,Training at home,,,,,,,,,,,,,
6,14,3161,A,61.72518972368796,71.9961895386719,3.0862594861843977,1.1309135007057498,A,781.6659999999729,Correct,sub_006_day_14_data.csv,1,300,126.0,Training at home,,,,,,,,,,,,,
6,14,3162,A,40.825241590834025,57.81914615127717,2.041262079541702,0.9082210239284346,A,784.393199999954,Correct,sub_006_day_14_data.csv,1,300,126.0,Training at home,,,,,,,,,,,,,
6,14,3163,B,55.3816059081181,40.66338402453366,2.769080295405905,0.6387389426078774,B,594.2378999999391,Correct,sub_006_day_14_data.csv,1,300,126.0,Training at home,,,,,,,,,,,,,
6,14,3164,B,55.65078660453274,46.44260873699848,2.782539330226637,0.7295187921084979,B,948.7917000000152,Correct,sub_006_day_14_data.csv,1,300,126.0,Training at home,,,,,,,,,,,,,
6,14,3165,B,48.79824166115945,26.868005338644856,2.4399120830579726,0.4220416409424901,B,605.3175000000692,Correct,sub_006_day_14_data.csv,1,300,126.0,Training at home,,,,,,,,,,,,,
6,14,3166,A,33.18682876166037,54.85660700314813,1.6593414380830185,0.8616855678097628,A,624.4292000000087,Correct,sub_006_day_14_data.csv,1,300,126.0,Training at home,,,,,,,,,,,,,
6,14,3167,B,60.86939049748385,39.80177643072906,3.043469524874192,0.625204842173009,B,550.391799999943,Correct,sub_006_day_14_data.csv,1,300,126.0,Training at home,,,,,,,,,,,,,
6,14,3168,A,24.74444111487565,47.470819876931266,1.2372220557437823,0.7456698949262578,A,825.0822999999627,Correct,sub_006_day_14_data.csv,1,300,126.0,Training at home,,,,,,,,,,,,,
6,14,3169,B,73.1840504672401,53.64414705641119,3.659202523362006,0.8426402915025597,B,819.7102000000314,Correct,sub_006_day_14_data.csv,1,300,126.0,Training at home,,,,,,,,,,,,,
6,14,3170,B,89.72343445433877,67.435844338077,4.486171722716938,1.059279765805638,B,484.9809999999479,Correct,sub_006_day_14_data.csv,1,300,126.0,Training at home,,,,,,,,,,,,,
6,14,3171,B,84.39534826906328,64.01353584102881,4.219767413453164,1.005522269642415,B,580.1341000000093,Correct,sub_006_day_14_data.csv,1,300,126.0,Training at home,,,,,,,,,,,,,
6,14,3172,A,48.89757657438759,55.601483745431075,2.444878828719379,0.8733860643166926,A,700.7055000000264,Correct,sub_006_day_14_data.csv,1,300,126.0,Training at home,,,,,,,,,,,,,
6,14,3173,A,50.96200615888098,67.23410026663134,2.5481003079440487,1.0561107773418428,A,582.8093999999737,Correct,sub_006_day_14_data.csv,1,300,126.0,Training at home,,,,,,,,,,,,,
6,14,3174,B,40.161517537717174,26.973766679625,2.008075876885859,0.4237029362017753,A,653.3832000000075,Incorrect,sub_006_day_14_data.csv,0,300,126.0,Training at home,,,,,,,,,,,,,
6,14,3175,B,68.39905286338764,46.60494263167616,3.4199526431693816,0.7320687269632379,B,510.2709000000232,Correct,sub_006_day_14_data.csv,1,300,127.0,Training at home,,,,,,,,,,,,,
6,14,3176,A,30.57656022423102,43.49849956957516,1.5288280112115509,0.6832728334497804,A,564.2114999999421,Correct,sub_006_day_14_data.csv,1,300,127.0,Training at home,,,,,,,,,,,,,
6,14,3177,A,49.17160048883104,67.80692964648316,2.458580024441552,1.0651087601993572,A,656.8637000000308,Correct,sub_006_day_14_data.csv,1,300,127.0,Training at home,,,,,,,,,,,,,
6,14,3178,A,49.739659096730485,78.0822810477523,2.4869829548365243,1.2265136025757606,A,622.7090999998381,Correct,sub_006_day_14_data.csv,1,300,127.0,Training at home,,,,,,,,,,,,,
6,14,3179,A,37.10745723639689,63.864852327836566,1.8553728618198448,1.0031867544786417,A,559.2567000001054,Correct,sub_006_day_14_data.csv,1,300,127.0,Training at home,,,,,,,,,,,,,
6,14,3180,A,57.99101311664663,78.33303425153031,2.899550655832331,1.230452424690026,A,1000.0158000000284,Correct,sub_006_day_14_data.csv,1,300,127.0,Training at home,,,,,,,,,,,,,
6,14,3181,A,13.459831192525517,31.219953769956515,0.6729915596262758,0.4904018870455418,A,1536.9347000000744,Correct,sub_006_day_14_data.csv,1,300,127.0,Training at home,,,,,,,,,,,,,
6,14,3182,A,34.42355637160027,51.38673150645913,1.7211778185800135,0.8071808909634158,A,791.6098000000602,Correct,sub_006_day_14_data.csv,1,300,127.0,Training at home,,,,,,,,,,,,,
6,14,3183,B,37.77109405244448,24.27238255360017,1.888554702622224,0.3812696935775568,B,894.1362999999001,Correct,sub_006_day_14_data.csv,1,300,127.0,Training at home,,,,,,,,,,,,,
6,14,3184,A,45.61677218644729,72.08060003061078,2.2808386093223647,1.1322394176125552,A,540.1569000000563,Correct,sub_006_day_14_data.csv,1,300,127.0,Training at home,,,,,,,,,,,,,
6,14,3185,A,55.18188539147493,67.55539962355915,2.7590942695737466,1.0611577358384805,B,1141.8988999998874,Incorrect,sub_006_day_14_data.csv,0,300,127.0,Training at home,,,,,,,,,,,,,
6,14,3186,A,30.760130976638223,52.492705750725285,1.538006548831911,0.8245534937676463,A,842.3037000000022,Correct,sub_006_day_14_data.csv,1,300,127.0,Training at home,,,,,,,,,,,,,
6,14,3187,B,72.15246936324783,58.17065226323228,3.607623468162392,0.913742469023485,B,1070.9832000000006,Correct,sub_006_day_14_data.csv,1,300,127.0,Training at home,,,,,,,,,,,,,
6,14,3188,B,82.29915148173592,59.60370672550709,4.114957574086796,0.936252835877868,B,516.5915000000041,Correct,sub_006_day_14_data.csv,1,300,127.0,Training at home,,,,,,,,,,,,,
6,14,3189,B,55.498304576365456,25.60434556963035,2.774915228818273,0.4021921197076253,B,613.6492000000544,Correct,sub_006_day_14_data.csv,1,300,127.0,Training at home,,,,,,,,,,,,,
6,14,3190,A,44.80990132102232,71.39506392925492,2.2404950660511163,1.1214710417136042,A,693.5879999998633,Correct,sub_006_day_14_data.csv,1,300,127.0,Training at home,,,,,,,,,,,,,
6,14,3191,B,54.31258160422114,31.30919356976481,2.7156290802110568,0.4918036625429696,B,683.20279999989,Correct,sub_006_day_14_data.csv,1,300,127.0,Training at home,,,,,,,,,,,,,
6,14,3192,A,26.17356402032485,49.04145818677428,1.3086782010162423,0.7703414238045057,A,600.466200000028,Correct,sub_006_day_14_data.csv,1,300,127.0,Training at home,,,,,,,,,,,,,
6,14,3193,B,74.88308340032299,64.06924297296334,3.7441541700161496,1.0063973152246055,B,621.078099999977,Correct,sub_006_day_14_data.csv,1,300,127.0,Training at home,,,,,,,,,,,,,
6,14,3194,B,85.8979623999318,57.04679349106492,4.294898119996589,0.8960889367119179,B,524.6116999999231,Correct,sub_006_day_14_data.csv,1,300,127.0,Training at home,,,,,,,,,,,,,
6,14,3195,A,33.969786310559485,55.53442319829744,1.698489315527974,0.8723326797055891,A,608.9646000000357,Correct,sub_006_day_14_data.csv,1,300,127.0,Training at home,,,,,,,,,,,,,
6,14,3196,B,44.08479187806859,36.243264329308914,2.2042395939034294,0.5693078647953494,B,589.6838999999545,Correct,sub_006_day_14_data.csv,1,300,127.0,Training at home,,,,,,,,,,,,,
6,14,3197,A,67.36259640495034,80.48899172051924,3.368129820247517,1.2643181254201643,A,651.9379000001209,Correct,sub_006_day_14_data.csv,1,300,127.0,Training at home,,,,,,,,,,,,,
6,14,3198,A,30.167884786012703,60.89272768340325,1.508394239300635,0.9565007297361172,A,572.2230999999738,Correct,sub_006_day_14_data.csv,1,300,127.0,Training at home,,,,,,,,,,,,,
6,14,3199,B,35.720279260859684,16.072102375869267,1.786013963042984,0.2524599937588697,B,645.761800000173,Correct,sub_006_day_14_data.csv,1,300,127.0,Training at home,,,,,,,,,,,,,
6,14,3200,A,40.04517662734946,69.87530694506795,2.002258831367473,1.0975987548297863,A,937.9615999998804,Correct,sub_006_day_14_data.csv,1,300,128.0,Training at home,,,,,,,,,,,,,
6,14,3201,B,71.91061872290928,51.76977361544443,3.5955309361454635,0.8131977023414347,B,1314.9077999999008,Correct,sub_006_day_14_data.csv,1,300,128.0,Training at home,,,,,,,,,,,,,
6,14,3202,B,75.73372207234358,56.40968084377142,3.7866861036171793,0.8860811946506858,B,670.1489000001857,Correct,sub_006_day_14_data.csv,1,300,128.0,Training at home,,,,,,,,,,,,,
6,14,3203,B,55.46235764340235,39.59205574294355,2.773117882170118,0.6219105573127452,B,814.7332999999435,Correct,sub_006_day_14_data.csv,1,300,128.0,Training at home,,,,,,,,,,,,,
6,14,3204,B,77.01600487849343,48.65450984190171,3.850800243924672,0.7642632534166532,B,520.78460000007,Correct,sub_006_day_14_data.csv,1,300,128.0,Training at home,,,,,,,,,,,,,
6,14,3205,A,12.872756585963025,31.72264799643304,0.6436378292981513,0.498298189490045,A,568.6901999999918,Correct,sub_006_day_14_data.csv,1,300,128.0,Training at home,,,,,,,,,,,,,
6,14,3206,A,46.419880978655954,69.21682062877683,2.3209940489327976,1.0872552759610388,A,619.9609000000237,Correct,sub_006_day_14_data.csv,1,300,128.0,Training at home,,,,,,,,,,,,,
6,14,3207,B,62.91776244887657,32.843786895203614,3.145888122443829,0.5159089981302021,B,1023.6717000000226,Correct,sub_006_day_14_data.csv,1,300,128.0,Training at home,,,,,,,,,,,,,
6,14,3208,B,47.016461312122544,22.627456144623068,2.3508230656061273,0.3554312499668652,B,578.0370999998468,Correct,sub_006_day_14_data.csv,1,300,128.0,Training at home,,,,,,,,,,,,,
6,14,3209,A,31.926177521267302,50.82809367716115,1.596308876063365,0.7984058284607163,A,763.1624000000556,Correct,sub_006_day_14_data.csv,1,300,128.0,Training at home,,,,,,,,,,,,,
6,14,3210,A,35.264385337473364,66.36316852519732,1.763219266873668,1.0424302135385066,A,683.8325000001078,Correct,sub_006_day_14_data.csv,1,300,128.0,Training at home,,,,,,,,,,,,,
6,14,3211,A,31.5386219299006,54.579182026416866,1.57693109649503,0.8573277864656565,A,594.9992999999267,Correct,sub_006_day_14_data.csv,1,300,128.0,Training at home,,,,,,,,,,,,,
6,14,3212,A,30.64135425475615,49.04011944425589,1.5320677127378073,0.7703203948862014,A,632.2009999998954,Correct,sub_006_day_14_data.csv,1,300,128.0,Training at home,,,,,,,,,,,,,
6,14,3213,A,53.94153266374582,68.8307323085072,2.697076633187291,1.081190614808059,A,655.8307000000241,Correct,sub_006_day_14_data.csv,1,300,128.0,Training at home,,,,,,,,,,,,,
6,14,3214,B,55.6388618969188,41.9842570746396,2.78194309484594,0.6594871679605653,B,504.51799999996183,Correct,sub_006_day_14_data.csv,1,300,128.0,Training at home,,,,,,,,,,,,,
6,14,3215,A,19.85650832399253,36.48733541165463,0.9928254161996264,0.5731417243916044,A,541.8415999999979,Correct,sub_006_day_14_data.csv,1,300,128.0,Training at home,,,,,,,,,,,,,
6,14,3216,B,38.43222039460376,29.64404369049906,1.921611019730188,0.4656475494038335,B,642.7407999999559,Correct,sub_006_day_14_data.csv,1,300,128.0,Training at home,,,,,,,,,,,,,
6,14,3217,B,64.76076444773399,47.323313785141835,3.2380382223866997,0.743352874654631,B,572.4210999999286,Correct,sub_006_day_14_data.csv,1,300,128.0,Training at home,,,,,,,,,,,,,
6,14,3218,A,60.00401406100043,77.49752367898454,3.0002007030500213,1.2173282553064944,A,574.5432000001074,Correct,sub_006_day_14_data.csv,1,300,128.0,Training at home,,,,,,,,,,,,,
6,14,3219,B,56.11820828660106,43.14367331484125,2.8059104143300533,0.6776992356739163,B,576.1253999999099,Correct,sub_006_day_14_data.csv,1,300,128.0,Training at home,,,,,,,,,,,,,
6,14,3220,B,65.1153071202935,32.17814102963911,3.255765356014675,0.5054530573244527,B,627.340500000173,Correct,sub_006_day_14_data.csv,1,300,128.0,Training at home,,,,,,,,,,,,,
6,14,3221,A,33.21834179868982,60.15631177557332,1.6609170899344912,0.9449331357059916,A,552.433899999869,Correct,sub_006_day_14_data.csv,1,300,128.0,Training at home,,,,,,,,,,,,,
6,14,3222,B,34.438647638146904,16.693857716914405,1.721932381907345,0.2622265038176578,B,584.6667000000707,Correct,sub_006_day_14_data.csv,1,300,128.0,Training at home,,,,,,,,,,,,,
6,14,3223,A,61.16256938633365,70.90812413973997,3.0581284693166824,1.1138222093862007,A,834.2961999999261,Correct,sub_006_day_14_data.csv,1,300,128.0,Training at home,,,,,,,,,,,,,
6,14,3224,A,57.31220346879523,84.25724013421164,2.865610173439762,1.3235096330869516,A,539.890000000014,Correct,sub_006_day_14_data.csv,1,300,128.0,Training at home,,,,,,,,,,,,,
6,14,3225,A,32.14842638439284,49.49200520291953,1.6074213192196425,0.777418599784599,B,547.5116000000071,Incorrect,sub_006_day_14_data.csv,0,300,129.0,Training at home,,,,,,,,,,,,,
6,14,3226,A,48.91434572632963,74.50452538076806,2.4457172863164813,1.170314347977076,B,527.1508000000722,Incorrect,sub_006_day_14_data.csv,0,300,129.0,Training at home,,,,,,,,,,,,,
6,14,3227,B,78.20126143965663,49.829460647785304,3.9100630719828313,0.7827193375171201,B,607.2354999998879,Correct,sub_006_day_14_data.csv,1,300,129.0,Training at home,,,,,,,,,,,,,
6,14,3228,A,27.79001036083378,40.81028338769961,1.389500518041689,0.6410464324085734,A,952.435400000013,Correct,sub_006_day_14_data.csv,1,300,129.0,Training at home,,,,,,,,,,,,,
6,14,3229,B,52.99114390694704,40.1831244988001,2.649557195347352,0.6311950436185721,B,631.1692000001585,Correct,sub_006_day_14_data.csv,1,300,129.0,Training at home,,,,,,,,,,,,,
6,14,3230,A,64.95748874820993,77.64896659445193,3.247874437410496,1.2197071150598473,A,770.3527999999551,Correct,sub_006_day_14_data.csv,1,300,129.0,Training at home,,,,,,,,,,,,,
6,14,3231,A,37.833661518872134,51.07166001986585,1.8916830759436067,0.8022317596252305,B,1017.9955000000972,Incorrect,sub_006_day_14_data.csv,0,300,129.0,Training at home,,,,,,,,,,,,,
6,14,3232,A,63.67595574592643,77.16013530348198,3.1837977872963217,1.2120285710970673,A,783.9840999999979,Correct,sub_006_day_14_data.csv,1,300,129.0,Training at home,,,,,,,,,,,,,
6,14,3233,B,80.97253461763881,61.39709497105915,4.04862673088194,0.9644233125641712,B,1067.8537999999662,Correct,sub_006_day_14_data.csv,1,300,129.0,Training at home,,,,,,,,,,,,,
6,14,3234,A,11.124735654473156,32.24060963985775,0.5562367827236578,0.5064343119591669,A,573.2606999999916,Correct,sub_006_day_14_data.csv,1,300,129.0,Training at home,,,,,,,,,,,,,
6,14,3235,B,69.92422849819401,37.23576015904315,3.4962114249097005,0.5848979528324074,B,581.059200000027,Correct,sub_006_day_14_data.csv,1,300,129.0,Training at home,,,,,,,,,,,,,
6,14,3236,A,52.77633913811912,70.82290921044411,2.638816956905956,1.1124836564069405,A,607.6162000001659,Correct,sub_006_day_14_data.csv,1,300,129.0,Training at home,,,,,,,,,,,,,
6,14,3237,A,29.385854671543115,55.68087764480707,1.4692927335771555,0.8746331807717903,A,971.563999999944,Correct,sub_006_day_14_data.csv,1,300,129.0,Training at home,,,,,,,,,,,,,
6,14,3238,B,46.97375493956915,25.09173389689816,2.3486877469784573,0.3941400343816263,B,694.8423999999704,Correct,sub_006_day_14_data.csv,1,300,129.0,Training at home,,,,,,,,,,,,,
6,14,3239,B,63.26215364659868,50.320617851738625,3.163107682329934,0.7904344168356072,B,1778.1983999998374,Correct,sub_006_day_14_data.csv,1,300,129.0,Training at home,,,,,,,,,,,,,
6,14,3240,A,62.20284737044096,85.10367783118532,3.110142368522048,1.3368054453396216,A,752.2500000000036,Correct,sub_006_day_14_data.csv,1,300,129.0,Training at home,,,,,,,,,,,,,
6,14,3241,B,59.327221123976045,42.788983785494615,2.9663610561988025,0.6721277855754133,B,605.5590000000848,Correct,sub_006_day_14_data.csv,1,300,129.0,Training at home,,,,,,,,,,,,,
6,14,3242,B,49.48484983489753,19.19665532844366,2.4742424917448766,0.3015403567666698,B,514.4963000000189,Correct,sub_006_day_14_data.csv,1,300,129.0,Training at home,,,,,,,,,,,,,
6,14,3243,B,70.56001382723963,39.84034320442736,3.5280006913619815,0.6258106476376251,B,415.92160000004696,Correct,sub_006_day_14_data.csv,1,300,129.0,Training at home,,,,,,,,,,,,,
6,14,3244,B,40.19844331193469,12.567325720227522,2.0099221655967345,0.1974070907896842,B,523.3944999999949,Correct,sub_006_day_14_data.csv,1,300,129.0,Training at home,,,,,,,,,,,,,
6,14,3245,B,59.30305344143908,49.746410618780864,2.965152672071954,0.7814147907121163,A,892.4444000001586,Incorrect,sub_006_day_14_data.csv,0,300,129.0,Training at home,,,,,,,,,,,,,
6,14,3246,B,67.29616328214753,46.01233940326228,3.3648081641073766,0.7227601372188448,B,706.5244999998868,Correct,sub_006_day_14_data.csv,1,300,129.0,Training at home,,,,,,,,,,,,,
6,14,3247,B,70.19264582868533,47.14345783152949,3.5096322914342664,0.7405277039417661,B,2188.919700000042,Correct,sub_006_day_14_data.csv,1,300,129.0,Training at home,,,,,,,,,,,,,
6,14,3248,A,43.83443586226782,56.17452189359548,2.1917217931133908,0.8823873264991928,A,720.4761999998937,Correct,sub_006_day_14_data.csv,1,300,129.0,Training at home,,,,,,,,,,,,,
6,14,3249,A,18.830625134432644,43.28499054014619,0.9415312567216322,0.6799190414581348,A,717.9338999999345,Correct,sub_006_day_14_data.csv,1,300,129.0,Training at home,,,,,,,,,,,,,
6,14,3250,B,80.54771140754406,58.837539378996446,4.027385570377203,0.9242179073417768,B,802.9272999999648,Correct,sub_006_day_14_data.csv,1,300,130.0,Training at home,,,,,,,,,,,,,
6,14,3251,B,45.409678275462056,32.92240222360883,2.270483913773103,0.5171438848210889,B,745.6523999999263,Correct,sub_006_day_14_data.csv,1,300,130.0,Training at home,,,,,,,,,,,,,
6,14,3252,A,14.668966180504984,43.514717839070954,0.7334483090252492,0.6835275894312902,A,627.1867999998904,Correct,sub_006_day_14_data.csv,1,300,130.0,Training at home,,,,,,,,,,,,,
6,14,3253,A,11.698978532958977,35.434049993497844,0.5849489266479487,0.5565967557325314,A,572.3403000001781,Correct,sub_006_day_14_data.csv,1,300,130.0,Training at home,,,,,,,,,,,,,
6,14,3254,A,15.100480692310068,32.04566242858532,0.7550240346155035,0.5033720883253104,A,619.6896999999808,Correct,sub_006_day_14_data.csv,1,300,130.0,Training at home,,,,,,,,,,,,,
6,14,3255,A,56.26764006249024,75.00572171786051,2.8133820031245125,1.178187121630155,A,927.9187000001912,Correct,sub_006_day_14_data.csv,1,300,130.0,Training at home,,,,,,,,,,,,,
6,14,3256,B,31.02842254031603,12.478937311724444,1.5514211270158014,0.1960186889156054,B,760.3491000002123,Correct,sub_006_day_14_data.csv,1,300,130.0,Training at home,,,,,,,,,,,,,
6,14,3257,A,40.41281041357806,63.47364592509657,2.020640520678903,0.9970416986742154,A,851.556999999957,Correct,sub_006_day_14_data.csv,1,300,130.0,Training at home,,,,,,,,,,,,,
6,14,3258,B,42.695561095656785,20.458708829060487,2.134778054782839,0.3213646467965453,B,556.9884000001366,Correct,sub_006_day_14_data.csv,1,300,130.0,Training at home,,,,,,,,,,,,,
6,14,3259,A,36.89361501054141,67.42210540585002,1.8446807505270704,1.0590639551628755,A,711.6138999999748,Correct,sub_006_day_14_data.csv,1,300,130.0,Training at home,,,,,,,,,,,,,
6,14,3260,A,40.204661522012664,59.779849234749264,2.0102330761006333,0.9390196759429684,B,620.2790000002096,Incorrect,sub_006_day_14_data.csv,0,300,130.0,Training at home,,,,,,,,,,,,,
6,14,3261,B,80.73111790047628,51.95285014516809,4.036555895023814,0.8160734617455574,B,714.7277999999915,Correct,sub_006_day_14_data.csv,1,300,130.0,Training at home,,,,,,,,,,,,,
6,14,3262,A,29.095505608034152,45.879053370419086,1.4547752804017078,0.7206664851108131,A,614.0580999999656,Correct,sub_006_day_14_data.csv,1,300,130.0,Training at home,,,,,,,,,,,,,
6,14,3263,A,59.0633609015068,77.06486527796353,2.95316804507534,1.210532073035687,A,687.0310000001609,Correct,sub_006_day_14_data.csv,1,300,130.0,Training at home,,,,,,,,,,,,,
6,14,3264,B,70.88301332622245,38.36704051290089,3.544150666311123,0.602668063076557,B,666.6609000001245,Correct,sub_006_day_14_data.csv,1,300,130.0,Training at home,,,,,,,,,,,,,
6,14,3265,B,76.26533106041497,57.70947845203132,3.813266553020748,0.9064983677370002,A,654.5016999998552,Incorrect,sub_006_day_14_data.csv,0,300,130.0,Training at home,,,,,,,,,,,,,
6,14,3266,A,49.72242803686425,57.10585633843742,2.4861214018432123,0.8970166937489455,A,1695.4369000000042,Correct,sub_006_day_14_data.csv,1,300,130.0,Training at home,,,,,,,,,,,,,
6,14,3267,B,87.2564463279986,59.48953524298901,4.362822316399931,0.9344594344242269,B,579.5906999999261,Correct,sub_006_day_14_data.csv,1,300,130.0,Training at home,,,,,,,,,,,,,
6,14,3268,B,49.13450149696072,23.761842230256203,2.456725074848036,0.3732501449316629,B,645.6308000001627,Correct,sub_006_day_14_data.csv,1,300,130.0,Training at home,,,,,,,,,,,,,
6,14,3269,B,76.18210452344044,55.513982497926726,3.809105226172022,0.8720115979349947,B,900.9842999998908,Correct,sub_006_day_14_data.csv,1,300,130.0,Training at home,,,,,,,,,,,,,
6,14,3270,A,32.427565386847995,58.0997473415902,1.6213782693423997,0.9126286971188142,A,501.67720000013105,Correct,sub_006_day_14_data.csv,1,300,130.0,Training at home,,,,,,,,,,,,,
6,14,3271,A,18.8974150101488,43.98725877316153,0.94487075050744,0.6909502450665872,A,597.9416000000128,Correct,sub_006_day_14_data.csv,1,300,130.0,Training at home,,,,,,,,,,,,,
6,14,3272,B,44.27762141688855,16.729371171109978,2.213881070844428,0.2627843478516799,B,502.5695000001633,Correct,sub_006_day_14_data.csv,1,300,130.0,Training at home,,,,,,,,,,,,,
6,14,3273,B,69.04827043496883,42.658380274825895,3.4524135217484413,0.6700762704271638,B,635.9949000000142,Correct,sub_006_day_14_data.csv,1,300,130.0,Training at home,,,,,,,,,,,,,
6,14,3274,A,26.286480731126893,53.68745506672893,1.3143240365563449,0.8433205721378387,A,561.9613999999729,Correct,sub_006_day_14_data.csv,1,300,130.0,Training at home,,,,,,,,,,,,,
6,14,3275,A,29.014808927129863,49.77264094706639,1.4507404463564932,0.7818268157453314,A,557.7905000000101,Correct,sub_006_day_14_data.csv,1,300,131.0,Training at home,,,,,,,,,,,,,
6,14,3276,A,35.795070346097745,44.498379061619715,1.7897535173048873,0.6989789037831918,B,608.523200000036,Incorrect,sub_006_day_14_data.csv,0,300,131.0,Training at home,,,,,,,,,,,,,
6,14,3277,A,36.94518659934464,68.92192551863107,1.847259329967232,1.0826230744029712,A,618.5260000002017,Correct,sub_006_day_14_data.csv,1,300,131.0,Training at home,,,,,,,,,,,,,
6,14,3278,A,14.188355759679569,37.268127299877534,0.7094177879839784,0.5854063746917224,A,633.9238000000478,Correct,sub_006_day_14_data.csv,1,300,131.0,Training at home,,,,,,,,,,,,,
6,14,3279,B,43.30174681439793,34.51772136592839,2.1650873407198965,0.5422030993093003,B,676.0102000000643,Correct,sub_006_day_14_data.csv,1,300,131.0,Training at home,,,,,,,,,,,,,
6,14,3280,A,44.56033684735685,65.36208007143846,2.228016842367842,1.0267051528788944,A,561.031899999989,Correct,sub_006_day_14_data.csv,1,300,131.0,Training at home,,,,,,,,,,,,,
6,14,3281,B,72.11198450399908,59.2626008977025,3.6055992251999545,0.9308947580642302,B,775.4104000000552,Correct,sub_006_day_14_data.csv,1,300,131.0,Training at home,,,,,,,,,,,,,
6,14,3282,B,48.15533286424362,22.5060293797618,2.407766643212181,0.3535238828046786,B,771.9844000000649,Correct,sub_006_day_14_data.csv,1,300,131.0,Training at home,,,,,,,,,,,,,
6,14,3283,B,46.55616510030643,25.687206140853988,2.3278082550153214,0.4034936905167676,B,574.8843999999735,Correct,sub_006_day_14_data.csv,1,300,131.0,Training at home,,,,,,,,,,,,,
6,14,3284,B,63.824206186228885,44.13827621480282,3.1912103093114443,0.6933224214927083,B,582.333300000073,Correct,sub_006_day_14_data.csv,1,300,131.0,Training at home,,,,,,,,,,,,,
6,14,3285,B,53.34738617778572,30.374556208770606,2.667369308889286,0.4771224132076199,B,659.7967000000153,Correct,sub_006_day_14_data.csv,1,300,131.0,Training at home,,,,,,,,,,,,,
6,14,3286,B,63.95870695646141,36.94072383058679,3.1979353478230705,0.5802635330223043,B,477.5202000000718,Correct,sub_006_day_14_data.csv,1,300,131.0,Training at home,,,,,,,,,,,,,
6,14,3287,A,45.80751989955209,64.3968213094152,2.2903759949776044,1.011542903700967,B,689.9693000000298,Incorrect,sub_006_day_14_data.csv,0,300,131.0,Training at home,,,,,,,,,,,,,
6,14,3288,A,30.960492984122777,62.80163646971085,1.548024649206139,0.986485798833302,A,627.7276999999231,Correct,sub_006_day_14_data.csv,1,300,131.0,Training at home,,,,,,,,,,,,,
6,14,3289,B,65.06607666971581,47.4379868780402,3.2533038334857904,0.7451541553857006,A,622.1940000000359,Incorrect,sub_006_day_14_data.csv,0,300,131.0,Training at home,,,,,,,,,,,,,
6,14,3290,B,58.36076776462111,49.080134143530714,2.918038388231055,0.7709489443125883,B,953.3304999999928,Correct,sub_006_day_14_data.csv,1,300,131.0,Training at home,,,,,,,,,,,,,
6,14,3291,A,39.30513073534913,65.17093223145771,1.9652565367674568,1.023702609629729,A,620.9625999999844,Correct,sub_006_day_14_data.csv,1,300,131.0,Training at home,,,,,,,,,,,,,
6,14,3292,A,40.06347227951011,52.93615587032756,2.0031736139755054,0.8315191919575262,B,563.0826999999954,Incorrect,sub_006_day_14_data.csv,0,300,131.0,Training at home,,,,,,,,,,,,,
6,14,3293,B,79.2868400010369,65.79489625134639,3.964342000051845,1.033503813534662,B,692.3753999999462,Correct,sub_006_day_14_data.csv,1,300,131.0,Training at home,,,,,,,,,,,,,
6,14,3294,B,34.187587333692605,22.81220033381346,1.7093793666846302,0.358333204904635,A,627.4468999999954,Incorrect,sub_006_day_14_data.csv,0,300,131.0,Training at home,,,,,,,,,,,,,
6,14,3295,B,70.2214701604701,41.43858109250769,3.5110735080235056,0.6509157096770353,B,483.384899999919,Correct,sub_006_day_14_data.csv,1,300,131.0,Training at home,,,,,,,,,,,,,
6,14,3296,A,27.54640961803919,42.96891471617806,1.3773204809019597,0.6749541340253568,A,622.5087000000258,Correct,sub_006_day_14_data.csv,1,300,131.0,Training at home,,,,,,,,,,,,,
6,14,3297,A,20.39109146303486,36.05284932860855,1.019554573151743,0.5663168329586816,A,616.3928999999371,Correct,sub_006_day_14_data.csv,1,300,131.0,Training at home,,,,,,,,,,,,,
6,14,3298,B,71.95198698598011,43.07730372862533,3.5975993492990055,0.6766567046515278,B,630.9876999998778,Correct,sub_006_day_14_data.csv,1,300,131.0,Training at home,,,,,,,,,,,,,
6,14,3299,A,23.196819793152866,39.16925966217816,1.1598409896576434,0.6152692920062497,A,527.0136999999977,Correct,sub_006_day_14_data.csv,1,300,131.0,Training at home,,,,,,,,,,,,,
