subject,day,trial,cat,x,y,xt,yt,resp,rt,fb,f_name,acc,n_trials,block,session_type,ns_left_digit,ns_right_digit,ns_left_size,ns_right_size,ns_congruent,ns_cue,ns_correct_side,ns_resp,ns_rt,ns_fb,acc_stroop,acc_stroop_mean,resp_key
6,19,4200,A,53.1516721631324,70.41362310106491,2.65758360815662,1.1060546052347306,A,1036.693700007163,Correct,sub_006_day_19_data.csv,1,300,168.0,Training at home,,,,,,,,,,,,,
6,19,4201,A,24.6471725086262,53.94455280541879,1.23235862543131,0.8473590539734517,A,832.6294999569654,Correct,sub_006_day_19_data.csv,1,300,168.0,Training at home,,,,,,,,,,,,,
6,19,4202,A,66.4425175860659,88.36971403694446,3.322125879303295,1.3881082220914776,A,4160.807100008242,Correct,sub_006_day_19_data.csv,1,300,168.0,Training at home,,,,,,,,,,,,,
6,19,4203,A,22.6806064497556,46.58487196281462,1.13403032248778,0.7317534576339976,A,842.4376000184566,Correct,sub_006_day_19_data.csv,1,300,168.0,Training at home,,,,,,,,,,,,,
6,19,4204,A,32.72579935657802,41.921613864410446,1.6362899678289011,0.6585031707152994,A,1027.6947999955155,Correct,sub_006_day_19_data.csv,1,300,168.0,Training at home,,,,,,,,,,,,,
6,19,4205,B,77.25618949831782,47.41337837787623,3.862809474915891,0.7447676059690455,B,593.1694999453612,Correct,sub_006_day_19_data.csv,1,300,168.0,Training at home,,,,,,,,,,,,,
6,19,4206,A,65.38388075869295,78.0660642652926,3.2691940379346476,1.2262588699525596,A,868.7736000283621,Correct,sub_006_day_19_data.csv,1,300,168.0,Training at home,,,,,,,,,,,,,
6,19,4207,B,70.11672875823218,46.354096222081616,3.505836437911609,0.7281284407754299,B,2063.217999995686,Correct,sub_006_day_19_data.csv,1,300,168.0,Training at home,,,,,,,,,,,,,
6,19,4208,B,48.63395539096191,39.22941627089619,2.4316977695480957,0.6162142298063168,B,3169.215700007044,Correct,sub_006_day_19_data.csv,1,300,168.0,Training at home,,,,,,,,,,,,,
6,19,4209,A,37.14769103159834,51.37103234330068,1.8573845515799172,0.8069342890851854,A,624.8459999915212,Correct,sub_006_day_19_data.csv,1,300,168.0,Training at home,,,,,,,,,,,,,
6,19,4210,B,57.422630249315525,48.60886053829908,2.871131512465776,0.763546195832456,B,505.6188000016846,Correct,sub_006_day_19_data.csv,1,300,168.0,Training at home,,,,,,,,,,,,,
6,19,4211,A,65.83508182781718,84.08410282872099,3.291754091390859,1.320789998651993,A,613.8834999874234,Correct,sub_006_day_19_data.csv,1,300,168.0,Training at home,,,,,,,,,,,,,
6,19,4212,A,54.36734108088859,65.83935609101067,2.7183670540444296,1.0342021870630076,B,569.2813000059687,Incorrect,sub_006_day_19_data.csv,0,300,168.0,Training at home,,,,,,,,,,,,,
6,19,4213,B,75.40907913882198,45.84287517473432,3.770453956941099,0.7200981993418962,B,736.4578999695368,Correct,sub_006_day_19_data.csv,1,300,168.0,Training at home,,,,,,,,,,,,,
6,19,4214,A,23.888505877957737,39.788889294921475,1.194425293897887,0.6250024115171142,A,510.1576999877579,Correct,sub_006_day_19_data.csv,1,300,168.0,Training at home,,,,,,,,,,,,,
6,19,4215,A,47.54947992386349,74.0964591808872,2.3774739961931743,1.163904459098456,A,586.8594000348821,Correct,sub_006_day_19_data.csv,1,300,168.0,Training at home,,,,,,,,,,,,,
6,19,4216,A,37.92700525794318,70.44082504503479,1.896350262897159,1.106481892371426,A,776.4002999756485,Correct,sub_006_day_19_data.csv,1,300,168.0,Training at home,,,,,,,,,,,,,
6,19,4217,A,39.75088398012994,66.89561498018409,1.987544199006497,1.0507938628955882,A,653.7651999969967,Correct,sub_006_day_19_data.csv,1,300,168.0,Training at home,,,,,,,,,,,,,
6,19,4218,B,63.555169251778175,51.383087108932166,3.1777584625889084,0.8071236449009285,B,2905.729199992493,Correct,sub_006_day_19_data.csv,1,300,168.0,Training at home,,,,,,,,,,,,,
6,19,4219,B,52.6650102596677,31.100866355339207,2.633250512983385,0.4885312663110581,B,1050.8205000078306,Correct,sub_006_day_19_data.csv,1,300,168.0,Training at home,,,,,,,,,,,,,
6,19,4220,B,36.2624602341764,23.203836030740977,1.81312301170882,0.36448500404639,B,601.1792999925092,Correct,sub_006_day_19_data.csv,1,300,168.0,Training at home,,,,,,,,,,,,,
6,19,4221,A,40.23485361221283,48.47865322091072,2.0117426806106415,0.7615009040737015,A,563.1536999717355,Correct,sub_006_day_19_data.csv,1,300,168.0,Training at home,,,,,,,,,,,,,
6,19,4222,B,75.12608193151576,57.53470092295274,3.756304096575787,0.9037529687301707,B,636.6882000002079,Correct,sub_006_day_19_data.csv,1,300,168.0,Training at home,,,,,,,,,,,,,
6,19,4223,B,57.02442466326695,45.87433955941087,2.8512212331633475,0.7205924407406441,B,617.6566000212915,Correct,sub_006_day_19_data.csv,1,300,168.0,Training at home,,,,,,,,,,,,,
6,19,4224,A,52.17786825448361,59.64138086429588,2.6088934127241803,0.936844619866114,A,996.1649000179024,Correct,sub_006_day_19_data.csv,1,300,168.0,Training at home,,,,,,,,,,,,,
6,19,4225,A,18.39924479302173,33.57057415322652,0.9199622396510864,0.5273253456828391,A,900.9174000239,Correct,sub_006_day_19_data.csv,1,300,169.0,Training at home,,,,,,,,,,,,,
6,19,4226,B,67.77273420229658,47.813376613898626,3.388636710114829,0.7510507635677297,B,1162.3054000083357,Correct,sub_006_day_19_data.csv,1,300,169.0,Training at home,,,,,,,,,,,,,
6,19,4227,B,59.56386042914126,28.121355930342304,2.978193021457063,0.4417292259987357,B,933.6284000310116,Correct,sub_006_day_19_data.csv,1,300,169.0,Training at home,,,,,,,,,,,,,
6,19,4228,A,37.88774920283528,60.0603152910591,1.894387460141764,0.94342522645339,A,600.2223999821581,Correct,sub_006_day_19_data.csv,1,300,169.0,Training at home,,,,,,,,,,,,,
6,19,4229,A,28.534323544149768,39.59101399686857,1.4267161772074883,0.6218941936036648,A,1074.1904999595135,Correct,sub_006_day_19_data.csv,1,300,169.0,Training at home,,,,,,,,,,,,,
6,19,4230,A,40.64114949449632,73.60776382370663,2.032057474724816,1.1562280503786466,A,576.6653000027873,Correct,sub_006_day_19_data.csv,1,300,169.0,Training at home,,,,,,,,,,,,,
6,19,4231,A,31.63090710704624,40.0610718102337,1.5815453553523122,0.6292778444698168,A,583.7387000210583,Correct,sub_006_day_19_data.csv,1,300,169.0,Training at home,,,,,,,,,,,,,
6,19,4232,A,59.1862671190967,84.35752550971146,2.959313355954835,1.3250849120816155,A,783.6078999680467,Correct,sub_006_day_19_data.csv,1,300,169.0,Training at home,,,,,,,,,,,,,
6,19,4233,B,52.271705795303944,29.673152904910687,2.613585289765197,0.4661047958745702,B,922.9293999960646,Correct,sub_006_day_19_data.csv,1,300,169.0,Training at home,,,,,,,,,,,,,
6,19,4234,B,47.00768898420745,37.41623172121013,2.3503844492103725,0.5877327935018356,B,923.7288999720477,Correct,sub_006_day_19_data.csv,1,300,169.0,Training at home,,,,,,,,,,,,,
6,19,4235,A,35.1199466337691,49.212746612979586,1.7559973316884552,0.7730320161115631,B,759.3426000094041,Incorrect,sub_006_day_19_data.csv,0,300,169.0,Training at home,,,,,,,,,,,,,
6,19,4236,B,46.14201580975362,21.306124860812982,2.3071007904876812,0.3346758266959846,B,535.7811999856494,Correct,sub_006_day_19_data.csv,1,300,169.0,Training at home,,,,,,,,,,,,,
6,19,4237,B,60.18931695069499,38.19117070548386,3.0094658475347495,0.599905506601709,B,801.2292999774218,Correct,sub_006_day_19_data.csv,1,300,169.0,Training at home,,,,,,,,,,,,,
6,19,4238,B,71.51540656856312,55.28861971393622,3.5757703284281557,0.8684716076021092,A,1225.577200006228,Incorrect,sub_006_day_19_data.csv,0,300,169.0,Training at home,,,,,,,,,,,,,
6,19,4239,B,70.26936212585613,59.956226751967094,3.5134681062928066,0.9417902075047182,A,1093.9752999693155,Incorrect,sub_006_day_19_data.csv,0,300,169.0,Training at home,,,,,,,,,,,,,
6,19,4240,A,44.47692620825174,76.22531566946559,2.223846310412587,1.19734445862378,A,1969.0588000230491,Correct,sub_006_day_19_data.csv,1,300,169.0,Training at home,,,,,,,,,,,,,
6,19,4241,A,21.00256499899374,35.340514632083064,1.050128249949687,0.5551275057111738,A,1311.0863999463618,Correct,sub_006_day_19_data.csv,1,300,169.0,Training at home,,,,,,,,,,,,,
6,19,4242,A,45.48245890370087,77.24200682251342,2.274122945185044,1.213314605910704,A,1056.5267999772914,Correct,sub_006_day_19_data.csv,1,300,169.0,Training at home,,,,,,,,,,,,,
6,19,4243,B,63.357182786751515,53.738428882764715,3.1678591393375757,0.8441212669677559,B,777.3536000167951,Correct,sub_006_day_19_data.csv,1,300,169.0,Training at home,,,,,,,,,,,,,
6,19,4244,B,58.98382891838901,49.44792013593751,2.9491914459194506,0.7767261131717804,B,522.9947000043467,Correct,sub_006_day_19_data.csv,1,300,169.0,Training at home,,,,,,,,,,,,,
6,19,4245,B,59.765149490191405,27.771118060997992,2.9882574745095702,0.4362277024120305,B,520.1543999719433,Correct,sub_006_day_19_data.csv,1,300,169.0,Training at home,,,,,,,,,,,,,
6,19,4246,A,19.650034141594833,48.3003923574494,0.9825017070797416,0.758700788978338,A,652.0505000371486,Correct,sub_006_day_19_data.csv,1,300,169.0,Training at home,,,,,,,,,,,,,
6,19,4247,B,53.54171268473003,31.536510083791526,2.6770856342365015,0.4953743419954994,B,456.3938000355847,Correct,sub_006_day_19_data.csv,1,300,169.0,Training at home,,,,,,,,,,,,,
6,19,4248,A,39.36953858926054,60.467018118261635,1.968476929463027,0.9498136995240584,B,851.15240002051,Incorrect,sub_006_day_19_data.csv,0,300,169.0,Training at home,,,,,,,,,,,,,
6,19,4249,A,15.56160681963042,30.85993070731695,0.7780803409815209,0.4847466580019849,A,643.910999991931,Correct,sub_006_day_19_data.csv,1,300,169.0,Training at home,,,,,,,,,,,,,
6,19,4250,B,63.6734456948775,54.5854585478323,3.183672284743875,0.8574263778335007,B,537.3096999828704,Correct,sub_006_day_19_data.csv,1,300,170.0,Training at home,,,,,,,,,,,,,
6,19,4251,A,42.46030412418908,67.15330996537833,2.1230152062094536,1.054841726257354,A,1159.804399998393,Correct,sub_006_day_19_data.csv,1,300,170.0,Training at home,,,,,,,,,,,,,
6,19,4252,A,47.1833333895354,78.7450041508346,2.3591666694767697,1.2369236327357989,A,484.8248999915086,Correct,sub_006_day_19_data.csv,1,300,170.0,Training at home,,,,,,,,,,,,,
6,19,4253,A,36.78585103075105,50.73335514830676,1.8392925515375524,0.796917679129412,B,1340.9889999893494,Incorrect,sub_006_day_19_data.csv,0,300,170.0,Training at home,,,,,,,,,,,,,
6,19,4254,A,32.17668193936761,44.93949606244014,1.6088340969683803,0.7059079534289469,A,580.5475999950431,Correct,sub_006_day_19_data.csv,1,300,170.0,Training at home,,,,,,,,,,,,,
6,19,4255,B,67.54206072274592,58.672215218114786,3.377103036137296,0.9216210014953434,B,696.3719999766909,Correct,sub_006_day_19_data.csv,1,300,170.0,Training at home,,,,,,,,,,,,,
6,19,4256,A,38.32932013121171,52.40232750987256,1.9164660065605856,0.8231338356801097,A,522.9322000523098,Correct,sub_006_day_19_data.csv,1,300,170.0,Training at home,,,,,,,,,,,,,
6,19,4257,B,60.95222114303506,33.601371167294154,3.047611057151753,0.5278091040485761,B,529.1896999697201,Correct,sub_006_day_19_data.csv,1,300,170.0,Training at home,,,,,,,,,,,,,
6,19,4258,B,67.86006515318188,55.38134055219043,3.3930032576590943,0.8699280631235798,B,495.57070003356785,Correct,sub_006_day_19_data.csv,1,300,170.0,Training at home,,,,,,,,,,,,,
6,19,4259,B,55.58682242368268,38.987330537809584,2.779341121184134,0.6124115560032979,B,767.4901999998838,Correct,sub_006_day_19_data.csv,1,300,170.0,Training at home,,,,,,,,,,,,,
6,19,4260,A,51.84503200857178,76.5621561283755,2.5922516004285887,1.2026355361794965,A,1177.1188999991864,Correct,sub_006_day_19_data.csv,1,300,170.0,Training at home,,,,,,,,,,,,,
6,19,4261,B,44.35650402688047,33.8979917298901,2.2178252013440236,0.5324684089503515,B,491.8414999847301,Correct,sub_006_day_19_data.csv,1,300,170.0,Training at home,,,,,,,,,,,,,
6,19,4262,B,45.14729608371065,25.840052844866182,2.2573648041855323,0.4058946009290182,B,507.7255999785848,Correct,sub_006_day_19_data.csv,1,300,170.0,Training at home,,,,,,,,,,,,,
6,19,4263,B,72.1131904247173,53.148054529610974,3.605659521235865,0.8348476883140777,B,454.0870999917388,Correct,sub_006_day_19_data.csv,1,300,170.0,Training at home,,,,,,,,,,,,,
6,19,4264,B,69.03293879146574,46.8846682480999,3.4516469395732874,0.7364626466711266,B,564.230400021188,Correct,sub_006_day_19_data.csv,1,300,170.0,Training at home,,,,,,,,,,,,,
6,19,4265,B,82.601824824205,53.938797151958575,4.130091241210249,0.8472686443803156,B,702.3145999992266,Correct,sub_006_day_19_data.csv,1,300,170.0,Training at home,,,,,,,,,,,,,
6,19,4266,A,52.44169903873483,76.0154407889147,2.6220849519367415,1.1940477517092218,B,615.6353999977,Incorrect,sub_006_day_19_data.csv,0,300,170.0,Training at home,,,,,,,,,,,,,
6,19,4267,A,59.273108570383506,84.11427800822437,2.9636554285191754,1.3212639892632358,A,770.4181000008248,Correct,sub_006_day_19_data.csv,1,300,170.0,Training at home,,,,,,,,,,,,,
6,19,4268,B,78.58477222796836,66.59464003376355,3.929238611398418,1.0460661594926417,B,659.2025999561884,Correct,sub_006_day_19_data.csv,1,300,170.0,Training at home,,,,,,,,,,,,,
6,19,4269,B,31.19692133700967,15.138390249983535,1.5598460668504834,0.2377932779826181,B,802.8296999982558,Correct,sub_006_day_19_data.csv,1,300,170.0,Training at home,,,,,,,,,,,,,
6,19,4270,B,75.41522333556712,54.67640895280931,3.770761166778356,0.8588550234540845,B,1218.7814000062644,Correct,sub_006_day_19_data.csv,1,300,170.0,Training at home,,,,,,,,,,,,,
6,19,4271,B,36.0585026090989,20.82227127563105,1.802925130454945,0.3270754723528813,B,709.7427000408061,Correct,sub_006_day_19_data.csv,1,300,170.0,Training at home,,,,,,,,,,,,,
6,19,4272,B,75.68863259599676,44.98431512431094,3.784431629799838,0.7066119696065173,B,870.4850999638438,Correct,sub_006_day_19_data.csv,1,300,170.0,Training at home,,,,,,,,,,,,,
6,19,4273,B,67.31083237090712,55.082306967554835,3.365541618545356,0.8652308545602407,B,510.9451999887824,Correct,sub_006_day_19_data.csv,1,300,170.0,Training at home,,,,,,,,,,,,,
6,19,4274,B,63.43742929382987,40.44234561866617,3.1718714646914936,0.635266879447705,B,514.6532000508159,Correct,sub_006_day_19_data.csv,1,300,170.0,Training at home,,,,,,,,,,,,,
6,19,4275,B,52.98792591747957,26.41419058680601,2.6493962958739785,0.4149131354901521,B,465.0545000331476,Correct,sub_006_day_19_data.csv,1,300,171.0,Training at home,,,,,,,,,,,,,
6,19,4276,A,63.394869918296486,85.50989885510555,3.1697434959148243,1.3431863502620294,A,598.5143999569118,Correct,sub_006_day_19_data.csv,1,300,171.0,Training at home,,,,,,,,,,,,,
6,19,4277,A,35.741613564978394,63.46015302766857,1.7870806782489197,0.9968297527370382,A,813.8383000041358,Correct,sub_006_day_19_data.csv,1,300,171.0,Training at home,,,,,,,,,,,,,
6,19,4278,B,60.036396066969374,33.0498172648893,3.0018198033484684,0.5191453156093067,B,510.2011999697425,Correct,sub_006_day_19_data.csv,1,300,171.0,Training at home,,,,,,,,,,,,,
6,19,4279,B,33.164897059855626,19.882333955324917,1.6582448529927811,0.3123109714513382,B,655.412400024943,Correct,sub_006_day_19_data.csv,1,300,171.0,Training at home,,,,,,,,,,,,,
6,19,4280,B,77.06869126864244,59.751657105527386,3.8534345634321223,0.938576835012706,B,2151.7565000103787,Correct,sub_006_day_19_data.csv,1,300,171.0,Training at home,,,,,,,,,,,,,
6,19,4281,A,29.91175461261535,42.27174221052693,1.495587730630768,0.6640029739151647,A,586.1634000320919,Correct,sub_006_day_19_data.csv,1,300,171.0,Training at home,,,,,,,,,,,,,
6,19,4282,A,66.85216416746105,83.27719025457654,3.342608208373053,1.308115045576886,A,658.2243999582715,Correct,sub_006_day_19_data.csv,1,300,171.0,Training at home,,,,,,,,,,,,,
6,19,4283,A,59.84569468359176,68.96774463924274,2.992284734179588,1.0833427994665092,A,1206.7970999632962,Correct,sub_006_day_19_data.csv,1,300,171.0,Training at home,,,,,,,,,,,,,
6,19,4284,A,35.390535882677625,68.20090210563767,1.7695267941338813,1.0712972651163395,A,599.6906000073068,Correct,sub_006_day_19_data.csv,1,300,171.0,Training at home,,,,,,,,,,,,,
6,19,4285,A,17.723948108386423,42.006281479949585,0.8861974054193211,0.659833126510173,A,608.3162000286393,Correct,sub_006_day_19_data.csv,1,300,171.0,Training at home,,,,,,,,,,,,,
6,19,4286,B,71.65070788309171,53.531205555108535,3.582535394154586,0.8408662105486706,B,589.5713999634609,Correct,sub_006_day_19_data.csv,1,300,171.0,Training at home,,,,,,,,,,,,,
6,19,4287,B,75.12001984297373,45.34016322310952,3.756000992148687,0.7122016184714149,B,479.30790000827983,Correct,sub_006_day_19_data.csv,1,300,171.0,Training at home,,,,,,,,,,,,,
6,19,4288,A,35.9677754836127,47.03287232547198,1.7983887741806348,0.7387906308746472,A,1100.4543000017293,Correct,sub_006_day_19_data.csv,1,300,171.0,Training at home,,,,,,,,,,,,,
6,19,4289,B,75.0727973630908,50.37925402816788,3.75363986815454,0.791355471741131,B,520.6298000412062,Correct,sub_006_day_19_data.csv,1,300,171.0,Training at home,,,,,,,,,,,,,
6,19,4290,B,35.911910012175724,13.181844840376396,1.7955955006087865,0.207059934556435,B,747.1926999860443,Correct,sub_006_day_19_data.csv,1,300,171.0,Training at home,,,,,,,,,,,,,
6,19,4291,B,45.31810685773106,31.88116887720252,2.265905342886553,0.500788229662375,B,2552.054500032682,Correct,sub_006_day_19_data.csv,1,300,171.0,Training at home,,,,,,,,,,,,,
6,19,4292,A,43.074542798418214,59.80424569831979,2.153727139920911,0.9394028946966022,A,570.3075000201352,Correct,sub_006_day_19_data.csv,1,300,171.0,Training at home,,,,,,,,,,,,,
6,19,4293,B,49.50644232003054,34.58562918557397,2.475322116001527,0.5432697928458997,B,607.1877999929711,Correct,sub_006_day_19_data.csv,1,300,171.0,Training at home,,,,,,,,,,,,,
6,19,4294,A,27.645007648534055,58.755467515138086,1.3822503824267027,0.9229287255189575,A,653.7894000066444,Correct,sub_006_day_19_data.csv,1,300,171.0,Training at home,,,,,,,,,,,,,
6,19,4295,A,61.94886879548494,82.62382178839032,3.097443439774247,1.2978519577095964,A,642.443600052502,Correct,sub_006_day_19_data.csv,1,300,171.0,Training at home,,,,,,,,,,,,,
6,19,4296,A,60.69682728183219,85.4548679185369,3.0348413640916094,1.3423219263318082,A,614.9700999958441,Correct,sub_006_day_19_data.csv,1,300,171.0,Training at home,,,,,,,,,,,,,
6,19,4297,A,26.41438128008657,40.43856310988632,1.3207190640043285,0.6352074639387304,A,774.6272999793291,Correct,sub_006_day_19_data.csv,1,300,171.0,Training at home,,,,,,,,,,,,,
6,19,4298,B,50.644657829002,22.195131604197844,2.5322328914501,0.3486403119660329,B,552.10619996069,Correct,sub_006_day_19_data.csv,1,300,171.0,Training at home,,,,,,,,,,,,,
6,19,4299,A,25.81344816240253,35.987613657143456,1.2906724081201264,0.5652921134275479,A,695.6076999776997,Correct,sub_006_day_19_data.csv,1,300,171.0,Training at home,,,,,,,,,,,,,
6,19,4300,A,37.11391912341581,54.458361175056915,1.8556959561707904,0.8554299369704921,A,648.9628999843262,Correct,sub_006_day_19_data.csv,1,300,172.0,Training at home,,,,,,,,,,,,,
6,19,4301,A,16.842617653484556,46.00642236234583,0.8421308826742278,0.7226671925574741,A,678.650900023058,Correct,sub_006_day_19_data.csv,1,300,172.0,Training at home,,,,,,,,,,,,,
6,19,4302,A,54.2961447998853,67.24022333364248,2.7148072399942644,1.056206958253541,A,965.2636999962853,Correct,sub_006_day_19_data.csv,1,300,172.0,Training at home,,,,,,,,,,,,,
6,19,4303,B,51.45897286499123,28.986551002635487,2.572948643249562,0.4553196784139275,B,728.9049999671988,Correct,sub_006_day_19_data.csv,1,300,172.0,Training at home,,,,,,,,,,,,,
6,19,4304,A,40.84178043251188,55.08645156573004,2.042089021625594,0.8652959577561372,B,994.9818999739364,Incorrect,sub_006_day_19_data.csv,0,300,172.0,Training at home,,,,,,,,,,,,,
6,19,4305,B,78.1559055111698,58.806976092875786,3.9077952755584904,0.9237378203660458,B,645.9212999907322,Correct,sub_006_day_19_data.csv,1,300,172.0,Training at home,,,,,,,,,,,,,
6,19,4306,B,68.93311913838046,40.99314601939539,3.446655956919023,0.6439188319103312,B,572.6512999972329,Correct,sub_006_day_19_data.csv,1,300,172.0,Training at home,,,,,,,,,,,,,
6,19,4307,A,24.417825672918703,45.563592293795665,1.2208912836459351,0.7157112341067449,A,554.56260003848,Correct,sub_006_day_19_data.csv,1,300,172.0,Training at home,,,,,,,,,,,,,
6,19,4308,B,46.755757075373715,36.39869175211528,2.3377878537686856,0.5717493130436238,B,469.8962999973446,Correct,sub_006_day_19_data.csv,1,300,172.0,Training at home,,,,,,,,,,,,,
6,19,4309,B,35.18900710899263,19.360153820086357,1.7594503554496312,0.3041085850677583,B,594.1288999747485,Correct,sub_006_day_19_data.csv,1,300,172.0,Training at home,,,,,,,,,,,,,
6,19,4310,B,46.27699324431828,34.732399622274556,2.313849662215914,0.5455752574744133,B,502.6426000404171,Correct,sub_006_day_19_data.csv,1,300,172.0,Training at home,,,,,,,,,,,,,
6,19,4311,A,32.400598715156896,50.94300598518474,1.6200299357578447,0.8002108667741862,A,653.323000005912,Correct,sub_006_day_19_data.csv,1,300,172.0,Training at home,,,,,,,,,,,,,
6,19,4312,B,47.82260560584649,25.84105442115324,2.3911302802923244,0.4059103336525453,B,636.4569999859668,Correct,sub_006_day_19_data.csv,1,300,172.0,Training at home,,,,,,,,,,,,,
6,19,4313,B,39.34157847492351,12.731444154079156,1.9670789237461752,0.1999850571202189,B,698.9072000142187,Correct,sub_006_day_19_data.csv,1,300,172.0,Training at home,,,,,,,,,,,,,
6,19,4314,B,75.81920958234747,64.77956773281997,3.7909604791173734,1.017555070460748,A,536.7652000277303,Incorrect,sub_006_day_19_data.csv,0,300,172.0,Training at home,,,,,,,,,,,,,
6,19,4315,A,26.694402554858957,46.21434757033917,1.334720127742948,0.7259332740871143,A,1278.6635999800635,Correct,sub_006_day_19_data.csv,1,300,172.0,Training at home,,,,,,,,,,,,,
6,19,4316,B,67.19049895309458,56.79275645026517,3.3595249476547284,0.8920985322063371,B,570.0771000119857,Correct,sub_006_day_19_data.csv,1,300,172.0,Training at home,,,,,,,,,,,,,
6,19,4317,A,52.30447365966121,66.42747871218046,2.6152236829830606,1.0434403955933924,A,794.4947000360116,Correct,sub_006_day_19_data.csv,1,300,172.0,Training at home,,,,,,,,,,,,,
6,19,4318,B,77.30503562787712,65.40787975738715,3.865251781393856,1.02742457266346,B,656.4382000360638,Correct,sub_006_day_19_data.csv,1,300,172.0,Training at home,,,,,,,,,,,,,
6,19,4319,B,76.58021912322644,58.76060129897163,3.8290109561613224,0.9230093668068408,B,489.5390999736264,Correct,sub_006_day_19_data.csv,1,300,172.0,Training at home,,,,,,,,,,,,,
6,19,4320,A,35.55328747600498,60.871935865543506,1.777664373800249,0.9561741326249024,A,547.6140999817289,Correct,sub_006_day_19_data.csv,1,300,172.0,Training at home,,,,,,,,,,,,,
6,19,4321,B,67.99058912439655,41.71936330920473,3.3995294562198275,0.6553262264232057,B,497.08910001209006,Correct,sub_006_day_19_data.csv,1,300,172.0,Training at home,,,,,,,,,,,,,
6,19,4322,A,18.274350695738985,39.459223664268805,0.9137175347869492,0.619824035900117,A,493.5667000245303,Correct,sub_006_day_19_data.csv,1,300,172.0,Training at home,,,,,,,,,,,,,
6,19,4323,B,45.10044426659003,26.902730301800695,2.255022213329502,0.4225870993882229,B,490.9548000432551,Correct,sub_006_day_19_data.csv,1,300,172.0,Training at home,,,,,,,,,,,,,
6,19,4324,A,40.509606519792406,62.04347943757551,2.0254803259896206,0.974576696021183,A,612.8061999916099,Correct,sub_006_day_19_data.csv,1,300,172.0,Training at home,,,,,,,,,,,,,
6,19,4325,B,73.435065097813,59.95504858128707,3.6717532548906497,0.9417717008429533,B,549.9052000232041,Correct,sub_006_day_19_data.csv,1,300,173.0,Training at home,,,,,,,,,,,,,
6,19,4326,B,81.14220652850193,65.0495190552956,4.0571103264250965,1.0217954559183295,B,629.4134000199847,Correct,sub_006_day_19_data.csv,1,300,173.0,Training at home,,,,,,,,,,,,,
6,19,4327,B,54.72748071345151,29.014578844290952,2.736374035672576,0.4557599387211314,B,551.032799994573,Correct,sub_006_day_19_data.csv,1,300,173.0,Training at home,,,,,,,,,,,,,
6,19,4328,A,18.526928262595533,43.14351333659342,0.9263464131297766,0.6776967227414759,A,465.0761000229977,Correct,sub_006_day_19_data.csv,1,300,173.0,Training at home,,,,,,,,,,,,,
6,19,4329,A,43.01979436678515,65.83044221746621,2.1509897183392575,1.034062168264796,A,584.1402999940328,Correct,sub_006_day_19_data.csv,1,300,173.0,Training at home,,,,,,,,,,,,,
6,19,4330,A,23.419655684770817,53.050125207037986,1.1709827842385407,0.8333094181122462,A,596.8796999659389,Correct,sub_006_day_19_data.csv,1,300,173.0,Training at home,,,,,,,,,,,,,
6,19,4331,A,16.241398478697747,35.34413396609133,0.8120699239348873,0.5551843580768299,A,664.4252999685705,Correct,sub_006_day_19_data.csv,1,300,173.0,Training at home,,,,,,,,,,,,,
6,19,4332,B,32.36840749564777,12.00262966396424,1.6184203747823886,0.1885368658803449,B,561.2134999828413,Correct,sub_006_day_19_data.csv,1,300,173.0,Training at home,,,,,,,,,,,,,
6,19,4333,B,34.18798194529519,11.014300404622016,1.7093990972647597,0.173012226177958,B,563.6861999519169,Correct,sub_006_day_19_data.csv,1,300,173.0,Training at home,,,,,,,,,,,,,
6,19,4334,B,66.12817909413637,56.32419653910437,3.3064089547068187,0.8847384103329896,A,501.2872999650426,Incorrect,sub_006_day_19_data.csv,0,300,173.0,Training at home,,,,,,,,,,,,,
6,19,4335,A,64.994819872839,75.8340449267726,3.24974099364195,1.1911983921697358,A,770.5358000239357,Correct,sub_006_day_19_data.csv,1,300,173.0,Training at home,,,,,,,,,,,,,
6,19,4336,B,61.74200133180584,36.10418264931289,3.087100066590292,0.5671231748747272,B,1323.7080999533646,Correct,sub_006_day_19_data.csv,1,300,173.0,Training at home,,,,,,,,,,,,,
6,19,4337,A,51.18443864966033,80.71244795564857,2.5592219324830165,1.2678281677535703,A,1286.1158000305295,Correct,sub_006_day_19_data.csv,1,300,173.0,Training at home,,,,,,,,,,,,,
6,19,4338,B,78.14656311629872,56.7415977685268,3.907328155814936,0.891294933512754,B,513.377399998717,Correct,sub_006_day_19_data.csv,1,300,173.0,Training at home,,,,,,,,,,,,,
6,19,4339,A,13.936932509295694,32.88570548779839,0.6968466254647848,0.5165674538429248,A,1725.5457999999635,Correct,sub_006_day_19_data.csv,1,300,173.0,Training at home,,,,,,,,,,,,,
6,19,4340,A,31.936089279118804,63.33566252021929,1.59680446395594,0.9948742604188164,A,993.1611000210978,Correct,sub_006_day_19_data.csv,1,300,173.0,Training at home,,,,,,,,,,,,,
6,19,4341,B,38.377872197844994,11.974869829055372,1.9188936098922496,0.1881008154132721,A,521.6173999942839,Incorrect,sub_006_day_19_data.csv,0,300,173.0,Training at home,,,,,,,,,,,,,
6,19,4342,B,77.24512372374905,64.42547794486694,3.862256186187452,1.011993041078026,A,655.4402000037953,Incorrect,sub_006_day_19_data.csv,0,300,173.0,Training at home,,,,,,,,,,,,,
6,19,4343,A,15.499251304614669,34.36792605671048,0.7749625652307333,0.5398501200943944,A,714.1986999777146,Correct,sub_006_day_19_data.csv,1,300,173.0,Training at home,,,,,,,,,,,,,
6,19,4344,A,53.10823708018567,65.18940054699875,2.6554118540092833,1.0239927092518688,B,536.2116999458522,Incorrect,sub_006_day_19_data.csv,0,300,173.0,Training at home,,,,,,,,,,,,,
6,19,4345,A,37.24393058384646,61.42372641994471,1.8621965291923233,0.964841638385038,A,1164.275599992834,Correct,sub_006_day_19_data.csv,1,300,173.0,Training at home,,,,,,,,,,,,,
6,19,4346,B,83.88401467548056,67.1771863448763,4.194200733774028,1.0552167755494797,B,1138.674699992407,Correct,sub_006_day_19_data.csv,1,300,173.0,Training at home,,,,,,,,,,,,,
6,19,4347,A,25.590248989474706,50.87087202111685,1.279512449473735,0.7990777891162364,A,985.8484999858774,Correct,sub_006_day_19_data.csv,1,300,173.0,Training at home,,,,,,,,,,,,,
6,19,4348,B,66.2358509506838,36.15741252850925,3.31179254753419,0.567959307861901,B,530.1519999629818,Correct,sub_006_day_19_data.csv,1,300,173.0,Training at home,,,,,,,,,,,,,
6,19,4349,A,62.31194185251917,86.21658330938604,3.115597092625958,1.3542869237118975,A,558.4272000123747,Correct,sub_006_day_19_data.csv,1,300,173.0,Training at home,,,,,,,,,,,,,
6,19,4350,B,49.73146318620038,30.86302363888409,2.486573159310019,0.4847952416574319,B,541.2947000004351,Correct,sub_006_day_19_data.csv,1,300,174.0,Training at home,,,,,,,,,,,,,
6,19,4351,A,44.57761586064984,75.03520643136439,2.2288807930324923,1.1786502664268397,A,598.4876999864355,Correct,sub_006_day_19_data.csv,1,300,174.0,Training at home,,,,,,,,,,,,,
6,19,4352,A,29.328479542639077,48.57470366292267,1.4664239771319538,0.7630096608886954,B,800.6637999787927,Incorrect,sub_006_day_19_data.csv,0,300,174.0,Training at home,,,,,,,,,,,,,
6,19,4353,B,70.74469863293388,40.46939612251313,3.537234931646694,0.6356917877685125,B,719.8139000101946,Correct,sub_006_day_19_data.csv,1,300,174.0,Training at home,,,,,,,,,,,,,
6,19,4354,B,65.44713881016592,38.056517986931155,3.2723569405082964,0.5977903866447536,B,544.5203999988735,Correct,sub_006_day_19_data.csv,1,300,174.0,Training at home,,,,,,,,,,,,,
6,19,4355,A,57.472738313895555,68.43607653433017,2.873636915694778,1.0749913764038024,A,742.6470000064,Correct,sub_006_day_19_data.csv,1,300,174.0,Training at home,,,,,,,,,,,,,
6,19,4356,A,48.81439416212996,63.29505161743569,2.440719708106498,0.9942363458496136,B,597.5248999893665,Incorrect,sub_006_day_19_data.csv,0,300,174.0,Training at home,,,,,,,,,,,,,
6,19,4357,A,23.11404575610235,52.42728708817721,1.1557022878051173,0.8235258998193026,A,601.8582000397146,Correct,sub_006_day_19_data.csv,1,300,174.0,Training at home,,,,,,,,,,,,,
6,19,4358,B,69.89456811428235,50.66881790603523,3.4947284057141177,0.7959039304983963,B,593.4047999908216,Correct,sub_006_day_19_data.csv,1,300,174.0,Training at home,,,,,,,,,,,,,
6,19,4359,B,56.91456091710474,29.901988976321853,2.8457280458552368,0.4696993444786785,B,578.9823000086471,Correct,sub_006_day_19_data.csv,1,300,174.0,Training at home,,,,,,,,,,,,,
6,19,4360,B,43.30739170179778,34.43588062458417,2.165369585089889,0.5409175479504437,B,605.9414999908768,Correct,sub_006_day_19_data.csv,1,300,174.0,Training at home,,,,,,,,,,,,,
6,19,4361,B,45.988502686849635,16.535608363521966,2.299425134342482,0.2597407287873928,B,509.8189999698661,Correct,sub_006_day_19_data.csv,1,300,174.0,Training at home,,,,,,,,,,,,,
6,19,4362,A,22.97137047711056,55.32151266122357,1.148568523855528,0.8689882888098736,A,548.313999956008,Correct,sub_006_day_19_data.csv,1,300,174.0,Training at home,,,,,,,,,,,,,
6,19,4363,B,68.08352608452415,35.03248931422169,3.404176304226207,0.550289055332609,B,871.9188999966718,Correct,sub_006_day_19_data.csv,1,300,174.0,Training at home,,,,,,,,,,,,,
6,19,4364,B,74.82424682322231,43.73668546306534,3.741212341161116,0.6870142487156679,B,739.8009999888018,Correct,sub_006_day_19_data.csv,1,300,174.0,Training at home,,,,,,,,,,,,,
6,19,4365,A,33.585295333663815,65.7352380076962,1.6792647666831908,1.0325667040347746,A,1164.467299997341,Correct,sub_006_day_19_data.csv,1,300,174.0,Training at home,,,,,,,,,,,,,
6,19,4366,A,45.636949325485354,61.019509653185736,2.2818474662742676,0.9584922162604989,A,2720.5802999669686,Correct,sub_006_day_19_data.csv,1,300,174.0,Training at home,,,,,,,,,,,,,
6,19,4367,B,43.52122222918666,34.58553816059497,2.176061111459333,0.5432683630288732,B,1353.6103999940678,Correct,sub_006_day_19_data.csv,1,300,174.0,Training at home,,,,,,,,,,,,,
6,19,4368,A,44.27164037365674,61.376099039784584,2.2135820186828368,0.9640935092469344,A,672.0275999978185,Correct,sub_006_day_19_data.csv,1,300,174.0,Training at home,,,,,,,,,,,,,
6,19,4369,B,45.558857371545294,18.900287094831075,2.2779428685772647,0.2968850154392964,B,1769.6299999952316,Correct,sub_006_day_19_data.csv,1,300,174.0,Training at home,,,,,,,,,,,,,
6,19,4370,B,64.66043593744314,51.9618185803129,3.233021796872157,0.8162143375953832,A,1448.8081999588758,Incorrect,sub_006_day_19_data.csv,0,300,174.0,Training at home,,,,,,,,,,,,,
6,19,4371,A,35.84917658984313,58.98394959634507,1.7924588294921566,0.9265177136579416,A,685.2337999735028,Correct,sub_006_day_19_data.csv,1,300,174.0,Training at home,,,,,,,,,,,,,
6,19,4372,B,79.1749109876438,59.49727040299782,3.95874554938219,0.9345809380335168,B,1192.631599958986,Correct,sub_006_day_19_data.csv,1,300,174.0,Training at home,,,,,,,,,,,,,
6,19,4373,B,87.69804985158002,68.1202620595636,4.384902492579001,1.0700305742346825,B,1207.672399992589,Correct,sub_006_day_19_data.csv,1,300,174.0,Training at home,,,,,,,,,,,,,
6,19,4374,B,67.555636442051,38.860969960482734,3.3777818221025497,0.6104266886961309,B,2189.83859999571,Correct,sub_006_day_19_data.csv,1,300,174.0,Training at home,,,,,,,,,,,,,
6,19,4375,A,56.36678054493758,71.99798565454715,2.818339027246879,1.1309417140279432,A,2263.55119998334,Correct,sub_006_day_19_data.csv,1,300,175.0,Training at home,,,,,,,,,,,,,
6,19,4376,B,71.67293786001757,54.72358314808537,3.5836468930008785,0.859596033980676,B,2072.171800013166,Correct,sub_006_day_19_data.csv,1,300,175.0,Training at home,,,,,,,,,,,,,
6,19,4377,A,49.878582515053736,68.05902444252577,2.4939291257526865,1.0690686559956355,A,2977.9924999456853,Correct,sub_006_day_19_data.csv,1,300,175.0,Training at home,,,,,,,,,,,,,
6,19,4378,B,55.53830475202671,43.09267003496387,2.7769152376013357,0.6768980780270575,B,886.2175999674946,Correct,sub_006_day_19_data.csv,1,300,175.0,Training at home,,,,,,,,,,,,,
6,19,4379,A,55.206950673603984,80.709212503695,2.760347533680199,1.2677773453931285,A,762.149500020314,Correct,sub_006_day_19_data.csv,1,300,175.0,Training at home,,,,,,,,,,,,,
6,19,4380,B,68.72337090094618,55.97581823307486,3.436168545047309,0.879266096698528,B,515.3122000047006,Correct,sub_006_day_19_data.csv,1,300,175.0,Training at home,,,,,,,,,,,,,
6,19,4381,B,80.10279296019868,60.51624887950074,4.005139648009934,0.9505870145132552,B,447.94799998635426,Correct,sub_006_day_19_data.csv,1,300,175.0,Training at home,,,,,,,,,,,,,
6,19,4382,B,36.97297155693346,15.318389021854369,1.848648577846673,0.2406206920794411,B,616.4972999831662,Correct,sub_006_day_19_data.csv,1,300,175.0,Training at home,,,,,,,,,,,,,
6,19,4383,A,51.24343754313473,63.40826526500325,2.5621718771567368,0.9960147016670352,A,610.540600027889,Correct,sub_006_day_19_data.csv,1,300,175.0,Training at home,,,,,,,,,,,,,
6,19,4384,A,42.285316670166296,65.35551349466778,2.114265833508315,1.0266020053321845,A,441.12590001896024,Correct,sub_006_day_19_data.csv,1,300,175.0,Training at home,,,,,,,,,,,,,
6,19,4385,A,26.792629730007285,44.146625683055895,1.3396314865003642,0.6934535746333345,A,515.3848999761976,Correct,sub_006_day_19_data.csv,1,300,175.0,Training at home,,,,,,,,,,,,,
6,19,4386,B,36.00059736153539,25.820595949431613,1.8000298680767697,0.4055889727302236,B,594.0963000175543,Correct,sub_006_day_19_data.csv,1,300,175.0,Training at home,,,,,,,,,,,,,
6,19,4387,A,46.15833934890116,56.46975906251435,2.307916967445058,0.8870249011039035,B,572.5991999497637,Incorrect,sub_006_day_19_data.csv,0,300,175.0,Training at home,,,,,,,,,,,,,
6,19,4388,A,44.10021644176416,58.11727742495158,2.205010822088208,0.912904059024339,B,724.8589000082575,Incorrect,sub_006_day_19_data.csv,0,300,175.0,Training at home,,,,,,,,,,,,,
6,19,4389,A,51.68193469016073,81.47402358675606,2.584096734508037,1.2797909697927718,A,526.4124000095762,Correct,sub_006_day_19_data.csv,1,300,175.0,Training at home,,,,,,,,,,,,,
6,19,4390,B,55.75581421429851,41.37975804100458,2.787790710714926,0.6499917193447158,B,722.8402000037022,Correct,sub_006_day_19_data.csv,1,300,175.0,Training at home,,,,,,,,,,,,,
6,19,4391,B,66.77247944484643,37.74206781088589,3.3386239722423214,0.5928510148298347,B,450.3256999887526,Correct,sub_006_day_19_data.csv,1,300,175.0,Training at home,,,,,,,,,,,,,
6,19,4392,B,41.403224565463944,22.58413338862785,2.070161228273198,0.3547507377070261,B,431.27820000518113,Correct,sub_006_day_19_data.csv,1,300,175.0,Training at home,,,,,,,,,,,,,
6,19,4393,A,30.101586248388976,57.1472496645568,1.5050793124194488,0.897666898595167,A,543.187899980694,Correct,sub_006_day_19_data.csv,1,300,175.0,Training at home,,,,,,,,,,,,,
6,19,4394,B,63.25800637495119,38.10190411782354,3.162900318747559,0.5985033103216855,B,994.7751999716274,Correct,sub_006_day_19_data.csv,1,300,175.0,Training at home,,,,,,,,,,,,,
6,19,4395,B,39.715335995884246,15.811248609245467,1.985766799794212,0.2483625123744369,B,504.30029997369274,Correct,sub_006_day_19_data.csv,1,300,175.0,Training at home,,,,,,,,,,,,,
6,19,4396,A,65.35191322207392,81.83168184984464,3.267595661103696,1.2854090526518458,A,585.4020999977365,Correct,sub_006_day_19_data.csv,1,300,175.0,Training at home,,,,,,,,,,,,,
6,19,4397,A,40.2380968816973,61.11710533125214,2.011904844084865,0.9600252455866766,B,651.1237000231631,Incorrect,sub_006_day_19_data.csv,0,300,175.0,Training at home,,,,,,,,,,,,,
6,19,4398,A,17.87280867279653,38.964902709240285,0.8936404336398266,0.6120592604959515,A,639.8393000126816,Correct,sub_006_day_19_data.csv,1,300,175.0,Training at home,,,,,,,,,,,,,
6,19,4399,A,17.602462893032094,31.60999367061353,0.8801231446516047,0.4965286194780966,A,581.0262000304647,Correct,sub_006_day_19_data.csv,1,300,175.0,Training at home,,,,,,,,,,,,,
6,19,4400,B,67.34551508602334,46.22374740700412,3.367275754301167,0.7260809263761719,B,463.85000000009313,Correct,sub_006_day_19_data.csv,1,300,176.0,Training at home,,,,,,,,,,,,,
6,19,4401,B,87.72527144666898,65.02746699076098,4.3862635723334495,1.0214490628986377,B,469.1313999937847,Correct,sub_006_day_19_data.csv,1,300,176.0,Training at home,,,,,,,,,,,,,
6,19,4402,A,22.400826083686457,37.1279929635534,1.120041304184323,0.5832051496841645,A,658.3048999891616,Correct,sub_006_day_19_data.csv,1,300,176.0,Training at home,,,,,,,,,,,,,
6,19,4403,B,55.79377099110619,31.914970845636088,2.7896885495553096,0.5013191897409138,B,1950.469699979294,Correct,sub_006_day_19_data.csv,1,300,176.0,Training at home,,,,,,,,,,,,,
6,19,4404,A,31.433680276594455,57.80767188856468,1.5716840138297226,0.90804078663122,A,523.4112000325695,Correct,sub_006_day_19_data.csv,1,300,176.0,Training at home,,,,,,,,,,,,,
6,19,4405,A,44.257185359429855,75.84784015424063,2.212859267971493,1.1914150870960765,A,697.399900003802,Correct,sub_006_day_19_data.csv,1,300,176.0,Training at home,,,,,,,,,,,,,
6,19,4406,B,55.85815799026909,42.4201017656024,2.7929078995134544,0.6663334003567397,B,469.6847999584861,Correct,sub_006_day_19_data.csv,1,300,176.0,Training at home,,,,,,,,,,,,,
6,19,4407,A,39.129684877465735,51.74569395300588,1.9564842438732868,0.8128194598883454,B,661.1761000240222,Incorrect,sub_006_day_19_data.csv,0,300,176.0,Training at home,,,,,,,,,,,,,
6,19,4408,B,58.38736892017496,33.749632914165396,2.919368446008748,0.5301379941224714,B,2433.1782999797724,Correct,sub_006_day_19_data.csv,1,300,176.0,Training at home,,,,,,,,,,,,,
6,19,4409,A,40.163644428872466,47.16038698631812,2.008182221443623,0.7407936264833435,A,765.2590999496169,Correct,sub_006_day_19_data.csv,1,300,176.0,Training at home,,,,,,,,,,,,,
6,19,4410,B,44.87081321990728,37.51063292335738,2.243540660995364,0.5892156441176148,B,660.9890999970958,Correct,sub_006_day_19_data.csv,1,300,176.0,Training at home,,,,,,,,,,,,,
6,19,4411,B,65.90799918225657,48.37156815574344,3.2953999591128285,0.759818815803508,B,408.8782999897376,Correct,sub_006_day_19_data.csv,1,300,176.0,Training at home,,,,,,,,,,,,,
6,19,4412,A,23.744694664391616,42.406476482222565,1.1872347332195807,0.6661193749058937,A,580.7428000262007,Correct,sub_006_day_19_data.csv,1,300,176.0,Training at home,,,,,,,,,,,,,
6,19,4413,B,57.756343726920434,46.44156978238132,2.887817186346022,0.7295024722475344,B,1879.944400046952,Correct,sub_006_day_19_data.csv,1,300,176.0,Training at home,,,,,,,,,,,,,
6,19,4414,B,72.97618890966262,60.01545507728454,3.648809445483131,0.9427205638632268,B,796.5971000376157,Correct,sub_006_day_19_data.csv,1,300,176.0,Training at home,,,,,,,,,,,,,
6,19,4415,A,57.90516976191491,71.54381075097953,2.8952584880957453,1.1238075513254786,A,629.8622000031173,Correct,sub_006_day_19_data.csv,1,300,176.0,Training at home,,,,,,,,,,,,,
6,19,4416,A,41.65556591044126,70.10945803974815,2.082778295522063,1.1012767916241732,A,551.4978999854065,Correct,sub_006_day_19_data.csv,1,300,176.0,Training at home,,,,,,,,,,,,,
6,19,4417,B,45.10835270313016,28.299467934840735,2.255417635156508,0.4445270028229778,B,619.4271999993362,Correct,sub_006_day_19_data.csv,1,300,176.0,Training at home,,,,,,,,,,,,,
6,19,4418,A,22.018113215838493,37.08390748938383,1.1009056607919248,0.5825126566752588,A,655.8874999755062,Correct,sub_006_day_19_data.csv,1,300,176.0,Training at home,,,,,,,,,,,,,
6,19,4419,A,59.785121399918026,75.9281480179778,2.989256069995901,1.1926765600697873,A,662.2541000251658,Correct,sub_006_day_19_data.csv,1,300,176.0,Training at home,,,,,,,,,,,,,
6,19,4420,A,63.874405314149385,79.67198450608385,3.1937202657074693,1.2514846061061642,A,555.8110999991186,Correct,sub_006_day_19_data.csv,1,300,176.0,Training at home,,,,,,,,,,,,,
6,19,4421,B,41.69276321760181,15.663240096878663,2.08463816088009,0.2460376000988355,B,598.3504999894649,Correct,sub_006_day_19_data.csv,1,300,176.0,Training at home,,,,,,,,,,,,,
6,19,4422,A,20.590859967739647,35.37581454583157,1.0295429983869824,0.555681995459697,A,655.2647000062279,Correct,sub_006_day_19_data.csv,1,300,176.0,Training at home,,,,,,,,,,,,,
6,19,4423,B,62.21796874849411,43.08934970840081,3.110898437424705,0.6768459224593673,B,453.6274000420235,Correct,sub_006_day_19_data.csv,1,300,176.0,Training at home,,,,,,,,,,,,,
6,19,4424,A,13.707674516026994,31.29991611687402,0.6853837258013498,0.4916579326537409,A,473.14770001685247,Correct,sub_006_day_19_data.csv,1,300,176.0,Training at home,,,,,,,,,,,,,
6,19,4425,A,53.61175084978456,82.30984184700223,2.6805875424892283,1.2929199723233995,A,595.811200037133,Correct,sub_006_day_19_data.csv,1,300,177.0,Training at home,,,,,,,,,,,,,
6,19,4426,A,42.81716287683582,61.97020503795098,2.140858143841791,0.9734257044434,B,1240.8555999863893,Incorrect,sub_006_day_19_data.csv,0,300,177.0,Training at home,,,,,,,,,,,,,
6,19,4427,A,37.421949623520625,65.07124524013805,1.8710974811760313,1.0221367300317874,A,521.4177999878302,Correct,sub_006_day_19_data.csv,1,300,177.0,Training at home,,,,,,,,,,,,,
6,19,4428,B,59.37149697768716,51.55463132718151,2.968574848884358,0.8098182551800183,B,561.146899999585,Correct,sub_006_day_19_data.csv,1,300,177.0,Training at home,,,,,,,,,,,,,
6,19,4429,A,41.82479396037217,58.14532974346625,2.0912396980186085,0.913344703813148,A,856.5164000028744,Correct,sub_006_day_19_data.csv,1,300,177.0,Training at home,,,,,,,,,,,,,
6,19,4430,B,34.03136000733065,15.182800258140489,1.7015680003665323,0.2384908687594768,B,600.6697999546304,Correct,sub_006_day_19_data.csv,1,300,177.0,Training at home,,,,,,,,,,,,,
6,19,4431,B,59.517763552206986,42.9249494837714,2.9758881776103494,0.674263529769646,B,488.0608000094071,Correct,sub_006_day_19_data.csv,1,300,177.0,Training at home,,,,,,,,,,,,,
6,19,4432,A,21.66698392458177,36.66826629421227,1.0833491962290889,0.5759837800488574,A,554.5552999828942,Correct,sub_006_day_19_data.csv,1,300,177.0,Training at home,,,,,,,,,,,,,
6,19,4433,B,64.85089476572705,34.823258303544634,3.2425447382863526,0.5470024623023779,B,816.6920999647118,Correct,sub_006_day_19_data.csv,1,300,177.0,Training at home,,,,,,,,,,,,,
6,19,4434,A,22.038214537877707,39.17526873149388,1.1019107268938853,0.6153636822463355,A,510.9781999490224,Correct,sub_006_day_19_data.csv,1,300,177.0,Training at home,,,,,,,,,,,,,
6,19,4435,B,33.246474681817844,20.537233129107623,1.6623237340908923,0.3225981036173271,B,507.6851999619976,Correct,sub_006_day_19_data.csv,1,300,177.0,Training at home,,,,,,,,,,,,,
6,19,4436,B,82.00195842643402,65.73149096822765,4.1000979213217015,1.0325078456764392,A,1543.587100051809,Incorrect,sub_006_day_19_data.csv,0,300,177.0,Training at home,,,,,,,,,,,,,
6,19,4437,A,37.239699398171446,47.244254063553385,1.861984969908572,0.7421110074519451,B,655.4846999933943,Incorrect,sub_006_day_19_data.csv,0,300,177.0,Training at home,,,,,,,,,,,,,
6,19,4438,A,54.97104419123976,80.68392866715598,2.748552209561987,1.2673801878175006,A,553.8833999889903,Correct,sub_006_day_19_data.csv,1,300,177.0,Training at home,,,,,,,,,,,,,
6,19,4439,A,40.57145641678783,52.97483357861212,2.0285728208393916,0.8321267399785485,A,619.4953999947757,Correct,sub_006_day_19_data.csv,1,300,177.0,Training at home,,,,,,,,,,,,,
6,19,4440,B,52.79907929161875,42.38108588841451,2.6399539645809376,0.6657205403910054,B,492.5912999897264,Correct,sub_006_day_19_data.csv,1,300,177.0,Training at home,,,,,,,,,,,,,
6,19,4441,B,51.23872572953501,32.602823055375325,2.5619362864767505,0.5121239469852752,B,550.3635999630205,Correct,sub_006_day_19_data.csv,1,300,177.0,Training at home,,,,,,,,,,,,,
6,19,4442,A,47.95000941334545,69.70263120392728,2.397500470667272,1.0948863706306833,A,548.9123999723233,Correct,sub_006_day_19_data.csv,1,300,177.0,Training at home,,,,,,,,,,,,,
6,19,4443,B,37.705097623984926,11.587923244198972,1.8852548811992464,0.1820226726716894,B,613.3307000272907,Correct,sub_006_day_19_data.csv,1,300,177.0,Training at home,,,,,,,,,,,,,
6,19,4444,B,64.7418065319674,35.26739284529818,3.2370903265983704,0.55397891137027,A,1564.627500018105,Incorrect,sub_006_day_19_data.csv,0,300,177.0,Training at home,,,,,,,,,,,,,
6,19,4445,B,34.31826002547663,18.354560444150216,1.7159130012738315,0.2883127612560606,B,456.08390000415966,Correct,sub_006_day_19_data.csv,1,300,177.0,Training at home,,,,,,,,,,,,,
6,19,4446,A,33.44308270487931,58.54407989919213,1.6721541352439655,0.9196082566123792,A,498.17089998396114,Correct,sub_006_day_19_data.csv,1,300,177.0,Training at home,,,,,,,,,,,,,
6,19,4447,A,61.54219815051429,76.01971270599941,3.0771099075257142,1.194114854825872,B,999.3692999705672,Incorrect,sub_006_day_19_data.csv,0,300,177.0,Training at home,,,,,,,,,,,,,
6,19,4448,B,53.96539649936891,27.01575802397647,2.698269824968446,0.4243625346964199,B,1804.5315999770537,Correct,sub_006_day_19_data.csv,1,300,177.0,Training at home,,,,,,,,,,,,,
6,19,4449,A,38.535015963198234,59.550186065359554,1.926750798159912,0.9354121353141942,A,539.829799963627,Correct,sub_006_day_19_data.csv,1,300,177.0,Training at home,,,,,,,,,,,,,
6,19,4450,A,52.22391004634092,67.60199004533376,2.6111955023170457,1.0618895764723544,B,575.8844999945723,Incorrect,sub_006_day_19_data.csv,0,300,178.0,Training at home,,,,,,,,,,,,,
6,19,4451,B,76.00031905044582,54.07562350748636,3.800015952522291,0.8494179077470333,B,515.4545999830589,Correct,sub_006_day_19_data.csv,1,300,178.0,Training at home,,,,,,,,,,,,,
6,19,4452,B,65.34666664024735,49.62276330840113,3.2673333320123676,0.7794725433024906,B,480.75749998679385,Correct,sub_006_day_19_data.csv,1,300,178.0,Training at home,,,,,,,,,,,,,
6,19,4453,A,55.523845393569935,70.72558046072311,2.776192269678497,1.1109548199814077,A,573.0540999793448,Correct,sub_006_day_19_data.csv,1,300,178.0,Training at home,,,,,,,,,,,,,
6,19,4454,A,10.170946639613,34.34734607278195,0.5085473319806499,0.53952685046279,A,661.0443000099622,Correct,sub_006_day_19_data.csv,1,300,178.0,Training at home,,,,,,,,,,,,,
6,19,4455,A,47.2355036790035,75.30481595825404,2.361775183950175,1.1828852829719116,A,603.0918000033125,Correct,sub_006_day_19_data.csv,1,300,178.0,Training at home,,,,,,,,,,,,,
6,19,4456,A,56.188916372198534,84.85028966819232,2.8094458186099267,1.3328252333827943,A,789.4719999749213,Correct,sub_006_day_19_data.csv,1,300,178.0,Training at home,,,,,,,,,,,,,
6,19,4457,A,51.61071518213448,63.42163143098892,2.580535759106724,0.9962246569113716,A,467.57269999943674,Correct,sub_006_day_19_data.csv,1,300,178.0,Training at home,,,,,,,,,,,,,
6,19,4458,A,65.11167705569028,80.46186089402573,3.255583852784514,1.2638919553941756,A,637.0140999788418,Correct,sub_006_day_19_data.csv,1,300,178.0,Training at home,,,,,,,,,,,,,
6,19,4459,A,50.71586812081219,81.2854635602617,2.5357934060406095,1.276829075822795,A,627.7402999694459,Correct,sub_006_day_19_data.csv,1,300,178.0,Training at home,,,,,,,,,,,,,
6,19,4460,A,40.13730398784844,69.07778131145635,2.006865199392422,1.085071251471768,A,547.8816999820992,Correct,sub_006_day_19_data.csv,1,300,178.0,Training at home,,,,,,,,,,,,,
6,19,4461,B,56.56072447782089,48.62503604690433,2.828036223891045,0.7638002801274676,B,623.6072999890894,Correct,sub_006_day_19_data.csv,1,300,178.0,Training at home,,,,,,,,,,,,,
6,19,4462,A,45.9264566050493,63.081032693352356,2.2963228302524654,0.9908745444514666,A,503.3234999864362,Correct,sub_006_day_19_data.csv,1,300,178.0,Training at home,,,,,,,,,,,,,
6,19,4463,A,35.92629213695249,61.345843507296344,1.7963146068476246,0.9636182564539564,A,608.9344000210986,Correct,sub_006_day_19_data.csv,1,300,178.0,Training at home,,,,,,,,,,,,,
6,19,4464,A,40.04297885913807,60.43383276452209,2.0021489429569033,0.9492924252064836,A,523.7476999755017,Correct,sub_006_day_19_data.csv,1,300,178.0,Training at home,,,,,,,,,,,,,
6,19,4465,B,58.1123531372087,51.02117962142364,2.905617656860435,0.8014388153807488,B,555.2086000097916,Correct,sub_006_day_19_data.csv,1,300,178.0,Training at home,,,,,,,,,,,,,
6,19,4466,B,45.45081196807739,30.00797249530069,2.27254059840387,0.4713641297018061,B,577.663499978371,Correct,sub_006_day_19_data.csv,1,300,178.0,Training at home,,,,,,,,,,,,,
6,19,4467,A,28.086714013965164,47.410576384793615,1.404335700698258,0.7447235923646267,A,553.2718000467867,Correct,sub_006_day_19_data.csv,1,300,178.0,Training at home,,,,,,,,,,,,,
6,19,4468,B,74.97678697941318,47.05150457870632,3.748839348970659,0.7390833056240514,B,445.77659998321906,Correct,sub_006_day_19_data.csv,1,300,178.0,Training at home,,,,,,,,,,,,,
6,19,4469,B,62.70065894305929,39.29209866589735,3.1350329471529643,0.6171988425645422,B,639.1133000142872,Correct,sub_006_day_19_data.csv,1,300,178.0,Training at home,,,,,,,,,,,,,
6,19,4470,B,31.50527114486864,16.065996153154902,1.575263557243432,0.2523640774367666,B,482.1411000448279,Correct,sub_006_day_19_data.csv,1,300,178.0,Training at home,,,,,,,,,,,,,
6,19,4471,B,75.65338101024854,55.39260882997124,3.782669050512427,0.8701050648170537,B,449.9543000129051,Correct,sub_006_day_19_data.csv,1,300,178.0,Training at home,,,,,,,,,,,,,
6,19,4472,A,20.30857222052784,36.42802479870733,1.015428611026392,0.5722100754620287,A,639.797699986957,Correct,sub_006_day_19_data.csv,1,300,178.0,Training at home,,,,,,,,,,,,,
6,19,4473,B,57.02945735059236,49.508705608973706,2.851472867529618,0.7776809291494577,B,511.9142000330612,Correct,sub_006_day_19_data.csv,1,300,178.0,Training at home,,,,,,,,,,,,,
6,19,4474,A,54.80224970015058,65.97535667148726,2.740112485007529,1.0363384791855537,A,491.6248000226915,Correct,sub_006_day_19_data.csv,1,300,178.0,Training at home,,,,,,,,,,,,,
6,19,4475,B,54.4479261512207,45.97096509747283,2.722396307561035,0.7221102311432672,B,505.94360003015026,Correct,sub_006_day_19_data.csv,1,300,179.0,Training at home,,,,,,,,,,,,,
6,19,4476,A,28.390568526914755,53.937285295198045,1.419528426345738,0.8472448961898547,A,709.8455000086688,Correct,sub_006_day_19_data.csv,1,300,179.0,Training at home,,,,,,,,,,,,,
6,19,4477,B,66.23709864751413,35.660148731516976,3.3118549323757067,0.5601483064042656,B,574.0590000059456,Correct,sub_006_day_19_data.csv,1,300,179.0,Training at home,,,,,,,,,,,,,
6,19,4478,A,33.51327378821212,60.610969698842446,1.675663689410606,0.952074885664185,A,729.0062999818474,Correct,sub_006_day_19_data.csv,1,300,179.0,Training at home,,,,,,,,,,,,,
6,19,4479,A,10.048098185305214,33.76298899593251,0.5024049092652607,0.530347790964273,B,598.6046000034548,Incorrect,sub_006_day_19_data.csv,0,300,179.0,Training at home,,,,,,,,,,,,,
6,19,4480,A,62.6414095338999,76.67986538687214,3.132070476694995,1.2044845088882588,A,775.567700038664,Correct,sub_006_day_19_data.csv,1,300,179.0,Training at home,,,,,,,,,,,,,
6,19,4481,B,37.95484731398011,16.87250867271638,1.8977423656990056,0.2650327464691792,B,535.2566000074148,Correct,sub_006_day_19_data.csv,1,300,179.0,Training at home,,,,,,,,,,,,,
6,19,4482,B,74.076214461891,49.6212970877052,3.7038107230945503,0.7794495119616562,B,850.6322000175714,Correct,sub_006_day_19_data.csv,1,300,179.0,Training at home,,,,,,,,,,,,,
6,19,4483,B,89.28798007582056,65.94277506636301,4.464399003791027,1.035826688529051,B,549.8628000495955,Correct,sub_006_day_19_data.csv,1,300,179.0,Training at home,,,,,,,,,,,,,
6,19,4484,A,12.93516116555221,33.23281558805828,0.6467580582776106,0.5220198465477411,A,533.178300014697,Correct,sub_006_day_19_data.csv,1,300,179.0,Training at home,,,,,,,,,,,,,
6,19,4485,B,66.52868188034246,34.09667644065018,3.326434094017123,0.5355893410888739,B,684.0069000027142,Correct,sub_006_day_19_data.csv,1,300,179.0,Training at home,,,,,,,,,,,,,
6,19,4486,B,83.56254819053879,56.05354311925311,4.178127409526939,0.8804869963556214,B,470.4161999979988,Correct,sub_006_day_19_data.csv,1,300,179.0,Training at home,,,,,,,,,,,,,
6,19,4487,A,50.21117774183934,74.12219298843132,2.510558887091967,1.1643086848021034,A,534.9575000000186,Correct,sub_006_day_19_data.csv,1,300,179.0,Training at home,,,,,,,,,,,,,
6,19,4488,A,25.37994079313889,53.797340459640075,1.2689970396569443,0.8450466478533711,A,709.7173000220209,Correct,sub_006_day_19_data.csv,1,300,179.0,Training at home,,,,,,,,,,,,,
6,19,4489,A,34.21870266833087,52.620053383353984,1.7109351334165437,0.826553865703238,A,501.1073999921791,Correct,sub_006_day_19_data.csv,1,300,179.0,Training at home,,,,,,,,,,,,,
6,19,4490,B,60.51647628694084,41.982418799526776,3.0258238143470417,0.6594582924026167,B,652.5089000351727,Correct,sub_006_day_19_data.csv,1,300,179.0,Training at home,,,,,,,,,,,,,
6,19,4491,B,38.94342970069495,13.367243685533598,1.9471714850347472,0.2099721728060845,B,735.1308999932371,Correct,sub_006_day_19_data.csv,1,300,179.0,Training at home,,,,,,,,,,,,,
6,19,4492,A,39.53375724736979,67.50866613903582,1.9766878623684896,1.0604236479802047,A,501.5006000176072,Correct,sub_006_day_19_data.csv,1,300,179.0,Training at home,,,,,,,,,,,,,
6,19,4493,B,62.870030344288615,44.124656445646,3.1435015172144305,0.6931084826590749,B,505.2962999907322,Correct,sub_006_day_19_data.csv,1,300,179.0,Training at home,,,,,,,,,,,,,
6,19,4494,B,45.94873589028322,36.99362108325936,2.297436794514161,0.5810944411242605,B,797.1456000232138,Correct,sub_006_day_19_data.csv,1,300,179.0,Training at home,,,,,,,,,,,,,
6,19,4495,B,58.017221881101506,36.333115555738665,2.900861094055075,0.570719244559688,B,721.8012000084855,Correct,sub_006_day_19_data.csv,1,300,179.0,Training at home,,,,,,,,,,,,,
6,19,4496,B,42.496018785946035,16.852394012542675,2.1248009392973017,0.2647167861260234,B,2067.4174000159837,Correct,sub_006_day_19_data.csv,1,300,179.0,Training at home,,,,,,,,,,,,,
6,19,4497,A,21.57998119682215,50.284434020838646,1.0789990598411074,0.7898660425489368,A,560.6178999878466,Correct,sub_006_day_19_data.csv,1,300,179.0,Training at home,,,,,,,,,,,,,
6,19,4498,B,50.57282886665937,31.216891534011623,2.5286414433329685,0.4903537855558016,B,440.14550000429153,Correct,sub_006_day_19_data.csv,1,300,179.0,Training at home,,,,,,,,,,,,,
6,19,4499,A,58.25894258560415,69.4553840580363,2.912947129280208,1.0910026215449222,A,1137.1794999577105,Correct,sub_006_day_19_data.csv,1,300,179.0,Training at home,,,,,,,,,,,,,
