subject,day,trial,cat,x,y,xt,yt,resp,rt,fb,f_name,acc,n_trials,block,session_type,ns_left_digit,ns_right_digit,ns_left_size,ns_right_size,ns_congruent,ns_cue,ns_correct_side,ns_resp,ns_rt,ns_fb,acc_stroop,acc_stroop_mean,resp_key
6,9,1800,B,57.232921683396526,27.11257212496549,2.861646084169826,0.4258832870385748,B,1014.6994999995512,Correct,sub_006_day_09_data.csv,1,300,72.0,Training at home,,,,,,,,,,,,,
6,9,1801,A,21.247775250080615,48.323127147214414,1.062388762504031,0.7590579062208715,A,573.6322000011569,Correct,sub_006_day_09_data.csv,1,300,72.0,Training at home,,,,,,,,,,,,,
6,9,1802,A,30.00200420951728,53.84867345485716,1.500100210475864,0.8458529846566748,A,789.1257000010228,Correct,sub_006_day_09_data.csv,1,300,72.0,Training at home,,,,,,,,,,,,,
6,9,1803,B,61.50657981646864,36.870774570298025,3.075328990823432,0.5791647726110682,B,424.6242000008351,Correct,sub_006_day_09_data.csv,1,300,72.0,Training at home,,,,,,,,,,,,,
6,9,1804,A,32.02940524614327,48.68003871570788,1.6014702623071633,0.7646642600286728,A,484.4388000019535,Correct,sub_006_day_09_data.csv,1,300,72.0,Training at home,,,,,,,,,,,,,
6,9,1805,B,49.43428343594679,30.755798926680058,2.471714171797339,0.4831109598167146,B,490.583400001924,Correct,sub_006_day_09_data.csv,1,300,72.0,Training at home,,,,,,,,,,,,,
6,9,1806,B,61.05579844216074,44.18744860409102,3.0527899221080372,0.6940948195774446,B,625.4537000022538,Correct,sub_006_day_09_data.csv,1,300,72.0,Training at home,,,,,,,,,,,,,
6,9,1807,A,11.876896467241178,36.24131647083112,0.5938448233620589,0.5692772679059291,A,472.2813000007591,Correct,sub_006_day_09_data.csv,1,300,72.0,Training at home,,,,,,,,,,,,,
6,9,1808,B,54.9137025482337,26.66577656023353,2.7456851274116847,0.4188650387194828,B,487.33509999874514,Correct,sub_006_day_09_data.csv,1,300,72.0,Training at home,,,,,,,,,,,,,
6,9,1809,B,78.89678123757652,59.79771284023134,3.944839061878826,0.939300276801714,B,577.5453999995079,Correct,sub_006_day_09_data.csv,1,300,72.0,Training at home,,,,,,,,,,,,,
6,9,1810,A,14.15583275143138,30.777815491698956,0.7077916375715689,0.4834567952113178,A,554.3814999982715,Correct,sub_006_day_09_data.csv,1,300,72.0,Training at home,,,,,,,,,,,,,
6,9,1811,A,59.39605845277694,86.62289125921704,2.969802922638847,1.3606691940633189,A,728.5370999998122,Correct,sub_006_day_09_data.csv,1,300,72.0,Training at home,,,,,,,,,,,,,
6,9,1812,B,50.37959814904904,21.715358685285903,2.5189799074524517,0.3411040565788075,B,503.0886000022292,Correct,sub_006_day_09_data.csv,1,300,72.0,Training at home,,,,,,,,,,,,,
6,9,1813,A,34.532642448657235,58.22155505195867,1.7266321224328618,0.9145420481590352,A,478.394699999626,Correct,sub_006_day_09_data.csv,1,300,72.0,Training at home,,,,,,,,,,,,,
6,9,1814,A,21.34386101203123,49.14765580856212,1.0671930506015614,0.7720095721466923,A,629.4417999997677,Correct,sub_006_day_09_data.csv,1,300,72.0,Training at home,,,,,,,,,,,,,
6,9,1815,B,68.98680777952939,40.80064999403713,3.449340388976469,0.6408951114147775,B,462.24630000142497,Correct,sub_006_day_09_data.csv,1,300,72.0,Training at home,,,,,,,,,,,,,
6,9,1816,A,31.89213174117878,46.515126829567095,1.594606587058939,0.7306579036428273,A,500.256300001638,Correct,sub_006_day_09_data.csv,1,300,72.0,Training at home,,,,,,,,,,,,,
6,9,1817,A,22.025469572547173,52.20277371174552,1.1012734786273586,0.8199992519491506,A,500.60540000049514,Correct,sub_006_day_09_data.csv,1,300,72.0,Training at home,,,,,,,,,,,,,
6,9,1818,B,71.28845268433666,50.95997259163445,3.5644226342168333,0.8004773776050799,B,446.9915000008768,Correct,sub_006_day_09_data.csv,1,300,72.0,Training at home,,,,,,,,,,,,,
6,9,1819,A,24.75820703367039,57.025391570843304,1.2379103516835197,0.8957527561352132,A,476.9821999980195,Correct,sub_006_day_09_data.csv,1,300,72.0,Training at home,,,,,,,,,,,,,
6,9,1820,B,65.19453044497021,54.92763793684637,3.259726522248511,0.8628013191071829,B,459.95570000013686,Correct,sub_006_day_09_data.csv,1,300,72.0,Training at home,,,,,,,,,,,,,
6,9,1821,A,55.21665161100766,62.72549239513253,2.760832580550383,0.985289730506754,B,545.4287000029581,Incorrect,sub_006_day_09_data.csv,0,300,72.0,Training at home,,,,,,,,,,,,,
6,9,1822,B,82.34363075317373,64.29643983479457,4.117181537658686,1.0099661151848438,B,820.5999999991036,Correct,sub_006_day_09_data.csv,1,300,72.0,Training at home,,,,,,,,,,,,,
6,9,1823,B,54.66863241678029,36.189159956847575,2.733431620839014,0.5684579953000912,B,547.161500002403,Correct,sub_006_day_09_data.csv,1,300,72.0,Training at home,,,,,,,,,,,,,
6,9,1824,A,48.97211482072789,79.93401662598541,2.448605741036394,1.2556005970206006,A,638.8395000030869,Correct,sub_006_day_09_data.csv,1,300,72.0,Training at home,,,,,,,,,,,,,
6,9,1825,B,82.89700250210291,57.994661911483306,4.144850125105146,0.9109780190426988,B,690.7716000023356,Correct,sub_006_day_09_data.csv,1,300,73.0,Training at home,,,,,,,,,,,,,
6,9,1826,B,77.84788527038991,49.627752645536226,3.892394263519495,0.77955091562694,B,438.9439999977185,Correct,sub_006_day_09_data.csv,1,300,73.0,Training at home,,,,,,,,,,,,,
6,9,1827,A,52.07823727951133,70.78411235312213,2.6039118639755663,1.1118742367972152,A,723.5741000004055,Correct,sub_006_day_09_data.csv,1,300,73.0,Training at home,,,,,,,,,,,,,
6,9,1828,B,40.81165603611236,30.438313882037455,2.040582801805618,0.4781239163973454,B,855.8158000014373,Correct,sub_006_day_09_data.csv,1,300,73.0,Training at home,,,,,,,,,,,,,
6,9,1829,B,65.7085654137344,48.61569912604283,3.28542827068672,0.7636536161175393,B,479.48990000077174,Correct,sub_006_day_09_data.csv,1,300,73.0,Training at home,,,,,,,,,,,,,
6,9,1830,A,22.5539793771825,44.13302893470351,1.127698968859125,0.6932399974096516,A,527.562700000999,Correct,sub_006_day_09_data.csv,1,300,73.0,Training at home,,,,,,,,,,,,,
6,9,1831,B,52.60097280236871,32.67823826056901,2.6300486401184355,0.5133085662583025,B,520.8377999988443,Correct,sub_006_day_09_data.csv,1,300,73.0,Training at home,,,,,,,,,,,,,
6,9,1832,A,59.363950508724386,75.76297717947747,2.968197525436219,1.190082062605688,A,951.2275000015508,Correct,sub_006_day_09_data.csv,1,300,73.0,Training at home,,,,,,,,,,,,,
6,9,1833,A,55.77000952676245,76.84663421030284,2.7885004763381227,1.2071041074409474,A,928.4621000006156,Correct,sub_006_day_09_data.csv,1,300,73.0,Training at home,,,,,,,,,,,,,
6,9,1834,A,19.506432764733457,45.190438040143384,0.9753216382366728,0.709849740797096,A,757.9168000011123,Correct,sub_006_day_09_data.csv,1,300,73.0,Training at home,,,,,,,,,,,,,
6,9,1835,A,18.575922064545143,42.78223540065915,0.9287961032272573,0.6720217821942998,A,579.5317999982217,Correct,sub_006_day_09_data.csv,1,300,73.0,Training at home,,,,,,,,,,,,,
6,9,1836,B,61.32172502889491,52.02131209414311,3.066086251444746,0.8171488595253094,B,743.0482000017946,Correct,sub_006_day_09_data.csv,1,300,73.0,Training at home,,,,,,,,,,,,,
6,9,1837,B,60.54706275448098,41.000830892034344,3.0273531377240492,0.6440395456074627,B,827.6043000005302,Correct,sub_006_day_09_data.csv,1,300,73.0,Training at home,,,,,,,,,,,,,
6,9,1838,A,39.103419791311005,66.08374368566413,1.9551709895655505,1.0380410184229667,A,774.0144999988843,Correct,sub_006_day_09_data.csv,1,300,73.0,Training at home,,,,,,,,,,,,,
6,9,1839,A,35.524648025374724,67.86267219397736,1.776232401268736,1.065984362087858,A,731.3180000019202,Correct,sub_006_day_09_data.csv,1,300,73.0,Training at home,,,,,,,,,,,,,
6,9,1840,A,35.63238871567753,68.39110798004799,1.7816194357838766,1.0742850120049252,A,514.7429999997257,Correct,sub_006_day_09_data.csv,1,300,73.0,Training at home,,,,,,,,,,,,,
6,9,1841,A,26.51659981513877,54.39951501592584,1.3258299907569384,0.8545055836644013,A,1074.1424999978335,Correct,sub_006_day_09_data.csv,1,300,73.0,Training at home,,,,,,,,,,,,,
6,9,1842,A,22.121295138462035,37.98885769873826,1.1060647569231017,0.5967275813231208,A,1067.805299997417,Correct,sub_006_day_09_data.csv,1,300,73.0,Training at home,,,,,,,,,,,,,
6,9,1843,A,62.25003210836073,73.1670335119117,3.112501605418037,1.1493050748299,A,856.4462999966054,Correct,sub_006_day_09_data.csv,1,300,73.0,Training at home,,,,,,,,,,,,,
6,9,1844,B,72.83588281866639,40.52039413467719,3.64179414093332,0.636492862670324,B,505.9581999994407,Correct,sub_006_day_09_data.csv,1,300,73.0,Training at home,,,,,,,,,,,,,
6,9,1845,B,39.17366654076817,27.043031909347675,1.9586833270384083,0.4247909518860051,B,684.4307000028493,Correct,sub_006_day_09_data.csv,1,300,73.0,Training at home,,,,,,,,,,,,,
6,9,1846,A,22.29994491220765,48.76765263520684,1.1149972456103825,0.7660404962579234,A,843.4597999985272,Correct,sub_006_day_09_data.csv,1,300,73.0,Training at home,,,,,,,,,,,,,
6,9,1847,B,82.66158665889895,68.05011361216602,4.133079332944948,1.0689286849996578,A,1035.0275000018885,Incorrect,sub_006_day_09_data.csv,0,300,73.0,Training at home,,,,,,,,,,,,,
6,9,1848,A,22.72607719497316,45.37548790612506,1.136303859748658,0.7127564972946749,A,472.530299997743,Correct,sub_006_day_09_data.csv,1,300,73.0,Training at home,,,,,,,,,,,,,
6,9,1849,B,48.10282671167647,17.593187707970475,2.4051413355838234,0.2763531462829315,B,589.519900000596,Correct,sub_006_day_09_data.csv,1,300,73.0,Training at home,,,,,,,,,,,,,
6,9,1850,A,38.44414474172335,52.00392406095136,1.9222072370861671,0.8168757289386313,A,3258.6045999996713,Correct,sub_006_day_09_data.csv,1,300,74.0,Training at home,,,,,,,,,,,,,
6,9,1851,A,33.426587267157814,63.39011619067493,1.6713293633578905,0.9957296166741388,A,531.9550999993226,Correct,sub_006_day_09_data.csv,1,300,74.0,Training at home,,,,,,,,,,,,,
6,9,1852,B,62.65515743096949,44.130120396823045,3.132757871548474,0.6931943102034619,B,2392.4889999980223,Correct,sub_006_day_09_data.csv,1,300,74.0,Training at home,,,,,,,,,,,,,
6,9,1853,A,42.225568130863785,57.54545921665765,2.1112784065431893,0.9039219596125136,A,2438.6230999989493,Correct,sub_006_day_09_data.csv,1,300,74.0,Training at home,,,,,,,,,,,,,
6,9,1854,A,43.09171248574667,75.59469775350055,2.154585624287334,1.1874387355636908,A,851.8827999978384,Correct,sub_006_day_09_data.csv,1,300,74.0,Training at home,,,,,,,,,,,,,
6,9,1855,B,82.31575447513478,55.37939736933226,4.115787723756739,0.8698975396786207,B,3445.1073999989603,Correct,sub_006_day_09_data.csv,1,300,74.0,Training at home,,,,,,,,,,,,,
6,9,1856,B,57.589464200160286,27.067686341337073,2.879473210008014,0.4251782227980867,B,3068.6433000009856,Correct,sub_006_day_09_data.csv,1,300,74.0,Training at home,,,,,,,,,,,,,
6,9,1857,B,76.68032400999674,64.11852902750694,3.8340162004998377,1.0071714987589986,B,2020.664299998316,Correct,sub_006_day_09_data.csv,1,300,74.0,Training at home,,,,,,,,,,,,,
6,9,1858,A,51.44158326077603,72.91086714720059,2.5720791630388016,1.1452812229825338,A,4263.7721999999485,Correct,sub_006_day_09_data.csv,1,300,74.0,Training at home,,,,,,,,,,,,,
6,9,1859,B,33.794581863826934,17.168829022478143,1.689729093191347,0.2696873356387828,A,1767.3969999996189,Incorrect,sub_006_day_09_data.csv,0,300,74.0,Training at home,,,,,,,,,,,,,
6,9,1860,B,73.7827303277286,42.52672245960686,3.68913651638643,0.668008194301765,B,1002.9198999982328,Correct,sub_006_day_09_data.csv,1,300,74.0,Training at home,,,,,,,,,,,,,
6,9,1861,B,50.8624888688455,39.00545660572575,2.543124443442275,0.6126962796123173,B,786.8196000017633,Correct,sub_006_day_09_data.csv,1,300,74.0,Training at home,,,,,,,,,,,,,
6,9,1862,B,41.44945295111371,18.124149528641208,2.0724726475556854,0.2846934750587107,B,1145.1823000024888,Correct,sub_006_day_09_data.csv,1,300,74.0,Training at home,,,,,,,,,,,,,
6,9,1863,B,66.35293838420027,44.63880095721122,3.3176469192100138,0.7011846457611589,B,676.909899997554,Correct,sub_006_day_09_data.csv,1,300,74.0,Training at home,,,,,,,,,,,,,
6,9,1864,A,33.175843374331436,45.58281363326597,1.658792168716572,0.7160131622011052,A,4434.645299999829,Correct,sub_006_day_09_data.csv,1,300,74.0,Training at home,,,,,,,,,,,,,
6,9,1865,B,82.94918175100005,68.29241662342409,4.147459087550003,1.0727347718002127,B,787.2366000010516,Correct,sub_006_day_09_data.csv,1,300,74.0,Training at home,,,,,,,,,,,,,
6,9,1866,A,27.397567285374787,40.45097295255958,1.369878364268739,0.6354023972916031,A,796.0166999982903,Correct,sub_006_day_09_data.csv,1,300,74.0,Training at home,,,,,,,,,,,,,
6,9,1867,B,74.5967332424897,45.47919366573549,3.729836662124485,0.7143855035573103,B,945.7598000008148,Correct,sub_006_day_09_data.csv,1,300,74.0,Training at home,,,,,,,,,,,,,
6,9,1868,A,31.10119628219455,54.173546093309554,1.5550598141097276,0.8509560721282465,B,1811.654200002522,Incorrect,sub_006_day_09_data.csv,0,300,74.0,Training at home,,,,,,,,,,,,,
6,9,1869,B,61.47706568445296,46.1984512125976,3.0738532842226483,0.7256835746836156,B,2409.061800000927,Correct,sub_006_day_09_data.csv,1,300,74.0,Training at home,,,,,,,,,,,,,
6,9,1870,B,69.16501515627048,36.65658135991815,3.4582507578135244,0.575800233530177,B,547.3669999992126,Correct,sub_006_day_09_data.csv,1,300,74.0,Training at home,,,,,,,,,,,,,
6,9,1871,A,42.65940848048882,65.53460105600026,2.132970424024441,1.0294151061673416,A,585.2916000003461,Correct,sub_006_day_09_data.csv,1,300,74.0,Training at home,,,,,,,,,,,,,
6,9,1872,A,28.08955336801991,49.4026669583553,1.4044776684009954,0.776015277920561,A,590.1286999978765,Correct,sub_006_day_09_data.csv,1,300,74.0,Training at home,,,,,,,,,,,,,
6,9,1873,B,51.83100987505097,20.61728995616195,2.5915504937525484,0.323855633316045,B,492.1069999982137,Correct,sub_006_day_09_data.csv,1,300,74.0,Training at home,,,,,,,,,,,,,
6,9,1874,B,36.17641255326181,17.601636753191052,1.8088206276630905,0.2764858635749055,B,974.9560000018392,Correct,sub_006_day_09_data.csv,1,300,74.0,Training at home,,,,,,,,,,,,,
6,9,1875,A,55.5197480688906,75.22303664610264,2.77598740344453,1.1816006965405594,B,1138.3475000002363,Incorrect,sub_006_day_09_data.csv,0,300,75.0,Training at home,,,,,,,,,,,,,
6,9,1876,B,85.65683152233909,61.78719097242003,4.2828415761169545,0.9705509262245215,A,636.120099999971,Incorrect,sub_006_day_09_data.csv,0,300,75.0,Training at home,,,,,,,,,,,,,
6,9,1877,B,67.08018169336579,44.47284307569793,3.3540090846682893,0.6985777854543217,B,3577.0216999990225,Correct,sub_006_day_09_data.csv,1,300,75.0,Training at home,,,,,,,,,,,,,
6,9,1878,B,80.95211607113293,60.120506394294935,4.047605803556647,0.944370706092076,B,2082.133800002339,Correct,sub_006_day_09_data.csv,1,300,75.0,Training at home,,,,,,,,,,,,,
6,9,1879,B,88.07652080835098,63.52539791916787,4.403826040417549,0.9978546170961304,B,931.1022000001684,Correct,sub_006_day_09_data.csv,1,300,75.0,Training at home,,,,,,,,,,,,,
6,9,1880,A,16.903979232686538,31.29814069107195,0.845198961634327,0.491630044330457,A,1421.5349999976752,Correct,sub_006_day_09_data.csv,1,300,75.0,Training at home,,,,,,,,,,,,,
6,9,1881,B,50.62600345539192,40.55777613654902,2.531300172769596,0.6370800577826091,A,2564.828000002308,Incorrect,sub_006_day_09_data.csv,0,300,75.0,Training at home,,,,,,,,,,,,,
6,9,1882,A,10.922300979767694,36.492424000041495,0.5461150489883848,0.5732216557510711,A,1305.644799998845,Correct,sub_006_day_09_data.csv,1,300,75.0,Training at home,,,,,,,,,,,,,
6,9,1883,A,62.11606395773491,82.26183176491374,3.1058031978867455,1.2921658317174625,A,2994.3620999983978,Correct,sub_006_day_09_data.csv,1,300,75.0,Training at home,,,,,,,,,,,,,
6,9,1884,B,68.5598708261007,44.551910878024856,3.427993541305035,0.6998197795889503,B,876.3310999966052,Correct,sub_006_day_09_data.csv,1,300,75.0,Training at home,,,,,,,,,,,,,
6,9,1885,A,23.93736336955474,47.81802550151663,1.196868168477737,0.7511237881236702,A,459.68209999773535,Correct,sub_006_day_09_data.csv,1,300,75.0,Training at home,,,,,,,,,,,,,
6,9,1886,A,11.21595777482339,35.68374768829837,0.5607978887411695,0.5605189979505496,A,509.7985000029439,Correct,sub_006_day_09_data.csv,1,300,75.0,Training at home,,,,,,,,,,,,,
6,9,1887,A,18.414925306842388,43.99876235657534,0.9207462653421196,0.691130942932301,A,520.7212000022992,Correct,sub_006_day_09_data.csv,1,300,75.0,Training at home,,,,,,,,,,,,,
6,9,1888,A,53.935816056531706,73.66172144854234,2.6967908028265857,1.1570756147675914,B,449.6394999987387,Incorrect,sub_006_day_09_data.csv,0,300,75.0,Training at home,,,,,,,,,,,,,
6,9,1889,B,53.03302575763647,27.909245560342782,2.6516512878818235,0.4383974040980322,B,717.5064000002749,Correct,sub_006_day_09_data.csv,1,300,75.0,Training at home,,,,,,,,,,,,,
6,9,1890,B,41.458568473759385,19.068698554294848,2.0729284236879693,0.299530416458455,B,925.409600000421,Correct,sub_006_day_09_data.csv,1,300,75.0,Training at home,,,,,,,,,,,,,
6,9,1891,B,44.41555718976724,17.763037366405058,2.2207778594883623,0.2790211384786956,B,677.9105999994499,Correct,sub_006_day_09_data.csv,1,300,75.0,Training at home,,,,,,,,,,,,,
6,9,1892,B,47.98560840391758,39.375996235915785,2.399280420195879,0.618516702512662,B,618.7215999998443,Correct,sub_006_day_09_data.csv,1,300,75.0,Training at home,,,,,,,,,,,,,
6,9,1893,A,59.2767326894548,70.77223648720167,2.96383663447274,1.1116876911315612,B,635.7250999972166,Incorrect,sub_006_day_09_data.csv,0,300,75.0,Training at home,,,,,,,,,,,,,
6,9,1894,A,56.62802620805577,68.55542203375194,2.8314013104027884,1.0768660511249144,A,761.0795999971742,Correct,sub_006_day_09_data.csv,1,300,75.0,Training at home,,,,,,,,,,,,,
6,9,1895,B,83.1993239660302,66.53978944946007,4.15996619830151,1.0452045685291769,B,736.935100001574,Correct,sub_006_day_09_data.csv,1,300,75.0,Training at home,,,,,,,,,,,,,
6,9,1896,A,28.81848392154907,58.61549070410989,1.4409241960774537,0.920729974912962,A,640.2501000011398,Correct,sub_006_day_09_data.csv,1,300,75.0,Training at home,,,,,,,,,,,,,
6,9,1897,B,62.213476629398784,38.68868261195381,3.110673831469939,0.6077204053539063,B,588.2688999990933,Correct,sub_006_day_09_data.csv,1,300,75.0,Training at home,,,,,,,,,,,,,
6,9,1898,A,60.24673490119077,74.5982916540617,3.0123367450595384,1.171787225153745,B,635.0453999984893,Incorrect,sub_006_day_09_data.csv,0,300,75.0,Training at home,,,,,,,,,,,,,
6,9,1899,B,71.09064878679364,45.01531863768781,3.5545324393396815,0.7070989716558186,B,508.2594999985304,Correct,sub_006_day_09_data.csv,1,300,75.0,Training at home,,,,,,,,,,,,,
6,9,1900,B,55.55007085460963,45.28286953739176,2.7775035427304817,0.711301651360675,B,513.0478999999468,Correct,sub_006_day_09_data.csv,1,300,76.0,Training at home,,,,,,,,,,,,,
6,9,1901,A,41.04133895829898,58.53205108646193,2.052066947914949,0.9194193084638562,A,591.9596000021556,Correct,sub_006_day_09_data.csv,1,300,76.0,Training at home,,,,,,,,,,,,,
6,9,1902,A,50.30208113041241,77.60190396662824,2.5151040565206206,1.2189678570306994,A,1143.8982999970904,Correct,sub_006_day_09_data.csv,1,300,76.0,Training at home,,,,,,,,,,,,,
6,9,1903,A,59.17608064639268,73.44629208147562,2.958804032319634,1.15369165818287,A,3318.9297999997507,Correct,sub_006_day_09_data.csv,1,300,76.0,Training at home,,,,,,,,,,,,,
6,9,1904,B,44.02829421760851,17.502000474758063,2.2014147108804254,0.2749207805731249,B,1704.4014999992214,Correct,sub_006_day_09_data.csv,1,300,76.0,Training at home,,,,,,,,,,,,,
6,9,1905,B,35.6377326514747,23.633821518917415,1.7818866325737348,0.3712392003004165,B,1684.117500000866,Correct,sub_006_day_09_data.csv,1,300,76.0,Training at home,,,,,,,,,,,,,
6,9,1906,B,45.11214951247073,31.780215896995877,2.2556074756235365,0.499202463957499,B,549.2134999985865,Correct,sub_006_day_09_data.csv,1,300,76.0,Training at home,,,,,,,,,,,,,
6,9,1907,A,68.77475375322348,83.86339825500633,3.438737687661174,1.3173231793150146,A,775.6584000017028,Correct,sub_006_day_09_data.csv,1,300,76.0,Training at home,,,,,,,,,,,,,
6,9,1908,A,33.928389455908444,56.45982370235011,1.6964194727954225,0.8868688368313898,B,988.576899999316,Incorrect,sub_006_day_09_data.csv,0,300,76.0,Training at home,,,,,,,,,,,,,
6,9,1909,A,48.82236492055969,74.7991779702127,2.441118246027985,1.1749427400288783,B,696.3467999994464,Incorrect,sub_006_day_09_data.csv,0,300,76.0,Training at home,,,,,,,,,,,,,
6,9,1910,A,37.32440897630298,53.814440788190254,1.866220448815149,0.845315259186107,A,892.2336999967229,Correct,sub_006_day_09_data.csv,1,300,76.0,Training at home,,,,,,,,,,,,,
6,9,1911,A,21.55102585257424,42.0073328234547,1.077551292628712,0.6598496409753335,A,483.4063999987848,Correct,sub_006_day_09_data.csv,1,300,76.0,Training at home,,,,,,,,,,,,,
6,9,1912,A,62.26043222566831,80.70455744277093,3.1130216112834153,1.267704223867123,B,606.5204999977141,Incorrect,sub_006_day_09_data.csv,0,300,76.0,Training at home,,,,,,,,,,,,,
6,9,1913,A,51.36837480761298,63.29982826267187,2.568418740380649,0.9943113772175276,B,984.6475000013016,Incorrect,sub_006_day_09_data.csv,0,300,76.0,Training at home,,,,,,,,,,,,,
6,9,1914,A,51.94141613294176,82.02751313954357,2.597070806647088,1.2884851633571517,B,739.8748999985401,Incorrect,sub_006_day_09_data.csv,0,300,76.0,Training at home,,,,,,,,,,,,,
6,9,1915,B,63.17445807272406,37.79499116969258,3.158722903636203,0.5936823330059865,B,1181.1170000000857,Correct,sub_006_day_09_data.csv,1,300,76.0,Training at home,,,,,,,,,,,,,
6,9,1916,A,38.67434674305582,63.25859853429263,1.9337173371527911,0.993663742158599,A,616.3634000004095,Correct,sub_006_day_09_data.csv,1,300,76.0,Training at home,,,,,,,,,,,,,
6,9,1917,B,43.44080194181235,15.322570473305426,2.1720400970906177,0.240686374165241,B,589.9059000003035,Correct,sub_006_day_09_data.csv,1,300,76.0,Training at home,,,,,,,,,,,,,
6,9,1918,B,81.73818259837932,51.06295983285027,4.086909129918967,0.8020950974071654,B,543.9447999997356,Correct,sub_006_day_09_data.csv,1,300,76.0,Training at home,,,,,,,,,,,,,
6,9,1919,B,50.43237535766647,35.94871472898752,2.5216187678833237,0.5646810904929118,B,782.9272000017227,Correct,sub_006_day_09_data.csv,1,300,76.0,Training at home,,,,,,,,,,,,,
6,9,1920,A,55.71760898689488,67.24865165662382,2.785880449344744,1.0563393500413425,A,1166.6298000018287,Correct,sub_006_day_09_data.csv,1,300,76.0,Training at home,,,,,,,,,,,,,
6,9,1921,B,51.64961523905954,37.153870739749266,2.582480761952977,0.5836116368421053,B,551.672999998118,Correct,sub_006_day_09_data.csv,1,300,76.0,Training at home,,,,,,,,,,,,,
6,9,1922,A,58.63204106883084,80.47190824615535,2.9316020534415417,1.2640497788323677,A,939.9986999997054,Correct,sub_006_day_09_data.csv,1,300,76.0,Training at home,,,,,,,,,,,,,
6,9,1923,B,46.43420741350966,33.12888279587123,2.321710370675483,0.5203872740657316,B,965.5314000010547,Correct,sub_006_day_09_data.csv,1,300,76.0,Training at home,,,,,,,,,,,,,
6,9,1924,A,44.32702287574593,73.40102033128757,2.2163511437872967,1.1529805311938404,A,654.4480999982625,Correct,sub_006_day_09_data.csv,1,300,76.0,Training at home,,,,,,,,,,,,,
6,9,1925,B,65.16362564306004,48.87530219688922,3.2581812821530023,0.7677314516186413,B,866.6831999980786,Correct,sub_006_day_09_data.csv,1,300,77.0,Training at home,,,,,,,,,,,,,
6,9,1926,B,41.88074120264693,29.74608386009959,2.0940370601323464,0.4672503926397739,B,1191.309400001046,Correct,sub_006_day_09_data.csv,1,300,77.0,Training at home,,,,,,,,,,,,,
6,9,1927,A,27.42232435425879,47.47082140299733,1.37111621771294,0.7456699188976477,A,879.7629000000597,Correct,sub_006_day_09_data.csv,1,300,77.0,Training at home,,,,,,,,,,,,,
6,9,1928,B,48.6591200288918,32.28576633241877,2.43295600144459,0.5071436316272173,B,1679.8751999995147,Correct,sub_006_day_09_data.csv,1,300,77.0,Training at home,,,,,,,,,,,,,
6,9,1929,A,44.054344118859234,71.67684888751381,2.2027172059429616,1.1258973094873956,A,760.9905999997864,Correct,sub_006_day_09_data.csv,1,300,77.0,Training at home,,,,,,,,,,,,,
6,9,1930,A,66.5083122822546,86.97555085063233,3.3254156141127296,1.36620875797136,A,1047.1338999996078,Correct,sub_006_day_09_data.csv,1,300,77.0,Training at home,,,,,,,,,,,,,
6,9,1931,A,15.176658685634967,37.20700641999726,0.7588329342817485,0.5844462901556583,A,580.7423000005656,Correct,sub_006_day_09_data.csv,1,300,77.0,Training at home,,,,,,,,,,,,,
6,9,1932,B,55.24110188521245,37.05312637880001,2.7620550942606226,0.5820291481208615,B,821.3964000024134,Correct,sub_006_day_09_data.csv,1,300,77.0,Training at home,,,,,,,,,,,,,
6,9,1933,A,64.474452023921,84.38440034125561,3.2237226011960503,1.3255070609483433,A,1051.255599999422,Correct,sub_006_day_09_data.csv,1,300,77.0,Training at home,,,,,,,,,,,,,
6,9,1934,A,41.80619035926138,69.8055157072302,2.0903095179630693,1.0965024766294065,A,887.8714000020409,Correct,sub_006_day_09_data.csv,1,300,77.0,Training at home,,,,,,,,,,,,,
6,9,1935,B,47.800231813834856,36.598183505970134,2.3900115906917425,0.5748829221854345,B,568.5747999996238,Correct,sub_006_day_09_data.csv,1,300,77.0,Training at home,,,,,,,,,,,,,
6,9,1936,A,64.29116978877947,75.05304846558326,3.2145584894389736,1.1789305284449751,A,1186.033699999825,Correct,sub_006_day_09_data.csv,1,300,77.0,Training at home,,,,,,,,,,,,,
6,9,1937,A,36.60155147540225,48.99050657436344,1.8300775737701127,0.7695410777483132,B,625.5802999985463,Incorrect,sub_006_day_09_data.csv,0,300,77.0,Training at home,,,,,,,,,,,,,
6,9,1938,B,80.26378999424617,67.18151508978947,4.0131894997123085,1.0552847713155724,B,723.9683999978297,Correct,sub_006_day_09_data.csv,1,300,77.0,Training at home,,,,,,,,,,,,,
6,9,1939,B,86.21121546591506,60.71921257769857,4.310560773295753,0.953775160829274,B,687.3229000011634,Correct,sub_006_day_09_data.csv,1,300,77.0,Training at home,,,,,,,,,,,,,
6,9,1940,B,31.301417095757483,15.075351989742211,1.5650708547878742,0.236803075306272,A,612.250900001527,Incorrect,sub_006_day_09_data.csv,0,300,77.0,Training at home,,,,,,,,,,,,,
6,9,1941,A,57.20281885760053,76.43344349639034,2.8601409428800264,1.200613722884152,A,704.4859999987239,Correct,sub_006_day_09_data.csv,1,300,77.0,Training at home,,,,,,,,,,,,,
6,9,1942,A,47.77367873319921,61.977153131042485,2.3886839366599606,0.9735348448344636,B,658.7566000016523,Incorrect,sub_006_day_09_data.csv,0,300,77.0,Training at home,,,,,,,,,,,,,
6,9,1943,A,54.77539790230355,81.08313023822667,2.7387698951151775,1.2736508314323864,B,871.7308000013873,Incorrect,sub_006_day_09_data.csv,0,300,77.0,Training at home,,,,,,,,,,,,,
6,9,1944,B,45.06159481439172,35.28259620121459,2.253079740719586,0.5542177251265544,B,731.1941000007209,Correct,sub_006_day_09_data.csv,1,300,77.0,Training at home,,,,,,,,,,,,,
6,9,1945,A,39.47119713654744,62.78003346507954,1.973559856827372,0.9861464596300762,A,656.603700001142,Correct,sub_006_day_09_data.csv,1,300,77.0,Training at home,,,,,,,,,,,,,
6,9,1946,A,42.68601188417804,56.2649537864251,2.134300594208902,0.8838078273500116,A,1380.5795000007492,Correct,sub_006_day_09_data.csv,1,300,77.0,Training at home,,,,,,,,,,,,,
6,9,1947,B,59.1242978646728,46.98740097861079,2.95621489323364,0.7380763686284075,B,768.7975999979244,Correct,sub_006_day_09_data.csv,1,300,77.0,Training at home,,,,,,,,,,,,,
6,9,1948,A,40.70162567063761,54.357492400775165,2.035081283531881,0.8538454939691914,B,1047.30230000132,Incorrect,sub_006_day_09_data.csv,0,300,77.0,Training at home,,,,,,,,,,,,,
6,9,1949,A,30.393818988020357,41.73391701434837,1.519690949401018,0.6555548354890146,A,535.8237000000372,Correct,sub_006_day_09_data.csv,1,300,77.0,Training at home,,,,,,,,,,,,,
6,9,1950,B,58.71204779653338,42.84419601932141,2.9356023898266694,0.6729950573163059,B,553.5143000015523,Correct,sub_006_day_09_data.csv,1,300,78.0,Training at home,,,,,,,,,,,,,
6,9,1951,B,48.84335422489284,33.68220129588966,2.442167711244642,0.5290787807394979,B,1504.3858000026376,Correct,sub_006_day_09_data.csv,1,300,78.0,Training at home,,,,,,,,,,,,,
6,9,1952,B,70.06182231967718,47.26124737248416,3.5030911159838585,0.7423779377244306,B,622.2889999990002,Correct,sub_006_day_09_data.csv,1,300,78.0,Training at home,,,,,,,,,,,,,
6,9,1953,B,51.66975197533075,37.43722289486984,2.583487598766537,0.5880625220866336,B,668.8021999980265,Correct,sub_006_day_09_data.csv,1,300,78.0,Training at home,,,,,,,,,,,,,
6,9,1954,A,35.08376137213586,50.35200886386553,1.754188068606793,0.7909275057010404,A,633.6443000000145,Correct,sub_006_day_09_data.csv,1,300,78.0,Training at home,,,,,,,,,,,,,
6,9,1955,A,21.782518397422976,44.38967932706375,1.0891259198711487,0.697271452345551,A,549.4292999974277,Correct,sub_006_day_09_data.csv,1,300,78.0,Training at home,,,,,,,,,,,,,
6,9,1956,B,48.61758591981645,38.777313016999905,2.4308792959908225,0.6091126085007939,B,1004.083299998456,Correct,sub_006_day_09_data.csv,1,300,78.0,Training at home,,,,,,,,,,,,,
6,9,1957,B,50.64310173213848,20.13793291003581,2.532155086606924,0.3163259104432632,B,569.4868999999017,Correct,sub_006_day_09_data.csv,1,300,78.0,Training at home,,,,,,,,,,,,,
6,9,1958,B,52.628434728812664,36.793053032404686,2.631421736440633,0.5779439255487111,B,642.0546999979706,Correct,sub_006_day_09_data.csv,1,300,78.0,Training at home,,,,,,,,,,,,,
6,9,1959,B,72.19060059268591,52.616832961207606,3.6095300296342954,0.8265032794304555,B,569.257999999536,Correct,sub_006_day_09_data.csv,1,300,78.0,Training at home,,,,,,,,,,,,,
6,9,1960,A,35.78436219396637,62.48986354466891,1.7892181096983188,0.9815884811788024,A,579.0146999970602,Correct,sub_006_day_09_data.csv,1,300,78.0,Training at home,,,,,,,,,,,,,
6,9,1961,B,72.45715372768643,40.49334784454427,3.6228576863843216,0.6360680205383819,B,749.6995000001334,Correct,sub_006_day_09_data.csv,1,300,78.0,Training at home,,,,,,,,,,,,,
6,9,1962,A,52.37062096978882,65.04323117491077,2.618531048489441,1.0216966861242116,A,579.4666000001598,Correct,sub_006_day_09_data.csv,1,300,78.0,Training at home,,,,,,,,,,,,,
6,9,1963,B,81.78505632597627,63.13502125408366,4.0892528162988135,0.9917225947803232,B,545.5387000001792,Correct,sub_006_day_09_data.csv,1,300,78.0,Training at home,,,,,,,,,,,,,
6,9,1964,B,45.335441423274446,29.435548918227475,2.2667720711637225,0.462372521179432,A,1508.8643000017328,Incorrect,sub_006_day_09_data.csv,0,300,78.0,Training at home,,,,,,,,,,,,,
6,9,1965,A,46.66285769762579,64.40119771717168,2.333142884881289,1.0116116481532518,A,680.2940000015951,Correct,sub_006_day_09_data.csv,1,300,78.0,Training at home,,,,,,,,,,,,,
6,9,1966,A,21.09673192717694,36.684906316329155,1.0548365963588469,0.5762451609050474,A,771.0493999984465,Correct,sub_006_day_09_data.csv,1,300,78.0,Training at home,,,,,,,,,,,,,
6,9,1967,B,41.73626921110594,28.82772686476695,2.086813460555297,0.4528248746902248,A,1689.2880000013974,Incorrect,sub_006_day_09_data.csv,0,300,78.0,Training at home,,,,,,,,,,,,,
6,9,1968,A,62.9943269098012,81.8219243513189,3.1497163454900603,1.2852557822234163,A,950.6504000019048,Correct,sub_006_day_09_data.csv,1,300,78.0,Training at home,,,,,,,,,,,,,
6,9,1969,B,31.1782820746473,12.604648722852012,1.558914103732365,0.1979933591439592,A,595.3986000022269,Incorrect,sub_006_day_09_data.csv,0,300,78.0,Training at home,,,,,,,,,,,,,
6,9,1970,A,26.79176903356696,52.08847437350142,1.339588451678348,0.8182038421424613,A,855.2966999995988,Correct,sub_006_day_09_data.csv,1,300,78.0,Training at home,,,,,,,,,,,,,
6,9,1971,B,74.06750335935008,43.39055492429604,3.703375167967504,0.6815772429267644,B,516.8398000023444,Correct,sub_006_day_09_data.csv,1,300,78.0,Training at home,,,,,,,,,,,,,
6,9,1972,A,33.7390169728758,65.15672116584814,1.68695084864379,1.0234793827331357,A,636.1116000007314,Correct,sub_006_day_09_data.csv,1,300,78.0,Training at home,,,,,,,,,,,,,
6,9,1973,B,80.7013476032864,49.98093792302016,4.03506738016432,0.7850987369924382,B,515.1828999987629,Correct,sub_006_day_09_data.csv,1,300,78.0,Training at home,,,,,,,,,,,,,
6,9,1974,A,48.84136327303224,73.34197054094668,2.442068163651612,1.1520529792561855,A,1093.7856000018655,Correct,sub_006_day_09_data.csv,1,300,78.0,Training at home,,,,,,,,,,,,,
6,9,1975,B,46.53138565488557,25.288283040372125,2.3265692827442788,0.3972274211076622,B,634.8581999991438,Correct,sub_006_day_09_data.csv,1,300,79.0,Training at home,,,,,,,,,,,,,
6,9,1976,A,41.74194756627764,53.17635755754082,2.087097378313882,0.8352922712371715,A,1337.6062999996066,Correct,sub_006_day_09_data.csv,1,300,79.0,Training at home,,,,,,,,,,,,,
6,9,1977,A,16.08168873869214,43.30059222123285,0.804084436934607,0.6801641120915622,A,775.3461000029347,Correct,sub_006_day_09_data.csv,1,300,79.0,Training at home,,,,,,,,,,,,,
6,9,1978,B,78.23573175403787,65.17739049897581,3.9117865877018936,1.0238040558586778,B,808.6363000002166,Correct,sub_006_day_09_data.csv,1,300,79.0,Training at home,,,,,,,,,,,,,
6,9,1979,B,31.82122621701891,18.1333963792254,1.5910613108509457,0.2848387242480314,A,934.6512999982224,Incorrect,sub_006_day_09_data.csv,0,300,79.0,Training at home,,,,,,,,,,,,,
6,9,1980,A,45.055744277249374,52.193477606910584,2.2527872138624687,0.8198532290758682,B,2481.789599998592,Incorrect,sub_006_day_09_data.csv,0,300,79.0,Training at home,,,,,,,,,,,,,
6,9,1981,A,61.896848598617616,74.66340782675694,3.0948424299308805,1.1728100676025912,A,923.8420999972732,Correct,sub_006_day_09_data.csv,1,300,79.0,Training at home,,,,,,,,,,,,,
6,9,1982,B,86.1826738240521,65.31978565783439,4.3091336912026055,1.0260407937835625,B,748.5568999982206,Correct,sub_006_day_09_data.csv,1,300,79.0,Training at home,,,,,,,,,,,,,
6,9,1983,B,33.395095450089954,20.689404574733903,1.669754772504498,0.3249884070956554,A,811.9575999990047,Incorrect,sub_006_day_09_data.csv,0,300,79.0,Training at home,,,,,,,,,,,,,
6,9,1984,B,71.66246731956986,53.59411484094207,3.5831233659784925,0.8418543872997565,B,683.9027999994869,Correct,sub_006_day_09_data.csv,1,300,79.0,Training at home,,,,,,,,,,,,,
6,9,1985,B,67.83419684278292,34.74544999561801,3.391709842139146,0.5457802522595252,B,945.44980000137,Correct,sub_006_day_09_data.csv,1,300,79.0,Training at home,,,,,,,,,,,,,
6,9,1986,A,15.044365287078886,37.65001378329518,0.7522182643539443,0.5914050335457729,A,568.1131000019377,Correct,sub_006_day_09_data.csv,1,300,79.0,Training at home,,,,,,,,,,,,,
6,9,1987,B,71.0772348388601,44.11752787352378,3.5538617419430043,0.6929965073100262,B,604.4265999989875,Correct,sub_006_day_09_data.csv,1,300,79.0,Training at home,,,,,,,,,,,,,
6,9,1988,B,36.6487808842663,23.3701434600821,1.8324390442133152,0.3670973550376674,A,984.8740000015824,Incorrect,sub_006_day_09_data.csv,0,300,79.0,Training at home,,,,,,,,,,,,,
6,9,1989,A,24.585407724365822,47.158854187206174,1.2292703862182912,0.7407695493311958,A,564.2729000028339,Correct,sub_006_day_09_data.csv,1,300,79.0,Training at home,,,,,,,,,,,,,
6,9,1990,A,51.837026169902195,68.37528897100063,2.59185130849511,1.074036527591874,A,1130.6264999984703,Correct,sub_006_day_09_data.csv,1,300,79.0,Training at home,,,,,,,,,,,,,
6,9,1991,B,61.61132213853281,30.073239364073373,3.080566106926641,0.4723893392791015,B,803.4275999998499,Correct,sub_006_day_09_data.csv,1,300,79.0,Training at home,,,,,,,,,,,,,
6,9,1992,B,58.734968500442605,49.57975614455174,2.9367484250221305,0.7787969883524858,B,575.0239999979385,Correct,sub_006_day_09_data.csv,1,300,79.0,Training at home,,,,,,,,,,,,,
6,9,1993,A,68.44351997938827,85.27145299917707,3.4221759989694136,1.33944085151571,A,2361.8295999986003,Correct,sub_006_day_09_data.csv,1,300,79.0,Training at home,,,,,,,,,,,,,
6,9,1994,B,69.60687138051179,57.3964013060132,3.4803435690255897,0.9015805634273136,B,1081.7158999998355,Correct,sub_006_day_09_data.csv,1,300,79.0,Training at home,,,,,,,,,,,,,
6,9,1995,B,71.78413685588858,47.07179867331467,3.589206842794429,0.7394020845167156,B,585.5186000007961,Correct,sub_006_day_09_data.csv,1,300,79.0,Training at home,,,,,,,,,,,,,
6,9,1996,A,52.54037993419926,72.48211844930462,2.627018996709962,1.138546454184803,A,837.4156999998377,Correct,sub_006_day_09_data.csv,1,300,79.0,Training at home,,,,,,,,,,,,,
6,9,1997,A,24.73227624038515,54.121564246481455,1.2366138120192576,0.8501395431876707,A,490.0084999972023,Correct,sub_006_day_09_data.csv,1,300,79.0,Training at home,,,,,,,,,,,,,
6,9,1998,B,63.119836010507406,44.22713349250573,3.15599180052537,0.6947181883469555,B,589.4680000019434,Correct,sub_006_day_09_data.csv,1,300,79.0,Training at home,,,,,,,,,,,,,
6,9,1999,B,62.56273304386745,37.373735912755286,3.1281366521933727,0.5870652709035851,B,659.3551000005391,Correct,sub_006_day_09_data.csv,1,300,79.0,Training at home,,,,,,,,,,,,,
6,9,2000,A,57.3925225006102,82.16096623682121,2.8696261250305097,1.2905814397071826,A,566.9750000015483,Correct,sub_006_day_09_data.csv,1,300,80.0,Training at home,,,,,,,,,,,,,
6,9,2001,B,37.52114147146422,26.281558489092134,1.8760570735732107,0.4128297553711115,B,600.9064999998373,Correct,sub_006_day_09_data.csv,1,300,80.0,Training at home,,,,,,,,,,,,,
6,9,2002,B,47.38800107572645,24.290837025719515,2.3694000537863222,0.3815595757477368,B,707.1953000013309,Correct,sub_006_day_09_data.csv,1,300,80.0,Training at home,,,,,,,,,,,,,
6,9,2003,A,18.43658305485635,46.17186929206638,0.9218291527428176,0.7252660268523196,A,819.2656000028364,Correct,sub_006_day_09_data.csv,1,300,80.0,Training at home,,,,,,,,,,,,,
6,9,2004,B,53.51416253624225,22.666037584684155,2.675708126812113,0.3560372858101693,B,724.5894000006956,Correct,sub_006_day_09_data.csv,1,300,80.0,Training at home,,,,,,,,,,,,,
6,9,2005,A,60.98739645068403,73.16049558620979,3.0493698225342016,1.149202377333126,A,1096.6650000009397,Correct,sub_006_day_09_data.csv,1,300,80.0,Training at home,,,,,,,,,,,,,
6,9,2006,A,56.68909719539468,85.09201909562006,2.8344548597697337,1.336622310349612,A,836.1239000005298,Correct,sub_006_day_09_data.csv,1,300,80.0,Training at home,,,,,,,,,,,,,
6,9,2007,A,41.13762113857329,53.62390407457848,2.056881056928664,0.8423223154874975,A,714.2573999990418,Correct,sub_006_day_09_data.csv,1,300,80.0,Training at home,,,,,,,,,,,,,
6,9,2008,A,67.81593487753,87.4717973946976,3.3907967438765003,1.374003780457384,B,539.7469000017736,Incorrect,sub_006_day_09_data.csv,0,300,80.0,Training at home,,,,,,,,,,,,,
6,9,2009,B,80.75937782317858,62.018779476363534,4.037968891158929,0.9741887099377456,A,977.705999997852,Incorrect,sub_006_day_09_data.csv,0,300,80.0,Training at home,,,,,,,,,,,,,
6,9,2010,A,42.62797701380429,54.396313689265895,2.1313988506902146,0.8544552973428182,A,723.3111999994435,Correct,sub_006_day_09_data.csv,1,300,80.0,Training at home,,,,,,,,,,,,,
6,9,2011,B,84.15194513922066,60.03464651591746,4.207597256961033,0.9430220222763316,B,916.763200002606,Correct,sub_006_day_09_data.csv,1,300,80.0,Training at home,,,,,,,,,,,,,
6,9,2012,A,26.017937102490706,37.83242928085667,1.3008968551245352,0.5942704094809734,A,822.3889000000781,Correct,sub_006_day_09_data.csv,1,300,80.0,Training at home,,,,,,,,,,,,,
6,9,2013,A,57.51227049969103,69.60704942443755,2.875613524984551,1.0933849755493732,A,992.2898000004352,Correct,sub_006_day_09_data.csv,1,300,80.0,Training at home,,,,,,,,,,,,,
6,9,2014,A,45.40366471859913,61.35570344430331,2.2701832359299567,0.9637731359822862,B,690.0424000014027,Incorrect,sub_006_day_09_data.csv,0,300,80.0,Training at home,,,,,,,,,,,,,
6,9,2015,A,19.239935854646877,34.4874743786643,0.9619967927323438,0.54172798074439,A,528.594700001122,Correct,sub_006_day_09_data.csv,1,300,80.0,Training at home,,,,,,,,,,,,,
6,9,2016,A,47.39052684668473,70.23159622333654,2.3695263423342365,1.1031953337255938,A,1075.8896000006644,Correct,sub_006_day_09_data.csv,1,300,80.0,Training at home,,,,,,,,,,,,,
6,9,2017,B,55.34316994565591,25.42072963452152,2.767158497282795,0.3993078873435257,B,573.4947999990254,Correct,sub_006_day_09_data.csv,1,300,80.0,Training at home,,,,,,,,,,,,,
6,9,2018,B,46.24435210909715,27.002405523735987,2.3122176054548573,0.4241527941131072,B,534.7868999997445,Correct,sub_006_day_09_data.csv,1,300,80.0,Training at home,,,,,,,,,,,,,
6,9,2019,B,74.31360239167918,42.007772669024206,3.715680119583959,0.6598565500533827,B,544.0013000006729,Correct,sub_006_day_09_data.csv,1,300,80.0,Training at home,,,,,,,,,,,,,
6,9,2020,B,77.88020882639498,53.679607907063016,3.894010441319749,0.8431973092420487,B,627.6986000011675,Correct,sub_006_day_09_data.csv,1,300,80.0,Training at home,,,,,,,,,,,,,
6,9,2021,B,52.79463910618989,36.5013962553003,2.6397319553094944,0.573362591607107,B,834.2107999997097,Correct,sub_006_day_09_data.csv,1,300,80.0,Training at home,,,,,,,,,,,,,
6,9,2022,A,54.588147207527854,80.45364475706802,2.729407360376393,1.2637628966166392,A,541.1260999972001,Correct,sub_006_day_09_data.csv,1,300,80.0,Training at home,,,,,,,,,,,,,
6,9,2023,A,35.25941118494937,49.1816335290896,1.7629705592474687,0.7725432929326668,A,647.0111000016914,Correct,sub_006_day_09_data.csv,1,300,80.0,Training at home,,,,,,,,,,,,,
6,9,2024,A,26.049231327761618,42.550609475401735,1.302461566388081,0.6683834106684517,A,521.7253000009805,Correct,sub_006_day_09_data.csv,1,300,80.0,Training at home,,,,,,,,,,,,,
6,9,2025,B,49.860452932715006,42.22361547638744,2.4930226466357506,0.6632470009430955,B,2054.289899999276,Correct,sub_006_day_09_data.csv,1,300,81.0,Training at home,,,,,,,,,,,,,
6,9,2026,A,24.340589095342516,54.86647213079596,1.217029454767126,0.8618405288724886,A,658.7217000014789,Correct,sub_006_day_09_data.csv,1,300,81.0,Training at home,,,,,,,,,,,,,
6,9,2027,A,53.73270608296645,63.94786779676495,2.686635304148323,1.0044907584152405,B,598.544899999979,Incorrect,sub_006_day_09_data.csv,0,300,81.0,Training at home,,,,,,,,,,,,,
6,9,2028,A,68.46493761322547,89.16082284975366,3.4232468806612735,1.4005349302640353,A,637.8301000004285,Correct,sub_006_day_09_data.csv,1,300,81.0,Training at home,,,,,,,,,,,,,
6,9,2029,A,49.879743343198314,64.08740743944362,2.4939871671599154,1.0066826419968598,A,958.0065999980434,Correct,sub_006_day_09_data.csv,1,300,81.0,Training at home,,,,,,,,,,,,,
6,9,2030,A,24.075169454527405,39.61400422877093,1.2037584727263704,0.6222553233219088,A,517.8710000000137,Correct,sub_006_day_09_data.csv,1,300,81.0,Training at home,,,,,,,,,,,,,
6,9,2031,B,53.02221433629094,40.11896434800922,2.6511107168145474,0.630187218326683,B,1057.0074999995995,Correct,sub_006_day_09_data.csv,1,300,81.0,Training at home,,,,,,,,,,,,,
6,9,2032,A,39.64011432690804,57.76229523212525,1.982005716345402,0.9073280117786472,A,903.716599998006,Correct,sub_006_day_09_data.csv,1,300,81.0,Training at home,,,,,,,,,,,,,
6,9,2033,B,67.60783942145846,53.144968948289545,3.3803919710729233,0.8347992201160205,B,586.154999997234,Correct,sub_006_day_09_data.csv,1,300,81.0,Training at home,,,,,,,,,,,,,
6,9,2034,B,89.09253546435718,68.26812197158537,4.454626773217859,1.0723531523015226,B,1265.143900000112,Correct,sub_006_day_09_data.csv,1,300,81.0,Training at home,,,,,,,,,,,,,
6,9,2035,B,78.86245948309987,57.87172697968923,3.943122974154994,0.9090469616497294,B,564.8596999999427,Correct,sub_006_day_09_data.csv,1,300,81.0,Training at home,,,,,,,,,,,,,
6,9,2036,B,55.34505989310504,43.31469131920046,2.767252994655252,0.6803855802045489,A,1228.8265999995929,Incorrect,sub_006_day_09_data.csv,0,300,81.0,Training at home,,,,,,,,,,,,,
6,9,2037,A,34.43358389429707,45.19700096693656,1.7216791947148535,0.7099528310100933,A,690.4457999989972,Correct,sub_006_day_09_data.csv,1,300,81.0,Training at home,,,,,,,,,,,,,
6,9,2038,B,37.16391938234314,11.58345280183255,1.8581959691171568,0.1819524511272062,B,1001.8429000010656,Correct,sub_006_day_09_data.csv,1,300,81.0,Training at home,,,,,,,,,,,,,
6,9,2039,A,42.86223782724714,68.22933743966709,2.1431118913623575,1.0717439262987858,A,630.7138000011037,Correct,sub_006_day_09_data.csv,1,300,81.0,Training at home,,,,,,,,,,,,,
6,9,2040,B,49.334769163632664,37.84845852744763,2.4667384581816334,0.5945221962976373,B,596.7941999988398,Correct,sub_006_day_09_data.csv,1,300,81.0,Training at home,,,,,,,,,,,,,
6,9,2041,B,31.94174503763842,12.7788820189921,1.5970872518819208,0.2007302093597814,B,940.273199998046,Correct,sub_006_day_09_data.csv,1,300,81.0,Training at home,,,,,,,,,,,,,
6,9,2042,B,58.712792577535986,41.884486767304935,2.935639628876799,0.6579199796377204,B,511.7428999983531,Correct,sub_006_day_09_data.csv,1,300,81.0,Training at home,,,,,,,,,,,,,
6,9,2043,A,58.19405166641047,77.37466904346675,2.9097025833205237,1.2153984592044835,B,655.5990000015299,Incorrect,sub_006_day_09_data.csv,0,300,81.0,Training at home,,,,,,,,,,,,,
6,9,2044,A,44.76349036674632,70.94034919970794,2.2381745183373156,1.114328399444485,A,613.4111999999732,Correct,sub_006_day_09_data.csv,1,300,81.0,Training at home,,,,,,,,,,,,,
6,9,2045,A,19.02738222741069,48.62597316494914,0.9513691113705346,0.7638150003432931,A,699.6407000006002,Correct,sub_006_day_09_data.csv,1,300,81.0,Training at home,,,,,,,,,,,,,
6,9,2046,B,34.62037816695074,23.443463854398814,1.7310189083475371,0.3682490690983858,B,731.2050000000454,Correct,sub_006_day_09_data.csv,1,300,81.0,Training at home,,,,,,,,,,,,,
6,9,2047,A,50.257196505448704,78.5349726895596,2.512859825272435,1.233624466256977,A,694.6099000015238,Correct,sub_006_day_09_data.csv,1,300,81.0,Training at home,,,,,,,,,,,,,
6,9,2048,A,61.48685342722237,71.41428943639983,3.074342671361119,1.1217730352736444,B,992.9885999990802,Incorrect,sub_006_day_09_data.csv,0,300,81.0,Training at home,,,,,,,,,,,,,
6,9,2049,A,55.7840631816635,80.5812528274285,2.7892031590831747,1.2657673594985557,B,855.391500001133,Incorrect,sub_006_day_09_data.csv,0,300,81.0,Training at home,,,,,,,,,,,,,
6,9,2050,B,67.69040815196114,35.94940279608291,3.384520407598057,0.5646918986255721,B,581.037899999501,Correct,sub_006_day_09_data.csv,1,300,82.0,Training at home,,,,,,,,,,,,,
6,9,2051,A,33.94052948591528,46.147865363773725,1.697026474295764,0.7248889740284121,A,644.3889000001946,Correct,sub_006_day_09_data.csv,1,300,82.0,Training at home,,,,,,,,,,,,,
6,9,2052,A,54.9779111778816,72.137384118138,2.7488955588940804,1.1331313799736369,B,1389.6338999984437,Incorrect,sub_006_day_09_data.csv,0,300,82.0,Training at home,,,,,,,,,,,,,
6,9,2053,A,43.34353495959098,53.742263518739726,2.167176747979549,0.8441815012887973,B,861.8236000002071,Incorrect,sub_006_day_09_data.csv,0,300,82.0,Training at home,,,,,,,,,,,,,
6,9,2054,A,18.03364166913406,36.75394442681217,0.901682083456703,0.5773296090086032,A,551.4871000013954,Correct,sub_006_day_09_data.csv,1,300,82.0,Training at home,,,,,,,,,,,,,
6,9,2055,B,46.694797423011806,17.099358920840235,2.3347398711505902,0.2685961018340339,B,574.9381999994512,Correct,sub_006_day_09_data.csv,1,300,82.0,Training at home,,,,,,,,,,,,,
6,9,2056,B,59.055270459922546,46.3242186239719,2.9527635229961273,0.7276591245617882,B,610.7002999997349,Correct,sub_006_day_09_data.csv,1,300,82.0,Training at home,,,,,,,,,,,,,
6,9,2057,B,55.88366398056976,48.1232346910665,2.794183199028488,0.7559180028621598,B,570.6463999995322,Correct,sub_006_day_09_data.csv,1,300,82.0,Training at home,,,,,,,,,,,,,
6,9,2058,B,83.52051364843273,61.57523085637318,4.176025682421636,0.9672214645073876,B,597.2160000019358,Correct,sub_006_day_09_data.csv,1,300,82.0,Training at home,,,,,,,,,,,,,
6,9,2059,B,70.05821603057981,41.57244748810256,3.502910801528991,0.6530184781018522,B,672.0040000000154,Correct,sub_006_day_09_data.csv,1,300,82.0,Training at home,,,,,,,,,,,,,
6,9,2060,A,44.18433981643211,52.882143155733445,2.2092169908216053,0.8306707622206796,A,1267.9295999987517,Correct,sub_006_day_09_data.csv,1,300,82.0,Training at home,,,,,,,,,,,,,
6,9,2061,B,41.73804447038526,18.36965991953878,2.086902223519263,0.2885499432608295,B,889.4701999997778,Correct,sub_006_day_09_data.csv,1,300,82.0,Training at home,,,,,,,,,,,,,
6,9,2062,B,60.45675640815346,44.397453373209174,3.022837820407673,0.6973935667768466,B,1980.7876000013491,Correct,sub_006_day_09_data.csv,1,300,82.0,Training at home,,,,,,,,,,,,,
6,9,2063,B,42.91394567992492,22.349239529833735,2.1456972839962463,0.3510610336012212,B,849.336500003119,Correct,sub_006_day_09_data.csv,1,300,82.0,Training at home,,,,,,,,,,,,,
6,9,2064,B,32.32331908410024,10.404252971151877,1.616165954205012,0.1634296235013025,B,638.639199998579,Correct,sub_006_day_09_data.csv,1,300,82.0,Training at home,,,,,,,,,,,,,
6,9,2065,B,64.6510992446261,45.93868488895783,3.232554962231305,0.7216031748136318,B,699.3685999987065,Correct,sub_006_day_09_data.csv,1,300,82.0,Training at home,,,,,,,,,,,,,
6,9,2066,B,55.54129885521999,25.80682987089262,2.7770649427609997,0.4053727356741894,B,909.8166000003404,Correct,sub_006_day_09_data.csv,1,300,82.0,Training at home,,,,,,,,,,,,,
6,9,2067,A,33.16387350271097,46.92478870607408,1.6581936751355486,0.7370928573512782,A,551.9101999998384,Correct,sub_006_day_09_data.csv,1,300,82.0,Training at home,,,,,,,,,,,,,
6,9,2068,B,62.677550232524354,31.49726410271092,3.133877511626218,0.4947578675662706,B,660.926799999288,Correct,sub_006_day_09_data.csv,1,300,82.0,Training at home,,,,,,,,,,,,,
6,9,2069,B,66.56199011589247,39.09080001832766,3.328099505794623,0.6140368508026296,B,869.2411000010907,Correct,sub_006_day_09_data.csv,1,300,82.0,Training at home,,,,,,,,,,,,,
6,9,2070,A,35.917430269686626,66.54168039367119,1.7958715134843315,1.045234271411387,A,710.9375,Correct,sub_006_day_09_data.csv,1,300,82.0,Training at home,,,,,,,,,,,,,
6,9,2071,B,70.80228266884701,46.12515283694838,3.5401141334423505,0.7245322064913171,B,684.1526000025624,Correct,sub_006_day_09_data.csv,1,300,82.0,Training at home,,,,,,,,,,,,,
6,9,2072,A,44.93074762333969,68.22776637560605,2.2465373811669846,1.0717192480822233,A,750.7770000011078,Correct,sub_006_day_09_data.csv,1,300,82.0,Training at home,,,,,,,,,,,,,
6,9,2073,A,24.701088570298595,52.29808716682517,1.2350544285149296,0.8214964322004829,A,556.3700000020617,Correct,sub_006_day_09_data.csv,1,300,82.0,Training at home,,,,,,,,,,,,,
6,9,2074,B,76.04212014953762,57.594297221040904,3.802106007476881,0.9046891051914456,B,481.9632999970054,Correct,sub_006_day_09_data.csv,1,300,82.0,Training at home,,,,,,,,,,,,,
6,9,2075,A,32.11925834324046,53.4753239725229,1.605962917162023,0.8399884247020606,A,478.19190000154776,Correct,sub_006_day_09_data.csv,1,300,83.0,Training at home,,,,,,,,,,,,,
6,9,2076,B,88.41844805550126,61.42102091471875,4.420922402775063,0.9647991404083271,B,408.606699998927,Correct,sub_006_day_09_data.csv,1,300,83.0,Training at home,,,,,,,,,,,,,
6,9,2077,A,21.5552381681202,35.43663516473174,1.07776190840601,0.5566373635073149,A,581.0750999989978,Correct,sub_006_day_09_data.csv,1,300,83.0,Training at home,,,,,,,,,,,,,
6,9,2078,B,56.92444394675879,33.94052609904309,2.8462221973379394,0.5331365372586321,B,546.3485000000219,Correct,sub_006_day_09_data.csv,1,300,83.0,Training at home,,,,,,,,,,,,,
6,9,2079,B,45.44502521653751,19.133951166337553,2.2722512608268755,0.3005554020915595,B,814.0884999993432,Correct,sub_006_day_09_data.csv,1,300,83.0,Training at home,,,,,,,,,,,,,
6,9,2080,B,55.78609163948899,45.066657805951145,2.789304581974449,0.7079054054251062,B,1207.2017999998934,Correct,sub_006_day_09_data.csv,1,300,83.0,Training at home,,,,,,,,,,,,,
6,9,2081,A,50.92874274431359,71.36953321064598,2.5464371372156793,1.1210700061234908,A,1192.2988000005716,Correct,sub_006_day_09_data.csv,1,300,83.0,Training at home,,,,,,,,,,,,,
6,9,2082,A,37.798736499610115,70.41349530666008,1.889936824980506,1.1060525978449136,A,1650.4383999999843,Correct,sub_006_day_09_data.csv,1,300,83.0,Training at home,,,,,,,,,,,,,
6,9,2083,A,36.928937503783246,65.89602489495947,1.846446875189162,1.0350923385538735,A,552.5278000022809,Correct,sub_006_day_09_data.csv,1,300,83.0,Training at home,,,,,,,,,,,,,
6,9,2084,B,51.36349416944167,30.608165209156994,2.5681747084720836,0.4807919348047516,B,566.821099997469,Correct,sub_006_day_09_data.csv,1,300,83.0,Training at home,,,,,,,,,,,,,
6,9,2085,A,24.171784577288108,55.89711567929841,1.2085892288644051,0.8780298398747136,A,550.2605000001495,Correct,sub_006_day_09_data.csv,1,300,83.0,Training at home,,,,,,,,,,,,,
6,9,2086,A,42.25188953566717,56.822358520712726,2.1125944767833587,0.8925635204415825,A,678.6087000000407,Correct,sub_006_day_09_data.csv,1,300,83.0,Training at home,,,,,,,,,,,,,
6,9,2087,B,33.47551226975581,12.968639192383169,1.6737756134877906,0.2037109080692381,B,626.2740999991365,Correct,sub_006_day_09_data.csv,1,300,83.0,Training at home,,,,,,,,,,,,,
6,9,2088,B,56.301173521205264,37.212249289790705,2.815058676060263,0.5845286449617924,B,925.775399999111,Correct,sub_006_day_09_data.csv,1,300,83.0,Training at home,,,,,,,,,,,,,
6,9,2089,B,72.87748846476178,52.756949528780865,3.643874423238089,0.8287042253271273,B,726.968199996918,Correct,sub_006_day_09_data.csv,1,300,83.0,Training at home,,,,,,,,,,,,,
6,9,2090,A,30.56244301699372,54.37946572963948,1.528122150849686,0.8541906502118666,A,585.6132000008074,Correct,sub_006_day_09_data.csv,1,300,83.0,Training at home,,,,,,,,,,,,,
6,9,2091,B,64.99348513174563,36.9238225000292,3.249674256587282,0.5799980475427261,B,1158.283099997789,Correct,sub_006_day_09_data.csv,1,300,83.0,Training at home,,,,,,,,,,,,,
6,9,2092,B,84.18174865845792,59.31038694275097,4.209087432922896,0.9316453795045722,B,701.9751999978325,Correct,sub_006_day_09_data.csv,1,300,83.0,Training at home,,,,,,,,,,,,,
6,9,2093,A,42.41984667836119,54.74467853170939,2.120992333918059,0.8599273994917654,A,708.73329999813,Correct,sub_006_day_09_data.csv,1,300,83.0,Training at home,,,,,,,,,,,,,
6,9,2094,A,14.7873929431953,31.3600664335302,0.739369647159765,0.4926027716183317,A,553.9672000013525,Correct,sub_006_day_09_data.csv,1,300,83.0,Training at home,,,,,,,,,,,,,
6,9,2095,A,20.73977874880008,47.40730358018374,1.036988937440004,0.7446721832700318,A,579.3191000011575,Correct,sub_006_day_09_data.csv,1,300,83.0,Training at home,,,,,,,,,,,,,
6,9,2096,A,58.52080656035386,66.56673921758174,2.9260403280176934,1.045627894496912,A,838.9771999973163,Correct,sub_006_day_09_data.csv,1,300,83.0,Training at home,,,,,,,,,,,,,
6,9,2097,B,38.65911298472171,22.607946714787168,1.932955649236085,0.3551247965596243,B,1089.882399999624,Correct,sub_006_day_09_data.csv,1,300,83.0,Training at home,,,,,,,,,,,,,
6,9,2098,B,58.49928098125588,45.7910334404576,2.924964049062794,0.7192838712841306,B,1989.5246000014597,Correct,sub_006_day_09_data.csv,1,300,83.0,Training at home,,,,,,,,,,,,,
6,9,2099,A,40.13755297398866,72.56920393415044,2.006877648699433,1.1399143897819326,A,796.0475999971095,Correct,sub_006_day_09_data.csv,1,300,83.0,Training at home,,,,,,,,,,,,,
