subject,day,trial,cat,x,y,xt,yt,resp,rt,fb,f_name,acc,n_trials,block,session_type,ns_left_digit,ns_right_digit,ns_left_size,ns_right_size,ns_congruent,ns_cue,ns_correct_side,ns_resp,ns_rt,ns_fb,acc_stroop,acc_stroop_mean,resp_key
6,3,300,A,43.99776319021003,73.84679038197953,2.1998881595105018,1.1599826707760617,B,1306.603900011396,Incorrect,sub_006_day_03_data.csv,0,300,12.0,Training at home,,,,,,,,,,,,,
6,3,301,A,19.12162672126814,48.46137126852999,0.9560813360634072,0.7612294398005065,A,630.8831000060309,Correct,sub_006_day_03_data.csv,1,300,12.0,Training at home,,,,,,,,,,,,,
6,3,302,B,64.63605949771653,48.20334036878905,3.2318029748858264,0.7571762999053799,B,1302.767900007893,Correct,sub_006_day_03_data.csv,1,300,12.0,Training at home,,,,,,,,,,,,,
6,3,303,A,68.16235637585399,82.44863032717716,3.4081178187926993,1.295100056672002,B,742.7017999871168,Incorrect,sub_006_day_03_data.csv,0,300,12.0,Training at home,,,,,,,,,,,,,
6,3,304,A,13.26481937061379,31.358646483941538,0.6632409685306895,0.4925804671023506,A,583.7184999982128,Correct,sub_006_day_03_data.csv,1,300,12.0,Training at home,,,,,,,,,,,,,
6,3,305,B,34.63979475347301,19.366995904490448,1.7319897376736506,0.304216060278254,A,965.502099992591,Incorrect,sub_006_day_03_data.csv,0,300,12.0,Training at home,,,,,,,,,,,,,
6,3,306,B,58.0275670797275,31.24294898393605,2.901378353986375,0.4907630950220709,B,1338.7883999967016,Correct,sub_006_day_03_data.csv,1,300,12.0,Training at home,,,,,,,,,,,,,
6,3,307,B,42.61949891910432,20.116721660721524,2.130974945955216,0.315992724918167,B,740.0867999967886,Correct,sub_006_day_03_data.csv,1,300,12.0,Training at home,,,,,,,,,,,,,
6,3,308,B,60.209032990396736,46.34461410738684,3.010451649519837,0.727979496066102,B,2383.1033000024036,Correct,sub_006_day_03_data.csv,1,300,12.0,Training at home,,,,,,,,,,,,,
6,3,309,A,21.325874084881704,39.13511340337341,1.0662937042440852,0.6147329238272068,A,803.7632000050507,Correct,sub_006_day_03_data.csv,1,300,12.0,Training at home,,,,,,,,,,,,,
6,3,310,A,40.04692279069019,64.67494882458689,2.00234613953451,1.01591172049309,A,1912.165899993852,Correct,sub_006_day_03_data.csv,1,300,12.0,Training at home,,,,,,,,,,,,,
6,3,311,B,79.91085390948135,49.02977358120583,3.995542695474067,0.770157882449436,B,915.7664999947884,Correct,sub_006_day_03_data.csv,1,300,12.0,Training at home,,,,,,,,,,,,,
6,3,312,B,47.46919398934958,40.192040356663554,2.373459699467479,0.6313350935863936,B,1702.7337000035914,Correct,sub_006_day_03_data.csv,1,300,12.0,Training at home,,,,,,,,,,,,,
6,3,313,B,47.051628962224214,26.1227507766975,2.3525814481112106,0.4103352096581497,B,1445.8300999976927,Correct,sub_006_day_03_data.csv,1,300,12.0,Training at home,,,,,,,,,,,,,
6,3,314,A,30.15965660871324,61.10278323909713,1.507982830435662,0.9598002746891854,A,1058.2970999967074,Correct,sub_006_day_03_data.csv,1,300,12.0,Training at home,,,,,,,,,,,,,
6,3,315,A,18.03101680911977,40.00885853452815,0.9015508404559884,0.6284576802529347,A,674.2389999999432,Correct,sub_006_day_03_data.csv,1,300,12.0,Training at home,,,,,,,,,,,,,
6,3,316,A,43.10532860054193,53.07877062302093,2.1552664300270963,0.8337593792543013,B,857.984900008887,Incorrect,sub_006_day_03_data.csv,0,300,12.0,Training at home,,,,,,,,,,,,,
6,3,317,B,38.877806671992474,15.7745700966909,1.9438903335996236,0.2477863676465068,B,1122.2211999993306,Correct,sub_006_day_03_data.csv,1,300,12.0,Training at home,,,,,,,,,,,,,
6,3,318,A,36.91935917538128,61.95218795843494,1.845967958769064,0.9731426928201664,A,1237.593199999537,Correct,sub_006_day_03_data.csv,1,300,12.0,Training at home,,,,,,,,,,,,,
6,3,319,B,68.73399162622823,38.88180503096051,3.4366995813114114,0.610753965217881,B,693.0629999988014,Correct,sub_006_day_03_data.csv,1,300,12.0,Training at home,,,,,,,,,,,,,
6,3,320,A,26.22084060495721,50.250647974239065,1.3110420302478605,0.7893353325699815,A,856.5309000114212,Correct,sub_006_day_03_data.csv,1,300,12.0,Training at home,,,,,,,,,,,,,
6,3,321,A,54.04092183552301,70.11864535877052,2.7020460917761504,1.1014211056939076,A,946.0917999967932,Correct,sub_006_day_03_data.csv,1,300,12.0,Training at home,,,,,,,,,,,,,
6,3,322,B,45.31350007845527,36.40882047257001,2.2656750039227633,0.571908414612478,B,676.782299997285,Correct,sub_006_day_03_data.csv,1,300,12.0,Training at home,,,,,,,,,,,,,
6,3,323,B,78.1257707301106,52.292652199312315,3.90628853650553,0.8214110599304285,B,589.2293000069913,Correct,sub_006_day_03_data.csv,1,300,12.0,Training at home,,,,,,,,,,,,,
6,3,324,B,61.44074619887627,39.52748675517668,3.0720373099438136,0.6208963100246545,B,785.1019000081578,Correct,sub_006_day_03_data.csv,1,300,12.0,Training at home,,,,,,,,,,,,,
6,3,325,B,52.07346845056373,21.77615130320316,2.603673422528187,0.3420589847880142,A,1088.7732000119286,Incorrect,sub_006_day_03_data.csv,0,300,13.0,Training at home,,,,,,,,,,,,,
6,3,326,A,22.972583595778584,53.79986268978887,1.1486291797889292,0.8450862669519015,A,679.5896999974502,Correct,sub_006_day_03_data.csv,1,300,13.0,Training at home,,,,,,,,,,,,,
6,3,327,B,66.43431859981347,36.881199708666195,3.3217159299906736,0.5793285303016188,B,552.6815999910468,Correct,sub_006_day_03_data.csv,1,300,13.0,Training at home,,,,,,,,,,,,,
6,3,328,B,72.05933232988272,53.22262438775216,3.602966616494137,0.8360190289066558,B,540.717299998505,Correct,sub_006_day_03_data.csv,1,300,13.0,Training at home,,,,,,,,,,,,,
6,3,329,A,46.411241536627415,57.801881887928445,2.320562076831371,0.9079498375139048,B,812.4318000045605,Incorrect,sub_006_day_03_data.csv,0,300,13.0,Training at home,,,,,,,,,,,,,
6,3,330,B,50.85944092181043,20.734801917844077,2.5429720460905214,0.3257015068936925,B,1230.20349998842,Correct,sub_006_day_03_data.csv,1,300,13.0,Training at home,,,,,,,,,,,,,
6,3,331,A,61.67986160524952,84.4385055803427,3.083993080262476,1.3263569440565268,A,859.4199999934062,Correct,sub_006_day_03_data.csv,1,300,13.0,Training at home,,,,,,,,,,,,,
6,3,332,A,58.42060766970323,67.37685311642804,2.921030383485162,1.0583531338628445,B,656.2918999989051,Incorrect,sub_006_day_03_data.csv,0,300,13.0,Training at home,,,,,,,,,,,,,
6,3,333,A,53.1512962840692,62.425212106075065,2.65756481420346,0.98057293875615,B,791.5115000068909,Incorrect,sub_006_day_03_data.csv,0,300,13.0,Training at home,,,,,,,,,,,,,
6,3,334,A,18.84595780970124,32.784181197232584,0.942297890485062,0.5149727140159126,A,633.8402000110364,Correct,sub_006_day_03_data.csv,1,300,13.0,Training at home,,,,,,,,,,,,,
6,3,335,B,85.71458746744568,62.60592319019676,4.285729373372284,0.9834115418276448,B,507.4948000110453,Correct,sub_006_day_03_data.csv,1,300,13.0,Training at home,,,,,,,,,,,,,
6,3,336,A,51.6780729927117,73.88393361359056,2.583903649635585,1.1605661152938604,B,589.0764000068884,Incorrect,sub_006_day_03_data.csv,0,300,13.0,Training at home,,,,,,,,,,,,,
6,3,337,A,48.72582136507234,67.06224241385641,2.436291068253617,1.0534112405031455,B,638.487799995346,Incorrect,sub_006_day_03_data.csv,0,300,13.0,Training at home,,,,,,,,,,,,,
6,3,338,A,31.421606048785183,62.09234777930787,1.5710803024392592,0.9753443181380808,A,655.9568000084255,Correct,sub_006_day_03_data.csv,1,300,13.0,Training at home,,,,,,,,,,,,,
6,3,339,A,35.26222686985811,56.93660738857353,1.7631113434929058,0.8943581374613446,A,616.9177999981912,Correct,sub_006_day_03_data.csv,1,300,13.0,Training at home,,,,,,,,,,,,,
6,3,340,A,46.42038993834396,70.08319181100272,2.3210194969171978,1.1008642026678523,A,580.4594999935944,Correct,sub_006_day_03_data.csv,1,300,13.0,Training at home,,,,,,,,,,,,,
6,3,341,B,81.13665461643237,62.26094693242718,4.056832730821618,0.977992667442286,B,731.0736999934306,Correct,sub_006_day_03_data.csv,1,300,13.0,Training at home,,,,,,,,,,,,,
6,3,342,B,72.04709726720647,60.26128813056167,3.6023548633603237,0.9465821004341518,B,982.7124000003096,Correct,sub_006_day_03_data.csv,1,300,13.0,Training at home,,,,,,,,,,,,,
6,3,343,B,84.36380810563436,67.77866974688028,4.218190405281718,1.0646648547344393,B,881.1706000124104,Correct,sub_006_day_03_data.csv,1,300,13.0,Training at home,,,,,,,,,,,,,
6,3,344,B,56.67481259000983,42.78605808500378,2.833740629500491,0.6720818287795703,A,1027.210099986405,Incorrect,sub_006_day_03_data.csv,0,300,13.0,Training at home,,,,,,,,,,,,,
6,3,345,B,73.84480547476093,48.589151360861216,3.692240273738047,0.7632366047972204,B,858.3552999916719,Correct,sub_006_day_03_data.csv,1,300,13.0,Training at home,,,,,,,,,,,,,
6,3,346,B,51.49787859954614,43.97543830219168,2.574893929977307,0.6907645695427829,B,599.6672999899602,Correct,sub_006_day_03_data.csv,1,300,13.0,Training at home,,,,,,,,,,,,,
6,3,347,A,14.416288250547977,40.08226089390844,0.7208144125273988,0.629610681817861,A,652.2431000048527,Correct,sub_006_day_03_data.csv,1,300,13.0,Training at home,,,,,,,,,,,,,
6,3,348,B,63.763837181185195,55.593975962514634,3.1881918590592595,0.8732681323384175,B,679.8393000062788,Correct,sub_006_day_03_data.csv,1,300,13.0,Training at home,,,,,,,,,,,,,
6,3,349,A,64.69570983268025,75.87569527492548,3.234785491634012,1.1918526343086182,A,775.3675999992993,Correct,sub_006_day_03_data.csv,1,300,13.0,Training at home,,,,,,,,,,,,,
6,3,350,B,59.21592085466487,42.22756169732182,2.960796042733244,0.6633089880365799,B,794.7768000012729,Correct,sub_006_day_03_data.csv,1,300,14.0,Training at home,,,,,,,,,,,,,
6,3,351,A,46.02823100634146,69.05134260465069,2.3014115503170727,1.0846559532364124,A,1246.62079999689,Correct,sub_006_day_03_data.csv,1,300,14.0,Training at home,,,,,,,,,,,,,
6,3,352,B,70.54204456486154,54.812479099482914,3.527102228243077,0.8609924083198979,B,648.0118000035873,Correct,sub_006_day_03_data.csv,1,300,14.0,Training at home,,,,,,,,,,,,,
6,3,353,A,66.19682512433512,86.97361303520219,3.3098412562167563,1.3661783188377632,A,975.1545999897644,Correct,sub_006_day_03_data.csv,1,300,14.0,Training at home,,,,,,,,,,,,,
6,3,354,A,42.145982181750874,67.5354626158737,2.1072991090875437,1.0608445660540846,B,737.8327000042191,Incorrect,sub_006_day_03_data.csv,0,300,14.0,Training at home,,,,,,,,,,,,,
6,3,355,A,37.61670948069661,58.73706971963207,1.8808354740348308,0.922639733622938,A,909.9215000023833,Correct,sub_006_day_03_data.csv,1,300,14.0,Training at home,,,,,,,,,,,,,
6,3,356,A,25.357078923752912,38.84467049376231,1.2678539461876457,0.6101706572715995,A,670.2321999910055,Correct,sub_006_day_03_data.csv,1,300,14.0,Training at home,,,,,,,,,,,,,
6,3,357,A,45.18084503380645,74.26870139608265,2.259042251690323,1.166610033487936,A,777.8793000034057,Correct,sub_006_day_03_data.csv,1,300,14.0,Training at home,,,,,,,,,,,,,
6,3,358,B,80.86962012688481,66.80198752480783,4.043481006344241,1.0493231662656664,B,718.4165999933612,Correct,sub_006_day_03_data.csv,1,300,14.0,Training at home,,,,,,,,,,,,,
6,3,359,A,64.02965516992923,83.79767340373317,3.2014827584964616,1.3162907757654243,B,984.0542000019924,Incorrect,sub_006_day_03_data.csv,0,300,14.0,Training at home,,,,,,,,,,,,,
6,3,360,A,25.9792737367733,40.821743222559135,1.2989636868386651,0.6412264430736035,A,609.2363000061596,Correct,sub_006_day_03_data.csv,1,300,14.0,Training at home,,,,,,,,,,,,,
6,3,361,A,50.38197709618322,61.423517695236825,2.519098854809161,0.9648383597449932,B,707.0138000126462,Incorrect,sub_006_day_03_data.csv,0,300,14.0,Training at home,,,,,,,,,,,,,
6,3,362,A,47.94362509314646,79.11130935703405,2.397181254657323,1.242677541459638,A,1030.2370999997947,Correct,sub_006_day_03_data.csv,1,300,14.0,Training at home,,,,,,,,,,,,,
6,3,363,B,62.800701576508544,31.78222472111365,3.1400350788254277,0.4992340184929527,B,810.123700008262,Correct,sub_006_day_03_data.csv,1,300,14.0,Training at home,,,,,,,,,,,,,
6,3,364,B,45.477488487741766,31.83901199380128,2.2738744243870883,0.500126030886417,B,1152.5533000094583,Correct,sub_006_day_03_data.csv,1,300,14.0,Training at home,,,,,,,,,,,,,
6,3,365,A,28.756190375589423,49.38047164768115,1.4378095187794713,0.7756666347957706,A,957.0220000023256,Correct,sub_006_day_03_data.csv,1,300,14.0,Training at home,,,,,,,,,,,,,
6,3,366,B,46.06330289737687,23.908633898327935,2.3031651448688435,0.3755559430617746,B,924.132299987832,Correct,sub_006_day_03_data.csv,1,300,14.0,Training at home,,,,,,,,,,,,,
6,3,367,A,38.44705581165612,69.90682750177,1.9223527905828064,1.0980938785766476,A,599.5572000101674,Correct,sub_006_day_03_data.csv,1,300,14.0,Training at home,,,,,,,,,,,,,
6,3,368,B,31.443524041863824,11.96347159818027,1.5721762020931913,0.1879217724213663,A,1494.3214999948395,Incorrect,sub_006_day_03_data.csv,0,300,14.0,Training at home,,,,,,,,,,,,,
6,3,369,B,80.71471872637048,55.02129572372095,4.035735936318524,0.8642724921831663,B,729.1483000008157,Correct,sub_006_day_03_data.csv,1,300,14.0,Training at home,,,,,,,,,,,,,
6,3,370,B,57.24789063467305,28.339122690718497,2.8623945317336523,0.4451498982717051,B,596.5111999976216,Correct,sub_006_day_03_data.csv,1,300,14.0,Training at home,,,,,,,,,,,,,
6,3,371,B,37.29322569965825,25.703086482623668,1.8646612849829125,0.4037431383419681,A,1132.6390000031097,Incorrect,sub_006_day_03_data.csv,0,300,14.0,Training at home,,,,,,,,,,,,,
6,3,372,A,30.43746177973748,39.92629483566458,1.521873088986874,0.6271607727039197,A,992.1662999986438,Correct,sub_006_day_03_data.csv,1,300,14.0,Training at home,,,,,,,,,,,,,
6,3,373,B,67.09883903408698,36.18189943603781,3.354941951704349,0.5683439473059053,B,807.6346999878297,Correct,sub_006_day_03_data.csv,1,300,14.0,Training at home,,,,,,,,,,,,,
6,3,374,B,65.8594150853294,43.7614775691993,3.2929707542664697,0.6874036822081552,B,740.8699999941746,Correct,sub_006_day_03_data.csv,1,300,14.0,Training at home,,,,,,,,,,,,,
6,3,375,B,79.85678271133101,52.971000315124805,3.99283913556655,0.8320665272164933,B,732.5889000057941,Correct,sub_006_day_03_data.csv,1,300,15.0,Training at home,,,,,,,,,,,,,
6,3,376,B,77.75958841184374,52.28735748537082,3.887979420592187,0.8213278907583211,B,591.4703000016743,Correct,sub_006_day_03_data.csv,1,300,15.0,Training at home,,,,,,,,,,,,,
6,3,377,A,52.43717840488378,72.4496759749623,2.621858920244189,1.1380368489895123,A,838.345099997241,Correct,sub_006_day_03_data.csv,1,300,15.0,Training at home,,,,,,,,,,,,,
6,3,378,A,44.63858352282009,71.24470450136124,2.2319291761410045,1.1191092013432606,A,612.6431000011507,Correct,sub_006_day_03_data.csv,1,300,15.0,Training at home,,,,,,,,,,,,,
6,3,379,A,44.54148391034242,62.75448124103578,2.227074195517121,0.9857450862333824,A,645.8971999963978,Correct,sub_006_day_03_data.csv,1,300,15.0,Training at home,,,,,,,,,,,,,
6,3,380,A,22.913978212689187,49.1748915285791,1.1456989106344593,0.7724373898362953,A,527.8963000018848,Correct,sub_006_day_03_data.csv,1,300,15.0,Training at home,,,,,,,,,,,,,
6,3,381,B,73.6765161301598,63.89810282680177,3.6838258065079903,1.0037090520950285,B,929.4614999962504,Correct,sub_006_day_03_data.csv,1,300,15.0,Training at home,,,,,,,,,,,,,
6,3,382,B,48.113943745005024,18.505886282158706,2.4056971872502513,0.2906897819609896,A,1002.7955999976256,Incorrect,sub_006_day_03_data.csv,0,300,15.0,Training at home,,,,,,,,,,,,,
6,3,383,A,25.798568268822574,38.31776654144677,1.2899284134411289,0.6018940693428898,A,691.6794999997364,Correct,sub_006_day_03_data.csv,1,300,15.0,Training at home,,,,,,,,,,,,,
6,3,384,A,42.7986405038634,69.51295021812024,2.13993202519317,1.0919068686729976,B,880.105399992317,Incorrect,sub_006_day_03_data.csv,0,300,15.0,Training at home,,,,,,,,,,,,,
6,3,385,B,66.4309734329055,38.3119733006413,3.321548671645275,0.6018030693291151,B,581.41080000496,Correct,sub_006_day_03_data.csv,1,300,15.0,Training at home,,,,,,,,,,,,,
6,3,386,A,19.38959547781336,39.762942368369195,0.969479773890668,0.6245948381479149,A,683.9175000059186,Correct,sub_006_day_03_data.csv,1,300,15.0,Training at home,,,,,,,,,,,,,
6,3,387,A,53.653276797769315,62.25645869305393,2.682663839888466,0.9779221663430732,A,705.5504000018118,Correct,sub_006_day_03_data.csv,1,300,15.0,Training at home,,,,,,,,,,,,,
6,3,388,B,86.80500986475039,62.373264338277366,4.340250493237519,0.979756945127732,B,649.9118000065209,Correct,sub_006_day_03_data.csv,1,300,15.0,Training at home,,,,,,,,,,,,,
6,3,389,B,59.298415553559906,31.739335860600956,2.964920777677995,0.4985603218474152,B,1686.989399997401,Correct,sub_006_day_03_data.csv,1,300,15.0,Training at home,,,,,,,,,,,,,
6,3,390,A,54.41303109846976,63.521389836229,2.720651554923488,0.9977916582765518,B,1494.5498000015505,Incorrect,sub_006_day_03_data.csv,0,300,15.0,Training at home,,,,,,,,,,,,,
6,3,391,B,61.001510093041055,41.634393099755314,3.0500755046520527,0.6539915174943044,B,643.8868999975966,Correct,sub_006_day_03_data.csv,1,300,15.0,Training at home,,,,,,,,,,,,,
6,3,392,B,40.77307989988465,12.94471167206503,2.0386539949942324,0.2033350554589877,B,1255.7572000077926,Correct,sub_006_day_03_data.csv,1,300,15.0,Training at home,,,,,,,,,,,,,
6,3,393,B,33.668648008540565,20.47285818747504,1.6834324004270282,0.3215869043987862,B,660.471499999403,Correct,sub_006_day_03_data.csv,1,300,15.0,Training at home,,,,,,,,,,,,,
6,3,394,A,27.297905481565785,50.76461851644005,1.3648952740782891,0.7974087629676821,B,859.8454000020865,Incorrect,sub_006_day_03_data.csv,0,300,15.0,Training at home,,,,,,,,,,,,,
6,3,395,B,34.39099697953008,18.12649663294148,1.719549848976504,0.2847303432868454,A,849.0195000049425,Incorrect,sub_006_day_03_data.csv,0,300,15.0,Training at home,,,,,,,,,,,,,
6,3,396,B,54.40061914059342,44.230252296646505,2.7200309570296715,0.6947671784078386,B,616.4566000079503,Correct,sub_006_day_03_data.csv,1,300,15.0,Training at home,,,,,,,,,,,,,
6,3,397,A,41.02098457696683,51.20109706945276,2.0510492288483415,0.8042649520456534,B,582.8161999961594,Incorrect,sub_006_day_03_data.csv,0,300,15.0,Training at home,,,,,,,,,,,,,
6,3,398,A,36.76004327716665,68.66789573157834,1.8380021638583328,1.0786327838389822,B,487.25250001007225,Incorrect,sub_006_day_03_data.csv,0,300,15.0,Training at home,,,,,,,,,,,,,
6,3,399,B,77.61850705754236,62.30043543473977,3.880925352877118,0.9786129513861184,B,693.6904000031063,Correct,sub_006_day_03_data.csv,1,300,15.0,Training at home,,,,,,,,,,,,,
6,3,400,B,71.49460893204855,45.71013924215976,3.5747304466024277,0.7180131881886781,B,823.6797999998089,Correct,sub_006_day_03_data.csv,1,300,16.0,Training at home,,,,,,,,,,,,,
6,3,401,A,27.17418498568486,57.055625953524185,1.358709249284243,0.8962276767077935,A,956.8483000039124,Correct,sub_006_day_03_data.csv,1,300,16.0,Training at home,,,,,,,,,,,,,
6,3,402,A,35.492483396002754,48.30656118164291,1.7746241698001377,0.7587976886421763,A,757.0294000033755,Correct,sub_006_day_03_data.csv,1,300,16.0,Training at home,,,,,,,,,,,,,
6,3,403,A,30.8812424709613,63.72558712712931,1.5440621235480652,1.0009991818214288,A,552.113300000201,Correct,sub_006_day_03_data.csv,1,300,16.0,Training at home,,,,,,,,,,,,,
6,3,404,B,66.16126070648306,39.32957935371953,3.308063035324153,0.6177875878321104,B,702.2071000101278,Correct,sub_006_day_03_data.csv,1,300,16.0,Training at home,,,,,,,,,,,,,
6,3,405,A,22.55926795253983,49.06987050157491,1.1279633976269914,0.7707877234017512,A,866.5577000065241,Correct,sub_006_day_03_data.csv,1,300,16.0,Training at home,,,,,,,,,,,,,
6,3,406,A,37.14260732160909,48.91552173276037,1.8571303660804543,0.7683632186107592,A,1099.0614000038477,Correct,sub_006_day_03_data.csv,1,300,16.0,Training at home,,,,,,,,,,,,,
6,3,407,A,35.863285409522234,60.01255976857268,1.7931642704761117,0.9426750844603314,A,1414.1437000071164,Correct,sub_006_day_03_data.csv,1,300,16.0,Training at home,,,,,,,,,,,,,
6,3,408,B,43.57000042172774,23.606725574478315,2.178500021086387,0.3708135782004567,B,696.8989000015426,Correct,sub_006_day_03_data.csv,1,300,16.0,Training at home,,,,,,,,,,,,,
6,3,409,A,10.752581416790491,33.399387575807225,0.5376290708395246,0.5246363532127709,A,625.1098000066122,Correct,sub_006_day_03_data.csv,1,300,16.0,Training at home,,,,,,,,,,,,,
6,3,410,A,12.653965765210463,35.31839899599286,0.6326982882605232,0.5547801141118215,A,814.4292000069981,Correct,sub_006_day_03_data.csv,1,300,16.0,Training at home,,,,,,,,,,,,,
6,3,411,A,21.03706047029268,46.071319773003005,1.0518530235146342,0.723686598700262,A,610.982199999853,Correct,sub_006_day_03_data.csv,1,300,16.0,Training at home,,,,,,,,,,,,,
6,3,412,A,30.878789028551296,41.56117472542603,1.5439394514275648,0.6528414059598009,A,913.1720000004862,Correct,sub_006_day_03_data.csv,1,300,16.0,Training at home,,,,,,,,,,,,,
6,3,413,B,67.40262337143136,38.59975956862567,3.3701311685715676,0.6063236054556336,B,569.0579999936745,Correct,sub_006_day_03_data.csv,1,300,16.0,Training at home,,,,,,,,,,,,,
6,3,414,A,39.88673557218619,63.15684956794334,1.9943367786093096,0.9920654731326324,B,1133.2953000091948,Incorrect,sub_006_day_03_data.csv,0,300,16.0,Training at home,,,,,,,,,,,,,
6,3,415,A,24.124379844161595,47.90652427261935,1.2062189922080797,0.7525139235694103,A,606.9268999999622,Correct,sub_006_day_03_data.csv,1,300,16.0,Training at home,,,,,,,,,,,,,
6,3,416,B,73.58673833574072,46.28697753725354,3.679336916787036,0.7270741429395575,B,531.1246999917785,Correct,sub_006_day_03_data.csv,1,300,16.0,Training at home,,,,,,,,,,,,,
6,3,417,B,58.432143110854966,46.81480473754617,2.9216071555427483,0.7353652332135785,B,596.041900003911,Correct,sub_006_day_03_data.csv,1,300,16.0,Training at home,,,,,,,,,,,,,
6,3,418,A,45.87347376310366,62.11051574244644,2.293673688155183,0.9756296998357148,B,863.8486000127159,Incorrect,sub_006_day_03_data.csv,0,300,16.0,Training at home,,,,,,,,,,,,,
6,3,419,A,55.79967612671065,78.83790668856867,2.789983806335533,1.2383829423860246,A,779.0173999965191,Correct,sub_006_day_03_data.csv,1,300,16.0,Training at home,,,,,,,,,,,,,
6,3,420,A,62.98711068090857,76.25987494072308,3.1493555340454287,1.19788731438726,A,979.1963000025136,Correct,sub_006_day_03_data.csv,1,300,16.0,Training at home,,,,,,,,,,,,,
6,3,421,A,29.58964219433408,61.70733383182915,1.479482109716704,0.9692965331934368,A,680.2464000065811,Correct,sub_006_day_03_data.csv,1,300,16.0,Training at home,,,,,,,,,,,,,
6,3,422,A,56.18615585432478,83.5441646022113,2.8093077927162393,1.3123086688230172,A,1038.6626999970758,Correct,sub_006_day_03_data.csv,1,300,16.0,Training at home,,,,,,,,,,,,,
6,3,423,B,69.63119513445629,58.05037415282909,3.4815597567228145,0.9118531448833336,B,996.1420000036014,Correct,sub_006_day_03_data.csv,1,300,16.0,Training at home,,,,,,,,,,,,,
6,3,424,B,65.00111087571297,43.830282831815445,3.2500555437856486,0.6884844727459711,B,757.8954999917187,Correct,sub_006_day_03_data.csv,1,300,16.0,Training at home,,,,,,,,,,,,,
6,3,425,B,69.63218117779186,47.6874807637968,3.481609058889593,0.749073196178743,B,861.4244000054896,Correct,sub_006_day_03_data.csv,1,300,17.0,Training at home,,,,,,,,,,,,,
6,3,426,A,15.283216052317858,42.93616170737346,0.7641608026158928,0.6744396509661392,A,539.5506000058958,Correct,sub_006_day_03_data.csv,1,300,17.0,Training at home,,,,,,,,,,,,,
6,3,427,B,64.19045867694064,37.89571526665416,3.209522933847032,0.5952645034212564,B,545.1612000033492,Correct,sub_006_day_03_data.csv,1,300,17.0,Training at home,,,,,,,,,,,,,
6,3,428,B,48.33660473404532,36.45139820013051,2.4168302367022663,0.5725772239930311,B,1131.1922000022605,Correct,sub_006_day_03_data.csv,1,300,17.0,Training at home,,,,,,,,,,,,,
6,3,429,B,53.41362265686222,24.939785330663295,2.670681132843111,0.3917532318845915,B,605.754700009129,Correct,sub_006_day_03_data.csv,1,300,17.0,Training at home,,,,,,,,,,,,,
6,3,430,A,40.07225611848352,67.85723592067723,2.003612805924176,1.065898969306545,A,1027.9893999977503,Correct,sub_006_day_03_data.csv,1,300,17.0,Training at home,,,,,,,,,,,,,
6,3,431,A,20.006497361898084,39.90132619538882,1.0003248680949042,0.6267685662196174,A,605.2111000026343,Correct,sub_006_day_03_data.csv,1,300,17.0,Training at home,,,,,,,,,,,,,
6,3,432,B,75.98583086757468,57.700249414898366,3.799291543378734,0.9063533983607172,B,951.4687000046252,Correct,sub_006_day_03_data.csv,1,300,17.0,Training at home,,,,,,,,,,,,,
6,3,433,A,65.37637345112752,77.26228589342593,3.268818672556376,1.2136331488117058,B,977.9672000004211,Incorrect,sub_006_day_03_data.csv,0,300,17.0,Training at home,,,,,,,,,,,,,
6,3,434,A,28.711879545502786,50.86485531284938,1.4355939772751392,0.7989832788837768,A,822.1379000024172,Correct,sub_006_day_03_data.csv,1,300,17.0,Training at home,,,,,,,,,,,,,
6,3,435,A,41.651232147528766,55.79705827318917,2.082561607376438,0.8764581418148634,A,689.9792999902274,Correct,sub_006_day_03_data.csv,1,300,17.0,Training at home,,,,,,,,,,,,,
6,3,436,A,19.989674283917324,39.2661646663379,0.9994837141958662,0.6167914722520713,A,756.5845999924932,Correct,sub_006_day_03_data.csv,1,300,17.0,Training at home,,,,,,,,,,,,,
6,3,437,B,51.19922224014108,39.80446473373733,2.559961112007054,0.625247069937916,B,671.0563000087859,Correct,sub_006_day_03_data.csv,1,300,17.0,Training at home,,,,,,,,,,,,,
6,3,438,A,36.42594210714203,68.94755700869321,1.8212971053571012,1.0830256929073705,A,1257.5147000025029,Correct,sub_006_day_03_data.csv,1,300,17.0,Training at home,,,,,,,,,,,,,
6,3,439,A,54.06404249968771,68.29308474224322,2.703202124984386,1.0727452665860826,B,588.1512999912957,Incorrect,sub_006_day_03_data.csv,0,300,17.0,Training at home,,,,,,,,,,,,,
6,3,440,A,35.70823619553012,57.91726047107569,1.785411809776506,0.9097622000598896,A,898.9517000009073,Correct,sub_006_day_03_data.csv,1,300,17.0,Training at home,,,,,,,,,,,,,
6,3,441,B,50.00504096172669,22.083986781732044,2.5002520480863346,0.3468944531773174,B,1028.5391999932472,Correct,sub_006_day_03_data.csv,1,300,17.0,Training at home,,,,,,,,,,,,,
6,3,442,A,42.35142734076093,62.45466369327371,2.1175713670380465,0.9810355632060496,B,768.8861999922665,Incorrect,sub_006_day_03_data.csv,0,300,17.0,Training at home,,,,,,,,,,,,,
6,3,443,A,17.46867280589188,41.162866557935686,0.8734336402945941,0.6465847958955385,A,519.021200001589,Correct,sub_006_day_03_data.csv,1,300,17.0,Training at home,,,,,,,,,,,,,
6,3,444,A,21.926386853240952,35.75714417703006,1.0963193426620477,0.5616719072995434,A,592.8751000028569,Correct,sub_006_day_03_data.csv,1,300,17.0,Training at home,,,,,,,,,,,,,
6,3,445,B,34.3881920989964,12.693519791194904,1.71940960494982,0.1993893426210728,B,808.4916999941925,Correct,sub_006_day_03_data.csv,1,300,17.0,Training at home,,,,,,,,,,,,,
6,3,446,B,58.78022985330771,35.321093673160256,2.939011492665386,0.5548224420017859,B,1486.690699995961,Correct,sub_006_day_03_data.csv,1,300,17.0,Training at home,,,,,,,,,,,,,
6,3,447,B,75.85510949376767,63.948220455383606,3.7927554746883834,1.0044962979638683,B,776.6198999888729,Correct,sub_006_day_03_data.csv,1,300,17.0,Training at home,,,,,,,,,,,,,
6,3,448,A,36.0272177752153,48.85302935696899,1.8013608887607648,0.7673815906673014,A,940.7611999922664,Correct,sub_006_day_03_data.csv,1,300,17.0,Training at home,,,,,,,,,,,,,
6,3,449,B,61.99071409012786,29.457981901430443,3.0995357045063927,0.4627248976555748,B,563.0520999984583,Correct,sub_006_day_03_data.csv,1,300,17.0,Training at home,,,,,,,,,,,,,
6,3,450,B,43.00050131185479,14.866629249461027,2.1500250655927395,0.2335244661687495,B,921.9933999993372,Correct,sub_006_day_03_data.csv,1,300,18.0,Training at home,,,,,,,,,,,,,
6,3,451,A,32.57632191657451,43.21030403659165,1.6288160958287252,0.6787458686036886,A,1060.0525000045309,Correct,sub_006_day_03_data.csv,1,300,18.0,Training at home,,,,,,,,,,,,,
6,3,452,B,68.43455360792315,55.01646470955427,3.4217276803961574,0.8641966067900891,B,760.830300001544,Correct,sub_006_day_03_data.csv,1,300,18.0,Training at home,,,,,,,,,,,,,
6,3,453,A,45.24053411198333,59.16803786097569,2.2620267055991663,0.9294093653568198,B,680.3567999886582,Incorrect,sub_006_day_03_data.csv,0,300,18.0,Training at home,,,,,,,,,,,,,
6,3,454,B,85.37136886914517,63.020860291703755,4.268568443457259,0.9899293585766262,B,782.1082000009483,Correct,sub_006_day_03_data.csv,1,300,18.0,Training at home,,,,,,,,,,,,,
6,3,455,B,74.14980498298989,59.047890573404,3.7074902491494943,0.9275220961769002,B,780.0488999928348,Correct,sub_006_day_03_data.csv,1,300,18.0,Training at home,,,,,,,,,,,,,
6,3,456,A,23.61379293214581,43.22655069201325,1.1806896466072905,0.679001070470278,A,633.148799999617,Correct,sub_006_day_03_data.csv,1,300,18.0,Training at home,,,,,,,,,,,,,
6,3,457,A,21.8672873127778,44.161328748251925,1.0933643656388898,0.6936845298413599,A,763.981900003273,Correct,sub_006_day_03_data.csv,1,300,18.0,Training at home,,,,,,,,,,,,,
6,3,458,B,52.56192897320576,41.90560443546461,2.628096448660288,0.6582516951934774,A,1139.0620000020135,Incorrect,sub_006_day_03_data.csv,0,300,18.0,Training at home,,,,,,,,,,,,,
6,3,459,A,44.595877768792725,53.86001301864874,2.229793888439636,0.8460311061081875,A,651.1223999987124,Correct,sub_006_day_03_data.csv,1,300,18.0,Training at home,,,,,,,,,,,,,
6,3,460,B,70.26906235035896,57.082578763443024,3.5134531175179484,0.8966510504559666,B,1031.1785000085365,Correct,sub_006_day_03_data.csv,1,300,18.0,Training at home,,,,,,,,,,,,,
6,3,461,B,54.87421508269593,25.184276390294087,2.743710754134797,0.3955936884686138,B,941.432799998438,Correct,sub_006_day_03_data.csv,1,300,18.0,Training at home,,,,,,,,,,,,,
6,3,462,B,43.31412132655989,14.176995152608022,2.165706066327995,0.2226917191070573,B,589.7510000067996,Correct,sub_006_day_03_data.csv,1,300,18.0,Training at home,,,,,,,,,,,,,
6,3,463,B,55.17516064913155,40.302978105531096,2.7587580324565777,0.6330776996706339,B,490.8605999953579,Correct,sub_006_day_03_data.csv,1,300,18.0,Training at home,,,,,,,,,,,,,
6,3,464,B,60.89446208100252,47.68512494913156,3.044723104050126,0.7490361911285154,B,568.7195000064094,Correct,sub_006_day_03_data.csv,1,300,18.0,Training at home,,,,,,,,,,,,,
6,3,465,B,63.402385077491424,41.75461604525623,3.170119253874571,0.6558799751061973,B,829.1346999903908,Correct,sub_006_day_03_data.csv,1,300,18.0,Training at home,,,,,,,,,,,,,
6,3,466,A,35.82793683826415,60.59357573128134,1.7913968419132076,0.9518016618606512,A,936.7576000076951,Correct,sub_006_day_03_data.csv,1,300,18.0,Training at home,,,,,,,,,,,,,
6,3,467,A,17.131354083926606,31.709558133098863,0.8565677041963303,0.4980925743976092,A,545.6520000007004,Correct,sub_006_day_03_data.csv,1,300,18.0,Training at home,,,,,,,,,,,,,
6,3,468,A,14.012424597954832,33.87307920119426,0.7006212298977417,0.5320770838646856,A,527.2063000011258,Correct,sub_006_day_03_data.csv,1,300,18.0,Training at home,,,,,,,,,,,,,
6,3,469,B,68.35660194328352,44.461488008935234,3.417830097164176,0.698399420482708,B,771.2748999911128,Correct,sub_006_day_03_data.csv,1,300,18.0,Training at home,,,,,,,,,,,,,
6,3,470,A,41.023045446846304,48.53843701373014,2.0511522723423155,0.7624399856953277,A,1218.0585000023711,Correct,sub_006_day_03_data.csv,1,300,18.0,Training at home,,,,,,,,,,,,,
6,3,471,A,22.75715545239316,37.71481808356806,1.137857772619658,0.5924229771140644,A,519.1647000028752,Correct,sub_006_day_03_data.csv,1,300,18.0,Training at home,,,,,,,,,,,,,
6,3,472,B,75.823419150105,51.86351476736223,3.79117095750525,0.8146701849124548,B,530.8581999997841,Correct,sub_006_day_03_data.csv,1,300,18.0,Training at home,,,,,,,,,,,,,
6,3,473,B,86.72882255790385,64.54470222138902,4.336441127895193,1.013865811634283,B,488.4994000021834,Correct,sub_006_day_03_data.csv,1,300,18.0,Training at home,,,,,,,,,,,,,
6,3,474,B,41.32383255065872,32.20620397763705,2.066191627532936,0.5058938690807947,B,1587.3779999965336,Correct,sub_006_day_03_data.csv,1,300,18.0,Training at home,,,,,,,,,,,,,
6,3,475,A,59.35129729868058,85.97031421558266,2.967564864934029,1.3504185378324034,A,1174.6597000019392,Correct,sub_006_day_03_data.csv,1,300,19.0,Training at home,,,,,,,,,,,,,
6,3,476,A,22.38086168341392,54.50543419458724,1.1190430841706962,0.8561693582321858,A,953.3854000037536,Correct,sub_006_day_03_data.csv,1,300,19.0,Training at home,,,,,,,,,,,,,
6,3,477,A,50.25758850898122,74.720713296346,2.512879425449061,1.173710219813949,A,773.2273000001442,Correct,sub_006_day_03_data.csv,1,300,19.0,Training at home,,,,,,,,,,,,,
6,3,478,B,74.8725466412375,46.32199868070238,3.743627332061875,0.7276242537744534,B,616.682399995625,Correct,sub_006_day_03_data.csv,1,300,19.0,Training at home,,,,,,,,,,,,,
6,3,479,A,34.661422602681036,55.45211439827438,1.7330711301340518,0.8710397760981979,A,755.6154000048991,Correct,sub_006_day_03_data.csv,1,300,19.0,Training at home,,,,,,,,,,,,,
6,3,480,B,65.61799585214398,44.77066497564002,3.2808997926071988,0.7032559609190027,B,986.3849999965169,Correct,sub_006_day_03_data.csv,1,300,19.0,Training at home,,,,,,,,,,,,,
6,3,481,A,19.58335322849024,46.57042754839129,0.979167661424512,0.731526565302809,A,599.8426000005566,Correct,sub_006_day_03_data.csv,1,300,19.0,Training at home,,,,,,,,,,,,,
6,3,482,A,23.66382167994456,43.19016520193222,1.1831910839972282,0.6784295285285988,A,779.979099999764,Correct,sub_006_day_03_data.csv,1,300,19.0,Training at home,,,,,,,,,,,,,
6,3,483,A,49.40023238959766,69.66139618400206,2.470011619479883,1.0942386524523446,B,524.6152000036091,Incorrect,sub_006_day_03_data.csv,0,300,19.0,Training at home,,,,,,,,,,,,,
6,3,484,B,38.57273657140028,27.92551804663281,1.9286368285700135,0.4386530117149541,B,788.6326000007102,Correct,sub_006_day_03_data.csv,1,300,19.0,Training at home,,,,,,,,,,,,,
6,3,485,A,58.23672263800905,71.50580403229259,2.9118361319004524,1.123210543184409,B,1011.7708000034328,Incorrect,sub_006_day_03_data.csv,0,300,19.0,Training at home,,,,,,,,,,,,,
6,3,486,B,45.63952110337284,30.02613839158741,2.281976055168642,0.4716494789334072,B,575.6471000058809,Correct,sub_006_day_03_data.csv,1,300,19.0,Training at home,,,,,,,,,,,,,
6,3,487,A,55.35248275146336,76.4188720717085,2.7676241375731685,1.2003848354804882,A,1191.0301000025356,Correct,sub_006_day_03_data.csv,1,300,19.0,Training at home,,,,,,,,,,,,,
6,3,488,A,25.431905380105945,45.38374486960394,1.2715952690052972,0.712886197373706,A,931.2286999920616,Correct,sub_006_day_03_data.csv,1,300,19.0,Training at home,,,,,,,,,,,,,
6,3,489,B,78.6717262715593,47.51438692906214,3.933586313577965,0.7463542445808227,B,803.7505000102101,Correct,sub_006_day_03_data.csv,1,300,19.0,Training at home,,,,,,,,,,,,,
6,3,490,A,62.15826206843124,81.89737340294826,3.107913103421562,1.286440933155012,A,1132.2971999907168,Correct,sub_006_day_03_data.csv,1,300,19.0,Training at home,,,,,,,,,,,,,
6,3,491,B,37.73699228380269,13.639580209058495,1.8868496141901343,0.2142500249141345,B,1276.5491000027396,Correct,sub_006_day_03_data.csv,1,300,19.0,Training at home,,,,,,,,,,,,,
6,3,492,A,66.72630891818719,85.38985947069025,3.3363154459093596,1.3413007760209266,A,949.1603999922518,Correct,sub_006_day_03_data.csv,1,300,19.0,Training at home,,,,,,,,,,,,,
6,3,493,B,83.15913250163827,64.79225953710863,4.157956625081914,1.0177544328563184,B,582.373600002029,Correct,sub_006_day_03_data.csv,1,300,19.0,Training at home,,,,,,,,,,,,,
6,3,494,A,20.72668273478471,43.57320139792919,1.0363341367392354,0.6844462470256142,A,713.6863000050653,Correct,sub_006_day_03_data.csv,1,300,19.0,Training at home,,,,,,,,,,,,,
6,3,495,B,80.85314746923751,63.792213162176616,4.042657373461876,1.0020457411326409,B,854.731500003254,Correct,sub_006_day_03_data.csv,1,300,19.0,Training at home,,,,,,,,,,,,,
6,3,496,B,83.5079320816514,67.10655400812658,4.17539660408257,1.0541072853982858,B,644.1793999983929,Correct,sub_006_day_03_data.csv,1,300,19.0,Training at home,,,,,,,,,,,,,
6,3,497,A,55.28004639049336,65.84867461297127,2.764002319524668,1.034348562063676,B,923.933500002022,Incorrect,sub_006_day_03_data.csv,0,300,19.0,Training at home,,,,,,,,,,,,,
6,3,498,B,72.19869031256329,40.34036365949933,3.609934515628164,0.6336649505791189,B,843.7657999893418,Correct,sub_006_day_03_data.csv,1,300,19.0,Training at home,,,,,,,,,,,,,
6,3,499,B,73.75530368369937,52.87233914096623,3.687765184184968,0.830516761116838,B,947.0582000067224,Correct,sub_006_day_03_data.csv,1,300,19.0,Training at home,,,,,,,,,,,,,
6,3,500,A,53.711949498014135,77.66113716174505,2.6855974749007068,1.2198982898838375,A,949.001800006954,Correct,sub_006_day_03_data.csv,1,300,20.0,Training at home,,,,,,,,,,,,,
6,3,501,A,42.17753043665551,56.40228795656788,2.108876521832775,0.8859650674500485,B,2069.0443999919808,Incorrect,sub_006_day_03_data.csv,0,300,20.0,Training at home,,,,,,,,,,,,,
6,3,502,B,71.7545084253662,44.37008276812278,3.5877254212683103,0.696963630317528,B,567.4539000028744,Correct,sub_006_day_03_data.csv,1,300,20.0,Training at home,,,,,,,,,,,,,
6,3,503,A,22.4612956557191,45.54735429872714,1.123064782785955,0.7154561682766633,A,557.4145999999018,Correct,sub_006_day_03_data.csv,1,300,20.0,Training at home,,,,,,,,,,,,,
6,3,504,B,65.22767439409688,48.645838517149315,3.261383719704844,0.7641270445659585,B,754.0004000038607,Correct,sub_006_day_03_data.csv,1,300,20.0,Training at home,,,,,,,,,,,,,
6,3,505,B,38.489218112578875,19.843764162132594,1.9244609056289437,0.3117051185566209,B,843.2939000049373,Correct,sub_006_day_03_data.csv,1,300,20.0,Training at home,,,,,,,,,,,,,
6,3,506,B,62.05374211099828,29.47612410417692,3.102687105549914,0.4630098747099161,B,760.2271999930963,Correct,sub_006_day_03_data.csv,1,300,20.0,Training at home,,,,,,,,,,,,,
6,3,507,B,79.54723232151858,57.998411220674825,3.9773616160759286,0.9110369130537592,B,594.0026000025682,Correct,sub_006_day_03_data.csv,1,300,20.0,Training at home,,,,,,,,,,,,,
6,3,508,B,55.93969267640966,42.30281896148543,2.7969846338204833,0.6644911263777081,B,718.2136999908835,Correct,sub_006_day_03_data.csv,1,300,20.0,Training at home,,,,,,,,,,,,,
6,3,509,A,43.573594631478706,64.27632359573941,2.178679731573935,1.009650130040676,A,1006.839999987278,Correct,sub_006_day_03_data.csv,1,300,20.0,Training at home,,,,,,,,,,,,,
6,3,510,B,51.99332725773866,35.48142235428738,2.5996663628869334,0.5573408790357295,B,806.2438999913866,Correct,sub_006_day_03_data.csv,1,300,20.0,Training at home,,,,,,,,,,,,,
6,3,511,B,63.96860629489734,37.28422800039176,3.1984303147448667,0.5856592839039881,B,722.079200000735,Correct,sub_006_day_03_data.csv,1,300,20.0,Training at home,,,,,,,,,,,,,
6,3,512,B,66.73067434190123,54.36849405792698,3.3365337170950617,0.8540183075956185,B,641.4043999975547,Correct,sub_006_day_03_data.csv,1,300,20.0,Training at home,,,,,,,,,,,,,
6,3,513,A,36.559638885740725,49.79508855015415,1.827981944287036,0.7821794218700875,B,814.4002000044566,Incorrect,sub_006_day_03_data.csv,0,300,20.0,Training at home,,,,,,,,,,,,,
6,3,514,B,68.39749745057748,50.72475019081327,3.4198748725288737,0.7967825127731822,B,929.4554000080096,Correct,sub_006_day_03_data.csv,1,300,20.0,Training at home,,,,,,,,,,,,,
6,3,515,B,52.39620269293584,25.619826755594936,2.619810134646792,0.4024352976081014,B,798.8610000029439,Correct,sub_006_day_03_data.csv,1,300,20.0,Training at home,,,,,,,,,,,,,
6,3,516,A,42.22083304273304,60.08270464189672,2.111041652136652,0.9437769175539404,A,1806.0202000051504,Correct,sub_006_day_03_data.csv,1,300,20.0,Training at home,,,,,,,,,,,,,
6,3,517,B,85.7285638354021,63.15836416119662,4.286428191770105,0.9920892643078209,B,632.7282999991439,Correct,sub_006_day_03_data.csv,1,300,20.0,Training at home,,,,,,,,,,,,,
6,3,518,B,49.064583771020125,38.87454998981422,2.4532291885510062,0.6106400032980476,B,615.4474000068149,Correct,sub_006_day_03_data.csv,1,300,20.0,Training at home,,,,,,,,,,,,,
6,3,519,B,32.109486562968044,11.00908823622722,1.6054743281484023,0.1729303536282662,B,1026.4432999974815,Correct,sub_006_day_03_data.csv,1,300,20.0,Training at home,,,,,,,,,,,,,
6,3,520,B,67.01948904976666,43.77659897094977,3.350974452488333,0.6876412086314114,B,1030.3924000036204,Correct,sub_006_day_03_data.csv,1,300,20.0,Training at home,,,,,,,,,,,,,
6,3,521,B,53.35296500036793,27.2112176986782,2.6676482500183964,0.4274328080869999,B,520.2706000127364,Correct,sub_006_day_03_data.csv,1,300,20.0,Training at home,,,,,,,,,,,,,
6,3,522,B,61.78729564423863,42.17087058755879,3.089364782211932,0.6624184861668029,B,608.8885000062874,Correct,sub_006_day_03_data.csv,1,300,20.0,Training at home,,,,,,,,,,,,,
6,3,523,A,44.27871523825031,52.72339769782658,2.213935761912515,0.8281771943989249,A,1012.2466000029816,Correct,sub_006_day_03_data.csv,1,300,20.0,Training at home,,,,,,,,,,,,,
6,3,524,A,28.907388575408227,37.99139044643364,1.4453694287704113,0.596767365630887,A,738.2652999949642,Correct,sub_006_day_03_data.csv,1,300,20.0,Training at home,,,,,,,,,,,,,
6,3,525,A,12.20860152865907,36.04446208535448,0.6104300764329536,0.5661850864497273,A,563.422699997318,Correct,sub_006_day_03_data.csv,1,300,21.0,Training at home,,,,,,,,,,,,,
6,3,526,A,38.60769229417239,63.72054809366131,1.9303846147086192,1.0009200288688074,A,1048.743999999715,Correct,sub_006_day_03_data.csv,1,300,21.0,Training at home,,,,,,,,,,,,,
6,3,527,A,18.214016654280947,45.79784064282882,0.9107008327140474,0.7193907985689355,A,735.1183999999193,Correct,sub_006_day_03_data.csv,1,300,21.0,Training at home,,,,,,,,,,,,,
6,3,528,A,48.97943678675108,80.11200500639774,2.448971839337554,1.2583964319622394,B,645.8435999957146,Incorrect,sub_006_day_03_data.csv,0,300,21.0,Training at home,,,,,,,,,,,,,
6,3,529,A,28.070456233495463,43.16478415536869,1.403522811674773,0.678030843981477,A,766.8285000108881,Correct,sub_006_day_03_data.csv,1,300,21.0,Training at home,,,,,,,,,,,,,
6,3,530,B,58.19458034366772,28.298858130234155,2.909729017183386,0.4445174240346171,B,623.3692999958294,Correct,sub_006_day_03_data.csv,1,300,21.0,Training at home,,,,,,,,,,,,,
6,3,531,A,39.83545840857543,49.62077899120262,1.9917729204287713,0.7794413737208243,B,627.6222000014968,Incorrect,sub_006_day_03_data.csv,0,300,21.0,Training at home,,,,,,,,,,,,,
6,3,532,B,54.29313084323111,33.020561816250364,2.7146565421615554,0.518685772096699,B,683.3152000035625,Correct,sub_006_day_03_data.csv,1,300,21.0,Training at home,,,,,,,,,,,,,
6,3,533,B,76.8257105310665,48.9914577421621,3.8412855265533254,0.7695560186571563,B,624.4778999971459,Correct,sub_006_day_03_data.csv,1,300,21.0,Training at home,,,,,,,,,,,,,
6,3,534,B,70.45078145375088,55.36592962570391,3.522539072687544,0.8696859888564045,B,579.275800002506,Correct,sub_006_day_03_data.csv,1,300,21.0,Training at home,,,,,,,,,,,,,
6,3,535,B,44.90615464008978,18.751749219897047,2.245307732004489,0.2945517879559334,B,531.0809999937192,Correct,sub_006_day_03_data.csv,1,300,21.0,Training at home,,,,,,,,,,,,,
6,3,536,B,39.92012723456304,21.43704337202411,1.996006361728152,0.3367322898611836,B,572.1279999997932,Correct,sub_006_day_03_data.csv,1,300,21.0,Training at home,,,,,,,,,,,,,
6,3,537,A,31.48208402967857,43.840365036650766,1.5741042014839286,0.6886428436491843,A,748.5099000041373,Correct,sub_006_day_03_data.csv,1,300,21.0,Training at home,,,,,,,,,,,,,
6,3,538,B,78.4438471410125,62.005279642818365,3.922192357050625,0.9739766550482948,B,627.6981000119122,Correct,sub_006_day_03_data.csv,1,300,21.0,Training at home,,,,,,,,,,,,,
6,3,539,B,85.86739642253124,64.40305621306749,4.293369821126562,1.0116408413385165,B,1131.1450000066543,Correct,sub_006_day_03_data.csv,1,300,21.0,Training at home,,,,,,,,,,,,,
6,3,540,A,32.32894879319655,47.72203147425566,1.6164474396598276,0.7496159174695123,B,937.8458999999566,Incorrect,sub_006_day_03_data.csv,0,300,21.0,Training at home,,,,,,,,,,,,,
6,3,541,B,80.89164230371892,61.67416948991766,4.044582115185946,0.9687755889288852,B,604.7041999991052,Correct,sub_006_day_03_data.csv,1,300,21.0,Training at home,,,,,,,,,,,,,
6,3,542,A,27.119607576998774,58.52005799054799,1.3559803788499385,0.9192309213537712,A,557.7948999998625,Correct,sub_006_day_03_data.csv,1,300,21.0,Training at home,,,,,,,,,,,,,
6,3,543,A,32.510729566149735,53.04438067696337,1.6255364783074868,0.8332191832448427,A,603.3887000085087,Correct,sub_006_day_03_data.csv,1,300,21.0,Training at home,,,,,,,,,,,,,
6,3,544,B,82.25850773394154,55.4898521328039,4.112925386697077,0.8716325590460032,B,756.9462999963434,Correct,sub_006_day_03_data.csv,1,300,21.0,Training at home,,,,,,,,,,,,,
6,3,545,B,58.22044236801266,50.60515770815621,2.9110221184006333,0.7949039584484823,B,979.5739999972284,Correct,sub_006_day_03_data.csv,1,300,21.0,Training at home,,,,,,,,,,,,,
6,3,546,B,61.31174998631985,41.21224355563984,3.065587499315993,0.6473604079617571,B,910.8538000000408,Correct,sub_006_day_03_data.csv,1,300,21.0,Training at home,,,,,,,,,,,,,
6,3,547,B,60.22699895577201,31.17521788942333,3.0113499477886005,0.489699177477367,B,716.0677000065334,Correct,sub_006_day_03_data.csv,1,300,21.0,Training at home,,,,,,,,,,,,,
6,3,548,B,83.42709541486532,58.344922257117005,4.1713547707432665,0.916479895686132,B,595.4940999945393,Correct,sub_006_day_03_data.csv,1,300,21.0,Training at home,,,,,,,,,,,,,
6,3,549,A,28.74160324698488,60.05616196481158,1.437080162349244,0.943359986157254,A,629.5012999908067,Correct,sub_006_day_03_data.csv,1,300,21.0,Training at home,,,,,,,,,,,,,
6,3,550,B,49.36348128289571,20.219780535103535,2.468174064144786,0.3176115699313958,B,784.1688000044087,Correct,sub_006_day_03_data.csv,1,300,22.0,Training at home,,,,,,,,,,,,,
6,3,551,A,47.98777028839398,58.86644991610316,2.3993885144196994,0.924672032996706,B,746.4123999961885,Incorrect,sub_006_day_03_data.csv,0,300,22.0,Training at home,,,,,,,,,,,,,
6,3,552,B,66.1016534052022,45.702211450438995,3.30508267026011,0.7178886587275323,B,735.0616000039736,Correct,sub_006_day_03_data.csv,1,300,22.0,Training at home,,,,,,,,,,,,,
6,3,553,B,51.00011807842407,26.495852452239433,2.5500059039212037,0.4161958770727725,B,709.0408999938518,Correct,sub_006_day_03_data.csv,1,300,22.0,Training at home,,,,,,,,,,,,,
6,3,554,A,49.326625733135565,77.735622938878,2.466331286656778,1.2210683097350266,A,723.4184999979334,Correct,sub_006_day_03_data.csv,1,300,22.0,Training at home,,,,,,,,,,,,,
6,3,555,B,52.49704184453831,41.67261099205531,2.624852092226915,0.6545918427427312,B,1044.367000009515,Correct,sub_006_day_03_data.csv,1,300,22.0,Training at home,,,,,,,,,,,,,
6,3,556,A,48.524563826776344,65.6326855559045,2.426228191338817,1.0309558138889927,B,839.612700001453,Incorrect,sub_006_day_03_data.csv,0,300,22.0,Training at home,,,,,,,,,,,,,
6,3,557,A,43.0443280203583,53.34086226294024,2.152216401017915,0.8378763051069904,B,758.5658000025433,Incorrect,sub_006_day_03_data.csv,0,300,22.0,Training at home,,,,,,,,,,,,,
6,3,558,B,66.53285351156526,40.10604909334803,3.3266426755782628,0.6299843459808687,B,846.9723000016529,Correct,sub_006_day_03_data.csv,1,300,22.0,Training at home,,,,,,,,,,,,,
6,3,559,B,32.4738605161177,18.48530404316542,1.623693025805885,0.2903664769069109,A,749.8449999984587,Incorrect,sub_006_day_03_data.csv,0,300,22.0,Training at home,,,,,,,,,,,,,
6,3,560,A,67.50378804775744,86.27566835359539,3.375189402387872,1.3552150294160232,A,837.526400006027,Correct,sub_006_day_03_data.csv,1,300,22.0,Training at home,,,,,,,,,,,,,
6,3,561,A,13.137061351034651,36.600921355628024,0.6568530675517326,0.5749259282272938,A,665.980199992191,Correct,sub_006_day_03_data.csv,1,300,22.0,Training at home,,,,,,,,,,,,,
6,3,562,B,75.65800783246503,44.316125478594785,3.782900391623252,0.6961160711955842,B,954.8107000009622,Correct,sub_006_day_03_data.csv,1,300,22.0,Training at home,,,,,,,,,,,,,
6,3,563,B,37.03097295569531,16.324134311959135,1.8515486477847656,0.2564189021533194,B,1015.4843000054824,Correct,sub_006_day_03_data.csv,1,300,22.0,Training at home,,,,,,,,,,,,,
6,3,564,B,80.75775770842337,49.551433359662205,4.037887885421168,0.7783520950877949,B,1251.654600011534,Correct,sub_006_day_03_data.csv,1,300,22.0,Training at home,,,,,,,,,,,,,
6,3,565,A,39.335691549291234,65.32282025362835,1.9667845774645616,1.0260884611028267,A,604.1236000019126,Correct,sub_006_day_03_data.csv,1,300,22.0,Training at home,,,,,,,,,,,,,
6,3,566,B,52.67509117647467,25.815251469437463,2.6337545588237337,0.4055050218347892,B,595.9633999882499,Correct,sub_006_day_03_data.csv,1,300,22.0,Training at home,,,,,,,,,,,,,
6,3,567,A,45.37592725117632,64.21328856087281,2.2687963625588163,1.0086599780283978,B,717.627399993944,Incorrect,sub_006_day_03_data.csv,0,300,22.0,Training at home,,,,,,,,,,,,,
6,3,568,A,42.04383522826585,63.49052685970703,2.1021917614132923,0.9973068637750054,A,950.718699998106,Correct,sub_006_day_03_data.csv,1,300,22.0,Training at home,,,,,,,,,,,,,
6,3,569,A,46.119296165755415,71.8973263856833,2.305964808287771,1.1293605619300513,A,962.7493000007236,Correct,sub_006_day_03_data.csv,1,300,22.0,Training at home,,,,,,,,,,,,,
6,3,570,A,57.64015996818955,85.26052550521598,2.8820079984094775,1.3392692028419586,A,862.50960000325,Correct,sub_006_day_03_data.csv,1,300,22.0,Training at home,,,,,,,,,,,,,
6,3,571,A,35.499252501585495,55.40375919257091,1.7749626250792747,0.8702802143031938,B,1541.3843999995152,Incorrect,sub_006_day_03_data.csv,0,300,22.0,Training at home,,,,,,,,,,,,,
6,3,572,A,16.753304689222226,31.925630226582783,0.8376652344611114,0.5014866269052836,A,516.9905999937328,Correct,sub_006_day_03_data.csv,1,300,22.0,Training at home,,,,,,,,,,,,,
6,3,573,A,52.694815131238194,67.1796661712992,2.6347407565619094,1.0552557285718416,B,666.3307999988319,Incorrect,sub_006_day_03_data.csv,0,300,22.0,Training at home,,,,,,,,,,,,,
6,3,574,B,30.47391508619289,13.556204685761088,1.5236957543096443,0.2129403652567328,A,531.0922999924514,Incorrect,sub_006_day_03_data.csv,0,300,22.0,Training at home,,,,,,,,,,,,,
6,3,575,B,73.01051232164991,55.35902466056084,3.650525616082496,0.8695775259175705,B,547.4971000076039,Correct,sub_006_day_03_data.csv,1,300,23.0,Training at home,,,,,,,,,,,,,
6,3,576,A,15.814153557253508,32.325317446520145,0.7907076778626754,0.5077648990747282,A,936.6334999940592,Correct,sub_006_day_03_data.csv,1,300,23.0,Training at home,,,,,,,,,,,,,
6,3,577,A,14.186010057830456,41.66527505672168,0.7093005028915228,0.6544766101399744,A,538.7730999937048,Correct,sub_006_day_03_data.csv,1,300,23.0,Training at home,,,,,,,,,,,,,
6,3,578,A,45.20050417856844,57.20381522920563,2.260025208928422,0.8985554284069017,B,1044.5890999981202,Incorrect,sub_006_day_03_data.csv,0,300,23.0,Training at home,,,,,,,,,,,,,
6,3,579,B,82.52314559442115,63.687391689815875,4.126157279721058,1.000399209295106,B,836.8002999923192,Correct,sub_006_day_03_data.csv,1,300,23.0,Training at home,,,,,,,,,,,,,
6,3,580,B,65.45703941704329,43.195445637660825,3.2728519708521646,0.6785124734190627,B,1007.124499999918,Correct,sub_006_day_03_data.csv,1,300,23.0,Training at home,,,,,,,,,,,,,
6,3,581,B,55.971353542017106,27.95899699790008,2.798567677100855,0.4391788978517099,B,807.3033000109717,Correct,sub_006_day_03_data.csv,1,300,23.0,Training at home,,,,,,,,,,,,,
6,3,582,A,41.173834300722405,67.34981128425176,2.05869171503612,1.057928361756321,A,947.9259000072489,Correct,sub_006_day_03_data.csv,1,300,23.0,Training at home,,,,,,,,,,,,,
6,3,583,A,42.36043494685165,73.90040136599482,2.118021747342582,1.1608247901437323,A,864.953999989666,Correct,sub_006_day_03_data.csv,1,300,23.0,Training at home,,,,,,,,,,,,,
6,3,584,A,22.74163485616278,43.063471726857216,1.137081742808139,0.676439432075832,A,665.7831000047736,Correct,sub_006_day_03_data.csv,1,300,23.0,Training at home,,,,,,,,,,,,,
6,3,585,B,43.18380966062785,23.03320198610532,2.1591904830313924,0.3618046907409915,B,676.8991999997525,Correct,sub_006_day_03_data.csv,1,300,23.0,Training at home,,,,,,,,,,,,,
6,3,586,A,14.23181304743002,43.02827404484074,0.711590652371501,0.6758865481796003,A,605.0178000004962,Correct,sub_006_day_03_data.csv,1,300,23.0,Training at home,,,,,,,,,,,,,
6,3,587,A,24.589553040803075,52.975838398666426,1.2294776520401538,0.8321425236550525,A,1078.6899999948218,Correct,sub_006_day_03_data.csv,1,300,23.0,Training at home,,,,,,,,,,,,,
6,3,588,A,45.37521194905854,74.16809042073827,2.268760597452927,1.1650296399828743,A,1430.4416999948444,Correct,sub_006_day_03_data.csv,1,300,23.0,Training at home,,,,,,,,,,,,,
6,3,589,B,72.1180266043214,56.44173455444604,3.6059013302160703,0.8865846931605644,B,2013.1478999974208,Correct,sub_006_day_03_data.csv,1,300,23.0,Training at home,,,,,,,,,,,,,
6,3,590,B,48.91256441213696,24.927384463327005,2.445628220606848,0.3915584395159824,B,1496.2139999988722,Correct,sub_006_day_03_data.csv,1,300,23.0,Training at home,,,,,,,,,,,,,
6,3,591,A,50.37111247585874,78.16009008601662,2.518555623792937,1.227735824090731,A,1191.422899995814,Correct,sub_006_day_03_data.csv,1,300,23.0,Training at home,,,,,,,,,,,,,
6,3,592,A,46.80137086104516,67.67596443801983,2.340068543052258,1.063051563515436,A,964.1591999970842,Correct,sub_006_day_03_data.csv,1,300,23.0,Training at home,,,,,,,,,,,,,
6,3,593,B,39.00802538205633,28.13541274115461,1.9504012691028163,0.4419500298666399,B,768.9829000009922,Correct,sub_006_day_03_data.csv,1,300,23.0,Training at home,,,,,,,,,,,,,
6,3,594,B,45.73695631686244,22.71847081334777,2.286847815843122,0.3568609050400375,B,658.1016999989515,Correct,sub_006_day_03_data.csv,1,300,23.0,Training at home,,,,,,,,,,,,,
6,3,595,B,67.67261791610741,45.35930574138272,3.3836308958053705,0.7125023084453064,B,1325.7462000037776,Correct,sub_006_day_03_data.csv,1,300,23.0,Training at home,,,,,,,,,,,,,
6,3,596,B,39.89037263592385,21.276995138818982,1.9945186317961927,0.3342182580928972,B,1264.0206999931252,Correct,sub_006_day_03_data.csv,1,300,23.0,Training at home,,,,,,,,,,,,,
6,3,597,A,61.08508013567944,79.60781218319448,3.054254006783972,1.250476589615399,A,1954.4438000011723,Correct,sub_006_day_03_data.csv,1,300,23.0,Training at home,,,,,,,,,,,,,
6,3,598,B,53.60204023558499,41.7748229389804,2.6801020117792493,0.656197384250576,B,752.3960999969859,Correct,sub_006_day_03_data.csv,1,300,23.0,Training at home,,,,,,,,,,,,,
6,3,599,B,79.68081637827154,61.8054267109258,3.9840408189135768,0.9708373725351344,B,811.4274999970803,Correct,sub_006_day_03_data.csv,1,300,23.0,Training at home,,,,,,,,,,,,,
