subject,day,trial,cat,x,y,xt,yt,resp,rt,fb,f_name,acc,n_trials,block,session_type,ns_left_digit,ns_right_digit,ns_left_size,ns_right_size,ns_congruent,ns_cue,ns_correct_side,ns_resp,ns_rt,ns_fb,acc_stroop,acc_stroop_mean,resp_key
6,24,548,A,53.53954441271435,80.82333251064405,2.6769772206357176,1.2695699382704222,A,864.2825999995694,Correct,sub_006_day_24_data.csv,1,542,,Button-Switch at home,,,,,,,,,,,,,k
6,24,549,B,84.39642257694965,58.23067441088908,4.2198211288474825,0.9146852947141416,B,840.197499957867,Correct,sub_006_day_24_data.csv,1,542,,Button-Switch at home,,,,,,,,,,,,,d
6,24,550,B,60.567099131505636,44.378106528402405,3.0283549565752814,0.6970896672492711,B,819.1030000452884,Correct,sub_006_day_24_data.csv,1,542,,Button-Switch at home,,,,,,,,,,,,,d
6,24,551,A,52.72466135368086,65.17710035077,2.636233067684043,1.023799498221319,A,940.571599989198,Correct,sub_006_day_24_data.csv,1,542,,Button-Switch at home,,,,,,,,,,,,,k
6,24,552,B,69.2721193498916,47.597091223976776,3.4636059674945794,0.7476533606074433,B,647.8826999664307,Correct,sub_006_day_24_data.csv,1,542,,Button-Switch at home,,,,,,,,,,,,,d
6,24,553,A,50.52876794590144,57.99945057711959,2.526438397295072,0.911053239226616,B,768.5524999978952,Incorrect,sub_006_day_24_data.csv,0,542,,Button-Switch at home,,,,,,,,,,,,,d
6,24,554,A,65.05835059083641,87.36857686035782,3.2529175295418207,1.3723823960954764,A,565.7486999989487,Correct,sub_006_day_24_data.csv,1,542,,Button-Switch at home,,,,,,,,,,,,,k
6,24,555,B,61.79706737267309,36.95900758850039,3.0898533686336545,0.5805507336200113,B,750.3597000031732,Correct,sub_006_day_24_data.csv,1,542,,Button-Switch at home,,,,,,,,,,,,,d
6,24,556,B,43.75375100883217,14.536661178472652,2.1876875504416087,0.2283413398300681,B,1233.1320000230337,Correct,sub_006_day_24_data.csv,1,542,,Button-Switch at home,,,,,,,,,,,,,d
6,24,557,B,63.690167429369694,52.09344554898773,3.1845083714684845,0.8182819291843986,B,2018.3496999670751,Correct,sub_006_day_24_data.csv,1,542,,Button-Switch at home,,,,,,,,,,,,,d
6,24,558,A,66.64105256363615,79.33157567777043,3.3320526281818075,1.2461374767349316,A,631.1893999809399,Correct,sub_006_day_24_data.csv,1,542,,Button-Switch at home,,,,,,,,,,,,,k
6,24,559,A,19.124434061549607,35.553318293975536,0.9562217030774804,0.5584702178154657,A,1318.1184999994002,Correct,sub_006_day_24_data.csv,1,542,,Button-Switch at home,,,,,,,,,,,,,k
6,24,560,B,82.86790417929076,61.02913126649776,4.143395208964538,0.9586433522089824,B,1232.6017000013962,Correct,sub_006_day_24_data.csv,1,542,,Button-Switch at home,,,,,,,,,,,,,d
6,24,561,B,75.8124372955423,51.68703094356368,3.7906218647771146,0.81189798349084,B,789.7385999676771,Correct,sub_006_day_24_data.csv,1,542,,Button-Switch at home,,,,,,,,,,,,,d
6,24,562,A,61.74408839080388,81.41402163224133,3.087204419540194,1.278848461295249,A,877.8696000226773,Correct,sub_006_day_24_data.csv,1,542,,Button-Switch at home,,,,,,,,,,,,,k
6,24,563,A,24.77812951822048,56.61310059588286,1.238906475911024,0.8892765046448277,A,562.7441999968141,Correct,sub_006_day_24_data.csv,1,542,,Button-Switch at home,,,,,,,,,,,,,k
6,24,564,B,44.76762611728245,19.64922643247321,2.2383813058641224,0.308649327044901,B,715.6931000063196,Correct,sub_006_day_24_data.csv,1,542,,Button-Switch at home,,,,,,,,,,,,,d
6,24,565,B,59.98006245244938,37.31612314271019,2.999003122622469,0.586160291627952,B,2713.434800039977,Correct,sub_006_day_24_data.csv,1,542,,Button-Switch at home,,,,,,,,,,,,,d
6,24,566,B,49.26829405678906,36.182062588379765,2.4634147028394526,0.5683465100968997,B,2603.29769999953,Correct,sub_006_day_24_data.csv,1,542,,Button-Switch at home,,,,,,,,,,,,,d
6,24,567,A,23.16177370306671,51.70524011031461,1.1580886851533356,0.8121840124133034,A,1168.5535000287928,Correct,sub_006_day_24_data.csv,1,542,,Button-Switch at home,,,,,,,,,,,,,k
6,24,568,B,45.53492388484889,26.003594719960795,2.2767461942424445,0.4084635106957758,B,1029.958600003738,Correct,sub_006_day_24_data.csv,1,542,,Button-Switch at home,,,,,,,,,,,,,d
6,24,569,A,42.02161285932035,67.31354266452551,2.101080642966018,1.0573586556098822,A,836.7189000127837,Correct,sub_006_day_24_data.csv,1,542,,Button-Switch at home,,,,,,,,,,,,,k
6,24,570,B,55.33278733857234,34.59893309882238,2.766639366928617,0.5434787702265256,B,725.6494000321254,Correct,sub_006_day_24_data.csv,1,542,,Button-Switch at home,,,,,,,,,,,,,d
6,24,571,A,63.89099228073499,86.43195781149868,3.1945496140367493,1.3576700184799355,A,938.8410999672489,Correct,sub_006_day_24_data.csv,1,542,,Button-Switch at home,,,,,,,,,,,,,k
6,24,572,A,39.996332069543904,64.35025032828909,1.9998166034771951,1.010811368440086,A,729.0333000128157,Correct,sub_006_day_24_data.csv,1,542,,Button-Switch at home,,,,,,,,,,,,,k
6,24,573,A,22.47821887155601,46.19582438950701,1.1239109435778003,0.725642312642997,A,1088.7928999727592,Correct,sub_006_day_24_data.csv,1,542,,Button-Switch at home,,,,,,,,,,,,,k
6,24,574,A,21.207738351891795,47.48238013657318,1.0603869175945897,0.745851483060081,A,1243.8772000023164,Correct,sub_006_day_24_data.csv,1,542,,Button-Switch at home,,,,,,,,,,,,,k
6,24,575,B,34.66744227461029,20.183016220098807,1.7333721137305145,0.3170340774217302,B,1041.9282999937425,Correct,sub_006_day_24_data.csv,1,542,,Button-Switch at home,,,,,,,,,,,,,d
6,24,576,B,79.04121625107197,47.05202830029127,3.952060812553599,0.7390915322234705,B,693.8261999748647,Correct,sub_006_day_24_data.csv,1,542,,Button-Switch at home,,,,,,,,,,,,,d
6,24,577,B,83.33863495842438,69.17162756294775,4.166931747921219,1.0865453849430295,B,692.3140999861062,Correct,sub_006_day_24_data.csv,1,542,,Button-Switch at home,,,,,,,,,,,,,d
6,24,578,B,67.56768304111974,40.1809297628659,3.3783841520559865,0.6311605687871349,B,557.5230999966152,Correct,sub_006_day_24_data.csv,1,542,,Button-Switch at home,,,,,,,,,,,,,d
6,24,579,B,57.674381846031736,44.87595148455576,2.883719092301587,0.7049097975336618,B,675.0131999724545,Correct,sub_006_day_24_data.csv,1,542,,Button-Switch at home,,,,,,,,,,,,,d
6,24,580,A,40.655786240424135,59.89985914574813,2.032789312021207,0.9409047872167284,A,742.8400999633595,Correct,sub_006_day_24_data.csv,1,542,,Button-Switch at home,,,,,,,,,,,,,k
6,24,581,A,52.89595197673922,62.114985472102205,2.644797598836961,0.9756999101849652,B,1158.2882999791764,Incorrect,sub_006_day_24_data.csv,0,542,,Button-Switch at home,,,,,,,,,,,,,d
6,24,582,B,82.56039369951046,67.55819246885656,4.128019684975523,1.0612016057498252,B,2563.156899996102,Correct,sub_006_day_24_data.csv,1,542,,Button-Switch at home,,,,,,,,,,,,,d
6,24,583,A,61.9805694931542,79.5318563003356,3.09902847465771,1.2492834773974673,A,707.0020000101067,Correct,sub_006_day_24_data.csv,1,542,,Button-Switch at home,,,,,,,,,,,,,k
6,24,584,A,41.06234691283723,49.88950678235021,2.053117345641861,0.7836625399932478,B,983.3786999806762,Incorrect,sub_006_day_24_data.csv,0,542,,Button-Switch at home,,,,,,,,,,,,,d
6,24,585,B,73.11274189825592,47.19060675084687,3.655637094912796,0.741268317434527,B,1015.5736000160688,Correct,sub_006_day_24_data.csv,1,542,,Button-Switch at home,,,,,,,,,,,,,d
6,24,586,A,52.84704233421227,81.1755018116121,2.642352116710614,1.2751018007141273,A,705.9217999922112,Correct,sub_006_day_24_data.csv,1,542,,Button-Switch at home,,,,,,,,,,,,,k
6,24,587,A,30.42657910292983,57.604413000194,1.5213289551464912,0.9048480034788092,A,1274.3728999630548,Correct,sub_006_day_24_data.csv,1,542,,Button-Switch at home,,,,,,,,,,,,,k
6,24,588,B,35.35783657013387,11.663821012897742,1.7678918285066936,0.183214872034529,B,651.5398999908939,Correct,sub_006_day_24_data.csv,1,542,,Button-Switch at home,,,,,,,,,,,,,d
6,24,589,B,49.20113854838695,42.41477654432671,2.4600569274193473,0.6662497519765473,B,1301.4451999915764,Correct,sub_006_day_24_data.csv,1,542,,Button-Switch at home,,,,,,,,,,,,,d
6,24,590,B,58.01087156432629,35.05014260665934,2.9005435782163143,0.550566352601778,B,535.3479000041261,Correct,sub_006_day_24_data.csv,1,542,,Button-Switch at home,,,,,,,,,,,,,d
6,24,591,A,40.37454363441231,48.315108638905954,2.0187271817206156,0.7589319517868985,B,1347.4819000111893,Incorrect,sub_006_day_24_data.csv,0,542,,Button-Switch at home,,,,,,,,,,,,,d
6,24,592,A,53.970079351880145,67.67448701477579,2.6985039675940072,1.0630283562053875,A,1411.8832999956794,Correct,sub_006_day_24_data.csv,1,542,,Button-Switch at home,,,,,,,,,,,,,k
6,24,593,B,74.41012260493055,46.630909454157866,3.720506130246528,0.7324766128569659,B,663.0170000134967,Correct,sub_006_day_24_data.csv,1,542,,Button-Switch at home,,,,,,,,,,,,,d
6,24,594,B,38.7075909997043,16.02003010159485,1.935379549985215,0.2516420443872886,B,755.3469999693334,Correct,sub_006_day_24_data.csv,1,542,,Button-Switch at home,,,,,,,,,,,,,d
6,24,595,B,67.54587500010169,58.53237180400389,3.377293750005084,0.9194243462832248,B,1928.882899985183,Correct,sub_006_day_24_data.csv,1,542,,Button-Switch at home,,,,,,,,,,,,,d
6,24,596,B,82.71407308756166,58.60477606951994,4.135703654378083,0.920561669826394,B,1037.669699988328,Correct,sub_006_day_24_data.csv,1,542,,Button-Switch at home,,,,,,,,,,,,,d
6,24,597,A,21.707681442353213,45.01483211589792,1.0853840721176606,0.7070913293894139,A,598.0297999922186,Correct,sub_006_day_24_data.csv,1,542,,Button-Switch at home,,,,,,,,,,,,,k
6,24,598,B,66.42863781055688,55.19411693843807,3.321431890527844,0.866987161475865,B,2208.2091000047512,Correct,sub_006_day_24_data.csv,1,542,,Button-Switch at home,,,,,,,,,,,,,d
6,24,599,A,52.36668421014344,73.93138651172238,2.618334210507172,1.1613115036746728,A,884.3053000164218,Correct,sub_006_day_24_data.csv,1,542,,Button-Switch at home,,,,,,,,,,,,,k
6,24,600,A,58.335488863532305,84.69385497059653,2.916774443176615,1.3303679628991274,A,648.0948000098579,Correct,sub_006_day_24_data.csv,1,542,,Button-Switch at home,,,,,,,,,,,,,k
6,24,601,B,74.16467613538094,64.08062067630539,3.708233806769047,1.006576035770776,B,956.3339999876916,Correct,sub_006_day_24_data.csv,1,542,,Button-Switch at home,,,,,,,,,,,,,d
6,24,602,B,59.70855240849453,28.28004897436924,2.9854276204247263,0.4442219705051898,B,758.0423000035807,Correct,sub_006_day_24_data.csv,1,542,,Button-Switch at home,,,,,,,,,,,,,d
6,24,603,A,17.901528506444073,43.914690527807046,0.8950764253222036,0.6898103457341396,A,1374.748800008092,Correct,sub_006_day_24_data.csv,1,542,,Button-Switch at home,,,,,,,,,,,,,k
6,24,604,A,61.96505536620451,86.6756410075463,3.0982527683102257,1.3614977851724683,A,773.3675000490621,Correct,sub_006_day_24_data.csv,1,542,,Button-Switch at home,,,,,,,,,,,,,k
6,24,605,A,56.1999237975439,66.66009004331825,2.809996189877195,1.0470942458386137,A,3314.7370000369847,Correct,sub_006_day_24_data.csv,1,542,,Button-Switch at home,,,,,,,,,,,,,k
6,24,606,A,15.247623904244726,31.565281412233062,0.7623811952122364,0.4958262809658291,B,724.0862000035122,Incorrect,sub_006_day_24_data.csv,0,542,,Button-Switch at home,,,,,,,,,,,,,d
6,24,607,B,56.10296085311305,23.677479345713,2.8051480426556528,0.3719249758400801,B,765.7663999707438,Correct,sub_006_day_24_data.csv,1,542,,Button-Switch at home,,,,,,,,,,,,,d
6,24,608,B,36.50572875829381,26.81744673292811,1.8252864379146905,0.4212474682210128,B,907.193900027778,Correct,sub_006_day_24_data.csv,1,542,,Button-Switch at home,,,,,,,,,,,,,d
6,24,609,A,43.04385023097464,75.15464524759125,2.152192511548732,1.1805264069648986,A,871.2132000364363,Correct,sub_006_day_24_data.csv,1,542,,Button-Switch at home,,,,,,,,,,,,,k
6,24,610,B,55.769107662719705,47.82056057158277,2.788455383135985,0.7511636089111509,B,1057.3486000066623,Correct,sub_006_day_24_data.csv,1,542,,Button-Switch at home,,,,,,,,,,,,,d
6,24,611,B,58.54626731168186,46.946689042620626,2.9273133655840926,0.7374368670333071,B,1217.0762999448923,Correct,sub_006_day_24_data.csv,1,542,,Button-Switch at home,,,,,,,,,,,,,d
6,24,612,B,51.244082003169915,31.403417643111872,2.5622041001584956,0.4932837308260618,B,1101.355099992361,Correct,sub_006_day_24_data.csv,1,542,,Button-Switch at home,,,,,,,,,,,,,d
6,24,613,B,52.95485636430803,34.54205605510375,2.6477428182154017,0.5425853477130039,B,1692.3342000227422,Correct,sub_006_day_24_data.csv,1,542,,Button-Switch at home,,,,,,,,,,,,,d
6,24,614,B,42.63514244785112,33.8042844847571,2.1317571223925564,0.5309964589858616,B,817.6676000002772,Correct,sub_006_day_24_data.csv,1,542,,Button-Switch at home,,,,,,,,,,,,,d
6,24,615,A,15.069388072332291,31.6998621868066,0.7534694036166145,0.4979402708294024,A,1406.8347999709658,Correct,sub_006_day_24_data.csv,1,542,,Button-Switch at home,,,,,,,,,,,,,k
6,24,616,A,19.40774319680024,37.838066403421166,0.970387159840012,0.5943589571951534,A,819.0317000262439,Correct,sub_006_day_24_data.csv,1,542,,Button-Switch at home,,,,,,,,,,,,,k
6,24,617,A,44.43588118297188,76.3945580129814,2.221794059148594,1.2000029111391084,A,1015.5196000123397,Correct,sub_006_day_24_data.csv,1,542,,Button-Switch at home,,,,,,,,,,,,,k
6,24,618,A,39.57244002288001,54.38505627856125,1.9786220011440008,0.8542784663489772,A,1112.5828999793157,Correct,sub_006_day_24_data.csv,1,542,,Button-Switch at home,,,,,,,,,,,,,k
6,24,619,B,49.466959098871826,25.151179046372583,2.4733479549435913,0.3950737966060282,B,885.6953000067733,Correct,sub_006_day_24_data.csv,1,542,,Button-Switch at home,,,,,,,,,,,,,d
6,24,620,A,18.30061971291232,33.34171158342185,0.915030985645616,0.523730380842939,A,590.2140999678522,Correct,sub_006_day_24_data.csv,1,542,,Button-Switch at home,,,,,,,,,,,,,k
6,24,621,A,52.245034017504906,71.99796909721783,2.6122517008752455,1.1309414539460223,A,608.7613999843597,Correct,sub_006_day_24_data.csv,1,542,,Button-Switch at home,,,,,,,,,,,,,k
6,24,622,B,85.63964038741295,58.17869492563271,4.2819820193706475,0.9138688028690476,B,770.8161000045948,Correct,sub_006_day_24_data.csv,1,542,,Button-Switch at home,,,,,,,,,,,,,d
6,24,623,A,18.07462879266422,46.45623510571512,0.903731439633211,0.7297328346077745,A,790.6748999957927,Correct,sub_006_day_24_data.csv,1,542,,Button-Switch at home,,,,,,,,,,,,,k
6,24,624,B,33.9563621272054,13.716203886700008,1.6978181063602702,0.2154536268279825,B,715.0107999914326,Correct,sub_006_day_24_data.csv,1,542,,Button-Switch at home,,,,,,,,,,,,,d
6,24,625,A,33.48850428252818,54.016841413336465,1.674425214126409,0.8484945607713137,A,1305.0522999837997,Correct,sub_006_day_24_data.csv,1,542,,Button-Switch at home,,,,,,,,,,,,,k
6,24,626,A,15.972998164010626,36.7811750822155,0.7986499082005313,0.5777573471434407,A,865.7521999557503,Correct,sub_006_day_24_data.csv,1,542,,Button-Switch at home,,,,,,,,,,,,,k
6,24,627,A,27.811527711083748,41.94845214939657,1.3905763855541875,0.6589247455100362,A,899.5109000243247,Correct,sub_006_day_24_data.csv,1,542,,Button-Switch at home,,,,,,,,,,,,,k
6,24,628,A,23.184120868683756,34.228170454817985,1.1592060434341878,0.537654844233377,A,1608.5596000193618,Correct,sub_006_day_24_data.csv,1,542,,Button-Switch at home,,,,,,,,,,,,,k
6,24,629,B,54.1131351311402,33.75668158710578,2.70565675655701,0.5302487144181067,B,3350.9756000130437,Correct,sub_006_day_24_data.csv,1,542,,Button-Switch at home,,,,,,,,,,,,,d
6,24,630,B,67.62286847201861,39.763008690246664,3.38114342360093,0.62459587992953,B,647.8892000159249,Correct,sub_006_day_24_data.csv,1,542,,Button-Switch at home,,,,,,,,,,,,,d
6,24,631,B,75.5155425167741,43.31276847215508,3.775777125838705,0.68035537619379,B,4162.669400044251,Correct,sub_006_day_24_data.csv,1,542,,Button-Switch at home,,,,,,,,,,,,,d
6,24,632,B,55.15039851982978,24.790909924800964,2.7575199259914887,0.3894147024778049,B,633.0353999510407,Correct,sub_006_day_24_data.csv,1,542,,Button-Switch at home,,,,,,,,,,,,,d
6,24,633,B,78.5218100965305,64.1956661552333,3.926090504826525,1.0083831659279192,B,1104.7994999680668,Correct,sub_006_day_24_data.csv,1,542,,Button-Switch at home,,,,,,,,,,,,,d
6,24,634,B,78.27697972568693,66.5455482836923,3.9138489862843464,1.045295028085763,B,802.2099999943748,Correct,sub_006_day_24_data.csv,1,542,,Button-Switch at home,,,,,,,,,,,,,d
6,24,635,A,59.954145491922574,85.29225657860945,2.997707274596129,1.339767633377276,A,690.1679000002332,Correct,sub_006_day_24_data.csv,1,542,,Button-Switch at home,,,,,,,,,,,,,k
6,24,636,B,86.29438983607116,64.97171599472142,4.314719491803558,1.020573328300696,B,725.8211000007577,Correct,sub_006_day_24_data.csv,1,542,,Button-Switch at home,,,,,,,,,,,,,d
6,24,637,B,43.94991988648916,23.76521341724601,2.1974959943244583,0.3733030994130683,B,1019.4689999916592,Correct,sub_006_day_24_data.csv,1,542,,Button-Switch at home,,,,,,,,,,,,,d
6,24,638,A,32.23393580148586,64.36018997593432,1.6116967900742931,1.0109675000601936,A,647.1549000125378,Correct,sub_006_day_24_data.csv,1,542,,Button-Switch at home,,,,,,,,,,,,,k
6,24,639,B,34.00418183256514,21.128900985210542,1.7002090916282568,0.331892000567818,A,768.7050999957137,Incorrect,sub_006_day_24_data.csv,0,542,,Button-Switch at home,,,,,,,,,,,,,k
6,24,640,B,35.93675364642165,22.387057266232155,1.7968376823210823,0.3516550732154447,B,1051.0332999983802,Correct,sub_006_day_24_data.csv,1,542,,Button-Switch at home,,,,,,,,,,,,,d
6,24,641,A,49.176700605479866,68.94463121289728,2.4588350302739936,1.082979734614478,A,742.8955000359565,Correct,sub_006_day_24_data.csv,1,542,,Button-Switch at home,,,,,,,,,,,,,k
6,24,642,A,30.13034040722009,43.17419389705569,1.5065170203610043,0.6781786518582571,A,786.215899977833,Correct,sub_006_day_24_data.csv,1,542,,Button-Switch at home,,,,,,,,,,,,,k
6,24,643,A,65.9782806622232,86.0557440034292,3.29891403311116,1.3517604658018854,A,730.4878000286408,Correct,sub_006_day_24_data.csv,1,542,,Button-Switch at home,,,,,,,,,,,,,k
6,24,644,B,87.91219907680266,61.75706561329174,4.395609953840133,0.9700777181899009,B,827.4180999724194,Correct,sub_006_day_24_data.csv,1,542,,Button-Switch at home,,,,,,,,,,,,,d
6,24,645,B,83.87580363013694,57.32318188579745,4.193790181506847,0.900430435464064,B,1090.72889998788,Correct,sub_006_day_24_data.csv,1,542,,Button-Switch at home,,,,,,,,,,,,,d
6,24,646,A,29.156687990108104,44.16767736536158,1.4578343995054053,0.6937842536857205,A,1848.2509000459688,Correct,sub_006_day_24_data.csv,1,542,,Button-Switch at home,,,,,,,,,,,,,k
6,24,647,A,41.32449392342924,53.23096282839931,2.066224696171462,0.8361500088260532,A,863.3719999925233,Correct,sub_006_day_24_data.csv,1,542,,Button-Switch at home,,,,,,,,,,,,,k
6,24,648,A,56.68983704573301,80.23680671092285,2.8344918522866505,1.2603568125526974,A,1245.6762000219896,Correct,sub_006_day_24_data.csv,1,542,,Button-Switch at home,,,,,,,,,,,,,k
6,24,649,B,33.04505443480208,12.104137094845656,1.652252721740104,0.190131340876054,B,799.0824000444263,Correct,sub_006_day_24_data.csv,1,542,,Button-Switch at home,,,,,,,,,,,,,d
6,24,650,B,70.14755672592968,42.941580862734654,3.507377836296484,0.6745247748594962,B,1024.4338999618776,Correct,sub_006_day_24_data.csv,1,542,,Button-Switch at home,,,,,,,,,,,,,d
6,24,651,B,83.67325688980767,60.418490587105026,4.183662844490384,0.949051430847166,B,2432.408199994825,Correct,sub_006_day_24_data.csv,1,542,,Button-Switch at home,,,,,,,,,,,,,d
6,24,652,A,32.895672557771356,63.379465058844005,1.6447836278885677,0.9955623090865766,A,1042.462199984584,Correct,sub_006_day_24_data.csv,1,542,,Button-Switch at home,,,,,,,,,,,,,k
6,24,653,B,85.62769465254294,61.0598491127439,4.281384732627147,0.9591258670094872,B,753.447899944149,Correct,sub_006_day_24_data.csv,1,542,,Button-Switch at home,,,,,,,,,,,,,d
6,24,654,B,39.23067071768059,22.361917109794412,1.9615335358840296,0.3512601725615701,B,1152.86129998276,Correct,sub_006_day_24_data.csv,1,542,,Button-Switch at home,,,,,,,,,,,,,d
6,24,655,A,68.3750142915068,89.20612270243689,3.41875071457534,1.401246498686027,A,960.6242000008932,Correct,sub_006_day_24_data.csv,1,542,,Button-Switch at home,,,,,,,,,,,,,k
6,24,656,B,53.485944189592,40.18217971800956,2.6742972094796005,0.631180203036618,B,954.905599995982,Correct,sub_006_day_24_data.csv,1,542,,Button-Switch at home,,,,,,,,,,,,,d
6,24,657,A,31.63693867052711,56.4232706043369,1.5818469335263554,0.8862946621104686,A,1436.0589999705553,Correct,sub_006_day_24_data.csv,1,542,,Button-Switch at home,,,,,,,,,,,,,k
6,24,658,A,17.746084298351047,33.90617846524823,0.8873042149175524,0.5325970058886415,A,2610.5770000140183,Correct,sub_006_day_24_data.csv,1,542,,Button-Switch at home,,,,,,,,,,,,,k
6,24,659,A,68.91901612594108,86.91633125340262,3.4459508062970543,1.365278538713333,A,648.5844000126235,Correct,sub_006_day_24_data.csv,1,542,,Button-Switch at home,,,,,,,,,,,,,k
6,24,660,A,55.31915904148619,79.86003123345378,2.765957952074309,1.254438437192349,A,1755.661599978339,Correct,sub_006_day_24_data.csv,1,542,,Button-Switch at home,,,,,,,,,,,,,k
6,24,661,B,38.78017217044663,14.065199422486938,1.9390086085223317,0.2209356358848018,B,817.3165000043809,Correct,sub_006_day_24_data.csv,1,542,,Button-Switch at home,,,,,,,,,,,,,d
6,24,662,A,21.883653824705945,45.85763085748778,1.0941826912352972,0.720329981064581,A,970.5831999890506,Correct,sub_006_day_24_data.csv,1,542,,Button-Switch at home,,,,,,,,,,,,,k
6,24,663,A,34.38347470463257,61.036141976316856,1.7191737352316283,0.9587534761813032,A,1279.7662999946624,Correct,sub_006_day_24_data.csv,1,542,,Button-Switch at home,,,,,,,,,,,,,k
6,24,664,B,88.89477297316485,66.94612352864101,4.444738648658242,1.051587249319467,A,905.8107999735512,Incorrect,sub_006_day_24_data.csv,0,542,,Button-Switch at home,,,,,,,,,,,,,k
6,24,665,B,34.10844369840271,21.36940959477092,1.7054221849201354,0.3356699009724178,A,1874.0594999981113,Incorrect,sub_006_day_24_data.csv,0,542,,Button-Switch at home,,,,,,,,,,,,,k
6,24,666,A,37.8470180077453,58.193867783465194,1.892350900387265,0.91410713756255,A,848.5680000158027,Correct,sub_006_day_24_data.csv,1,542,,Button-Switch at home,,,,,,,,,,,,,k
6,24,667,B,66.1537876181416,53.574175806202575,3.3076893809070804,0.8415411856744702,B,838.5197999887168,Correct,sub_006_day_24_data.csv,1,542,,Button-Switch at home,,,,,,,,,,,,,d
6,24,668,A,49.388735250643386,65.0549741273376,2.46943676253217,1.0218811439895894,A,2047.8229000000283,Correct,sub_006_day_24_data.csv,1,542,,Button-Switch at home,,,,,,,,,,,,,k
6,24,669,A,19.974177930962213,42.352035733871546,0.9987088965481108,0.6652642216305164,A,1622.3204000270923,Correct,sub_006_day_24_data.csv,1,542,,Button-Switch at home,,,,,,,,,,,,,k
6,24,670,B,53.08486509090927,46.11764151010752,2.6542432545454635,0.7244142188452074,B,1523.6090999678709,Correct,sub_006_day_24_data.csv,1,542,,Button-Switch at home,,,,,,,,,,,,,d
6,24,671,B,30.844899357533553,12.841879749878704,1.5422449678766776,0.2017197754025123,B,1447.573800047394,Correct,sub_006_day_24_data.csv,1,542,,Button-Switch at home,,,,,,,,,,,,,d
6,24,672,B,75.45678320706777,58.465854199900555,3.7728391603533886,0.9183794902012976,B,779.6268999809399,Correct,sub_006_day_24_data.csv,1,542,,Button-Switch at home,,,,,,,,,,,,,d
6,24,673,B,38.53698358469833,14.089757559483887,1.9268491792349167,0.2213213941986792,B,628.7702000117861,Correct,sub_006_day_24_data.csv,1,542,,Button-Switch at home,,,,,,,,,,,,,d
6,24,674,A,51.63976558704154,73.37165396138786,2.581988279352077,1.1525192453341429,A,1572.6268999860622,Correct,sub_006_day_24_data.csv,1,542,,Button-Switch at home,,,,,,,,,,,,,k
6,24,675,A,22.940037101502067,54.70088225096275,1.147001855075103,0.8592394491225244,A,1039.1615999978967,Correct,sub_006_day_24_data.csv,1,542,,Button-Switch at home,,,,,,,,,,,,,k
6,24,676,A,32.93235673102585,61.12879308048277,1.6466178365512922,0.9602088363222764,A,969.3569000228308,Correct,sub_006_day_24_data.csv,1,542,,Button-Switch at home,,,,,,,,,,,,,k
6,24,677,A,33.42944350045058,62.62107152400871,1.6714721750225292,0.9836494912987338,A,1369.5674000191502,Correct,sub_006_day_24_data.csv,1,542,,Button-Switch at home,,,,,,,,,,,,,k
6,24,678,B,80.10169879939234,53.5951832412443,4.005084939969617,0.8418711696924593,B,5209.131600044202,Correct,sub_006_day_24_data.csv,1,542,,Button-Switch at home,,,,,,,,,,,,,d
6,24,679,B,82.43531923857833,53.90529922535429,4.121765961928917,0.8467424601796629,B,645.2440000139177,Correct,sub_006_day_24_data.csv,1,542,,Button-Switch at home,,,,,,,,,,,,,d
6,24,680,A,46.22924840375914,75.44993954010616,2.311462420187957,1.1851648788649578,A,702.4286000523716,Correct,sub_006_day_24_data.csv,1,542,,Button-Switch at home,,,,,,,,,,,,,k
6,24,681,A,32.05288100648234,60.081046638125315,1.6026440503241168,0.943750873691601,A,2414.158800034784,Correct,sub_006_day_24_data.csv,1,542,,Button-Switch at home,,,,,,,,,,,,,k
6,24,682,A,27.122264017601985,39.535125666662694,1.3561132008800991,0.6210163017656839,B,857.4811000144109,Incorrect,sub_006_day_24_data.csv,0,542,,Button-Switch at home,,,,,,,,,,,,,d
6,24,683,B,62.20652395814863,30.07310674653737,3.1103261979074315,0.4723872561277172,B,545.9665000089444,Correct,sub_006_day_24_data.csv,1,542,,Button-Switch at home,,,,,,,,,,,,,d
6,24,684,B,69.97246233832527,50.99959213078401,3.4986231169162636,0.8010997198707344,B,1724.2906999890693,Correct,sub_006_day_24_data.csv,1,542,,Button-Switch at home,,,,,,,,,,,,,d
6,24,685,A,36.51487525627131,46.864994686749625,1.825743762813565,0.7361536150920865,B,2517.161399999168,Incorrect,sub_006_day_24_data.csv,0,542,,Button-Switch at home,,,,,,,,,,,,,d
6,24,686,A,26.76765839478377,42.18657035209148,1.3383829197391883,0.6626650974913978,A,2914.284600003157,Correct,sub_006_day_24_data.csv,1,542,,Button-Switch at home,,,,,,,,,,,,,k
6,24,687,A,25.586665369582672,55.18883000663162,1.2793332684791336,0.8669041145452492,A,727.3042000015266,Correct,sub_006_day_24_data.csv,1,542,,Button-Switch at home,,,,,,,,,,,,,k
6,24,688,A,53.451431092099995,69.32503930676368,2.6725715546049997,1.0889551709797622,A,1591.8498000246473,Correct,sub_006_day_24_data.csv,1,542,,Button-Switch at home,,,,,,,,,,,,,k
6,24,689,B,70.06986122250646,47.42797594385317,3.503493061125323,0.7449969039992128,B,655.3198000183329,Correct,sub_006_day_24_data.csv,1,542,,Button-Switch at home,,,,,,,,,,,,,d
6,24,690,B,60.19281535821394,49.510065425594824,3.0096407679106973,0.7777022890989935,B,830.344200017862,Correct,sub_006_day_24_data.csv,1,542,,Button-Switch at home,,,,,,,,,,,,,d
6,24,691,A,27.440725184464945,58.31384948312345,1.3720362592232471,0.915991805693608,A,998.790599987842,Correct,sub_006_day_24_data.csv,1,542,,Button-Switch at home,,,,,,,,,,,,,k
6,24,692,B,65.59781783925817,37.165858903278334,3.2798908919629084,0.5837999464744701,B,1440.0909999967553,Correct,sub_006_day_24_data.csv,1,542,,Button-Switch at home,,,,,,,,,,,,,d
6,24,693,B,39.33529165388758,16.025381212444433,1.966764582694379,0.2517260994399566,B,1560.3690999560058,Correct,sub_006_day_24_data.csv,1,542,,Button-Switch at home,,,,,,,,,,,,,d
6,24,694,B,69.69110859276947,38.659827244666985,3.4845554296384735,0.6072671463044816,B,3230.6709000258707,Correct,sub_006_day_24_data.csv,1,542,,Button-Switch at home,,,,,,,,,,,,,d
6,24,695,B,87.53753951615649,63.511911609272374,4.376876975807824,0.997642774635672,A,1753.9845000137575,Incorrect,sub_006_day_24_data.csv,0,542,,Button-Switch at home,,,,,,,,,,,,,k
6,24,696,B,81.10278564065999,51.72050133136045,4.055139282032999,0.8124237351129157,A,1690.2355999918657,Incorrect,sub_006_day_24_data.csv,0,542,,Button-Switch at home,,,,,,,,,,,,,k
6,24,697,A,36.319179445945046,56.51342352831234,1.8159589722972524,0.8877107809287731,B,5171.999100013636,Incorrect,sub_006_day_24_data.csv,0,542,,Button-Switch at home,,,,,,,,,,,,,d
6,24,698,A,52.44807630473821,82.48520718989687,2.6224038152369102,1.2956746046880598,A,1766.811500012409,Correct,sub_006_day_24_data.csv,1,542,,Button-Switch at home,,,,,,,,,,,,,k
6,24,699,A,28.875874465631895,51.4596422484208,1.443793723281595,0.8083261702199886,B,1546.879299974535,Incorrect,sub_006_day_24_data.csv,0,542,,Button-Switch at home,,,,,,,,,,,,,d
6,24,700,A,26.577364064577417,58.10697018525181,1.3288682032288708,0.9127421532817408,A,2078.4445999888703,Correct,sub_006_day_24_data.csv,1,542,,Button-Switch at home,,,,,,,,,,,,,k
6,24,701,A,11.545316480088488,32.96920639648785,0.5772658240044244,0.5178790830494592,A,1522.6284000091257,Correct,sub_006_day_24_data.csv,1,542,,Button-Switch at home,,,,,,,,,,,,,k
6,24,702,B,48.67723453786123,22.438860193547757,2.4338617268930616,0.3524687916948903,B,970.7406000234188,Correct,sub_006_day_24_data.csv,1,542,,Button-Switch at home,,,,,,,,,,,,,d
6,24,703,A,58.743868304350855,67.71751844556616,2.9371934152175423,1.0637042923396098,A,1687.2514000278898,Correct,sub_006_day_24_data.csv,1,542,,Button-Switch at home,,,,,,,,,,,,,k
6,24,704,B,68.6981290978708,48.48379876774967,3.4349064548935404,0.761581730134441,B,2579.0247000404634,Correct,sub_006_day_24_data.csv,1,542,,Button-Switch at home,,,,,,,,,,,,,d
6,24,705,B,77.86065986647554,48.133046945690694,3.8930329933237777,0.7560721333973726,B,2781.686300004367,Correct,sub_006_day_24_data.csv,1,542,,Button-Switch at home,,,,,,,,,,,,,d
6,24,706,A,19.26695934738871,36.157926502628854,0.9633479673694354,0.5679673813484925,A,1297.008799971081,Correct,sub_006_day_24_data.csv,1,542,,Button-Switch at home,,,,,,,,,,,,,k
6,24,707,A,43.91029366360548,64.09287517091238,2.195514683180274,1.00676852892193,B,873.4280000207946,Incorrect,sub_006_day_24_data.csv,0,542,,Button-Switch at home,,,,,,,,,,,,,d
6,24,708,B,43.49084878892049,22.15082056520145,2.174542439446024,0.3479442757931129,B,953.0639000004156,Correct,sub_006_day_24_data.csv,1,542,,Button-Switch at home,,,,,,,,,,,,,d
6,24,709,A,51.9384865082971,74.7869761177091,2.596924325414855,1.174751073777951,A,1018.1454999838024,Correct,sub_006_day_24_data.csv,1,542,,Button-Switch at home,,,,,,,,,,,,,k
6,24,710,B,73.32434957431833,60.16598587554498,3.666217478715916,0.9450850961129968,B,831.3204000005499,Correct,sub_006_day_24_data.csv,1,542,,Button-Switch at home,,,,,,,,,,,,,d
6,24,711,A,65.65013215662981,83.85642340133992,3.2825066078314906,1.3172136185698238,A,959.111700009089,Correct,sub_006_day_24_data.csv,1,542,,Button-Switch at home,,,,,,,,,,,,,k
6,24,712,A,48.55183106207347,74.16877263905813,2.427591553103673,1.1650403562431833,A,1098.4281999990344,Correct,sub_006_day_24_data.csv,1,542,,Button-Switch at home,,,,,,,,,,,,,k
6,24,713,A,35.878396223423245,47.15498678871682,1.793919811171162,0.7407088003777825,A,2369.918799959123,Correct,sub_006_day_24_data.csv,1,542,,Button-Switch at home,,,,,,,,,,,,,k
6,24,714,B,67.50553607185881,49.31852043351956,3.375276803592941,0.7746935073993159,B,762.858200003393,Correct,sub_006_day_24_data.csv,1,542,,Button-Switch at home,,,,,,,,,,,,,d
6,24,715,B,88.70731148922316,67.43831587313773,4.435365574461158,1.059318588587587,B,1151.2083999696188,Correct,sub_006_day_24_data.csv,1,542,,Button-Switch at home,,,,,,,,,,,,,d
6,24,716,A,58.61091020076161,77.77991058506349,2.9305455100380806,1.2217639784545324,A,4071.58150000032,Correct,sub_006_day_24_data.csv,1,542,,Button-Switch at home,,,,,,,,,,,,,k
6,24,717,B,81.03943544038172,58.125185093156,4.051971772019086,0.9130282723860292,B,1510.399500024505,Correct,sub_006_day_24_data.csv,1,542,,Button-Switch at home,,,,,,,,,,,,,d
6,24,718,B,81.67666285188379,57.004238008933015,4.08383314259419,0.8954204767617401,B,1245.34629995469,Correct,sub_006_day_24_data.csv,1,542,,Button-Switch at home,,,,,,,,,,,,,d
6,24,719,B,82.46454538433952,58.90390260637571,4.123227269216976,0.925260338479793,B,3055.7132000103593,Correct,sub_006_day_24_data.csv,1,542,,Button-Switch at home,,,,,,,,,,,,,d
6,24,720,A,43.99866395976085,51.17040095685006,2.1999331979880425,0.8037827786364213,B,1482.9333000234328,Incorrect,sub_006_day_24_data.csv,0,542,,Button-Switch at home,,,,,,,,,,,,,d
6,24,721,A,37.43948024109317,55.66487119803688,1.8719740120546584,0.8743817520938737,B,781.9435999845155,Incorrect,sub_006_day_24_data.csv,0,542,,Button-Switch at home,,,,,,,,,,,,,d
6,24,722,A,52.96836831187612,76.29773604682848,2.648418415593806,1.1984820352512473,B,900.0577999977395,Incorrect,sub_006_day_24_data.csv,0,542,,Button-Switch at home,,,,,,,,,,,,,d
6,24,723,B,42.896370815817335,28.218520641523423,2.144818540790866,0.4432554857129096,B,843.1692000012845,Correct,sub_006_day_24_data.csv,1,542,,Button-Switch at home,,,,,,,,,,,,,d
6,24,724,B,69.69826580198936,36.59432615239734,3.484913290099468,0.5748223310172016,B,804.0486000245437,Correct,sub_006_day_24_data.csv,1,542,,Button-Switch at home,,,,,,,,,,,,,d
6,24,725,A,16.07672084577219,37.13707706429186,0.8038360422886095,0.5833478424048865,A,592.8265999536961,Correct,sub_006_day_24_data.csv,1,542,,Button-Switch at home,,,,,,,,,,,,,k
6,24,726,B,30.37842602604005,11.534663134523171,1.5189213013020022,0.181186064825255,B,707.880700007081,Correct,sub_006_day_24_data.csv,1,542,,Button-Switch at home,,,,,,,,,,,,,d
6,24,727,A,63.01441725160093,86.69091997508939,3.1507208625800467,1.3617377866334075,A,1164.7141999565065,Correct,sub_006_day_24_data.csv,1,542,,Button-Switch at home,,,,,,,,,,,,,k
6,24,728,A,52.52862061587019,65.46299178924134,2.6264310307935097,1.0282902704354475,B,717.7231999812648,Incorrect,sub_006_day_24_data.csv,0,542,,Button-Switch at home,,,,,,,,,,,,,d
6,24,729,A,13.27402272471252,41.167074489614535,0.663701136235626,0.646650893931784,A,726.5758999856189,Correct,sub_006_day_24_data.csv,1,542,,Button-Switch at home,,,,,,,,,,,,,k
6,24,730,B,53.43249956202457,24.287535831792347,2.6716249781012285,0.3815077207147884,B,1256.258399982471,Correct,sub_006_day_24_data.csv,1,542,,Button-Switch at home,,,,,,,,,,,,,d
6,24,731,B,65.03290529675333,40.26412821570794,3.2516452648376664,0.6324674470283279,B,1260.5741000152193,Correct,sub_006_day_24_data.csv,1,542,,Button-Switch at home,,,,,,,,,,,,,d
6,24,732,A,55.88731868730849,69.89000357228468,2.794365934365425,1.0978296089102697,B,1563.0554999806918,Incorrect,sub_006_day_24_data.csv,0,542,,Button-Switch at home,,,,,,,,,,,,,d
6,24,733,B,53.14472496684471,23.465140845667374,2.657236248342236,0.368589570480992,B,1482.359199959319,Correct,sub_006_day_24_data.csv,1,542,,Button-Switch at home,,,,,,,,,,,,,d
6,24,734,A,20.04416734200359,32.37387779433728,1.0022083671001796,0.5085276832345186,A,1309.4145000213755,Correct,sub_006_day_24_data.csv,1,542,,Button-Switch at home,,,,,,,,,,,,,k
6,24,735,A,54.41113882833995,70.83178527576581,2.7205569414169974,1.1126230813149778,B,1599.283599993214,Incorrect,sub_006_day_24_data.csv,0,542,,Button-Switch at home,,,,,,,,,,,,,d
6,24,736,B,49.31767944036065,24.07529951667552,2.465883972018033,0.3781739204728085,B,649.9833000125363,Correct,sub_006_day_24_data.csv,1,542,,Button-Switch at home,,,,,,,,,,,,,d
6,24,737,A,67.19092731629988,84.4031697864209,3.3595463658149938,1.3258018907035596,A,1682.869300013408,Correct,sub_006_day_24_data.csv,1,542,,Button-Switch at home,,,,,,,,,,,,,k
6,24,738,B,54.11488729015309,29.64131988296981,2.7057443645076544,0.4656047639352151,B,979.8240999807604,Correct,sub_006_day_24_data.csv,1,542,,Button-Switch at home,,,,,,,,,,,,,d
6,24,739,B,54.93474446095242,37.80409321363742,2.7467372230476212,0.5938253075779354,B,699.7490000212565,Correct,sub_006_day_24_data.csv,1,542,,Button-Switch at home,,,,,,,,,,,,,d
6,24,740,A,54.83672784355179,68.22912736453175,2.7418363921775897,1.0717406264462763,B,1440.014699997846,Incorrect,sub_006_day_24_data.csv,0,542,,Button-Switch at home,,,,,,,,,,,,,d
6,24,741,B,87.99594410050346,65.5045642187394,4.399797205025173,1.0289432886309628,B,1519.4317000568844,Correct,sub_006_day_24_data.csv,1,542,,Button-Switch at home,,,,,,,,,,,,,d
6,24,742,B,64.20071624808509,49.71397857653497,3.2100358124042545,0.7809053493838131,B,1489.4105999846945,Correct,sub_006_day_24_data.csv,1,542,,Button-Switch at home,,,,,,,,,,,,,d
6,24,743,B,63.835210447051,42.36492874447539,3.19176052235255,0.6654667445674948,B,1461.055200023111,Correct,sub_006_day_24_data.csv,1,542,,Button-Switch at home,,,,,,,,,,,,,d
6,24,744,B,48.34519357844568,41.44293284568628,2.417259678922284,0.6509840668561159,B,703.6558999679983,Correct,sub_006_day_24_data.csv,1,542,,Button-Switch at home,,,,,,,,,,,,,d
6,24,745,B,48.324647927378386,38.77664415986616,2.4162323963689194,0.6091021021175054,B,619.7218000306748,Correct,sub_006_day_24_data.csv,1,542,,Button-Switch at home,,,,,,,,,,,,,d
6,24,746,A,56.859303822855864,78.62076490352283,2.842965191142793,1.2349720872025878,A,590.7701999531128,Correct,sub_006_day_24_data.csv,1,542,,Button-Switch at home,,,,,,,,,,,,,k
6,24,747,B,50.01051484254217,35.677309549082246,2.5005257421271083,0.5604178678962288,B,752.2287999745458,Correct,sub_006_day_24_data.csv,1,542,,Button-Switch at home,,,,,,,,,,,,,d
6,24,748,B,44.461435660542115,34.614679681850795,2.223071783027106,0.5437261169743317,B,768.5337000293657,Correct,sub_006_day_24_data.csv,1,542,,Button-Switch at home,,,,,,,,,,,,,d
6,24,749,B,82.6397137395004,66.49386449469095,4.131985686975019,1.044483181026581,B,692.827099992428,Correct,sub_006_day_24_data.csv,1,542,,Button-Switch at home,,,,,,,,,,,,,d
6,24,750,A,16.2648164853169,45.669381980153574,0.813240824265845,0.7173729746141828,A,1214.2845999915153,Correct,sub_006_day_24_data.csv,1,542,,Button-Switch at home,,,,,,,,,,,,,k
6,24,751,B,66.8374425179134,55.33732560033483,3.3418721258956703,0.8692366778765915,B,928.872800024692,Correct,sub_006_day_24_data.csv,1,542,,Button-Switch at home,,,,,,,,,,,,,d
6,24,752,B,59.64561940727051,50.09458120488905,2.982280970363526,0.7868838414896838,B,687.7897999947891,Correct,sub_006_day_24_data.csv,1,542,,Button-Switch at home,,,,,,,,,,,,,d
6,24,753,B,55.510904878741485,38.718516573589056,2.7755452439370742,0.6081890361274103,B,1128.9850999601183,Correct,sub_006_day_24_data.csv,1,542,,Button-Switch at home,,,,,,,,,,,,,d
6,24,754,B,54.16383975541916,47.155881860896095,2.708191987770958,0.7407228601386968,B,899.5690000010654,Correct,sub_006_day_24_data.csv,1,542,,Button-Switch at home,,,,,,,,,,,,,d
6,24,755,A,17.307553419040207,39.08131406812272,0.8653776709520103,0.6138878458452488,A,1319.5555999991484,Correct,sub_006_day_24_data.csv,1,542,,Button-Switch at home,,,,,,,,,,,,,k
6,24,756,A,32.94191058131536,47.04916671041838,1.6470955290657685,0.7390465824748593,A,1001.3249999610708,Correct,sub_006_day_24_data.csv,1,542,,Button-Switch at home,,,,,,,,,,,,,k
6,24,757,A,53.22517008845475,79.0525072264199,2.6612585044227375,1.241753879751874,A,769.7843000059947,Correct,sub_006_day_24_data.csv,1,542,,Button-Switch at home,,,,,,,,,,,,,k
6,24,758,B,40.20315444928072,25.215854273964897,2.0101577224640357,0.3960897127053944,B,1027.414299955126,Correct,sub_006_day_24_data.csv,1,542,,Button-Switch at home,,,,,,,,,,,,,d
6,24,759,A,58.673521727575334,82.07150871985446,2.933676086378767,1.2891762443166273,A,1374.96009998722,Correct,sub_006_day_24_data.csv,1,542,,Button-Switch at home,,,,,,,,,,,,,k
6,24,760,A,21.213652600084256,51.7589191027502,1.060682630004213,0.8130272000547419,A,1143.963199981954,Correct,sub_006_day_24_data.csv,1,542,,Button-Switch at home,,,,,,,,,,,,,k
6,24,761,B,33.04081898615841,11.521229139260631,1.6520409493079204,0.1809750441211293,B,1312.3219999833964,Correct,sub_006_day_24_data.csv,1,542,,Button-Switch at home,,,,,,,,,,,,,d
6,24,762,B,44.999965670888024,32.412005965493094,2.2499982835444015,0.5091265991465083,B,1974.545400007628,Correct,sub_006_day_24_data.csv,1,542,,Button-Switch at home,,,,,,,,,,,,,d
6,24,763,A,31.43300244771335,44.28589915143114,1.5716501223856676,0.6956412771587726,A,2087.1041999780573,Correct,sub_006_day_24_data.csv,1,542,,Button-Switch at home,,,,,,,,,,,,,k
6,24,764,A,14.240352473437458,36.7139392272761,0.7120176236718728,0.5767012088037636,A,1805.0079999957231,Correct,sub_006_day_24_data.csv,1,542,,Button-Switch at home,,,,,,,,,,,,,k
6,24,765,B,58.437718573908015,43.91269533378633,2.9218859286954006,0.6897790052997497,B,1301.160299975891,Correct,sub_006_day_24_data.csv,1,542,,Button-Switch at home,,,,,,,,,,,,,d
6,24,766,B,45.32036593752393,24.79334600320602,2.266018296876197,0.3894529683079095,B,772.9883000138216,Correct,sub_006_day_24_data.csv,1,542,,Button-Switch at home,,,,,,,,,,,,,d
6,24,767,B,63.338602301674875,45.323931722950526,3.1669301150837437,0.7119466546631338,B,2351.13480000291,Correct,sub_006_day_24_data.csv,1,542,,Button-Switch at home,,,,,,,,,,,,,d
6,24,768,B,71.51915667350247,39.91608086617542,3.575957833675123,0.627000332046364,B,770.5948999500833,Correct,sub_006_day_24_data.csv,1,542,,Button-Switch at home,,,,,,,,,,,,,d
6,24,769,B,53.90912709687203,25.75428455425083,2.6954563548436012,0.4045473557704773,B,701.177800016012,Correct,sub_006_day_24_data.csv,1,542,,Button-Switch at home,,,,,,,,,,,,,d
6,24,770,B,69.94711996580628,47.563234302852464,3.497355998290314,0.7471215373340567,B,646.0876000346616,Correct,sub_006_day_24_data.csv,1,542,,Button-Switch at home,,,,,,,,,,,,,d
6,24,771,A,12.352572474302388,34.27274856054997,0.6176286237151194,0.5383550754807698,A,674.9178000027314,Correct,sub_006_day_24_data.csv,1,542,,Button-Switch at home,,,,,,,,,,,,,k
6,24,772,A,32.57912936389129,60.34758758813659,1.6289564681945643,0.9479376891437824,A,981.052200018894,Correct,sub_006_day_24_data.csv,1,542,,Button-Switch at home,,,,,,,,,,,,,k
6,24,773,B,37.45246025017496,25.142104552299894,1.872623012508748,0.3949312547864592,B,1018.1604999816044,Correct,sub_006_day_24_data.csv,1,542,,Button-Switch at home,,,,,,,,,,,,,d
6,24,774,A,21.90933529639242,40.79327293148347,1.095466764819621,0.6407792327871592,A,676.6104999696836,Correct,sub_006_day_24_data.csv,1,542,,Button-Switch at home,,,,,,,,,,,,,k
6,24,775,B,79.6654206453251,61.64902088568763,3.983271032266255,0.9683805555773998,B,641.7315999860875,Correct,sub_006_day_24_data.csv,1,542,,Button-Switch at home,,,,,,,,,,,,,d
6,24,776,B,54.96893766879583,39.12356739387441,2.7484468834397915,0.6145515595341051,B,825.4388999775983,Correct,sub_006_day_24_data.csv,1,542,,Button-Switch at home,,,,,,,,,,,,,d
6,24,777,A,49.63176084245788,59.694534568061485,2.481588042122894,0.9376795562924196,A,718.1163000059314,Correct,sub_006_day_24_data.csv,1,542,,Button-Switch at home,,,,,,,,,,,,,k
6,24,778,B,47.5306424531953,28.40547524196287,2.376532122659765,0.4461921617093865,B,3135.3036999935284,Correct,sub_006_day_24_data.csv,1,542,,Button-Switch at home,,,,,,,,,,,,,d
6,24,779,A,15.945722568625406,43.94173785291423,0.7972861284312702,0.6902352041234193,A,785.7315000146627,Correct,sub_006_day_24_data.csv,1,542,,Button-Switch at home,,,,,,,,,,,,,k
6,24,780,A,37.91032381790929,65.55533253513842,1.8955161908954643,1.029740755480134,A,1189.6871000062674,Correct,sub_006_day_24_data.csv,1,542,,Button-Switch at home,,,,,,,,,,,,,k
6,24,781,A,61.204015920869175,75.2063322572803,3.0602007960434587,1.1813383046145245,A,1417.6671000313945,Correct,sub_006_day_24_data.csv,1,542,,Button-Switch at home,,,,,,,,,,,,,k
6,24,782,B,85.02259002308755,68.20636366255307,4.251129501154377,1.071383055051753,B,2220.6335999653675,Correct,sub_006_day_24_data.csv,1,542,,Button-Switch at home,,,,,,,,,,,,,d
6,24,783,A,33.74666503106487,54.33763649256365,1.6873332515532438,0.8535335980923531,A,1411.9223000016063,Correct,sub_006_day_24_data.csv,1,542,,Button-Switch at home,,,,,,,,,,,,,k
6,24,784,B,67.7917463077424,46.66847707540504,3.38958731538712,0.7330667236715807,B,2867.405599972699,Correct,sub_006_day_24_data.csv,1,542,,Button-Switch at home,,,,,,,,,,,,,d
6,24,785,B,86.31123992159974,59.28691718979307,4.315561996079987,0.931276717487202,B,1161.4766000420786,Correct,sub_006_day_24_data.csv,1,542,,Button-Switch at home,,,,,,,,,,,,,d
6,24,786,A,37.97768700374098,62.98361374289112,1.8988843501870492,0.9893442911560196,A,1942.7988000097685,Correct,sub_006_day_24_data.csv,1,542,,Button-Switch at home,,,,,,,,,,,,,k
6,24,787,A,43.862051425648986,61.06511417889482,2.1931025712824495,0.9592085704751891,A,1016.0244000144304,Correct,sub_006_day_24_data.csv,1,542,,Button-Switch at home,,,,,,,,,,,,,k
6,24,788,A,25.50607609485271,44.312008974885906,1.2753038047426355,0.6960514093065326,B,2282.029900001362,Incorrect,sub_006_day_24_data.csv,0,542,,Button-Switch at home,,,,,,,,,,,,,d
6,24,789,A,12.614008434563528,37.902571309340445,0.6307004217281764,0.595372197887936,A,1672.198100015521,Correct,sub_006_day_24_data.csv,1,542,,Button-Switch at home,,,,,,,,,,,,,k
6,24,790,A,62.28774160448046,74.54160190514926,3.1143870802240228,1.1708967446601592,A,5290.854800026864,Correct,sub_006_day_24_data.csv,1,542,,Button-Switch at home,,,,,,,,,,,,,k
6,24,791,B,80.13031023495593,65.16103344853357,4.006515511747796,1.0235471199111592,A,3092.4643999896944,Incorrect,sub_006_day_24_data.csv,0,542,,Button-Switch at home,,,,,,,,,,,,,k
6,24,792,B,81.18522826879216,55.898610309127406,4.059261413439608,0.8780533174651666,B,2055.879099993035,Correct,sub_006_day_24_data.csv,1,542,,Button-Switch at home,,,,,,,,,,,,,d
6,24,793,B,34.167900672349525,23.177671284650124,1.7083950336174762,0.3640740091758797,B,2385.8196000219323,Correct,sub_006_day_24_data.csv,1,542,,Button-Switch at home,,,,,,,,,,,,,d
6,24,794,B,41.17757999190752,16.28770043021419,2.058878999595376,0.2558466000771611,B,819.869699946139,Correct,sub_006_day_24_data.csv,1,542,,Button-Switch at home,,,,,,,,,,,,,d
6,24,795,B,68.13545783087575,41.47904941340093,3.4067728915437874,0.6515513845751418,B,649.800100014545,Correct,sub_006_day_24_data.csv,1,542,,Button-Switch at home,,,,,,,,,,,,,d
6,24,796,B,58.756963933044496,43.79680002333397,2.9378481966522245,0.6879585260202364,B,1019.7680999990552,Correct,sub_006_day_24_data.csv,1,542,,Button-Switch at home,,,,,,,,,,,,,d
6,24,797,A,67.32403948631796,87.80574328810935,3.3662019743158975,1.379249390284578,A,729.3200999847613,Correct,sub_006_day_24_data.csv,1,542,,Button-Switch at home,,,,,,,,,,,,,k
6,24,798,B,48.91077759295542,31.65279837663464,2.445538879647771,0.4972009942279716,B,696.7092999839224,Correct,sub_006_day_24_data.csv,1,542,,Button-Switch at home,,,,,,,,,,,,,d
6,24,799,B,85.99121662164269,58.85166537282531,4.299560831082135,0.924439797933964,B,976.1245000408962,Correct,sub_006_day_24_data.csv,1,542,,Button-Switch at home,,,,,,,,,,,,,d
6,24,800,B,55.48213445041649,38.42269102000769,2.7741067225208247,0.6035422191980333,B,770.477399986703,Correct,sub_006_day_24_data.csv,1,542,,Button-Switch at home,,,,,,,,,,,,,d
6,24,801,A,21.82243265933199,33.356160378691655,1.0911216329665996,0.5239573419883032,B,1413.7988000293262,Incorrect,sub_006_day_24_data.csv,0,542,,Button-Switch at home,,,,,,,,,,,,,d
6,24,802,B,50.64677767717989,26.60565002686503,2.532338883858994,0.4179205733419013,B,804.4964000000618,Correct,sub_006_day_24_data.csv,1,542,,Button-Switch at home,,,,,,,,,,,,,d
6,24,803,A,34.50384191436037,65.6504428912522,1.725192095718019,1.0312347454603707,A,733.3597999531776,Correct,sub_006_day_24_data.csv,1,542,,Button-Switch at home,,,,,,,,,,,,,k
6,24,804,B,43.456647663729065,17.400186699849684,2.1728323831864533,0.2733214935366929,B,825.7407000055537,Correct,sub_006_day_24_data.csv,1,542,,Button-Switch at home,,,,,,,,,,,,,d
6,24,805,B,80.5975237854741,51.96830942566874,4.029876189273705,0.8163162955558105,B,1103.587299992796,Correct,sub_006_day_24_data.csv,1,542,,Button-Switch at home,,,,,,,,,,,,,d
6,24,806,A,59.832793578751854,81.5799279093689,2.9916396789375925,1.2814545110022917,A,910.6972999870776,Correct,sub_006_day_24_data.csv,1,542,,Button-Switch at home,,,,,,,,,,,,,k
6,24,807,A,37.96651465842983,50.77827481306723,1.8983257329214915,0.7976232755734781,B,783.8808000087738,Incorrect,sub_006_day_24_data.csv,0,542,,Button-Switch at home,,,,,,,,,,,,,d
6,24,808,A,21.56177306011707,38.66882281529766,1.0780886530058535,0.6074084483975225,A,2726.060399960261,Correct,sub_006_day_24_data.csv,1,542,,Button-Switch at home,,,,,,,,,,,,,k
6,24,809,A,67.28533438860426,86.50868093081311,3.364266719430213,1.3588751824199294,A,4429.659700021148,Correct,sub_006_day_24_data.csv,1,542,,Button-Switch at home,,,,,,,,,,,,,k
6,24,810,B,52.425281974644115,28.44217575096675,2.6212640987322056,0.4467686519567346,B,1763.1263000075703,Correct,sub_006_day_24_data.csv,1,542,,Button-Switch at home,,,,,,,,,,,,,d
6,24,811,A,56.27770020240532,67.38867664349989,2.813885010120266,1.0585388573917869,B,1354.8928000382148,Incorrect,sub_006_day_24_data.csv,0,542,,Button-Switch at home,,,,,,,,,,,,,d
6,24,812,B,38.999068757375646,18.683246459368924,1.9499534378687824,0.2934757491098047,A,692.4389000050724,Incorrect,sub_006_day_24_data.csv,0,542,,Button-Switch at home,,,,,,,,,,,,,k
6,24,813,A,17.800170552384767,37.28277949566525,0.8900085276192384,0.5856365308449507,A,1310.438200016506,Correct,sub_006_day_24_data.csv,1,542,,Button-Switch at home,,,,,,,,,,,,,k
6,24,814,A,50.122900513577605,65.10891813877106,2.5061450256788804,1.022728494539712,B,896.5416999999434,Incorrect,sub_006_day_24_data.csv,0,542,,Button-Switch at home,,,,,,,,,,,,,d
6,24,815,B,85.83522205916744,58.96792781348381,4.291761102958372,0.9262660440812696,B,4750.965699960943,Correct,sub_006_day_24_data.csv,1,542,,Button-Switch at home,,,,,,,,,,,,,d
6,24,816,A,34.21616793895124,43.994827326649734,1.7108083969475618,0.6910691316267714,A,1023.248000012245,Correct,sub_006_day_24_data.csv,1,542,,Button-Switch at home,,,,,,,,,,,,,k
6,24,817,A,62.36431990435973,81.68444983169445,3.1182159952179864,1.2830963375188766,A,784.1088999994099,Correct,sub_006_day_24_data.csv,1,542,,Button-Switch at home,,,,,,,,,,,,,k
6,24,818,B,62.49726194485816,52.67208261064984,3.124863097242908,0.8273711388944611,B,1273.3203999814575,Correct,sub_006_day_24_data.csv,1,542,,Button-Switch at home,,,,,,,,,,,,,d
6,24,819,A,36.600640233738126,61.39408024708002,1.8300320116869064,0.964375957390644,A,1136.5317000309003,Correct,sub_006_day_24_data.csv,1,542,,Button-Switch at home,,,,,,,,,,,,,k
6,24,820,B,30.62585354065548,11.841566312879577,1.5312926770327742,0.1860068886776942,B,610.9274000045843,Correct,sub_006_day_24_data.csv,1,542,,Button-Switch at home,,,,,,,,,,,,,d
6,24,821,B,81.26129195173161,54.455429563528725,4.06306459758658,0.8553838873242913,B,1191.4872999768704,Correct,sub_006_day_24_data.csv,1,542,,Button-Switch at home,,,,,,,,,,,,,d
6,24,822,B,58.42023086896052,35.5220929751058,2.921011543448026,0.5579797316536299,B,555.205799988471,Correct,sub_006_day_24_data.csv,1,542,,Button-Switch at home,,,,,,,,,,,,,d
6,24,823,A,52.22654111679389,66.29423484013562,2.6113270558396944,1.041347405745633,A,1017.4466000171378,Correct,sub_006_day_24_data.csv,1,542,,Button-Switch at home,,,,,,,,,,,,,k
6,24,824,B,80.30234181676141,51.8269553350411,4.015117090838071,0.8140959106924572,B,875.1388000091538,Correct,sub_006_day_24_data.csv,1,542,,Button-Switch at home,,,,,,,,,,,,,d
6,24,825,B,78.87597308585312,55.64135361712383,3.943798654292656,0.8740123387967406,B,1116.194300004281,Correct,sub_006_day_24_data.csv,1,542,,Button-Switch at home,,,,,,,,,,,,,d
6,24,826,B,69.39030476693166,52.5031752003185,3.469515238346583,0.8247179474972921,B,1444.4460999802686,Correct,sub_006_day_24_data.csv,1,542,,Button-Switch at home,,,,,,,,,,,,,d
6,24,827,A,27.99319521657647,47.67963243855668,1.3996597608288237,0.7489499149741565,A,1360.9774999786168,Correct,sub_006_day_24_data.csv,1,542,,Button-Switch at home,,,,,,,,,,,,,k
6,24,828,A,29.39525468195776,42.75051354153214,1.469762734097888,0.6715234963963418,A,1146.510999999009,Correct,sub_006_day_24_data.csv,1,542,,Button-Switch at home,,,,,,,,,,,,,k
6,24,829,A,32.50090450522366,51.367184281942365,1.6250452252611831,0.8068738438787162,A,772.4079000181518,Correct,sub_006_day_24_data.csv,1,542,,Button-Switch at home,,,,,,,,,,,,,k
6,24,830,A,10.875752005693109,36.5937618858409,0.5437876002846554,0.5748134675388598,A,670.3090000082739,Correct,sub_006_day_24_data.csv,1,542,,Button-Switch at home,,,,,,,,,,,,,k
6,24,831,B,49.68294272085703,34.95130818982896,2.4841471360428513,0.5490138652125972,B,1338.441999978386,Correct,sub_006_day_24_data.csv,1,542,,Button-Switch at home,,,,,,,,,,,,,d
6,24,832,B,68.19043532971169,35.276545291019396,3.4095217664855846,0.5541226776514707,B,1361.5771000040695,Correct,sub_006_day_24_data.csv,1,542,,Button-Switch at home,,,,,,,,,,,,,d
6,24,833,A,40.62432364562829,69.3318754926275,2.0312161822814145,1.089062553536204,A,1382.853300019633,Correct,sub_006_day_24_data.csv,1,542,,Button-Switch at home,,,,,,,,,,,,,k
6,24,834,A,36.30187205394524,65.71875425036453,1.815093602697262,1.0323077777800909,A,760.6940999976359,Correct,sub_006_day_24_data.csv,1,542,,Button-Switch at home,,,,,,,,,,,,,k
6,24,835,B,47.16593754031496,24.48851872007119,2.358296877015748,0.3846647525413589,B,984.544399951119,Correct,sub_006_day_24_data.csv,1,542,,Button-Switch at home,,,,,,,,,,,,,d
6,24,836,A,37.63841650745152,54.8373037599624,1.881920825372576,0.8613823531748491,A,1233.863000001293,Correct,sub_006_day_24_data.csv,1,542,,Button-Switch at home,,,,,,,,,,,,,k
6,24,837,B,68.30651857025927,49.81535510784216,3.415325928512964,0.7824977682138186,B,1233.985600003507,Correct,sub_006_day_24_data.csv,1,542,,Button-Switch at home,,,,,,,,,,,,,d
6,24,838,A,57.03998158077688,72.80567938422962,2.851999079038844,1.1436289374655482,A,615.5985999503173,Correct,sub_006_day_24_data.csv,1,542,,Button-Switch at home,,,,,,,,,,,,,k
6,24,839,A,47.366541392589454,56.1111741738589,2.3683270696294727,0.8813922628444621,B,1576.9033000105992,Incorrect,sub_006_day_24_data.csv,0,542,,Button-Switch at home,,,,,,,,,,,,,d
6,24,840,B,73.70909825902388,41.777704534590114,3.685454912951194,0.6562426482485665,B,595.5541000002995,Correct,sub_006_day_24_data.csv,1,542,,Button-Switch at home,,,,,,,,,,,,,d
6,24,841,B,71.15502070345471,47.45025997392069,3.557751035172736,0.7453469407249751,B,829.8183999722824,Correct,sub_006_day_24_data.csv,1,542,,Button-Switch at home,,,,,,,,,,,,,d
6,24,842,A,29.66935638616161,45.50316083947765,1.4834678193080806,0.7147619790420887,A,1881.7778999800792,Correct,sub_006_day_24_data.csv,1,542,,Button-Switch at home,,,,,,,,,,,,,k
6,24,843,B,49.91500166491946,32.49714937687417,2.495750083245973,0.5104640287249901,B,1695.0533000053838,Correct,sub_006_day_24_data.csv,1,542,,Button-Switch at home,,,,,,,,,,,,,d
6,24,844,A,54.24073673830182,82.67123707169075,2.7120368369150913,1.298596755238019,A,1291.5457999915816,Correct,sub_006_day_24_data.csv,1,542,,Button-Switch at home,,,,,,,,,,,,,k
6,24,845,A,24.20299593868167,52.424170263338254,1.2101497969340835,0.8234769408492199,A,1137.496099981945,Correct,sub_006_day_24_data.csv,1,542,,Button-Switch at home,,,,,,,,,,,,,k
6,24,846,A,53.34036946617583,61.061335821739775,2.667018473308792,0.9591492201797848,A,2993.8585000345483,Correct,sub_006_day_24_data.csv,1,542,,Button-Switch at home,,,,,,,,,,,,,k
6,24,847,B,84.79409954944103,68.05471969935367,4.239704977472051,1.0690010372480103,A,2238.760199979879,Incorrect,sub_006_day_24_data.csv,0,542,,Button-Switch at home,,,,,,,,,,,,,k
6,24,848,A,43.48349349682387,54.75999486422097,2.1741746748411934,0.860167987880257,A,1650.0425999984143,Correct,sub_006_day_24_data.csv,1,542,,Button-Switch at home,,,,,,,,,,,,,k
6,24,849,B,35.50847526538821,17.505335940855396,1.7754237632694103,0.2749731739520634,B,659.1084000538103,Correct,sub_006_day_24_data.csv,1,542,,Button-Switch at home,,,,,,,,,,,,,d
6,24,850,A,52.96231203332383,70.06599525419662,2.648115601666192,1.1005940797852072,A,896.2705999729224,Correct,sub_006_day_24_data.csv,1,542,,Button-Switch at home,,,,,,,,,,,,,k
6,24,851,A,18.48353841707877,31.97939531955535,0.9241769208539384,0.5023311670107945,A,584.9536000168882,Correct,sub_006_day_24_data.csv,1,542,,Button-Switch at home,,,,,,,,,,,,,k
6,24,852,A,47.661081134391424,56.28943443614369,2.3830540567195713,0.8841923684965666,B,984.8907999694349,Incorrect,sub_006_day_24_data.csv,0,542,,Button-Switch at home,,,,,,,,,,,,,d
6,24,853,B,53.129499174710794,37.912428278518085,2.6564749587355396,0.5955270307977117,B,1283.846500038635,Correct,sub_006_day_24_data.csv,1,542,,Button-Switch at home,,,,,,,,,,,,,d
6,24,854,B,52.01375787139367,28.82026221447456,2.6006878935696833,0.452707620237624,B,1992.2432000166737,Correct,sub_006_day_24_data.csv,1,542,,Button-Switch at home,,,,,,,,,,,,,d
6,24,855,A,28.810949074039296,55.45657312694049,1.440547453701965,0.871109813644307,A,2779.920500004664,Correct,sub_006_day_24_data.csv,1,542,,Button-Switch at home,,,,,,,,,,,,,k
6,24,856,A,50.6904932719642,69.65910013792566,2.5345246635982104,1.094202586244915,A,2712.2133999946527,Correct,sub_006_day_24_data.csv,1,542,,Button-Switch at home,,,,,,,,,,,,,k
6,24,857,A,34.37555212997057,47.222354142494034,1.7187776064985285,0.7417670042963741,A,2038.375400006771,Correct,sub_006_day_24_data.csv,1,542,,Button-Switch at home,,,,,,,,,,,,,k
6,24,858,A,65.03186058216912,87.27282806555348,3.2515930291084554,1.3708783775437396,A,1178.8256000145338,Correct,sub_006_day_24_data.csv,1,542,,Button-Switch at home,,,,,,,,,,,,,k
6,24,859,A,48.32514557117603,62.95642274225264,2.4162572785588012,0.9889171759167714,A,1426.2080999906177,Correct,sub_006_day_24_data.csv,1,542,,Button-Switch at home,,,,,,,,,,,,,k
6,24,860,A,46.53515219027855,68.69842150216306,2.3267576095139275,1.0791122815220529,A,815.9023000043817,Correct,sub_006_day_24_data.csv,1,542,,Button-Switch at home,,,,,,,,,,,,,k
6,24,861,B,66.10230780140871,38.64104221542318,3.3051153900704353,0.6069720717551327,B,1100.9031000430696,Correct,sub_006_day_24_data.csv,1,542,,Button-Switch at home,,,,,,,,,,,,,d
6,24,862,B,81.5480519799686,68.295281951034,4.07740259899843,1.07277978026106,B,1613.400999980513,Correct,sub_006_day_24_data.csv,1,542,,Button-Switch at home,,,,,,,,,,,,,d
6,24,863,A,52.09103973741548,79.3940381944652,2.604551986870774,1.2471186356527963,A,783.5741000017151,Correct,sub_006_day_24_data.csv,1,542,,Button-Switch at home,,,,,,,,,,,,,k
6,24,864,B,56.66038288204033,36.38563992090936,2.8330191441020167,0.5715442953584617,B,927.6089000049978,Correct,sub_006_day_24_data.csv,1,542,,Button-Switch at home,,,,,,,,,,,,,d
6,24,865,A,45.80019129305571,59.01951078859649,2.290009564652786,0.9270763075595916,A,841.8384999968112,Correct,sub_006_day_24_data.csv,1,542,,Button-Switch at home,,,,,,,,,,,,,k
6,24,866,B,44.64563403503506,22.241505599853713,2.232281701751753,0.3493687529863833,B,652.5795999914408,Correct,sub_006_day_24_data.csv,1,542,,Button-Switch at home,,,,,,,,,,,,,d
6,24,867,B,59.00005709362035,33.138056499179974,2.9500028546810175,0.5205313742603365,B,812.7358999918215,Correct,sub_006_day_24_data.csv,1,542,,Button-Switch at home,,,,,,,,,,,,,d
6,24,868,A,56.09804231395327,82.78246090068319,2.8049021156976637,1.300343855058353,B,628.9396000211127,Incorrect,sub_006_day_24_data.csv,0,542,,Button-Switch at home,,,,,,,,,,,,,d
6,24,869,A,29.60438185770085,46.92156564603685,1.4802190928850425,0.737042229642603,A,1544.1119999741204,Correct,sub_006_day_24_data.csv,1,542,,Button-Switch at home,,,,,,,,,,,,,k
6,24,870,A,64.98401345688056,82.97393551634822,3.249200672844028,1.3033515312879638,A,1486.9987999554724,Correct,sub_006_day_24_data.csv,1,542,,Button-Switch at home,,,,,,,,,,,,,k
6,24,871,A,21.49005978004876,38.57562956453522,1.074502989002438,0.6059445722377255,A,1222.4986999644898,Correct,sub_006_day_24_data.csv,1,542,,Button-Switch at home,,,,,,,,,,,,,k
6,24,872,B,58.313739298411555,48.11183501044688,2.9156869649205777,0.7557389370977207,B,1830.0822000019252,Correct,sub_006_day_24_data.csv,1,542,,Button-Switch at home,,,,,,,,,,,,,d
6,24,873,A,42.198513502491856,65.24056088223207,2.1099256751245927,1.0247963339184898,A,1225.73539998848,Correct,sub_006_day_24_data.csv,1,542,,Button-Switch at home,,,,,,,,,,,,,k
6,24,874,A,22.6970725447194,48.13760892341165,1.1348536272359702,0.7561437927758425,A,1115.4957999824546,Correct,sub_006_day_24_data.csv,1,542,,Button-Switch at home,,,,,,,,,,,,,k
6,24,875,B,87.23458585305949,68.57482712099846,4.361729292652974,1.0771708655225944,B,3040.8892999985255,Correct,sub_006_day_24_data.csv,1,542,,Button-Switch at home,,,,,,,,,,,,,d
6,24,876,A,54.56555384959194,77.39802226956223,2.7282776924795975,1.2157652908221794,A,1517.4436999950558,Correct,sub_006_day_24_data.csv,1,542,,Button-Switch at home,,,,,,,,,,,,,k
6,24,877,A,13.16868705110748,35.79830105490417,0.658434352555374,0.5623183980254135,A,1114.239600021392,Correct,sub_006_day_24_data.csv,1,542,,Button-Switch at home,,,,,,,,,,,,,k
6,24,878,A,51.7717000036292,74.79428429893512,2.58858500018146,1.1748658704202048,A,1239.3803000450134,Correct,sub_006_day_24_data.csv,1,542,,Button-Switch at home,,,,,,,,,,,,,k
6,24,879,B,36.44125077922125,18.95785023051707,1.8220625389610623,0.29778921506024,B,1917.439499986358,Correct,sub_006_day_24_data.csv,1,542,,Button-Switch at home,,,,,,,,,,,,,d
6,24,880,A,28.27756073413821,58.4480831148499,1.4138780367069106,0.9181003426500904,A,2441.4424000424333,Correct,sub_006_day_24_data.csv,1,542,,Button-Switch at home,,,,,,,,,,,,,k
6,24,881,B,34.30981024824705,16.984325904149625,1.7154905124123525,0.2667891674332563,B,1240.8490999951027,Correct,sub_006_day_24_data.csv,1,542,,Button-Switch at home,,,,,,,,,,,,,d
6,24,882,B,57.57790231478642,33.756652643566845,2.878895115739321,0.5302482597740603,B,1128.3820000244305,Correct,sub_006_day_24_data.csv,1,542,,Button-Switch at home,,,,,,,,,,,,,d
6,24,883,A,58.90570585813886,84.96106258432825,2.945285292906943,1.3345652502805412,A,1515.9754999913275,Correct,sub_006_day_24_data.csv,1,542,,Button-Switch at home,,,,,,,,,,,,,k
6,24,884,B,69.40494949124889,37.46516186448193,3.470247474562444,0.5885013863950446,B,911.2682000268252,Correct,sub_006_day_24_data.csv,1,542,,Button-Switch at home,,,,,,,,,,,,,d
6,24,885,B,77.2957767752576,61.87020695582489,3.864788838762879,0.971854938242498,B,2005.3946999832988,Correct,sub_006_day_24_data.csv,1,542,,Button-Switch at home,,,,,,,,,,,,,d
6,24,886,B,43.22226806162231,28.645313986030743,2.161113403081115,0.4499595398914357,B,1348.780700005591,Correct,sub_006_day_24_data.csv,1,542,,Button-Switch at home,,,,,,,,,,,,,d
6,24,887,A,53.59098493427896,61.21529529902134,2.679549246713948,0.9615676099936762,B,1363.6503999587148,Incorrect,sub_006_day_24_data.csv,0,542,,Button-Switch at home,,,,,,,,,,,,,d
6,24,888,B,66.29194056670326,35.67702239842095,3.314597028335163,0.560413357344189,B,1110.359099984635,Correct,sub_006_day_24_data.csv,1,542,,Button-Switch at home,,,,,,,,,,,,,d
6,24,889,B,79.21754996303576,57.5719439712408,3.960877498151788,0.9043379811646666,B,1280.1118000061251,Correct,sub_006_day_24_data.csv,1,542,,Button-Switch at home,,,,,,,,,,,,,d
6,24,890,A,30.25879760107638,59.52343383349754,1.512939880053819,0.93499191223877,A,1349.23599998001,Correct,sub_006_day_24_data.csv,1,542,,Button-Switch at home,,,,,,,,,,,,,k
6,24,891,A,27.231533097882732,37.45791570040807,1.3615766548941366,0.5883875639159388,A,878.7804999738,Correct,sub_006_day_24_data.csv,1,542,,Button-Switch at home,,,,,,,,,,,,,k
6,24,892,B,58.92610858927922,36.63963294356382,2.946305429463961,0.5755340084286332,B,1289.2005000030622,Correct,sub_006_day_24_data.csv,1,542,,Button-Switch at home,,,,,,,,,,,,,d
6,24,893,A,21.77748939669839,46.22315902894178,1.088874469834919,0.726071684155181,A,1259.6005000523292,Correct,sub_006_day_24_data.csv,1,542,,Button-Switch at home,,,,,,,,,,,,,k
6,24,894,A,60.22988266753882,70.40530297900587,3.011494133376941,1.105923913063042,A,1197.2771000000648,Correct,sub_006_day_24_data.csv,1,542,,Button-Switch at home,,,,,,,,,,,,,k
6,24,895,A,14.972113092998406,32.21540468616512,0.7486056546499202,0.5060383934723928,A,683.9412999688648,Correct,sub_006_day_24_data.csv,1,542,,Button-Switch at home,,,,,,,,,,,,,k
6,24,896,B,72.4072325010805,42.21367178397963,3.620361625054025,0.6630908057880057,B,1099.006099975668,Correct,sub_006_day_24_data.csv,1,542,,Button-Switch at home,,,,,,,,,,,,,d
6,24,897,A,65.507112237635,87.67201844359805,3.27535561188175,1.3771488453389824,A,1008.5113000241108,Correct,sub_006_day_24_data.csv,1,542,,Button-Switch at home,,,,,,,,,,,,,k
6,24,898,B,48.17612770521243,39.99146602056755,2.4088063852606214,0.6281844792825043,B,2128.384699986782,Correct,sub_006_day_24_data.csv,1,542,,Button-Switch at home,,,,,,,,,,,,,d
6,24,899,B,50.705161484446485,29.149092790850972,2.535258074222324,0.4578728788527231,B,1018.9866999862716,Correct,sub_006_day_24_data.csv,1,542,,Button-Switch at home,,,,,,,,,,,,,d
6,24,900,B,74.19083509441717,42.8966285477747,3.709541754720858,0.673818665547296,B,1239.1992000048049,Correct,sub_006_day_24_data.csv,1,542,,Button-Switch at home,,,,,,,,,,,,,d
6,24,901,B,60.2151989359072,44.42282182455889,3.01075994679536,0.6977920534788126,B,3539.3452999996953,Correct,sub_006_day_24_data.csv,1,542,,Button-Switch at home,,,,,,,,,,,,,d
6,24,902,B,50.83988150901024,36.93291090970824,2.541994075450512,0.5801408079481286,B,732.3498000041582,Correct,sub_006_day_24_data.csv,1,542,,Button-Switch at home,,,,,,,,,,,,,d
6,24,903,B,40.8706176310673,21.72353451427191,2.0435308815533646,0.3412324822002047,B,892.4276999896392,Correct,sub_006_day_24_data.csv,1,542,,Button-Switch at home,,,,,,,,,,,,,d
6,24,904,A,68.99372378668374,82.91771091715259,3.4496861893341872,1.302468357349044,A,1599.3453999981284,Correct,sub_006_day_24_data.csv,1,542,,Button-Switch at home,,,,,,,,,,,,,k
6,24,905,B,74.00019141674589,41.95140009907354,3.700009570837295,0.6589710517952777,B,721.0993000189774,Correct,sub_006_day_24_data.csv,1,542,,Button-Switch at home,,,,,,,,,,,,,d
6,24,906,B,48.331623887353885,39.638755838576785,2.4165811943676943,0.6226441206995618,B,691.5067000081763,Correct,sub_006_day_24_data.csv,1,542,,Button-Switch at home,,,,,,,,,,,,,d
6,24,907,A,41.18602313679817,65.46092939445695,2.059301156839908,1.0282578744139306,A,1225.3634000080638,Correct,sub_006_day_24_data.csv,1,542,,Button-Switch at home,,,,,,,,,,,,,k
6,24,908,B,76.23275875086952,65.30028057703768,3.811637937543476,1.0257344086908693,B,866.8275000527501,Correct,sub_006_day_24_data.csv,1,542,,Button-Switch at home,,,,,,,,,,,,,d
6,24,909,A,21.51856204343782,45.96641264962731,1.0759281021718912,0.7220387214597305,A,1433.6707000038589,Correct,sub_006_day_24_data.csv,1,542,,Button-Switch at home,,,,,,,,,,,,,k
6,24,910,B,75.68639253400394,49.14154027297281,3.7843196267001975,0.7719135095382919,B,635.7801000121981,Correct,sub_006_day_24_data.csv,1,542,,Button-Switch at home,,,,,,,,,,,,,d
6,24,911,A,48.90538365791102,75.3277255838534,2.445269182895551,1.1832451465293088,A,784.0702999965288,Correct,sub_006_day_24_data.csv,1,542,,Button-Switch at home,,,,,,,,,,,,,k
6,24,912,B,83.09537094183383,66.93240110169523,4.154768547091692,1.0513716979410557,B,761.6630000411533,Correct,sub_006_day_24_data.csv,1,542,,Button-Switch at home,,,,,,,,,,,,,d
6,24,913,B,76.47554258945901,60.369804911855304,3.8237771294729503,0.9482866780486682,B,2538.9235999900848,Correct,sub_006_day_24_data.csv,1,542,,Button-Switch at home,,,,,,,,,,,,,d
6,24,914,A,36.67012705492165,53.813739717997905,1.8335063527460824,0.8453042468012772,A,946.1192000308074,Correct,sub_006_day_24_data.csv,1,542,,Button-Switch at home,,,,,,,,,,,,,k
6,24,915,B,77.08531570502979,50.80960952243147,3.854265785251489,0.7981154800371836,B,1216.718400013633,Correct,sub_006_day_24_data.csv,1,542,,Button-Switch at home,,,,,,,,,,,,,d
6,24,916,B,42.13654264252053,19.73075128629279,2.106827132126026,0.3099299164541239,B,2065.720100014005,Correct,sub_006_day_24_data.csv,1,542,,Button-Switch at home,,,,,,,,,,,,,d
6,24,917,A,49.0887042498338,59.57678343854957,2.45443521249169,0.935829925875287,A,1445.6124000134878,Correct,sub_006_day_24_data.csv,1,542,,Button-Switch at home,,,,,,,,,,,,,k
6,24,918,B,81.15069104810075,57.35861094112261,4.057534552405038,0.9009869537637296,B,1332.458199991379,Correct,sub_006_day_24_data.csv,1,542,,Button-Switch at home,,,,,,,,,,,,,d
6,24,919,B,78.19182030417574,48.06675744204418,3.909591015208787,0.7550308603090425,A,882.9589000088163,Incorrect,sub_006_day_24_data.csv,0,542,,Button-Switch at home,,,,,,,,,,,,,k
6,24,920,A,47.27861549680445,59.1890756157632,2.363930774840222,0.9297398256362622,A,1295.686499972362,Correct,sub_006_day_24_data.csv,1,542,,Button-Switch at home,,,,,,,,,,,,,k
6,24,921,A,17.997416570385543,43.86949983868564,0.8998708285192771,0.6891004920493671,A,893.492300005164,Correct,sub_006_day_24_data.csv,1,542,,Button-Switch at home,,,,,,,,,,,,,k
6,24,922,A,46.81298242476677,65.85239332010154,2.3406491212383385,1.0344069753786829,A,822.0794999506325,Correct,sub_006_day_24_data.csv,1,542,,Button-Switch at home,,,,,,,,,,,,,k
6,24,923,A,33.35272783835626,63.54083096704552,1.667636391917813,0.9980970388453052,A,814.0171999693848,Correct,sub_006_day_24_data.csv,1,542,,Button-Switch at home,,,,,,,,,,,,,k
6,24,924,B,87.5404157110327,60.03698975520815,4.377020785551634,0.943058829793038,B,749.0650999825448,Correct,sub_006_day_24_data.csv,1,542,,Button-Switch at home,,,,,,,,,,,,,d
6,24,925,B,35.63094131064972,13.969679554400416,1.781547065532486,0.2194352133055394,B,3521.9828999834135,Correct,sub_006_day_24_data.csv,1,542,,Button-Switch at home,,,,,,,,,,,,,d
6,24,926,B,82.01904903649621,62.91197331826383,4.100952451824811,0.9882189659974736,B,1991.9812000007369,Correct,sub_006_day_24_data.csv,1,542,,Button-Switch at home,,,,,,,,,,,,,d
6,24,927,B,52.96912751141425,26.005587436261273,2.6484563755707127,0.4084948122102271,B,1391.545100021176,Correct,sub_006_day_24_data.csv,1,542,,Button-Switch at home,,,,,,,,,,,,,d
6,24,928,B,47.685529986806856,30.63765345282851,2.3842764993403427,0.48125513505318,B,1198.456999962218,Correct,sub_006_day_24_data.csv,1,542,,Button-Switch at home,,,,,,,,,,,,,d
6,24,929,A,45.173296048905875,67.81554779621938,2.2586648024452938,1.0652441337788514,A,1141.1746999947354,Correct,sub_006_day_24_data.csv,1,542,,Button-Switch at home,,,,,,,,,,,,,k
6,24,930,B,65.21178613749389,54.66893706728554,3.2605893068746945,0.858737655350735,B,1436.7227000184355,Correct,sub_006_day_24_data.csv,1,542,,Button-Switch at home,,,,,,,,,,,,,d
6,24,931,A,34.18841640984987,65.39941239896875,1.7094208204924937,1.027291567708447,A,1596.3253999943845,Correct,sub_006_day_24_data.csv,1,542,,Button-Switch at home,,,,,,,,,,,,,k
6,24,932,A,26.809723470411093,56.39789952139264,1.3404861735205549,0.8858961340715121,A,733.4525000187568,Correct,sub_006_day_24_data.csv,1,542,,Button-Switch at home,,,,,,,,,,,,,k
6,24,933,B,51.48240286297267,25.62776419184265,2.5741201431486336,0.4025599785651222,B,951.4208000036888,Correct,sub_006_day_24_data.csv,1,542,,Button-Switch at home,,,,,,,,,,,,,d
6,24,934,A,57.757882186637566,67.24755735007037,2.887894109331878,1.0563221607141968,B,1476.343500020448,Incorrect,sub_006_day_24_data.csv,0,542,,Button-Switch at home,,,,,,,,,,,,,d
6,24,935,A,48.268089878128386,62.97861926236502,2.413404493906419,0.9892658380393728,B,364.4637000397779,Incorrect,sub_006_day_24_data.csv,0,542,,Button-Switch at home,,,,,,,,,,,,,d
6,24,936,B,69.04556526752009,49.045924771214736,3.4522782633760043,0.7704115847488293,B,2068.4947000117972,Correct,sub_006_day_24_data.csv,1,542,,Button-Switch at home,,,,,,,,,,,,,d
6,24,937,B,53.062012963544475,35.99218053897239,2.6531006481772237,0.565363849839566,B,758.5813000332564,Correct,sub_006_day_24_data.csv,1,542,,Button-Switch at home,,,,,,,,,,,,,d
6,24,938,B,38.79311156267502,24.79729808647192,1.9396555781337512,0.389515047486682,B,2631.6240999731235,Correct,sub_006_day_24_data.csv,1,542,,Button-Switch at home,,,,,,,,,,,,,d
6,24,939,B,56.86891716944547,32.52552247430826,2.8434458584722733,0.5109097122972827,B,803.4495000028983,Correct,sub_006_day_24_data.csv,1,542,,Button-Switch at home,,,,,,,,,,,,,d
6,24,940,A,22.07225407652801,50.74761658340291,1.1036127038264003,0.7971416972280508,A,3222.8379999869503,Correct,sub_006_day_24_data.csv,1,542,,Button-Switch at home,,,,,,,,,,,,,k
6,24,941,A,35.5210124459081,55.09611788102715,1.776050622295405,0.8654477958817607,A,1437.725500029046,Correct,sub_006_day_24_data.csv,1,542,,Button-Switch at home,,,,,,,,,,,,,k
6,24,942,A,20.230147405342287,35.595901597217264,1.0115073702671142,0.5591391147786147,A,4537.824900005944,Correct,sub_006_day_24_data.csv,1,542,,Button-Switch at home,,,,,,,,,,,,,k
6,24,943,B,79.6032107925256,48.491936668718886,3.98016053962628,0.7617095599839436,B,1355.4643000243232,Correct,sub_006_day_24_data.csv,1,542,,Button-Switch at home,,,,,,,,,,,,,d
6,24,944,B,36.20946298869309,20.937099806119143,1.8104731494346544,0.3288791946919009,B,1217.4707000376657,Correct,sub_006_day_24_data.csv,1,542,,Button-Switch at home,,,,,,,,,,,,,d
6,24,945,B,57.287245290054095,37.11054736571545,2.8643622645027045,0.5829311148741385,B,813.9509999891743,Correct,sub_006_day_24_data.csv,1,542,,Button-Switch at home,,,,,,,,,,,,,d
6,24,946,B,74.8540271000224,55.91365736602723,3.74270135500112,0.8782896760822397,B,3290.100000042002,Correct,sub_006_day_24_data.csv,1,542,,Button-Switch at home,,,,,,,,,,,,,d
6,24,947,B,71.25463888516882,41.620680702776866,3.5627319442584406,0.6537761236662514,B,1364.0318000107072,Correct,sub_006_day_24_data.csv,1,542,,Button-Switch at home,,,,,,,,,,,,,d
6,24,948,B,84.3615426464473,64.76298251828865,4.218077132322366,1.0172945505200992,B,867.3373999772593,Correct,sub_006_day_24_data.csv,1,542,,Button-Switch at home,,,,,,,,,,,,,d
6,24,949,A,38.838269326463184,46.66847895792322,1.9419134663231592,0.7330667532421071,B,929.6280000125988,Incorrect,sub_006_day_24_data.csv,0,542,,Button-Switch at home,,,,,,,,,,,,,d
6,24,950,B,76.47523316874164,62.326172719571986,3.823761658437082,0.9790172317108796,B,5278.940199990757,Correct,sub_006_day_24_data.csv,1,542,,Button-Switch at home,,,,,,,,,,,,,d
6,24,951,A,13.745376565937413,39.75120449416564,0.6872688282968707,0.6244104600510817,A,766.0450999974273,Correct,sub_006_day_24_data.csv,1,542,,Button-Switch at home,,,,,,,,,,,,,k
6,24,952,B,79.98630706327532,55.43924501537344,3.999315353163766,0.8708376243043089,B,902.1768000093288,Correct,sub_006_day_24_data.csv,1,542,,Button-Switch at home,,,,,,,,,,,,,d
6,24,953,A,18.36579365632291,33.96717466345743,0.9182896828161456,0.533555131929596,A,2051.334199961275,Correct,sub_006_day_24_data.csv,1,542,,Button-Switch at home,,,,,,,,,,,,,k
6,24,954,A,37.351113180649904,61.10420178591277,1.867555659032495,0.9598225571704594,A,1182.3649000143632,Correct,sub_006_day_24_data.csv,1,542,,Button-Switch at home,,,,,,,,,,,,,k
6,24,955,B,64.13170423166889,42.290797883780954,3.206585211583445,0.6643022997306851,B,2552.837499999441,Correct,sub_006_day_24_data.csv,1,542,,Button-Switch at home,,,,,,,,,,,,,d
6,24,956,B,71.338885164357,59.36500663444929,3.56694425821785,0.932503343615476,B,2141.927000018768,Correct,sub_006_day_24_data.csv,1,542,,Button-Switch at home,,,,,,,,,,,,,d
6,24,957,A,31.92260524962278,53.19526655169141,1.5961302624811389,0.8355892930227228,A,1293.8183000078425,Correct,sub_006_day_24_data.csv,1,542,,Button-Switch at home,,,,,,,,,,,,,k
6,24,958,B,80.85244556230445,49.54001735366573,4.042622278115223,0.7781727728849357,B,1209.2639000038616,Correct,sub_006_day_24_data.csv,1,542,,Button-Switch at home,,,,,,,,,,,,,d
6,24,959,A,23.14879078334991,41.64015877682584,1.1574395391674954,0.6540820845379431,B,968.3050999883562,Incorrect,sub_006_day_24_data.csv,0,542,,Button-Switch at home,,,,,,,,,,,,,d
6,24,960,B,49.70520896874396,24.95611721592785,2.485260448437198,0.3920097725384235,B,933.8896999834104,Correct,sub_006_day_24_data.csv,1,542,,Button-Switch at home,,,,,,,,,,,,,d
6,24,961,B,62.53697665286085,44.115874172779954,3.1268488326430424,0.6929705310394859,B,2355.5511999875307,Correct,sub_006_day_24_data.csv,1,542,,Button-Switch at home,,,,,,,,,,,,,d
6,24,962,A,37.50278281170765,63.13395062173325,1.8751391405853823,0.9917057773266896,A,1409.812800004147,Correct,sub_006_day_24_data.csv,1,542,,Button-Switch at home,,,,,,,,,,,,,k
6,24,963,A,44.67433044570633,51.462986904032455,2.2337165222853166,0.8083787079474806,B,905.4314999957568,Incorrect,sub_006_day_24_data.csv,0,542,,Button-Switch at home,,,,,,,,,,,,,d
6,24,964,B,53.711198752518925,36.900920407355294,2.6855599376259467,0.5796383023122453,B,3077.5519000017084,Correct,sub_006_day_24_data.csv,1,542,,Button-Switch at home,,,,,,,,,,,,,d
6,24,965,B,85.3174634148605,69.53699645065252,4.265873170743025,1.0922845860103474,B,2898.524800024461,Correct,sub_006_day_24_data.csv,1,542,,Button-Switch at home,,,,,,,,,,,,,d
6,24,966,B,76.19427600328152,54.17192966368238,3.809713800164076,0.8509306813110377,B,964.0901999664492,Correct,sub_006_day_24_data.csv,1,542,,Button-Switch at home,,,,,,,,,,,,,d
6,24,967,B,52.17291401712546,31.4290724870848,2.608645700856273,0.4936867161728334,B,1991.1449999781323,Correct,sub_006_day_24_data.csv,1,542,,Button-Switch at home,,,,,,,,,,,,,d
6,24,968,B,39.205578646190475,21.753557385686737,1.960278932309524,0.3417040803615872,B,2324.276999977883,Correct,sub_006_day_24_data.csv,1,542,,Button-Switch at home,,,,,,,,,,,,,d
6,24,969,B,52.18496061599919,32.69758511123283,2.6092480307999595,0.5136124658778803,B,956.140999973286,Correct,sub_006_day_24_data.csv,1,542,,Button-Switch at home,,,,,,,,,,,,,d
6,24,970,A,45.01885829321072,72.97478252779833,2.250942914660536,1.1462852034332205,B,1136.6091999807395,Incorrect,sub_006_day_24_data.csv,0,542,,Button-Switch at home,,,,,,,,,,,,,d
6,24,971,B,37.77268133820029,14.437357332082373,1.8886340669100148,0.2267814786586035,B,1022.3631000262684,Correct,sub_006_day_24_data.csv,1,542,,Button-Switch at home,,,,,,,,,,,,,d
6,24,972,A,52.52463959509592,60.10955122137453,2.6262319797547957,0.944198622638248,A,1115.2706000139003,Correct,sub_006_day_24_data.csv,1,542,,Button-Switch at home,,,,,,,,,,,,,k
6,24,973,A,31.58487679694234,50.16314249139965,1.5792438398471171,0.7879607996597956,B,3455.3425000049174,Incorrect,sub_006_day_24_data.csv,0,542,,Button-Switch at home,,,,,,,,,,,,,d
6,24,974,A,37.89881412520173,49.838392490128015,1.8949407062600867,0.7828596385685545,B,2666.907600010745,Incorrect,sub_006_day_24_data.csv,0,542,,Button-Switch at home,,,,,,,,,,,,,d
6,24,975,A,50.055940844615904,59.55768824684285,2.5027970422307955,0.9355299793053632,B,1937.2146999812685,Incorrect,sub_006_day_24_data.csv,0,542,,Button-Switch at home,,,,,,,,,,,,,d
6,24,976,B,56.96338575267759,47.922644251211025,2.8481692876338793,0.7527671356010084,A,1396.9161999993958,Incorrect,sub_006_day_24_data.csv,0,542,,Button-Switch at home,,,,,,,,,,,,,k
6,24,977,B,85.57962910521444,58.732092765155755,4.278981455260722,0.9225615558048376,B,909.9284000112676,Correct,sub_006_day_24_data.csv,1,542,,Button-Switch at home,,,,,,,,,,,,,d
6,24,978,B,72.50972419295755,47.52956307329025,3.6254862096478777,0.7465926308969068,B,1045.767099945806,Correct,sub_006_day_24_data.csv,1,542,,Button-Switch at home,,,,,,,,,,,,,d
6,24,979,A,60.21281755039446,70.46819609622469,3.010640877519723,1.106911835838122,B,1824.8228000011295,Incorrect,sub_006_day_24_data.csv,0,542,,Button-Switch at home,,,,,,,,,,,,,d
6,24,980,A,67.61032557705332,85.51574013637013,3.380516278852666,1.3432781048935711,A,2014.07219999237,Correct,sub_006_day_24_data.csv,1,542,,Button-Switch at home,,,,,,,,,,,,,k
6,24,981,B,53.15555879666857,42.50143370255415,2.6577779398334287,0.6676109594348888,B,1172.1637999871746,Correct,sub_006_day_24_data.csv,1,542,,Button-Switch at home,,,,,,,,,,,,,d
6,24,982,A,49.525583860628124,70.81670281673378,2.4762791930314063,1.1123861666025123,B,1550.8428000030108,Incorrect,sub_006_day_24_data.csv,0,542,,Button-Switch at home,,,,,,,,,,,,,d
6,24,983,A,33.05926336114703,46.31601707653273,1.6529631680573516,0.7275302949558731,B,955.5521000293083,Incorrect,sub_006_day_24_data.csv,0,542,,Button-Switch at home,,,,,,,,,,,,,d
6,24,984,A,61.05635819781489,73.99793675070326,3.0528179098907446,1.1623568723840576,B,2188.6421000235714,Incorrect,sub_006_day_24_data.csv,0,542,,Button-Switch at home,,,,,,,,,,,,,d
6,24,985,A,22.47888108305085,35.80469508072915,1.1239440541525425,0.5624188351482065,B,1306.062199990265,Incorrect,sub_006_day_24_data.csv,0,542,,Button-Switch at home,,,,,,,,,,,,,d
6,24,986,A,29.2510239669297,48.2391197301808,1.462551198346485,0.7577383207998724,A,1004.7485000104645,Correct,sub_006_day_24_data.csv,1,542,,Button-Switch at home,,,,,,,,,,,,,k
6,24,987,B,43.865087495866035,25.21635398935874,2.1932543747933018,0.3960975622164454,B,1463.3640999672934,Correct,sub_006_day_24_data.csv,1,542,,Button-Switch at home,,,,,,,,,,,,,d
6,24,988,A,27.07459450798099,46.335536867207416,1.3537297253990497,0.7278369111107892,A,1312.00939998962,Correct,sub_006_day_24_data.csv,1,542,,Button-Switch at home,,,,,,,,,,,,,k
6,24,989,B,33.905742762950275,14.127875191407334,1.6952871381475136,0.2219201445607938,B,788.8423000113107,Correct,sub_006_day_24_data.csv,1,542,,Button-Switch at home,,,,,,,,,,,,,d
6,24,990,A,65.21148374381465,79.2195856944485,3.2605741871907328,1.2443783421905323,A,1542.2743000090122,Correct,sub_006_day_24_data.csv,1,542,,Button-Switch at home,,,,,,,,,,,,,k
6,24,991,B,51.80620303350389,32.59083984838683,2.5903101516751947,0.5119357152100678,B,734.7078999737278,Correct,sub_006_day_24_data.csv,1,542,,Button-Switch at home,,,,,,,,,,,,,d
6,24,992,B,47.53285696363182,20.54045262060766,2.376642848181591,0.3226486752715512,B,1205.0754000083543,Correct,sub_006_day_24_data.csv,1,542,,Button-Switch at home,,,,,,,,,,,,,d
6,24,993,B,81.05247351775257,52.54812240516246,4.052623675887628,0.8254239765399779,B,1591.9540000031702,Correct,sub_006_day_24_data.csv,1,542,,Button-Switch at home,,,,,,,,,,,,,d
6,24,994,A,24.638099936824453,37.15113503687553,1.2319049968412228,0.5835686645218526,B,1784.2330999555998,Incorrect,sub_006_day_24_data.csv,0,542,,Button-Switch at home,,,,,,,,,,,,,d
6,24,995,B,50.4140124448491,38.24633264953149,2.520700622242455,0.6007719883925978,B,2968.551900004968,Correct,sub_006_day_24_data.csv,1,542,,Button-Switch at home,,,,,,,,,,,,,d
6,24,996,A,56.47800871179612,79.00979754219038,2.823900435589806,1.241082997600811,A,2147.9846000438556,Correct,sub_006_day_24_data.csv,1,542,,Button-Switch at home,,,,,,,,,,,,,k
6,24,997,B,68.66550623250902,37.18851019478747,3.433275311625451,0.5841557521294674,A,4022.356499976013,Incorrect,sub_006_day_24_data.csv,0,542,,Button-Switch at home,,,,,,,,,,,,,k
6,24,998,A,34.38013592681553,67.17851866072127,1.7190067963407762,1.0552377035178335,A,493.2487000478432,Correct,sub_006_day_24_data.csv,1,542,,Button-Switch at home,,,,,,,,,,,,,k
6,24,999,B,62.95850748040429,47.96342459865005,3.1479253740202147,0.7534077118006349,A,2935.897700022906,Incorrect,sub_006_day_24_data.csv,0,542,,Button-Switch at home,,,,,,,,,,,,,k
6,24,1000,A,53.12721279349738,83.09813303315696,2.656360639674869,1.3053024213199662,A,952.212399977725,Correct,sub_006_day_24_data.csv,1,542,,Button-Switch at home,,,,,,,,,,,,,k
6,24,1001,B,53.28109347637322,32.72245893087484,2.664054673818661,0.5140031829231506,B,736.906000005547,Correct,sub_006_day_24_data.csv,1,542,,Button-Switch at home,,,,,,,,,,,,,d
6,24,1002,B,68.35273472808345,37.29420581977933,3.417636736404172,0.5858160151244222,B,906.5316999913192,Correct,sub_006_day_24_data.csv,1,542,,Button-Switch at home,,,,,,,,,,,,,d
6,24,1003,A,45.188551885006845,59.74218147395423,2.2594275942503423,0.9384279921400144,A,1166.6521999868564,Correct,sub_006_day_24_data.csv,1,542,,Button-Switch at home,,,,,,,,,,,,,k
6,24,1004,B,72.36585580550788,53.66091623381248,3.618292790275394,0.8429037011252128,B,821.965100010857,Correct,sub_006_day_24_data.csv,1,542,,Button-Switch at home,,,,,,,,,,,,,d
6,24,1005,A,20.11483062534897,44.374950276706954,1.0057415312674485,0.6970400889635745,A,1276.3101000455208,Correct,sub_006_day_24_data.csv,1,542,,Button-Switch at home,,,,,,,,,,,,,k
6,24,1006,A,55.42655254046704,69.58367379926558,2.771327627023352,1.0930177920878066,B,1168.4748000116087,Incorrect,sub_006_day_24_data.csv,0,542,,Button-Switch at home,,,,,,,,,,,,,d
6,24,1007,A,47.087046080056425,69.70436839828704,2.3543523040028216,1.0949136584158756,A,898.3695000060834,Correct,sub_006_day_24_data.csv,1,542,,Button-Switch at home,,,,,,,,,,,,,k
6,24,1008,A,22.084445237096503,37.02976691013643,1.1042222618548252,0.581662218445135,A,1198.1529000331648,Correct,sub_006_day_24_data.csv,1,542,,Button-Switch at home,,,,,,,,,,,,,k
6,24,1009,A,34.16902051584327,49.247608226001766,1.7084510257921637,0.7735796210483771,A,1202.1042999695055,Correct,sub_006_day_24_data.csv,1,542,,Button-Switch at home,,,,,,,,,,,,,k
6,24,1010,B,83.4723620235872,58.15108340838967,4.17361810117936,0.9134350821704214,B,1131.257499975618,Correct,sub_006_day_24_data.csv,1,542,,Button-Switch at home,,,,,,,,,,,,,d
6,24,1011,A,35.64719867762468,43.54606406952399,1.782359933881234,0.6840199748678352,B,1557.0624999818392,Incorrect,sub_006_day_24_data.csv,0,542,,Button-Switch at home,,,,,,,,,,,,,d
6,24,1012,A,52.235818168693534,75.27795312766462,2.611790908434677,1.1824633226157395,A,1259.1489999904295,Correct,sub_006_day_24_data.csv,1,542,,Button-Switch at home,,,,,,,,,,,,,k
6,24,1013,B,80.30748703787108,66.29097371895101,4.015374351893554,1.0412961801738527,B,1891.8354000197724,Correct,sub_006_day_24_data.csv,1,542,,Button-Switch at home,,,,,,,,,,,,,d
6,24,1014,B,61.242364994891645,36.45153416047452,3.0621182497445822,0.5725793596531207,B,3862.210399995092,Correct,sub_006_day_24_data.csv,1,542,,Button-Switch at home,,,,,,,,,,,,,d
6,24,1015,A,52.835584420739245,63.87629200557934,2.641779221036962,1.0033664485164224,A,726.7572000273503,Correct,sub_006_day_24_data.csv,1,542,,Button-Switch at home,,,,,,,,,,,,,k
6,24,1016,B,73.73698221116376,53.33018137832473,3.686849110558188,0.8377085301637807,B,1150.9178000269458,Correct,sub_006_day_24_data.csv,1,542,,Button-Switch at home,,,,,,,,,,,,,d
6,24,1017,B,78.88595488065002,53.25348436874553,3.944297744032501,0.8365037763545492,B,894.2102000000887,Correct,sub_006_day_24_data.csv,1,542,,Button-Switch at home,,,,,,,,,,,,,d
6,24,1018,A,38.4136810418716,69.84646345993859,1.92068405209358,1.097145682424855,B,1493.1122999987565,Incorrect,sub_006_day_24_data.csv,0,542,,Button-Switch at home,,,,,,,,,,,,,d
6,24,1019,A,39.5044360511068,56.63396877934696,1.97522180255534,0.8896043013041505,B,1487.0873000472784,Incorrect,sub_006_day_24_data.csv,0,542,,Button-Switch at home,,,,,,,,,,,,,d
6,24,1020,A,36.81460487777427,58.896641367175405,1.8407302438887136,0.9251462792011548,B,1294.9456000351347,Incorrect,sub_006_day_24_data.csv,0,542,,Button-Switch at home,,,,,,,,,,,,,d
6,24,1021,B,78.0019267289961,46.8851912174902,3.900096336449805,0.7364708614550994,B,946.0796999628656,Correct,sub_006_day_24_data.csv,1,542,,Button-Switch at home,,,,,,,,,,,,,d
6,24,1022,B,58.64710311010503,51.103654292369754,2.932355155505251,0.8027343244825065,B,1012.1172000071964,Correct,sub_006_day_24_data.csv,1,542,,Button-Switch at home,,,,,,,,,,,,,d
6,24,1023,A,31.59663274769156,57.08140777965109,1.5798316373845782,0.8966326566855757,A,938.6276000295766,Correct,sub_006_day_24_data.csv,1,542,,Button-Switch at home,,,,,,,,,,,,,k
6,24,1024,B,51.553265227936926,28.44267941104964,2.577663261396846,0.446776563430816,B,709.421299980022,Correct,sub_006_day_24_data.csv,1,542,,Button-Switch at home,,,,,,,,,,,,,d
6,24,1025,A,30.376318303662153,46.8347897474129,1.5188159151831075,0.7356791570144746,B,1003.7722999695688,Incorrect,sub_006_day_24_data.csv,0,542,,Button-Switch at home,,,,,,,,,,,,,d
6,24,1026,B,55.983377893008424,42.07226444077947,2.799168894650421,0.6608695844351994,B,850.3383000497706,Correct,sub_006_day_24_data.csv,1,542,,Button-Switch at home,,,,,,,,,,,,,d
6,24,1027,A,28.251195770533528,52.757550027260095,1.4125597885266763,0.8287136579351816,A,1107.5314999907278,Correct,sub_006_day_24_data.csv,1,542,,Button-Switch at home,,,,,,,,,,,,,k
6,24,1028,B,36.40289192613071,25.59320559694867,1.8201445963065352,0.4020171334259356,B,735.992600035388,Correct,sub_006_day_24_data.csv,1,542,,Button-Switch at home,,,,,,,,,,,,,d
6,24,1029,B,85.87080069863192,58.580247084480774,4.293540034931596,0.9201763694303986,B,1626.9128000130877,Correct,sub_006_day_24_data.csv,1,542,,Button-Switch at home,,,,,,,,,,,,,d
6,24,1030,B,62.98291583709287,52.71948423545896,3.1491457918546435,0.828115721875804,A,2071.0813000332564,Incorrect,sub_006_day_24_data.csv,0,542,,Button-Switch at home,,,,,,,,,,,,,k
6,24,1031,A,43.41391834528244,53.18763495334072,2.170695917264122,0.8354694161561546,B,713.3825999917462,Incorrect,sub_006_day_24_data.csv,0,542,,Button-Switch at home,,,,,,,,,,,,,d
6,24,1032,A,40.2371075330533,57.21443909272337,2.011855376652665,0.898722307664802,A,3903.8241000380367,Correct,sub_006_day_24_data.csv,1,542,,Button-Switch at home,,,,,,,,,,,,,k
6,24,1033,A,63.75183396729898,89.19712394237487,3.187591698364949,1.4011051464935158,A,1681.228999979794,Correct,sub_006_day_24_data.csv,1,542,,Button-Switch at home,,,,,,,,,,,,,k
6,24,1034,A,21.31670831547367,47.74094794244581,1.0658354157736836,0.7499130566570025,A,4099.35899998527,Correct,sub_006_day_24_data.csv,1,542,,Button-Switch at home,,,,,,,,,,,,,k
6,24,1035,A,22.086645917474705,35.96379762952216,1.1043322958737352,0.5649180121404842,A,648.995499999728,Correct,sub_006_day_24_data.csv,1,542,,Button-Switch at home,,,,,,,,,,,,,k
6,24,1036,A,62.11541090251848,74.47962347867815,3.1057705451259237,1.1699231898137457,A,1386.055699957069,Correct,sub_006_day_24_data.csv,1,542,,Button-Switch at home,,,,,,,,,,,,,k
6,24,1037,B,39.044876474844386,18.165041407391023,1.9522438237422193,0.2853358031880701,B,903.2995000015944,Correct,sub_006_day_24_data.csv,1,542,,Button-Switch at home,,,,,,,,,,,,,d
6,24,1038,B,85.04435069241597,66.58314277055835,4.252217534620798,1.0458855609045323,B,2732.7263000188395,Correct,sub_006_day_24_data.csv,1,542,,Button-Switch at home,,,,,,,,,,,,,d
6,24,1039,A,42.937540180958145,63.205646823280944,2.1468770090479072,0.9928319786270522,A,1001.3874000287616,Correct,sub_006_day_24_data.csv,1,542,,Button-Switch at home,,,,,,,,,,,,,k
6,24,1040,A,34.25288399335451,64.9152723261775,1.7126441996677255,1.0196867132285,A,889.744900050573,Correct,sub_006_day_24_data.csv,1,542,,Button-Switch at home,,,,,,,,,,,,,k
6,24,1041,A,52.28325073320899,66.12077369579893,2.6141625366604497,1.038622684461976,A,960.3277000132948,Correct,sub_006_day_24_data.csv,1,542,,Button-Switch at home,,,,,,,,,,,,,k
6,24,1042,B,60.07059379303999,27.717627227923767,3.0035296896519994,0.4353874703709286,B,1952.599400014151,Correct,sub_006_day_24_data.csv,1,542,,Button-Switch at home,,,,,,,,,,,,,d
6,24,1043,A,44.60856055101562,76.74623903259831,2.230428027550781,1.2055271036772854,A,2205.202499986626,Correct,sub_006_day_24_data.csv,1,542,,Button-Switch at home,,,,,,,,,,,,,k
6,24,1044,A,21.759539683735873,39.671824889075545,1.0879769841867937,0.6231635681301022,A,1051.0880000074394,Correct,sub_006_day_24_data.csv,1,542,,Button-Switch at home,,,,,,,,,,,,,k
6,24,1045,A,50.45580866437109,61.6658776590221,2.5227904332185545,0.968645341153754,A,971.7415999621152,Correct,sub_006_day_24_data.csv,1,542,,Button-Switch at home,,,,,,,,,,,,,k
6,24,1046,B,77.33583846749481,49.66684974133578,3.86679192337474,0.780165051371643,B,818.3960000169463,Correct,sub_006_day_24_data.csv,1,542,,Button-Switch at home,,,,,,,,,,,,,d
6,24,1047,A,35.299659723336845,62.076269884855975,1.7649829861668422,0.9750917671626042,A,838.6687999591231,Correct,sub_006_day_24_data.csv,1,542,,Button-Switch at home,,,,,,,,,,,,,k
6,24,1048,A,25.1825695593923,54.23505830874699,1.259128477969615,0.851922303748868,A,1041.7526999954134,Correct,sub_006_day_24_data.csv,1,542,,Button-Switch at home,,,,,,,,,,,,,k
6,24,1049,B,76.5967151169094,52.846992899733834,3.82983575584547,0.8301186232905788,A,3911.958799988497,Incorrect,sub_006_day_24_data.csv,0,542,,Button-Switch at home,,,,,,,,,,,,,k
6,24,1050,B,57.67310845938338,37.56080100825552,2.8836554229691687,0.5900036825524182,B,3348.880800011102,Correct,sub_006_day_24_data.csv,1,542,,Button-Switch at home,,,,,,,,,,,,,d
6,24,1051,A,22.38376952303038,46.077473714982865,1.119188476151519,0.7237832645948348,A,631.0692999977618,Correct,sub_006_day_24_data.csv,1,542,,Button-Switch at home,,,,,,,,,,,,,k
6,24,1052,B,47.680600930610005,37.57116789576945,2.3840300465305004,0.59016652524069,B,3007.9029999906197,Correct,sub_006_day_24_data.csv,1,542,,Button-Switch at home,,,,,,,,,,,,,d
6,24,1053,A,53.85081832096489,65.37377585786255,2.6925409160482445,1.026888869862434,A,917.7845999947748,Correct,sub_006_day_24_data.csv,1,542,,Button-Switch at home,,,,,,,,,,,,,k
6,24,1054,A,20.19745287579823,43.76282142973257,1.0098726437899117,0.687424791520049,B,1000.2004000125452,Incorrect,sub_006_day_24_data.csv,0,542,,Button-Switch at home,,,,,,,,,,,,,d
6,24,1055,A,45.6279679106264,75.51575679940196,2.2813983955313204,1.1861987339563735,A,2779.1694999905303,Correct,sub_006_day_24_data.csv,1,542,,Button-Switch at home,,,,,,,,,,,,,k
6,24,1056,A,21.117670826249768,46.55938988359902,1.0558835413124883,0.7313531860696879,A,1867.1756000258029,Correct,sub_006_day_24_data.csv,1,542,,Button-Switch at home,,,,,,,,,,,,,k
6,24,1057,A,37.35582911855865,49.11148861311541,1.8677914559279327,0.7714414591691107,A,4451.3683000113815,Correct,sub_006_day_24_data.csv,1,542,,Button-Switch at home,,,,,,,,,,,,,k
6,24,1058,B,47.03782962827136,38.917795438702754,2.3518914814135683,0.6113193012206948,B,1219.0050999633968,Correct,sub_006_day_24_data.csv,1,542,,Button-Switch at home,,,,,,,,,,,,,d
6,24,1059,B,59.656542492097174,32.30051545276762,2.9828271246048588,0.5073753102678917,A,2381.3560000271536,Incorrect,sub_006_day_24_data.csv,0,542,,Button-Switch at home,,,,,,,,,,,,,k
6,24,1060,A,28.564458895477948,43.32316805347689,1.4282229447738972,0.6805187324351951,A,1242.1499000047334,Correct,sub_006_day_24_data.csv,1,542,,Button-Switch at home,,,,,,,,,,,,,k
6,24,1061,B,58.84368252091013,30.039096599447504,2.942184126045506,0.4718530259864921,B,875.8090999908745,Correct,sub_006_day_24_data.csv,1,542,,Button-Switch at home,,,,,,,,,,,,,d
6,24,1062,B,40.20403031725009,15.052671969411351,2.0102015158625046,0.2364468183799985,B,561.7616000236012,Correct,sub_006_day_24_data.csv,1,542,,Button-Switch at home,,,,,,,,,,,,,d
6,24,1063,A,51.835703879741224,70.07091393579188,2.591785193987061,1.100671342255032,A,958.0080999876373,Correct,sub_006_day_24_data.csv,1,542,,Button-Switch at home,,,,,,,,,,,,,k
6,24,1064,A,28.64788215104276,47.2622143407307,1.432394107552138,0.7423931268261288,A,1024.696699983906,Correct,sub_006_day_24_data.csv,1,542,,Button-Switch at home,,,,,,,,,,,,,k
6,24,1065,A,11.64419664990972,36.44737015344484,0.582209832495486,0.572513951583651,A,1345.2757999766618,Correct,sub_006_day_24_data.csv,1,542,,Button-Switch at home,,,,,,,,,,,,,k
6,24,1066,B,70.62706751596838,60.37783933689835,3.5313533757984192,0.9484128825021236,B,1837.817800056655,Correct,sub_006_day_24_data.csv,1,542,,Button-Switch at home,,,,,,,,,,,,,d
6,24,1067,A,22.370576930578217,38.79224206469083,1.1185288465289107,0.6093471134335484,A,1143.565199978184,Correct,sub_006_day_24_data.csv,1,542,,Button-Switch at home,,,,,,,,,,,,,k
6,24,1068,B,58.15908853761236,29.00598922590543,2.907954426880618,0.455625013311046,B,1019.0624999813735,Correct,sub_006_day_24_data.csv,1,542,,Button-Switch at home,,,,,,,,,,,,,d
6,24,1069,B,80.70852959973047,58.638182616965736,4.035426479986524,0.9210864186465814,A,1123.770899954252,Incorrect,sub_006_day_24_data.csv,0,542,,Button-Switch at home,,,,,,,,,,,,,k
6,24,1070,B,68.89863960152792,54.88708369523355,3.444931980076396,0.8621642945695691,B,696.0717000183649,Correct,sub_006_day_24_data.csv,1,542,,Button-Switch at home,,,,,,,,,,,,,d
6,24,1071,B,67.92858225731327,55.65070144168991,3.3964291128656634,0.8741591740816597,B,1423.5918999766,Correct,sub_006_day_24_data.csv,1,542,,Button-Switch at home,,,,,,,,,,,,,d
6,24,1072,A,19.785918506104295,46.21374525624165,0.9892959253052148,0.7259238129593943,A,1562.5171000137923,Correct,sub_006_day_24_data.csv,1,542,,Button-Switch at home,,,,,,,,,,,,,k
6,24,1073,A,65.64438189999561,79.96511680759184,3.2822190949997805,1.2560891175309012,A,1415.796599991154,Correct,sub_006_day_24_data.csv,1,542,,Button-Switch at home,,,,,,,,,,,,,k
6,24,1074,A,17.14817102194413,37.15507151252323,0.8574085510972066,0.583630498536732,A,613.7324000010267,Correct,sub_006_day_24_data.csv,1,542,,Button-Switch at home,,,,,,,,,,,,,k
6,24,1075,A,28.869132256872447,44.54531205835212,1.443456612843622,0.6997161255719193,A,2360.107499989681,Correct,sub_006_day_24_data.csv,1,542,,Button-Switch at home,,,,,,,,,,,,,k
6,24,1076,B,39.96669289018969,23.6797311241215,1.9983346445094845,0.3719603466926083,B,1566.0503000253811,Correct,sub_006_day_24_data.csv,1,542,,Button-Switch at home,,,,,,,,,,,,,d
6,24,1077,B,41.604993780703495,20.92424651877716,2.080249689035175,0.3286772957264606,B,661.2752000219189,Correct,sub_006_day_24_data.csv,1,542,,Button-Switch at home,,,,,,,,,,,,,d
6,24,1078,A,24.212798236504483,36.41758814348147,1.2106399118252242,0.5720461368651008,A,2043.0510999867693,Correct,sub_006_day_24_data.csv,1,542,,Button-Switch at home,,,,,,,,,,,,,k
6,24,1079,A,65.49504211965956,88.33334728672025,3.274752105982978,1.387536974514781,A,2196.5930000296794,Correct,sub_006_day_24_data.csv,1,542,,Button-Switch at home,,,,,,,,,,,,,k
6,24,1080,A,16.374511408702165,36.473630928451456,0.8187255704351082,0.5729264548728428,A,1253.857399977278,Correct,sub_006_day_24_data.csv,1,542,,Button-Switch at home,,,,,,,,,,,,,k
6,24,1081,A,35.577054330766785,46.21982421195442,1.7788527165383392,0.7260193009724383,A,1069.1938000381924,Correct,sub_006_day_24_data.csv,1,542,,Button-Switch at home,,,,,,,,,,,,,k
6,24,1082,A,46.199362548298495,53.66985023571853,2.309968127414925,0.8430440360989887,A,960.4374000336976,Correct,sub_006_day_24_data.csv,1,542,,Button-Switch at home,,,,,,,,,,,,,k
6,24,1083,B,50.08315959614727,39.0995005189143,2.504157979807363,0.6141735179462573,A,622.4348000250757,Incorrect,sub_006_day_24_data.csv,0,542,,Button-Switch at home,,,,,,,,,,,,,k
6,24,1084,B,43.77630394211866,20.39707399249497,2.188815197105933,0.3203964890477481,B,944.1723999916576,Correct,sub_006_day_24_data.csv,1,542,,Button-Switch at home,,,,,,,,,,,,,d
6,24,1085,B,37.123616588533984,19.603132121895953,1.8561808294266993,0.3079252793074921,B,1379.104100051336,Correct,sub_006_day_24_data.csv,1,542,,Button-Switch at home,,,,,,,,,,,,,d
6,24,1086,B,58.82478501491951,26.93208920517336,2.9412392507459755,0.4230482679639879,B,1566.5948000387289,Correct,sub_006_day_24_data.csv,1,542,,Button-Switch at home,,,,,,,,,,,,,d
6,24,1087,B,55.96829594226668,35.193018318280664,2.7984147971133337,0.5528106390318078,B,929.3447000090964,Correct,sub_006_day_24_data.csv,1,542,,Button-Switch at home,,,,,,,,,,,,,d
6,24,1088,A,30.49738416532812,40.12527199270909,1.5248692082664062,0.6302862985779357,A,1099.674800003413,Correct,sub_006_day_24_data.csv,1,542,,Button-Switch at home,,,,,,,,,,,,,k
6,24,1089,B,66.89171772317394,57.16149297724958,3.344585886158697,0.8978906320277591,A,1952.1734999725595,Incorrect,sub_006_day_24_data.csv,0,542,,Button-Switch at home,,,,,,,,,,,,,k
