subject,day,trial,cat,x,y,xt,yt,resp,rt,fb,f_name,acc,n_trials,block,session_type,ns_left_digit,ns_right_digit,ns_left_size,ns_right_size,ns_congruent,ns_cue,ns_correct_side,ns_resp,ns_rt,ns_fb,acc_stroop,acc_stroop_mean,resp_key
6,5,900,A,57.22182411197322,69.26586410589267,2.861091205598661,1.0880256490981068,B,672.8449999936856,Incorrect,sub_006_day_05_data.csv,0,300,36.0,Training at home,,,,,,,,,,,,,
6,5,901,B,70.38910818174084,50.22575465324313,3.519455409087042,0.7889443091981598,B,639.6528999903239,Correct,sub_006_day_05_data.csv,1,300,36.0,Training at home,,,,,,,,,,,,,
6,5,902,B,63.75335510338462,31.77697204532151,3.187667755169231,0.4991515096545514,B,598.383600008674,Correct,sub_006_day_05_data.csv,1,300,36.0,Training at home,,,,,,,,,,,,,
6,5,903,A,36.2959629656618,59.570476887149226,1.81479814828309,0.9357308627975428,A,697.8609000216238,Correct,sub_006_day_05_data.csv,1,300,36.0,Training at home,,,,,,,,,,,,,
6,5,904,A,46.648033464419065,76.8386826066083,2.332401673220953,1.2069792039421925,A,797.0524999545887,Correct,sub_006_day_05_data.csv,1,300,36.0,Training at home,,,,,,,,,,,,,
6,5,905,A,22.258532734638703,34.99757703017367,1.1129266367319353,0.5497406544571826,A,525.0348999979906,Correct,sub_006_day_05_data.csv,1,300,36.0,Training at home,,,,,,,,,,,,,
6,5,906,A,53.18049064906979,68.68303855495697,2.65902453245349,1.0788706467523863,B,487.99410002538934,Incorrect,sub_006_day_05_data.csv,0,300,36.0,Training at home,,,,,,,,,,,,,
6,5,907,B,61.60926951115517,52.827792821019216,3.0804634755577585,0.8298170291593878,B,803.3982999622822,Correct,sub_006_day_05_data.csv,1,300,36.0,Training at home,,,,,,,,,,,,,
6,5,908,A,34.84988820702501,55.86351582214459,1.7424944103512503,0.8775020545527332,A,595.6994000007398,Correct,sub_006_day_05_data.csv,1,300,36.0,Training at home,,,,,,,,,,,,,
6,5,909,B,48.78271095336199,20.844394476118925,2.4391355476680996,0.3274229827735144,A,906.5621999907308,Incorrect,sub_006_day_05_data.csv,0,300,36.0,Training at home,,,,,,,,,,,,,
6,5,910,A,24.63685532539743,49.60625203396371,1.2318427662698717,0.7792131848101207,A,678.1282000010833,Correct,sub_006_day_05_data.csv,1,300,36.0,Training at home,,,,,,,,,,,,,
6,5,911,B,53.491388373878195,30.39152094286095,2.6745694186939097,0.4773888946275615,B,1721.7438000370748,Correct,sub_006_day_05_data.csv,1,300,36.0,Training at home,,,,,,,,,,,,,
6,5,912,A,14.991414518773286,40.735886699027475,0.7495707259386643,0.6398778119556544,A,657.3305000201799,Correct,sub_006_day_05_data.csv,1,300,36.0,Training at home,,,,,,,,,,,,,
6,5,913,B,53.16085013146857,27.49748865990673,2.658042506573429,0.4319295418306582,B,791.2455999758095,Correct,sub_006_day_05_data.csv,1,300,36.0,Training at home,,,,,,,,,,,,,
6,5,914,B,63.9330060928373,30.589950780430243,3.1966503046418655,0.480505823227365,B,1043.5951999970712,Correct,sub_006_day_05_data.csv,1,300,36.0,Training at home,,,,,,,,,,,,,
6,5,915,B,43.139975282237984,31.398983562791997,2.156998764111899,0.49321408045527,A,1704.7167999553494,Incorrect,sub_006_day_05_data.csv,0,300,36.0,Training at home,,,,,,,,,,,,,
6,5,916,A,54.370575866284945,61.90377383188655,2.7185287933142472,0.9723822054986944,B,598.5146000166424,Incorrect,sub_006_day_05_data.csv,0,300,36.0,Training at home,,,,,,,,,,,,,
6,5,917,B,43.07943274540473,31.020358937320307,2.153971637270237,0.4872666587460197,B,978.3213000046088,Correct,sub_006_day_05_data.csv,1,300,36.0,Training at home,,,,,,,,,,,,,
6,5,918,A,17.821660030496126,38.228734791168264,0.8910830015248064,0.6004955618798338,A,533.7404999881983,Correct,sub_006_day_05_data.csv,1,300,36.0,Training at home,,,,,,,,,,,,,
6,5,919,B,83.07921297262355,65.38510290899137,4.153960648631178,1.0270667947654997,B,623.6274999682792,Correct,sub_006_day_05_data.csv,1,300,36.0,Training at home,,,,,,,,,,,,,
6,5,920,A,39.56319454993485,53.952953400250905,1.9781597274967424,0.8474910102085035,B,1224.093900003936,Incorrect,sub_006_day_05_data.csv,0,300,36.0,Training at home,,,,,,,,,,,,,
6,5,921,B,79.04739120309635,59.30086898638106,3.9523695601548177,0.9314958717955276,B,500.1013000146486,Correct,sub_006_day_05_data.csv,1,300,36.0,Training at home,,,,,,,,,,,,,
6,5,922,B,69.27733147941608,44.36844119357885,3.463866573970804,0.6969378445248904,B,547.9489000281319,Correct,sub_006_day_05_data.csv,1,300,36.0,Training at home,,,,,,,,,,,,,
6,5,923,B,53.578365870650984,34.510714767999694,2.6789182935325493,0.5420930399264031,B,984.0210999827832,Correct,sub_006_day_05_data.csv,1,300,36.0,Training at home,,,,,,,,,,,,,
6,5,924,B,88.6915652715967,64.25391056584736,4.4345782635798345,1.0092980669904084,B,633.5006000008434,Correct,sub_006_day_05_data.csv,1,300,36.0,Training at home,,,,,,,,,,,,,
6,5,925,B,72.76017498126663,59.62237729889824,3.638008749063331,0.9365461125588878,B,536.3515999633819,Correct,sub_006_day_05_data.csv,1,300,37.0,Training at home,,,,,,,,,,,,,
6,5,926,A,55.52372990113745,75.44122287722813,2.7761864950568724,1.1850279578446503,A,619.9514000327326,Correct,sub_006_day_05_data.csv,1,300,37.0,Training at home,,,,,,,,,,,,,
6,5,927,B,62.115673266048326,29.576359965515664,3.1057836633024163,0.4645843759379563,B,680.1259000203572,Correct,sub_006_day_05_data.csv,1,300,37.0,Training at home,,,,,,,,,,,,,
6,5,928,A,40.093968656818795,65.45971924893175,2.00469843284094,1.028238865492472,A,578.2913999864832,Correct,sub_006_day_05_data.csv,1,300,37.0,Training at home,,,,,,,,,,,,,
6,5,929,A,57.15049283173897,80.21405967461371,2.8575246415869486,1.2599995029418989,A,586.6401999955997,Correct,sub_006_day_05_data.csv,1,300,37.0,Training at home,,,,,,,,,,,,,
6,5,930,B,51.022856623269945,25.631883958314727,2.551142831163497,0.402624691705538,B,646.1785000283271,Correct,sub_006_day_05_data.csv,1,300,37.0,Training at home,,,,,,,,,,,,,
6,5,931,A,48.12617980250879,59.65467239481522,2.406308990125439,0.9370534027392868,A,957.059999986086,Correct,sub_006_day_05_data.csv,1,300,37.0,Training at home,,,,,,,,,,,,,
6,5,932,A,26.542611051978017,40.576988676317626,1.3271305525989008,0.6373818476515783,A,630.7360000209883,Correct,sub_006_day_05_data.csv,1,300,37.0,Training at home,,,,,,,,,,,,,
6,5,933,B,51.42960593393206,26.048645208045023,2.5714802966966026,0.409171162107806,B,1353.106199996546,Correct,sub_006_day_05_data.csv,1,300,37.0,Training at home,,,,,,,,,,,,,
6,5,934,B,71.07520068214491,61.04998522287114,3.5537600341072455,0.9589709253896872,B,814.902100013569,Correct,sub_006_day_05_data.csv,1,300,37.0,Training at home,,,,,,,,,,,,,
6,5,935,B,80.8204281190221,54.1064952800445,4.0410214059511045,0.8499028404163931,B,573.5654000309296,Correct,sub_006_day_05_data.csv,1,300,37.0,Training at home,,,,,,,,,,,,,
6,5,936,A,16.335086781046744,36.89955715743197,0.8167543390523372,0.5796168884325248,A,539.3668999895453,Correct,sub_006_day_05_data.csv,1,300,37.0,Training at home,,,,,,,,,,,,,
6,5,937,A,23.547702048169896,44.87340582467307,1.1773851024084947,0.7048698104017318,A,547.7880000253208,Correct,sub_006_day_05_data.csv,1,300,37.0,Training at home,,,,,,,,,,,,,
6,5,938,A,23.96459676909552,43.182269058716415,1.198229838454776,0.6783054962010066,A,543.6872999998741,Correct,sub_006_day_05_data.csv,1,300,37.0,Training at home,,,,,,,,,,,,,
6,5,939,A,62.351677061143114,78.01557382998638,3.117583853057156,1.2254657680493868,A,922.2635999904014,Correct,sub_006_day_05_data.csv,1,300,37.0,Training at home,,,,,,,,,,,,,
6,5,940,A,34.10413582694194,64.73964555359815,1.7052067913470972,1.0169279743359554,A,523.27529998729,Correct,sub_006_day_05_data.csv,1,300,37.0,Training at home,,,,,,,,,,,,,
6,5,941,A,36.86824934921325,64.01092273082142,1.8434124674606625,1.0054812230032624,A,554.9333000089973,Correct,sub_006_day_05_data.csv,1,300,37.0,Training at home,,,,,,,,,,,,,
6,5,942,B,76.40217000237061,60.59008872939041,3.8201085001185304,0.9517468881630332,B,1028.3495000330731,Correct,sub_006_day_05_data.csv,1,300,37.0,Training at home,,,,,,,,,,,,,
6,5,943,A,16.094669770776175,40.57299143284938,0.8047334885388088,0.6373190590980061,A,469.91739998338744,Correct,sub_006_day_05_data.csv,1,300,37.0,Training at home,,,,,,,,,,,,,
6,5,944,B,68.08970790264743,47.114751583853405,3.4044853951323715,0.7400767872577096,B,1009.64980002027,Correct,sub_006_day_05_data.csv,1,300,37.0,Training at home,,,,,,,,,,,,,
6,5,945,B,49.175735758677305,32.89064305198906,2.4587867879338656,0.516645012919865,B,1370.6515000085346,Correct,sub_006_day_05_data.csv,1,300,37.0,Training at home,,,,,,,,,,,,,
6,5,946,A,44.08612822962329,52.49551854002353,2.204306411481165,0.8245976769586235,B,645.0967999990098,Incorrect,sub_006_day_05_data.csv,0,300,37.0,Training at home,,,,,,,,,,,,,
6,5,947,B,57.74533653383798,28.143073902394548,2.887266826691899,0.4420703711059867,B,519.7541999514215,Correct,sub_006_day_05_data.csv,1,300,37.0,Training at home,,,,,,,,,,,,,
6,5,948,B,61.728920682239256,34.58159810031862,3.0864460341119626,0.5432064727067786,B,529.8636999796145,Correct,sub_006_day_05_data.csv,1,300,37.0,Training at home,,,,,,,,,,,,,
6,5,949,B,53.68213242886302,34.40056554541995,2.684106621443151,0.5403628199841274,B,505.0624000141397,Correct,sub_006_day_05_data.csv,1,300,37.0,Training at home,,,,,,,,,,,,,
6,5,950,B,70.60083455422736,38.623091674912494,3.5300417277113683,0.606690105324151,B,491.2451999844052,Correct,sub_006_day_05_data.csv,1,300,38.0,Training at home,,,,,,,,,,,,,
6,5,951,A,13.232360271445426,40.10884104630196,0.6616180135722713,0.6300282018753148,A,574.3977999663912,Correct,sub_006_day_05_data.csv,1,300,38.0,Training at home,,,,,,,,,,,,,
6,5,952,B,58.823758933464866,33.95195302104524,2.941187946673243,0.5333160309297076,B,486.9414999848232,Correct,sub_006_day_05_data.csv,1,300,38.0,Training at home,,,,,,,,,,,,,
6,5,953,A,15.997494474797625,30.63647702463845,0.7998747237398811,0.4812366557623831,A,482.5786000001244,Correct,sub_006_day_05_data.csv,1,300,38.0,Training at home,,,,,,,,,,,,,
6,5,954,B,75.57242938877656,63.78789076375091,3.778621469438827,1.0019778450569403,A,1113.7174000032246,Incorrect,sub_006_day_05_data.csv,0,300,38.0,Training at home,,,,,,,,,,,,,
6,5,955,B,52.5140991235024,22.153659973561133,2.62570495617512,0.3479888771153295,B,1023.686499975156,Correct,sub_006_day_05_data.csv,1,300,38.0,Training at home,,,,,,,,,,,,,
6,5,956,B,49.8171920310269,40.60513480271838,2.490859601551345,0.6378239659712166,B,689.6927999914624,Correct,sub_006_day_05_data.csv,1,300,38.0,Training at home,,,,,,,,,,,,,
6,5,957,B,66.18499794201713,33.7138998180836,3.309249897100857,0.5295766999617684,B,586.7444999748841,Correct,sub_006_day_05_data.csv,1,300,38.0,Training at home,,,,,,,,,,,,,
6,5,958,A,24.473720891228268,38.0850765946344,1.2236860445614135,0.5982389842055401,A,568.1980000226758,Correct,sub_006_day_05_data.csv,1,300,38.0,Training at home,,,,,,,,,,,,,
6,5,959,A,29.974314643444316,48.59869865105449,1.4987157321722158,0.7633865732808849,A,550.3196999779902,Correct,sub_006_day_05_data.csv,1,300,38.0,Training at home,,,,,,,,,,,,,
6,5,960,A,52.14409980432693,69.16419264715795,2.607204990216346,1.086428597558903,A,779.9593000090681,Correct,sub_006_day_05_data.csv,1,300,38.0,Training at home,,,,,,,,,,,,,
6,5,961,A,30.63190190049185,63.86236498869958,1.531595095024593,1.0031476834468431,A,525.0114999944344,Correct,sub_006_day_05_data.csv,1,300,38.0,Training at home,,,,,,,,,,,,,
6,5,962,B,52.06360367781111,22.237317019725563,2.6031801838905557,0.3493029589235855,B,575.0430999905802,Correct,sub_006_day_05_data.csv,1,300,38.0,Training at home,,,,,,,,,,,,,
6,5,963,B,75.90441817921051,48.172151410422174,3.795220908960525,0.7566863848929877,B,523.6479999730363,Correct,sub_006_day_05_data.csv,1,300,38.0,Training at home,,,,,,,,,,,,,
6,5,964,B,77.45844679267987,51.902837041732106,3.872922339633994,0.8152878577538688,B,618.5977999703027,Correct,sub_006_day_05_data.csv,1,300,38.0,Training at home,,,,,,,,,,,,,
6,5,965,A,41.800995514936794,54.31463922375245,2.0900497757468397,0.8531723578386033,A,557.6626000110991,Correct,sub_006_day_05_data.csv,1,300,38.0,Training at home,,,,,,,,,,,,,
6,5,966,A,49.52219767252741,64.11433025019802,2.4761098836263704,1.0071055445192596,B,846.9823999912478,Incorrect,sub_006_day_05_data.csv,0,300,38.0,Training at home,,,,,,,,,,,,,
6,5,967,A,56.31627463761065,70.46439420774614,2.8158137318805325,1.1068521159135525,A,842.8869999479502,Correct,sub_006_day_05_data.csv,1,300,38.0,Training at home,,,,,,,,,,,,,
6,5,968,B,62.751484155149065,37.69117702566749,3.1375742077574533,0.5920516242449468,B,760.7858999981545,Correct,sub_006_day_05_data.csv,1,300,38.0,Training at home,,,,,,,,,,,,,
6,5,969,A,37.8835781721592,64.05367506642999,1.8941789086079603,1.006152775120621,A,1072.159800038207,Correct,sub_006_day_05_data.csv,1,300,38.0,Training at home,,,,,,,,,,,,,
6,5,970,A,19.118495041879505,35.41913651611108,0.9559247520939752,0.5563624953775428,A,572.6461000158451,Correct,sub_006_day_05_data.csv,1,300,38.0,Training at home,,,,,,,,,,,,,
6,5,971,A,58.29234206183071,76.69394284534629,2.9146171030915355,1.204705637088877,A,831.668000028003,Correct,sub_006_day_05_data.csv,1,300,38.0,Training at home,,,,,,,,,,,,,
6,5,972,A,43.7064003229416,74.74959103763334,2.18532001614708,1.1741638303133517,A,522.020899981726,Correct,sub_006_day_05_data.csv,1,300,38.0,Training at home,,,,,,,,,,,,,
6,5,973,B,72.92184162725182,62.78933500060727,3.6460920813625903,0.9862925678084812,B,577.2518999874592,Correct,sub_006_day_05_data.csv,1,300,38.0,Training at home,,,,,,,,,,,,,
6,5,974,B,65.47217871023707,38.12838825011357,3.2736089355118536,0.5989193220988808,B,1484.633899992332,Correct,sub_006_day_05_data.csv,1,300,38.0,Training at home,,,,,,,,,,,,,
6,5,975,A,39.23153732920859,58.20214386704265,1.9615768664604296,0.9142371379793872,A,571.3114999816753,Correct,sub_006_day_05_data.csv,1,300,39.0,Training at home,,,,,,,,,,,,,
6,5,976,B,44.20344314550201,30.91424971664413,2.2101721572751005,0.4855998990052477,B,868.5003999853507,Correct,sub_006_day_05_data.csv,1,300,39.0,Training at home,,,,,,,,,,,,,
6,5,977,A,35.68119269788999,61.411826853040374,1.7840596348944997,0.9646547204252,A,857.1875999914482,Correct,sub_006_day_05_data.csv,1,300,39.0,Training at home,,,,,,,,,,,,,
6,5,978,B,52.07106865374677,23.45738768700933,2.603553432687338,0.3684677841495809,B,543.5143000213429,Correct,sub_006_day_05_data.csv,1,300,39.0,Training at home,,,,,,,,,,,,,
6,5,979,A,32.15095640194947,51.13944696843193,1.6075478200974738,0.8032965545233529,A,587.3258000356145,Correct,sub_006_day_05_data.csv,1,300,39.0,Training at home,,,,,,,,,,,,,
6,5,980,A,53.45137482504278,83.4417889069703,2.672568741252139,1.3107005551626412,A,1155.7276000385173,Correct,sub_006_day_05_data.csv,1,300,39.0,Training at home,,,,,,,,,,,,,
6,5,981,A,52.53908400954753,77.85610135140246,2.6269542004773765,1.2229607802135416,A,1076.23899995815,Correct,sub_006_day_05_data.csv,1,300,39.0,Training at home,,,,,,,,,,,,,
6,5,982,A,61.803505230899134,85.68090131000255,3.0901752615449567,1.3458724505422806,A,636.9292000308633,Correct,sub_006_day_05_data.csv,1,300,39.0,Training at home,,,,,,,,,,,,,
6,5,983,A,66.94042304638023,79.01601084544532,3.347021152319012,1.241180595940112,A,773.1423000223003,Correct,sub_006_day_05_data.csv,1,300,39.0,Training at home,,,,,,,,,,,,,
6,5,984,B,85.83591337250196,66.12571119974982,4.291795668625098,1.0387002425926717,B,620.7187999971211,Correct,sub_006_day_05_data.csv,1,300,39.0,Training at home,,,,,,,,,,,,,
6,5,985,B,54.33218810575817,37.84587787984717,2.716609405287908,0.5944816595799216,B,721.5388000477105,Correct,sub_006_day_05_data.csv,1,300,39.0,Training at home,,,,,,,,,,,,,
6,5,986,B,41.97389027253921,19.682158502451795,2.0986945136269606,0.3091666227904622,B,924.4258999824524,Correct,sub_006_day_05_data.csv,1,300,39.0,Training at home,,,,,,,,,,,,,
6,5,987,A,15.068153066537691,31.02781499072741,0.7534076533268846,0.4873837781590625,A,592.3007999663241,Correct,sub_006_day_05_data.csv,1,300,39.0,Training at home,,,,,,,,,,,,,
6,5,988,A,32.70237680056493,50.55956735448164,1.6351188400282464,0.7941878268475893,A,886.4696000237018,Correct,sub_006_day_05_data.csv,1,300,39.0,Training at home,,,,,,,,,,,,,
6,5,989,B,76.03848793014762,61.493321360348006,3.8019243965073817,0.965934833152528,B,582.341700035613,Correct,sub_006_day_05_data.csv,1,300,39.0,Training at home,,,,,,,,,,,,,
6,5,990,B,73.7145876695543,44.06141847149014,3.685729383477715,0.6921151428838952,B,511.81629998609424,Correct,sub_006_day_05_data.csv,1,300,39.0,Training at home,,,,,,,,,,,,,
6,5,991,A,38.85004036259885,53.34816059684353,1.9425020181299424,0.8379909470678604,B,844.8760999599472,Incorrect,sub_006_day_05_data.csv,0,300,39.0,Training at home,,,,,,,,,,,,,
6,5,992,B,63.68604076732417,33.270718076943766,3.1843020383662086,0.5226152174509183,B,566.2615000037476,Correct,sub_006_day_05_data.csv,1,300,39.0,Training at home,,,,,,,,,,,,,
6,5,993,A,39.90402859388338,48.150752160227846,1.995201429694169,0.7563502462569733,A,822.4528999999166,Correct,sub_006_day_05_data.csv,1,300,39.0,Training at home,,,,,,,,,,,,,
6,5,994,A,32.01879253221682,64.73127446277859,1.600939626610841,1.0167964815488488,A,565.1266000350006,Correct,sub_006_day_05_data.csv,1,300,39.0,Training at home,,,,,,,,,,,,,
6,5,995,B,79.06259592273963,60.23620124080596,3.953129796136982,0.946188036491362,B,553.7683000438847,Correct,sub_006_day_05_data.csv,1,300,39.0,Training at home,,,,,,,,,,,,,
6,5,996,B,85.39847257803325,60.88907634886793,4.269923628901663,0.9564433747073576,B,605.754500022158,Correct,sub_006_day_05_data.csv,1,300,39.0,Training at home,,,,,,,,,,,,,
6,5,997,A,61.61875794946037,86.3906436471347,3.0809378974730186,1.3570210571036607,A,882.6929000206292,Correct,sub_006_day_05_data.csv,1,300,39.0,Training at home,,,,,,,,,,,,,
6,5,998,A,57.690978121363,84.55633619445612,2.88454890606815,1.3282078230148606,A,592.265400046017,Correct,sub_006_day_05_data.csv,1,300,39.0,Training at home,,,,,,,,,,,,,
6,5,999,A,52.844361722225024,62.69122429469793,2.642218086111251,0.984751448443865,B,924.4612000184134,Incorrect,sub_006_day_05_data.csv,0,300,39.0,Training at home,,,,,,,,,,,,,
6,5,1000,B,53.91544237967149,42.5307664723329,2.695772118983575,0.6680717175051205,B,1022.5131000042892,Correct,sub_006_day_05_data.csv,1,300,40.0,Training at home,,,,,,,,,,,,,
6,5,1001,B,80.28832562970055,55.300163455919545,4.014416281485028,0.868652936277158,B,588.7463999679312,Correct,sub_006_day_05_data.csv,1,300,40.0,Training at home,,,,,,,,,,,,,
6,5,1002,B,69.93174878895873,42.02383836953994,3.496587439447936,0.6601089094869578,B,544.3068000022322,Correct,sub_006_day_05_data.csv,1,300,40.0,Training at home,,,,,,,,,,,,,
6,5,1003,A,30.752671186226216,42.27093793808852,1.5376335593113108,0.6639903404332448,A,690.835400018841,Correct,sub_006_day_05_data.csv,1,300,40.0,Training at home,,,,,,,,,,,,,
6,5,1004,A,13.760055356445717,40.63977334914496,0.6880027678222858,0.6383680669861403,A,506.48389995330945,Correct,sub_006_day_05_data.csv,1,300,40.0,Training at home,,,,,,,,,,,,,
6,5,1005,B,67.67689177548587,41.44303892469572,3.383844588774293,0.6509857331412996,B,582.5612000189722,Correct,sub_006_day_05_data.csv,1,300,40.0,Training at home,,,,,,,,,,,,,
6,5,1006,B,57.203811960249496,27.69791522185564,2.8601905980124744,0.4350778349036729,B,506.151299981866,Correct,sub_006_day_05_data.csv,1,300,40.0,Training at home,,,,,,,,,,,,,
6,5,1007,A,19.29165018125529,37.57138625924384,0.9645825090627644,0.5901699552861247,A,542.7015000022948,Correct,sub_006_day_05_data.csv,1,300,40.0,Training at home,,,,,,,,,,,,,
6,5,1008,A,54.333320425169646,78.86240732748954,2.716666021258482,1.2387677975222349,A,812.9257999826223,Correct,sub_006_day_05_data.csv,1,300,40.0,Training at home,,,,,,,,,,,,,
6,5,1009,B,31.08750674427547,10.533002319812478,1.5543753372137734,0.1654520135408356,B,758.6983000510372,Correct,sub_006_day_05_data.csv,1,300,40.0,Training at home,,,,,,,,,,,,,
6,5,1010,A,15.666876469873491,37.716951706636365,0.7833438234936747,0.5924564919868491,A,512.7441000076942,Correct,sub_006_day_05_data.csv,1,300,40.0,Training at home,,,,,,,,,,,,,
6,5,1011,B,53.7490184651813,24.27899458941706,2.6874509232590653,0.3813735551932948,B,631.8271000054665,Correct,sub_006_day_05_data.csv,1,300,40.0,Training at home,,,,,,,,,,,,,
6,5,1012,A,45.23084554349088,57.06743695215381,2.261542277174544,0.8964132034404255,A,951.06210000813,Correct,sub_006_day_05_data.csv,1,300,40.0,Training at home,,,,,,,,,,,,,
6,5,1013,B,83.95169340545768,55.624756692621176,4.197584670272883,0.8737516349162918,B,515.0644000386819,Correct,sub_006_day_05_data.csv,1,300,40.0,Training at home,,,,,,,,,,,,,
6,5,1014,B,37.22026876899317,18.50204771485084,1.8610134384496584,0.290629485886716,A,577.0525999832898,Incorrect,sub_006_day_05_data.csv,0,300,40.0,Training at home,,,,,,,,,,,,,
6,5,1015,A,19.732503848898904,37.75480681414598,0.9866251924449452,0.5930511186251143,A,612.5589000293985,Correct,sub_006_day_05_data.csv,1,300,40.0,Training at home,,,,,,,,,,,,,
6,5,1016,B,52.440084040669255,41.76885355624677,2.6220042020334624,0.6561036174058638,B,497.9188999859616,Correct,sub_006_day_05_data.csv,1,300,40.0,Training at home,,,,,,,,,,,,,
6,5,1017,B,67.89113501664532,37.38363050795345,3.394556750832266,0.587220694841509,B,495.92229997506365,Correct,sub_006_day_05_data.csv,1,300,40.0,Training at home,,,,,,,,,,,,,
6,5,1018,A,39.45236126506031,51.81231046007163,1.9726180632530157,0.8138658695343732,B,610.3042000322603,Incorrect,sub_006_day_05_data.csv,0,300,40.0,Training at home,,,,,,,,,,,,,
6,5,1019,B,42.08967956361892,16.891819696414828,2.104483978180946,0.265336083320101,B,755.6784999906085,Correct,sub_006_day_05_data.csv,1,300,40.0,Training at home,,,,,,,,,,,,,
6,5,1020,A,47.562309993211485,58.74120562492158,2.3781154996605745,0.9227047002713054,A,786.5686999866739,Correct,sub_006_day_05_data.csv,1,300,40.0,Training at home,,,,,,,,,,,,,
6,5,1021,B,71.59292819413739,59.310491925170595,3.579646409706869,0.9316470285645632,B,561.3456999999471,Correct,sub_006_day_05_data.csv,1,300,40.0,Training at home,,,,,,,,,,,,,
6,5,1022,B,64.3221482007978,50.63198292485208,3.21610741003989,0.7953253279669957,B,1216.1315999692306,Correct,sub_006_day_05_data.csv,1,300,40.0,Training at home,,,,,,,,,,,,,
6,5,1023,B,68.2517148434885,46.213930167201,3.412585742174425,0.725926717533952,B,548.189299996011,Correct,sub_006_day_05_data.csv,1,300,40.0,Training at home,,,,,,,,,,,,,
6,5,1024,B,53.12451392351699,33.0514648437131,2.65622569617585,0.519171195716952,B,738.0933000240475,Correct,sub_006_day_05_data.csv,1,300,40.0,Training at home,,,,,,,,,,,,,
6,5,1025,B,47.77739969444788,23.064170612922148,2.388869984722394,0.3622911447934891,B,536.5263000130653,Correct,sub_006_day_05_data.csv,1,300,41.0,Training at home,,,,,,,,,,,,,
6,5,1026,B,81.45798379177855,53.53370699636814,4.072899189588927,0.8409055030960931,B,469.7566999820992,Correct,sub_006_day_05_data.csv,1,300,41.0,Training at home,,,,,,,,,,,,,
6,5,1027,B,82.16396994030887,60.052238917040555,4.108198497015444,0.9432983630669683,B,466.03690000483766,Correct,sub_006_day_05_data.csv,1,300,41.0,Training at home,,,,,,,,,,,,,
6,5,1028,B,53.086356844797265,43.90253859902807,2.654317842239863,0.6896194636832446,B,487.1918999706395,Correct,sub_006_day_05_data.csv,1,300,41.0,Training at home,,,,,,,,,,,,,
6,5,1029,B,57.39950480431299,39.79290925200417,2.8699752402156498,0.6250655568553081,B,588.9475999865681,Correct,sub_006_day_05_data.csv,1,300,41.0,Training at home,,,,,,,,,,,,,
6,5,1030,B,48.36074503416624,36.80260949537409,2.4180372517083124,0.5780940381180061,B,859.2851999565028,Correct,sub_006_day_05_data.csv,1,300,41.0,Training at home,,,,,,,,,,,,,
6,5,1031,B,69.52703629271214,46.31214106511192,3.4763518146356067,0.7274694107108489,B,614.8745000245981,Correct,sub_006_day_05_data.csv,1,300,41.0,Training at home,,,,,,,,,,,,,
6,5,1032,A,48.77633913386049,56.71264727483226,2.4388169566930245,0.8908401802212111,A,822.7154999622144,Correct,sub_006_day_05_data.csv,1,300,41.0,Training at home,,,,,,,,,,,,,
6,5,1033,A,58.75314867824622,84.99962582216901,2.937657433912311,1.3351710002040371,A,814.2834000173025,Correct,sub_006_day_05_data.csv,1,300,41.0,Training at home,,,,,,,,,,,,,
6,5,1034,A,27.64616045241323,47.83007492072536,1.3823080226206617,0.7513130599580009,A,597.5072999717668,Correct,sub_006_day_05_data.csv,1,300,41.0,Training at home,,,,,,,,,,,,,
6,5,1035,A,42.24777962584275,57.18890708563782,2.1123889812921375,0.8983212518353453,A,504.4698999845423,Correct,sub_006_day_05_data.csv,1,300,41.0,Training at home,,,,,,,,,,,,,
6,5,1036,B,53.09013622231496,30.764630420266514,2.654506811115748,0.4832496845935717,B,712.0874000247568,Correct,sub_006_day_05_data.csv,1,300,41.0,Training at home,,,,,,,,,,,,,
6,5,1037,A,44.55673663448125,64.23949444674699,2.2278368317240624,1.009071619121113,A,1611.3168000010774,Correct,sub_006_day_05_data.csv,1,300,41.0,Training at home,,,,,,,,,,,,,
6,5,1038,B,54.52622669653143,24.470052443690857,2.7263113348265717,0.3843746849502809,B,540.3130000340752,Correct,sub_006_day_05_data.csv,1,300,41.0,Training at home,,,,,,,,,,,,,
6,5,1039,B,47.40574883557542,18.68682816347693,2.370287441778771,0.2935320103863699,B,757.2067999863066,Correct,sub_006_day_05_data.csv,1,300,41.0,Training at home,,,,,,,,,,,,,
6,5,1040,B,60.56733302252725,46.71656466054143,3.0283666511263623,0.7338220816925476,B,612.9935000208206,Correct,sub_006_day_05_data.csv,1,300,41.0,Training at home,,,,,,,,,,,,,
6,5,1041,A,41.3998034033921,67.82883577008931,2.069990170169605,1.065452860784306,A,927.8903999947944,Correct,sub_006_day_05_data.csv,1,300,41.0,Training at home,,,,,,,,,,,,,
6,5,1042,B,57.96409077042158,34.05970149559104,2.898204538521079,0.5350085400100505,B,741.3412000169046,Correct,sub_006_day_05_data.csv,1,300,41.0,Training at home,,,,,,,,,,,,,
6,5,1043,B,63.54526484810234,41.14918344551542,3.177263242405117,0.6463698620682499,B,580.1178999827243,Correct,sub_006_day_05_data.csv,1,300,41.0,Training at home,,,,,,,,,,,,,
6,5,1044,A,40.70138698591454,57.909081838793,2.035069349295727,0.909633730404411,A,804.2297000065446,Correct,sub_006_day_05_data.csv,1,300,41.0,Training at home,,,,,,,,,,,,,
6,5,1045,B,67.23216608755217,43.571221317387455,3.361608304377609,0.6844151439931971,B,878.5301999887452,Correct,sub_006_day_05_data.csv,1,300,41.0,Training at home,,,,,,,,,,,,,
6,5,1046,A,21.64774394094475,39.20901066394741,1.0823871970472374,0.6158936992819052,A,510.65000001108274,Correct,sub_006_day_05_data.csv,1,300,41.0,Training at home,,,,,,,,,,,,,
6,5,1047,A,28.35709863689685,39.37358696560547,1.4178549318448426,0.618478857783125,A,568.6257000197656,Correct,sub_006_day_05_data.csv,1,300,41.0,Training at home,,,,,,,,,,,,,
6,5,1048,A,65.52650950399304,76.42736372284048,3.276325475199652,1.2005182220245536,A,840.3102999436669,Correct,sub_006_day_05_data.csv,1,300,41.0,Training at home,,,,,,,,,,,,,
6,5,1049,B,86.88591838905566,69.37549252159927,4.344295919452783,1.0897476882251491,A,1111.200599989388,Incorrect,sub_006_day_05_data.csv,0,300,41.0,Training at home,,,,,,,,,,,,,
6,5,1050,A,34.103204321085244,52.044973633137744,1.705160216054262,0.8175205341107,A,599.7557999799028,Correct,sub_006_day_05_data.csv,1,300,42.0,Training at home,,,,,,,,,,,,,
6,5,1051,A,23.161996557601707,42.49702532226169,1.1580998278800854,0.6675417127591837,A,504.7315999981947,Correct,sub_006_day_05_data.csv,1,300,42.0,Training at home,,,,,,,,,,,,,
6,5,1052,A,33.34780823088764,54.45086068106513,1.6673904115443818,0.8553121194863776,A,498.06559999706224,Correct,sub_006_day_05_data.csv,1,300,42.0,Training at home,,,,,,,,,,,,,
6,5,1053,B,58.58234872334413,28.693794965142757,2.929117436167207,0.4507210773305213,B,788.5515000089072,Correct,sub_006_day_05_data.csv,1,300,42.0,Training at home,,,,,,,,,,,,,
6,5,1054,A,32.66440130259907,46.815807220423686,1.633220065129953,0.7353809801777952,A,930.55380001897,Correct,sub_006_day_05_data.csv,1,300,42.0,Training at home,,,,,,,,,,,,,
6,5,1055,A,39.144764276793246,50.2376931321755,1.9572382138396625,0.7891318383867046,A,509.5578000182286,Correct,sub_006_day_05_data.csv,1,300,42.0,Training at home,,,,,,,,,,,,,
6,5,1056,B,47.410168310736566,33.74383155725029,2.370508415536828,0.5300468666211446,A,417.20369999529794,Incorrect,sub_006_day_05_data.csv,0,300,42.0,Training at home,,,,,,,,,,,,,
6,5,1057,A,50.21380110550568,60.213582478632986,2.510690055275284,0.9458327418059824,A,1273.767200007569,Correct,sub_006_day_05_data.csv,1,300,42.0,Training at home,,,,,,,,,,,,,
6,5,1058,A,24.893726709322777,55.68847098917253,1.2446863354661388,0.8747524567461638,A,542.3969999537803,Correct,sub_006_day_05_data.csv,1,300,42.0,Training at home,,,,,,,,,,,,,
6,5,1059,A,35.83610961527367,58.718017328099464,1.7918054807636836,0.9223404593565772,A,537.1894999989308,Correct,sub_006_day_05_data.csv,1,300,42.0,Training at home,,,,,,,,,,,,,
6,5,1060,B,68.09514733719556,48.79651533138315,3.4047573668597777,0.766493870429275,B,1774.4934000074863,Correct,sub_006_day_05_data.csv,1,300,42.0,Training at home,,,,,,,,,,,,,
6,5,1061,B,64.76081024813253,47.51873356141687,3.2380405124066267,0.74642252132219,B,601.756599964574,Correct,sub_006_day_05_data.csv,1,300,42.0,Training at home,,,,,,,,,,,,,
6,5,1062,B,62.18857008182524,35.0083270700311,3.109428504091262,0.549909515688392,B,817.2109000151977,Correct,sub_006_day_05_data.csv,1,300,42.0,Training at home,,,,,,,,,,,,,
6,5,1063,B,60.83796459061858,47.82317729754201,3.041898229530929,0.7512047123464008,B,587.6614999724552,Correct,sub_006_day_05_data.csv,1,300,42.0,Training at home,,,,,,,,,,,,,
6,5,1064,B,88.2986488166147,62.7138283502922,4.414932440830735,0.9851065121188464,B,560.8880000072531,Correct,sub_006_day_05_data.csv,1,300,42.0,Training at home,,,,,,,,,,,,,
6,5,1065,A,36.4425285255955,44.52006055424373,1.822126426279775,0.6993194758729242,A,587.6614999724552,Correct,sub_006_day_05_data.csv,1,300,42.0,Training at home,,,,,,,,,,,,,
6,5,1066,B,39.00186673437808,26.005935163680224,1.9500933367189044,0.4085002742997513,A,633.7212999933399,Incorrect,sub_006_day_05_data.csv,0,300,42.0,Training at home,,,,,,,,,,,,,
6,5,1067,B,59.65492232566444,28.548377263837676,2.982746116283222,0.4484368614199115,B,546.8259999761358,Correct,sub_006_day_05_data.csv,1,300,42.0,Training at home,,,,,,,,,,,,,
6,5,1068,B,78.48346222031384,66.35159134864567,3.924173111015692,1.0422483596744865,B,1307.4362999759614,Correct,sub_006_day_05_data.csv,1,300,42.0,Training at home,,,,,,,,,,,,,
6,5,1069,A,63.76284776808493,82.57448563461604,3.1881423884042466,1.2970769872183283,A,2019.0524000208825,Correct,sub_006_day_05_data.csv,1,300,42.0,Training at home,,,,,,,,,,,,,
6,5,1070,B,67.51605759581248,39.246527209778414,3.375802879790624,0.6164830078057589,B,619.7642000042833,Correct,sub_006_day_05_data.csv,1,300,42.0,Training at home,,,,,,,,,,,,,
6,5,1071,A,37.77477814747913,53.94784408092212,1.8887389073739569,0.8474107532081626,A,665.4318000073545,Correct,sub_006_day_05_data.csv,1,300,42.0,Training at home,,,,,,,,,,,,,
6,5,1072,A,54.41335329541788,70.78119155346131,2.720667664770894,1.11182835698343,A,572.9976000147872,Correct,sub_006_day_05_data.csv,1,300,42.0,Training at home,,,,,,,,,,,,,
6,5,1073,A,24.066401410823197,47.194858270668846,1.20332007054116,0.7413351001517238,A,601.0154000250623,Correct,sub_006_day_05_data.csv,1,300,42.0,Training at home,,,,,,,,,,,,,
6,5,1074,B,78.89335027817634,60.437050795707286,3.944667513908817,0.9493429739221358,B,540.4114999691956,Correct,sub_006_day_05_data.csv,1,300,42.0,Training at home,,,,,,,,,,,,,
6,5,1075,B,60.11152439462754,30.96747253156174,3.0055762197313767,0.4864359210269904,B,839.8496999870986,Correct,sub_006_day_05_data.csv,1,300,43.0,Training at home,,,,,,,,,,,,,
6,5,1076,A,23.28439228552329,40.923750648091755,1.1642196142761645,0.642828771966928,A,517.6046999986283,Correct,sub_006_day_05_data.csv,1,300,43.0,Training at home,,,,,,,,,,,,,
6,5,1077,A,17.53777637307444,43.55156038760761,0.8768888186537219,0.6841063108304015,A,535.8789000310935,Correct,sub_006_day_05_data.csv,1,300,43.0,Training at home,,,,,,,,,,,,,
6,5,1078,B,41.84595866421334,31.31623761191721,2.0922979332106673,0.4919143100983573,A,924.6216000174172,Incorrect,sub_006_day_05_data.csv,0,300,43.0,Training at home,,,,,,,,,,,,,
6,5,1079,A,42.86835253055495,64.635992341636,2.1434176265277474,1.015299793489849,A,986.5215999889188,Correct,sub_006_day_05_data.csv,1,300,43.0,Training at home,,,,,,,,,,,,,
6,5,1080,B,44.93159951264672,30.460048182598833,2.246579975632336,0.4784653179922181,B,629.8550000065006,Correct,sub_006_day_05_data.csv,1,300,43.0,Training at home,,,,,,,,,,,,,
6,5,1081,B,83.2815409319775,58.085350869090036,4.164077046598875,0.9124025578575938,B,745.3731999848969,Correct,sub_006_day_05_data.csv,1,300,43.0,Training at home,,,,,,,,,,,,,
6,5,1082,B,62.96663789427897,38.381743297160945,3.1483318947139485,0.6028990138716505,B,521.1770000169054,Correct,sub_006_day_05_data.csv,1,300,43.0,Training at home,,,,,,,,,,,,,
6,5,1083,A,43.09369055126359,68.87248241933207,2.1546845275631794,1.0818464240153294,A,836.4011999801733,Correct,sub_006_day_05_data.csv,1,300,43.0,Training at home,,,,,,,,,,,,,
6,5,1084,A,36.497479890084854,47.7733020524679,1.8248739945042427,0.7504212738287966,B,742.2391999862157,Incorrect,sub_006_day_05_data.csv,0,300,43.0,Training at home,,,,,,,,,,,,,
6,5,1085,B,75.61300647127837,61.68804228584927,3.7806503235639184,0.9689935022978028,B,597.0761000062339,Correct,sub_006_day_05_data.csv,1,300,43.0,Training at home,,,,,,,,,,,,,
6,5,1086,B,73.63465218000755,54.073277676115936,3.6817326090003775,0.849381059514034,B,522.6939999847673,Correct,sub_006_day_05_data.csv,1,300,43.0,Training at home,,,,,,,,,,,,,
6,5,1087,A,27.53451103106899,52.17767176985983,1.3767255515534496,0.8196049515680559,A,816.0080999950878,Correct,sub_006_day_05_data.csv,1,300,43.0,Training at home,,,,,,,,,,,,,
6,5,1088,B,80.0983909876875,52.046294937648895,4.0049195493843746,0.817541289113427,B,1892.1577999717556,Correct,sub_006_day_05_data.csv,1,300,43.0,Training at home,,,,,,,,,,,,,
6,5,1089,A,29.313636571854172,62.5069510946239,1.4656818285927085,0.9818568917858348,A,693.9018000266515,Correct,sub_006_day_05_data.csv,1,300,43.0,Training at home,,,,,,,,,,,,,
6,5,1090,A,64.72924248001462,80.74130368149882,3.2364621240007305,1.268281432435296,B,678.0048999935389,Incorrect,sub_006_day_05_data.csv,0,300,43.0,Training at home,,,,,,,,,,,,,
6,5,1091,A,26.39227666322398,53.59327095410397,1.319613833161199,0.8418411315563012,A,559.5810999511741,Correct,sub_006_day_05_data.csv,1,300,43.0,Training at home,,,,,,,,,,,,,
6,5,1092,A,36.14658860953306,62.74947595409603,1.8073294304766532,0.9856664633699872,A,706.9781000027433,Correct,sub_006_day_05_data.csv,1,300,43.0,Training at home,,,,,,,,,,,,,
6,5,1093,B,57.80961439899774,47.38167967288207,2.8904807199498865,0.7442696838753557,B,816.4284999947995,Correct,sub_006_day_05_data.csv,1,300,43.0,Training at home,,,,,,,,,,,,,
6,5,1094,B,47.75922085963994,25.87975915535674,2.387961042981997,0.4065183061957096,B,675.0831999816,Correct,sub_006_day_05_data.csv,1,300,43.0,Training at home,,,,,,,,,,,,,
6,5,1095,B,70.21811549174119,39.42927992359283,3.510905774587059,0.6193536807214738,B,545.2307999948971,Correct,sub_006_day_05_data.csv,1,300,43.0,Training at home,,,,,,,,,,,,,
6,5,1096,B,60.11902740495924,27.704083093816003,3.005951370247962,0.4351747196098676,B,609.8805000074208,Correct,sub_006_day_05_data.csv,1,300,43.0,Training at home,,,,,,,,,,,,,
6,5,1097,A,35.38752910437784,56.817853134826606,1.7693764552188922,0.8924927500055754,A,681.3423999701627,Correct,sub_006_day_05_data.csv,1,300,43.0,Training at home,,,,,,,,,,,,,
6,5,1098,A,45.32292028735381,55.27983965573827,2.2661460143676906,0.8683336907704455,B,1032.3241000296548,Incorrect,sub_006_day_05_data.csv,0,300,43.0,Training at home,,,,,,,,,,,,,
6,5,1099,A,26.705197594232224,42.99368072418319,1.3352598797116113,0.6753431575693951,A,629.52709995443,Correct,sub_006_day_05_data.csv,1,300,43.0,Training at home,,,,,,,,,,,,,
6,5,1100,B,47.27169747135462,39.34517745951417,2.363584873567731,0.6180326023049821,B,591.6773999924771,Correct,sub_006_day_05_data.csv,1,300,44.0,Training at home,,,,,,,,,,,,,
6,5,1101,A,59.75037583041193,87.27948808467708,2.9875187915205963,1.3709829928794972,A,1124.5347000076436,Correct,sub_006_day_05_data.csv,1,300,44.0,Training at home,,,,,,,,,,,,,
6,5,1102,B,74.04673870853433,47.10732668172535,3.702336935426717,0.739960157167814,B,517.8022000472993,Correct,sub_006_day_05_data.csv,1,300,44.0,Training at home,,,,,,,,,,,,,
6,5,1103,A,51.87792876579543,70.92939017402358,2.5938964382897716,1.1141562554715827,B,648.6294000060298,Incorrect,sub_006_day_05_data.csv,0,300,44.0,Training at home,,,,,,,,,,,,,
6,5,1104,B,45.81424627322099,22.20787432593838,2.290712313661049,0.348840474171067,B,970.4202999710104,Correct,sub_006_day_05_data.csv,1,300,44.0,Training at home,,,,,,,,,,,,,
6,5,1105,B,55.00794876639366,23.69948180704486,2.7503974383196828,0.3722705896944854,B,554.7273000120185,Correct,sub_006_day_05_data.csv,1,300,44.0,Training at home,,,,,,,,,,,,,
6,5,1106,A,36.2350947563779,60.93735057726611,1.8117547378188947,0.9572016645138248,A,644.7299999999814,Correct,sub_006_day_05_data.csv,1,300,44.0,Training at home,,,,,,,,,,,,,
6,5,1107,B,75.8204591518072,54.77588395850077,3.79102295759036,0.8604175731895651,B,534.7079000202939,Correct,sub_006_day_05_data.csv,1,300,44.0,Training at home,,,,,,,,,,,,,
6,5,1108,A,29.65036674722832,58.11024294947471,1.4825183373614157,0.912793561741939,A,666.4164999965578,Correct,sub_006_day_05_data.csv,1,300,44.0,Training at home,,,,,,,,,,,,,
6,5,1109,B,78.9376281803359,63.99529221320354,3.946881409016795,1.0052356994066616,B,648.4731000382453,Correct,sub_006_day_05_data.csv,1,300,44.0,Training at home,,,,,,,,,,,,,
6,5,1110,A,53.62326404360778,66.18754902850425,2.6811632021803895,1.039671588935316,B,1128.5343999625184,Incorrect,sub_006_day_05_data.csv,0,300,44.0,Training at home,,,,,,,,,,,,,
6,5,1111,A,20.99692881967808,50.23122415056038,1.049846440983904,0.7890302238611133,A,611.7287999950349,Correct,sub_006_day_05_data.csv,1,300,44.0,Training at home,,,,,,,,,,,,,
6,5,1112,B,60.64148254576914,33.398655832656004,3.0320741272884573,0.5246248590182301,B,495.77969999518245,Correct,sub_006_day_05_data.csv,1,300,44.0,Training at home,,,,,,,,,,,,,
6,5,1113,B,59.99414979699669,45.05412744994731,2.9997074898498344,0.7077085790532635,B,593.5358999995515,Correct,sub_006_day_05_data.csv,1,300,44.0,Training at home,,,,,,,,,,,,,
6,5,1114,B,48.784211491264806,19.612062723456443,2.43921057456324,0.3080655608687649,B,626.1622000019997,Correct,sub_006_day_05_data.csv,1,300,44.0,Training at home,,,,,,,,,,,,,
6,5,1115,B,81.93389484068656,56.77982672831692,4.096694742034328,0.891895432608909,B,1000.8442000253126,Correct,sub_006_day_05_data.csv,1,300,44.0,Training at home,,,,,,,,,,,,,
6,5,1116,B,60.81386326300169,32.61134304250303,3.0406931631500846,0.5122577786301207,B,503.2636999967508,Correct,sub_006_day_05_data.csv,1,300,44.0,Training at home,,,,,,,,,,,,,
6,5,1117,B,31.396804408252816,13.006737340805866,1.5698402204126407,0.2043093523852387,A,625.2035000361502,Incorrect,sub_006_day_05_data.csv,0,300,44.0,Training at home,,,,,,,,,,,,,
6,5,1118,B,76.74155402903446,61.22672497482276,3.837077701451723,0.9617471469213296,B,650.886100018397,Correct,sub_006_day_05_data.csv,1,300,44.0,Training at home,,,,,,,,,,,,,
6,5,1119,B,53.11044524052774,23.23554611942577,2.6555222620263867,0.3649831049546742,B,631.4201000495814,Correct,sub_006_day_05_data.csv,1,300,44.0,Training at home,,,,,,,,,,,,,
6,5,1120,A,45.66768892082589,52.57029363051215,2.2833844460412944,0.8257722413333763,A,777.1490999730304,Correct,sub_006_day_05_data.csv,1,300,44.0,Training at home,,,,,,,,,,,,,
6,5,1121,A,53.06438587640768,65.11110630350271,2.6532192938203845,1.022762866150941,B,1064.546000037808,Incorrect,sub_006_day_05_data.csv,0,300,44.0,Training at home,,,,,,,,,,,,,
6,5,1122,B,36.50076689982687,19.74742143138747,1.8250383449913437,0.3101917704809425,B,826.1354999849573,Correct,sub_006_day_05_data.csv,1,300,44.0,Training at home,,,,,,,,,,,,,
6,5,1123,A,32.63398085209366,51.452370936011825,1.631699042604683,0.8082119527117587,A,935.3865000302904,Correct,sub_006_day_05_data.csv,1,300,44.0,Training at home,,,,,,,,,,,,,
6,5,1124,A,31.00600337575907,62.936332496332255,1.5503001687879534,0.98860159907181,A,574.0289999521337,Correct,sub_006_day_05_data.csv,1,300,44.0,Training at home,,,,,,,,,,,,,
6,5,1125,B,62.45072040616599,32.046800377946596,3.1225360203082992,0.5033899631920782,B,851.457400014624,Correct,sub_006_day_05_data.csv,1,300,45.0,Training at home,,,,,,,,,,,,,
6,5,1126,A,22.503317546870747,44.76709662419252,1.1251658773435371,0.7031999093855382,A,489.8304000380449,Correct,sub_006_day_05_data.csv,1,300,45.0,Training at home,,,,,,,,,,,,,
6,5,1127,A,34.547911220002035,59.83648343642878,1.727395561000102,0.93990928390266,A,601.3026000000536,Correct,sub_006_day_05_data.csv,1,300,45.0,Training at home,,,,,,,,,,,,,
6,5,1128,A,41.32358890114304,71.61236257310911,2.066179445057152,1.1248843608294412,A,438.4783999994397,Correct,sub_006_day_05_data.csv,1,300,45.0,Training at home,,,,,,,,,,,,,
6,5,1129,B,48.92332097756052,31.48906551103362,2.4461660488780264,0.4946290843893547,B,727.5169999920763,Correct,sub_006_day_05_data.csv,1,300,45.0,Training at home,,,,,,,,,,,,,
6,5,1130,A,54.66339727754313,78.7867660660449,2.7331698638771567,1.2375796273659214,B,643.6485999729484,Incorrect,sub_006_day_05_data.csv,0,300,45.0,Training at home,,,,,,,,,,,,,
6,5,1131,A,30.383465565372468,52.26816481824966,1.5191732782686234,0.821026413048168,A,494.4865999859758,Correct,sub_006_day_05_data.csv,1,300,45.0,Training at home,,,,,,,,,,,,,
6,5,1132,B,49.72430009291286,23.073658414048364,2.486215004645643,0.3624401788250733,B,624.4172999868169,Correct,sub_006_day_05_data.csv,1,300,45.0,Training at home,,,,,,,,,,,,,
6,5,1133,B,76.74039922574639,48.486269573996395,3.8370199612873193,0.7616205414682069,B,525.6745999795385,Correct,sub_006_day_05_data.csv,1,300,45.0,Training at home,,,,,,,,,,,,,
6,5,1134,A,63.34306478655077,86.15679679788559,3.1671532393275386,1.3533477993853298,A,789.218699967023,Correct,sub_006_day_05_data.csv,1,300,45.0,Training at home,,,,,,,,,,,,,
6,5,1135,A,33.74471271858106,66.8996825612437,1.6872356359290532,1.050857756309462,A,561.7850999697112,Correct,sub_006_day_05_data.csv,1,300,45.0,Training at home,,,,,,,,,,,,,
6,5,1136,B,57.9626271159433,28.91655980077379,2.8981313557971653,0.4542202591860043,B,667.3597000190057,Correct,sub_006_day_05_data.csv,1,300,45.0,Training at home,,,,,,,,,,,,,
6,5,1137,A,38.777384400569,57.87633083248782,1.93886922002845,0.9091192788003808,A,1177.8999000089243,Correct,sub_006_day_05_data.csv,1,300,45.0,Training at home,,,,,,,,,,,,,
6,5,1138,B,47.28784080114068,21.44320996086339,2.364392040057034,0.3368291544121595,B,559.2558000353165,Correct,sub_006_day_05_data.csv,1,300,45.0,Training at home,,,,,,,,,,,,,
6,5,1139,A,50.552895450016806,77.7474226463339,2.5276447725008406,1.2212536591063166,A,712.1831999975257,Correct,sub_006_day_05_data.csv,1,300,45.0,Training at home,,,,,,,,,,,,,
6,5,1140,B,59.82626436232812,30.077352547947378,2.9913132181164057,0.4724539490203087,B,729.1903999866918,Correct,sub_006_day_05_data.csv,1,300,45.0,Training at home,,,,,,,,,,,,,
6,5,1141,B,48.38561667148929,36.11918831048641,2.419280833574464,0.5673588832492521,B,705.3344000014476,Correct,sub_006_day_05_data.csv,1,300,45.0,Training at home,,,,,,,,,,,,,
6,5,1142,A,41.90610344859911,67.23650236621008,2.0953051724299554,1.0561485094337917,A,1469.6722999797205,Correct,sub_006_day_05_data.csv,1,300,45.0,Training at home,,,,,,,,,,,,,
6,5,1143,B,74.25562583355382,57.754365466724906,3.712781291677691,0.9072034513150148,B,971.146099967882,Correct,sub_006_day_05_data.csv,1,300,45.0,Training at home,,,,,,,,,,,,,
6,5,1144,A,36.18324260792129,61.15075202153141,1.809162130396064,0.9605537665616714,A,734.1504000360146,Correct,sub_006_day_05_data.csv,1,300,45.0,Training at home,,,,,,,,,,,,,
6,5,1145,A,54.387842754357905,83.15943357366055,2.7193921377178953,1.306265327958502,B,884.9934000172652,Incorrect,sub_006_day_05_data.csv,0,300,45.0,Training at home,,,,,,,,,,,,,
6,5,1146,B,36.23615190897286,11.16358593102852,1.8118075954486428,0.1753571977431878,B,993.4963000123388,Correct,sub_006_day_05_data.csv,1,300,45.0,Training at home,,,,,,,,,,,,,
6,5,1147,B,54.744081086229926,36.7445530119701,2.7372040543114964,0.5771820890092298,B,1230.170700000599,Correct,sub_006_day_05_data.csv,1,300,45.0,Training at home,,,,,,,,,,,,,
6,5,1148,B,79.39862056321563,49.667791954684105,3.969931028160781,0.7801798516243091,B,1305.8807000052184,Correct,sub_006_day_05_data.csv,1,300,45.0,Training at home,,,,,,,,,,,,,
6,5,1149,A,69.57498624147226,85.18365184251938,3.4787493120736133,1.338061674172048,A,994.07869996503,Correct,sub_006_day_05_data.csv,1,300,45.0,Training at home,,,,,,,,,,,,,
6,5,1150,A,39.17036484574223,69.78265173198365,1.9585182422871117,1.0961433301460743,A,643.9348000567406,Correct,sub_006_day_05_data.csv,1,300,46.0,Training at home,,,,,,,,,,,,,
6,5,1151,A,16.3977251540573,32.29006849801284,0.819886257702865,0.5072112098863417,A,570.952899986878,Correct,sub_006_day_05_data.csv,1,300,46.0,Training at home,,,,,,,,,,,,,
6,5,1152,B,55.51483936190171,25.637152148613268,2.775741968095085,0.4027074442452361,B,927.4794000084512,Correct,sub_006_day_05_data.csv,1,300,46.0,Training at home,,,,,,,,,,,,,
6,5,1153,A,61.684144610796906,85.85422389412635,3.0842072305398456,1.348594995327203,A,1556.785899971146,Correct,sub_006_day_05_data.csv,1,300,46.0,Training at home,,,,,,,,,,,,,
6,5,1154,B,51.78726009541773,32.052255760164506,2.5893630047708864,0.5034756561355697,B,679.7048999578692,Correct,sub_006_day_05_data.csv,1,300,46.0,Training at home,,,,,,,,,,,,,
6,5,1155,A,56.02331013642728,82.67670215505674,2.801165506821365,1.2986826005667884,A,686.1606999882497,Correct,sub_006_day_05_data.csv,1,300,46.0,Training at home,,,,,,,,,,,,,
6,5,1156,B,71.43698286829391,42.042467913143376,3.5718491434146955,0.6604015416735791,B,619.6249999920838,Correct,sub_006_day_05_data.csv,1,300,46.0,Training at home,,,,,,,,,,,,,
6,5,1157,A,20.8697932910943,43.804435491077626,1.043489664554715,0.6880784636670872,A,1338.5239000199365,Correct,sub_006_day_05_data.csv,1,300,46.0,Training at home,,,,,,,,,,,,,
6,5,1158,A,63.81787149754807,78.09961053458268,3.190893574877403,1.226785813518345,B,1028.936100017745,Incorrect,sub_006_day_05_data.csv,0,300,46.0,Training at home,,,,,,,,,,,,,
6,5,1159,B,49.39215176841641,26.065406355940578,2.4696075884208204,0.4094344456032781,A,1036.4264999516308,Incorrect,sub_006_day_05_data.csv,0,300,46.0,Training at home,,,,,,,,,,,,,
6,5,1160,A,16.169379740835634,44.28962314295333,0.8084689870417817,0.6956997734808134,A,607.1617000270635,Correct,sub_006_day_05_data.csv,1,300,46.0,Training at home,,,,,,,,,,,,,
6,5,1161,B,41.33781457086827,17.706260153675572,2.0668907285434135,0.2781292841066843,B,877.7880999841727,Correct,sub_006_day_05_data.csv,1,300,46.0,Training at home,,,,,,,,,,,,,
6,5,1162,B,79.33394036837271,49.51906907111964,3.966697018418636,0.777843718032175,B,889.5074000465684,Correct,sub_006_day_05_data.csv,1,300,46.0,Training at home,,,,,,,,,,,,,
6,5,1163,B,75.3392713649242,46.348319198182686,3.76696356824621,0.7280376954962275,B,802.4888000218198,Correct,sub_006_day_05_data.csv,1,300,46.0,Training at home,,,,,,,,,,,,,
6,5,1164,B,34.97300553297529,18.630948330956368,1.7486502766487646,0.2926542520297177,A,656.819399970118,Incorrect,sub_006_day_05_data.csv,0,300,46.0,Training at home,,,,,,,,,,,,,
6,5,1165,A,58.07984606261992,71.58361254378414,2.9039923031309964,1.124432756424852,B,1253.354899992701,Incorrect,sub_006_day_05_data.csv,0,300,46.0,Training at home,,,,,,,,,,,,,
6,5,1166,A,13.037687279501233,35.03439576065054,0.6518843639750616,0.5503190017230856,A,614.9905999773182,Correct,sub_006_day_05_data.csv,1,300,46.0,Training at home,,,,,,,,,,,,,
6,5,1167,B,76.62796084907768,54.38302586838625,3.831398042453884,0.8542465727405296,B,1085.7598999864422,Correct,sub_006_day_05_data.csv,1,300,46.0,Training at home,,,,,,,,,,,,,
6,5,1168,A,35.8407978815932,49.49588554758833,1.79203989407966,0.7774795520961236,B,1250.203799980227,Incorrect,sub_006_day_05_data.csv,0,300,46.0,Training at home,,,,,,,,,,,,,
6,5,1169,A,33.92301307576358,52.26756731438436,1.696150653788179,0.8210170274793995,A,620.9261000039987,Correct,sub_006_day_05_data.csv,1,300,46.0,Training at home,,,,,,,,,,,,,
6,5,1170,A,18.23001824001052,45.495861057990474,0.911500912000526,0.7146473143426241,A,552.5094000040554,Correct,sub_006_day_05_data.csv,1,300,46.0,Training at home,,,,,,,,,,,,,
6,5,1171,B,74.00288001280832,62.30607232693916,3.700144000640416,0.9787014954817318,B,770.2214000164531,Correct,sub_006_day_05_data.csv,1,300,46.0,Training at home,,,,,,,,,,,,,
6,5,1172,B,43.76977042635241,29.470717991471552,2.1884885213176206,0.4629249556901178,B,772.0025000162423,Correct,sub_006_day_05_data.csv,1,300,46.0,Training at home,,,,,,,,,,,,,
6,5,1173,A,61.86556268783587,82.7867404734554,3.093278134391794,1.3004110784302612,A,868.4073999756947,Correct,sub_006_day_05_data.csv,1,300,46.0,Training at home,,,,,,,,,,,,,
6,5,1174,B,75.62251121673565,64.41366621387145,3.781125560836782,1.011807502841418,B,511.7372999666258,Correct,sub_006_day_05_data.csv,1,300,46.0,Training at home,,,,,,,,,,,,,
6,5,1175,A,61.50552849950381,83.59779559626449,3.0752764249751907,1.3131511025076286,A,911.7666999809444,Correct,sub_006_day_05_data.csv,1,300,47.0,Training at home,,,,,,,,,,,,,
6,5,1176,A,30.7434926551096,57.103662115762845,1.53717463275548,0.8969822269797717,B,985.3620000067168,Incorrect,sub_006_day_05_data.csv,0,300,47.0,Training at home,,,,,,,,,,,,,
6,5,1177,A,49.53456178773298,57.19253409829251,2.476728089386649,0.8983782248168976,B,758.1681999727152,Incorrect,sub_006_day_05_data.csv,0,300,47.0,Training at home,,,,,,,,,,,,,
6,5,1178,A,37.76795274733045,58.89704796006356,1.8883976373665223,0.925152665947307,B,932.9231000156142,Incorrect,sub_006_day_05_data.csv,0,300,47.0,Training at home,,,,,,,,,,,,,
6,5,1179,A,54.29782515424039,72.6957547971881,2.714891257712019,1.1419022460900554,A,767.0951000181958,Correct,sub_006_day_05_data.csv,1,300,47.0,Training at home,,,,,,,,,,,,,
6,5,1180,A,14.942942268107874,40.82077984318539,0.7471471134053936,0.6412113103457877,A,540.6747999950312,Correct,sub_006_day_05_data.csv,1,300,47.0,Training at home,,,,,,,,,,,,,
6,5,1181,A,63.319283681806496,88.64992122586742,3.165964184090325,1.3925097063224947,A,1238.0806999863123,Correct,sub_006_day_05_data.csv,1,300,47.0,Training at home,,,,,,,,,,,,,
6,5,1182,A,42.44547359096229,66.08956626807827,2.122273679548114,1.0381324793336526,A,988.3631000411696,Correct,sub_006_day_05_data.csv,1,300,47.0,Training at home,,,,,,,,,,,,,
6,5,1183,B,42.01460572616267,32.9745982927432,2.1007302863081336,0.5179637787577829,B,962.1548999566584,Correct,sub_006_day_05_data.csv,1,300,47.0,Training at home,,,,,,,,,,,,,
6,5,1184,B,78.49981706147106,53.0541919559833,3.924990853073553,0.8333732984552992,B,639.4933999981731,Correct,sub_006_day_05_data.csv,1,300,47.0,Training at home,,,,,,,,,,,,,
6,5,1185,A,15.124739895959046,40.35328911503291,0.7562369947979523,0.6338679831598618,A,518.5734999831766,Correct,sub_006_day_05_data.csv,1,300,47.0,Training at home,,,,,,,,,,,,,
6,5,1186,B,80.37000775833182,57.107657320551546,4.018500387916592,0.8970449835098405,B,560.2929000160657,Correct,sub_006_day_05_data.csv,1,300,47.0,Training at home,,,,,,,,,,,,,
6,5,1187,A,59.53786794902116,72.72848794871251,2.9768933974510583,1.1424164172318452,A,1288.1036000326276,Correct,sub_006_day_05_data.csv,1,300,47.0,Training at home,,,,,,,,,,,,,
6,5,1188,B,74.79111303771863,44.56300110491293,3.739555651885931,0.6999939844655414,B,944.8451999924146,Correct,sub_006_day_05_data.csv,1,300,47.0,Training at home,,,,,,,,,,,,,
6,5,1189,A,18.75768913722226,40.65035748507851,0.937884456861113,0.6385343222046076,A,631.2668999889866,Correct,sub_006_day_05_data.csv,1,300,47.0,Training at home,,,,,,,,,,,,,
6,5,1190,A,58.817070338648,70.61896101845511,2.9408535169324,1.1092800456986127,B,993.9689000020736,Incorrect,sub_006_day_05_data.csv,0,300,47.0,Training at home,,,,,,,,,,,,,
6,5,1191,B,60.35458920369547,48.72169672886304,3.0177294601847735,0.7653186225691299,B,690.0770000065677,Correct,sub_006_day_05_data.csv,1,300,47.0,Training at home,,,,,,,,,,,,,
6,5,1192,A,52.04199435846284,61.946451943899675,2.602099717923142,0.9730525917145418,B,1567.3702000058256,Incorrect,sub_006_day_05_data.csv,0,300,47.0,Training at home,,,,,,,,,,,,,
6,5,1193,A,13.891384054430311,32.05389416175335,0.6945692027215157,0.5035013920875454,A,603.6983999656513,Correct,sub_006_day_05_data.csv,1,300,47.0,Training at home,,,,,,,,,,,,,
6,5,1194,A,40.99415014504798,66.59118763850587,2.049707507252399,1.0460119293947474,A,1523.11050001299,Correct,sub_006_day_05_data.csv,1,300,47.0,Training at home,,,,,,,,,,,,,
6,5,1195,B,47.14603441200244,37.71858055269036,2.3573017206001223,0.5924820778408344,B,633.4591999766417,Correct,sub_006_day_05_data.csv,1,300,47.0,Training at home,,,,,,,,,,,,,
6,5,1196,B,68.74912473271466,50.291057199136205,3.4374562366357333,0.7899700791903519,B,744.8384999879636,Correct,sub_006_day_05_data.csv,1,300,47.0,Training at home,,,,,,,,,,,,,
6,5,1197,B,62.585497551273285,50.97934041495392,3.129274877563664,0.8007816066623623,B,544.6461000246927,Correct,sub_006_day_05_data.csv,1,300,47.0,Training at home,,,,,,,,,,,,,
6,5,1198,A,51.38203824772325,79.81090061912923,2.569101912386162,1.253666695307207,B,1337.139900017064,Incorrect,sub_006_day_05_data.csv,0,300,47.0,Training at home,,,,,,,,,,,,,
6,5,1199,A,33.807773750167215,65.36731439685212,1.690388687508361,1.0267873734702246,A,648.7667000037618,Correct,sub_006_day_05_data.csv,1,300,47.0,Training at home,,,,,,,,,,,,,
