subject,day,trial,cat,x,y,xt,yt,resp,rt,fb,f_name,acc,n_trials,block,session_type,ns_left_digit,ns_right_digit,ns_left_size,ns_right_size,ns_congruent,ns_cue,ns_correct_side,ns_resp,ns_rt,ns_fb,acc_stroop,acc_stroop_mean,resp_key
13,4,600,B,71.3493415807787,46.50680726415416,3.5674670790389347,0.7305272202149157,B,896.4884999732021,Correct,sub_013_day_03_data.csv,1,300,24.0,Training at home,,,,,,,,,,,,,
13,4,601,B,40.9953082182045,28.388886842084354,2.0497654109102252,0.4459315917334207,B,1314.2396000039298,Correct,sub_013_day_03_data.csv,1,300,24.0,Training at home,,,,,,,,,,,,,
13,4,602,B,33.986338964170116,19.58019527036401,1.6993169482085058,0.3075649880861458,A,832.8382999752648,Incorrect,sub_013_day_03_data.csv,0,300,24.0,Training at home,,,,,,,,,,,,,
13,4,603,A,39.4744775564999,71.87141554757612,1.9737238778249948,1.1289535554368215,A,882.1979000058491,Correct,sub_013_day_03_data.csv,1,300,24.0,Training at home,,,,,,,,,,,,,
13,4,604,B,54.18932897199546,42.21611916060352,2.7094664485997733,0.6631292490901165,B,791.7075999721419,Correct,sub_013_day_03_data.csv,1,300,24.0,Training at home,,,,,,,,,,,,,
13,4,605,A,54.94456519658741,63.054734352373586,2.7472282598293707,0.990461451077364,B,786.4241999923252,Incorrect,sub_013_day_03_data.csv,0,300,24.0,Training at home,,,,,,,,,,,,,
13,4,606,A,53.29729005545242,71.44705178291603,2.6648645027726214,1.1222876650092926,B,539.9658999813255,Incorrect,sub_013_day_03_data.csv,0,300,24.0,Training at home,,,,,,,,,,,,,
13,4,607,B,58.520233924046536,45.50172457164757,2.926011696202327,0.7147394181997709,B,1449.350000009872,Correct,sub_013_day_03_data.csv,1,300,24.0,Training at home,,,,,,,,,,,,,
13,4,608,B,62.75199655925819,36.62254444070927,3.1375998279629096,0.5752655828534898,B,871.6625000233762,Correct,sub_013_day_03_data.csv,1,300,24.0,Training at home,,,,,,,,,,,,,
13,4,609,B,71.27846092331949,51.11404572507499,3.563923046165974,0.8028975527257417,B,939.29300000309,Correct,sub_013_day_03_data.csv,1,300,24.0,Training at home,,,,,,,,,,,,,
13,4,610,A,67.10963394188676,85.3459688008303,3.3554816970943375,1.340611342990961,A,604.9774000130128,Correct,sub_013_day_03_data.csv,1,300,24.0,Training at home,,,,,,,,,,,,,
13,4,611,B,72.83847441708345,43.58651618381809,3.641923720854172,0.6846553951932777,B,669.0824999823235,Correct,sub_013_day_03_data.csv,1,300,24.0,Training at home,,,,,,,,,,,,,
13,4,612,A,51.87820293965863,80.80690980381618,2.5939101469829313,1.2693119709948095,A,591.5893000201322,Correct,sub_013_day_03_data.csv,1,300,24.0,Training at home,,,,,,,,,,,,,
13,4,613,A,65.17262784705521,87.83966598468272,3.2586313923527603,1.3797822467563026,A,516.490599984536,Correct,sub_013_day_03_data.csv,1,300,24.0,Training at home,,,,,,,,,,,,,
13,4,614,A,35.15352456616789,67.0566536596303,1.7576762283083949,1.0533234525570483,A,930.6408000120427,Correct,sub_013_day_03_data.csv,1,300,24.0,Training at home,,,,,,,,,,,,,
13,4,615,B,35.85413099306423,23.04931524245315,1.7927065496532115,0.3620577971798303,B,584.4775000005029,Correct,sub_013_day_03_data.csv,1,300,24.0,Training at home,,,,,,,,,,,,,
13,4,616,B,64.93007673640939,37.69751671178667,3.2465038368204695,0.5921512078016372,B,639.8060999927111,Correct,sub_013_day_03_data.csv,1,300,24.0,Training at home,,,,,,,,,,,,,
13,4,617,B,84.9291800025344,62.29388070935283,4.24645900012672,0.9785099900005088,B,640.0888999924064,Correct,sub_013_day_03_data.csv,1,300,24.0,Training at home,,,,,,,,,,,,,
13,4,618,B,70.3499890234188,51.87650588772702,3.51749945117094,0.8148742489539543,B,526.8112000194378,Correct,sub_013_day_03_data.csv,1,300,24.0,Training at home,,,,,,,,,,,,,
13,4,619,B,66.66615044934942,47.09972205309693,3.33330752246747,0.7398407039406525,B,518.210000009276,Correct,sub_013_day_03_data.csv,1,300,24.0,Training at home,,,,,,,,,,,,,
13,4,620,B,69.49408729319777,46.870222656635285,3.474704364659888,0.7362357358510165,B,465.8869999984745,Correct,sub_013_day_03_data.csv,1,300,24.0,Training at home,,,,,,,,,,,,,
13,4,621,B,61.4098561126231,50.577211942344384,3.0704928056311553,0.7944649873856153,B,767.6731999963522,Correct,sub_013_day_03_data.csv,1,300,24.0,Training at home,,,,,,,,,,,,,
13,4,622,A,21.467448675817177,40.57417315154113,1.0733724337908586,0.6373376214918092,A,499.2348999949172,Correct,sub_013_day_03_data.csv,1,300,24.0,Training at home,,,,,,,,,,,,,
13,4,623,A,48.91822094934356,56.68145710076968,2.445911047467178,0.8903502461127153,B,522.0397999801207,Incorrect,sub_013_day_03_data.csv,0,300,24.0,Training at home,,,,,,,,,,,,,
13,4,624,B,58.804241727714256,29.40393255179127,2.940212086385713,0.4618758924567861,B,657.0428999839351,Correct,sub_013_day_03_data.csv,1,300,24.0,Training at home,,,,,,,,,,,,,
13,4,625,B,82.26686152582613,58.71900080633942,4.113343076291306,0.9223559077966452,B,737.0055000064895,Correct,sub_013_day_03_data.csv,1,300,25.0,Training at home,,,,,,,,,,,,,
13,4,626,B,65.2881009011234,38.06812655793034,3.2644050450561704,0.5979727336516023,B,696.0865000146441,Correct,sub_013_day_03_data.csv,1,300,25.0,Training at home,,,,,,,,,,,,,
13,4,627,B,73.46140315429332,42.74243997921961,3.673070157714666,0.671396677176095,B,500.19350001821294,Correct,sub_013_day_03_data.csv,1,300,25.0,Training at home,,,,,,,,,,,,,
13,4,628,B,53.12187573824917,23.092081946195435,2.6560937869124586,0.3627295749913052,B,676.3839999912307,Correct,sub_013_day_03_data.csv,1,300,25.0,Training at home,,,,,,,,,,,,,
13,4,629,B,59.792193686183616,33.79812002855656,2.9896096843091806,0.5308996279342967,B,1073.813599999994,Correct,sub_013_day_03_data.csv,1,300,25.0,Training at home,,,,,,,,,,,,,
13,4,630,B,74.9928710778977,49.862062092608994,3.749643553894885,0.7832314398148925,B,804.1219000006095,Correct,sub_013_day_03_data.csv,1,300,25.0,Training at home,,,,,,,,,,,,,
13,4,631,B,60.69927595373022,38.36918856649526,3.034963797686511,0.602701804623515,B,461.32550001493655,Correct,sub_013_day_03_data.csv,1,300,25.0,Training at home,,,,,,,,,,,,,
13,4,632,A,46.942677457499926,65.78218311243603,2.3471338728749966,1.033304116015638,A,617.4808999930974,Correct,sub_013_day_03_data.csv,1,300,25.0,Training at home,,,,,,,,,,,,,
13,4,633,B,30.673851507224377,14.503919234958872,1.533692575361219,0.2278270305840324,B,1444.3748999910897,Correct,sub_013_day_03_data.csv,1,300,25.0,Training at home,,,,,,,,,,,,,
13,4,634,B,63.78543005418603,31.684796693618058,3.1892715027093015,0.4977036226157832,B,529.6099999977741,Correct,sub_013_day_03_data.csv,1,300,25.0,Training at home,,,,,,,,,,,,,
13,4,635,B,47.14016772382989,20.916889085140863,2.3570083861914948,0.3285617254291553,B,689.6307999850251,Correct,sub_013_day_03_data.csv,1,300,25.0,Training at home,,,,,,,,,,,,,
13,4,636,A,24.5529698022319,53.96422924079855,1.227648490111595,0.847668130697641,A,808.9062999933958,Correct,sub_013_day_03_data.csv,1,300,25.0,Training at home,,,,,,,,,,,,,
13,4,637,B,54.463130084210285,22.78985649607556,2.723156504210514,0.3579822287221829,B,1092.8200000198558,Correct,sub_013_day_03_data.csv,1,300,25.0,Training at home,,,,,,,,,,,,,
13,4,638,A,31.009588502718515,45.526385216231176,1.5504794251359255,0.7151267866990542,A,1205.7710000080988,Correct,sub_013_day_03_data.csv,1,300,25.0,Training at home,,,,,,,,,,,,,
13,4,639,A,41.247118973940665,58.5089864954065,2.0623559486970335,0.9190570107147676,B,1176.192799990531,Incorrect,sub_013_day_03_data.csv,0,300,25.0,Training at home,,,,,,,,,,,,,
13,4,640,B,42.38264082241506,18.92099476556192,2.119132041120753,0.2972102907705012,B,653.9976999920327,Correct,sub_013_day_03_data.csv,1,300,25.0,Training at home,,,,,,,,,,,,,
13,4,641,A,29.89988402413274,45.01808259390692,1.494994201206637,0.7071423877785825,A,734.932999999728,Correct,sub_013_day_03_data.csv,1,300,25.0,Training at home,,,,,,,,,,,,,
13,4,642,B,47.32981649503793,17.27957044783218,2.3664908247518968,0.2714268578804844,B,539.4077000091784,Correct,sub_013_day_03_data.csv,1,300,25.0,Training at home,,,,,,,,,,,,,
13,4,643,B,85.96289451210588,58.18284837033371,4.298144725605294,0.9139340450258464,B,1069.273000000976,Correct,sub_013_day_03_data.csv,1,300,25.0,Training at home,,,,,,,,,,,,,
13,4,644,A,47.98449457923507,76.9564898822039,2.3992247289617534,1.2088297162999448,A,581.1374000040814,Correct,sub_013_day_03_data.csv,1,300,25.0,Training at home,,,,,,,,,,,,,
13,4,645,A,41.6586227077991,60.97299173362571,2.082931135389955,0.9577615144887486,A,593.390800000634,Correct,sub_013_day_03_data.csv,1,300,25.0,Training at home,,,,,,,,,,,,,
13,4,646,A,33.30524889102085,45.8469578085985,1.6652624445510429,0.7201623292046713,A,618.7535999924876,Correct,sub_013_day_03_data.csv,1,300,25.0,Training at home,,,,,,,,,,,,,
13,4,647,A,21.508887258404815,53.167384229206554,1.0754443629202408,0.8351513185253058,A,516.6804000036791,Correct,sub_013_day_03_data.csv,1,300,25.0,Training at home,,,,,,,,,,,,,
13,4,648,A,46.73945529177056,78.48721173034848,2.336972764588528,1.232874238864047,A,632.3792000184767,Correct,sub_013_day_03_data.csv,1,300,25.0,Training at home,,,,,,,,,,,,,
13,4,649,A,63.94120197899002,76.4568584074235,3.197060098949501,1.200981523446583,A,1674.6712000167463,Correct,sub_013_day_03_data.csv,1,300,25.0,Training at home,,,,,,,,,,,,,
13,4,650,A,40.7049333850729,64.20759634643345,2.035246669253645,1.0085705649330707,A,1899.629999999888,Correct,sub_013_day_03_data.csv,1,300,26.0,Training at home,,,,,,,,,,,,,
13,4,651,A,50.85993367400085,59.05220428972475,2.5429966837000424,0.9275898558744148,A,648.9752000197768,Correct,sub_013_day_03_data.csv,1,300,26.0,Training at home,,,,,,,,,,,,,
13,4,652,B,85.75453085012666,66.63074939119173,4.287726542506333,1.0466333639527523,B,866.3363000086974,Correct,sub_013_day_03_data.csv,1,300,26.0,Training at home,,,,,,,,,,,,,
13,4,653,B,70.79966464483444,42.7158468485496,3.5399832322417217,0.6709789532563505,B,553.8293000136036,Correct,sub_013_day_03_data.csv,1,300,26.0,Training at home,,,,,,,,,,,,,
13,4,654,A,41.12612259341895,56.27741284146733,2.0563061296709475,0.884003533728968,A,1855.154599994421,Correct,sub_013_day_03_data.csv,1,300,26.0,Training at home,,,,,,,,,,,,,
13,4,655,B,61.93738759362882,49.09535978008754,3.096869379681441,0.7711881080523542,B,865.7130000065081,Correct,sub_013_day_03_data.csv,1,300,26.0,Training at home,,,,,,,,,,,,,
13,4,656,B,56.935661880818984,48.49345043041119,2.8467830940409495,0.7617333380970027,B,517.769900005078,Correct,sub_013_day_03_data.csv,1,300,26.0,Training at home,,,,,,,,,,,,,
13,4,657,B,72.86205541617369,40.97582246053894,3.643102770808684,0.6436467140841439,B,487.07479998120107,Correct,sub_013_day_03_data.csv,1,300,26.0,Training at home,,,,,,,,,,,,,
13,4,658,B,52.858742059450584,33.28714588778566,2.642937102972529,0.5228732649001957,B,1154.6100999985356,Correct,sub_013_day_03_data.csv,1,300,26.0,Training at home,,,,,,,,,,,,,
13,4,659,B,67.51091507202172,46.03948629890691,3.3755457536010858,0.7231865596584695,B,547.8241000091657,Correct,sub_013_day_03_data.csv,1,300,26.0,Training at home,,,,,,,,,,,,,
13,4,660,B,41.66546279396305,30.391701488857564,2.0832731396981528,0.4773917306374444,B,1000.2800000074784,Correct,sub_013_day_03_data.csv,1,300,26.0,Training at home,,,,,,,,,,,,,
13,4,661,A,25.78569148159719,38.663564723093586,1.2892845740798595,0.6073258544783215,A,593.3871000015642,Correct,sub_013_day_03_data.csv,1,300,26.0,Training at home,,,,,,,,,,,,,
13,4,662,A,15.386801388966736,41.14869075082079,0.7693400694483367,0.6463621228380844,A,527.6243999833241,Correct,sub_013_day_03_data.csv,1,300,26.0,Training at home,,,,,,,,,,,,,
13,4,663,A,32.83066180041478,55.88658819081151,1.6415330900207392,0.8778644744722578,A,1584.7138999961317,Correct,sub_013_day_03_data.csv,1,300,26.0,Training at home,,,,,,,,,,,,,
13,4,664,A,60.1325439033291,71.75694586370581,3.006627195166455,1.1271554698472932,A,1494.3460999929812,Correct,sub_013_day_03_data.csv,1,300,26.0,Training at home,,,,,,,,,,,,,
13,4,665,A,41.04803734028341,58.143091735614966,2.0524018670141704,0.9133095492680268,A,821.4534999860916,Correct,sub_013_day_03_data.csv,1,300,26.0,Training at home,,,,,,,,,,,,,
13,4,666,B,71.8007778966055,61.5218858645482,3.5900388948302746,0.966383523335272,B,683.4828999999445,Correct,sub_013_day_03_data.csv,1,300,26.0,Training at home,,,,,,,,,,,,,
13,4,667,A,32.804315491389545,50.197011922537214,1.6402157745694774,0.7884928194400108,A,685.9952000086196,Correct,sub_013_day_03_data.csv,1,300,26.0,Training at home,,,,,,,,,,,,,
13,4,668,A,20.122433337887152,44.81399764847517,1.0061216668943576,0.7039366289521993,A,624.6666999941226,Correct,sub_013_day_03_data.csv,1,300,26.0,Training at home,,,,,,,,,,,,,
13,4,669,B,31.40359332620962,14.460282099677212,1.570179666310481,0.2271415800659096,B,949.3949999741744,Correct,sub_013_day_03_data.csv,1,300,26.0,Training at home,,,,,,,,,,,,,
13,4,670,B,60.52552437139766,45.78472178309525,3.026276218569883,0.7191847280021231,B,736.7292999988422,Correct,sub_013_day_03_data.csv,1,300,26.0,Training at home,,,,,,,,,,,,,
13,4,671,B,54.201204061245576,32.1242295904742,2.7100602030622785,0.504606218418328,B,640.1047999970615,Correct,sub_013_day_03_data.csv,1,300,26.0,Training at home,,,,,,,,,,,,,
13,4,672,A,33.9920321084289,47.28272236564494,1.6996016054214451,0.7427152661281798,A,1066.2353999796323,Correct,sub_013_day_03_data.csv,1,300,26.0,Training at home,,,,,,,,,,,,,
13,4,673,A,48.81513830043394,76.93490277133704,2.440756915021697,1.2084906267553872,A,717.2946000064258,Correct,sub_013_day_03_data.csv,1,300,26.0,Training at home,,,,,,,,,,,,,
13,4,674,B,79.2033832864803,48.28070448303573,3.960169164324015,0.7583915325702242,B,482.33699999400415,Correct,sub_013_day_03_data.csv,1,300,26.0,Training at home,,,,,,,,,,,,,
13,4,675,A,41.620294713514,53.126052855138745,2.0810147356757,0.8345020868196347,A,634.2702999827452,Correct,sub_013_day_03_data.csv,1,300,27.0,Training at home,,,,,,,,,,,,,
13,4,676,A,49.62611844675079,59.485587637633586,2.481305922337539,0.9343974255843076,A,2309.612199984258,Correct,sub_013_day_03_data.csv,1,300,27.0,Training at home,,,,,,,,,,,,,
13,4,677,B,47.228754239787136,37.076847512533305,2.361437711989357,0.5824017588182181,B,962.1540000080132,Correct,sub_013_day_03_data.csv,1,300,27.0,Training at home,,,,,,,,,,,,,
13,4,678,A,54.1238489653452,75.09749355546911,2.70619244826726,1.179628670284343,A,648.4506000124384,Correct,sub_013_day_03_data.csv,1,300,27.0,Training at home,,,,,,,,,,,,,
13,4,679,B,50.52501390339562,25.793433480372514,2.526250695169781,0.4051623056639765,B,551.9840999913868,Correct,sub_013_day_03_data.csv,1,300,27.0,Training at home,,,,,,,,,,,,,
13,4,680,B,34.577611733099616,13.16731638020304,1.7288805866549808,0.2068317220376921,B,533.8902999938,Correct,sub_013_day_03_data.csv,1,300,27.0,Training at home,,,,,,,,,,,,,
13,4,681,A,38.28558365358319,62.597636826841565,1.9142791826791592,0.9832813799364368,A,682.558100001188,Correct,sub_013_day_03_data.csv,1,300,27.0,Training at home,,,,,,,,,,,,,
13,4,682,B,79.68084136333839,52.500051459121266,3.98404206816692,0.8246688798853073,B,709.344200004125,Correct,sub_013_day_03_data.csv,1,300,27.0,Training at home,,,,,,,,,,,,,
13,4,683,A,56.08356667749627,76.598742465262,2.804178333874814,1.2032102330154182,A,1271.241899987217,Correct,sub_013_day_03_data.csv,1,300,27.0,Training at home,,,,,,,,,,,,,
13,4,684,B,81.63988417713699,55.139979932724486,4.08199420885685,0.8661367793786793,B,821.153900003992,Correct,sub_013_day_03_data.csv,1,300,27.0,Training at home,,,,,,,,,,,,,
13,4,685,B,32.801851185397844,14.243224832962484,1.6400925592698925,0.2237320524933132,A,509.38410000526346,Incorrect,sub_013_day_03_data.csv,0,300,27.0,Training at home,,,,,,,,,,,,,
13,4,686,A,34.63926531412657,65.54742538700067,1.7319632657063284,1.029616550287632,A,868.5583000187762,Correct,sub_013_day_03_data.csv,1,300,27.0,Training at home,,,,,,,,,,,,,
13,4,687,A,31.38072076881187,47.98522925305373,1.5690360384405937,0.7537502185110782,A,598.7422000034712,Correct,sub_013_day_03_data.csv,1,300,27.0,Training at home,,,,,,,,,,,,,
13,4,688,A,13.03923808099922,34.81346492809682,0.6519619040499609,0.5468486283205745,A,644.243099988671,Correct,sub_013_day_03_data.csv,1,300,27.0,Training at home,,,,,,,,,,,,,
13,4,689,A,34.28932023561601,50.65612325561675,1.7144660117808004,0.7957045233959232,A,1978.1872000021392,Correct,sub_013_day_03_data.csv,1,300,27.0,Training at home,,,,,,,,,,,,,
13,4,690,B,60.3298407605791,48.83722082137044,3.016492038028955,0.7671332707707991,B,1773.2900999835692,Correct,sub_013_day_03_data.csv,1,300,27.0,Training at home,,,,,,,,,,,,,
13,4,691,B,45.27245173913053,22.998908341966622,2.2636225869565263,0.3612660074385367,B,901.425299991388,Correct,sub_013_day_03_data.csv,1,300,27.0,Training at home,,,,,,,,,,,,,
13,4,692,A,21.20538617150913,45.726013478156645,1.0602693085754564,0.718262540104624,A,846.3051999860909,Correct,sub_013_day_03_data.csv,1,300,27.0,Training at home,,,,,,,,,,,,,
13,4,693,B,50.82475673042138,38.66748490160859,2.5412378365210686,0.6073874324984391,B,692.0593999966513,Correct,sub_013_day_03_data.csv,1,300,27.0,Training at home,,,,,,,,,,,,,
13,4,694,A,18.05454953205279,34.250639098305776,0.9027274766026394,0.5380077808599638,A,564.5138999971095,Correct,sub_013_day_03_data.csv,1,300,27.0,Training at home,,,,,,,,,,,,,
13,4,695,B,42.44966305451237,32.11993967503002,2.1224831527256187,0.5045388325841081,B,487.2140000225045,Correct,sub_013_day_03_data.csv,1,300,27.0,Training at home,,,,,,,,,,,,,
13,4,696,B,39.38554888836039,17.41388891103099,1.9692774444180197,0.2735367273666186,B,1130.7299000036437,Correct,sub_013_day_03_data.csv,1,300,27.0,Training at home,,,,,,,,,,,,,
13,4,697,A,55.32603601167784,66.68019936638993,2.766301800583892,1.047410122346767,A,1000.6214000168256,Correct,sub_013_day_03_data.csv,1,300,27.0,Training at home,,,,,,,,,,,,,
13,4,698,B,30.70934483173817,12.803160170445317,1.5354672415869086,0.2011115696710222,A,801.7323999956716,Incorrect,sub_013_day_03_data.csv,0,300,27.0,Training at home,,,,,,,,,,,,,
13,4,699,B,68.61168173770346,59.43479022629404,3.430584086885174,0.933599501712879,A,1171.866000018781,Incorrect,sub_013_day_03_data.csv,0,300,27.0,Training at home,,,,,,,,,,,,,
13,4,700,B,82.75845099241401,57.50130877805519,4.137922549620701,0.9032284461446822,B,626.5937999996822,Correct,sub_013_day_03_data.csv,1,300,28.0,Training at home,,,,,,,,,,,,,
13,4,701,A,22.421380221679005,36.40675071569317,1.1210690110839503,0.5718759029474829,A,623.8913999986835,Correct,sub_013_day_03_data.csv,1,300,28.0,Training at home,,,,,,,,,,,,,
13,4,702,A,15.600346166979918,31.24974639229454,0.7800173083489959,0.4908698684628833,A,883.2162999897264,Correct,sub_013_day_03_data.csv,1,300,28.0,Training at home,,,,,,,,,,,,,
13,4,703,B,55.730412630645425,37.35172491960419,2.7865206315322713,0.5867195230316765,B,688.9517999952659,Correct,sub_013_day_03_data.csv,1,300,28.0,Training at home,,,,,,,,,,,,,
13,4,704,A,43.24182420047154,73.65471919510291,2.162091210023577,1.1569656236277723,A,688.6027000145987,Correct,sub_013_day_03_data.csv,1,300,28.0,Training at home,,,,,,,,,,,,,
13,4,705,A,61.11168671891406,86.36952175044412,3.0555843359457024,1.3566892751262956,A,2260.1191999856383,Correct,sub_013_day_03_data.csv,1,300,28.0,Training at home,,,,,,,,,,,,,
13,4,706,A,40.25610167854809,61.28021157514495,2.0128050839274043,0.962587312474518,B,1555.4381999827456,Incorrect,sub_013_day_03_data.csv,0,300,28.0,Training at home,,,,,,,,,,,,,
13,4,707,A,58.63285101938287,73.67693663499638,2.9316425509691437,1.1573146143575266,A,1822.3696000059135,Correct,sub_013_day_03_data.csv,1,300,28.0,Training at home,,,,,,,,,,,,,
13,4,708,A,31.04088122556379,51.26422881208535,1.5520440612781896,0.8052566231399676,A,589.1074999817647,Correct,sub_013_day_03_data.csv,1,300,28.0,Training at home,,,,,,,,,,,,,
13,4,709,B,63.89124936363195,46.58205992898724,3.1945624681815974,0.731709286309929,B,907.9514000040944,Correct,sub_013_day_03_data.csv,1,300,28.0,Training at home,,,,,,,,,,,,,
13,4,710,A,17.53800178469719,45.45124633574491,0.8769000892348595,0.7139465079243812,A,519.7413999994751,Correct,sub_013_day_03_data.csv,1,300,28.0,Training at home,,,,,,,,,,,,,
13,4,711,B,57.91968025674781,28.816411144883723,2.8959840128373906,0.4526471277779487,B,516.0533000016585,Correct,sub_013_day_03_data.csv,1,300,28.0,Training at home,,,,,,,,,,,,,
13,4,712,B,76.27937973754264,59.1745230404363,3.813968986877132,0.9295112343175732,B,1585.1041999994775,Correct,sub_013_day_03_data.csv,1,300,28.0,Training at home,,,,,,,,,,,,,
13,4,713,B,40.253221059148615,23.344305148198796,2.012661052957431,0.3666914877836986,B,866.5349999791943,Correct,sub_013_day_03_data.csv,1,300,28.0,Training at home,,,,,,,,,,,,,
13,4,714,B,66.78966352087852,48.12265340930261,3.339483176043926,0.7559088721095645,B,806.7320000263862,Correct,sub_013_day_03_data.csv,1,300,28.0,Training at home,,,,,,,,,,,,,
13,4,715,B,31.497769975038505,16.333783734383193,1.5748884987519254,0.2565704749263134,B,819.1358000040054,Correct,sub_013_day_03_data.csv,1,300,28.0,Training at home,,,,,,,,,,,,,
13,4,716,B,64.81868529094002,43.430821959507185,3.2409342645470014,0.6822097560367701,B,586.1045999918133,Correct,sub_013_day_03_data.csv,1,300,28.0,Training at home,,,,,,,,,,,,,
13,4,717,B,85.84630307468822,58.81287467868293,4.29231515373441,0.9238304751352372,B,636.1415999999736,Correct,sub_013_day_03_data.csv,1,300,28.0,Training at home,,,,,,,,,,,,,
13,4,718,B,51.69593841347622,25.773107667451903,2.5847969206738113,0.4048430285412283,B,676.6040000075009,Correct,sub_013_day_03_data.csv,1,300,28.0,Training at home,,,,,,,,,,,,,
13,4,719,B,48.49349519422137,33.1016528982395,2.4246747597110683,0.5199595478339425,B,520.2568000240717,Correct,sub_013_day_03_data.csv,1,300,28.0,Training at home,,,,,,,,,,,,,
13,4,720,A,24.8999786120236,36.01733940572889,1.2449989306011802,0.5657590443944401,A,569.5416999806184,Correct,sub_013_day_03_data.csv,1,300,28.0,Training at home,,,,,,,,,,,,,
13,4,721,B,57.51968959812888,29.637552251254498,2.875984479906444,0.4655455821146237,B,826.8235999858007,Correct,sub_013_day_03_data.csv,1,300,28.0,Training at home,,,,,,,,,,,,,
13,4,722,A,22.561375379401863,42.93526450111858,1.1280687689700932,0.674425557683244,A,709.340000001248,Correct,sub_013_day_03_data.csv,1,300,28.0,Training at home,,,,,,,,,,,,,
13,4,723,B,56.1563561632116,38.03352093727937,2.80781780816058,0.5974291498335522,B,604.579399980139,Correct,sub_013_day_03_data.csv,1,300,28.0,Training at home,,,,,,,,,,,,,
13,4,724,A,29.340458764359006,51.686504668205586,1.4670229382179505,0.8118897167768462,A,1316.0627999750432,Correct,sub_013_day_03_data.csv,1,300,28.0,Training at home,,,,,,,,,,,,,
13,4,725,A,28.92268855325365,41.018773991326455,1.4461344276626824,0.6443213951520563,B,1718.8999000063632,Incorrect,sub_013_day_03_data.csv,0,300,29.0,Training at home,,,,,,,,,,,,,
13,4,726,B,57.07881995493261,33.02038327466996,2.853940997746631,0.5186829675721121,B,636.8203999882098,Correct,sub_013_day_03_data.csv,1,300,29.0,Training at home,,,,,,,,,,,,,
13,4,727,B,68.73151903412675,44.052417235745544,3.4365759517063372,0.6919737518034529,B,862.6179000129923,Correct,sub_013_day_03_data.csv,1,300,29.0,Training at home,,,,,,,,,,,,,
13,4,728,A,58.96087764533742,68.20019753684684,2.948043882266871,1.0712861977756538,B,1800.8099000144284,Incorrect,sub_013_day_03_data.csv,0,300,29.0,Training at home,,,,,,,,,,,,,
13,4,729,A,52.47568087649951,76.64468731293067,2.6237840438249753,1.2039319329949492,A,587.7327999914996,Correct,sub_013_day_03_data.csv,1,300,29.0,Training at home,,,,,,,,,,,,,
13,4,730,B,38.66001847907077,26.602965685731633,1.9330009239535384,0.4178784078099793,B,489.6881000022404,Correct,sub_013_day_03_data.csv,1,300,29.0,Training at home,,,,,,,,,,,,,
13,4,731,A,44.577059086159814,60.11083103283895,2.2288529543079907,0.9442187258697212,A,568.4828999801539,Correct,sub_013_day_03_data.csv,1,300,29.0,Training at home,,,,,,,,,,,,,
13,4,732,B,80.94142751449786,62.12986477128692,4.047071375724893,0.9759336336700112,B,739.1592999920249,Correct,sub_013_day_03_data.csv,1,300,29.0,Training at home,,,,,,,,,,,,,
13,4,733,B,61.42197877003404,38.203849634734595,3.071098938501702,0.6001046667566565,B,686.0547999967821,Correct,sub_013_day_03_data.csv,1,300,29.0,Training at home,,,,,,,,,,,,,
13,4,734,A,30.320627495509136,45.39695114612965,1.5160313747754568,0.7130936410802782,A,650.7013000082225,Correct,sub_013_day_03_data.csv,1,300,29.0,Training at home,,,,,,,,,,,,,
13,4,735,B,88.23376269452426,61.35709163353903,4.411688134726213,0.96379494160781,B,633.8199999881908,Correct,sub_013_day_03_data.csv,1,300,29.0,Training at home,,,,,,,,,,,,,
13,4,736,B,69.85167261723171,37.35192225433183,3.492583630861586,0.58672262275833,B,465.9302999789361,Correct,sub_013_day_03_data.csv,1,300,29.0,Training at home,,,,,,,,,,,,,
13,4,737,A,35.61427930643788,62.45584795997125,1.780713965321894,0.9810541656238336,A,1377.6124000141865,Correct,sub_013_day_03_data.csv,1,300,29.0,Training at home,,,,,,,,,,,,,
13,4,738,A,43.37317890476933,75.97766272951043,2.168658945238467,1.1934543353397649,A,713.7021999806166,Correct,sub_013_day_03_data.csv,1,300,29.0,Training at home,,,,,,,,,,,,,
13,4,739,B,50.80788146100985,34.34649175674912,2.5403940730504924,0.5395134308979271,B,587.1869999973569,Correct,sub_013_day_03_data.csv,1,300,29.0,Training at home,,,,,,,,,,,,,
13,4,740,A,34.44128061917548,42.911117524047285,1.7220640309587738,0.6740462578543759,A,606.0551000118721,Correct,sub_013_day_03_data.csv,1,300,29.0,Training at home,,,,,,,,,,,,,
13,4,741,B,76.18853734088104,60.92641003448877,3.809426867044052,0.9570298108697468,B,603.3653999911621,Correct,sub_013_day_03_data.csv,1,300,29.0,Training at home,,,,,,,,,,,,,
13,4,742,B,63.251713794524186,37.037559135233934,3.1625856897262095,0.5817846184307423,B,525.5452999845147,Correct,sub_013_day_03_data.csv,1,300,29.0,Training at home,,,,,,,,,,,,,
13,4,743,A,32.80954222325151,43.47266472537106,1.6404771111625758,0.6828670206659894,A,697.7441000053659,Correct,sub_013_day_03_data.csv,1,300,29.0,Training at home,,,,,,,,,,,,,
13,4,744,A,56.36487882553567,82.63679735580196,2.818243941276784,1.2980557774458794,A,739.5848000014666,Correct,sub_013_day_03_data.csv,1,300,29.0,Training at home,,,,,,,,,,,,,
13,4,745,A,47.71595507674917,69.68670962895891,2.3857977538374584,1.094636275115912,B,979.3559999961872,Incorrect,sub_013_day_03_data.csv,0,300,29.0,Training at home,,,,,,,,,,,,,
13,4,746,A,31.341628250739053,56.576504319173935,1.5670814125369523,0.8887016516745403,A,677.7153000002727,Correct,sub_013_day_03_data.csv,1,300,29.0,Training at home,,,,,,,,,,,,,
13,4,747,A,37.49086338460334,68.6463296358553,1.8745431692301668,1.0782940243995314,A,535.7939999958035,Correct,sub_013_day_03_data.csv,1,300,29.0,Training at home,,,,,,,,,,,,,
13,4,748,A,14.86842672334238,40.46654420579135,0.743421336167119,0.6356469899654036,A,593.4450999775436,Correct,sub_013_day_03_data.csv,1,300,29.0,Training at home,,,,,,,,,,,,,
13,4,749,A,36.481904064569264,47.31885059376633,1.8240952032284632,0.7432827670084465,B,1785.5420999985654,Incorrect,sub_013_day_03_data.csv,0,300,29.0,Training at home,,,,,,,,,,,,,
13,4,750,A,21.097889056708215,46.56188397257496,1.0548944528354107,0.7313923631277092,A,570.8888999943156,Correct,sub_013_day_03_data.csv,1,300,30.0,Training at home,,,,,,,,,,,,,
13,4,751,A,19.330812805870153,48.36722657080563,0.9665406402935076,0.75975061834678,A,565.5466000025626,Correct,sub_013_day_03_data.csv,1,300,30.0,Training at home,,,,,,,,,,,,,
13,4,752,B,56.154979753942754,34.70000947483012,2.807748987697138,0.5450664742281125,B,508.1262000021525,Correct,sub_013_day_03_data.csv,1,300,30.0,Training at home,,,,,,,,,,,,,
13,4,753,A,34.35693514875572,45.7226091201516,1.717846757437786,0.7182090645741296,A,795.0420999841299,Correct,sub_013_day_03_data.csv,1,300,30.0,Training at home,,,,,,,,,,,,,
13,4,754,A,58.030383765935056,81.30426069914063,2.9015191882967533,1.2771243405898476,A,2048.2535999908578,Correct,sub_013_day_03_data.csv,1,300,30.0,Training at home,,,,,,,,,,,,,
13,4,755,B,65.01726441112838,39.36522297380442,3.250863220556419,0.6183474765071406,B,542.7032000152394,Correct,sub_013_day_03_data.csv,1,300,30.0,Training at home,,,,,,,,,,,,,
13,4,756,B,60.73168830298264,51.66202947392309,3.036584415149132,0.8115052613240807,B,511.2192000087816,Correct,sub_013_day_03_data.csv,1,300,30.0,Training at home,,,,,,,,,,,,,
13,4,757,B,63.724599099100146,39.93957396277076,3.1862299549550075,0.6273693607447339,B,521.1934999970254,Correct,sub_013_day_03_data.csv,1,300,30.0,Training at home,,,,,,,,,,,,,
13,4,758,A,38.36908776091928,56.15383510464826,1.918454388045964,0.8820623791782781,A,3320.2480000036303,Correct,sub_013_day_03_data.csv,1,300,30.0,Training at home,,,,,,,,,,,,,
13,4,759,A,64.2421604301661,76.46822136618573,3.212108021508305,1.2011600123854358,B,679.2776999936905,Incorrect,sub_013_day_03_data.csv,0,300,30.0,Training at home,,,,,,,,,,,,,
13,4,760,A,38.69576192948656,71.26712249980258,1.934788096474328,1.1194613424393185,A,636.438800022006,Correct,sub_013_day_03_data.csv,1,300,30.0,Training at home,,,,,,,,,,,,,
13,4,761,A,29.91846878135727,43.50262024016242,1.4959234390678633,0.6833375607920046,A,1052.8300000005402,Correct,sub_013_day_03_data.csv,1,300,30.0,Training at home,,,,,,,,,,,,,
13,4,762,B,34.85856186228311,24.37562026377759,1.7429280931141558,0.3828913477368909,B,1288.3048000221606,Correct,sub_013_day_03_data.csv,1,300,30.0,Training at home,,,,,,,,,,,,,
13,4,763,B,84.76598034715843,64.32921413835814,4.238299017357922,1.0104809327413529,B,670.3317000064999,Correct,sub_013_day_03_data.csv,1,300,30.0,Training at home,,,,,,,,,,,,,
13,4,764,B,32.090489581226734,18.011905006018118,1.6045244790613369,0.2829303422203187,B,746.2951999914367,Correct,sub_013_day_03_data.csv,1,300,30.0,Training at home,,,,,,,,,,,,,
13,4,765,B,30.853683760354052,12.52689110777682,1.5426841880177025,0.1967719453825548,B,511.1332999949809,Correct,sub_013_day_03_data.csv,1,300,30.0,Training at home,,,,,,,,,,,,,
13,4,766,B,59.11615227581214,45.09125008557294,2.9558076137906073,0.7082917000500805,B,1045.9026000171434,Correct,sub_013_day_03_data.csv,1,300,30.0,Training at home,,,,,,,,,,,,,
13,4,767,B,42.93782779467136,16.497377779882655,2.1468913897335677,0.2591402041838742,B,527.0649000012781,Correct,sub_013_day_03_data.csv,1,300,30.0,Training at home,,,,,,,,,,,,,
13,4,768,A,29.215980202113464,48.23784591680731,1.4607990101056731,0.7577183117861914,A,890.3902999882121,Correct,sub_013_day_03_data.csv,1,300,30.0,Training at home,,,,,,,,,,,,,
13,4,769,A,24.2234387551784,48.440970698967504,1.2111719377589198,0.7609089884031736,A,581.0253999952693,Correct,sub_013_day_03_data.csv,1,300,30.0,Training at home,,,,,,,,,,,,,
13,4,770,B,46.15770632709623,34.65157492148225,2.307885316354811,0.5443056660432247,B,1393.7976000015624,Correct,sub_013_day_03_data.csv,1,300,30.0,Training at home,,,,,,,,,,,,,
13,4,771,A,26.439381468783036,54.02939915444334,1.3219690734391518,0.8486918173073489,A,433.40700000408106,Correct,sub_013_day_03_data.csv,1,300,30.0,Training at home,,,,,,,,,,,,,
13,4,772,B,64.89412099805597,46.20998410561712,3.2447060499027987,0.7258647329435393,B,672.7216000144836,Correct,sub_013_day_03_data.csv,1,300,30.0,Training at home,,,,,,,,,,,,,
13,4,773,A,32.38094303999898,43.88087729779359,1.6190471519999492,0.6892792087591174,A,751.4126999885775,Correct,sub_013_day_03_data.csv,1,300,30.0,Training at home,,,,,,,,,,,,,
13,4,774,A,16.608381054110996,38.99830049793272,0.8304190527055497,0.612583871733963,A,626.1991999926977,Correct,sub_013_day_03_data.csv,1,300,30.0,Training at home,,,,,,,,,,,,,
13,4,775,B,78.3430288095112,52.55077588611302,3.91715144047556,0.8254656573212816,B,719.5789999968838,Correct,sub_013_day_03_data.csv,1,300,31.0,Training at home,,,,,,,,,,,,,
13,4,776,B,61.19401059955187,28.92669579337453,3.0597005299775937,0.454379474985461,B,1118.8632999837864,Correct,sub_013_day_03_data.csv,1,300,31.0,Training at home,,,,,,,,,,,,,
13,4,777,A,15.687147528966529,33.18262646892472,0.7843573764483264,0.5212314777079405,A,523.3832999947481,Correct,sub_013_day_03_data.csv,1,300,31.0,Training at home,,,,,,,,,,,,,
13,4,778,A,60.99045318847661,78.56965790298665,3.0495226594238307,1.2341693003154304,A,1001.3890000118408,Correct,sub_013_day_03_data.csv,1,300,31.0,Training at home,,,,,,,,,,,,,
13,4,779,B,55.544019321787395,47.87835781618077,2.7772009660893695,0.7520714859062848,A,827.0502000232227,Incorrect,sub_013_day_03_data.csv,0,300,31.0,Training at home,,,,,,,,,,,,,
13,4,780,B,59.44917129038126,34.66818229461727,2.972458564519063,0.5445665340504067,B,640.5287000234239,Correct,sub_013_day_03_data.csv,1,300,31.0,Training at home,,,,,,,,,,,,,
13,4,781,A,31.190001305943632,46.34501435521141,1.5595000652971818,0.7279857831442283,A,593.6528000165708,Correct,sub_013_day_03_data.csv,1,300,31.0,Training at home,,,,,,,,,,,,,
13,4,782,A,59.999800661167214,78.50589534651147,2.999990033058361,1.2331677204204476,A,1176.2262000120245,Correct,sub_013_day_03_data.csv,1,300,31.0,Training at home,,,,,,,,,,,,,
13,4,783,A,30.127060240740633,49.57469663740322,1.5063530120370316,0.778717513800043,A,1015.4298999987076,Correct,sub_013_day_03_data.csv,1,300,31.0,Training at home,,,,,,,,,,,,,
13,4,784,A,47.415046269636655,56.73865940396123,2.370752313481833,0.8912487777900903,A,1682.692300004419,Correct,sub_013_day_03_data.csv,1,300,31.0,Training at home,,,,,,,,,,,,,
13,4,785,A,54.006347175097055,63.690170992856594,2.700317358754853,1.00044286648518,A,497.0529999991413,Correct,sub_013_day_03_data.csv,1,300,31.0,Training at home,,,,,,,,,,,,,
13,4,786,A,51.04829760521895,65.0455680393105,2.552414880260947,1.0217333935043644,A,582.5730000215117,Correct,sub_013_day_03_data.csv,1,300,31.0,Training at home,,,,,,,,,,,,,
13,4,787,B,74.94476301053602,44.76246480582403,3.747238150526801,0.7031271529527422,B,570.6762000045273,Correct,sub_013_day_03_data.csv,1,300,31.0,Training at home,,,,,,,,,,,,,
13,4,788,A,57.64065772429292,84.60583758612579,2.882032886214646,1.3289853890569197,A,1006.3646000053268,Correct,sub_013_day_03_data.csv,1,300,31.0,Training at home,,,,,,,,,,,,,
13,4,789,A,62.829254940893605,74.87710005518018,3.1414627470446805,1.1761667372773097,A,1726.286599994637,Correct,sub_013_day_03_data.csv,1,300,31.0,Training at home,,,,,,,,,,,,,
13,4,790,B,62.19396172473554,37.25521802593016,3.109698086236777,0.5852035962907411,B,655.4524000093807,Correct,sub_013_day_03_data.csv,1,300,31.0,Training at home,,,,,,,,,,,,,
13,4,791,B,59.47553818590007,42.21500867892705,2.9737769092950037,0.6631118056847328,B,1055.568800016772,Correct,sub_013_day_03_data.csv,1,300,31.0,Training at home,,,,,,,,,,,,,
13,4,792,A,21.865985284222784,37.03694003524785,1.0932992642111392,0.5817748936309017,A,909.0674000035506,Correct,sub_013_day_03_data.csv,1,300,31.0,Training at home,,,,,,,,,,,,,
13,4,793,A,52.444959338123326,72.24637969064352,2.6222479669061665,1.1348434784229229,A,1171.533999993699,Correct,sub_013_day_03_data.csv,1,300,31.0,Training at home,,,,,,,,,,,,,
13,4,794,B,59.47947626850603,50.99046622101601,2.9739738134253013,0.800956370415312,B,766.133400000399,Correct,sub_013_day_03_data.csv,1,300,31.0,Training at home,,,,,,,,,,,,,
13,4,795,B,69.32455130958847,50.626094222123825,3.4662275654794232,0.7952328284408442,B,632.4755000241566,Correct,sub_013_day_03_data.csv,1,300,31.0,Training at home,,,,,,,,,,,,,
13,4,796,B,40.22081881022671,20.657458182386748,2.0110409405113354,0.3244865943381229,B,842.9490999842528,Correct,sub_013_day_03_data.csv,1,300,31.0,Training at home,,,,,,,,,,,,,
13,4,797,A,55.07236437161585,68.9013940131494,2.753618218580792,1.0823005662690297,A,974.2188999953214,Correct,sub_013_day_03_data.csv,1,300,31.0,Training at home,,,,,,,,,,,,,
13,4,798,A,48.29772172070962,74.3274474896462,2.4148860860354806,1.167532814967768,A,705.5525000032503,Correct,sub_013_day_03_data.csv,1,300,31.0,Training at home,,,,,,,,,,,,,
13,4,799,A,57.32542914981176,76.32520416556338,2.866271457490588,1.1989135034513747,A,1102.8216000122484,Correct,sub_013_day_03_data.csv,1,300,31.0,Training at home,,,,,,,,,,,,,
13,4,800,B,70.76298572783745,52.92450235087639,3.538149286391872,0.8313361389020449,B,539.1712000127882,Correct,sub_013_day_03_data.csv,1,300,32.0,Training at home,,,,,,,,,,,,,
13,4,801,A,31.056531583475675,54.93024668546187,1.5528265791737836,0.8628422972346104,A,596.7140999855474,Correct,sub_013_day_03_data.csv,1,300,32.0,Training at home,,,,,,,,,,,,,
13,4,802,B,61.73339585967212,50.66165456351307,3.086669792983606,0.7957914089771823,B,685.6301000225358,Correct,sub_013_day_03_data.csv,1,300,32.0,Training at home,,,,,,,,,,,,,
13,4,803,B,76.03540747913759,64.31256317470373,3.801770373956879,1.0102193800158936,B,874.7061000030953,Correct,sub_013_day_03_data.csv,1,300,32.0,Training at home,,,,,,,,,,,,,
13,4,804,A,52.287588943991885,70.01258236969386,2.6143794471995943,1.0997550721574023,A,1261.3221000065096,Correct,sub_013_day_03_data.csv,1,300,32.0,Training at home,,,,,,,,,,,,,
13,4,805,A,40.59442995987083,66.28060819724891,2.0297214979935414,1.041133358939703,A,603.3884999924339,Correct,sub_013_day_03_data.csv,1,300,32.0,Training at home,,,,,,,,,,,,,
13,4,806,B,67.06660160228265,41.40817034049875,3.353330080114132,0.6504380187015283,B,620.1432000088971,Correct,sub_013_day_03_data.csv,1,300,32.0,Training at home,,,,,,,,,,,,,
13,4,807,B,47.66423559055053,31.895577259736115,2.3832117795275267,0.5010145560059631,B,621.1016000015661,Correct,sub_013_day_03_data.csv,1,300,32.0,Training at home,,,,,,,,,,,,,
13,4,808,A,19.590749806543084,51.07001634052106,0.9795374903271542,0.802205940770458,A,559.9694999982603,Correct,sub_013_day_03_data.csv,1,300,32.0,Training at home,,,,,,,,,,,,,
13,4,809,A,42.936016910734295,69.87068353533695,2.1468008455367147,1.0975261304795594,A,662.2443000087515,Correct,sub_013_day_03_data.csv,1,300,32.0,Training at home,,,,,,,,,,,,,
13,4,810,A,46.29021164641694,74.90063029130873,2.314510582320847,1.176536349362103,A,479.26220000954345,Correct,sub_013_day_03_data.csv,1,300,32.0,Training at home,,,,,,,,,,,,,
13,4,811,A,49.93682636857877,62.34650690473117,2.496841318428938,0.9793366403444436,A,1758.4448999841698,Correct,sub_013_day_03_data.csv,1,300,32.0,Training at home,,,,,,,,,,,,,
13,4,812,A,32.0102437999734,60.96030697553937,1.6005121899986705,0.9575622627746654,A,615.3253000229597,Correct,sub_013_day_03_data.csv,1,300,32.0,Training at home,,,,,,,,,,,,,
13,4,813,A,38.67939326353864,52.1322156904354,1.9339696631769323,0.8188909291421521,A,695.7241000200156,Correct,sub_013_day_03_data.csv,1,300,32.0,Training at home,,,,,,,,,,,,,
13,4,814,B,45.06807029505664,31.401939585739,2.2534035147528324,0.4932605135551408,B,738.6327999993227,Correct,sub_013_day_03_data.csv,1,300,32.0,Training at home,,,,,,,,,,,,,
13,4,815,A,48.596764011587766,67.59985400122177,2.4298382005793884,1.0618560235699046,A,892.6729999948293,Correct,sub_013_day_03_data.csv,1,300,32.0,Training at home,,,,,,,,,,,,,
13,4,816,A,14.557095324023429,39.35767594423912,0.7278547662011715,0.6182289280439467,A,604.137999995146,Correct,sub_013_day_03_data.csv,1,300,32.0,Training at home,,,,,,,,,,,,,
13,4,817,B,36.89664029076823,12.186404094247017,1.8448320145384116,0.1914235878808149,B,587.9872000077739,Correct,sub_013_day_03_data.csv,1,300,32.0,Training at home,,,,,,,,,,,,,
13,4,818,B,33.87247844463178,19.298904107130436,1.693623922231589,0.3031464768264743,B,601.8451999989338,Correct,sub_013_day_03_data.csv,1,300,32.0,Training at home,,,,,,,,,,,,,
13,4,819,A,24.12273778747477,43.856065606629386,1.2061368893737383,0.6888894676256943,A,544.1397999820765,Correct,sub_013_day_03_data.csv,1,300,32.0,Training at home,,,,,,,,,,,,,
13,4,820,A,19.92818476294731,35.427366378743194,0.9964092381473656,0.5564917697574683,A,638.0336000001989,Correct,sub_013_day_03_data.csv,1,300,32.0,Training at home,,,,,,,,,,,,,
13,4,821,B,49.27538573826567,19.59528524278636,2.4637692869132835,0.3078020208186705,B,573.7406999978703,Correct,sub_013_day_03_data.csv,1,300,32.0,Training at home,,,,,,,,,,,,,
13,4,822,A,17.1575770931009,31.45167839884787,0.857878854655045,0.4940418090044462,A,549.2852000170387,Correct,sub_013_day_03_data.csv,1,300,32.0,Training at home,,,,,,,,,,,,,
13,4,823,B,88.39776121150109,62.53680453338207,4.419888060575055,0.98232582850527,B,2359.1424000042025,Correct,sub_013_day_03_data.csv,1,300,32.0,Training at home,,,,,,,,,,,,,
13,4,824,B,63.14628565075244,39.588217398045046,3.157314282537622,0.6218502647320697,B,634.2164000088815,Correct,sub_013_day_03_data.csv,1,300,32.0,Training at home,,,,,,,,,,,,,
13,4,825,A,17.747852174013182,44.618379699336,0.8873926087006592,0.7008638693925697,A,444.5723000098951,Correct,sub_013_day_03_data.csv,1,300,33.0,Training at home,,,,,,,,,,,,,
13,4,826,B,43.254082438941026,29.29434067653243,2.1627041219470513,0.4601544273057547,B,854.8253999906592,Correct,sub_013_day_03_data.csv,1,300,33.0,Training at home,,,,,,,,,,,,,
13,4,827,A,31.65277013418401,59.36891545056007,1.5826385067092006,0.9325647431553652,A,556.5131999901496,Correct,sub_013_day_03_data.csv,1,300,33.0,Training at home,,,,,,,,,,,,,
13,4,828,B,64.088205451648,48.90429620380801,3.2044102725823995,0.7681868884143122,B,799.7484999941662,Correct,sub_013_day_03_data.csv,1,300,33.0,Training at home,,,,,,,,,,,,,
13,4,829,B,50.425248700764215,31.80455332671762,2.5212624350382105,0.4995847554096045,B,1915.3120999981184,Correct,sub_013_day_03_data.csv,1,300,33.0,Training at home,,,,,,,,,,,,,
13,4,830,B,34.72137482437252,13.051959377248298,1.7360687412186258,0.2050196984725783,B,805.6961999973282,Correct,sub_013_day_03_data.csv,1,300,33.0,Training at home,,,,,,,,,,,,,
13,4,831,B,61.16223554634776,28.09551584873688,3.0581117773173876,0.4413233309460369,B,699.3670000229031,Correct,sub_013_day_03_data.csv,1,300,33.0,Training at home,,,,,,,,,,,,,
13,4,832,A,47.27860739328647,65.25032366799287,2.3639303696643235,1.024949687398613,A,569.1095999791287,Correct,sub_013_day_03_data.csv,1,300,33.0,Training at home,,,,,,,,,,,,,
13,4,833,A,35.49088761311135,48.242210212276746,1.7745443806555672,0.7577868659791156,A,1470.195699977921,Correct,sub_013_day_03_data.csv,1,300,33.0,Training at home,,,,,,,,,,,,,
13,4,834,B,60.67691741825882,48.09679824427265,3.033845870912941,0.7555027401269871,B,547.1781000087503,Correct,sub_013_day_03_data.csv,1,300,33.0,Training at home,,,,,,,,,,,,,
13,4,835,A,56.332547692095126,63.88558229442009,2.816627384604756,1.0035123800322816,A,605.0351999874692,Correct,sub_013_day_03_data.csv,1,300,33.0,Training at home,,,,,,,,,,,,,
13,4,836,A,19.236932178209237,34.612245470292116,0.9618466089104618,0.5436878804685815,A,625.3149000112899,Correct,sub_013_day_03_data.csv,1,300,33.0,Training at home,,,,,,,,,,,,,
13,4,837,A,30.66814937678522,46.11264615525708,1.533407468839261,0.7243357519947063,A,1315.582599985646,Correct,sub_013_day_03_data.csv,1,300,33.0,Training at home,,,,,,,,,,,,,
13,4,838,A,60.42383337780558,75.1124504187856,3.021191668890279,1.179863612143922,B,2537.386000010883,Incorrect,sub_013_day_03_data.csv,0,300,33.0,Training at home,,,,,,,,,,,,,
13,4,839,A,60.94362924294869,70.48861287247874,3.0471814621474347,1.1072325418095708,A,635.1718000078108,Correct,sub_013_day_03_data.csv,1,300,33.0,Training at home,,,,,,,,,,,,,
13,4,840,B,56.63475677029692,24.83651578130164,2.831737838514846,0.390131077596521,B,726.8207000161055,Correct,sub_013_day_03_data.csv,1,300,33.0,Training at home,,,,,,,,,,,,,
13,4,841,A,50.752664461991046,66.51654318061927,2.5376332230995526,1.0448394169921085,A,1088.994999998249,Correct,sub_013_day_03_data.csv,1,300,33.0,Training at home,,,,,,,,,,,,,
13,4,842,B,58.55514951592594,40.77457912836213,2.9277574757962967,0.6404855912143907,B,656.1129000037909,Correct,sub_013_day_03_data.csv,1,300,33.0,Training at home,,,,,,,,,,,,,
13,4,843,B,75.56691623448387,50.033223927561245,3.7783458117241935,0.7859200436311974,B,569.1940000106115,Correct,sub_013_day_03_data.csv,1,300,33.0,Training at home,,,,,,,,,,,,,
13,4,844,A,25.56367417026574,41.038794522666066,1.278183708513287,0.6446358769229438,A,494.53100000391714,Correct,sub_013_day_03_data.csv,1,300,33.0,Training at home,,,,,,,,,,,,,
13,4,845,B,42.68961219433139,20.06824828429432,2.1344806097165696,0.315231306901775,B,799.4898000033572,Correct,sub_013_day_03_data.csv,1,300,33.0,Training at home,,,,,,,,,,,,,
13,4,846,B,70.7103075967392,45.80379308283199,3.53551537983696,0.7194842992778597,B,1130.0059000204783,Correct,sub_013_day_03_data.csv,1,300,33.0,Training at home,,,,,,,,,,,,,
13,4,847,B,50.607002869678766,42.183968684508486,2.530350143483938,0.6626242305925687,B,706.1381000094116,Correct,sub_013_day_03_data.csv,1,300,33.0,Training at home,,,,,,,,,,,,,
13,4,848,A,57.016856829472424,65.55667528155642,2.850842841473621,1.0297618472915462,A,721.4697999879718,Correct,sub_013_day_03_data.csv,1,300,33.0,Training at home,,,,,,,,,,,,,
13,4,849,B,79.23986367589801,60.03206963938379,3.9619931837949,0.942981544794395,B,671.7339000024367,Correct,sub_013_day_03_data.csv,1,300,33.0,Training at home,,,,,,,,,,,,,
13,4,850,B,59.64104251435849,35.21394734093207,2.9820521257179244,0.5531393913508501,B,525.2112000016496,Correct,sub_013_day_03_data.csv,1,300,34.0,Training at home,,,,,,,,,,,,,
13,4,851,B,71.43344809931995,41.59671861789863,3.571672404965997,0.6533997281171605,B,534.0702999965288,Correct,sub_013_day_03_data.csv,1,300,34.0,Training at home,,,,,,,,,,,,,
13,4,852,A,55.27738684192659,65.60305191356414,2.7638693420963296,1.0304903297236148,A,604.5914000133052,Correct,sub_013_day_03_data.csv,1,300,34.0,Training at home,,,,,,,,,,,,,
13,4,853,A,19.304040974237207,41.48615484453792,0.9652020487118604,0.6516629964264447,A,602.31859999476,Correct,sub_013_day_03_data.csv,1,300,34.0,Training at home,,,,,,,,,,,,,
13,4,854,A,39.09850646251599,55.95912033361332,1.9549253231257997,0.8790038067071341,B,1207.5199000246355,Incorrect,sub_013_day_03_data.csv,0,300,34.0,Training at home,,,,,,,,,,,,,
13,4,855,B,77.78299308466273,49.78628110414036,3.8891496542331367,0.7820410748316184,B,749.8833000136074,Correct,sub_013_day_03_data.csv,1,300,34.0,Training at home,,,,,,,,,,,,,
13,4,856,A,15.704726064868002,33.02808165531569,0.7852363032434,0.5188038934525179,A,565.5735000036657,Correct,sub_013_day_03_data.csv,1,300,34.0,Training at home,,,,,,,,,,,,,
13,4,857,B,70.74205788695038,49.39708816126608,3.5371028943475187,0.7759276463808044,B,864.5041999989189,Correct,sub_013_day_03_data.csv,1,300,34.0,Training at home,,,,,,,,,,,,,
13,4,858,A,18.78377701219452,43.62116465136486,0.939188850609726,0.685199652048793,A,593.9254999975674,Correct,sub_013_day_03_data.csv,1,300,34.0,Training at home,,,,,,,,,,,,,
13,4,859,A,35.83168276134435,62.777657152153395,1.7915841380672175,0.9861091325939192,A,991.5944999956992,Correct,sub_013_day_03_data.csv,1,300,34.0,Training at home,,,,,,,,,,,,,
13,4,860,A,49.930503992666566,71.03779272097704,2.496525199633328,1.1158590386972795,A,913.3105000073556,Correct,sub_013_day_03_data.csv,1,300,34.0,Training at home,,,,,,,,,,,,,
13,4,861,A,31.57099994178945,60.68137510373635,1.5785499970894723,0.9531808111781236,A,539.0995999914594,Correct,sub_013_day_03_data.csv,1,300,34.0,Training at home,,,,,,,,,,,,,
13,4,862,A,49.29091010103809,62.41312235144989,2.4645455050519045,0.9803830333345795,A,1364.7555999923495,Correct,sub_013_day_03_data.csv,1,300,34.0,Training at home,,,,,,,,,,,,,
13,4,863,B,83.21533431722676,67.93495277579456,4.160766715861338,1.0671197428120287,B,700.3535999974702,Correct,sub_013_day_03_data.csv,1,300,34.0,Training at home,,,,,,,,,,,,,
13,4,864,B,71.93843650431,59.37917526341263,3.5969218252155004,0.9327259039187896,B,546.866200020304,Correct,sub_013_day_03_data.csv,1,300,34.0,Training at home,,,,,,,,,,,,,
13,4,865,A,27.353126757945542,51.75469806647447,1.367656337897277,0.8129608961719703,A,628.7500999751501,Correct,sub_013_day_03_data.csv,1,300,34.0,Training at home,,,,,,,,,,,,,
13,4,866,B,63.3438804013912,46.47756959241143,3.16719402006956,0.7300679559411405,B,514.513000001898,Correct,sub_013_day_03_data.csv,1,300,34.0,Training at home,,,,,,,,,,,,,
13,4,867,A,55.8277369174654,75.50439394034674,2.7913868458732702,1.1860202465837153,A,569.253599998774,Correct,sub_013_day_03_data.csv,1,300,34.0,Training at home,,,,,,,,,,,,,
13,4,868,A,45.71020298959043,61.90396615453743,2.285510149479521,0.97238522649583,A,800.381799985189,Correct,sub_013_day_03_data.csv,1,300,34.0,Training at home,,,,,,,,,,,,,
13,4,869,B,55.356506187066,44.64777443231181,2.7678253093533,0.7013256007784249,B,680.6080999958795,Correct,sub_013_day_03_data.csv,1,300,34.0,Training at home,,,,,,,,,,,,,
13,4,870,A,57.507689655549555,66.29249514734342,2.8753844827774775,1.0413200787151555,B,882.6055999961682,Incorrect,sub_013_day_03_data.csv,0,300,34.0,Training at home,,,,,,,,,,,,,
13,4,871,A,63.3375511852329,74.44869992421843,3.1668775592616445,1.169437443756178,A,558.9484999945853,Correct,sub_013_day_03_data.csv,1,300,34.0,Training at home,,,,,,,,,,,,,
13,4,872,B,40.21935857981227,27.17243639144526,2.0109679289906137,0.4268236327375019,B,592.1143000014126,Correct,sub_013_day_03_data.csv,1,300,34.0,Training at home,,,,,,,,,,,,,
13,4,873,A,58.09352879579619,84.53285804531119,2.9046764397898097,1.3278390291104925,A,819.8251000139862,Correct,sub_013_day_03_data.csv,1,300,34.0,Training at home,,,,,,,,,,,,,
13,4,874,A,30.35387940772233,47.52186234644087,1.5176939703861163,0.74647166816242,A,1441.0224999883212,Correct,sub_013_day_03_data.csv,1,300,34.0,Training at home,,,,,,,,,,,,,
13,4,875,A,23.858664688141307,43.74518697405691,1.1929332344070651,0.6871477901380455,A,647.897799994098,Correct,sub_013_day_03_data.csv,1,300,35.0,Training at home,,,,,,,,,,,,,
13,4,876,B,49.91294023516214,31.87389953088455,2.495647011758107,0.5006740430374303,B,2183.9625000138767,Correct,sub_013_day_03_data.csv,1,300,35.0,Training at home,,,,,,,,,,,,,
13,4,877,B,77.05630647435072,62.23996129053213,3.852815323717536,0.9776630257502442,A,827.5095999997575,Incorrect,sub_013_day_03_data.csv,0,300,35.0,Training at home,,,,,,,,,,,,,
13,4,878,B,59.146740958219915,38.09940608793408,2.9573370479109955,0.5984640713599398,B,629.6361999993678,Correct,sub_013_day_03_data.csv,1,300,35.0,Training at home,,,,,,,,,,,,,
13,4,879,B,45.626941451841745,31.801075788016796,2.2813470725920872,0.499530130359429,B,932.407599990256,Correct,sub_013_day_03_data.csv,1,300,35.0,Training at home,,,,,,,,,,,,,
13,4,880,A,21.466105393433175,36.64030183348034,1.0733052696716587,0.5755445153268723,A,656.956299993908,Correct,sub_013_day_03_data.csv,1,300,35.0,Training at home,,,,,,,,,,,,,
13,4,881,A,63.05511255299558,78.32239769063321,3.1527556276497792,1.2302853459821574,A,818.8780999917071,Correct,sub_013_day_03_data.csv,1,300,35.0,Training at home,,,,,,,,,,,,,
13,4,882,B,49.34506303474711,37.73626616410812,2.4672531517373555,0.5927598827753559,B,730.2545000275131,Correct,sub_013_day_03_data.csv,1,300,35.0,Training at home,,,,,,,,,,,,,
13,4,883,A,35.90399950546154,45.9269790526089,1.7951999752730772,0.7214192999662422,B,1719.4184999971185,Incorrect,sub_013_day_03_data.csv,0,300,35.0,Training at home,,,,,,,,,,,,,
13,4,884,A,42.470516490986874,59.729160492160666,2.123525824549344,0.9382234590362882,A,762.0737999968696,Correct,sub_013_day_03_data.csv,1,300,35.0,Training at home,,,,,,,,,,,,,
13,4,885,B,52.56317008405241,41.05481211850292,2.6281585042026205,0.64488748072999,B,949.2963000084274,Correct,sub_013_day_03_data.csv,1,300,35.0,Training at home,,,,,,,,,,,,,
13,4,886,B,69.70819962005372,38.43728140382118,3.485409981002686,0.6037714044110409,B,604.7127000056207,Correct,sub_013_day_03_data.csv,1,300,35.0,Training at home,,,,,,,,,,,,,
13,4,887,B,78.5435188085922,46.73725346482778,3.92717594042961,0.7341470606703353,B,468.7360000098124,Correct,sub_013_day_03_data.csv,1,300,35.0,Training at home,,,,,,,,,,,,,
13,4,888,A,54.17110765858199,74.47932830151198,2.7085553829290996,1.169918553181662,A,815.4856000037398,Correct,sub_013_day_03_data.csv,1,300,35.0,Training at home,,,,,,,,,,,,,
13,4,889,B,39.72464396441216,15.95183967500232,1.986232198220608,0.2505709116711474,B,543.0855000158772,Correct,sub_013_day_03_data.csv,1,300,35.0,Training at home,,,,,,,,,,,,,
13,4,890,B,41.336173338078666,19.412553967454404,2.066808666903933,0.3049316846578507,B,627.7496999828145,Correct,sub_013_day_03_data.csv,1,300,35.0,Training at home,,,,,,,,,,,,,
13,4,891,B,83.9491869969587,66.85144921791236,4.197459349847935,1.050100108724123,B,1253.0678000184707,Correct,sub_013_day_03_data.csv,1,300,35.0,Training at home,,,,,,,,,,,,,
13,4,892,A,57.701131255659725,73.98744534602449,2.885056562782986,1.1621920737847344,A,831.0528000001796,Correct,sub_013_day_03_data.csv,1,300,35.0,Training at home,,,,,,,,,,,,,
13,4,893,A,44.61192324527978,69.99044429376718,2.230596162263989,1.0994073280739232,A,649.2755000072066,Correct,sub_013_day_03_data.csv,1,300,35.0,Training at home,,,,,,,,,,,,,
13,4,894,B,89.38653828640797,69.00606087092157,4.469326914320399,1.0839446694262864,B,734.6933999797329,Correct,sub_013_day_03_data.csv,1,300,35.0,Training at home,,,,,,,,,,,,,
13,4,895,B,72.65105389025479,63.05882919592398,3.6325526945127393,0.9905257727294416,B,521.8440000026021,Correct,sub_013_day_03_data.csv,1,300,35.0,Training at home,,,,,,,,,,,,,
13,4,896,B,69.83304737055174,50.60646605698813,3.4916523685275873,0.7949245099438756,B,493.90760000096634,Correct,sub_013_day_03_data.csv,1,300,35.0,Training at home,,,,,,,,,,,,,
13,4,897,A,14.693266191528966,40.3033247560752,0.7346633095764483,0.6330831448446473,A,538.0400999856647,Correct,sub_013_day_03_data.csv,1,300,35.0,Training at home,,,,,,,,,,,,,
13,4,898,A,46.89231347145528,63.30705669500329,2.344615673572764,0.9944249211670744,A,675.9816000121646,Correct,sub_013_day_03_data.csv,1,300,35.0,Training at home,,,,,,,,,,,,,
13,4,899,B,73.97117754871861,48.019909199340155,3.698558877435931,0.7542949698334798,B,1184.4779000093697,Correct,sub_013_day_03_data.csv,1,300,35.0,Training at home,,,,,,,,,,,,,
