subject,day,trial,cat,x,y,xt,yt,resp,rt,fb,f_name,acc,n_trials,block,session_type,ns_left_digit,ns_right_digit,ns_left_size,ns_right_size,ns_congruent,ns_cue,ns_correct_side,ns_resp,ns_rt,ns_fb,acc_stroop,acc_stroop_mean,resp_key
13,22,0,B,41.00837319,21.90922797410204,2.05041866,0.3441493482463148,B,2212.7846000075806,Correct,sub_013_day_22_data.csv,1,351,,Dual-Task at home,3.0,5.0,small,big,True,Size,right,right,970.2203999913764,Correct,1.0,0.8945868945868946,
13,22,1,A,59.56666691,75.75575708,2.9783333456095447,1.1899686496253854,A,724.7433,Correct,sub_013_day_22_data.csv,1,351,,Dual-Task at home,2.0,7.0,big,small,False,Value,right,right,894.9735000205692,Correct,1.0,0.8945868945868946,
13,22,2,A,58.45288679450226,67.64085982217699,2.922644339725113,1.0625001414992412,B,777.8313,Incorrect,sub_013_day_22_data.csv,0,351,,Dual-Task at home,5.0,6.0,big,small,False,Size,left,left,878.6770000006072,Correct,1.0,0.8945868945868946,
13,22,3,B,68.17806391657776,52.52875073767065,3.408903195828888,0.8251196870985775,B,582.1157000027597,Correct,sub_013_day_22_data.csv,1,351,,Dual-Task at home,2.0,7.0,big,small,False,Value,right,right,490.1860000099987,Correct,1.0,0.8945868945868946,
13,22,4,A,46.723452419700024,59.40351284124511,2.3361726209850016,0.9331081976974128,B,701.8995,Incorrect,sub_013_day_22_data.csv,0,351,,Dual-Task at home,3.0,7.0,big,small,False,Size,left,left,409.60650000488386,Correct,1.0,0.8945868945868946,
13,22,5,A,69.50127418,84.59316622,3.4750637089641203,1.3287863476392543,A,621.0817999963183,Correct,sub_013_day_22_data.csv,1,351,,Dual-Task at home,3.0,5.0,big,small,False,Size,left,left,484.0656,Correct,1.0,0.8945868945868946,
13,22,6,A,24.731277935243767,38.50844414442757,1.2365638967621884,0.6048892261265326,A,703.1789000029676,Correct,sub_013_day_22_data.csv,1,351,,Dual-Task at home,7.0,2.0,small,big,False,Size,right,right,707.9895999922883,Correct,1.0,0.8945868945868946,
13,22,7,A,11.297426031704234,37.19013849,0.5648713015852117,0.5841813294057567,A,512.9537000029813,Correct,sub_013_day_22_data.csv,1,351,,Dual-Task at home,4.0,6.0,big,small,False,Value,right,right,647.7128000115044,Correct,1.0,0.8945868945868946,
13,22,8,A,28.889859415905978,48.671568550430635,1.4444929707952985,0.7645312109836245,A,962.679299991578,Correct,sub_013_day_22_data.csv,1,351,,Dual-Task at home,3.0,6.0,big,small,False,Size,left,right,738.4686000004876,Incorrect,0.0,0.8945868945868946,
13,22,9,A,63.21366688502325,78.09970530697935,3.1606833442511624,1.2267873021996702,A,957.2918000048958,Correct,sub_013_day_22_data.csv,1,351,,Dual-Task at home,8.0,4.0,big,small,True,Size,left,left,478.16460000467487,Correct,1.0,0.8945868945868946,
13,22,10,B,57.82499056,35.87742786468194,2.891249528,0.5635613190469128,B,546.3484000065364,Correct,sub_013_day_22_data.csv,1,351,,Dual-Task at home,7.0,8.0,big,small,False,Value,right,right,415.9221000154502,Correct,1.0,0.8945868945868946,
13,22,11,B,64.06199314998696,44.659412541016465,3.203099657499348,0.7015084117624661,B,624.0263000072446,Correct,sub_013_day_22_data.csv,1,351,,Dual-Task at home,4.0,7.0,big,small,False,Size,left,left,588.2054999819957,Correct,1.0,0.8945868945868946,
13,22,12,B,63.708149057739135,44.01982267397525,3.185407452886957,0.6914617576244303,B,696.6598999861162,Correct,sub_013_day_22_data.csv,1,351,,Dual-Task at home,5.0,3.0,small,big,False,Value,left,left,306.46220000926405,Correct,1.0,0.8945868945868946,
13,22,13,B,57.01120423924235,25.32794345327636,2.8505602119621174,0.3978504054167536,B,425.14049998135306,Correct,sub_013_day_22_data.csv,1,351,,Dual-Task at home,5.0,6.0,big,small,False,Size,left,left,650.3293999994639,Correct,1.0,0.8945868945868946,
13,22,14,B,61.49507529089601,38.3333531079256,3.0747537645448006,0.6021389025566126,B,520.3349999792408,Correct,sub_013_day_22_data.csv,1,351,,Dual-Task at home,2.0,3.0,big,small,False,Value,right,left,846.4425000129268,Incorrect,0.0,0.8945868945868946,
13,22,15,B,52.10814232,44.54003718607442,2.6054071159080703,0.6996332680719379,B,741.7505999910645,Correct,sub_013_day_22_data.csv,1,351,,Dual-Task at home,8.0,6.0,small,big,False,Value,left,left,1026.5235000115354,Correct,1.0,0.8945868945868946,
13,22,16,B,39.61673061656273,26.129714609777956,1.9808365308281364,0.4104445972923816,A,960.4955000104384,Incorrect,sub_013_day_22_data.csv,0,351,,Dual-Task at home,7.0,6.0,small,big,False,Value,left,left,624.2865000094753,Correct,1.0,0.8945868945868946,
13,22,17,A,32.14925456034825,41.51521913,1.6074627280174123,0.6521195371558912,A,608.6607000033837,Correct,sub_013_day_22_data.csv,1,351,,Dual-Task at home,8.0,4.0,small,big,False,Value,left,right,487.1147999947425,Incorrect,0.0,0.8945868945868946,
13,22,18,A,47.75770699026624,72.06718019081514,2.387885349513312,1.1320286192619835,A,1553.874299977906,Correct,sub_013_day_22_data.csv,1,351,,Dual-Task at home,7.0,6.0,small,big,False,Value,left,left,465.54209999158047,Correct,1.0,0.8945868945868946,
13,22,19,A,43.472782454254286,51.36035456396373,2.1736391227127143,0.8067665629195773,B,723.8513999909628,Incorrect,sub_013_day_22_data.csv,0,351,,Dual-Task at home,4.0,8.0,small,big,True,Value,right,right,950.9917999967,Correct,1.0,0.8945868945868946,
13,22,20,A,56.868483589665914,68.46231691558937,2.8434241794832955,1.075403559348759,B,612.5925999949686,Incorrect,sub_013_day_22_data.csv,0,351,,Dual-Task at home,7.0,5.0,small,big,False,Value,left,left,1074.2923000070732,Correct,1.0,0.8945868945868946,
13,22,21,B,68.91021942556702,58.672771484093715,3.4455109712783507,0.9216297393009076,B,555.9093999909237,Correct,sub_013_day_22_data.csv,1,351,,Dual-Task at home,2.0,5.0,big,small,False,Size,left,left,493.3434999838937,Correct,1.0,0.8945868945868946,
13,22,22,A,27.07582860895432,54.110753355922235,1.353791430447716,0.8499697261158726,A,639.3339000060223,Correct,sub_013_day_22_data.csv,1,351,,Dual-Task at home,4.0,2.0,small,big,False,Value,left,left,417.8805999981705,Correct,1.0,0.8945868945868946,
13,22,23,B,61.60044602242783,37.87191917249092,3.0800223011213914,0.5948907152482197,B,563.2226,Correct,sub_013_day_22_data.csv,1,351,,Dual-Task at home,5.0,7.0,big,small,False,Size,left,left,340.2928000141401,Correct,1.0,0.8945868945868946,
13,22,24,A,41.06277722683138,73.74300615212708,2.053138861341569,1.1583524319057468,A,766.8146,Correct,sub_013_day_22_data.csv,1,351,,Dual-Task at home,4.0,7.0,big,small,False,Size,left,left,348.68130000540987,Correct,1.0,0.8945868945868946,
13,22,25,B,71.24015815387222,41.36791651945413,3.562007907693611,0.6498057131591648,B,583.9656,Correct,sub_013_day_22_data.csv,1,351,,Dual-Task at home,7.0,8.0,big,small,False,Size,left,left,715.6428000016604,Correct,1.0,0.8945868945868946,
13,22,26,B,51.63884315977042,37.60082422343482,2.581942157988521,0.5906323657463198,B,531.1344999936409,Correct,sub_013_day_22_data.csv,1,351,,Dual-Task at home,6.0,5.0,small,big,False,Value,left,left,768.1344999873545,Correct,1.0,0.8945868945868946,
13,22,27,B,49.95512075874532,29.35367801497724,2.497756037937266,0.4610864960384636,B,668.4666000073776,Correct,sub_013_day_22_data.csv,1,351,,Dual-Task at home,7.0,4.0,small,big,False,Value,left,left,704.9625,Correct,1.0,0.8945868945868946,
13,22,28,B,67.41154180542546,50.19247862324734,3.370577090271273,0.7884216105412829,B,574.0854000032414,Correct,sub_013_day_22_data.csv,1,351,,Dual-Task at home,4.0,6.0,small,big,True,Size,right,right,648.878,Correct,1.0,0.8945868945868946,
13,22,29,B,59.78365108,37.67835057165574,2.989182554,0.5918501467764723,B,529.1245999978855,Correct,sub_013_day_22_data.csv,1,351,,Dual-Task at home,6.0,7.0,big,small,False,Value,right,right,753.8250999932643,Correct,1.0,0.8945868945868946,
13,22,30,A,15.535662842968168,37.93328985,0.7767831421484084,0.5958547235812147,A,482.6931,Correct,sub_013_day_22_data.csv,1,351,,Dual-Task at home,2.0,4.0,big,small,False,Value,right,right,755.0464000087231,Correct,1.0,0.8945868945868946,
13,22,31,A,67.57199729345677,79.81995184293518,3.3785998646728386,1.2538088715982811,A,548.1498999870382,Correct,sub_013_day_22_data.csv,1,351,,Dual-Task at home,2.0,5.0,big,small,False,Size,left,left,716.1783000046853,Correct,1.0,0.8945868945868946,
13,22,32,B,39.82465861195149,31.208290352709284,1.991232930597575,0.4902186785158434,A,1082.7711000165436,Incorrect,sub_013_day_22_data.csv,0,351,,Dual-Task at home,8.0,2.0,small,big,False,Size,right,right,507.1016000001691,Correct,1.0,0.8945868945868946,
13,22,33,A,42.569510809711545,60.50453695777635,2.128475540485577,0.9504030440770116,A,647.8165999869816,Correct,sub_013_day_22_data.csv,1,351,,Dual-Task at home,4.0,3.0,small,big,False,Size,right,right,652.8718000045046,Correct,1.0,0.8945868945868946,
13,22,34,B,57.11897308446058,44.86649224019872,2.855948654223029,0.7047612120707589,B,690.2096999983769,Correct,sub_013_day_22_data.csv,1,351,,Dual-Task at home,8.0,4.0,small,big,False,Value,left,left,535.9475,Correct,1.0,0.8945868945868946,
13,22,35,B,40.45480639773385,30.11147203799939,2.0227403198866925,0.4729898967167668,B,513.8627999986056,Correct,sub_013_day_22_data.csv,1,351,,Dual-Task at home,4.0,8.0,big,small,False,Size,left,left,868.9841000013985,Correct,1.0,0.8945868945868946,
13,22,36,A,27.25998667256112,40.65891863825385,1.362999333628056,0.6386688,B,508.63930000923574,Incorrect,sub_013_day_22_data.csv,0,351,,Dual-Task at home,3.0,5.0,big,small,False,Size,left,left,533.0850000027567,Correct,1.0,0.8945868945868946,
13,22,37,B,50.77688952202147,37.95413511903955,2.5388444761010733,0.5961821603166452,B,481.1584999843035,Correct,sub_013_day_22_data.csv,1,351,,Dual-Task at home,2.0,6.0,big,small,False,Size,left,left,514.5526000123937,Correct,1.0,0.8945868945868946,
13,22,38,B,45.01699071179303,23.890077810177864,2.2508495355896514,0.3752644647107165,B,471.429099998204,Correct,sub_013_day_22_data.csv,1,351,,Dual-Task at home,8.0,5.0,big,small,True,Value,left,left,735.6491000100505,Correct,1.0,0.8945868945868946,
13,22,39,B,71.42885949024753,54.42454099587228,3.571442974512377,0.8548986908381443,B,461.1921999894548,Correct,sub_013_day_22_data.csv,1,351,,Dual-Task at home,4.0,5.0,big,small,False,Size,left,left,587.4303000164218,Correct,1.0,0.8945868945868946,
13,22,40,A,33.42810163594382,48.424915399710706,1.6714050817971908,0.7606567923521919,A,669.1770000034012,Correct,sub_013_day_22_data.csv,1,351,,Dual-Task at home,7.0,4.0,small,big,False,Size,right,right,452.91700001689605,Correct,1.0,0.8945868945868946,
13,22,41,B,77.09655824887676,49.559140202377925,3.854827912443838,0.7784731538900854,B,741.5639999962877,Correct,sub_013_day_22_data.csv,1,351,,Dual-Task at home,4.0,3.0,small,big,False,Size,right,right,461.1146000097506,Correct,1.0,0.8945868945868946,
13,22,42,A,46.298762683745416,66.99305081536637,2.314938134187271,1.0523243814156136,B,572.6738,Incorrect,sub_013_day_22_data.csv,0,351,,Dual-Task at home,5.0,7.0,big,small,False,Size,left,right,1382.9209000105038,Incorrect,0.0,0.8945868945868946,
13,22,43,A,32.44887481452855,53.06068421807895,1.6224437407264276,0.8334752786698235,A,682.5516000099014,Correct,sub_013_day_22_data.csv,1,351,,Dual-Task at home,8.0,6.0,small,big,False,Value,left,left,699.6336,Correct,1.0,0.8945868945868946,
13,22,44,A,24.07988370861413,46.99021130390419,1.203994185430706,0.7381205131148875,A,446.23860000865534,Correct,sub_013_day_22_data.csv,1,351,,Dual-Task at home,5.0,6.0,small,big,True,Value,right,right,396.4323999825865,Correct,1.0,0.8945868945868946,
13,22,45,A,47.51293254874591,58.10802644023104,2.3756466274372956,0.9127587448961564,B,627.1978,Incorrect,sub_013_day_22_data.csv,0,351,,Dual-Task at home,2.0,3.0,big,small,False,Size,left,left,426.4005000004545,Correct,1.0,0.8945868945868946,
13,22,46,B,36.727880618992984,21.50420081131497,1.8363940309496491,0.3377871964507339,B,570.8982000069227,Correct,sub_013_day_22_data.csv,1,351,,Dual-Task at home,8.0,3.0,small,big,False,Value,left,left,365.61799998162314,Correct,1.0,0.8945868945868946,
13,22,47,A,55.9409707,75.77862442603453,2.797048534816915,1.1903278489798506,A,573.9378999860492,Correct,sub_013_day_22_data.csv,1,351,,Dual-Task at home,6.0,4.0,small,big,False,Value,left,left,702.0965000265278,Correct,1.0,0.8945868945868946,
13,22,48,A,59.59714927,68.82726861343396,2.979857463722945,1.0811362072130777,B,431.40840000705793,Incorrect,sub_013_day_22_data.csv,0,351,,Dual-Task at home,8.0,4.0,big,small,True,Value,left,left,417.4163999850862,Correct,1.0,0.8945868945868946,
13,22,49,A,40.33087615727768,69.07526859141963,2.016543807863884,1.0850317817577284,B,477.58170001907274,Incorrect,sub_013_day_22_data.csv,0,351,,Dual-Task at home,2.0,7.0,big,small,False,Size,left,right,665.5512000143062,Incorrect,0.0,0.8945868945868946,
13,22,50,B,56.839552808291614,44.826819331488984,2.841977640414581,0.7041380314780136,B,1215.6562999880407,Correct,sub_013_day_22_data.csv,1,351,,Dual-Task at home,3.0,5.0,big,small,False,Size,left,left,413.07379998033866,Correct,1.0,0.8945868945868946,
13,22,51,B,46.76045961750616,22.83161262,2.338022980875308,0.3586381323961051,B,511.7413999978453,Correct,sub_013_day_22_data.csv,1,351,,Dual-Task at home,4.0,5.0,big,small,False,Value,right,right,343.65570000954904,Correct,1.0,0.8945868945868946,
13,22,52,B,47.497641909280645,36.238904134494526,2.374882095464032,0.5692393750153639,B,341.12259998801164,Correct,sub_013_day_22_data.csv,1,351,,Dual-Task at home,5.0,8.0,big,small,False,Value,right,left,367.4173000035807,Incorrect,0.0,0.8945868945868946,
13,22,53,A,49.58648420046943,56.77078760872632,2.4793242100234716,0.8917534464504052,A,1069.800500001293,Correct,sub_013_day_22_data.csv,1,351,,Dual-Task at home,5.0,3.0,small,big,False,Size,right,right,372.07679997663945,Correct,1.0,0.8945868945868946,
13,22,54,A,44.86649940672334,52.04055862133225,2.243324970336167,0.8174511832674318,A,839.3407000112347,Correct,sub_013_day_22_data.csv,1,351,,Dual-Task at home,3.0,5.0,big,small,False,Value,right,right,697.0114000141621,Correct,1.0,0.8945868945868946,
13,22,55,A,16.81919487528456,32.39892691200469,0.8409597437642279,0.5089211538547329,B,458.4169000154361,Incorrect,sub_013_day_22_data.csv,0,351,,Dual-Task at home,3.0,4.0,big,small,False,Size,left,right,465.20559999044053,Incorrect,0.0,0.8945868945868946,
13,22,56,A,18.269786911739793,38.27599255,0.9134893455869896,0.6012378850579685,A,575.7154,Correct,sub_013_day_22_data.csv,1,351,,Dual-Task at home,6.0,8.0,big,small,False,Size,left,left,1267.8092000132892,Correct,1.0,0.8945868945868946,
13,22,57,B,73.21134023153577,63.40909833174083,3.660567011576788,0.9960277874487488,B,651.8842999939807,Correct,sub_013_day_22_data.csv,1,351,,Dual-Task at home,7.0,5.0,small,big,False,Value,left,left,578.9978000102565,Correct,1.0,0.8945868945868946,
13,22,58,A,41.564865531828055,52.145923660084534,2.0782432765914027,0.8191062534258787,B,574.7484999883454,Incorrect,sub_013_day_22_data.csv,0,351,,Dual-Task at home,7.0,4.0,small,big,False,Value,left,left,785.1063999987673,Correct,1.0,0.8945868945868946,
13,22,59,A,20.239307863979995,43.4235372,1.0119653931989998,0.6820953272524536,B,480.9508000034839,Incorrect,sub_013_day_22_data.csv,0,351,,Dual-Task at home,8.0,4.0,small,big,False,Size,right,left,867.6224000228103,Incorrect,0.0,0.8945868945868946,
13,22,60,B,58.23666488155923,49.35221187019893,2.911833244077962,0.7752227312491198,B,874.9538999982178,Correct,sub_013_day_22_data.csv,1,351,,Dual-Task at home,5.0,2.0,small,big,False,Size,right,right,384.3176000227686,Correct,1.0,0.8945868945868946,
13,22,61,A,30.125729876234523,52.03377710201425,1.506286493811726,0.8173446594110838,A,565.0866999931168,Correct,sub_013_day_22_data.csv,1,351,,Dual-Task at home,8.0,3.0,small,big,False,Size,right,right,408.1206000118982,Correct,1.0,0.8945868945868946,
13,22,62,B,49.10825920138208,41.92556897838432,2.4554129600691037,0.6585652975003214,B,681.2579999968875,Correct,sub_013_day_22_data.csv,1,351,,Dual-Task at home,5.0,2.0,small,big,False,Value,left,left,603.2169999962207,Correct,1.0,0.8945868945868946,
13,22,63,A,52.49555024617254,61.88446194,2.624777512308627,0.9720788550553516,A,833.1271,Correct,sub_013_day_22_data.csv,1,351,,Dual-Task at home,2.0,7.0,big,small,False,Size,left,left,482.8239000053145,Correct,1.0,0.8945868945868946,
13,22,64,A,41.58000698578208,54.00191194710575,2.0790003492891036,0.8482600492641514,B,501.72420000308193,Incorrect,sub_013_day_22_data.csv,0,351,,Dual-Task at home,8.0,4.0,small,big,False,Value,left,left,898.0334000079893,Correct,1.0,0.8945868945868946,
13,22,65,B,79.12093061282084,65.20972260827583,3.9560465306410424,1.0243119274439378,B,527.3994999879505,Correct,sub_013_day_22_data.csv,1,351,,Dual-Task at home,8.0,7.0,small,big,False,Value,left,left,634.9891000136267,Correct,1.0,0.8945868945868946,
13,22,66,A,21.247356324444414,45.34164263341597,1.0623678162222208,0.7122248569941669,A,515.4265000019222,Correct,sub_013_day_22_data.csv,1,351,,Dual-Task at home,2.0,8.0,big,small,False,Value,right,right,378.3708999981173,Correct,1.0,0.8945868945868946,
13,22,67,B,81.46605252884673,55.74485848906842,4.073302626442336,0.8756381895232997,A,569.8280000069644,Incorrect,sub_013_day_22_data.csv,0,351,,Dual-Task at home,4.0,8.0,small,big,True,Value,right,right,686.2549999787007,Correct,1.0,0.8945868945868946,
13,22,68,B,40.97636757907589,23.631649031006575,2.0488183789537944,0.371205074940113,B,478.0116999754682,Correct,sub_013_day_22_data.csv,1,351,,Dual-Task at home,3.0,7.0,big,small,False,Size,left,left,398.4245999890845,Correct,1.0,0.8945868945868946,
13,22,69,B,78.62430773721658,62.906044209422745,3.931215386860829,0.9881258317735864,B,989.8485000012442,Correct,sub_013_day_22_data.csv,1,351,,Dual-Task at home,5.0,4.0,small,big,False,Size,right,left,1424.7026999946684,Incorrect,0.0,0.8945868945868946,
13,22,70,B,52.42441602300291,30.020110373034058,2.621220801150146,0.4715547910393927,B,5090.814299997874,Correct,sub_013_day_22_data.csv,1,351,,Dual-Task at home,8.0,2.0,small,big,False,Size,right,right,507.98460000078194,Correct,1.0,0.8945868945868946,
13,22,71,A,46.42959677251423,72.16392492622168,2.3214798386257116,1.133548282012117,A,775.8407999936026,Correct,sub_013_day_22_data.csv,1,351,,Dual-Task at home,2.0,8.0,big,small,False,Value,right,right,745.5977000063285,Correct,1.0,0.8945868945868946,
13,22,72,A,49.890267694841825,62.571475381214555,2.4945133847420915,0.9828704369094912,A,567.2174000064842,Correct,sub_013_day_22_data.csv,1,351,,Dual-Task at home,4.0,8.0,big,small,False,Value,right,right,632.3325000121258,Correct,1.0,0.8945868945868946,
13,22,73,B,54.850739973385146,36.55829320131307,2.742536998669258,0.574256327,B,596.071,Correct,sub_013_day_22_data.csv,1,351,,Dual-Task at home,5.0,3.0,big,small,True,Value,left,left,708.9509999786969,Correct,1.0,0.8945868945868946,
13,22,74,A,24.291122850471854,38.70249788423255,1.214556142523593,0.6079374151433975,B,651.4675999933388,Incorrect,sub_013_day_22_data.csv,0,351,,Dual-Task at home,4.0,6.0,big,small,False,Size,left,left,735.2142,Correct,1.0,0.8945868945868946,
13,22,75,A,26.11456811874264,44.65534375708525,1.305728405937132,0.7014444994539292,B,525.1897999842186,Incorrect,sub_013_day_22_data.csv,0,351,,Dual-Task at home,5.0,6.0,big,small,False,Size,left,left,790.2973000018392,Correct,1.0,0.8945868945868946,
13,22,76,A,25.194029229137342,46.37020129,1.2597014614568671,0.7283814186459646,B,933.7420999945608,Incorrect,sub_013_day_22_data.csv,0,351,,Dual-Task at home,5.0,7.0,small,big,True,Size,right,right,604.8613,Correct,1.0,0.8945868945868946,
13,22,77,A,50.288721146555886,63.352906821363014,2.514436057327794,0.9951451332677635,B,656.9312000065111,Incorrect,sub_013_day_22_data.csv,0,351,,Dual-Task at home,6.0,7.0,big,small,False,Size,left,left,756.8945999955758,Correct,1.0,0.8945868945868946,
13,22,78,B,53.02275597407222,23.98564464670341,2.651137798703611,0.3767656250684938,B,535.8318999933545,Correct,sub_013_day_22_data.csv,1,351,,Dual-Task at home,2.0,5.0,big,small,False,Size,left,left,742.9401999979746,Correct,1.0,0.8945868945868946,
13,22,79,A,33.97312022436481,47.40902385183494,1.6986560112182405,0.7446992052339396,B,560.0373,Incorrect,sub_013_day_22_data.csv,0,351,,Dual-Task at home,6.0,8.0,small,big,True,Size,right,right,464.2503999930341,Correct,1.0,0.8945868945868946,
13,22,80,B,69.09210774869094,60.14490760382243,3.4546053874345466,0.9447539993950272,B,942.0161999878474,Correct,sub_013_day_22_data.csv,1,351,,Dual-Task at home,4.0,7.0,big,small,False,Size,left,right,521.5485999942757,Incorrect,0.0,0.8945868945868946,
13,22,81,B,70.56807943,58.79101012871563,3.528403971595685,0.9234870275874806,B,590.9862000262365,Correct,sub_013_day_22_data.csv,1,351,,Dual-Task at home,3.0,4.0,big,small,False,Value,right,right,603.4223999886308,Correct,1.0,0.8945868945868946,
13,22,82,A,48.58795826110425,63.00360700312755,2.429397913055212,0.9896583445534198,A,606.6896000120323,Correct,sub_013_day_22_data.csv,1,351,,Dual-Task at home,2.0,3.0,big,small,False,Size,left,left,428.2893000054173,Correct,1.0,0.8945868945868946,
13,22,83,A,37.053422997046646,62.54411197640978,1.8526711498523325,0.982440613551932,A,545.7323000009637,Correct,sub_013_day_22_data.csv,1,351,,Dual-Task at home,6.0,2.0,small,big,False,Value,left,right,714.5017000148073,Incorrect,0.0,0.8945868945868946,
13,22,84,A,67.39233499954906,86.66604090923911,3.369616749977453,1.3613469871808903,B,970.4179000109434,Incorrect,sub_013_day_22_data.csv,0,351,,Dual-Task at home,3.0,7.0,big,small,False,Size,left,left,617.9729999857955,Correct,1.0,0.8945868945868946,
13,22,85,B,77.75214018573794,64.13180918853749,3.8876070092868975,1.0073801030406588,B,547.9147000005469,Correct,sub_013_day_22_data.csv,1,351,,Dual-Task at home,7.0,8.0,big,small,False,Size,left,left,736.3871999841649,Correct,1.0,0.8945868945868946,
13,22,86,B,75.66754449737402,61.72173681746879,3.783377224868701,0.969522775,B,496.5461000101641,Correct,sub_013_day_22_data.csv,1,351,,Dual-Task at home,2.0,6.0,small,big,True,Value,right,right,541.9727999833412,Correct,1.0,0.8945868945868946,
13,22,87,B,48.25320308,37.921496069850434,2.4126601541385453,0.5956694673308818,B,836.6312999860384,Correct,sub_013_day_22_data.csv,1,351,,Dual-Task at home,8.0,5.0,small,big,False,Value,left,left,420.00919999554753,Correct,1.0,0.8945868945868946,
13,22,88,B,75.99759239981526,45.16492784150597,3.7998796199907634,0.7094490275339412,B,455.77179998508655,Correct,sub_013_day_22_data.csv,1,351,,Dual-Task at home,7.0,4.0,small,big,False,Value,left,left,575.9381999960169,Correct,1.0,0.8945868945868946,
13,22,89,A,56.66135604524367,80.81800743476914,2.8330678022621836,1.269486292,A,458.9869000192266,Correct,sub_013_day_22_data.csv,1,351,,Dual-Task at home,8.0,2.0,small,big,False,Size,right,right,831.7531999782659,Correct,1.0,0.8945868945868946,
13,22,90,A,29.94285569267231,47.504668898400375,1.4971427846336156,0.7462015941121508,A,494.3183999857865,Correct,sub_013_day_22_data.csv,1,351,,Dual-Task at home,7.0,6.0,small,big,False,Value,left,left,362.67110001062974,Correct,1.0,0.8945868945868946,
13,22,91,A,41.37823356,50.69806612743369,2.068911678169745,0.7963633604857762,B,438.3605000039097,Incorrect,sub_013_day_22_data.csv,0,351,,Dual-Task at home,6.0,8.0,big,small,False,Value,right,right,464.61910000653006,Correct,1.0,0.8945868945868946,
13,22,92,A,12.026169874208133,31.733010334381177,0.6013084937104067,0.4984609607139043,A,515.0721,Correct,sub_013_day_22_data.csv,1,351,,Dual-Task at home,7.0,2.0,small,big,False,Value,left,left,478.3852999971714,Correct,1.0,0.8945868945868946,
13,22,93,A,22.11831087523257,45.24798571015301,1.1059155437616284,0.7107536974837632,A,527.1730000094976,Correct,sub_013_day_22_data.csv,1,351,,Dual-Task at home,2.0,6.0,big,small,False,Value,right,right,396.42319999984466,Correct,1.0,0.8945868945868946,
13,22,94,A,45.27674300149683,75.07224419118292,2.2638371500748415,1.1792320541975965,A,491.89190001925454,Correct,sub_013_day_22_data.csv,1,351,,Dual-Task at home,4.0,8.0,small,big,True,Size,right,right,741.4314,Correct,1.0,0.8945868945868946,
13,22,95,A,59.61309827902531,70.27425426351115,2.9806549139512653,1.103865404653739,A,664.4179999711923,Correct,sub_013_day_22_data.csv,1,351,,Dual-Task at home,2.0,6.0,big,small,False,Value,right,right,568.8480000244454,Correct,1.0,0.8945868945868946,
13,22,96,B,39.81512003136234,27.42345448375343,1.990756001568117,0.4307666157110693,B,599.4740000169259,Correct,sub_013_day_22_data.csv,1,351,,Dual-Task at home,7.0,4.0,small,big,False,Value,left,left,532.7285999956075,Correct,1.0,0.8945868945868946,
13,22,97,A,53.61209920672371,75.44750035,2.6806049603361854,1.185126564223798,B,478.63900000811554,Incorrect,sub_013_day_22_data.csv,0,351,,Dual-Task at home,6.0,3.0,small,big,False,Value,left,left,729.3879000062589,Correct,1.0,0.8945868945868946,
13,22,98,B,75.45343415668759,44.93218097398768,3.772671707834379,0.7057930482882337,B,385.5349999794271,Correct,sub_013_day_22_data.csv,1,351,,Dual-Task at home,3.0,6.0,big,small,False,Value,right,right,462.22270000725985,Correct,1.0,0.8945868945868946,
13,22,99,B,74.99392191568745,47.90703952806223,3.749696095784373,0.7525220171829807,B,542.5436000223272,Correct,sub_013_day_22_data.csv,1,351,,Dual-Task at home,4.0,2.0,big,small,True,Value,left,left,478.66890000295825,Correct,1.0,0.8945868945868946,
13,22,100,A,39.045223800985674,59.648728721626995,1.9522611900492837,0.9369600397391694,A,532.5432000099681,Correct,sub_013_day_22_data.csv,1,351,,Dual-Task at home,5.0,7.0,big,small,False,Value,right,right,522.5282000028528,Correct,1.0,0.8945868945868946,
13,22,101,A,28.93031359157822,61.79154673996487,1.4465156795789111,0.97061934646112,A,492.93420001049526,Correct,sub_013_day_22_data.csv,1,351,,Dual-Task at home,4.0,5.0,big,small,False,Size,left,right,578.4178000176325,Incorrect,0.0,0.8945868945868946,
13,22,102,A,55.90754889456947,69.79656686609577,2.7953774447284734,1.0963619085615763,A,440.1481999957469,Correct,sub_013_day_22_data.csv,1,351,,Dual-Task at home,8.0,4.0,small,big,False,Value,left,left,551.9297000137158,Correct,1.0,0.8945868945868946,
13,22,103,B,85.75035670594205,68.82321375470114,4.287517835297103,1.0810725136410455,A,372.4775000009686,Incorrect,sub_013_day_22_data.csv,0,351,,Dual-Task at home,5.0,2.0,small,big,False,Value,left,left,588.6857000004966,Correct,1.0,0.8945868945868946,
13,22,104,A,18.922926301769365,48.59749491130405,0.9461463150884682,0.7633676649811006,A,462.4704000016209,Correct,sub_013_day_22_data.csv,1,351,,Dual-Task at home,5.0,4.0,small,big,False,Value,left,left,363.75930000212975,Correct,1.0,0.8945868945868946,
13,22,105,B,42.48996644819126,26.915666669604473,2.124498322409563,0.4227903033785053,B,448.8895000249613,Correct,sub_013_day_22_data.csv,1,351,,Dual-Task at home,4.0,5.0,big,small,False,Value,right,left,585.1648999960162,Incorrect,0.0,0.8945868945868946,
13,22,106,B,81.28538868931795,52.86253261949459,4.064269434465898,0.8303627206377749,B,414.3009000108578,Correct,sub_013_day_22_data.csv,1,351,,Dual-Task at home,5.0,7.0,big,small,False,Value,right,right,431.4775000093505,Correct,1.0,0.8945868945868946,
13,22,107,A,47.42235471,62.51894905029928,2.3711177357117053,0.982045355232874,A,512.0990999857895,Correct,sub_013_day_22_data.csv,1,351,,Dual-Task at home,8.0,4.0,small,big,False,Value,left,right,576.8919999827631,Incorrect,0.0,0.8945868945868946,
13,22,108,B,67.43334464910888,37.780034251067136,3.371667232455444,0.5934473902776164,B,497.1430999867152,Correct,sub_013_day_22_data.csv,1,351,,Dual-Task at home,8.0,2.0,small,big,False,Value,left,left,350.0869999988936,Correct,1.0,0.8945868945868946,
13,22,109,B,62.505543952191296,55.02478246130727,3.125277197609565,0.864327262,A,608.923,Incorrect,sub_013_day_22_data.csv,0,351,,Dual-Task at home,8.0,4.0,small,big,False,Value,left,left,623.7023999856319,Correct,1.0,0.8945868945868946,
13,22,110,A,41.66359268574069,68.67628466228574,2.0831796342870343,1.078764556854391,A,500.6609,Correct,sub_013_day_22_data.csv,1,351,,Dual-Task at home,5.0,3.0,small,big,False,Value,left,left,488.2410999853164,Correct,1.0,0.8945868945868946,
13,22,111,A,22.86478924474404,54.93850654,1.1432394622372015,0.8629720426923004,A,488.0681000067853,Correct,sub_013_day_22_data.csv,1,351,,Dual-Task at home,5.0,8.0,big,small,False,Size,left,right,433.88679999043234,Incorrect,0.0,0.8945868945868946,
13,22,112,A,27.78761968120042,55.785010836420376,1.389380984060021,0.8762689011206263,A,383.5338999924715,Correct,sub_013_day_22_data.csv,1,351,,Dual-Task at home,5.0,7.0,big,small,False,Size,left,left,300.8178999880329,Correct,1.0,0.8945868945868946,
13,22,113,B,59.144691966875016,44.799475210383115,2.957234598343751,0.7037085110280882,A,439.7578999924008,Incorrect,sub_013_day_22_data.csv,0,351,,Dual-Task at home,8.0,5.0,small,big,False,Value,left,left,773.8075999950524,Correct,1.0,0.8945868945868946,
13,22,114,A,33.46514446401549,56.19090873581224,1.6732572232007743,0.8826447304148112,A,414.4468000158667,Correct,sub_013_day_22_data.csv,1,351,,Dual-Task at home,2.0,6.0,big,small,False,Value,right,right,580.5572000099346,Correct,1.0,0.8945868945868946,
13,22,115,B,43.25831130678037,23.56951793193218,2.162915565339018,0.370229121918055,B,647.1202000102494,Correct,sub_013_day_22_data.csv,1,351,,Dual-Task at home,7.0,6.0,big,small,True,Value,left,left,249.31859999196604,Correct,1.0,0.8945868945868946,
13,22,116,A,40.71478014827906,58.993886133220435,2.035739007413953,0.9266737964141906,B,698.8874000089709,Incorrect,sub_013_day_22_data.csv,0,351,,Dual-Task at home,2.0,3.0,big,small,False,Size,left,left,598.6466000031214,Correct,1.0,0.8945868945868946,
13,22,117,B,34.535725570405475,11.781903630483855,1.7267862785202737,0.185069709454155,A,558.0765999911819,Incorrect,sub_013_day_22_data.csv,0,351,,Dual-Task at home,5.0,8.0,small,big,True,Value,right,right,704.9965000187512,Correct,1.0,0.8945868945868946,
13,22,118,A,19.457277298212873,33.542429293876395,0.9728638649106436,0.5268832472659858,A,652.4409000121523,Correct,sub_013_day_22_data.csv,1,351,,Dual-Task at home,6.0,2.0,small,big,False,Value,left,left,606.9095999991987,Correct,1.0,0.8945868945868946,
13,22,119,A,35.180603954096235,45.46578572431261,1.7590301977048115,0.7141748921059411,A,846.0497999913059,Correct,sub_013_day_22_data.csv,1,351,,Dual-Task at home,7.0,3.0,small,big,False,Value,left,left,464.2859000014141,Correct,1.0,0.8945868945868946,
13,22,120,A,30.842837854532767,62.94982112951864,1.5421418927266384,0.9888134780264364,B,758.8086999894585,Incorrect,sub_013_day_22_data.csv,0,351,,Dual-Task at home,5.0,3.0,small,big,False,Size,right,right,457.2139999945648,Correct,1.0,0.8945868945868946,
13,22,121,A,31.55255006145175,54.229770426248095,1.577627503072588,0.8518392418848102,A,600.4933000076562,Correct,sub_013_day_22_data.csv,1,351,,Dual-Task at home,5.0,6.0,big,small,False,Size,left,left,382.9044,Correct,1.0,0.8945868945868946,
13,22,122,B,68.12651116467751,40.22649959417715,3.4063255582338754,0.6318763780234987,A,539.8782000120264,Incorrect,sub_013_day_22_data.csv,0,351,,Dual-Task at home,8.0,2.0,small,big,False,Size,right,right,488.8912999886088,Correct,1.0,0.8945868945868946,
13,22,123,B,39.533322658840504,21.228390180771612,1.9766661329420256,0.333454773,B,979.589099995792,Correct,sub_013_day_22_data.csv,1,351,,Dual-Task at home,5.0,8.0,big,small,False,Size,left,left,803.9376999950036,Correct,1.0,0.8945868945868946,
13,22,124,A,56.026424390192176,64.08083418581889,2.801321219509609,1.0065793895703712,B,454.8190000059549,Incorrect,sub_013_day_22_data.csv,0,351,,Dual-Task at home,2.0,5.0,big,small,False,Value,right,right,734.1030000243336,Correct,1.0,0.8945868945868946,
13,22,125,A,24.949408653042916,46.67423151483352,1.247470432652146,0.7331571141947512,A,658.8335999986157,Correct,sub_013_day_22_data.csv,1,351,,Dual-Task at home,2.0,4.0,big,small,False,Size,left,left,511.30990000092424,Correct,1.0,0.8945868945868946,
13,22,126,B,72.77236840476604,55.08072281912099,3.638618420238302,0.865205971,B,557.2236999869347,Correct,sub_013_day_22_data.csv,1,351,,Dual-Task at home,5.0,3.0,small,big,False,Value,left,left,858.0740999896079,Correct,1.0,0.8945868945868946,
13,22,127,A,21.226653375233475,36.82912588977362,1.0613326687616738,0.5785105566672322,B,489.478,Incorrect,sub_013_day_22_data.csv,0,351,,Dual-Task at home,4.0,2.0,big,small,True,Value,left,left,507.1466999943368,Correct,1.0,0.8945868945868946,
13,22,128,B,76.38064818510216,43.91880706407986,3.819032409255107,0.689875008,B,542.3587999830488,Correct,sub_013_day_22_data.csv,1,351,,Dual-Task at home,8.0,5.0,small,big,False,Size,right,right,577.0740000007208,Correct,1.0,0.8945868945868946,
13,22,129,A,46.374611914419546,76.56086659522053,2.3187305957209774,1.2026152802400651,A,461.5479999920354,Correct,sub_013_day_22_data.csv,1,351,,Dual-Task at home,4.0,7.0,big,small,False,Size,left,left,333.6657999898307,Correct,1.0,0.8945868945868946,
13,22,130,A,19.149882226967726,48.82473614297252,0.9574941113483862,0.7669371619011126,A,531.9890999817289,Correct,sub_013_day_22_data.csv,1,351,,Dual-Task at home,2.0,4.0,big,small,False,Value,right,left,681.1809999926481,Incorrect,0.0,0.8945868945868946,
13,22,131,B,51.66541621528682,39.89103946557026,2.5832708107643407,0.6266069826454801,B,384.5666999986861,Correct,sub_013_day_22_data.csv,1,351,,Dual-Task at home,3.0,6.0,big,small,False,Size,left,left,618.8887000025716,Correct,1.0,0.8945868945868946,
13,22,132,A,43.94092119249567,68.79309324640957,2.1970460596247836,1.0805993818031896,B,487.52300001797266,Incorrect,sub_013_day_22_data.csv,0,351,,Dual-Task at home,7.0,2.0,big,small,True,Value,left,left,802.2520999948028,Correct,1.0,0.8945868945868946,
13,22,133,B,67.16019293621358,55.76115280340271,3.3580096468106784,0.8758941400143393,B,574.0350999985822,Correct,sub_013_day_22_data.csv,1,351,,Dual-Task at home,3.0,7.0,big,small,False,Size,left,left,556.6168999939691,Correct,1.0,0.8945868945868946,
13,22,134,A,32.694117630200324,51.103656235818136,1.6347058815100162,0.8027343550101224,A,529.1152,Correct,sub_013_day_22_data.csv,1,351,,Dual-Task at home,2.0,5.0,big,small,False,Size,left,left,274.4657000002917,Correct,1.0,0.8945868945868946,
13,22,135,B,75.33853843705461,52.61609815181304,3.7669269218527304,0.8264917370714768,B,521.2249000032898,Correct,sub_013_day_22_data.csv,1,351,,Dual-Task at home,4.0,6.0,big,small,False,Value,right,right,322.6302,Correct,1.0,0.8945868945868946,
13,22,136,B,88.64382406309771,62.620254792646264,4.432191203154885,0.9836366621124928,B,522.1811000083108,Correct,sub_013_day_22_data.csv,1,351,,Dual-Task at home,7.0,4.0,small,big,False,Value,left,left,600.5557999887969,Correct,1.0,0.8945868945868946,
13,22,137,B,62.70873937573117,39.04672504717049,3.1354369687865584,0.6133445227746569,B,482.9703999857884,Correct,sub_013_day_22_data.csv,1,351,,Dual-Task at home,7.0,5.0,small,big,False,Size,right,right,375.5490999901667,Correct,1.0,0.8945868945868946,
13,22,138,B,45.48335823862972,37.70133769986623,2.2741679119314857,0.5922112277420383,A,469.48950001387857,Incorrect,sub_013_day_22_data.csv,0,351,,Dual-Task at home,2.0,5.0,small,big,True,Size,right,left,359.8638999974355,Incorrect,0.0,0.8945868945868946,
13,22,139,B,41.22631268438458,24.47345122,2.061315634219229,0.3844280728045207,B,801.5901000180747,Correct,sub_013_day_22_data.csv,1,351,,Dual-Task at home,6.0,7.0,big,small,False,Value,right,right,327.0098999782931,Correct,1.0,0.8945868945868946,
13,22,140,A,19.86583136457059,47.44767055384578,0.9932915682285296,0.7453062662095533,A,454.82990000164136,Correct,sub_013_day_22_data.csv,1,351,,Dual-Task at home,6.0,2.0,small,big,False,Value,left,left,344.60489999037236,Correct,1.0,0.8945868945868946,
13,22,141,A,49.50663213408015,71.66674574163113,2.4753316067040076,1.1257386096429798,B,656.9932000129484,Incorrect,sub_013_day_22_data.csv,0,351,,Dual-Task at home,2.0,6.0,big,small,False,Value,right,right,335.65890000318177,Correct,1.0,0.8945868945868946,
13,22,142,B,71.37104502800597,51.270115596798874,3.568552251400298,0.805349093,B,738.3487000188325,Correct,sub_013_day_22_data.csv,1,351,,Dual-Task at home,3.0,6.0,big,small,False,Size,left,left,650.5373999825679,Correct,1.0,0.8945868945868946,
13,22,143,A,38.66783530102701,48.958546993331225,1.93339176505135,0.7690390578234002,A,608.7747,Correct,sub_013_day_22_data.csv,1,351,,Dual-Task at home,6.0,3.0,small,big,False,Value,left,left,752.3880999942776,Correct,1.0,0.8945868945868946,
13,22,144,A,35.99981765415951,63.19668207073243,1.7999908827079754,0.992691161,A,526.1662999982946,Correct,sub_013_day_22_data.csv,1,351,,Dual-Task at home,4.0,7.0,big,small,False,Size,left,right,542.4666000180878,Incorrect,0.0,0.8945868945868946,
13,22,145,A,42.90737046135968,51.10615634977142,2.145368523067984,0.8027736267082662,A,1093.9464000111911,Correct,sub_013_day_22_data.csv,1,351,,Dual-Task at home,8.0,7.0,small,big,False,Value,left,left,476.0085000016261,Correct,1.0,0.8945868945868946,
13,22,146,B,72.07855855148095,59.12403719,3.603927927574048,0.9287182043560068,B,507.2278000006918,Correct,sub_013_day_22_data.csv,1,351,,Dual-Task at home,5.0,8.0,small,big,True,Size,right,right,518.8714000105392,Correct,1.0,0.8945868945868946,
13,22,147,B,64.30451440127898,36.76555055301653,3.215225720063949,0.5775119176127045,B,439.73250000271946,Correct,sub_013_day_22_data.csv,1,351,,Dual-Task at home,2.0,4.0,big,small,False,Value,right,right,763.0194000084884,Correct,1.0,0.8945868945868946,
13,22,148,B,44.29167052468879,15.89548936828821,2.2145835262344393,0.2496857631231445,B,595.7591999904253,Correct,sub_013_day_22_data.csv,1,351,,Dual-Task at home,7.0,4.0,small,big,False,Size,right,right,543.8322999980301,Correct,1.0,0.8945868945868946,
13,22,149,A,54.22193202205455,62.75258666593637,2.711096601102728,0.9857153263173124,A,442.60720000602305,Correct,sub_013_day_22_data.csv,1,351,,Dual-Task at home,4.0,8.0,small,big,True,Size,right,right,313.8330999936443,Correct,1.0,0.8945868945868946,
13,22,150,B,67.64925950260638,38.701381554210954,3.382462975130319,0.6079198798724234,A,635.7023000018671,Incorrect,sub_013_day_22_data.csv,0,351,,Dual-Task at home,7.0,5.0,small,big,False,Value,left,left,910.8571999822744,Correct,1.0,0.8945868945868946,
13,22,151,B,58.805456755717366,44.15851798950438,2.940272837785868,0.6936403785461985,B,825.2617999969516,Correct,sub_013_day_22_data.csv,1,351,,Dual-Task at home,5.0,4.0,small,big,False,Size,right,left,567.5780999881681,Incorrect,0.0,0.8945868945868946,
13,22,152,B,54.272352454468574,26.37577129891725,2.7136176227234285,0.4143096467272146,B,960.3617000102532,Correct,sub_013_day_22_data.csv,1,351,,Dual-Task at home,7.0,6.0,big,small,True,Value,left,left,253.4524,Correct,1.0,0.8945868945868946,
13,22,153,A,27.19937575519966,39.983326443512766,1.359968787759983,0.628056623,B,451.0463000042364,Incorrect,sub_013_day_22_data.csv,0,351,,Dual-Task at home,8.0,7.0,big,small,True,Size,left,left,943.4814,Correct,1.0,0.8945868945868946,
13,22,154,B,64.05764880807332,51.09807816563739,3.202882440403666,0.802646735,A,771.1971999960952,Incorrect,sub_013_day_22_data.csv,0,351,,Dual-Task at home,3.0,2.0,small,big,False,Value,left,left,638.5252000181936,Correct,1.0,0.8945868945868946,
13,22,155,A,36.28363034207394,52.48021772413682,1.814181517103697,0.8243573323047055,B,786.9126999867149,Incorrect,sub_013_day_22_data.csv,0,351,,Dual-Task at home,8.0,4.0,small,big,False,Size,right,left,891.3813999970444,Incorrect,0.0,0.8945868945868946,
13,22,156,B,75.65525289341903,55.36067359059099,3.782762644670952,0.8696034272499156,B,733.8676000072155,Correct,sub_013_day_22_data.csv,1,351,,Dual-Task at home,3.0,2.0,small,big,False,Size,right,right,473.2483999978285,Correct,1.0,0.8945868945868946,
13,22,157,A,56.29621166167269,84.56705935616606,2.8148105830836347,1.3283762620451165,A,470.5481000128202,Correct,sub_013_day_22_data.csv,1,351,,Dual-Task at home,4.0,7.0,big,small,False,Size,left,left,522.1701,Correct,1.0,0.8945868945868946,
13,22,158,A,34.110817100368656,48.419232705841914,1.7055408550184328,0.7605675288056379,A,851.0904000140727,Correct,sub_013_day_22_data.csv,1,351,,Dual-Task at home,2.0,4.0,big,small,False,Value,right,right,358.85530000086874,Correct,1.0,0.8945868945868946,
13,22,159,B,62.228403546577674,30.820851127535448,3.111420177328883,0.4841327973982503,B,538.8449000020046,Correct,sub_013_day_22_data.csv,1,351,,Dual-Task at home,8.0,2.0,small,big,False,Size,right,right,616.2873,Correct,1.0,0.8945868945868946,
13,22,160,B,63.32627298657895,53.09439025571979,3.1663136493289477,0.834004732,B,444.91459999699146,Correct,sub_013_day_22_data.csv,1,351,,Dual-Task at home,4.0,6.0,small,big,True,Size,right,right,672.4839,Correct,1.0,0.8945868945868946,
13,22,161,A,48.124969088771735,64.19090889300413,2.406248454438587,1.0083084390275676,A,388.8644999824464,Correct,sub_013_day_22_data.csv,1,351,,Dual-Task at home,7.0,8.0,small,big,True,Value,right,right,203.4639999910723,Correct,1.0,0.8945868945868946,
13,22,162,B,53.99686811902164,34.258165267604134,2.699843405951082,0.5381260016508508,B,457.15680002467707,Correct,sub_013_day_22_data.csv,1,351,,Dual-Task at home,3.0,5.0,big,small,False,Size,left,left,697.8491000190843,Correct,1.0,0.8945868945868946,
13,22,163,A,63.853037034644046,82.32982697827055,3.1926518517322022,1.2932338980312676,A,600.9206000017002,Correct,sub_013_day_22_data.csv,1,351,,Dual-Task at home,8.0,4.0,big,small,True,Value,left,left,603.4041000239085,Correct,1.0,0.8945868945868946,
13,22,164,A,25.978008286908555,49.39045635876377,1.298900414345428,0.7758234742706978,B,557.2938999976031,Incorrect,sub_013_day_22_data.csv,0,351,,Dual-Task at home,8.0,3.0,small,big,False,Size,right,right,688.523,Correct,1.0,0.8945868945868946,
13,22,165,B,68.18414547429055,44.19240371856332,3.409207273714527,0.6941726543335639,A,519.9408000044059,Incorrect,sub_013_day_22_data.csv,0,351,,Dual-Task at home,8.0,7.0,small,big,False,Size,right,right,662.3148999933619,Correct,1.0,0.8945868945868946,
13,22,166,B,71.73597116406202,51.57240059440409,3.586798558203101,0.8100973741768489,B,543.6675999953877,Correct,sub_013_day_22_data.csv,1,351,,Dual-Task at home,7.0,3.0,small,big,False,Size,right,right,566.2944999930914,Correct,1.0,0.8945868945868946,
13,22,167,B,69.35192877774892,60.54612860906778,3.4675964388874463,0.9510563642077506,A,530.9858999971766,Incorrect,sub_013_day_22_data.csv,0,351,,Dual-Task at home,5.0,3.0,small,big,False,Size,right,right,924.3548000231384,Correct,1.0,0.8945868945868946,
13,22,168,A,34.01213444010952,45.09043942575591,1.700606722005476,0.7082789662354516,A,1272.5336999865249,Correct,sub_013_day_22_data.csv,1,351,,Dual-Task at home,8.0,5.0,small,big,False,Size,right,right,711.2368000089191,Correct,1.0,0.8945868945868946,
13,22,169,B,61.83820747756894,46.14331668885436,3.0919103738784472,0.7248175236098606,A,618.6223000113387,Incorrect,sub_013_day_22_data.csv,0,351,,Dual-Task at home,5.0,2.0,small,big,False,Value,left,left,487.2128000133671,Correct,1.0,0.8945868945868946,
13,22,170,A,27.167343293381556,43.24515137795653,1.3583671646690778,0.6792932493618339,A,1401.8751999828964,Correct,sub_013_day_22_data.csv,1,351,,Dual-Task at home,2.0,4.0,big,small,False,Size,left,left,453.5180000239052,Correct,1.0,0.8945868945868946,
13,22,171,B,57.69711214771907,49.05564575554381,2.884855607385953,0.7705642816135987,A,660.3012999985367,Incorrect,sub_013_day_22_data.csv,0,351,,Dual-Task at home,6.0,8.0,big,small,False,Value,right,right,739.2726000107359,Correct,1.0,0.8945868945868946,
13,22,172,B,67.12338667835012,47.45928887690937,3.356169333917506,0.7454887664014713,A,476.64770000847057,Incorrect,sub_013_day_22_data.csv,0,351,,Dual-Task at home,3.0,6.0,big,small,False,Value,right,right,383.0788999912329,Correct,1.0,0.8945868945868946,
13,22,173,B,79.85239841066668,53.17139534,3.9926199205333344,0.8352143248684567,A,463.3425000065472,Incorrect,sub_013_day_22_data.csv,0,351,,Dual-Task at home,4.0,6.0,big,small,False,Value,right,right,611.2063000036869,Correct,1.0,0.8945868945868946,
13,22,174,A,52.63780357,80.92013291899045,2.6318901786046855,1.2710904755290495,A,460.76800001901574,Correct,sub_013_day_22_data.csv,1,351,,Dual-Task at home,3.0,2.0,small,big,False,Value,left,left,437.09670001408085,Correct,1.0,0.8945868945868946,
13,22,175,A,48.80340672217453,78.94712071114309,2.440170336108727,1.2400984722409685,A,449.1935999831185,Correct,sub_013_day_22_data.csv,1,351,,Dual-Task at home,2.0,8.0,big,small,False,Value,right,right,757.2209999780171,Correct,1.0,0.8945868945868946,
13,22,176,A,23.180462273704688,42.33803250845931,1.1590231136852345,0.665044259,A,467.72600000258535,Correct,sub_013_day_22_data.csv,1,351,,Dual-Task at home,2.0,5.0,big,small,False,Value,right,right,574.2943000223022,Correct,1.0,0.8945868945868946,
13,22,177,B,43.53666845042919,16.721561514736344,2.176833423,0.2626616740562275,B,729.8086,Correct,sub_013_day_22_data.csv,1,351,,Dual-Task at home,7.0,4.0,small,big,False,Size,right,left,677.8341000026558,Incorrect,0.0,0.8945868945868946,
13,22,178,A,52.40919767988753,60.81364467151897,2.6204598839943767,0.9552584966903204,B,1582.4632000003476,Incorrect,sub_013_day_22_data.csv,0,351,,Dual-Task at home,7.0,6.0,small,big,False,Size,right,right,711.5991000027861,Correct,1.0,0.8945868945868946,
13,22,179,B,86.66049358203699,69.97017398616462,4.333024679,1.0990889228266725,A,524.9775999982376,Incorrect,sub_013_day_22_data.csv,0,351,,Dual-Task at home,6.0,3.0,small,big,False,Size,right,right,921.4735999994446,Correct,1.0,0.8945868945868946,
13,22,180,A,31.317967306314344,60.58496057963356,1.5658983653157172,0.95166633537502,A,609.7087000089232,Correct,sub_013_day_22_data.csv,1,351,,Dual-Task at home,7.0,3.0,small,big,False,Value,left,left,493.94759998540394,Correct,1.0,0.8945868945868946,
13,22,181,B,82.91710330714002,67.33211457175749,4.145855165357001,1.0576503824464978,B,558.3145999989938,Correct,sub_013_day_22_data.csv,1,351,,Dual-Task at home,6.0,8.0,small,big,True,Size,right,right,258.5329000139609,Correct,1.0,0.8945868945868946,
13,22,182,B,37.84741018435615,23.92093798781094,1.8923705092178071,0.3757492152474193,B,673.5170999891125,Correct,sub_013_day_22_data.csv,1,351,,Dual-Task at home,8.0,6.0,big,small,True,Size,left,left,228.0563999956939,Correct,1.0,0.8945868945868946,
13,22,183,B,69.89834312450891,41.27260898937821,3.494917156225446,0.6483086259775732,B,621.7929999984335,Correct,sub_013_day_22_data.csv,1,351,,Dual-Task at home,6.0,7.0,small,big,True,Size,right,right,418.0909999995493,Correct,1.0,0.8945868945868946,
13,22,184,B,55.39427715394723,25.02050532135003,2.769713857697362,0.3930211785332879,B,445.05710000521503,Correct,sub_013_day_22_data.csv,1,351,,Dual-Task at home,5.0,8.0,big,small,False,Size,left,left,552.5957,Correct,1.0,0.8945868945868946,
13,22,185,A,52.07763770597379,61.46229541427424,2.60388188529869,0.965447479,B,852.8930000029504,Incorrect,sub_013_day_22_data.csv,0,351,,Dual-Task at home,5.0,8.0,big,small,False,Value,right,right,460.1084000023547,Correct,1.0,0.8945868945868946,
13,22,186,A,38.550722077695994,65.63048728813047,1.9275361038847996,1.030921283579545,A,456.7047999880742,Correct,sub_013_day_22_data.csv,1,351,,Dual-Task at home,3.0,5.0,small,big,True,Value,right,right,268.94919999176636,Correct,1.0,0.8945868945868946,
13,22,187,B,42.88020049148514,21.256889554828007,2.144010024574257,0.3339024403180863,B,493.2987999927718,Correct,sub_013_day_22_data.csv,1,351,,Dual-Task at home,8.0,5.0,small,big,False,Size,right,right,874.3564000178594,Correct,1.0,0.8945868945868946,
13,22,188,A,25.479133270257407,57.34213880252267,1.2739566635128703,0.9007282100156572,A,678.3827999897767,Correct,sub_013_day_22_data.csv,1,351,,Dual-Task at home,6.0,4.0,big,small,True,Size,left,left,323.61339998897165,Correct,1.0,0.8945868945868946,
13,22,189,A,39.778617012049914,55.46743393787967,1.988930850602496,0.8712804148635998,A,655.6731000018772,Correct,sub_013_day_22_data.csv,1,351,,Dual-Task at home,6.0,5.0,small,big,False,Value,left,left,340.85439998307265,Correct,1.0,0.8945868945868946,
13,22,190,A,42.137093973670645,68.42225126888702,2.106854698683532,1.0747742096420518,A,481.4780000015162,Correct,sub_013_day_22_data.csv,1,351,,Dual-Task at home,7.0,3.0,small,big,False,Value,left,left,427.9949000047054,Correct,1.0,0.8945868945868946,
13,22,191,A,44.83892719313349,53.74309930663443,2.2419463596566747,0.8441946298143471,A,468.7413000210654,Correct,sub_013_day_22_data.csv,1,351,,Dual-Task at home,8.0,6.0,small,big,False,Value,left,left,350.62540002400056,Correct,1.0,0.8945868945868946,
13,22,192,A,48.70457693651194,64.24291954879705,2.435228846825597,1.0091254204983044,A,433.7219000153709,Correct,sub_013_day_22_data.csv,1,351,,Dual-Task at home,4.0,3.0,small,big,False,Size,right,left,441.46709999768063,Incorrect,0.0,0.8945868945868946,
13,22,193,B,64.99265068,34.744206126469436,3.2496325339357046,0.5457607136086294,B,458.7320999999065,Correct,sub_013_day_22_data.csv,1,351,,Dual-Task at home,2.0,4.0,big,small,False,Value,right,right,733.0816999892704,Correct,1.0,0.8945868945868946,
13,22,194,B,58.63464232210024,36.293489422897686,2.931732116105012,0.5700967987205712,B,455.44649998191744,Correct,sub_013_day_22_data.csv,1,351,,Dual-Task at home,6.0,7.0,big,small,False,Size,left,right,377.8785000031348,Incorrect,0.0,0.8945868945868946,
13,22,195,B,64.58296232894824,48.28967431576287,3.2291481164474125,0.7585324303732218,B,558.6256,Correct,sub_013_day_22_data.csv,1,351,,Dual-Task at home,5.0,7.0,big,small,False,Size,left,left,415.7225000089966,Correct,1.0,0.8945868945868946,
13,22,196,B,45.19919536405261,17.46928523704953,2.2599597682026307,0.2744068908208972,B,447.49240000965074,Correct,sub_013_day_22_data.csv,1,351,,Dual-Task at home,2.0,5.0,big,small,False,Size,left,left,555.4396000225097,Correct,1.0,0.8945868945868946,
13,22,197,A,46.89818936728511,55.46384158210167,2.3449094683642557,0.8712239862709934,A,567.5144,Correct,sub_013_day_22_data.csv,1,351,,Dual-Task at home,8.0,7.0,small,big,False,Value,left,left,326.0082000051625,Correct,1.0,0.8945868945868946,
13,22,198,B,68.50665222533344,38.371838486433674,3.425332611266672,0.6027434294685706,B,483.20330001297407,Correct,sub_013_day_22_data.csv,1,351,,Dual-Task at home,6.0,8.0,small,big,True,Size,right,right,257.39889999385923,Correct,1.0,0.8945868945868946,
13,22,199,B,40.813369061296434,31.781911577252306,2.040668453064822,0.4992290996406811,B,445.8834000106435,Correct,sub_013_day_22_data.csv,1,351,,Dual-Task at home,7.0,2.0,small,big,False,Size,right,right,536.8811000080314,Correct,1.0,0.8945868945868946,
13,22,200,B,85.05508135405958,61.220348663374395,4.252754067702979,0.9616469880553136,B,479.39140000380576,Correct,sub_013_day_22_data.csv,1,351,,Dual-Task at home,2.0,4.0,big,small,False,Size,left,left,813.3837999776006,Correct,1.0,0.8945868945868946,
13,22,201,A,48.54032552429611,56.37528203973792,2.4270162762148058,0.8855408595004662,A,509.8915999988094,Correct,sub_013_day_22_data.csv,1,351,,Dual-Task at home,7.0,8.0,big,small,False,Size,left,left,388.3472000015899,Correct,1.0,0.8945868945868946,
13,22,202,B,83.23273096048764,66.46112151573992,4.161636548024382,1.0439688555159352,B,445.04359998973086,Correct,sub_013_day_22_data.csv,1,351,,Dual-Task at home,7.0,8.0,big,small,False,Size,left,left,629.7780000022613,Correct,1.0,0.8945868945868946,
13,22,203,A,67.43145357460641,88.07574557553622,3.3715726787303204,1.3834905762977416,A,521.8825000047218,Correct,sub_013_day_22_data.csv,1,351,,Dual-Task at home,5.0,3.0,small,big,False,Size,right,right,542.8896000084933,Correct,1.0,0.8945868945868946,
13,22,204,A,43.69638163326561,65.91284616478156,2.1848190816632806,1.0353565664423596,A,493.8509,Correct,sub_013_day_22_data.csv,1,351,,Dual-Task at home,3.0,7.0,small,big,True,Value,right,right,321.7208000132814,Correct,1.0,0.8945868945868946,
13,22,205,A,62.90174980006074,82.70627625014173,3.1450874900030374,1.2991471493660662,A,465.35789998597465,Correct,sub_013_day_22_data.csv,1,351,,Dual-Task at home,5.0,7.0,big,small,False,Size,left,left,342.95220000785775,Correct,1.0,0.8945868945868946,
13,22,206,A,30.730177169471865,49.49954811217056,1.536508858473593,0.7775370835260478,A,449.7040999995079,Correct,sub_013_day_22_data.csv,1,351,,Dual-Task at home,2.0,8.0,big,small,False,Value,right,right,475.3363999770954,Correct,1.0,0.8945868945868946,
13,22,207,B,65.93953731812948,44.75913704960025,3.2969768659064744,0.7030748806802143,B,514.3673999991734,Correct,sub_013_day_22_data.csv,1,351,,Dual-Task at home,8.0,5.0,small,big,False,Value,left,left,333.9738000067882,Correct,1.0,0.8945868945868946,
13,22,208,A,39.03865085208234,57.503599003090194,1.9519325426041172,0.9032644209154076,A,368.06380000780337,Correct,sub_013_day_22_data.csv,1,351,,Dual-Task at home,7.0,8.0,small,big,True,Value,right,right,333.7706000020262,Correct,1.0,0.8945868945868946,
13,22,209,B,49.53198028579796,37.85832894560671,2.4765990142898975,0.5946772404635193,A,463.5518,Incorrect,sub_013_day_22_data.csv,0,351,,Dual-Task at home,7.0,3.0,small,big,False,Size,right,left,585.2146999968681,Incorrect,0.0,0.8945868945868946,
13,22,210,A,46.01905695615236,64.38343885015098,2.300952847807618,1.011332693,A,452.6880000194069,Correct,sub_013_day_22_data.csv,1,351,,Dual-Task at home,5.0,6.0,big,small,False,Value,right,right,685.4309999907855,Correct,1.0,0.8945868945868946,
13,22,211,A,38.96552240051645,64.72523696,1.9482761200258225,1.0167016446919912,A,418.7336000031792,Correct,sub_013_day_22_data.csv,1,351,,Dual-Task at home,3.0,5.0,big,small,False,Size,left,left,665.4694000026211,Correct,1.0,0.8945868945868946,
13,22,212,A,29.407564984414535,47.11128017339268,1.470378249220727,0.7400222584697046,A,420.69359999732114,Correct,sub_013_day_22_data.csv,1,351,,Dual-Task at home,2.0,8.0,big,small,False,Value,right,right,663.3766999875661,Correct,1.0,0.8945868945868946,
13,22,213,B,56.09667499406356,47.067981512074624,2.804833749703178,0.7393421246881692,B,445.04540000343695,Correct,sub_013_day_22_data.csv,1,351,,Dual-Task at home,8.0,5.0,small,big,False,Size,right,right,644.8165999900084,Correct,1.0,0.8945868945868946,
13,22,214,A,44.278629511602134,56.69370432128106,2.2139314755801065,0.8905426250026425,B,505.2010999934282,Incorrect,sub_013_day_22_data.csv,0,351,,Dual-Task at home,8.0,4.0,small,big,False,Value,left,left,532.5164000096265,Correct,1.0,0.8945868945868946,
13,22,215,B,53.00098912847514,24.55256005434824,2.6500494564237567,0.3856707114678132,A,441.1919999984093,Incorrect,sub_013_day_22_data.csv,0,351,,Dual-Task at home,5.0,2.0,small,big,False,Size,right,right,398.69349999935366,Correct,1.0,0.8945868945868946,
13,22,216,B,42.98264750318742,26.248036712054443,2.149132375159371,0.4123031965287272,B,425.22199999075383,Correct,sub_013_day_22_data.csv,1,351,,Dual-Task at home,2.0,7.0,big,small,False,Value,right,right,693.9515999983996,Correct,1.0,0.8945868945868946,
13,22,217,B,49.56663799536176,39.395215612815385,2.478331899768088,0.6188185997790338,B,478.5618999740109,Correct,sub_013_day_22_data.csv,1,351,,Dual-Task at home,8.0,5.0,big,small,True,Value,left,left,360.10850002639927,Correct,1.0,0.8945868945868946,
13,22,218,B,67.10703964659592,42.52028865003178,3.355351982329796,0.6679071322572866,B,434.74339999374934,Correct,sub_013_day_22_data.csv,1,351,,Dual-Task at home,6.0,8.0,big,small,False,Size,left,right,404.8532000160776,Incorrect,0.0,0.8945868945868946,
13,22,219,B,44.638894431937416,29.662442338242094,2.23194472159687,0.465936554686761,B,496.04589998489246,Correct,sub_013_day_22_data.csv,1,351,,Dual-Task at home,6.0,7.0,big,small,False,Value,right,right,368.0882,Correct,1.0,0.8945868945868946,
13,22,220,A,60.206311611510344,70.49988416087447,3.010315580575517,1.1074095907936734,A,420.67530000349507,Correct,sub_013_day_22_data.csv,1,351,,Dual-Task at home,8.0,7.0,small,big,False,Size,right,right,684.4244000094477,Correct,1.0,0.8945868945868946,
13,22,221,A,22.48226255840795,52.72525419758517,1.1241131279203975,0.8282063562289398,A,488.2040999946185,Correct,sub_013_day_22_data.csv,1,351,,Dual-Task at home,5.0,7.0,big,small,False,Size,left,left,716.6895,Correct,1.0,0.8945868945868946,
13,22,222,A,40.70482081973897,61.361215457306706,2.0352410409869486,0.963859718,A,443.42160000815056,Correct,sub_013_day_22_data.csv,1,351,,Dual-Task at home,7.0,3.0,small,big,False,Size,right,right,544.5997000206262,Correct,1.0,0.8945868945868946,
13,22,223,B,88.44184928196967,61.63861871942454,4.422092464098483,0.968217158731832,A,517.2993000014685,Incorrect,sub_013_day_22_data.csv,0,351,,Dual-Task at home,7.0,4.0,small,big,False,Value,left,left,438.56419998337515,Correct,1.0,0.8945868945868946,
13,22,224,A,54.50756584145704,73.11542496205783,2.725378292072852,1.1484944096244831,A,464.3042999960017,Correct,sub_013_day_22_data.csv,1,351,,Dual-Task at home,3.0,5.0,small,big,True,Value,right,right,341.1345999920741,Correct,1.0,0.8945868945868946,
13,22,225,B,51.22379273878194,41.56281664865111,2.5611896369390967,0.6528671972295093,A,391.8785999994725,Incorrect,sub_013_day_22_data.csv,0,351,,Dual-Task at home,5.0,8.0,small,big,True,Value,right,right,202.2978999884799,Correct,1.0,0.8945868945868946,
13,22,226,A,51.91273145412785,79.92757590717696,2.595636572706393,1.2554994264461383,A,588.1889000011142,Correct,sub_013_day_22_data.csv,1,351,,Dual-Task at home,7.0,6.0,small,big,False,Value,left,left,483.4883000003174,Correct,1.0,0.8945868945868946,
13,22,227,B,80.3645715,52.447567987628155,4.018228575118795,0.823844471,B,514.8098999925423,Correct,sub_013_day_22_data.csv,1,351,,Dual-Task at home,4.0,6.0,big,small,False,Value,right,right,500.82379998639226,Correct,1.0,0.8945868945868946,
13,22,228,B,46.158505346448706,32.75454384704864,2.3079252673224353,0.5145071716078639,B,429.02799998410046,Correct,sub_013_day_22_data.csv,1,351,,Dual-Task at home,6.0,4.0,big,small,True,Value,left,left,265.0510000239592,Correct,1.0,0.8945868945868946,
13,22,229,A,21.97096838250458,51.180998539243674,1.098548419125229,0.8039492450713892,A,467.1530000050552,Correct,sub_013_day_22_data.csv,1,351,,Dual-Task at home,7.0,2.0,small,big,False,Size,right,right,395.8513999823481,Correct,1.0,0.8945868945868946,
13,22,230,B,80.47438463,64.48646963622281,4.023719231716765,1.0129510963254942,A,640.3714999905787,Incorrect,sub_013_day_22_data.csv,0,351,,Dual-Task at home,2.0,7.0,big,small,False,Value,right,right,510.52060001529753,Correct,1.0,0.8945868945868946,
13,22,231,B,49.79730124291217,29.788399107930285,2.4898650621456087,0.4679150789983726,B,486.9098000053782,Correct,sub_013_day_22_data.csv,1,351,,Dual-Task at home,2.0,6.0,big,small,False,Value,right,right,667.1212000073865,Correct,1.0,0.8945868945868946,
13,22,232,A,24.898890452431793,51.67461734738232,1.2449445226215898,0.8117029911779999,A,479.9829999974463,Correct,sub_013_day_22_data.csv,1,351,,Dual-Task at home,6.0,7.0,big,small,False,Size,left,left,421.3237999938429,Correct,1.0,0.8945868945868946,
13,22,233,B,54.41933749,34.47931834882971,2.7209668744445348,0.5415998661273358,B,528.0621999991126,Correct,sub_013_day_22_data.csv,1,351,,Dual-Task at home,8.0,4.0,small,big,False,Value,left,left,342.7432000171393,Correct,1.0,0.8945868945868946,
13,22,234,A,49.95260133829537,81.26820274310968,2.497630066914769,1.2765579435409962,A,494.4889000034891,Correct,sub_013_day_22_data.csv,1,351,,Dual-Task at home,3.0,2.0,small,big,False,Size,right,right,496.91009998787194,Correct,1.0,0.8945868945868946,
13,22,235,B,44.33120082402452,24.48209238545913,2.216560041201226,0.3845638079133249,B,468.6380999919493,Correct,sub_013_day_22_data.csv,1,351,,Dual-Task at home,7.0,6.0,small,big,False,Size,right,right,343.0266999930609,Correct,1.0,0.8945868945868946,
13,22,236,B,72.31505054973532,51.84632847,3.615752527486766,0.8144002232165696,B,363.3631,Correct,sub_013_day_22_data.csv,1,351,,Dual-Task at home,3.0,4.0,small,big,True,Value,right,right,501.8306000274606,Correct,1.0,0.8945868945868946,
13,22,237,A,13.352913623975422,35.949982259353106,0.6676456811987711,0.5647010008133355,A,473.4076999884565,Correct,sub_013_day_22_data.csv,1,351,,Dual-Task at home,2.0,7.0,small,big,True,Value,right,right,235.00659997807816,Correct,1.0,0.8945868945868946,
13,22,238,A,49.626099555988816,78.25938163743837,2.4813049777994407,1.229295492133282,A,501.2879999994766,Correct,sub_013_day_22_data.csv,1,351,,Dual-Task at home,3.0,7.0,small,big,True,Size,right,right,316.1995999980718,Correct,1.0,0.8945868945868946,
13,22,239,B,52.53522471454015,41.56615739,2.626761235727008,0.6529196734034486,A,378.55839999974705,Incorrect,sub_013_day_22_data.csv,0,351,,Dual-Task at home,4.0,3.0,small,big,False,Size,right,right,488.2979,Correct,1.0,0.8945868945868946,
13,22,240,B,79.09048063,48.28238578647157,3.9545240317023898,0.7584179424228367,A,486.6673999931663,Incorrect,sub_013_day_22_data.csv,0,351,,Dual-Task at home,6.0,8.0,big,small,False,Size,left,left,374.7426000190899,Correct,1.0,0.8945868945868946,
13,22,241,A,25.34378000357931,47.92054030088946,1.2671890001789656,0.7527340868266398,A,534.6123999916017,Correct,sub_013_day_22_data.csv,1,351,,Dual-Task at home,7.0,5.0,small,big,False,Size,right,right,313.29360001836903,Correct,1.0,0.8945868945868946,
13,22,242,B,37.59091099535074,11.616500072403792,1.8795455497675368,0.1824715564394452,A,434.2451000120491,Incorrect,sub_013_day_22_data.csv,0,351,,Dual-Task at home,2.0,8.0,small,big,True,Size,right,right,336.83769998606294,Correct,1.0,0.8945868945868946,
13,22,243,A,34.37023498701505,62.94024788629562,1.718511749350753,0.9886631018735342,A,744.8203999956604,Correct,sub_013_day_22_data.csv,1,351,,Dual-Task at home,7.0,2.0,big,small,True,Size,left,left,369.5616,Correct,1.0,0.8945868945868946,
13,22,244,B,62.20046276396561,37.07488676219026,3.1100231381982804,0.582370959,B,524.6539000072517,Correct,sub_013_day_22_data.csv,1,351,,Dual-Task at home,5.0,2.0,small,big,False,Size,right,right,365.1098000118509,Correct,1.0,0.8945868945868946,
13,22,245,B,68.66816275108089,36.964651161141845,3.4334081375540446,0.5806393826517632,B,618.8113999960478,Correct,sub_013_day_22_data.csv,1,351,,Dual-Task at home,7.0,8.0,big,small,False,Size,left,left,314.4897000165656,Correct,1.0,0.8945868945868946,
13,22,246,B,72.41512275981998,49.87704427523299,3.6207561379909983,0.783466779,B,461.9005999993533,Correct,sub_013_day_22_data.csv,1,351,,Dual-Task at home,2.0,8.0,big,small,False,Value,right,right,368.9513000135776,Correct,1.0,0.8945868945868946,
13,22,247,A,60.34933572777491,83.09460076560116,3.0174667863887454,1.3052469365909471,B,625.8771,Incorrect,sub_013_day_22_data.csv,0,351,,Dual-Task at home,8.0,4.0,big,small,True,Size,left,left,184.4060999865178,Correct,1.0,0.8945868945868946,
13,22,248,A,60.86373088565178,79.10592121036836,3.043186544282589,1.242592904649731,A,468.9935,Correct,sub_013_day_22_data.csv,1,351,,Dual-Task at home,7.0,2.0,small,big,False,Size,right,right,371.56689999392256,Correct,1.0,0.8945868945868946,
13,22,249,B,50.923405708629495,29.07895638660267,2.546170285431475,0.4567711787910447,B,428.7101999798324,Correct,sub_013_day_22_data.csv,1,351,,Dual-Task at home,3.0,5.0,big,small,False,Value,right,right,689.6358999947552,Correct,1.0,0.8945868945868946,
13,22,250,B,51.453908760833976,26.85851545426437,2.572695438041699,0.4218925741872243,B,493.1650999933481,Correct,sub_013_day_22_data.csv,1,351,,Dual-Task at home,8.0,5.0,small,big,False,Value,left,left,359.7473000118043,Correct,1.0,0.8945868945868946,
13,22,251,B,66.17627135392914,55.816986287684585,3.3088135676964567,0.8767711703345606,B,528.3321999886539,Correct,sub_013_day_22_data.csv,1,351,,Dual-Task at home,6.0,5.0,big,small,True,Value,left,left,305.2550999855157,Correct,1.0,0.8945868945868946,
13,22,252,B,75.25787893874708,52.77436585739178,3.762893946937354,0.8289778,A,413.80629999912344,Incorrect,sub_013_day_22_data.csv,0,351,,Dual-Task at home,7.0,3.0,small,big,False,Size,right,left,626.3908000255469,Incorrect,0.0,0.8945868945868946,
13,22,253,A,58.05032061567857,82.45856942846459,2.9025160307839286,1.2952561797099411,B,572.4265999742784,Incorrect,sub_013_day_22_data.csv,0,351,,Dual-Task at home,4.0,3.0,small,big,False,Size,right,right,539.4964999868535,Correct,1.0,0.8945868945868946,
13,22,254,A,62.013523673645054,82.61279899593823,3.100676183682253,1.2976788120906488,A,538.7548999860883,Correct,sub_013_day_22_data.csv,1,351,,Dual-Task at home,7.0,2.0,big,small,True,Size,left,left,253.1304000003729,Correct,1.0,0.8945868945868946,
13,22,255,A,29.41610064714306,45.67095808021091,1.4708050323571529,0.7173977319359899,A,454.5256999845151,Correct,sub_013_day_22_data.csv,1,351,,Dual-Task at home,6.0,5.0,small,big,False,Value,left,left,416.0566999926232,Correct,1.0,0.8945868945868946,
13,22,256,B,58.16250331730239,42.89064317898105,2.9081251658651195,0.6737246475941401,A,323.81770000210963,Incorrect,sub_013_day_22_data.csv,0,351,,Dual-Task at home,8.0,3.0,big,small,True,Size,left,left,660.5153999989852,Correct,1.0,0.8945868945868946,
13,22,257,B,35.51011724697614,15.9373364981497,1.775505862348807,0.2503430963018779,A,559.5354000106454,Incorrect,sub_013_day_22_data.csv,0,351,,Dual-Task at home,4.0,5.0,small,big,True,Value,right,right,266.5933000098448,Correct,1.0,0.8945868945868946,
13,22,258,A,32.907921442874695,59.73394764654503,1.6453960721437346,0.9382986554815158,B,432.9061000025831,Incorrect,sub_013_day_22_data.csv,0,351,,Dual-Task at home,5.0,2.0,small,big,False,Size,right,right,463.9138000202365,Correct,1.0,0.8945868945868946,
13,22,259,B,72.15833473805728,52.47972252071901,3.607916736902864,0.8243495536676083,B,678.6348999885377,Correct,sub_013_day_22_data.csv,1,351,,Dual-Task at home,2.0,7.0,big,small,False,Value,right,right,636.2874000042211,Correct,1.0,0.8945868945868946,
13,22,260,B,32.717702273577615,12.831969610642894,1.6358851136788808,0.2015641072994159,B,423.7763999844901,Correct,sub_013_day_22_data.csv,1,351,,Dual-Task at home,4.0,8.0,big,small,False,Value,right,right,382.8310999961104,Correct,1.0,0.8945868945868946,
13,22,261,A,21.712380710692383,45.20677505427648,1.0856190355346191,0.7101063620150064,A,499.34680000296794,Correct,sub_013_day_22_data.csv,1,351,,Dual-Task at home,7.0,4.0,small,big,False,Value,left,left,582.7309000014793,Correct,1.0,0.8945868945868946,
13,22,262,B,50.88827242377252,39.01228677819152,2.544413621188626,0.6128035677105235,B,438.0551,Correct,sub_013_day_22_data.csv,1,351,,Dual-Task at home,2.0,4.0,big,small,False,Value,right,right,452.10180000867695,Correct,1.0,0.8945868945868946,
13,22,263,B,79.43391808197866,63.626903633271155,3.971695904098933,0.9994490651247518,B,504.41640001372434,Correct,sub_013_day_22_data.csv,1,351,,Dual-Task at home,8.0,4.0,small,big,False,Size,right,right,359.3290999997407,Correct,1.0,0.8945868945868946,
13,22,264,A,35.00281440902895,67.80594389,1.7501407204514476,1.0650932759145055,A,513.3300999877974,Correct,sub_013_day_22_data.csv,1,351,,Dual-Task at home,3.0,4.0,big,small,False,Size,left,left,522.2081999818329,Correct,1.0,0.8945868945868946,
13,22,265,B,54.329264263641754,26.60989078946497,2.7164632131820876,0.4179871870850492,B,360.3034999978263,Correct,sub_013_day_22_data.csv,1,351,,Dual-Task at home,2.0,8.0,small,big,True,Size,right,right,495.35380001179874,Correct,1.0,0.8945868945868946,
13,22,266,A,49.37614638227342,56.111835759280865,2.468807319113671,0.881402655,B,413.19730001850985,Incorrect,sub_013_day_22_data.csv,0,351,,Dual-Task at home,4.0,6.0,big,small,False,Value,right,right,336.46820002468303,Correct,1.0,0.8945868945868946,
13,22,267,B,83.94695173030925,60.96672642859079,4.197347586515463,0.9576630993073976,B,397.5188999902457,Correct,sub_013_day_22_data.csv,1,351,,Dual-Task at home,2.0,4.0,small,big,True,Size,right,right,129.7676,Correct,1.0,0.8945868945868946,
13,22,268,B,70.38616301746482,42.603094067701186,3.519308150873241,0.6692078367164247,B,445.4474999802187,Correct,sub_013_day_22_data.csv,1,351,,Dual-Task at home,6.0,2.0,small,big,False,Value,left,left,295.26630000327714,Correct,1.0,0.8945868945868946,
13,22,269,B,89.63105030261201,67.28532571320665,4.481552515130601,1.056915424775032,B,450.01820000470616,Correct,sub_013_day_22_data.csv,1,351,,Dual-Task at home,4.0,7.0,big,small,False,Value,right,right,349.52960000373423,Correct,1.0,0.8945868945868946,
13,22,270,B,86.12594173780124,63.17612849828683,4.306297086890062,0.9923683058623132,B,371.4302000007592,Correct,sub_013_day_22_data.csv,1,351,,Dual-Task at home,2.0,4.0,big,small,False,Size,left,right,592.3499999917112,Incorrect,0.0,0.8945868945868946,
13,22,271,A,42.098114573700606,68.92894373918615,2.104905729,1.082733316353657,A,696.3987,Correct,sub_013_day_22_data.csv,1,351,,Dual-Task at home,7.0,2.0,big,small,True,Value,left,left,363.89440001221374,Correct,1.0,0.8945868945868946,
13,22,272,B,35.65026386,14.817940355269744,1.782513193,0.2327596628072358,B,491.9023000111338,Correct,sub_013_day_22_data.csv,1,351,,Dual-Task at home,7.0,5.0,small,big,False,Size,right,right,368.36829999811016,Correct,1.0,0.8945868945868946,
13,22,273,B,61.47727036983584,38.94169494836166,3.0738635184917924,0.6116947138405386,B,366.1654999887105,Correct,sub_013_day_22_data.csv,1,351,,Dual-Task at home,7.0,4.0,big,small,True,Size,left,left,279.44620000198483,Correct,1.0,0.8945868945868946,
13,22,274,A,33.638116284816526,63.30425385809392,1.6819058142408263,0.994380894307856,A,418.48369999206625,Correct,sub_013_day_22_data.csv,1,351,,Dual-Task at home,3.0,8.0,big,small,False,Size,left,left,382.8746999788564,Correct,1.0,0.8945868945868946,
13,22,275,B,65.02512113278098,46.26159497916821,3.251256056639049,0.7266754346495066,B,391.1561999993864,Correct,sub_013_day_22_data.csv,1,351,,Dual-Task at home,3.0,8.0,big,small,False,Value,right,right,557.3434999969322,Correct,1.0,0.8945868945868946,
13,22,276,B,42.51854154083482,18.10541172391282,2.125927077041741,0.2843991423103151,B,449.52769999508746,Correct,sub_013_day_22_data.csv,1,351,,Dual-Task at home,7.0,4.0,small,big,False,Size,right,left,411.7590000096243,Incorrect,0.0,0.8945868945868946,
13,22,277,A,69.15622029095279,84.32342414871702,3.457811014547639,1.3245492491557278,A,604.6786,Correct,sub_013_day_22_data.csv,1,351,,Dual-Task at home,4.0,8.0,big,small,False,Value,right,right,357.9704000148922,Correct,1.0,0.8945868945868946,
13,22,278,B,54.227242452982054,47.32013400342094,2.7113621226491027,0.743302927,B,375.8326999959536,Correct,sub_013_day_22_data.csv,1,351,,Dual-Task at home,2.0,7.0,big,small,False,Size,left,left,480.6422000110615,Correct,1.0,0.8945868945868946,
13,22,279,B,71.26645828627066,51.607263941660854,3.563322914313533,0.810645006,B,348.79809999256395,Correct,sub_013_day_22_data.csv,1,351,,Dual-Task at home,5.0,8.0,big,small,False,Size,left,right,569.5358000230044,Incorrect,0.0,0.8945868945868946,
13,22,280,A,54.85117335017554,84.41842788980775,2.742558667508777,1.3260415644310986,A,537.6006000151392,Correct,sub_013_day_22_data.csv,1,351,,Dual-Task at home,7.0,4.0,small,big,False,Value,left,right,679.9355000257492,Incorrect,0.0,0.8945868945868946,
13,22,281,A,13.242928585410716,34.261702226095146,0.6621464292705358,0.5381815600649078,A,543.0144999991171,Correct,sub_013_day_22_data.csv,1,351,,Dual-Task at home,3.0,2.0,big,small,True,Size,left,left,353.6473999847658,Correct,1.0,0.8945868945868946,
13,22,282,B,54.25431086957938,42.660179198524034,2.7127155434789687,0.6701045278545361,A,450.18179999897256,Incorrect,sub_013_day_22_data.csv,0,351,,Dual-Task at home,7.0,4.0,small,big,False,Size,right,right,308.1994999956805,Correct,1.0,0.8945868945868946,
13,22,283,B,67.17872327357557,34.46917530568652,3.3589361636787785,0.5414405395782174,B,409.97420001076534,Correct,sub_013_day_22_data.csv,1,351,,Dual-Task at home,3.0,7.0,big,small,False,Value,right,right,568.8802000076976,Correct,1.0,0.8945868945868946,
13,22,284,A,19.62496428984283,38.33961631752276,0.9812482144921416,0.6022372848229044,A,538.8054999930318,Correct,sub_013_day_22_data.csv,1,351,,Dual-Task at home,8.0,3.0,big,small,True,Value,left,left,457.6907000155188,Correct,1.0,0.8945868945868946,
13,22,285,A,55.70973442465543,66.40066231861177,2.7854867212327714,1.0430191646682367,A,531.4340000040829,Correct,sub_013_day_22_data.csv,1,351,,Dual-Task at home,6.0,5.0,small,big,False,Value,left,left,612.6801999926101,Correct,1.0,0.8945868945868946,
13,22,286,A,42.76157418,70.56585243785216,2.138078709,1.1084458180652883,A,424.31349999969825,Correct,sub_013_day_22_data.csv,1,351,,Dual-Task at home,8.0,4.0,small,big,False,Size,right,right,362.91940000955947,Correct,1.0,0.8945868945868946,
13,22,287,A,63.63451235534467,83.4898049,3.1817256177672335,1.3114547886057264,A,527.3799000133295,Correct,sub_013_day_22_data.csv,1,351,,Dual-Task at home,2.0,6.0,big,small,False,Size,left,left,549.4371000095271,Correct,1.0,0.8945868945868946,
13,22,288,A,18.590716896226876,36.45117081733238,0.929535844811344,0.5725736522723903,A,502.1224999800325,Correct,sub_013_day_22_data.csv,1,351,,Dual-Task at home,8.0,6.0,big,small,True,Size,left,left,211.4129999827128,Correct,1.0,0.8945868945868946,
13,22,289,A,44.81740361900616,63.132165237536555,2.240870180950308,0.9916777325773088,A,437.0176999946125,Correct,sub_013_day_22_data.csv,1,351,,Dual-Task at home,8.0,2.0,small,big,False,Size,right,right,367.6631999842357,Correct,1.0,0.8945868945868946,
13,22,290,A,45.72719256019644,62.123743921056125,2.286359628009822,0.9758374875794174,A,469.6096999978181,Correct,sub_013_day_22_data.csv,1,351,,Dual-Task at home,5.0,7.0,big,small,False,Size,left,left,428.1891999999061,Correct,1.0,0.8945868945868946,
13,22,291,B,55.11815448954118,39.99112955073094,2.7559077244770593,0.628179194,B,379.07009999617,Correct,sub_013_day_22_data.csv,1,351,,Dual-Task at home,3.0,5.0,big,small,False,Value,right,left,494.4793999893591,Incorrect,0.0,0.8945868945868946,
13,22,292,B,63.38550137847605,32.80532823524348,3.169275068923803,0.5153048909122137,B,912.3992999957408,Correct,sub_013_day_22_data.csv,1,351,,Dual-Task at home,8.0,5.0,small,big,False,Value,left,left,388.2541000202764,Correct,1.0,0.8945868945868946,
13,22,293,B,63.80975258,43.11057308814533,3.190487629201725,0.6771792985288161,A,633.1114000058733,Incorrect,sub_013_day_22_data.csv,0,351,,Dual-Task at home,7.0,3.0,small,big,False,Value,left,right,431.5893999882974,Incorrect,0.0,0.8945868945868946,
13,22,294,B,48.964144894110106,28.62604169325169,2.4482072447055057,0.4496568114243732,B,485.4269999777898,Correct,sub_013_day_22_data.csv,1,351,,Dual-Task at home,8.0,3.0,small,big,False,Value,left,left,464.6405999956187,Correct,1.0,0.8945868945868946,
13,22,295,A,18.165721254422593,43.66835834427215,0.9082860627211296,0.6859409688434597,A,431.4284999854862,Correct,sub_013_day_22_data.csv,1,351,,Dual-Task at home,5.0,8.0,big,small,False,Size,left,left,459.22199997585267,Correct,1.0,0.8945868945868946,
13,22,296,A,18.956932487317246,36.29998687752806,0.9478466243658624,0.5701988604992404,A,625.7655999797862,Correct,sub_013_day_22_data.csv,1,351,,Dual-Task at home,4.0,3.0,small,big,False,Value,left,left,343.5636000067461,Correct,1.0,0.8945868945868946,
13,22,297,B,80.83722033417789,57.84292766272385,4.041861016708895,0.9085945830366954,A,509.3760000017937,Incorrect,sub_013_day_22_data.csv,0,351,,Dual-Task at home,4.0,2.0,small,big,False,Size,right,right,418.22759999195114,Correct,1.0,0.8945868945868946,
13,22,298,B,47.556141209903494,36.906320765052776,2.377807060495175,0.5797231309325911,B,424.04549999628216,Correct,sub_013_day_22_data.csv,1,351,,Dual-Task at home,4.0,3.0,small,big,False,Size,right,right,324.44959998247214,Correct,1.0,0.8945868945868946,
13,22,299,B,46.21346511613561,23.602827155962014,2.3106732558067806,0.3707523419855997,B,400.38110001478344,Correct,sub_013_day_22_data.csv,1,351,,Dual-Task at home,7.0,8.0,big,small,False,Size,left,left,353.34819997660816,Correct,1.0,0.8945868945868946,
13,22,300,B,62.93088228578232,54.29116213054917,3.146544114289116,0.8528035805209282,B,383.50359999458306,Correct,sub_013_day_22_data.csv,1,351,,Dual-Task at home,4.0,3.0,small,big,False,Value,left,left,453.7498000136111,Correct,1.0,0.8945868945868946,
13,22,301,A,24.362499006501068,44.23320200115981,1.2181249503250533,0.694813512,A,516.2721000087913,Correct,sub_013_day_22_data.csv,1,351,,Dual-Task at home,6.0,5.0,small,big,False,Value,left,left,357.1875000197906,Correct,1.0,0.8945868945868946,
13,22,302,A,63.44236572346733,87.39278753918008,3.1721182861733666,1.3727626965491089,A,670.4443999915384,Correct,sub_013_day_22_data.csv,1,351,,Dual-Task at home,4.0,2.0,small,big,False,Size,right,right,814.0522999747191,Correct,1.0,0.8945868945868946,
13,22,303,B,50.10572690611622,27.267498097846335,2.505286345305811,0.4283168585298385,B,448.64200000301935,Correct,sub_013_day_22_data.csv,1,351,,Dual-Task at home,3.0,5.0,big,small,False,Value,right,right,563.4635000023991,Correct,1.0,0.8945868945868946,
13,22,304,A,25.46684301097157,38.184343722831855,1.2733421505485785,0.5997982686089804,B,474.0981000068132,Incorrect,sub_013_day_22_data.csv,0,351,,Dual-Task at home,6.0,3.0,big,small,True,Size,left,left,366.9000999943819,Correct,1.0,0.8945868945868946,
13,22,305,B,62.89575832461534,30.27796532146941,3.1447879162307673,0.475605167097874,B,486.08649999368936,Correct,sub_013_day_22_data.csv,1,351,,Dual-Task at home,3.0,5.0,big,small,False,Size,left,left,672.7308999979869,Correct,1.0,0.8945868945868946,
13,22,306,B,56.858176888952485,24.91257365425865,2.8429088444476243,0.3913257918711679,B,347.8533999877982,Correct,sub_013_day_22_data.csv,1,351,,Dual-Task at home,5.0,8.0,big,small,False,Size,left,left,635.3129000053741,Correct,1.0,0.8945868945868946,
13,22,307,B,86.34014194635833,69.70616344863004,4.317007097317917,1.0949418550007275,A,562.5097999873105,Incorrect,sub_013_day_22_data.csv,0,351,,Dual-Task at home,6.0,3.0,big,small,True,Value,left,left,313.49220001720823,Correct,1.0,0.8945868945868946,
13,22,308,B,66.51309197080472,43.111355711541904,3.325654598540236,0.6771915919483821,B,381.2227000016719,Correct,sub_013_day_22_data.csv,1,351,,Dual-Task at home,5.0,6.0,big,small,False,Size,left,right,408.0465,Incorrect,0.0,0.8945868945868946,
13,22,309,A,23.17174980637574,49.382836008644055,1.158587490318787,0.7757037740909283,A,579.3030000058934,Correct,sub_013_day_22_data.csv,1,351,,Dual-Task at home,3.0,4.0,big,small,False,Value,right,right,434.79450000450015,Correct,1.0,0.8945868945868946,
13,22,310,B,53.48217213619198,41.55953003814678,2.674108606809599,0.6528155712724313,A,436.6660000232514,Incorrect,sub_013_day_22_data.csv,0,351,,Dual-Task at home,6.0,3.0,small,big,False,Value,left,left,599.6871999814175,Correct,1.0,0.8945868945868946,
13,22,311,B,52.93120563505667,30.858509631965067,2.646560281752834,0.4847243358025565,B,364.68430000240915,Correct,sub_013_day_22_data.csv,1,351,,Dual-Task at home,6.0,3.0,small,big,False,Value,left,left,318.87629997800104,Correct,1.0,0.8945868945868946,
13,22,312,A,58.85840328942156,72.05797649684816,2.942920164471078,1.1318840479752208,A,471.3172999909147,Correct,sub_013_day_22_data.csv,1,351,,Dual-Task at home,3.0,5.0,small,big,True,Value,right,right,239.2323999956716,Correct,1.0,0.8945868945868946,
13,22,313,A,41.67808145371144,54.53874476343156,2.083904072685572,0.856692599,A,457.31339999474585,Correct,sub_013_day_22_data.csv,1,351,,Dual-Task at home,3.0,4.0,big,small,False,Value,right,right,343.27440001652576,Correct,1.0,0.8945868945868946,
13,22,314,B,68.53801477736702,52.24234864670966,3.4269007388683512,0.8206208935738987,A,496.8958,Incorrect,sub_013_day_22_data.csv,0,351,,Dual-Task at home,7.0,6.0,small,big,False,Size,right,right,489.0966000093613,Correct,1.0,0.8945868945868946,
13,22,315,A,52.643285011184005,75.36970648985155,2.632164251,1.183904581058683,A,585.6190000195056,Correct,sub_013_day_22_data.csv,1,351,,Dual-Task at home,7.0,2.0,small,big,False,Size,right,right,490.9023999935016,Correct,1.0,0.8945868945868946,
13,22,316,A,33.490411673856045,56.94083622455898,1.6745205836928023,0.8944245638616702,A,506.8721999996342,Correct,sub_013_day_22_data.csv,1,351,,Dual-Task at home,5.0,8.0,big,small,False,Size,left,left,532.9148999880999,Correct,1.0,0.8945868945868946,
13,22,317,A,30.130183251373396,49.192817328148855,1.506509163,0.7727189676374855,A,399.08659999491647,Correct,sub_013_day_22_data.csv,1,351,,Dual-Task at home,8.0,2.0,small,big,False,Value,left,right,421.1292999971192,Incorrect,0.0,0.8945868945868946,
13,22,318,B,71.37402673,46.26789042773979,3.568701336,0.7267743233244242,A,512.8884,Incorrect,sub_013_day_22_data.csv,0,351,,Dual-Task at home,7.0,3.0,small,big,False,Size,right,right,549.4412999833003,Correct,1.0,0.8945868945868946,
13,22,319,B,77.63138763712597,55.44144908721411,3.8815693818562984,0.8708722457838219,B,385.3582999727223,Correct,sub_013_day_22_data.csv,1,351,,Dual-Task at home,3.0,6.0,big,small,False,Size,left,left,654.2665000015404,Correct,1.0,0.8945868945868946,
13,22,320,B,75.85166641203249,55.47354287637403,3.792583320601624,0.8713763738450753,B,430.19499999354593,Correct,sub_013_day_22_data.csv,1,351,,Dual-Task at home,3.0,8.0,big,small,False,Size,left,left,535.7336000015493,Correct,1.0,0.8945868945868946,
13,22,321,B,67.57327107608674,37.28374856037552,3.3786635538043366,0.5856517528778238,B,450.6017,Correct,sub_013_day_22_data.csv,1,351,,Dual-Task at home,5.0,3.0,small,big,False,Value,left,left,808.3775999839418,Correct,1.0,0.8945868945868946,
13,22,322,A,61.83710839136714,74.92953390258783,3.0918554195683567,1.1769903662263863,A,592.2198999905959,Correct,sub_013_day_22_data.csv,1,351,,Dual-Task at home,3.0,8.0,big,small,False,Value,right,right,673.5591999895405,Correct,1.0,0.8945868945868946,
13,22,323,A,61.88081332081155,83.05814483,3.0940406660405775,1.3046742880754558,A,451.24460000079125,Correct,sub_013_day_22_data.csv,1,351,,Dual-Task at home,3.0,2.0,small,big,False,Size,right,right,326.1138999951072,Correct,1.0,0.8945868945868946,
13,22,324,B,80.64124821562825,53.765423099579706,4.032062410781412,0.844545291,B,605.9750999847893,Correct,sub_013_day_22_data.csv,1,351,,Dual-Task at home,4.0,3.0,small,big,False,Value,left,left,690.1606999745127,Correct,1.0,0.8945868945868946,
13,22,325,B,72.06215912753603,53.172121506721375,3.603107956376802,0.8352257315064986,A,440.6451999966521,Incorrect,sub_013_day_22_data.csv,0,351,,Dual-Task at home,8.0,6.0,small,big,False,Value,left,left,557.1147,Correct,1.0,0.8945868945868946,
13,22,326,A,67.42552619814477,82.84300047485318,3.3712763099072385,1.3012948084656726,A,385.40430000284687,Correct,sub_013_day_22_data.csv,1,351,,Dual-Task at home,2.0,4.0,big,small,False,Value,right,right,320.87709999177605,Correct,1.0,0.8945868945868946,
13,22,327,A,44.863260875607146,67.00724932640946,2.2431630437803576,1.052547411105538,A,447.5175999978091,Correct,sub_013_day_22_data.csv,1,351,,Dual-Task at home,3.0,6.0,big,small,False,Size,left,left,532.6012999867089,Correct,1.0,0.8945868945868946,
13,22,328,A,17.206934700747514,36.657399687925235,0.8603467350373757,0.5758130877964535,A,461.3797999918461,Correct,sub_013_day_22_data.csv,1,351,,Dual-Task at home,7.0,5.0,small,big,False,Size,right,right,370.0827000138815,Correct,1.0,0.8945868945868946,
13,22,329,B,75.24071707590704,53.25916122974424,3.762035853795352,0.8365929482785942,B,379.6673000033479,Correct,sub_013_day_22_data.csv,1,351,,Dual-Task at home,2.0,6.0,big,small,False,Size,left,left,342.74910000385717,Correct,1.0,0.8945868945868946,
13,22,330,B,57.14330133216237,45.69721266885971,2.8571650666081188,0.7178101380501005,B,488.5892000165768,Correct,sub_013_day_22_data.csv,1,351,,Dual-Task at home,6.0,7.0,big,small,False,Size,left,left,339.60059998207726,Correct,1.0,0.8945868945868946,
13,22,331,A,28.260678047161413,61.36660757571892,1.4130339023580705,0.9639444176780314,A,425.7475000049453,Correct,sub_013_day_22_data.csv,1,351,,Dual-Task at home,4.0,7.0,big,small,False,Size,left,left,598.1090000132099,Correct,1.0,0.8945868945868946,
13,22,332,A,20.231812183556052,42.18505604298453,1.0115906091778026,0.6626413107795696,A,526.4521999924909,Correct,sub_013_day_22_data.csv,1,351,,Dual-Task at home,6.0,2.0,small,big,False,Value,left,left,367.86170001141727,Correct,1.0,0.8945868945868946,
13,22,333,B,72.57759830075848,55.79966053662295,3.628879915037924,0.8764990180732948,B,526.4911999984179,Correct,sub_013_day_22_data.csv,1,351,,Dual-Task at home,3.0,6.0,big,small,False,Size,left,left,450.1866000064183,Correct,1.0,0.8945868945868946,
13,22,334,B,65.45431858,34.52557946,3.272715928866835,0.542326534,B,414.9574000039138,Correct,sub_013_day_22_data.csv,1,351,,Dual-Task at home,4.0,6.0,big,small,False,Value,right,right,690.9188999852631,Correct,1.0,0.8945868945868946,
13,22,335,A,23.358765147140996,49.12303516005645,1.1679382573570498,0.7716228319043322,A,440.06870000157505,Correct,sub_013_day_22_data.csv,1,351,,Dual-Task at home,6.0,2.0,small,big,False,Size,right,right,638.2029999804217,Correct,1.0,0.8945868945868946,
13,22,336,A,64.59211096698222,83.61082423,3.229605548349111,1.3133557557518885,A,407.0902999956161,Correct,sub_013_day_22_data.csv,1,351,,Dual-Task at home,4.0,5.0,big,small,False,Size,left,left,455.3960000048391,Correct,1.0,0.8945868945868946,
13,22,337,A,56.39279237246804,73.26067306464087,2.819639618623402,1.1507759614845972,A,418.8162999926135,Correct,sub_013_day_22_data.csv,1,351,,Dual-Task at home,7.0,2.0,small,big,False,Value,left,left,468.3542999846395,Correct,1.0,0.8945868945868946,
13,22,338,B,69.91265814604961,52.36714635343969,3.4956329073024803,0.8225812113671382,A,309.6772,Incorrect,sub_013_day_22_data.csv,0,351,,Dual-Task at home,4.0,7.0,big,small,False,Value,right,left,499.4879000005312,Incorrect,0.0,0.8945868945868946,
13,22,339,A,22.72308248589941,49.36432544133423,1.1361541242949706,0.7754130107795567,B,453.0052999907639,Incorrect,sub_013_day_22_data.csv,0,351,,Dual-Task at home,6.0,7.0,big,small,False,Size,left,left,456.0091999883298,Correct,1.0,0.8945868945868946,
13,22,340,B,77.62034933536219,55.21070054095016,3.881017467,0.8672476560949751,B,519.4520000077318,Correct,sub_013_day_22_data.csv,1,351,,Dual-Task at home,3.0,8.0,big,small,False,Size,left,left,548.1279999949038,Correct,1.0,0.8945868945868946,
13,22,341,B,55.51761414299433,33.56230717,2.7758807071497165,0.527195488,B,410.3447000088636,Correct,sub_013_day_22_data.csv,1,351,,Dual-Task at home,7.0,4.0,small,big,False,Size,right,right,521.5431999822613,Correct,1.0,0.8945868945868946,
13,22,342,B,37.24363760365157,26.64838777062165,1.8621818801825785,0.4185918962509852,B,395.1480000105221,Correct,sub_013_day_22_data.csv,1,351,,Dual-Task at home,8.0,7.0,small,big,False,Size,right,right,683.0106999841519,Correct,1.0,0.8945868945868946,
13,22,343,B,32.02452728489595,11.91388319036205,1.6012263642447977,0.1871428395328417,B,399.6244999871123,Correct,sub_013_day_22_data.csv,1,351,,Dual-Task at home,2.0,4.0,big,small,False,Value,right,right,495.22059998707846,Correct,1.0,0.8945868945868946,
13,22,344,B,49.662722963570026,29.612225284533835,2.483136148178501,0.4651477470516871,B,335.88570001302287,Correct,sub_013_day_22_data.csv,1,351,,Dual-Task at home,7.0,5.0,small,big,False,Value,left,left,498.07160001364537,Correct,1.0,0.8945868945868946,
13,22,345,B,63.55264040651601,35.38592019919691,3.1776320203258006,0.5558407346915585,B,997.7759000030346,Correct,sub_013_day_22_data.csv,1,351,,Dual-Task at home,3.0,4.0,small,big,True,Value,right,right,498.5006999922916,Correct,1.0,0.8945868945868946,
13,22,346,A,33.98335746,60.50242553599371,1.699167872941635,0.9503698779412066,A,434.9474999762606,Correct,sub_013_day_22_data.csv,1,351,,Dual-Task at home,3.0,4.0,big,small,False,Size,left,left,940.4036999912933,Correct,1.0,0.8945868945868946,
13,22,347,B,51.65792432669487,27.165404674701072,2.5828962163347433,0.4267131787891735,B,431.52009998448193,Correct,sub_013_day_22_data.csv,1,351,,Dual-Task at home,7.0,4.0,small,big,False,Size,right,left,542.7702000015415,Incorrect,0.0,0.8945868945868946,
13,22,348,A,29.232922782618463,46.133815781872656,1.4616461391309232,0.724668284,A,652.7214999950957,Correct,sub_013_day_22_data.csv,1,351,,Dual-Task at home,8.0,7.0,small,big,False,Size,right,right,470.7471999863628,Correct,1.0,0.8945868945868946,
13,22,349,A,38.27257926337971,64.73205033327437,1.9136289631689856,1.0168086688940974,A,407.47979999287054,Correct,sub_013_day_22_data.csv,1,351,,Dual-Task at home,7.0,3.0,small,big,False,Value,left,right,653.4973,Incorrect,0.0,0.8945868945868946,
13,22,350,A,68.26642382891015,88.58925843001906,3.4133211914455073,1.3915568173535775,A,544.4186000095215,Correct,sub_013_day_22_data.csv,1,351,,Dual-Task at home,2.0,7.0,big,small,False,Value,right,right,625.1818,Correct,1.0,0.8945868945868946,
