subject,day,trial,cat,x,y,xt,yt,resp,rt,fb,f_name,acc,n_trials,block,session_type,ns_left_digit,ns_right_digit,ns_left_size,ns_right_size,ns_congruent,ns_cue,ns_correct_side,ns_resp,ns_rt,ns_fb,acc_stroop,acc_stroop_mean,resp_key
13,14,3000,A,52.084794701900606,61.26787493695508,2.60423973509503,0.9623935290149817,A,521.7599000316113,Correct,sub_013_day_11_data.csv,1,300,120.0,Training at home,,,,,,,,,,,,,
13,14,3001,B,42.16954829497904,14.394872310648145,2.108477414748952,0.2261141255024767,B,446.41339988447726,Correct,sub_013_day_11_data.csv,1,300,120.0,Training at home,,,,,,,,,,,,,
13,14,3002,B,48.14614971429969,19.739259739678328,2.4073074857149845,0.310063566927371,B,546.2601999752223,Correct,sub_013_day_11_data.csv,1,300,120.0,Training at home,,,,,,,,,,,,,
13,14,3003,B,62.89651927738821,39.03057251008145,3.1448259638694105,0.613090799315378,B,467.15629985556006,Correct,sub_013_day_11_data.csv,1,300,120.0,Training at home,,,,,,,,,,,,,
13,14,3004,B,32.65591560196342,12.976865972383456,1.632795780098171,0.2038401340272961,B,430.6431000586599,Correct,sub_013_day_11_data.csv,1,300,120.0,Training at home,,,,,,,,,,,,,
13,14,3005,A,13.30797512564144,39.62222999701698,0.665398756282072,0.6223845333873683,A,369.2888000514358,Correct,sub_013_day_11_data.csv,1,300,120.0,Training at home,,,,,,,,,,,,,
13,14,3006,B,40.54158152793645,16.948808982282767,2.0270790763968223,0.2662312689291812,B,365.88499997742474,Correct,sub_013_day_11_data.csv,1,300,120.0,Training at home,,,,,,,,,,,,,
13,14,3007,B,84.73650212131506,56.50694994820732,4.236825106065753,0.8876090941702713,B,474.7802999336273,Correct,sub_013_day_11_data.csv,1,300,120.0,Training at home,,,,,,,,,,,,,
13,14,3008,A,65.47705790408418,83.55257192644447,3.2738528952042087,1.3124407307632535,B,382.9615998547524,Incorrect,sub_013_day_11_data.csv,0,300,120.0,Training at home,,,,,,,,,,,,,
13,14,3009,A,22.467936378741577,42.1977413356771,1.1233968189370789,0.6628405708912276,A,440.00830012373626,Correct,sub_013_day_11_data.csv,1,300,120.0,Training at home,,,,,,,,,,,,,
13,14,3010,B,87.01285772735653,66.16185356832008,4.350642886367826,1.03926796559059,B,473.0702000670135,Correct,sub_013_day_11_data.csv,1,300,120.0,Training at home,,,,,,,,,,,,,
13,14,3011,B,73.50468092478366,57.40345560824777,3.675234046239183,0.901691372147695,B,389.8060000501573,Correct,sub_013_day_11_data.csv,1,300,120.0,Training at home,,,,,,,,,,,,,
13,14,3012,B,31.98449479580824,18.902929381995005,1.599224739790412,0.2969265203890108,B,539.3765999469906,Correct,sub_013_day_11_data.csv,1,300,120.0,Training at home,,,,,,,,,,,,,
13,14,3013,B,58.87811939735899,26.80034426885633,2.9439059698679495,0.4209788233435818,B,376.5769000165165,Correct,sub_013_day_11_data.csv,1,300,120.0,Training at home,,,,,,,,,,,,,
13,14,3014,A,33.12755344879449,44.02652172708577,1.6563776724397243,0.6915669861046203,A,427.3937998805195,Correct,sub_013_day_11_data.csv,1,300,120.0,Training at home,,,,,,,,,,,,,
13,14,3015,B,69.52200657902475,37.37269939116926,3.476100328951237,0.5870489892605855,B,367.3310000449419,Correct,sub_013_day_11_data.csv,1,300,120.0,Training at home,,,,,,,,,,,,,
13,14,3016,B,88.68268487805196,62.91189218070236,4.434134243902598,0.9882176914916384,B,395.2047999482602,Correct,sub_013_day_11_data.csv,1,300,120.0,Training at home,,,,,,,,,,,,,
13,14,3017,B,64.50271950128159,53.673147173564146,3.2251359750640796,0.8430958242775646,B,330.67980012856424,Correct,sub_013_day_11_data.csv,1,300,120.0,Training at home,,,,,,,,,,,,,
13,14,3018,B,55.126266006648386,45.57921977796724,2.756313300332419,0.7159567100540825,B,352.8281000908464,Correct,sub_013_day_11_data.csv,1,300,120.0,Training at home,,,,,,,,,,,,,
13,14,3019,B,61.762372377254685,35.91457743637428,3.0881186188627345,0.564144863154476,B,292.16539999470115,Correct,sub_013_day_11_data.csv,1,300,120.0,Training at home,,,,,,,,,,,,,
13,14,3020,A,48.043729403482054,66.81381214372252,2.4021864701741027,1.0495089069452357,A,459.11010005511343,Correct,sub_013_day_11_data.csv,1,300,120.0,Training at home,,,,,,,,,,,,,
13,14,3021,A,60.140240103081354,82.63307933991157,3.0070120051540674,1.2979973749888436,A,426.5709000173956,Correct,sub_013_day_11_data.csv,1,300,120.0,Training at home,,,,,,,,,,,,,
13,14,3022,A,28.693561095519755,46.96909887394854,1.4346780547759876,0.7377888798406468,A,370.993799995631,Correct,sub_013_day_11_data.csv,1,300,120.0,Training at home,,,,,,,,,,,,,
13,14,3023,B,75.26817724299016,50.78865928233953,3.763408862149508,0.7977863944353647,B,340.87519999593496,Correct,sub_013_day_11_data.csv,1,300,120.0,Training at home,,,,,,,,,,,,,
13,14,3024,A,31.22534891207369,62.16336485261031,1.5612674456036846,0.9764598517169124,A,417.0442000031471,Correct,sub_013_day_11_data.csv,1,300,120.0,Training at home,,,,,,,,,,,,,
13,14,3025,A,45.31155411385,71.33048917930829,2.2655777056925,1.120456703913406,A,1196.2192999199033,Correct,sub_013_day_11_data.csv,1,300,121.0,Training at home,,,,,,,,,,,,,
13,14,3026,B,81.94629725549663,51.10087095606292,4.097314862774832,0.8026906039380366,B,373.35560005158186,Correct,sub_013_day_11_data.csv,1,300,121.0,Training at home,,,,,,,,,,,,,
13,14,3027,B,84.67009143322996,56.142020768641544,4.233504571661498,0.8818768000222494,B,397.5895000621677,Correct,sub_013_day_11_data.csv,1,300,121.0,Training at home,,,,,,,,,,,,,
13,14,3028,A,65.78955740656393,82.16344838165908,3.2894778703281964,1.2906204291471215,B,353.43799996189773,Incorrect,sub_013_day_11_data.csv,0,300,121.0,Training at home,,,,,,,,,,,,,
13,14,3029,B,41.19034308532077,30.655156717460233,2.059517154266038,0.4815300756910843,B,441.89959997311234,Correct,sub_013_day_11_data.csv,1,300,121.0,Training at home,,,,,,,,,,,,,
13,14,3030,B,79.75525880822963,59.07564283289447,3.9877629404114816,0.9279580276495788,B,398.38619995862246,Correct,sub_013_day_11_data.csv,1,300,121.0,Training at home,,,,,,,,,,,,,
13,14,3031,A,43.36033884030553,72.93176459808495,2.1680169420152766,1.1456094793734193,B,428.453000029549,Incorrect,sub_013_day_11_data.csv,0,300,121.0,Training at home,,,,,,,,,,,,,
13,14,3032,A,63.1114326830088,80.3002610655486,3.15557163415044,1.26135355122435,A,372.6143999956548,Correct,sub_013_day_11_data.csv,1,300,121.0,Training at home,,,,,,,,,,,,,
13,14,3033,A,30.676678721498895,63.14454872432725,1.533833936074945,0.9918722519329464,A,468.28419994562864,Correct,sub_013_day_11_data.csv,1,300,121.0,Training at home,,,,,,,,,,,,,
13,14,3034,B,88.50185274845757,64.8992243683447,4.425092637422878,1.019434632496337,B,410.78170016407967,Correct,sub_013_day_11_data.csv,1,300,121.0,Training at home,,,,,,,,,,,,,
13,14,3035,A,65.67153501104664,88.94552593236321,3.2835767505523323,1.3971530541939634,A,396.1202001664787,Correct,sub_013_day_11_data.csv,1,300,121.0,Training at home,,,,,,,,,,,,,
13,14,3036,A,61.55260901954618,82.61794425498758,3.07763045097731,1.2977596336308004,A,416.5502998512238,Correct,sub_013_day_11_data.csv,1,300,121.0,Training at home,,,,,,,,,,,,,
13,14,3037,B,78.96370109963588,53.60472323990983,3.9481850549817943,0.8420210236410739,B,487.837300170213,Correct,sub_013_day_11_data.csv,1,300,121.0,Training at home,,,,,,,,,,,,,
13,14,3038,B,68.82005721251929,48.66475381794662,3.441002860625964,0.7644241654160848,B,403.6297998391092,Correct,sub_013_day_11_data.csv,1,300,121.0,Training at home,,,,,,,,,,,,,
13,14,3039,B,49.94002749158114,37.04564373438186,2.497001374579057,0.581911611017194,A,420.9670000709594,Incorrect,sub_013_day_11_data.csv,0,300,121.0,Training at home,,,,,,,,,,,,,
13,14,3040,A,23.050780007553133,46.466089125421426,1.1525390003776566,0.7298876211873625,A,423.79890009760857,Correct,sub_013_day_11_data.csv,1,300,121.0,Training at home,,,,,,,,,,,,,
13,14,3041,A,32.3379736736187,43.67288281999265,1.616898683680935,0.686012039141884,A,477.9833999928087,Correct,sub_013_day_11_data.csv,1,300,121.0,Training at home,,,,,,,,,,,,,
13,14,3042,B,72.17755701442687,51.518159780564545,3.6088778507213433,0.8092453614654337,B,369.05590002425015,Correct,sub_013_day_11_data.csv,1,300,121.0,Training at home,,,,,,,,,,,,,
13,14,3043,A,49.14698713631979,74.31868383188213,2.4573493568159894,1.167395155753517,A,405.724799958989,Correct,sub_013_day_11_data.csv,1,300,121.0,Training at home,,,,,,,,,,,,,
13,14,3044,B,57.8551184643325,30.13740087001583,2.8927559232166247,0.4733971858576619,B,461.5526001434773,Correct,sub_013_day_11_data.csv,1,300,121.0,Training at home,,,,,,,,,,,,,
13,14,3045,B,88.29028075847302,64.15944709862,4.414514037923651,1.007814238317038,A,393.60979991033673,Incorrect,sub_013_day_11_data.csv,0,300,121.0,Training at home,,,,,,,,,,,,,
13,14,3046,A,57.09075425881363,80.57383062352983,2.8545377129406813,1.2656507717923482,A,424.71169983036816,Correct,sub_013_day_11_data.csv,1,300,121.0,Training at home,,,,,,,,,,,,,
13,14,3047,B,47.11614796364165,25.80323655294549,2.3558073981820824,0.4053162919678658,B,410.1896998472512,Correct,sub_013_day_11_data.csv,1,300,121.0,Training at home,,,,,,,,,,,,,
13,14,3048,A,43.285412291479,52.729936356245176,2.1642706145739496,0.8282799034051858,B,468.8587000127882,Incorrect,sub_013_day_11_data.csv,0,300,121.0,Training at home,,,,,,,,,,,,,
13,14,3049,B,49.04350558446704,26.62859351101462,2.452175279223352,0.4182809687481618,B,441.3053998723626,Correct,sub_013_day_11_data.csv,1,300,121.0,Training at home,,,,,,,,,,,,,
13,14,3050,A,43.013086521384935,66.97851800014136,2.1506543260692466,1.052096100487879,A,378.14339995384216,Correct,sub_013_day_11_data.csv,1,300,122.0,Training at home,,,,,,,,,,,,,
13,14,3051,A,16.98991056461999,43.54968727508363,0.8494955282309995,0.6840768880476781,A,517.3591000493616,Correct,sub_013_day_11_data.csv,1,300,122.0,Training at home,,,,,,,,,,,,,
13,14,3052,A,42.531760628226735,51.2773215500494,2.126588031411337,0.8054622833869838,B,550.5950001534075,Incorrect,sub_013_day_11_data.csv,0,300,122.0,Training at home,,,,,,,,,,,,,
13,14,3053,A,48.68321519445913,71.56706552931809,2.4341607597229564,1.124172836529425,A,415.5488999094814,Correct,sub_013_day_11_data.csv,1,300,122.0,Training at home,,,,,,,,,,,,,
13,14,3054,B,76.83833283690076,58.585039245763696,3.841916641845038,0.9202516445238048,B,380.0892001017928,Correct,sub_013_day_11_data.csv,1,300,122.0,Training at home,,,,,,,,,,,,,
13,14,3055,B,75.96790020133642,62.19736308565678,3.798395010066821,0.9769938947127818,B,378.753200173378,Correct,sub_013_day_11_data.csv,1,300,122.0,Training at home,,,,,,,,,,,,,
13,14,3056,A,32.513161907585186,49.05363830111486,1.6256580953792592,0.7705327485931667,A,357.0966001134366,Correct,sub_013_day_11_data.csv,1,300,122.0,Training at home,,,,,,,,,,,,,
13,14,3057,A,42.650063788829904,62.41847673067125,2.132503189441495,0.9804671397267112,A,409.5115999225527,Correct,sub_013_day_11_data.csv,1,300,122.0,Training at home,,,,,,,,,,,,,
13,14,3058,A,39.850995847084185,64.61109457614765,1.9925497923542093,1.014908700304104,A,372.7830999996513,Correct,sub_013_day_11_data.csv,1,300,122.0,Training at home,,,,,,,,,,,,,
13,14,3059,B,64.16616157121132,54.18305189801288,3.2083080785605658,0.8511053889593588,B,416.21770011261106,Correct,sub_013_day_11_data.csv,1,300,122.0,Training at home,,,,,,,,,,,,,
13,14,3060,B,82.43333074953824,61.9065908452176,4.121666537476912,0.9724264550406236,B,321.15680002607405,Correct,sub_013_day_11_data.csv,1,300,122.0,Training at home,,,,,,,,,,,,,
13,14,3061,B,45.46728724178149,26.65131675589312,2.2733643620890747,0.4186379046440419,B,295.8155998494476,Correct,sub_013_day_11_data.csv,1,300,122.0,Training at home,,,,,,,,,,,,,
13,14,3062,B,63.18261384021376,31.715975057370787,3.159130692010688,0.498193371208366,B,365.6755001284182,Correct,sub_013_day_11_data.csv,1,300,122.0,Training at home,,,,,,,,,,,,,
13,14,3063,B,64.04013101142208,35.61344221467582,3.202006550571104,0.5594146421533509,B,391.9629000592977,Correct,sub_013_day_11_data.csv,1,300,122.0,Training at home,,,,,,,,,,,,,
13,14,3064,B,32.76491915370576,16.134862050993863,1.638245957685288,0.2534458204304353,B,304.74959989078343,Correct,sub_013_day_11_data.csv,1,300,122.0,Training at home,,,,,,,,,,,,,
13,14,3065,B,81.90972396123257,67.54089255470385,4.095486198061629,1.0609298593337757,A,351.46740009076893,Incorrect,sub_013_day_11_data.csv,0,300,122.0,Training at home,,,,,,,,,,,,,
13,14,3066,A,38.16875518371996,70.94767538211957,1.9084377591859976,1.1144434788487014,A,491.3542000576854,Correct,sub_013_day_11_data.csv,1,300,122.0,Training at home,,,,,,,,,,,,,
13,14,3067,A,17.908773665696707,47.451602469688694,0.8954386832848354,0.7453680285991864,A,473.77249994315207,Correct,sub_013_day_11_data.csv,1,300,122.0,Training at home,,,,,,,,,,,,,
13,14,3068,A,49.34780296574773,72.27558499399913,2.467390148287387,1.1353022342552617,A,409.0805999003351,Correct,sub_013_day_11_data.csv,1,300,122.0,Training at home,,,,,,,,,,,,,
13,14,3069,A,36.98740152907298,60.856407181949585,1.8493700764536496,0.9559302086334096,A,371.97600002400577,Correct,sub_013_day_11_data.csv,1,300,122.0,Training at home,,,,,,,,,,,,,
13,14,3070,B,72.58998128780283,50.10960233533664,3.6294990643901417,0.7871197928549977,B,418.4087999165058,Correct,sub_013_day_11_data.csv,1,300,122.0,Training at home,,,,,,,,,,,,,
13,14,3071,A,34.24626612566984,58.134563008907094,1.712313306283492,0.9131755803421772,A,403.71429990045726,Correct,sub_013_day_11_data.csv,1,300,122.0,Training at home,,,,,,,,,,,,,
13,14,3072,B,48.599204310879806,21.411995542306453,2.42996021554399,0.3363388394720367,B,465.7164998352528,Correct,sub_013_day_11_data.csv,1,300,122.0,Training at home,,,,,,,,,,,,,
13,14,3073,A,15.5501427748213,36.06111872636551,0.7775071387410649,0.566446728354896,A,1356.5515000373125,Correct,sub_013_day_11_data.csv,1,300,122.0,Training at home,,,,,,,,,,,,,
13,14,3074,A,57.72851643098042,72.85500888093635,2.8864258215490213,1.144403803387844,A,470.4726999625563,Correct,sub_013_day_11_data.csv,1,300,122.0,Training at home,,,,,,,,,,,,,
13,14,3075,A,42.45494006017516,67.01082950451075,2.122747003008758,1.0526036484116454,A,395.4312999267131,Correct,sub_013_day_11_data.csv,1,300,123.0,Training at home,,,,,,,,,,,,,
13,14,3076,A,60.175420377299304,76.19460769181974,3.008771018864965,1.1968620988388865,A,366.51129997335374,Correct,sub_013_day_11_data.csv,1,300,123.0,Training at home,,,,,,,,,,,,,
13,14,3077,A,55.58264203095006,80.28361732335507,2.779132101547503,1.2610921119333327,A,358.59429999254644,Correct,sub_013_day_11_data.csv,1,300,123.0,Training at home,,,,,,,,,,,,,
13,14,3078,B,38.26310125744229,21.218654201329965,1.9131550628721143,0.3333018407898021,B,523.1993000488728,Correct,sub_013_day_11_data.csv,1,300,123.0,Training at home,,,,,,,,,,,,,
13,14,3079,A,15.353320312224524,36.8209185844708,0.7676660156112263,0.5783816366170066,A,367.82300006598234,Correct,sub_013_day_11_data.csv,1,300,123.0,Training at home,,,,,,,,,,,,,
13,14,3080,A,34.293131741798845,49.49583455148117,1.7146565870899422,0.7774787510511454,A,411.3150998018682,Correct,sub_013_day_11_data.csv,1,300,123.0,Training at home,,,,,,,,,,,,,
13,14,3081,A,51.81688890486037,62.011568612374575,2.590844445243018,0.9740754419510768,B,385.3646998759359,Incorrect,sub_013_day_11_data.csv,0,300,123.0,Training at home,,,,,,,,,,,,,
13,14,3082,B,63.149674667247155,55.826329734853935,3.1574837333623575,0.8769179368594927,B,374.7950999531895,Correct,sub_013_day_11_data.csv,1,300,123.0,Training at home,,,,,,,,,,,,,
13,14,3083,A,48.08508093566894,60.286537456246805,2.4042540467834472,0.9469787159145544,B,369.0269000362605,Incorrect,sub_013_day_11_data.csv,0,300,123.0,Training at home,,,,,,,,,,,,,
13,14,3084,A,23.0220894870894,40.73443584050976,1.15110447435447,0.6398550219233512,A,528.124799951911,Correct,sub_013_day_11_data.csv,1,300,123.0,Training at home,,,,,,,,,,,,,
13,14,3085,B,41.60423718185778,23.250567979556315,2.0802118590928895,0.365219067781821,B,329.49739997275174,Correct,sub_013_day_11_data.csv,1,300,123.0,Training at home,,,,,,,,,,,,,
13,14,3086,B,49.7946918094168,25.166809444579854,2.48973459047084,0.3953193183269314,B,367.0473999809474,Correct,sub_013_day_11_data.csv,1,300,123.0,Training at home,,,,,,,,,,,,,
13,14,3087,B,58.26770400325445,48.07075572232445,2.9133852001627223,0.75509366514882,B,351.4535999856889,Correct,sub_013_day_11_data.csv,1,300,123.0,Training at home,,,,,,,,,,,,,
13,14,3088,A,56.05368477302056,66.17729494676978,2.802684238651028,1.0395105181960844,A,387.78229989111423,Correct,sub_013_day_11_data.csv,1,300,123.0,Training at home,,,,,,,,,,,,,
13,14,3089,B,55.77069028989939,33.12493768706024,2.7885345144949696,0.5203253044414407,B,371.2398000061512,Correct,sub_013_day_11_data.csv,1,300,123.0,Training at home,,,,,,,,,,,,,
13,14,3090,A,58.85694821239342,82.93414377467768,2.942847410619671,1.3027264840714354,A,368.9978001639247,Correct,sub_013_day_11_data.csv,1,300,123.0,Training at home,,,,,,,,,,,,,
13,14,3091,B,51.7580575894206,30.248419249250688,2.5879028794710304,0.4751410584807503,B,294.24289986491203,Correct,sub_013_day_11_data.csv,1,300,123.0,Training at home,,,,,,,,,,,,,
13,14,3092,A,48.856201579516274,70.91832823769712,2.4428100789758136,1.1139824949820942,A,369.5358999539166,Correct,sub_013_day_11_data.csv,1,300,123.0,Training at home,,,,,,,,,,,,,
13,14,3093,A,34.57777532921247,48.2497192292756,1.7288887664606236,0.757904817342312,B,441.8303999118507,Incorrect,sub_013_day_11_data.csv,0,300,123.0,Training at home,,,,,,,,,,,,,
13,14,3094,B,42.68740617726944,23.122495420424844,2.134370308863472,0.3632073087273517,B,393.5883000958711,Correct,sub_013_day_11_data.csv,1,300,123.0,Training at home,,,,,,,,,,,,,
13,14,3095,A,24.5703336912025,49.43455090847798,1.228516684560125,0.7765161098379252,A,580.8311000000685,Correct,sub_013_day_11_data.csv,1,300,123.0,Training at home,,,,,,,,,,,,,
13,14,3096,B,78.45548402863798,60.18651827251993,3.922774201431899,0.9454076182504824,B,522.5285000633448,Correct,sub_013_day_11_data.csv,1,300,123.0,Training at home,,,,,,,,,,,,,
13,14,3097,B,58.33504330256998,46.90056017314746,2.9167521651284987,0.7367122764460305,B,513.3389001712203,Correct,sub_013_day_11_data.csv,1,300,123.0,Training at home,,,,,,,,,,,,,
13,14,3098,B,71.19535989858835,55.14490511784572,3.5597679949294174,0.8662141440056516,B,387.3959998600185,Correct,sub_013_day_11_data.csv,1,300,123.0,Training at home,,,,,,,,,,,,,
13,14,3099,A,53.268331571099566,75.47661163530078,2.6634165785549784,1.1855838431565542,A,385.7238998170942,Correct,sub_013_day_11_data.csv,1,300,123.0,Training at home,,,,,,,,,,,,,
13,14,3100,B,35.06829130173487,24.668414035360698,1.7534145650867432,0.3874905415460026,B,389.7496999707073,Correct,sub_013_day_11_data.csv,1,300,124.0,Training at home,,,,,,,,,,,,,
13,14,3101,A,46.49495710882971,61.66167798226744,2.3247478554414855,0.9685793727855544,A,361.39090009965,Correct,sub_013_day_11_data.csv,1,300,124.0,Training at home,,,,,,,,,,,,,
13,14,3102,A,63.11843570629903,80.20342124885119,3.1559217853149515,1.259832394940792,A,423.1787999160588,Correct,sub_013_day_11_data.csv,1,300,124.0,Training at home,,,,,,,,,,,,,
13,14,3103,B,69.38408273324194,46.574163961693536,3.469204136662097,0.7315852567457145,B,394.4101999513805,Correct,sub_013_day_11_data.csv,1,300,124.0,Training at home,,,,,,,,,,,,,
13,14,3104,A,49.6468271881415,59.47619001301421,2.482341359407075,0.9342498080419804,A,505.23789995349944,Correct,sub_013_day_11_data.csv,1,300,124.0,Training at home,,,,,,,,,,,,,
13,14,3105,B,67.39696254427265,47.9358859188584,3.3698481272136327,0.7529751352300198,A,371.7153000179678,Incorrect,sub_013_day_11_data.csv,0,300,124.0,Training at home,,,,,,,,,,,,,
13,14,3106,A,61.267062924593006,71.77573872101539,3.0633531462296504,1.127450667359612,A,435.20530010573566,Correct,sub_013_day_11_data.csv,1,300,124.0,Training at home,,,,,,,,,,,,,
13,14,3107,A,32.86871894290817,42.936244119814575,1.6434359471454083,0.6744409454977371,A,587.6893999520689,Correct,sub_013_day_11_data.csv,1,300,124.0,Training at home,,,,,,,,,,,,,
13,14,3108,B,49.44575291603094,28.346049654966407,2.472287645801547,0.4452587067716698,B,498.4379999805242,Correct,sub_013_day_11_data.csv,1,300,124.0,Training at home,,,,,,,,,,,,,
13,14,3109,B,39.69671176769596,18.818023365456007,1.984835588384798,0.2955928197999883,B,461.1510001122951,Correct,sub_013_day_11_data.csv,1,300,124.0,Training at home,,,,,,,,,,,,,
13,14,3110,B,62.76938517835437,48.415438382163714,3.138469258917718,0.7605079277086741,A,580.4735999554396,Incorrect,sub_013_day_11_data.csv,0,300,124.0,Training at home,,,,,,,,,,,,,
13,14,3111,A,16.108168429840422,37.892991459682435,0.8054084214920211,0.5952217179613956,A,587.7878000028431,Correct,sub_013_day_11_data.csv,1,300,124.0,Training at home,,,,,,,,,,,,,
13,14,3112,A,24.38064050925449,56.62449955860022,1.2190320254627245,0.8894555591324848,A,446.3659999892115,Correct,sub_013_day_11_data.csv,1,300,124.0,Training at home,,,,,,,,,,,,,
13,14,3113,A,27.76980313266085,60.07478693174643,1.3884901566330423,0.9436525464537332,A,437.3143999837339,Correct,sub_013_day_11_data.csv,1,300,124.0,Training at home,,,,,,,,,,,,,
13,14,3114,A,58.05411222335806,83.88764309253963,2.902705611167903,1.3177040163324254,A,451.1102000251413,Correct,sub_013_day_11_data.csv,1,300,124.0,Training at home,,,,,,,,,,,,,
13,14,3115,A,40.24447449918117,67.57914486724121,2.0122237249590587,1.061530725254027,A,344.29019992239773,Correct,sub_013_day_11_data.csv,1,300,124.0,Training at home,,,,,,,,,,,,,
13,14,3116,B,66.0321007048906,56.161512223631576,3.3016050352445294,0.8821829710812717,B,490.6871998682618,Correct,sub_013_day_11_data.csv,1,300,124.0,Training at home,,,,,,,,,,,,,
13,14,3117,A,34.81947122814937,51.99802060192892,1.7409735614074686,0.8167829976211531,A,500.0112000852823,Correct,sub_013_day_11_data.csv,1,300,124.0,Training at home,,,,,,,,,,,,,
13,14,3118,A,38.83187966643938,68.02539374701405,1.9415939833219689,1.068540386265862,A,431.27439985983074,Correct,sub_013_day_11_data.csv,1,300,124.0,Training at home,,,,,,,,,,,,,
13,14,3119,A,34.87522212796698,43.83025393025916,1.7437611063983491,0.6884840187613867,B,702.7177000418305,Incorrect,sub_013_day_11_data.csv,0,300,124.0,Training at home,,,,,,,,,,,,,
13,14,3120,A,41.89788327110037,61.96518273986839,2.0948941635550185,0.973346814369598,A,399.4888002052903,Correct,sub_013_day_11_data.csv,1,300,124.0,Training at home,,,,,,,,,,,,,
13,14,3121,A,29.962510462625925,43.30776342789208,1.4981255231312962,0.6802767571423525,A,497.15990014374256,Correct,sub_013_day_11_data.csv,1,300,124.0,Training at home,,,,,,,,,,,,,
13,14,3122,A,21.343257809216897,49.366660061074526,1.0671628904608448,0.775449682900682,A,479.9178000539541,Correct,sub_013_day_11_data.csv,1,300,124.0,Training at home,,,,,,,,,,,,,
13,14,3123,A,16.694805929510704,32.60872676770629,0.8347402964755353,0.5122166822817145,A,372.50389996916056,Correct,sub_013_day_11_data.csv,1,300,124.0,Training at home,,,,,,,,,,,,,
13,14,3124,A,25.620081718460405,55.68469339183562,1.28100408592302,0.8746931183859544,A,421.7338000889867,Correct,sub_013_day_11_data.csv,1,300,124.0,Training at home,,,,,,,,,,,,,
13,14,3125,A,34.28403958769485,66.74137720683078,1.7142019793847425,1.048371101617224,A,386.5421002265066,Correct,sub_013_day_11_data.csv,1,300,125.0,Training at home,,,,,,,,,,,,,
13,14,3126,A,14.488693196107064,37.22520613170549,0.7244346598053533,0.5847321705586584,A,418.96010003983974,Correct,sub_013_day_11_data.csv,1,300,125.0,Training at home,,,,,,,,,,,,,
13,14,3127,A,48.74724671953495,57.21465388222615,2.4373623359767476,0.898725681570422,B,424.8119001276791,Incorrect,sub_013_day_11_data.csv,0,300,125.0,Training at home,,,,,,,,,,,,,
13,14,3128,A,37.11605932702364,64.27748048033313,1.855802966351182,1.0096683023413795,A,468.6052999459207,Correct,sub_013_day_11_data.csv,1,300,125.0,Training at home,,,,,,,,,,,,,
13,14,3129,A,20.319606640203155,34.81976894352291,1.0159803320101577,0.5469476515633279,A,356.64129978977144,Correct,sub_013_day_11_data.csv,1,300,125.0,Training at home,,,,,,,,,,,,,
13,14,3130,A,44.00500585583653,74.43772810068288,2.200250292791827,1.169265098755099,A,557.3376000393182,Correct,sub_013_day_11_data.csv,1,300,125.0,Training at home,,,,,,,,,,,,,
13,14,3131,B,77.26795533522457,54.23763579947282,3.863397766761228,0.8519627908785128,B,473.92129991203547,Correct,sub_013_day_11_data.csv,1,300,125.0,Training at home,,,,,,,,,,,,,
13,14,3132,A,11.416315082996622,31.47045350228476,0.5708157541498311,0.4943367276395848,A,352.64099994674325,Correct,sub_013_day_11_data.csv,1,300,125.0,Training at home,,,,,,,,,,,,,
13,14,3133,A,32.564110753279735,60.17493840869972,1.6282055376639868,0.9452257221749464,A,527.9490000102669,Correct,sub_013_day_11_data.csv,1,300,125.0,Training at home,,,,,,,,,,,,,
13,14,3134,A,41.32042246117527,71.16566837132223,2.0660211230587633,1.117867704715767,A,421.1976998485625,Correct,sub_013_day_11_data.csv,1,300,125.0,Training at home,,,,,,,,,,,,,
13,14,3135,B,76.18147774085422,47.45031347132408,3.809073887042711,0.7453477810602226,B,419.35160011053085,Correct,sub_013_day_11_data.csv,1,300,125.0,Training at home,,,,,,,,,,,,,
13,14,3136,A,56.09859548920457,80.44585244615322,2.8049297744602284,1.2636404952830174,A,448.28830007463694,Correct,sub_013_day_11_data.csv,1,300,125.0,Training at home,,,,,,,,,,,,,
13,14,3137,B,61.91244030957627,47.46436808966999,3.095622015478814,0.7455685504889451,B,482.3692000936717,Correct,sub_013_day_11_data.csv,1,300,125.0,Training at home,,,,,,,,,,,,,
13,14,3138,B,45.88007533285148,25.816810327962333,2.294003766642574,0.4055295083272377,B,470.56539985351264,Correct,sub_013_day_11_data.csv,1,300,125.0,Training at home,,,,,,,,,,,,,
13,14,3139,B,34.01480435556994,11.055349016852604,1.7007402177784972,0.1736570162710764,B,389.139800099656,Correct,sub_013_day_11_data.csv,1,300,125.0,Training at home,,,,,,,,,,,,,
13,14,3140,B,39.460572552798794,25.425580513461632,1.97302862763994,0.3993840847717343,B,464.96970020234585,Correct,sub_013_day_11_data.csv,1,300,125.0,Training at home,,,,,,,,,,,,,
13,14,3141,A,17.67160470066634,32.88743742398462,0.883580235033317,0.5165946590329206,A,467.6810000091791,Correct,sub_013_day_11_data.csv,1,300,125.0,Training at home,,,,,,,,,,,,,
13,14,3142,A,43.82690158226267,53.43653488553368,2.1913450791131335,0.8393791271484365,B,388.43980012461543,Incorrect,sub_013_day_11_data.csv,0,300,125.0,Training at home,,,,,,,,,,,,,
13,14,3143,B,38.69171080958273,21.057321573973,1.9345855404791368,0.3307676338053571,B,472.6889000739902,Correct,sub_013_day_11_data.csv,1,300,125.0,Training at home,,,,,,,,,,,,,
13,14,3144,A,45.084471344133064,59.8425333574786,2.2542235672066533,0.9400043158402844,A,416.91829985938966,Correct,sub_013_day_11_data.csv,1,300,125.0,Training at home,,,,,,,,,,,,,
13,14,3145,B,48.457570995861246,25.52461991455003,2.4228785497930625,0.4009397920461105,B,388.8083000201732,Correct,sub_013_day_11_data.csv,1,300,125.0,Training at home,,,,,,,,,,,,,
13,14,3146,A,46.7632654955707,76.95954614856677,2.338163274778535,1.2088777240197102,A,399.3174999486655,Correct,sub_013_day_11_data.csv,1,300,125.0,Training at home,,,,,,,,,,,,,
13,14,3147,A,41.43068118765782,67.74520038516943,2.071534059382891,1.0641391192300833,A,382.51019991002977,Correct,sub_013_day_11_data.csv,1,300,125.0,Training at home,,,,,,,,,,,,,
13,14,3148,B,82.1504400856951,56.49472220475998,4.107522004284755,0.8874170212253506,B,542.4589000176638,Correct,sub_013_day_11_data.csv,1,300,125.0,Training at home,,,,,,,,,,,,,
13,14,3149,B,66.61265373145245,57.9151212068999,3.3306326865726223,0.9097285965767958,B,509.2998000327498,Correct,sub_013_day_11_data.csv,1,300,125.0,Training at home,,,,,,,,,,,,,
13,14,3150,B,44.23790246151076,22.128209953249993,2.211895123075538,0.3475891091311135,B,435.1985000539571,Correct,sub_013_day_11_data.csv,1,300,126.0,Training at home,,,,,,,,,,,,,
13,14,3151,B,45.59662596309927,16.981957871192478,2.2798312981549635,0.2667519704585482,B,354.7655998263508,Correct,sub_013_day_11_data.csv,1,300,126.0,Training at home,,,,,,,,,,,,,
13,14,3152,B,66.30466515170473,52.857830287978146,3.3152332575852363,0.830288856587041,B,346.0113999899477,Correct,sub_013_day_11_data.csv,1,300,126.0,Training at home,,,,,,,,,,,,,
13,14,3153,A,34.03476983812434,60.21310770379228,1.7017384919062168,0.945825284060224,B,359.5905997790396,Incorrect,sub_013_day_11_data.csv,0,300,126.0,Training at home,,,,,,,,,,,,,
13,14,3154,A,49.88243808235691,65.12943449093206,2.4941219041178457,1.023050764645849,A,474.3937999010086,Correct,sub_013_day_11_data.csv,1,300,126.0,Training at home,,,,,,,,,,,,,
13,14,3155,B,64.17408581484483,48.89408922510074,3.2087042907422414,0.7680265575677019,B,388.7587001081556,Correct,sub_013_day_11_data.csv,1,300,126.0,Training at home,,,,,,,,,,,,,
13,14,3156,A,34.34665066209409,59.39469288474463,1.7173325331047045,0.9329696541446784,A,422.3754999693483,Correct,sub_013_day_11_data.csv,1,300,126.0,Training at home,,,,,,,,,,,,,
13,14,3157,A,46.27088254285436,69.63158981793018,2.313544127142718,1.0937704551489364,A,418.3894000016153,Correct,sub_013_day_11_data.csv,1,300,126.0,Training at home,,,,,,,,,,,,,
13,14,3158,A,26.50144451277629,41.45500869825612,1.3250722256388143,0.6511737539047121,A,335.4470001067966,Correct,sub_013_day_11_data.csv,1,300,126.0,Training at home,,,,,,,,,,,,,
13,14,3159,B,70.69054594889423,49.66925168962233,3.5345272974447113,0.7802027810870997,B,362.1906000189483,Correct,sub_013_day_11_data.csv,1,300,126.0,Training at home,,,,,,,,,,,,,
13,14,3160,B,82.77666793765303,54.78250113710083,4.138833396882651,0.8605215155879522,B,388.19000008516014,Correct,sub_013_day_11_data.csv,1,300,126.0,Training at home,,,,,,,,,,,,,
13,14,3161,A,50.64568549294802,79.07792211329728,2.532284274647401,1.2421530958614029,A,439.15640003979206,Correct,sub_013_day_11_data.csv,1,300,126.0,Training at home,,,,,,,,,,,,,
13,14,3162,B,81.07319046621431,68.14432783912953,4.053659523310716,1.0704085986161187,B,486.102000111714,Correct,sub_013_day_11_data.csv,1,300,126.0,Training at home,,,,,,,,,,,,,
13,14,3163,A,32.01937478775332,64.45700989384778,1.6009687393876662,1.012488343774384,A,432.4892000295222,Correct,sub_013_day_11_data.csv,1,300,126.0,Training at home,,,,,,,,,,,,,
13,14,3164,A,39.75296077525214,52.91422551704133,1.9876480387626072,0.8311747107736529,A,392.7106000483036,Correct,sub_013_day_11_data.csv,1,300,126.0,Training at home,,,,,,,,,,,,,
13,14,3165,A,34.04095876782634,57.35630984184131,1.702047938391317,0.9009508081807432,A,425.384399946779,Correct,sub_013_day_11_data.csv,1,300,126.0,Training at home,,,,,,,,,,,,,
13,14,3166,B,37.940516814355874,14.33754049695547,1.8970258407177936,0.2252135594789072,B,446.3201998732984,Correct,sub_013_day_11_data.csv,1,300,126.0,Training at home,,,,,,,,,,,,,
13,14,3167,A,64.02225938799359,75.36978594368003,3.2011129693996794,1.183905829116502,A,415.2550001163035,Correct,sub_013_day_11_data.csv,1,300,126.0,Training at home,,,,,,,,,,,,,
13,14,3168,A,17.10275212636612,40.9949680917591,0.8551376063183059,0.6439474529560918,A,438.62289981916547,Correct,sub_013_day_11_data.csv,1,300,126.0,Training at home,,,,,,,,,,,,,
13,14,3169,B,74.27517579105839,44.86666057391812,3.713758789552919,0.7047638562506399,B,521.8644000124186,Correct,sub_013_day_11_data.csv,1,300,126.0,Training at home,,,,,,,,,,,,,
13,14,3170,A,53.70791731775529,62.4441723336564,2.6853958658877644,0.98087076531455,B,519.956799922511,Incorrect,sub_013_day_11_data.csv,0,300,126.0,Training at home,,,,,,,,,,,,,
13,14,3171,B,61.513596232349286,39.44069095161249,3.0756798116174644,0.6195329247304561,B,548.7867000047117,Correct,sub_013_day_11_data.csv,1,300,126.0,Training at home,,,,,,,,,,,,,
13,14,3172,B,45.76804759151248,19.82943346768861,2.288402379575624,0.3114800125346905,B,439.9132998660207,Correct,sub_013_day_11_data.csv,1,300,126.0,Training at home,,,,,,,,,,,,,
13,14,3173,B,83.06984995106505,67.13837477372503,4.153492497553253,1.0546071248154645,A,457.0212000980973,Incorrect,sub_013_day_11_data.csv,0,300,126.0,Training at home,,,,,,,,,,,,,
13,14,3174,B,54.33394038589075,29.374460144084832,2.7166970192945374,0.4614129409591154,B,417.5732999574393,Correct,sub_013_day_11_data.csv,1,300,126.0,Training at home,,,,,,,,,,,,,
13,14,3175,B,53.546797957418626,23.50119736078414,2.6773398978709313,0.3691559448960164,B,465.9446999430656,Correct,sub_013_day_11_data.csv,1,300,127.0,Training at home,,,,,,,,,,,,,
13,14,3176,A,45.238521163863155,53.48475538197668,2.2619260581931577,0.8401365729353254,B,526.2483998667449,Incorrect,sub_013_day_11_data.csv,0,300,127.0,Training at home,,,,,,,,,,,,,
13,14,3177,A,34.47887318544222,42.50514972906812,1.723943659272111,0.667669330642873,A,608.4951001685113,Correct,sub_013_day_11_data.csv,1,300,127.0,Training at home,,,,,,,,,,,,,
13,14,3178,A,29.665120666305363,44.82546465623135,1.4832560333152682,0.7041167522888265,B,476.4899001456797,Incorrect,sub_013_day_11_data.csv,0,300,127.0,Training at home,,,,,,,,,,,,,
13,14,3179,B,34.258693079456854,19.222558624234047,1.7129346539728427,0.301947244785464,B,504.08819993026555,Correct,sub_013_day_11_data.csv,1,300,127.0,Training at home,,,,,,,,,,,,,
13,14,3180,A,34.42659199069837,43.27956622516825,1.7213295995349185,0.6798338365177076,A,779.3026999570429,Correct,sub_013_day_11_data.csv,1,300,127.0,Training at home,,,,,,,,,,,,,
13,14,3181,A,34.16508104342581,50.833522828304105,1.7082540521712903,0.7984911093674462,B,456.61780005320907,Incorrect,sub_013_day_11_data.csv,0,300,127.0,Training at home,,,,,,,,,,,,,
13,14,3182,B,76.36700135383425,63.58285013255026,3.818350067691713,0.9987570743536036,B,531.9246000144631,Correct,sub_013_day_11_data.csv,1,300,127.0,Training at home,,,,,,,,,,,,,
13,14,3183,B,66.15722816264811,34.084520314825895,3.307861408132405,0.5353983931109455,B,700.7953999564052,Correct,sub_013_day_11_data.csv,1,300,127.0,Training at home,,,,,,,,,,,,,
13,14,3184,A,55.888433089538225,71.53925388148139,2.7944216544769116,1.123735972186785,A,411.0741000622511,Correct,sub_013_day_11_data.csv,1,300,127.0,Training at home,,,,,,,,,,,,,
13,14,3185,B,51.864509980096464,21.216720706809415,2.593225499004823,0.3332714695288945,B,487.1251001022756,Correct,sub_013_day_11_data.csv,1,300,127.0,Training at home,,,,,,,,,,,,,
13,14,3186,A,42.80404022119953,57.84716851105697,2.1402020110599764,0.908661198126537,A,460.74449992738664,Correct,sub_013_day_11_data.csv,1,300,127.0,Training at home,,,,,,,,,,,,,
13,14,3187,B,43.39677968380971,23.273924967328355,2.1698389841904855,0.3655859584877942,B,400.20779985934496,Correct,sub_013_day_11_data.csv,1,300,127.0,Training at home,,,,,,,,,,,,,
13,14,3188,A,16.08051750550132,43.736361437600635,0.804025875275066,0.6870091589355704,A,415.5102001968771,Correct,sub_013_day_11_data.csv,1,300,127.0,Training at home,,,,,,,,,,,,,
13,14,3189,B,34.61929733327145,15.669280300618723,1.7309648666635724,0.2461324793973152,B,453.1296999193728,Correct,sub_013_day_11_data.csv,1,300,127.0,Training at home,,,,,,,,,,,,,
13,14,3190,B,57.574522783347206,30.169424243298653,2.8787261391673606,0.4739002078289043,B,493.8540998846293,Correct,sub_013_day_11_data.csv,1,300,127.0,Training at home,,,,,,,,,,,,,
13,14,3191,B,71.71141385993018,55.85267171065557,3.5855706929965088,0.8773317156477898,B,378.9848999585956,Correct,sub_013_day_11_data.csv,1,300,127.0,Training at home,,,,,,,,,,,,,
13,14,3192,B,47.37479323164872,28.834897248346877,2.368739661582436,0.4529375068121154,A,460.9910999424755,Incorrect,sub_013_day_11_data.csv,0,300,127.0,Training at home,,,,,,,,,,,,,
13,14,3193,B,58.83353816488992,36.1702193037003,2.941676908244496,0.5681604762161829,B,468.5071001295,Correct,sub_013_day_11_data.csv,1,300,127.0,Training at home,,,,,,,,,,,,,
13,14,3194,A,35.624746142845105,49.48791434661604,1.7812373071422554,0.7773543407640493,A,438.9033999759704,Correct,sub_013_day_11_data.csv,1,300,127.0,Training at home,,,,,,,,,,,,,
13,14,3195,B,71.75715463064998,45.95884672322865,3.587857731532499,0.7219198761657724,B,457.6769999694079,Correct,sub_013_day_11_data.csv,1,300,127.0,Training at home,,,,,,,,,,,,,
13,14,3196,A,38.92835517483405,69.90329797569679,1.9464177587417024,1.0980384369107363,A,404.07669986598194,Correct,sub_013_day_11_data.csv,1,300,127.0,Training at home,,,,,,,,,,,,,
13,14,3197,B,58.00530462062613,46.41967218535213,2.900265231031306,0.7291585055977435,B,468.00810005515814,Correct,sub_013_day_11_data.csv,1,300,127.0,Training at home,,,,,,,,,,,,,
13,14,3198,A,23.244635308112308,39.271304520649615,1.1622317654056151,0.6168722088948022,A,415.9041000530124,Correct,sub_013_day_11_data.csv,1,300,127.0,Training at home,,,,,,,,,,,,,
13,14,3199,A,56.432682400511034,83.90896433440946,2.8216341200255517,1.3180389296165436,A,432.0402001030743,Correct,sub_013_day_11_data.csv,1,300,127.0,Training at home,,,,,,,,,,,,,
13,14,3200,B,70.61857633361726,51.12430740349255,3.5309288166808632,0.8030587427933922,B,412.04329999163747,Correct,sub_013_day_11_data.csv,1,300,128.0,Training at home,,,,,,,,,,,,,
13,14,3201,B,52.12460811677214,36.83301094123761,2.606230405838607,0.5785715829129227,A,463.1330999545753,Incorrect,sub_013_day_11_data.csv,0,300,128.0,Training at home,,,,,,,,,,,,,
13,14,3202,A,18.904142918242464,49.752114389497166,0.9452071459121232,0.7815043853330165,A,398.6257999204099,Correct,sub_013_day_11_data.csv,1,300,128.0,Training at home,,,,,,,,,,,,,
13,14,3203,A,68.74399708319609,83.99511951563125,3.4371998541598043,1.3193922520385188,A,463.01850001327693,Correct,sub_013_day_11_data.csv,1,300,128.0,Training at home,,,,,,,,,,,,,
13,14,3204,B,59.90465869098328,33.74179409273652,2.9952329345491644,0.5300148622034025,B,330.85569995455444,Correct,sub_013_day_11_data.csv,1,300,128.0,Training at home,,,,,,,,,,,,,
13,14,3205,B,36.07606114319789,15.854499976070272,1.8038030571598944,0.2490419032558096,A,452.3978000506758,Incorrect,sub_013_day_11_data.csv,0,300,128.0,Training at home,,,,,,,,,,,,,
13,14,3206,A,44.585852993722504,66.9859804303454,2.2292926496861254,1.0522133200674135,A,400.32420004718006,Correct,sub_013_day_11_data.csv,1,300,128.0,Training at home,,,,,,,,,,,,,
13,14,3207,B,75.09984187382294,63.25711429014635,3.754992093691147,0.9936404277060684,B,654.9396000336856,Correct,sub_013_day_11_data.csv,1,300,128.0,Training at home,,,,,,,,,,,,,
13,14,3208,A,25.199392002222822,51.86746907160031,1.2599696001111411,0.8147322989781767,A,405.18490015529096,Correct,sub_013_day_11_data.csv,1,300,128.0,Training at home,,,,,,,,,,,,,
13,14,3209,B,70.69060160399094,46.200624625231534,3.534530080199547,0.7257177145694353,B,468.58079987578094,Correct,sub_013_day_11_data.csv,1,300,128.0,Training at home,,,,,,,,,,,,,
13,14,3210,B,40.06639749965059,20.873659254719303,2.0033198749825294,0.3278826728408138,B,480.7749001774937,Correct,sub_013_day_11_data.csv,1,300,128.0,Training at home,,,,,,,,,,,,,
13,14,3211,B,51.67440372315524,28.328189848209018,2.583720186157762,0.4449781655831519,B,458.2269999664277,Correct,sub_013_day_11_data.csv,1,300,128.0,Training at home,,,,,,,,,,,,,
13,14,3212,B,36.62928578737769,24.234013930566555,1.8314642893688844,0.380667000656303,B,425.6094000302255,Correct,sub_013_day_11_data.csv,1,300,128.0,Training at home,,,,,,,,,,,,,
13,14,3213,B,47.809648035993035,40.316528970356394,2.390482401799652,0.6332905561575586,B,450.3281000070274,Correct,sub_013_day_11_data.csv,1,300,128.0,Training at home,,,,,,,,,,,,,
13,14,3214,B,83.93505915861033,58.25451000813945,4.196752957930516,0.9150597034002198,A,423.5237999819219,Incorrect,sub_013_day_11_data.csv,0,300,128.0,Training at home,,,,,,,,,,,,,
13,14,3215,A,21.55221146087704,41.55889355170319,1.077610573043852,0.6528055733667549,A,578.1507999636233,Correct,sub_013_day_11_data.csv,1,300,128.0,Training at home,,,,,,,,,,,,,
13,14,3216,B,60.84200388903446,29.003099662948262,3.0421001944517227,0.4555796241622543,B,492.84050008282065,Correct,sub_013_day_11_data.csv,1,300,128.0,Training at home,,,,,,,,,,,,,
13,14,3217,B,70.02705686903188,46.7465384246206,3.5013528434515937,0.7342929084777055,B,389.57050000317395,Correct,sub_013_day_11_data.csv,1,300,128.0,Training at home,,,,,,,,,,,,,
13,14,3218,A,39.907489831253194,52.15579919919094,1.99537449156266,0.8192613780314133,A,426.9831001292914,Correct,sub_013_day_11_data.csv,1,300,128.0,Training at home,,,,,,,,,,,,,
13,14,3219,B,72.32440659718941,61.35829338182205,3.6162203298594706,0.9638138186256968,B,410.9712999779731,Correct,sub_013_day_11_data.csv,1,300,128.0,Training at home,,,,,,,,,,,,,
13,14,3220,B,57.950216782071315,33.237491855481565,2.8975108391035658,0.5220933011846574,B,417.54879988729954,Correct,sub_013_day_11_data.csv,1,300,128.0,Training at home,,,,,,,,,,,,,
13,14,3221,B,77.46761245457199,55.65707114319281,3.8733806227285994,0.874259229118895,B,403.67259993217885,Correct,sub_013_day_11_data.csv,1,300,128.0,Training at home,,,,,,,,,,,,,
13,14,3222,A,60.4705601293162,70.10362204152533,3.02352800646581,1.1011851199784577,A,454.4249998871237,Correct,sub_013_day_11_data.csv,1,300,128.0,Training at home,,,,,,,,,,,,,
13,14,3223,A,55.277038004001824,77.21110818670334,2.763851900200091,1.21282925127437,A,421.2751998566091,Correct,sub_013_day_11_data.csv,1,300,128.0,Training at home,,,,,,,,,,,,,
13,14,3224,B,32.49957345463016,10.711397083704163,1.624978672731508,0.1682542319392406,B,546.9023000914603,Correct,sub_013_day_11_data.csv,1,300,128.0,Training at home,,,,,,,,,,,,,
13,14,3225,B,75.17355100459758,52.18623465400848,3.758677550229879,0.8197394570377307,A,397.44700002484024,Incorrect,sub_013_day_11_data.csv,0,300,129.0,Training at home,,,,,,,,,,,,,
13,14,3226,B,71.62851714080854,49.51152873420898,3.581425857040427,0.7777252746969544,B,356.14869999699295,Correct,sub_013_day_11_data.csv,1,300,129.0,Training at home,,,,,,,,,,,,,
13,14,3227,A,19.14247097161483,39.954033610789395,0.9571235485807418,0.6275964923646782,A,465.2546998113394,Correct,sub_013_day_11_data.csv,1,300,129.0,Training at home,,,,,,,,,,,,,
13,14,3228,A,27.883537409465333,53.47296418000943,1.3941768704732669,0.8399513571679389,A,430.8714000508189,Correct,sub_013_day_11_data.csv,1,300,129.0,Training at home,,,,,,,,,,,,,
13,14,3229,A,27.299397240681948,57.12980581661489,1.364969862034097,0.8973928912724438,A,393.0836000945419,Correct,sub_013_day_11_data.csv,1,300,129.0,Training at home,,,,,,,,,,,,,
13,14,3230,B,62.783002129678565,31.235914286110187,3.139150106483928,0.4906525942470211,B,486.738899955526,Correct,sub_013_day_11_data.csv,1,300,129.0,Training at home,,,,,,,,,,,,,
13,14,3231,B,45.66926106395559,24.56613329844034,2.2834630531977793,0.3858839194874388,B,435.96050003543496,Correct,sub_013_day_11_data.csv,1,300,129.0,Training at home,,,,,,,,,,,,,
13,14,3232,B,60.77897248896184,41.40912075069839,3.038948624448092,0.6504529477100336,B,489.5349000580609,Correct,sub_013_day_11_data.csv,1,300,129.0,Training at home,,,,,,,,,,,,,
13,14,3233,B,57.90485394103109,35.98392235672436,2.895242697051555,0.5652341306161538,B,436.1849999986589,Correct,sub_013_day_11_data.csv,1,300,129.0,Training at home,,,,,,,,,,,,,
13,14,3234,A,20.821749463023515,47.39250789787428,1.0410874731511757,0.7444397732357906,A,399.0355001296848,Correct,sub_013_day_11_data.csv,1,300,129.0,Training at home,,,,,,,,,,,,,
13,14,3235,B,60.66034097197019,34.06664068738687,3.0330170485985097,0.5351175405798887,B,367.61730001308024,Correct,sub_013_day_11_data.csv,1,300,129.0,Training at home,,,,,,,,,,,,,
13,14,3236,A,66.23779667027155,83.11312512536205,3.3118898335135776,1.3055379165536332,A,420.379500137642,Correct,sub_013_day_11_data.csv,1,300,129.0,Training at home,,,,,,,,,,,,,
13,14,3237,B,71.40144372789223,60.0130413087725,3.570072186394611,0.9426826484761024,A,421.77619994618,Incorrect,sub_013_day_11_data.csv,0,300,129.0,Training at home,,,,,,,,,,,,,
13,14,3238,B,86.55657624797524,68.53938712727592,4.327828812398763,1.0766141754029843,B,674.6693002060056,Correct,sub_013_day_11_data.csv,1,300,129.0,Training at home,,,,,,,,,,,,,
13,14,3239,A,46.799240805558654,66.86098411104146,2.339962040277933,1.0502498824751587,B,421.2747998535633,Incorrect,sub_013_day_11_data.csv,0,300,129.0,Training at home,,,,,,,,,,,,,
13,14,3240,B,85.94242003395352,67.47678118297846,4.297121001697676,1.0599228002616556,B,518.1650000158697,Correct,sub_013_day_11_data.csv,1,300,129.0,Training at home,,,,,,,,,,,,,
13,14,3241,B,43.3536479690564,34.80240983864444,2.1676823984528197,0.5466749753815324,B,489.86009997315705,Correct,sub_013_day_11_data.csv,1,300,129.0,Training at home,,,,,,,,,,,,,
13,14,3242,A,29.790114978294685,41.40413146679556,1.4895057489147343,0.6503745762217545,B,462.2045999858528,Incorrect,sub_013_day_11_data.csv,0,300,129.0,Training at home,,,,,,,,,,,,,
13,14,3243,B,70.19402430673412,58.32132433269268,3.5097012153367064,0.9161092203560748,B,529.7968999948353,Correct,sub_013_day_11_data.csv,1,300,129.0,Training at home,,,,,,,,,,,,,
13,14,3244,A,12.801551911982076,33.46972211226404,0.6400775955991038,0.5257411655279027,A,427.6564000174403,Correct,sub_013_day_11_data.csv,1,300,129.0,Training at home,,,,,,,,,,,,,
13,14,3245,A,35.1788362133245,56.14907462508597,1.7589418106662251,0.8819876017401759,A,504.7641999553889,Correct,sub_013_day_11_data.csv,1,300,129.0,Training at home,,,,,,,,,,,,,
13,14,3246,B,66.55016330835502,36.261329044584315,3.3275081654177514,0.5695916246793414,B,640.646600164473,Correct,sub_013_day_11_data.csv,1,300,129.0,Training at home,,,,,,,,,,,,,
13,14,3247,A,23.837621209566333,37.00880741005773,1.1918810604783168,0.5813329873877843,A,492.4841998144984,Correct,sub_013_day_11_data.csv,1,300,129.0,Training at home,,,,,,,,,,,,,
13,14,3248,A,21.224489796474305,42.46283349076774,1.061224489823715,0.6670046287260127,A,431.57380004413426,Correct,sub_013_day_11_data.csv,1,300,129.0,Training at home,,,,,,,,,,,,,
13,14,3249,B,37.969992478681625,24.887108154769344,1.8984996239340817,0.39092578074059,B,387.6805000472814,Correct,sub_013_day_11_data.csv,1,300,129.0,Training at home,,,,,,,,,,,,,
13,14,3250,B,51.33672614231575,28.87561640060544,2.5668363071157874,0.4535771217600949,B,403.58859999105334,Correct,sub_013_day_11_data.csv,1,300,130.0,Training at home,,,,,,,,,,,,,
13,14,3251,B,84.46424211947298,59.13316652797053,4.22321210597365,0.9288616077388704,A,508.4096000064165,Incorrect,sub_013_day_11_data.csv,0,300,130.0,Training at home,,,,,,,,,,,,,
13,14,3252,B,45.74374514900259,20.46486886168112,2.2871872574501295,0.3214614083626796,B,413.98559999652207,Correct,sub_013_day_11_data.csv,1,300,130.0,Training at home,,,,,,,,,,,,,
13,14,3253,B,76.74212443814939,58.35469329748504,3.8371062219074696,0.9166333788293226,B,407.67910005524755,Correct,sub_013_day_11_data.csv,1,300,130.0,Training at home,,,,,,,,,,,,,
13,14,3254,B,83.25762574153183,58.23394467709814,4.1628812870765906,0.9147366639356296,B,540.801300201565,Correct,sub_013_day_11_data.csv,1,300,130.0,Training at home,,,,,,,,,,,,,
13,14,3255,A,46.59918520944705,70.8685882446867,2.3299592604723527,1.1132011809989386,B,437.90869996882975,Incorrect,sub_013_day_11_data.csv,0,300,130.0,Training at home,,,,,,,,,,,,,
13,14,3256,B,37.32866420588939,25.17855191543333,1.8664332102944696,0.3955037686277727,A,459.6134000457823,Incorrect,sub_013_day_11_data.csv,0,300,130.0,Training at home,,,,,,,,,,,,,
13,14,3257,B,50.47919724076649,37.16288853298904,2.5239598620383243,0.5837532880070737,B,412.734700134024,Correct,sub_013_day_11_data.csv,1,300,130.0,Training at home,,,,,,,,,,,,,
13,14,3258,A,25.80318893527354,54.27132330367126,1.290159446763677,0.8524919529570507,A,457.4378998950124,Correct,sub_013_day_11_data.csv,1,300,130.0,Training at home,,,,,,,,,,,,,
13,14,3259,A,46.89249185841616,59.905670387074395,2.3446245929208076,0.9409960699820228,A,707.1364000439644,Correct,sub_013_day_11_data.csv,1,300,130.0,Training at home,,,,,,,,,,,,,
13,14,3260,B,54.21729422525132,32.80312459337883,2.7108647112625657,0.515270276186748,B,396.2675998918712,Correct,sub_013_day_11_data.csv,1,300,130.0,Training at home,,,,,,,,,,,,,
13,14,3261,A,57.30252263205632,81.63382932400296,2.865126131602816,1.2823011924434535,A,556.1729001346976,Correct,sub_013_day_11_data.csv,1,300,130.0,Training at home,,,,,,,,,,,,,
13,14,3262,A,18.61405516500068,35.3338754634303,0.930702758250034,0.5550232178938463,A,519.312100019306,Correct,sub_013_day_11_data.csv,1,300,130.0,Training at home,,,,,,,,,,,,,
13,14,3263,A,32.58907578013471,46.4023810212818,1.6294537890067358,0.7288868966276667,A,404.32189987041056,Correct,sub_013_day_11_data.csv,1,300,130.0,Training at home,,,,,,,,,,,,,
13,14,3264,B,56.27155926213359,39.24106161904744,2.8135779631066793,0.6163971545073191,B,430.1467998884618,Correct,sub_013_day_11_data.csv,1,300,130.0,Training at home,,,,,,,,,,,,,
13,14,3265,A,19.465874363967128,41.872732935356666,0.9732937181983564,0.6577353508772193,A,408.0262000206858,Correct,sub_013_day_11_data.csv,1,300,130.0,Training at home,,,,,,,,,,,,,
13,14,3266,B,40.29588929223105,17.110729955828628,2.0147944646115525,0.2687747176339501,B,367.2335001174361,Correct,sub_013_day_11_data.csv,1,300,130.0,Training at home,,,,,,,,,,,,,
13,14,3267,A,23.363203385284933,38.92180150461694,1.1681601692642467,0.6113822283569236,A,367.7615001797676,Correct,sub_013_day_11_data.csv,1,300,130.0,Training at home,,,,,,,,,,,,,
13,14,3268,B,69.29795451427444,54.716015789568544,3.464897725713722,0.8594771661910583,B,438.1917999126017,Correct,sub_013_day_11_data.csv,1,300,130.0,Training at home,,,,,,,,,,,,,
13,14,3269,A,69.33043765793424,83.79421322469712,3.466521882896712,1.3162364234002255,B,399.9350001104176,Incorrect,sub_013_day_11_data.csv,0,300,130.0,Training at home,,,,,,,,,,,,,
13,14,3270,A,13.98005963602705,30.18154185157217,0.6990029818013526,0.47409055077456,A,488.177799852565,Correct,sub_013_day_11_data.csv,1,300,130.0,Training at home,,,,,,,,,,,,,
13,14,3271,A,29.321844480024183,38.834394246972934,1.4660922240012093,0.6100092383644995,B,500.3903000615537,Incorrect,sub_013_day_11_data.csv,0,300,130.0,Training at home,,,,,,,,,,,,,
13,14,3272,B,57.073693035703606,29.168198017829596,2.8536846517851804,0.4581729830563291,B,442.6591999363154,Correct,sub_013_day_11_data.csv,1,300,130.0,Training at home,,,,,,,,,,,,,
13,14,3273,B,38.148693164334766,25.155091239660955,1.9074346582167383,0.3951352491944991,B,520.2459001448005,Correct,sub_013_day_11_data.csv,1,300,130.0,Training at home,,,,,,,,,,,,,
13,14,3274,B,44.92911436588345,18.116475927703625,2.246455718294172,0.2845729384170501,B,420.9547999780625,Correct,sub_013_day_11_data.csv,1,300,130.0,Training at home,,,,,,,,,,,,,
13,14,3275,B,56.9573242491206,38.15873637120607,2.84786621245603,0.599396029270253,B,372.69450002349913,Correct,sub_013_day_11_data.csv,1,300,131.0,Training at home,,,,,,,,,,,,,
13,14,3276,A,42.759241411833145,59.0162469943738,2.1379620705916573,0.9270250399998272,B,366.41860008239746,Incorrect,sub_013_day_11_data.csv,0,300,131.0,Training at home,,,,,,,,,,,,,
13,14,3277,A,65.31641947571387,80.01310099971806,3.2658209737856936,1.256842851458262,A,3155.550900148228,Correct,sub_013_day_11_data.csv,1,300,131.0,Training at home,,,,,,,,,,,,,
13,14,3278,A,35.802098735275514,68.37818007625307,1.7901049367637756,1.074081940966983,A,544.0275000873953,Correct,sub_013_day_11_data.csv,1,300,131.0,Training at home,,,,,,,,,,,,,
13,14,3279,B,70.60208291122014,54.30497705224994,3.5301041455610065,0.8530205848035536,B,437.8460000734776,Correct,sub_013_day_11_data.csv,1,300,131.0,Training at home,,,,,,,,,,,,,
13,14,3280,B,54.74876342120517,37.04680498480558,2.7374381710602584,0.5819298518961947,B,435.64860010519624,Correct,sub_013_day_11_data.csv,1,300,131.0,Training at home,,,,,,,,,,,,,
13,14,3281,B,63.694171509471055,37.568665565306105,3.1847085754735525,0.5901272187256874,B,374.0737000480294,Correct,sub_013_day_11_data.csv,1,300,131.0,Training at home,,,,,,,,,,,,,
13,14,3282,A,24.815066814964048,40.40624302897498,1.2407533407482023,0.6346997812949579,A,359.3047000467777,Correct,sub_013_day_11_data.csv,1,300,131.0,Training at home,,,,,,,,,,,,,
13,14,3283,B,56.42026528889643,49.14837771434827,2.821013264444822,0.7720209118162641,B,382.3669000994414,Correct,sub_013_day_11_data.csv,1,300,131.0,Training at home,,,,,,,,,,,,,
13,14,3284,A,63.79463250627131,77.47865023041216,3.189731625313566,1.21703179186958,A,417.22889989614487,Correct,sub_013_day_11_data.csv,1,300,131.0,Training at home,,,,,,,,,,,,,
13,14,3285,B,59.97558224912274,27.83974061795198,2.9987791124561367,0.4373056230160165,B,435.3275001049042,Correct,sub_013_day_11_data.csv,1,300,131.0,Training at home,,,,,,,,,,,,,
13,14,3286,A,28.68041243008539,38.994899341109786,1.4340206215042697,0.6125304464875198,A,386.91719993948936,Correct,sub_013_day_11_data.csv,1,300,131.0,Training at home,,,,,,,,,,,,,
13,14,3287,A,30.46928855559686,59.514219855161976,1.523464427779843,0.9348471794055232,A,402.0013997796923,Correct,sub_013_day_11_data.csv,1,300,131.0,Training at home,,,,,,,,,,,,,
13,14,3288,A,38.93172194842521,71.34703554765862,1.9465860974212603,1.120716613659671,B,418.2138000614941,Incorrect,sub_013_day_11_data.csv,0,300,131.0,Training at home,,,,,,,,,,,,,
13,14,3289,B,67.17225743357373,55.04075323297904,3.358612871678687,0.864578130023878,A,448.3839999884367,Incorrect,sub_013_day_11_data.csv,0,300,131.0,Training at home,,,,,,,,,,,,,
13,14,3290,A,35.717108160414455,49.87802403243922,1.7858554080207227,0.783482169379431,A,678.0723999254405,Correct,sub_013_day_11_data.csv,1,300,131.0,Training at home,,,,,,,,,,,,,
13,14,3291,B,56.08017138775473,41.38567704976049,2.804008569387737,0.6500846949168363,B,451.9134000875056,Correct,sub_013_day_11_data.csv,1,300,131.0,Training at home,,,,,,,,,,,,,
13,14,3292,B,59.670689861921886,36.63010867588554,2.9835344930960948,0.5753844015817887,B,407.3021998628974,Correct,sub_013_day_11_data.csv,1,300,131.0,Training at home,,,,,,,,,,,,,
13,14,3293,B,78.84296923608778,56.44155413458516,3.9421484618043894,0.8865818591320168,B,382.4685998260975,Correct,sub_013_day_11_data.csv,1,300,131.0,Training at home,,,,,,,,,,,,,
13,14,3294,A,21.433925041058583,40.949892285739296,1.0716962520529292,0.6432394038508595,B,322.35089992173016,Incorrect,sub_013_day_11_data.csv,0,300,131.0,Training at home,,,,,,,,,,,,,
13,14,3295,A,54.447195063471625,73.52062765835058,2.7223597531735813,1.1548593186939238,A,417.7244999445975,Correct,sub_013_day_11_data.csv,1,300,131.0,Training at home,,,,,,,,,,,,,
13,14,3296,A,13.15607488032934,31.51480631024418,0.657803744016467,0.4950334199178418,A,447.42890004999936,Correct,sub_013_day_11_data.csv,1,300,131.0,Training at home,,,,,,,,,,,,,
13,14,3297,B,82.4713043170382,56.532626441683874,4.12356521585191,0.8880124195866508,B,419.9316999875009,Correct,sub_013_day_11_data.csv,1,300,131.0,Training at home,,,,,,,,,,,,,
13,14,3298,A,23.38026166200008,35.40566148817182,1.169013083100004,0.5561508301336383,A,388.04020010866225,Correct,sub_013_day_11_data.csv,1,300,131.0,Training at home,,,,,,,,,,,,,
13,14,3299,A,60.35355558162239,71.53576089606334,3.0176777790811196,1.123681104500143,A,489.3622000236064,Correct,sub_013_day_11_data.csv,1,300,131.0,Training at home,,,,,,,,,,,,,
