subject,day,trial,cat,x,y,xt,yt,resp,rt,fb,f_name,acc,n_trials,block,session_type,ns_left_digit,ns_right_digit,ns_left_size,ns_right_size,ns_congruent,ns_cue,ns_correct_side,ns_resp,ns_rt,ns_fb,acc_stroop,acc_stroop_mean,resp_key
13,7,1200,A,24.638026559128193,47.25853949753766,1.2319013279564095,0.7423354025242369,A,1131.5006000222638,Correct,sub_013_day_05_data.csv,1,300,48.0,Training at home,,,,,,,,,,,,,
13,7,1201,B,53.70679481143935,46.97110946975937,2.6853397405719677,0.73782046220579,B,625.2096999669448,Correct,sub_013_day_05_data.csv,1,300,48.0,Training at home,,,,,,,,,,,,,
13,7,1202,B,54.90225974808605,43.97949518333069,2.745112987404303,0.6908282948826968,B,433.759999985341,Correct,sub_013_day_05_data.csv,1,300,48.0,Training at home,,,,,,,,,,,,,
13,7,1203,B,82.19935113359706,66.52027824530154,4.1099675566798535,1.0448980872509412,B,590.2390000410378,Correct,sub_013_day_05_data.csv,1,300,48.0,Training at home,,,,,,,,,,,,,
13,7,1204,A,51.5143607449922,67.05062658745442,2.57571803724961,1.0532287795286963,B,855.6745999958366,Incorrect,sub_013_day_05_data.csv,0,300,48.0,Training at home,,,,,,,,,,,,,
13,7,1205,A,51.03798502250798,79.38621381647589,2.5518992511253993,1.246995730610746,A,718.6826000106521,Correct,sub_013_day_05_data.csv,1,300,48.0,Training at home,,,,,,,,,,,,,
13,7,1206,A,41.43394103619186,72.00808665107886,2.071697051809593,1.131100380110433,A,574.3951000040397,Correct,sub_013_day_05_data.csv,1,300,48.0,Training at home,,,,,,,,,,,,,
13,7,1207,B,68.60114809639676,47.14416029989441,3.430057404819838,0.7405387382890393,B,498.9104999694973,Correct,sub_013_day_05_data.csv,1,300,48.0,Training at home,,,,,,,,,,,,,
13,7,1208,A,67.26088612148611,79.33688010988564,3.363044306074306,1.2462207985597549,A,515.74039994739,Correct,sub_013_day_05_data.csv,1,300,48.0,Training at home,,,,,,,,,,,,,
13,7,1209,A,19.191779456534587,39.50165555655286,0.9595889728267294,0.6204905545055044,A,582.9018999938853,Correct,sub_013_day_05_data.csv,1,300,48.0,Training at home,,,,,,,,,,,,,
13,7,1210,B,52.60702621268555,34.68412013353836,2.6303513106342775,0.5448168850387497,B,585.7876999652945,Correct,sub_013_day_05_data.csv,1,300,48.0,Training at home,,,,,,,,,,,,,
13,7,1211,B,72.83411886727654,47.53423676016243,3.641705943363827,0.7466660449986211,B,525.0095999799669,Correct,sub_013_day_05_data.csv,1,300,48.0,Training at home,,,,,,,,,,,,,
13,7,1212,A,60.583680846031555,73.16728484417015,3.0291840423015777,1.149309022747784,A,470.9371000062674,Correct,sub_013_day_05_data.csv,1,300,48.0,Training at home,,,,,,,,,,,,,
13,7,1213,A,42.12887717814981,58.80951363637878,2.1064438589074905,0.9237776800061815,B,643.8899000058882,Incorrect,sub_013_day_05_data.csv,0,300,48.0,Training at home,,,,,,,,,,,,,
13,7,1214,A,12.998060426225884,31.775002882379138,0.6499030213112943,0.4991205781153839,A,552.1044000051916,Correct,sub_013_day_05_data.csv,1,300,48.0,Training at home,,,,,,,,,,,,,
13,7,1215,B,38.337732255546015,29.190990237199298,1.916886612777301,0.4585310024009834,A,829.2724000057206,Incorrect,sub_013_day_05_data.csv,0,300,48.0,Training at home,,,,,,,,,,,,,
13,7,1216,A,52.80129609335851,60.06289420275728,2.640064804667926,0.9434657359036164,B,1032.914399984293,Incorrect,sub_013_day_05_data.csv,0,300,48.0,Training at home,,,,,,,,,,,,,
13,7,1217,A,52.314951904384614,71.28503643635352,2.6157475952192306,1.1197427338966448,A,682.5304999947548,Correct,sub_013_day_05_data.csv,1,300,48.0,Training at home,,,,,,,,,,,,,
13,7,1218,A,29.82193157214124,45.31500367165263,1.4910965786070622,0.7118064131612921,A,461.95980004267767,Correct,sub_013_day_05_data.csv,1,300,48.0,Training at home,,,,,,,,,,,,,
13,7,1219,A,53.93598030573848,69.72850283739615,2.696799015286924,1.095292761298894,A,702.4625000194646,Correct,sub_013_day_05_data.csv,1,300,48.0,Training at home,,,,,,,,,,,,,
13,7,1220,B,41.74694684151615,31.656365392316335,2.0873473420758075,0.4972570247792758,B,423.48300002049655,Correct,sub_013_day_05_data.csv,1,300,48.0,Training at home,,,,,,,,,,,,,
13,7,1221,A,44.19253084561454,56.5908080123738,2.209626542280727,0.8889263335619197,A,1391.306400008034,Correct,sub_013_day_05_data.csv,1,300,48.0,Training at home,,,,,,,,,,,,,
13,7,1222,B,42.90352209016385,23.08041030696954,2.1451761045081925,0.3625462373110682,A,413.7124000117183,Incorrect,sub_013_day_05_data.csv,0,300,48.0,Training at home,,,,,,,,,,,,,
13,7,1223,A,59.82830599756551,79.6168976683901,2.9914152998782755,1.2506193040831233,A,1305.6978000095114,Correct,sub_013_day_05_data.csv,1,300,48.0,Training at home,,,,,,,,,,,,,
13,7,1224,B,56.57546616512779,39.093645231383455,2.8287733082563897,0.6140815433047996,B,492.95109999366105,Correct,sub_013_day_05_data.csv,1,300,48.0,Training at home,,,,,,,,,,,,,
13,7,1225,A,19.30999158451303,48.618251641104905,0.9654995792256514,0.7636937109303754,A,496.4737999835051,Correct,sub_013_day_05_data.csv,1,300,49.0,Training at home,,,,,,,,,,,,,
13,7,1226,B,61.721290271267534,37.039452619510726,3.086064513563377,0.5818143612122106,A,1180.927100009285,Incorrect,sub_013_day_05_data.csv,0,300,49.0,Training at home,,,,,,,,,,,,,
13,7,1227,A,23.446284770385635,38.80467557975898,1.1723142385192815,0.6095424186315302,A,724.414500000421,Correct,sub_013_day_05_data.csv,1,300,49.0,Training at home,,,,,,,,,,,,,
13,7,1228,A,25.518360383593137,35.68765074887213,1.2759180191796566,0.5605803070826748,A,941.9339000014588,Correct,sub_013_day_05_data.csv,1,300,49.0,Training at home,,,,,,,,,,,,,
13,7,1229,A,39.094176914425354,67.22530147102897,1.954708845721268,1.0559725661837185,B,940.2923000161536,Incorrect,sub_013_day_05_data.csv,0,300,49.0,Training at home,,,,,,,,,,,,,
13,7,1230,B,74.83637545127414,51.27333820083875,3.741818772563706,0.8053997130838996,B,754.4055000180379,Correct,sub_013_day_05_data.csv,1,300,49.0,Training at home,,,,,,,,,,,,,
13,7,1231,B,48.78780903260341,31.25821412279632,2.4393904516301705,0.4910028792625682,B,557.1576000074856,Correct,sub_013_day_05_data.csv,1,300,49.0,Training at home,,,,,,,,,,,,,
13,7,1232,A,55.763268478326985,74.01747256385947,2.788163423916349,1.162663740219525,A,677.2616999805905,Correct,sub_013_day_05_data.csv,1,300,49.0,Training at home,,,,,,,,,,,,,
13,7,1233,A,31.14235315383086,57.37190315292674,1.557117657691543,0.9011957473384988,A,809.4830000190996,Correct,sub_013_day_05_data.csv,1,300,49.0,Training at home,,,,,,,,,,,,,
13,7,1234,A,31.905882509216188,58.732949388432566,1.5952941254608095,0.9225750116118044,A,982.7473000041208,Correct,sub_013_day_05_data.csv,1,300,49.0,Training at home,,,,,,,,,,,,,
13,7,1235,B,70.28175683001052,42.82557755894116,3.514087841500526,0.6727025992245472,B,693.1104999966919,Correct,sub_013_day_05_data.csv,1,300,49.0,Training at home,,,,,,,,,,,,,
13,7,1236,A,23.65895518199042,38.96729512972938,1.182947759099521,0.6120968405491157,A,505.76140003977343,Correct,sub_013_day_05_data.csv,1,300,49.0,Training at home,,,,,,,,,,,,,
13,7,1237,B,32.93158626920614,11.236862570691947,1.6465793134603073,0.1765082245074196,B,706.0383000061847,Correct,sub_013_day_05_data.csv,1,300,49.0,Training at home,,,,,,,,,,,,,
13,7,1238,A,39.96369455499938,65.5215103270033,1.9981847277499691,1.0292094774771066,A,585.0143000134267,Correct,sub_013_day_05_data.csv,1,300,49.0,Training at home,,,,,,,,,,,,,
13,7,1239,B,70.01430725454136,55.86217854522825,3.500715362727068,0.8774810486560521,B,910.2915999828838,Correct,sub_013_day_05_data.csv,1,300,49.0,Training at home,,,,,,,,,,,,,
13,7,1240,A,46.62134740793004,63.70471254279554,2.331067370396502,1.00067128461748,A,701.123499951791,Correct,sub_013_day_05_data.csv,1,300,49.0,Training at home,,,,,,,,,,,,,
13,7,1241,B,33.66864967015671,17.625915174323147,1.6834324835078354,0.2768672281222523,B,783.9239000459202,Correct,sub_013_day_05_data.csv,1,300,49.0,Training at home,,,,,,,,,,,,,
13,7,1242,A,22.50037419356246,35.13712067341851,1.125018709678123,0.5519326008795481,A,587.7486999961548,Correct,sub_013_day_05_data.csv,1,300,49.0,Training at home,,,,,,,,,,,,,
13,7,1243,A,49.45433653224751,72.77814167995834,2.4727168266123756,1.1431963762183712,A,784.1619999962859,Correct,sub_013_day_05_data.csv,1,300,49.0,Training at home,,,,,,,,,,,,,
13,7,1244,A,56.06095514439969,75.36648069580438,2.8030477572199843,1.18385391040428,A,662.9994999966584,Correct,sub_013_day_05_data.csv,1,300,49.0,Training at home,,,,,,,,,,,,,
13,7,1245,B,35.442313328256645,21.79996497474178,1.7721156664128324,0.3424330490658179,B,747.9938000324182,Correct,sub_013_day_05_data.csv,1,300,49.0,Training at home,,,,,,,,,,,,,
13,7,1246,B,73.98589155862342,63.100495620749896,3.699294577931171,0.991180267400114,B,927.7601999929176,Correct,sub_013_day_05_data.csv,1,300,49.0,Training at home,,,,,,,,,,,,,
13,7,1247,B,57.224815957338855,32.67045136679337,2.8612407978669427,0.5131862500169033,B,537.69420000026,Correct,sub_013_day_05_data.csv,1,300,49.0,Training at home,,,,,,,,,,,,,
13,7,1248,A,45.90384874848969,58.59530089901515,2.2951924374244843,0.9204128341961472,A,1146.4073999668472,Correct,sub_013_day_05_data.csv,1,300,49.0,Training at home,,,,,,,,,,,,,
13,7,1249,A,48.67127724990121,69.92274893435642,2.4335638624950606,1.0983439718548882,B,618.6436000280082,Incorrect,sub_013_day_05_data.csv,0,300,49.0,Training at home,,,,,,,,,,,,,
13,7,1250,B,59.96172498673397,34.33628033258431,2.998086249336698,0.5393530302222328,B,561.952400021255,Correct,sub_013_day_05_data.csv,1,300,50.0,Training at home,,,,,,,,,,,,,
13,7,1251,B,78.43661961454725,55.59351527262382,3.9218309807273624,0.8732608958385348,B,541.2995999795385,Correct,sub_013_day_05_data.csv,1,300,50.0,Training at home,,,,,,,,,,,,,
13,7,1252,A,20.92022226843573,47.607996099115994,1.0460111134217862,0.7478246539855717,A,491.5828999946825,Correct,sub_013_day_05_data.csv,1,300,50.0,Training at home,,,,,,,,,,,,,
13,7,1253,A,64.58711901069555,81.92514323778713,3.2293559505347775,1.286877140700618,B,801.8585999961942,Incorrect,sub_013_day_05_data.csv,0,300,50.0,Training at home,,,,,,,,,,,,,
13,7,1254,A,13.976488323678073,41.322672733961454,0.6988244161839036,0.6490950254385428,A,536.5323000005446,Correct,sub_013_day_05_data.csv,1,300,50.0,Training at home,,,,,,,,,,,,,
13,7,1255,A,18.45299088122173,36.56738160952333,0.9226495440610863,0.574399087127465,A,551.8889000522904,Correct,sub_013_day_05_data.csv,1,300,50.0,Training at home,,,,,,,,,,,,,
13,7,1256,B,79.68724278539952,55.03902116127219,3.984362139269976,0.8645509227051293,B,610.5625000200234,Correct,sub_013_day_05_data.csv,1,300,50.0,Training at home,,,,,,,,,,,,,
13,7,1257,A,26.572167797689374,57.47814020317931,1.328608389884469,0.9028645150215612,A,694.6427000220865,Correct,sub_013_day_05_data.csv,1,300,50.0,Training at home,,,,,,,,,,,,,
13,7,1258,A,45.12089367187466,60.984602534347665,2.256044683593733,0.9579438965200006,B,1155.0817999523133,Incorrect,sub_013_day_05_data.csv,0,300,50.0,Training at home,,,,,,,,,,,,,
13,7,1259,A,53.46483597912744,72.96027222956563,2.673241798956372,1.146057276201574,A,671.8385000131093,Correct,sub_013_day_05_data.csv,1,300,50.0,Training at home,,,,,,,,,,,,,
13,7,1260,A,28.991136521917767,39.09600002568776,1.4495568260958884,0.614118532327235,A,649.6117999777198,Correct,sub_013_day_05_data.csv,1,300,50.0,Training at home,,,,,,,,,,,,,
13,7,1261,A,60.937829541810665,87.43630861739638,3.0468914770905333,1.373446324047112,B,512.3144999961369,Incorrect,sub_013_day_05_data.csv,0,300,50.0,Training at home,,,,,,,,,,,,,
13,7,1262,A,16.285562449001333,43.83429263699763,0.8142781224500666,0.6885474586184845,A,502.787499979604,Correct,sub_013_day_05_data.csv,1,300,50.0,Training at home,,,,,,,,,,,,,
13,7,1263,B,39.95712062778085,28.506406516275057,1.9978560313890423,0.4477775864588696,B,769.5845999987796,Correct,sub_013_day_05_data.csv,1,300,50.0,Training at home,,,,,,,,,,,,,
13,7,1264,A,48.29883046883669,71.38806221138915,2.414941523441834,1.1213610589865564,A,594.0367000293918,Correct,sub_013_day_05_data.csv,1,300,50.0,Training at home,,,,,,,,,,,,,
13,7,1265,B,56.77924731277087,26.74228840405888,2.838962365638543,0.4200668839518544,B,483.11850003665313,Correct,sub_013_day_05_data.csv,1,300,50.0,Training at home,,,,,,,,,,,,,
13,7,1266,A,50.89100427700742,77.64344212498119,2.544550213850371,1.219620336896326,A,526.9728000275791,Correct,sub_013_day_05_data.csv,1,300,50.0,Training at home,,,,,,,,,,,,,
13,7,1267,A,12.459076576022326,39.620323628313294,0.6229538288011163,0.6223545882177958,A,492.2467000433244,Correct,sub_013_day_05_data.csv,1,300,50.0,Training at home,,,,,,,,,,,,,
13,7,1268,B,39.46137661133709,16.173444635313217,1.9730688305668544,0.2540518742477063,B,468.1111000245437,Correct,sub_013_day_05_data.csv,1,300,50.0,Training at home,,,,,,,,,,,,,
13,7,1269,A,66.61385489248474,80.18642289585465,3.3306927446242365,1.2595653854363067,A,621.7983999522403,Correct,sub_013_day_05_data.csv,1,300,50.0,Training at home,,,,,,,,,,,,,
13,7,1270,B,80.82315152624629,51.7982637813258,4.041157576312314,0.813645224820597,B,480.2668999764137,Correct,sub_013_day_05_data.csv,1,300,50.0,Training at home,,,,,,,,,,,,,
13,7,1271,A,39.05805362700554,52.52820748970831,1.952902681350277,0.8251111537795397,A,611.5072999964468,Correct,sub_013_day_05_data.csv,1,300,50.0,Training at home,,,,,,,,,,,,,
13,7,1272,B,47.604969478361966,19.38781887972245,2.3802484739180985,0.3045431468083277,B,541.663600015454,Correct,sub_013_day_05_data.csv,1,300,50.0,Training at home,,,,,,,,,,,,,
13,7,1273,A,20.94016594345632,32.977838389507355,1.047008297172816,0.5180146740787388,A,503.8947999710217,Correct,sub_013_day_05_data.csv,1,300,50.0,Training at home,,,,,,,,,,,,,
13,7,1274,B,73.36885847939732,43.978338049304455,3.6684429239698657,0.6908101186639168,B,590.9188000368886,Correct,sub_013_day_05_data.csv,1,300,50.0,Training at home,,,,,,,,,,,,,
13,7,1275,B,38.33495781090953,13.142159175880916,1.916747890545477,0.2064365535962759,B,714.4974000402726,Correct,sub_013_day_05_data.csv,1,300,51.0,Training at home,,,,,,,,,,,,,
13,7,1276,B,66.55151172340362,40.30388250449099,3.3275755861701812,0.6330919059362755,B,537.2856999747455,Correct,sub_013_day_05_data.csv,1,300,51.0,Training at home,,,,,,,,,,,,,
13,7,1277,A,14.525461755312412,37.338274356282525,0.7262730877656207,0.5865082420770868,A,986.5690000005998,Correct,sub_013_day_05_data.csv,1,300,51.0,Training at home,,,,,,,,,,,,,
13,7,1278,B,67.26043656895168,53.69466290336915,3.3630218284475837,0.8434337925710245,B,1241.8646999867633,Correct,sub_013_day_05_data.csv,1,300,51.0,Training at home,,,,,,,,,,,,,
13,7,1279,B,66.28267910234617,46.00559476786005,3.314133955117308,0.7226541927336907,B,546.6628999565728,Correct,sub_013_day_05_data.csv,1,300,51.0,Training at home,,,,,,,,,,,,,
13,7,1280,B,49.34411095440929,40.83104925581992,2.4672055477204644,0.6413726219022342,B,425.6997999618761,Correct,sub_013_day_05_data.csv,1,300,51.0,Training at home,,,,,,,,,,,,,
13,7,1281,B,60.55806330036145,34.45945231707134,3.0279031650180723,0.5412878112301954,B,607.8007000032812,Correct,sub_013_day_05_data.csv,1,300,51.0,Training at home,,,,,,,,,,,,,
13,7,1282,A,37.3064761651704,68.64023198062047,1.86532380825852,1.0781982426550822,A,459.4288999796845,Correct,sub_013_day_05_data.csv,1,300,51.0,Training at home,,,,,,,,,,,,,
13,7,1283,A,48.443509813921025,56.88848358207308,2.422175490696051,0.8936022104765217,B,623.2648000004701,Incorrect,sub_013_day_05_data.csv,0,300,51.0,Training at home,,,,,,,,,,,,,
13,7,1284,B,73.638498533237,47.338618069942335,3.68192492666185,0.7435932737981193,B,348.27659995062277,Correct,sub_013_day_05_data.csv,1,300,51.0,Training at home,,,,,,,,,,,,,
13,7,1285,A,56.18356802070805,67.48065527223991,2.8091784010354024,1.0599836543134713,A,563.5730999638326,Correct,sub_013_day_05_data.csv,1,300,51.0,Training at home,,,,,,,,,,,,,
13,7,1286,B,49.02478393790565,33.49245507333482,2.4512391968952825,0.5260982540453744,B,465.97710001515225,Correct,sub_013_day_05_data.csv,1,300,51.0,Training at home,,,,,,,,,,,,,
13,7,1287,A,54.174230454505874,66.7619546632899,2.708711522725294,1.048694331547432,A,593.392800015863,Correct,sub_013_day_05_data.csv,1,300,51.0,Training at home,,,,,,,,,,,,,
13,7,1288,B,66.74243468938067,39.69653952224207,3.337121734469034,0.6235517846800628,B,420.81530002178624,Correct,sub_013_day_05_data.csv,1,300,51.0,Training at home,,,,,,,,,,,,,
13,7,1289,B,75.13610840599702,60.10100166753591,3.756805420299851,0.9440643265605936,B,895.1735000009649,Correct,sub_013_day_05_data.csv,1,300,51.0,Training at home,,,,,,,,,,,,,
13,7,1290,A,61.447338155237055,85.36165591717722,3.072366907761853,1.340857755638318,A,523.1681999866851,Correct,sub_013_day_05_data.csv,1,300,51.0,Training at home,,,,,,,,,,,,,
13,7,1291,A,65.41723299145954,76.1937249229584,3.2708616495729768,1.196848232338038,A,534.9190999986604,Correct,sub_013_day_05_data.csv,1,300,51.0,Training at home,,,,,,,,,,,,,
13,7,1292,A,28.183873545771032,43.80008299368065,1.4091936772885516,0.6880100947978518,A,524.2605999810621,Correct,sub_013_day_05_data.csv,1,300,51.0,Training at home,,,,,,,,,,,,,
13,7,1293,A,60.42537740118805,86.81559594014352,3.021268870059403,1.3636961921128736,B,504.79399994947016,Incorrect,sub_013_day_05_data.csv,0,300,51.0,Training at home,,,,,,,,,,,,,
13,7,1294,A,20.289853304314477,33.99821424474758,1.0144926652157238,0.5340427005323543,A,522.2743999911472,Correct,sub_013_day_05_data.csv,1,300,51.0,Training at home,,,,,,,,,,,,,
13,7,1295,B,52.44344184079605,44.45302150414416,2.6221720920398024,0.6982664289364421,A,738.0510999937542,Incorrect,sub_013_day_05_data.csv,0,300,51.0,Training at home,,,,,,,,,,,,,
13,7,1296,B,42.88203274552532,34.014628468329086,2.144101637276266,0.5343005345534445,A,551.7949999775738,Incorrect,sub_013_day_05_data.csv,0,300,51.0,Training at home,,,,,,,,,,,,,
13,7,1297,A,36.08720903537741,65.62598360749006,1.8043604517688707,1.0308505399294747,A,601.7744999844581,Correct,sub_013_day_05_data.csv,1,300,51.0,Training at home,,,,,,,,,,,,,
13,7,1298,B,58.23251832360266,39.958647628402154,2.9116259161801334,0.6276689691838572,B,474.4370999978855,Correct,sub_013_day_05_data.csv,1,300,51.0,Training at home,,,,,,,,,,,,,
13,7,1299,B,58.66476785036783,45.13574215008862,2.933238392518392,0.708990579765208,B,441.5385000174865,Correct,sub_013_day_05_data.csv,1,300,51.0,Training at home,,,,,,,,,,,,,
13,7,1300,B,47.98291713388627,36.85664785025251,2.3991458566943136,0.5789428706114966,B,537.8072999883443,Correct,sub_013_day_05_data.csv,1,300,52.0,Training at home,,,,,,,,,,,,,
13,7,1301,B,75.46245754240186,55.609816507606,3.7731228771200938,0.8735169550388571,B,481.41389997908846,Correct,sub_013_day_05_data.csv,1,300,52.0,Training at home,,,,,,,,,,,,,
13,7,1302,A,64.65999903450219,87.3689241266095,3.23299995172511,1.372387850941002,A,585.2964999503456,Correct,sub_013_day_05_data.csv,1,300,52.0,Training at home,,,,,,,,,,,,,
13,7,1303,B,37.30593484252721,13.238974555228667,1.8652967421263604,0.2079573260188429,B,529.7840000130236,Correct,sub_013_day_05_data.csv,1,300,52.0,Training at home,,,,,,,,,,,,,
13,7,1304,B,75.20047389009417,51.608700214221656,3.760023694504708,0.8106675672715837,B,685.1857000146993,Correct,sub_013_day_05_data.csv,1,300,52.0,Training at home,,,,,,,,,,,,,
13,7,1305,A,47.076563346783544,66.15526872267995,2.353828167339177,1.0391645310771498,B,763.0378999747336,Incorrect,sub_013_day_05_data.csv,0,300,52.0,Training at home,,,,,,,,,,,,,
13,7,1306,B,31.0800709963746,16.14306598398223,1.55400354981873,0.2535746875084692,B,697.8052000049502,Correct,sub_013_day_05_data.csv,1,300,52.0,Training at home,,,,,,,,,,,,,
13,7,1307,B,79.22012419222793,65.93250211997443,3.961006209611396,1.0356653214645255,B,752.0017999922857,Correct,sub_013_day_05_data.csv,1,300,52.0,Training at home,,,,,,,,,,,,,
13,7,1308,B,38.80795511097966,16.05589646269188,1.940397755548983,0.2522054318699558,B,564.2810999997891,Correct,sub_013_day_05_data.csv,1,300,52.0,Training at home,,,,,,,,,,,,,
13,7,1309,A,19.499777778432804,40.908415604454646,0.9749888889216402,0.6425878896647638,A,493.5965000186115,Correct,sub_013_day_05_data.csv,1,300,52.0,Training at home,,,,,,,,,,,,,
13,7,1310,A,23.6322044751475,34.91005496928388,1.1816102237573751,0.5483658611395904,A,449.57110000541434,Correct,sub_013_day_05_data.csv,1,300,52.0,Training at home,,,,,,,,,,,,,
13,7,1311,A,39.8865704701727,64.88790270101144,1.994328523508635,1.019256792161734,B,1951.4184999861752,Incorrect,sub_013_day_05_data.csv,0,300,52.0,Training at home,,,,,,,,,,,,,
13,7,1312,B,61.69401062356952,43.980883083861414,3.084700531178476,0.6908500959732531,B,810.6757000205107,Correct,sub_013_day_05_data.csv,1,300,52.0,Training at home,,,,,,,,,,,,,
13,7,1313,A,46.15217585985117,68.60916686081677,2.307608792992559,1.077710272894291,A,975.3052999731152,Correct,sub_013_day_05_data.csv,1,300,52.0,Training at home,,,,,,,,,,,,,
13,7,1314,A,30.66507823655133,53.23087889045982,1.5332539118275663,0.8361486903319827,A,507.156900013797,Correct,sub_013_day_05_data.csv,1,300,52.0,Training at home,,,,,,,,,,,,,
13,7,1315,A,59.373597078763986,80.63234223317205,2.9686798539381996,1.2665698700073569,A,970.6639000214636,Correct,sub_013_day_05_data.csv,1,300,52.0,Training at home,,,,,,,,,,,,,
13,7,1316,B,69.59306470154414,54.56578221950102,3.4796532350772065,0.8571173027908248,B,626.6127999988385,Correct,sub_013_day_05_data.csv,1,300,52.0,Training at home,,,,,,,,,,,,,
13,7,1317,B,61.06091275613527,39.22378336417827,3.0530456378067634,0.6161257483144998,B,537.3019000398926,Correct,sub_013_day_05_data.csv,1,300,52.0,Training at home,,,,,,,,,,,,,
13,7,1318,A,55.4171701582579,83.92156840815161,2.7708585079128953,1.3182369139439118,A,496.1376000428572,Correct,sub_013_day_05_data.csv,1,300,52.0,Training at home,,,,,,,,,,,,,
13,7,1319,A,39.18838912369282,49.93508478158511,1.959419456184641,0.7843784775310564,B,707.1247000130825,Incorrect,sub_013_day_05_data.csv,0,300,52.0,Training at home,,,,,,,,,,,,,
13,7,1320,B,68.0832715073998,36.32518072143893,3.40416357536999,0.5705946044739706,B,475.4979999852367,Correct,sub_013_day_05_data.csv,1,300,52.0,Training at home,,,,,,,,,,,,,
13,7,1321,A,25.718174751720177,53.69056112025677,1.2859087375860088,0.843369361912562,A,494.2473999690265,Correct,sub_013_day_05_data.csv,1,300,52.0,Training at home,,,,,,,,,,,,,
13,7,1322,B,39.61832823609895,22.88530737812424,1.9809164118049472,0.359481567671297,B,472.55930001847446,Correct,sub_013_day_05_data.csv,1,300,52.0,Training at home,,,,,,,,,,,,,
13,7,1323,A,52.26369211440438,67.96096742362458,2.613184605720219,1.067528379944571,A,494.0157000091858,Correct,sub_013_day_05_data.csv,1,300,52.0,Training at home,,,,,,,,,,,,,
13,7,1324,B,52.191826758712054,27.94002843302517,2.609591337935603,0.438880940331409,B,486.66830000001937,Correct,sub_013_day_05_data.csv,1,300,52.0,Training at home,,,,,,,,,,,,,
13,7,1325,B,75.79450022000543,56.70816989633484,3.789725011000272,0.8907698497242369,B,632.0962000172585,Correct,sub_013_day_05_data.csv,1,300,53.0,Training at home,,,,,,,,,,,,,
13,7,1326,A,12.67998464324905,33.77459162960429,0.6339992321624525,0.5305300447078007,A,432.4235999956727,Correct,sub_013_day_05_data.csv,1,300,53.0,Training at home,,,,,,,,,,,,,
13,7,1327,A,19.203905193071392,36.42115888623816,0.9601952596535696,0.572102225961162,A,525.0553000369109,Correct,sub_013_day_05_data.csv,1,300,53.0,Training at home,,,,,,,,,,,,,
13,7,1328,A,31.452409974491975,62.65098096109203,1.572620498724599,0.9841193076378036,A,491.40820000320673,Correct,sub_013_day_05_data.csv,1,300,53.0,Training at home,,,,,,,,,,,,,
13,7,1329,A,40.06793900565667,61.71709061122937,2.0033969502828337,0.969449792325869,A,519.1148000303656,Correct,sub_013_day_05_data.csv,1,300,53.0,Training at home,,,,,,,,,,,,,
13,7,1330,B,81.29405426286225,63.61484334064581,4.064702713143112,0.9992596224911924,A,883.2466999883763,Incorrect,sub_013_day_05_data.csv,0,300,53.0,Training at home,,,,,,,,,,,,,
13,7,1331,A,49.1276509352605,56.917601491691734,2.456382546763025,0.8940595935312511,A,809.7998999874108,Correct,sub_013_day_05_data.csv,1,300,53.0,Training at home,,,,,,,,,,,,,
13,7,1332,B,56.93363218523284,32.737795721804474,2.8466816092616423,0.5142440926717214,B,464.1980000305921,Correct,sub_013_day_05_data.csv,1,300,53.0,Training at home,,,,,,,,,,,,,
13,7,1333,A,36.400009060867575,51.81650025747355,1.8200004530433789,0.8139316827180626,B,715.8208999899216,Incorrect,sub_013_day_05_data.csv,0,300,53.0,Training at home,,,,,,,,,,,,,
13,7,1334,A,30.18399647921624,44.21336162421612,1.509199823960812,0.6945018603457312,A,851.2894000159577,Correct,sub_013_day_05_data.csv,1,300,53.0,Training at home,,,,,,,,,,,,,
13,7,1335,B,41.42459718885531,15.944891089409182,2.071229859442765,0.2504617635438862,A,486.9696999667213,Incorrect,sub_013_day_05_data.csv,0,300,53.0,Training at home,,,,,,,,,,,,,
13,7,1336,A,57.64300754233809,80.04589230535822,2.8821503771169046,1.2573579360827656,A,654.3989999918267,Correct,sub_013_day_05_data.csv,1,300,53.0,Training at home,,,,,,,,,,,,,
13,7,1337,B,65.87800293335998,51.04355737198268,3.2939001466679994,0.8017903242645497,B,686.5739000495523,Correct,sub_013_day_05_data.csv,1,300,53.0,Training at home,,,,,,,,,,,,,
13,7,1338,B,53.524439031328235,25.806485404804235,2.676221951566412,0.405367324813526,B,515.9315000055358,Correct,sub_013_day_05_data.csv,1,300,53.0,Training at home,,,,,,,,,,,,,
13,7,1339,B,75.73561272516598,60.61365623420266,3.786780636258299,0.9521170856629412,B,699.6164000011049,Correct,sub_013_day_05_data.csv,1,300,53.0,Training at home,,,,,,,,,,,,,
13,7,1340,B,60.0936477363215,46.15313849657099,3.004682386816075,0.7249718042046983,B,630.7822999660857,Correct,sub_013_day_05_data.csv,1,300,53.0,Training at home,,,,,,,,,,,,,
13,7,1341,A,30.73414820415841,43.46871131122853,1.5367074102079203,0.6828049205818555,A,552.442800020799,Correct,sub_013_day_05_data.csv,1,300,53.0,Training at home,,,,,,,,,,,,,
13,7,1342,A,29.14418084118109,59.940814581389226,1.4572090420590544,0.9415481136954016,A,536.093000031542,Correct,sub_013_day_05_data.csv,1,300,53.0,Training at home,,,,,,,,,,,,,
13,7,1343,B,66.33893414903535,50.67620786910326,3.316946707451768,0.7960200117668204,B,539.0800000168383,Correct,sub_013_day_05_data.csv,1,300,53.0,Training at home,,,,,,,,,,,,,
13,7,1344,B,58.70473825378144,38.29534466951502,2.935236912689072,0.6015418674021872,B,427.6745999814011,Correct,sub_013_day_05_data.csv,1,300,53.0,Training at home,,,,,,,,,,,,,
13,7,1345,A,18.06637847025994,33.65512784112699,0.903318923512997,0.5286535119065494,A,474.3688000016846,Correct,sub_013_day_05_data.csv,1,300,53.0,Training at home,,,,,,,,,,,,,
13,7,1346,A,54.02112843708933,69.51044219487383,2.7010564218544664,1.091867472735968,A,1284.135600028094,Correct,sub_013_day_05_data.csv,1,300,53.0,Training at home,,,,,,,,,,,,,
13,7,1347,B,49.91630081291867,39.86925311368271,2.4958150406459336,0.626264763430288,B,582.301800022833,Correct,sub_013_day_05_data.csv,1,300,53.0,Training at home,,,,,,,,,,,,,
13,7,1348,A,53.24210379813103,64.235199816427,2.6621051899065513,1.0090041592257974,A,682.8735000453889,Correct,sub_013_day_05_data.csv,1,300,53.0,Training at home,,,,,,,,,,,,,
13,7,1349,A,57.33859410744819,69.97452302112553,2.8669297053724097,1.0991572373080891,A,539.0751999802887,Correct,sub_013_day_05_data.csv,1,300,53.0,Training at home,,,,,,,,,,,,,
13,7,1350,B,40.08285714725294,18.79999355675867,2.0041428573626465,0.2953096082272424,B,397.92999997735023,Correct,sub_013_day_05_data.csv,1,300,54.0,Training at home,,,,,,,,,,,,,
13,7,1351,A,57.38554050654533,80.91459100095162,2.8692770253272664,1.271003423284062,A,476.6012000036426,Correct,sub_013_day_05_data.csv,1,300,54.0,Training at home,,,,,,,,,,,,,
13,7,1352,B,80.97993208913519,59.48265473127862,4.04899660445676,0.9343513555990154,B,540.7506999908946,Correct,sub_013_day_05_data.csv,1,300,54.0,Training at home,,,,,,,,,,,,,
13,7,1353,B,51.9511215327065,25.059952502108573,2.5975560766353247,0.3936408133996671,B,1718.648399983067,Correct,sub_013_day_05_data.csv,1,300,54.0,Training at home,,,,,,,,,,,,,
13,7,1354,B,85.47058446118601,67.09104901985441,4.273529223059301,1.053863733612037,A,577.4722000351176,Incorrect,sub_013_day_05_data.csv,0,300,54.0,Training at home,,,,,,,,,,,,,
13,7,1355,A,39.955824848515064,60.85573948947669,1.9977912424257531,0.9559197205445712,A,689.2052000039257,Correct,sub_013_day_05_data.csv,1,300,54.0,Training at home,,,,,,,,,,,,,
13,7,1356,B,85.19487873272617,57.1691989880533,4.259743936636308,0.8980116777624066,B,1153.9752999669872,Correct,sub_013_day_05_data.csv,1,300,54.0,Training at home,,,,,,,,,,,,,
13,7,1357,B,34.336142976290205,16.28809535021076,1.7168071488145102,0.2558528034659609,A,502.5770000065677,Incorrect,sub_013_day_05_data.csv,0,300,54.0,Training at home,,,,,,,,,,,,,
13,7,1358,B,37.80828540458664,13.479228609174918,1.890414270229332,0.2117312278732064,B,468.43049995368347,Correct,sub_013_day_05_data.csv,1,300,54.0,Training at home,,,,,,,,,,,,,
13,7,1359,B,84.43936294119376,61.074610818924555,4.2219681470596875,0.9593577433479452,B,630.1643999759108,Correct,sub_013_day_05_data.csv,1,300,54.0,Training at home,,,,,,,,,,,,,
13,7,1360,B,35.66762794817865,25.61763310458125,1.7833813974089323,0.4024008398185557,B,722.1086000208743,Correct,sub_013_day_05_data.csv,1,300,54.0,Training at home,,,,,,,,,,,,,
13,7,1361,B,56.29835665456815,41.7111683209927,2.8149178327284075,0.6551974998493898,B,585.9545000130311,Correct,sub_013_day_05_data.csv,1,300,54.0,Training at home,,,,,,,,,,,,,
13,7,1362,A,35.06332597913765,56.14206983037384,1.7531662989568826,0.8818775706821381,A,453.8059000042267,Correct,sub_013_day_05_data.csv,1,300,54.0,Training at home,,,,,,,,,,,,,
13,7,1363,B,32.85427416152862,18.49588948139489,1.6427137080764311,0.2905327525817945,A,947.921100014355,Incorrect,sub_013_day_05_data.csv,0,300,54.0,Training at home,,,,,,,,,,,,,
13,7,1364,B,86.90068882628476,64.12098462897067,4.345034441314238,1.0072100712565917,B,636.0200000344776,Correct,sub_013_day_05_data.csv,1,300,54.0,Training at home,,,,,,,,,,,,,
13,7,1365,A,40.64180907673537,51.6237132428905,2.0320904538367683,0.8109033913744546,A,589.2711000051349,Correct,sub_013_day_05_data.csv,1,300,54.0,Training at home,,,,,,,,,,,,,
13,7,1366,B,37.48679728051333,26.89076406476853,1.8743398640256663,0.4223991341764659,A,650.4983999766409,Incorrect,sub_013_day_05_data.csv,0,300,54.0,Training at home,,,,,,,,,,,,,
13,7,1367,A,18.100322583875396,36.430572821156424,0.9050161291937698,0.572250099705065,A,552.6446999865584,Correct,sub_013_day_05_data.csv,1,300,54.0,Training at home,,,,,,,,,,,,,
13,7,1368,B,75.18634765360815,56.15565457465979,3.759317382680408,0.8820909593463863,B,480.1343000144698,Correct,sub_013_day_05_data.csv,1,300,54.0,Training at home,,,,,,,,,,,,,
13,7,1369,A,50.44375629533944,79.33121109454291,2.522187814766972,1.2461317498749855,A,502.2468999959528,Correct,sub_013_day_05_data.csv,1,300,54.0,Training at home,,,,,,,,,,,,,
13,7,1370,A,16.719783512776303,41.11725735830159,0.8359891756388151,0.6458683682630059,A,503.5384999937378,Correct,sub_013_day_05_data.csv,1,300,54.0,Training at home,,,,,,,,,,,,,
13,7,1371,A,26.45033375118148,43.78590624264755,1.322516687559074,0.687787406913365,A,581.5112999989651,Correct,sub_013_day_05_data.csv,1,300,54.0,Training at home,,,,,,,,,,,,,
13,7,1372,B,81.09339757649664,65.74897896787938,4.054669878824832,1.0327825465325984,B,613.9957999694161,Correct,sub_013_day_05_data.csv,1,300,54.0,Training at home,,,,,,,,,,,,,
13,7,1373,A,48.33937366505977,75.45773210561136,2.4169686832529886,1.1852872841976765,A,490.38089998066425,Correct,sub_013_day_05_data.csv,1,300,54.0,Training at home,,,,,,,,,,,,,
13,7,1374,A,41.32680270116855,73.16825484413415,2.066340135058428,1.1493242594715882,A,445.90859999880195,Correct,sub_013_day_05_data.csv,1,300,54.0,Training at home,,,,,,,,,,,,,
13,7,1375,A,19.15499232118611,43.0057278332898,0.9577496160593058,0.6755323931167265,A,538.8585000182502,Correct,sub_013_day_05_data.csv,1,300,55.0,Training at home,,,,,,,,,,,,,
13,7,1376,B,52.299334959459955,42.4390609435527,2.6149667479729977,0.6666312104275733,B,447.3814999801107,Correct,sub_013_day_05_data.csv,1,300,55.0,Training at home,,,,,,,,,,,,,
13,7,1377,A,14.796851868530162,42.3081194981304,0.739842593426508,0.6645743870126278,A,445.36160002462566,Correct,sub_013_day_05_data.csv,1,300,55.0,Training at home,,,,,,,,,,,,,
13,7,1378,B,75.28246793166741,47.11153852146371,3.7641233965833703,0.7400263165917147,B,597.5863999919966,Correct,sub_013_day_05_data.csv,1,300,55.0,Training at home,,,,,,,,,,,,,
13,7,1379,B,42.406175287825945,21.834313261570884,2.120308764391297,0.3429725906936464,A,461.3626999780536,Incorrect,sub_013_day_05_data.csv,0,300,55.0,Training at home,,,,,,,,,,,,,
13,7,1380,A,52.02312956021408,61.335039380323416,2.601156478010704,0.9634485456243234,A,545.3814000356942,Correct,sub_013_day_05_data.csv,1,300,55.0,Training at home,,,,,,,,,,,,,
13,7,1381,B,71.38570292380018,45.190250714686975,3.5692851461900093,0.7098467982957075,B,514.9343999801204,Correct,sub_013_day_05_data.csv,1,300,55.0,Training at home,,,,,,,,,,,,,
13,7,1382,A,51.553112125244695,74.4589212153914,2.5776556062622347,1.169597999422474,A,960.7059999834746,Correct,sub_013_day_05_data.csv,1,300,55.0,Training at home,,,,,,,,,,,,,
13,7,1383,B,73.61181387805343,53.596534865223845,3.6805906939026714,0.8418924009522822,B,590.5137999798171,Correct,sub_013_day_05_data.csv,1,300,55.0,Training at home,,,,,,,,,,,,,
13,7,1384,B,81.91264551075777,61.56361998791847,4.095632275537889,0.967039081412192,B,434.26119996001944,Correct,sub_013_day_05_data.csv,1,300,55.0,Training at home,,,,,,,,,,,,,
13,7,1385,B,67.70499366929641,49.81771274672718,3.3852496834648207,0.7825348019188235,B,425.2811000333168,Correct,sub_013_day_05_data.csv,1,300,55.0,Training at home,,,,,,,,,,,,,
13,7,1386,A,42.4076704658748,70.52063983417688,2.12038352329374,1.107735620147509,A,452.2364999866113,Correct,sub_013_day_05_data.csv,1,300,55.0,Training at home,,,,,,,,,,,,,
13,7,1387,A,59.52508467267916,76.47918748497571,2.976254233633958,1.2013322677765803,A,491.9103000429459,Correct,sub_013_day_05_data.csv,1,300,55.0,Training at home,,,,,,,,,,,,,
13,7,1388,A,54.09298077877478,83.11197668033029,2.7046490389387388,1.305519876821259,A,538.6312000337057,Correct,sub_013_day_05_data.csv,1,300,55.0,Training at home,,,,,,,,,,,,,
13,7,1389,B,69.96825872767575,38.01518283814063,3.498412936383787,0.5971410956458769,B,457.3601000010967,Correct,sub_013_day_05_data.csv,1,300,55.0,Training at home,,,,,,,,,,,,,
13,7,1390,A,30.336169834345935,44.984575580042545,1.5168084917172968,0.7066160608355824,B,994.2898000008428,Incorrect,sub_013_day_05_data.csv,0,300,55.0,Training at home,,,,,,,,,,,,,
13,7,1391,A,52.06943775603687,78.04416757998251,2.6034718878018435,1.2259149176240187,A,653.664999990724,Correct,sub_013_day_05_data.csv,1,300,55.0,Training at home,,,,,,,,,,,,,
13,7,1392,A,37.60991297772328,65.00547406924218,1.8804956488861644,1.021103598895265,A,622.6474000141025,Correct,sub_013_day_05_data.csv,1,300,55.0,Training at home,,,,,,,,,,,,,
13,7,1393,A,17.00788540442306,38.55679645290958,0.8503942702211531,0.6056487424120887,A,485.5613000108861,Correct,sub_013_day_05_data.csv,1,300,55.0,Training at home,,,,,,,,,,,,,
13,7,1394,B,79.75465000477595,50.22555989024636,3.9877325002387978,0.7889412498681608,B,523.7409999826923,Correct,sub_013_day_05_data.csv,1,300,55.0,Training at home,,,,,,,,,,,,,
13,7,1395,B,85.64765064333127,60.56401151099054,4.282382532166564,0.9513372681742776,B,467.3557999776676,Correct,sub_013_day_05_data.csv,1,300,55.0,Training at home,,,,,,,,,,,,,
13,7,1396,B,57.013095307365575,48.55900531945919,2.8506547653682786,0.7627630718862033,B,525.636599981226,Correct,sub_013_day_05_data.csv,1,300,55.0,Training at home,,,,,,,,,,,,,
13,7,1397,A,37.31792265602277,47.697789070100306,1.8658961328011388,0.7492351186755133,A,558.6498000193387,Correct,sub_013_day_05_data.csv,1,300,55.0,Training at home,,,,,,,,,,,,,
13,7,1398,A,30.72302720225595,50.03026136775971,1.5361513601127974,0.7858735078506557,A,578.0155999818817,Correct,sub_013_day_05_data.csv,1,300,55.0,Training at home,,,,,,,,,,,,,
13,7,1399,B,71.92436466507331,60.45614896486292,3.5962182332536656,0.9496429672617176,B,468.99439999833703,Correct,sub_013_day_05_data.csv,1,300,55.0,Training at home,,,,,,,,,,,,,
13,7,1400,B,40.94605989632932,31.65948675402137,2.047302994816466,0.4973060550142845,A,677.4050000240095,Incorrect,sub_013_day_05_data.csv,0,300,56.0,Training at home,,,,,,,,,,,,,
13,7,1401,A,55.221066720301906,77.94452247551405,2.7610533360150953,1.2243496959831972,A,771.0072000045329,Correct,sub_013_day_05_data.csv,1,300,56.0,Training at home,,,,,,,,,,,,,
13,7,1402,B,54.57260709147179,47.75115165525367,2.7286303545735895,0.7500733362029851,B,485.532799968496,Correct,sub_013_day_05_data.csv,1,300,56.0,Training at home,,,,,,,,,,,,,
13,7,1403,B,55.92452506578929,27.479403128730404,2.796226253289465,0.431645454971259,B,508.5946999606677,Correct,sub_013_day_05_data.csv,1,300,56.0,Training at home,,,,,,,,,,,,,
13,7,1404,B,71.89033995996726,45.69358553740265,3.594516997998363,0.7177531632024048,B,559.539899986703,Correct,sub_013_day_05_data.csv,1,300,56.0,Training at home,,,,,,,,,,,,,
13,7,1405,B,69.55329811420197,52.79025281650722,3.4776649057100983,0.8292273521474347,B,472.0660999882966,Correct,sub_013_day_05_data.csv,1,300,56.0,Training at home,,,,,,,,,,,,,
13,7,1406,A,14.200655749993947,39.013503754918695,0.7100327874996976,0.6128226839362519,A,515.1186999864876,Correct,sub_013_day_05_data.csv,1,300,56.0,Training at home,,,,,,,,,,,,,
13,7,1407,B,46.84046842478298,32.13416853889934,2.342023421239149,0.504762339055112,B,591.6145999799483,Correct,sub_013_day_05_data.csv,1,300,56.0,Training at home,,,,,,,,,,,,,
13,7,1408,A,44.76397565795903,58.40070188911847,2.2381987828979515,0.9173560800967108,A,600.3046000259928,Correct,sub_013_day_05_data.csv,1,300,56.0,Training at home,,,,,,,,,,,,,
13,7,1409,A,53.99868171523629,64.82132872218307,2.6999340857618144,1.018211050547697,A,565.7463999814354,Correct,sub_013_day_05_data.csv,1,300,56.0,Training at home,,,,,,,,,,,,,
13,7,1410,A,53.55418363289629,81.80550968928458,2.6777091816448144,1.2849979413151251,B,580.2763000247069,Incorrect,sub_013_day_05_data.csv,0,300,56.0,Training at home,,,,,,,,,,,,,
13,7,1411,B,71.07780757039403,45.32784938310115,3.553890378519702,0.7120081931248761,B,540.7952999812551,Correct,sub_013_day_05_data.csv,1,300,56.0,Training at home,,,,,,,,,,,,,
13,7,1412,A,35.87507078092197,65.05046621785212,1.7937535390460988,1.021810333912976,A,550.0471999985166,Correct,sub_013_day_05_data.csv,1,300,56.0,Training at home,,,,,,,,,,,,,
13,7,1413,A,38.49307720954787,52.45542218172625,1.9246538604773935,0.8239678448353112,B,740.0087999994867,Incorrect,sub_013_day_05_data.csv,0,300,56.0,Training at home,,,,,,,,,,,,,
13,7,1414,A,24.919869737330608,53.83797145506294,1.2459934868665303,0.8456848780370135,A,485.92619999544695,Correct,sub_013_day_05_data.csv,1,300,56.0,Training at home,,,,,,,,,,,,,
13,7,1415,B,39.08686415401657,26.10830238502609,1.9543432077008285,0.4101082548524941,B,527.1826999960467,Correct,sub_013_day_05_data.csv,1,300,56.0,Training at home,,,,,,,,,,,,,
13,7,1416,A,46.15996550247324,63.95434912358895,2.307998275123662,1.004592566858919,A,614.7482999949716,Correct,sub_013_day_05_data.csv,1,300,56.0,Training at home,,,,,,,,,,,,,
13,7,1417,B,73.1008615798811,40.75211757500045,3.655043078994055,0.6401327659592444,B,547.7117000264116,Correct,sub_013_day_05_data.csv,1,300,56.0,Training at home,,,,,,,,,,,,,
13,7,1418,B,52.525647832734734,28.045636035143332,2.626282391636737,0.4405398206662974,B,606.3471999950707,Correct,sub_013_day_05_data.csv,1,300,56.0,Training at home,,,,,,,,,,,,,
13,7,1419,B,55.75225326283015,48.82569038620491,2.7876126631415077,0.7669521511187557,B,519.6334999636747,Correct,sub_013_day_05_data.csv,1,300,56.0,Training at home,,,,,,,,,,,,,
13,7,1420,A,13.27087440032408,32.17739818113091,0.6635437200162039,0.5054413886873722,A,483.74480003258213,Correct,sub_013_day_05_data.csv,1,300,56.0,Training at home,,,,,,,,,,,,,
13,7,1421,A,42.38311498633521,62.049686335727785,2.1191557493167603,0.9746741937493668,A,697.3124000360258,Correct,sub_013_day_05_data.csv,1,300,56.0,Training at home,,,,,,,,,,,,,
13,7,1422,B,64.14353509186304,55.02182077893094,3.207176754593152,0.8642807397311185,B,584.7744999919087,Correct,sub_013_day_05_data.csv,1,300,56.0,Training at home,,,,,,,,,,,,,
13,7,1423,B,40.03655851900119,24.1408891343894,2.0018279259500593,0.3792041997786169,A,435.600400029216,Incorrect,sub_013_day_05_data.csv,0,300,56.0,Training at home,,,,,,,,,,,,,
13,7,1424,A,30.279465646017204,40.689764371234766,1.5139732823008605,0.6391533241248543,A,623.1035999953747,Correct,sub_013_day_05_data.csv,1,300,56.0,Training at home,,,,,,,,,,,,,
13,7,1425,B,56.32630388740106,46.937553176457826,2.816315194370053,0.7372933611832008,B,487.63380001764745,Correct,sub_013_day_05_data.csv,1,300,57.0,Training at home,,,,,,,,,,,,,
13,7,1426,A,31.901320910475818,42.777915601025086,1.5950660455237908,0.6719539269403231,A,601.7909999936819,Correct,sub_013_day_05_data.csv,1,300,57.0,Training at home,,,,,,,,,,,,,
13,7,1427,A,39.602568248746266,67.49145306735248,1.980128412437313,1.0601532656824744,A,582.8816000139341,Correct,sub_013_day_05_data.csv,1,300,57.0,Training at home,,,,,,,,,,,,,
13,7,1428,A,63.07566280336776,75.380032818182,3.153783140168388,1.1840667866447905,A,723.591799964197,Correct,sub_013_day_05_data.csv,1,300,57.0,Training at home,,,,,,,,,,,,,
13,7,1429,A,23.16215637397085,48.730967478309296,1.1581078186985423,0.765464247160898,A,892.2181000234559,Correct,sub_013_day_05_data.csv,1,300,57.0,Training at home,,,,,,,,,,,,,
13,7,1430,B,50.02042394851622,32.95605581757134,2.501021197425811,0.5176725142388864,B,547.4753000307828,Correct,sub_013_day_05_data.csv,1,300,57.0,Training at home,,,,,,,,,,,,,
13,7,1431,B,40.43378108244586,21.155623988357917,2.021689054122293,0.3323117645196661,A,647.6235999725759,Incorrect,sub_013_day_05_data.csv,0,300,57.0,Training at home,,,,,,,,,,,,,
13,7,1432,B,57.11251805817906,48.3092129317047,2.855625902908953,0.7588393422347426,B,795.9647999959998,Correct,sub_013_day_05_data.csv,1,300,57.0,Training at home,,,,,,,,,,,,,
13,7,1433,B,54.00495535494775,42.63465678579939,2.700247767747387,0.669703622732948,B,550.9233999764547,Correct,sub_013_day_05_data.csv,1,300,57.0,Training at home,,,,,,,,,,,,,
13,7,1434,B,64.5330309470735,54.16539737362052,3.2266515473536748,0.8508280723386905,B,487.6650999649428,Correct,sub_013_day_05_data.csv,1,300,57.0,Training at home,,,,,,,,,,,,,
13,7,1435,B,65.60768047510928,40.37303565830582,3.280384023755464,0.6341781611362616,B,478.7705999915488,Correct,sub_013_day_05_data.csv,1,300,57.0,Training at home,,,,,,,,,,,,,
13,7,1436,B,36.06604264381926,14.689052146905771,1.803302132190963,0.2307350915645827,B,740.9551999880932,Correct,sub_013_day_05_data.csv,1,300,57.0,Training at home,,,,,,,,,,,,,
13,7,1437,B,62.03858050802344,54.2739797212481,3.101929025401172,0.8525336798667722,B,873.4598000301048,Correct,sub_013_day_05_data.csv,1,300,57.0,Training at home,,,,,,,,,,,,,
13,7,1438,B,60.15221559813309,32.796367100545034,3.0076107799066545,0.5151641297375312,B,551.2077000457793,Correct,sub_013_day_05_data.csv,1,300,57.0,Training at home,,,,,,,,,,,,,
13,7,1439,B,85.04751668655727,63.773843909043975,4.2523758343278635,1.0017571975791737,B,613.6618999880739,Correct,sub_013_day_05_data.csv,1,300,57.0,Training at home,,,,,,,,,,,,,
13,7,1440,B,63.101863731882915,54.871629688345074,3.155093186594146,0.8619215435970223,B,449.0471999743022,Correct,sub_013_day_05_data.csv,1,300,57.0,Training at home,,,,,,,,,,,,,
13,7,1441,A,56.86961356657935,71.53507179294296,2.8434806783289677,1.1236702800936402,A,765.7350999652408,Correct,sub_013_day_05_data.csv,1,300,57.0,Training at home,,,,,,,,,,,,,
13,7,1442,A,37.944220214420035,45.84026012891736,1.8972110107210016,0.7200571222982594,B,954.6563000185416,Incorrect,sub_013_day_05_data.csv,0,300,57.0,Training at home,,,,,,,,,,,,,
13,7,1443,A,37.718432695336375,50.705370685080226,1.8859216347668188,0.7964781002089765,A,639.9838000070304,Correct,sub_013_day_05_data.csv,1,300,57.0,Training at home,,,,,,,,,,,,,
13,7,1444,B,60.637619079677435,45.98127225959709,3.031880953983872,0.722272135667312,B,472.11849997984245,Correct,sub_013_day_05_data.csv,1,300,57.0,Training at home,,,,,,,,,,,,,
13,7,1445,B,70.33554205471616,55.88336611600915,3.5167771027358077,0.8778138622396157,B,540.9668000065722,Correct,sub_013_day_05_data.csv,1,300,57.0,Training at home,,,,,,,,,,,,,
13,7,1446,B,76.83313825597841,45.24203460448826,3.84165691279892,0.7106602177345775,B,450.3204999491573,Correct,sub_013_day_05_data.csv,1,300,57.0,Training at home,,,,,,,,,,,,,
13,7,1447,A,57.95014037304843,66.73429180070801,2.8975070186524214,1.0482598043181093,B,627.2704000002705,Incorrect,sub_013_day_05_data.csv,0,300,57.0,Training at home,,,,,,,,,,,,,
13,7,1448,B,62.3436368386642,39.12085399260842,3.1171818419332102,0.6145089375266877,B,487.9488000296987,Correct,sub_013_day_05_data.csv,1,300,57.0,Training at home,,,,,,,,,,,,,
13,7,1449,A,37.6583571921893,45.41652281379651,1.882917859609465,0.7134010721170818,A,619.767599971965,Correct,sub_013_day_05_data.csv,1,300,57.0,Training at home,,,,,,,,,,,,,
13,7,1450,A,31.144041598704977,51.33311243769913,1.5572020799352488,0.8063386446008721,A,524.7680000029504,Correct,sub_013_day_05_data.csv,1,300,58.0,Training at home,,,,,,,,,,,,,
13,7,1451,B,83.02558109908739,58.32480069907851,4.15127905495437,0.9161638269915694,B,515.6664000242017,Correct,sub_013_day_05_data.csv,1,300,58.0,Training at home,,,,,,,,,,,,,
13,7,1452,A,51.26780840651353,74.53553168309406,2.5633904203256765,1.170801393835088,A,496.0445000324398,Correct,sub_013_day_05_data.csv,1,300,58.0,Training at home,,,,,,,,,,,,,
13,7,1453,A,57.16470623647456,77.6088939188436,2.858235311823728,1.2190776549433433,A,550.4217999987304,Correct,sub_013_day_05_data.csv,1,300,58.0,Training at home,,,,,,,,,,,,,
13,7,1454,A,17.748892265688326,40.48671366885961,0.8874446132844163,0.635963811150414,A,477.3013999802061,Correct,sub_013_day_05_data.csv,1,300,58.0,Training at home,,,,,,,,,,,,,
13,7,1455,B,72.4967711452718,41.38042121446915,3.6248385572635895,0.6500021364491376,B,452.4636000278406,Correct,sub_013_day_05_data.csv,1,300,58.0,Training at home,,,,,,,,,,,,,
13,7,1456,B,40.6680124600511,26.978551647033136,2.033400623002555,0.4237780982940606,B,480.1852999953553,Correct,sub_013_day_05_data.csv,1,300,58.0,Training at home,,,,,,,,,,,,,
13,7,1457,B,69.07432919258527,52.55496129018085,3.453716459629263,0.8255314014946405,A,781.780700024683,Incorrect,sub_013_day_05_data.csv,0,300,58.0,Training at home,,,,,,,,,,,,,
13,7,1458,B,57.220888920108194,41.30847138455318,2.86104444600541,0.6488719511636823,B,421.4619999984279,Correct,sub_013_day_05_data.csv,1,300,58.0,Training at home,,,,,,,,,,,,,
13,7,1459,A,34.67854468501414,46.89004036937897,1.733927234250707,0.736547031754849,A,582.5495999888517,Correct,sub_013_day_05_data.csv,1,300,58.0,Training at home,,,,,,,,,,,,,
13,7,1460,A,11.533284816199483,35.24580485660159,0.5766642408099741,0.553639808036795,A,478.7785999942571,Correct,sub_013_day_05_data.csv,1,300,58.0,Training at home,,,,,,,,,,,,,
13,7,1461,B,57.55119646343546,40.28962244507199,2.877559823171773,0.632867909446723,B,465.1249999878928,Correct,sub_013_day_05_data.csv,1,300,58.0,Training at home,,,,,,,,,,,,,
13,7,1462,B,83.26182269859521,63.540102582390034,4.16309113492976,0.998085597405892,A,463.081499969121,Incorrect,sub_013_day_05_data.csv,0,300,58.0,Training at home,,,,,,,,,,,,,
13,7,1463,A,24.66807278307666,37.74823813728605,1.233403639153833,0.5929479380902795,A,604.0541999973357,Correct,sub_013_day_05_data.csv,1,300,58.0,Training at home,,,,,,,,,,,,,
13,7,1464,A,62.06631397665947,82.00957132130462,3.1033156988329735,1.288203333935294,A,657.3276999988593,Correct,sub_013_day_05_data.csv,1,300,58.0,Training at home,,,,,,,,,,,,,
13,7,1465,B,46.06060433148343,28.44229909038798,2.3030302165741716,0.4467705893678326,B,1114.504199998919,Correct,sub_013_day_05_data.csv,1,300,58.0,Training at home,,,,,,,,,,,,,
13,7,1466,A,50.05430276772563,81.17374318300136,2.5027151383862813,1.2750741762405082,A,606.1047000112012,Correct,sub_013_day_05_data.csv,1,300,58.0,Training at home,,,,,,,,,,,,,
13,7,1467,A,65.28298422678297,75.72047041102209,3.2641492113391486,1.1894143678481517,B,1248.168500023894,Incorrect,sub_013_day_05_data.csv,0,300,58.0,Training at home,,,,,,,,,,,,,
13,7,1468,B,74.82331605490506,50.991657322929875,3.741165802745253,0.8009750802004234,B,712.9567000083625,Correct,sub_013_day_05_data.csv,1,300,58.0,Training at home,,,,,,,,,,,,,
13,7,1469,B,48.62104201785077,39.524954151260246,2.431052100892538,0.620856527975363,B,622.6076000020839,Correct,sub_013_day_05_data.csv,1,300,58.0,Training at home,,,,,,,,,,,,,
13,7,1470,B,52.08701398141141,32.931067967699164,2.6043506990705705,0.5172800060109493,B,514.2788999946788,Correct,sub_013_day_05_data.csv,1,300,58.0,Training at home,,,,,,,,,,,,,
13,7,1471,B,87.77442784973292,62.50677765362608,4.388721392486645,0.9818541673810116,A,561.5293000009842,Incorrect,sub_013_day_05_data.csv,0,300,58.0,Training at home,,,,,,,,,,,,,
13,7,1472,B,77.10627185002338,59.06627540131781,3.8553135925011697,0.9278108843784578,B,585.5285000288859,Correct,sub_013_day_05_data.csv,1,300,58.0,Training at home,,,,,,,,,,,,,
13,7,1473,A,48.117826242358795,75.40284361608329,2.40589131211794,1.1844250978203363,A,479.31949998019263,Correct,sub_013_day_05_data.csv,1,300,58.0,Training at home,,,,,,,,,,,,,
13,7,1474,A,33.131885362442326,46.84124883281037,1.6565942681221162,0.7357806160906427,A,537.5798000022769,Correct,sub_013_day_05_data.csv,1,300,58.0,Training at home,,,,,,,,,,,,,
13,7,1475,B,50.808421272772144,37.50870298393815,2.540421063638607,0.5891853287001083,A,783.1386000034399,Incorrect,sub_013_day_05_data.csv,0,300,59.0,Training at home,,,,,,,,,,,,,
13,7,1476,A,40.76525835016756,53.652367012242706,2.0382629175083777,0.8427694102668252,A,698.6344000324607,Correct,sub_013_day_05_data.csv,1,300,59.0,Training at home,,,,,,,,,,,,,
13,7,1477,B,80.35793119023592,49.289810580450606,4.017896559511796,0.7742425340818804,B,1017.3192999791354,Correct,sub_013_day_05_data.csv,1,300,59.0,Training at home,,,,,,,,,,,,,
13,7,1478,A,52.75883396070584,76.06066164918073,2.637941698035292,1.1947580793212256,A,1401.1331999790857,Correct,sub_013_day_05_data.csv,1,300,59.0,Training at home,,,,,,,,,,,,,
13,7,1479,B,56.09939851043914,30.664077098931685,2.804969925521957,0.4816701967155739,B,683.6987999849953,Correct,sub_013_day_05_data.csv,1,300,59.0,Training at home,,,,,,,,,,,,,
13,7,1480,B,74.62433272138102,43.45417853426597,3.731216636069051,0.6825766402551462,B,637.8488999907859,Correct,sub_013_day_05_data.csv,1,300,59.0,Training at home,,,,,,,,,,,,,
13,7,1481,A,27.416677007024553,57.78718102517778,1.3708338503512278,0.90771891690181,A,541.2320000468753,Correct,sub_013_day_05_data.csv,1,300,59.0,Training at home,,,,,,,,,,,,,
13,7,1482,B,55.87637850967876,32.212036481843484,2.7938189254839383,0.5059854858426295,B,483.040000020992,Correct,sub_013_day_05_data.csv,1,300,59.0,Training at home,,,,,,,,,,,,,
13,7,1483,A,26.903896695532524,50.084331919944326,1.3451948347766265,0.7867228460982493,A,473.99279999081045,Correct,sub_013_day_05_data.csv,1,300,59.0,Training at home,,,,,,,,,,,,,
13,7,1484,A,31.696209107726936,54.4567951832427,1.584810455386347,0.8554053384285965,A,765.9432999789715,Correct,sub_013_day_05_data.csv,1,300,59.0,Training at home,,,,,,,,,,,,,
13,7,1485,A,43.43033825096505,60.18917559513222,2.1715169125482525,0.9454493593764672,A,694.1127000027336,Correct,sub_013_day_05_data.csv,1,300,59.0,Training at home,,,,,,,,,,,,,
13,7,1486,B,71.85282300865921,46.63140986370683,3.592641150432961,0.7324844732717801,B,518.7291000038385,Correct,sub_013_day_05_data.csv,1,300,59.0,Training at home,,,,,,,,,,,,,
13,7,1487,B,63.1171025749771,50.4055950855244,3.155855128748855,0.7917692361025261,B,497.02110001817346,Correct,sub_013_day_05_data.csv,1,300,59.0,Training at home,,,,,,,,,,,,,
13,7,1488,B,48.358109187153744,35.11176085754553,2.417905459357687,0.5515342498233333,B,560.5801999918185,Correct,sub_013_day_05_data.csv,1,300,59.0,Training at home,,,,,,,,,,,,,
13,7,1489,A,55.099629419606195,75.88686399978334,2.7549814709803098,1.1920280722284355,A,480.0892000203021,Correct,sub_013_day_05_data.csv,1,300,59.0,Training at home,,,,,,,,,,,,,
13,7,1490,B,31.410378295820394,10.75548616929676,1.57051891479102,0.1689467816762466,B,487.5807000207715,Correct,sub_013_day_05_data.csv,1,300,59.0,Training at home,,,,,,,,,,,,,
13,7,1491,A,65.8392707895781,80.52557227102662,3.291963539478905,1.264892731363856,A,623.0093999765813,Correct,sub_013_day_05_data.csv,1,300,59.0,Training at home,,,,,,,,,,,,,
13,7,1492,B,50.296273891922304,42.30681636930757,2.5148136945961155,0.6645539175129453,B,609.8937999922782,Correct,sub_013_day_05_data.csv,1,300,59.0,Training at home,,,,,,,,,,,,,
13,7,1493,B,41.2456237127531,28.388229186899668,2.062281185637655,0.4459212613099367,B,464.9580999976024,Correct,sub_013_day_05_data.csv,1,300,59.0,Training at home,,,,,,,,,,,,,
13,7,1494,B,54.88766866808882,26.53863438891974,2.7443834334044412,0.4168678941626785,B,472.8801000164822,Correct,sub_013_day_05_data.csv,1,300,59.0,Training at home,,,,,,,,,,,,,
13,7,1495,A,43.482031048715065,60.28291497411928,2.1741015524357534,0.9469218140983562,B,650.4876000108197,Incorrect,sub_013_day_05_data.csv,0,300,59.0,Training at home,,,,,,,,,,,,,
13,7,1496,A,13.514900563662394,31.509293091751516,0.6757450281831197,0.4949468184842709,A,517.3877000343055,Correct,sub_013_day_05_data.csv,1,300,59.0,Training at home,,,,,,,,,,,,,
13,7,1497,B,36.0834758400782,22.15564681343058,1.80417379200391,0.3480200863230181,B,552.5122999679297,Correct,sub_013_day_05_data.csv,1,300,59.0,Training at home,,,,,,,,,,,,,
13,7,1498,B,83.27312178668697,64.26790954994185,4.163656089334348,1.0095179625183532,B,640.6884999596514,Correct,sub_013_day_05_data.csv,1,300,59.0,Training at home,,,,,,,,,,,,,
13,7,1499,A,63.53512124993046,76.77862338013855,3.176756062496523,1.206035795818904,A,613.3290999568999,Correct,sub_013_day_05_data.csv,1,300,59.0,Training at home,,,,,,,,,,,,,
