subject,day,trial,cat,x,y,xt,yt,resp,rt,fb,f_name,acc,n_trials,block,session_type,ns_left_digit,ns_right_digit,ns_left_size,ns_right_size,ns_congruent,ns_cue,ns_correct_side,ns_resp,ns_rt,ns_fb,acc_stroop,acc_stroop_mean,resp_key
13,15,3300,A,32.61977960934813,62.47827692694684,1.6309889804674065,0.9814064790132244,A,528.9350999519229,Correct,sub_013_day_12_data.csv,1,300,132.0,Training at home,,,,,,,,,,,,,
13,15,3301,B,63.86013812115564,41.04191281951753,3.1930069060577817,0.6446848590153451,B,382.620400050655,Correct,sub_013_day_12_data.csv,1,300,132.0,Training at home,,,,,,,,,,,,,
13,15,3302,B,34.90878526750109,14.685004932995408,1.7454392633750544,0.2306715180771412,B,362.538899993524,Correct,sub_013_day_12_data.csv,1,300,132.0,Training at home,,,,,,,,,,,,,
13,15,3303,B,88.2041240934721,64.84295990822505,4.410206204673605,1.0185508324234864,B,353.66469994187355,Correct,sub_013_day_12_data.csv,1,300,132.0,Training at home,,,,,,,,,,,,,
13,15,3304,A,40.2328759116888,63.42144786760714,2.01164379558444,0.9962217735045132,B,299.6533999685198,Incorrect,sub_013_day_12_data.csv,0,300,132.0,Training at home,,,,,,,,,,,,,
13,15,3305,B,74.51801898356773,56.4392031706124,3.725900949178387,0.8865449302762884,B,352.0286998245865,Correct,sub_013_day_12_data.csv,1,300,132.0,Training at home,,,,,,,,,,,,,
13,15,3306,B,44.857942597738955,16.986049441262733,2.2428971298869476,0.2668162406909201,A,444.5412000641227,Incorrect,sub_013_day_12_data.csv,0,300,132.0,Training at home,,,,,,,,,,,,,
13,15,3307,A,49.75924907470498,79.80660588052942,2.4879624537352494,1.253599233711036,A,421.69190011918545,Correct,sub_013_day_12_data.csv,1,300,132.0,Training at home,,,,,,,,,,,,,
13,15,3308,A,67.2855680454038,84.9536167688297,3.36427840227019,1.33444829168419,B,490.58350012637675,Incorrect,sub_013_day_12_data.csv,0,300,132.0,Training at home,,,,,,,,,,,,,
13,15,3309,B,74.83348526930405,60.09777560967391,3.7416742634652023,0.9440136517621972,A,511.6969000082463,Incorrect,sub_013_day_12_data.csv,0,300,132.0,Training at home,,,,,,,,,,,,,
13,15,3310,A,50.47811757857107,68.84077437393071,2.5239058789285536,1.0813483552028662,A,443.6184000223875,Correct,sub_013_day_12_data.csv,1,300,132.0,Training at home,,,,,,,,,,,,,
13,15,3311,A,28.96356336552391,57.00184799672368,1.4481781682761956,0.8953829345377459,A,369.9668999761343,Correct,sub_013_day_12_data.csv,1,300,132.0,Training at home,,,,,,,,,,,,,
13,15,3312,B,43.313917950628536,17.46346494763992,2.165695897531427,0.2743154659286422,B,462.7416001167149,Correct,sub_013_day_12_data.csv,1,300,132.0,Training at home,,,,,,,,,,,,,
13,15,3313,A,39.294118006535314,47.9868651768444,1.9647059003267655,0.7537759155418913,B,379.72280010581017,Incorrect,sub_013_day_12_data.csv,0,300,132.0,Training at home,,,,,,,,,,,,,
13,15,3314,A,33.06361409996264,47.40389635584697,1.6531807049981322,0.744618662715304,A,439.924499951303,Correct,sub_013_day_12_data.csv,1,300,132.0,Training at home,,,,,,,,,,,,,
13,15,3315,B,58.69135241739101,48.21120598203525,2.9345676208695504,0.7572998526693313,B,387.13440019637346,Correct,sub_013_day_12_data.csv,1,300,132.0,Training at home,,,,,,,,,,,,,
13,15,3316,B,81.75118720397253,63.425026527086104,4.087559360198627,0.9962779869561572,B,446.405699942261,Correct,sub_013_day_12_data.csv,1,300,132.0,Training at home,,,,,,,,,,,,,
13,15,3317,B,83.12141403262625,67.2511882315074,4.156070701631313,1.05637919446644,B,347.618900006637,Correct,sub_013_day_12_data.csv,1,300,132.0,Training at home,,,,,,,,,,,,,
13,15,3318,B,45.88627944226321,29.838928910234195,2.2943139721131605,0.4687087992768992,B,493.0356000550091,Correct,sub_013_day_12_data.csv,1,300,132.0,Training at home,,,,,,,,,,,,,
13,15,3319,A,38.087576215482216,70.70385688912334,1.9043788107741109,1.1106135869166698,A,411.04290005750954,Correct,sub_013_day_12_data.csv,1,300,132.0,Training at home,,,,,,,,,,,,,
13,15,3320,A,45.35326421966283,58.63797681864534,2.267663210983142,0.921083185974124,A,498.9102000836283,Correct,sub_013_day_12_data.csv,1,300,132.0,Training at home,,,,,,,,,,,,,
13,15,3321,B,63.094078255037715,29.999111436051912,3.154703912751886,0.4712249405086112,B,405.44370003044605,Correct,sub_013_day_12_data.csv,1,300,132.0,Training at home,,,,,,,,,,,,,
13,15,3322,A,57.00829339001446,68.47131869677867,2.850414669500722,1.0755449589970263,A,373.8492999691516,Correct,sub_013_day_12_data.csv,1,300,132.0,Training at home,,,,,,,,,,,,,
13,15,3323,A,65.42882736327346,89.35887837461577,3.2714413681636727,1.4036459791735836,A,396.69959992170334,Correct,sub_013_day_12_data.csv,1,300,132.0,Training at home,,,,,,,,,,,,,
13,15,3324,B,62.19257127913658,31.486783001175287,3.1096285639568286,0.4945932308083413,B,442.3702999483794,Correct,sub_013_day_12_data.csv,1,300,132.0,Training at home,,,,,,,,,,,,,
13,15,3325,A,29.325962608512263,59.13272795877328,1.4662981304256133,0.9288547187100296,A,373.407400213182,Correct,sub_013_day_12_data.csv,1,300,133.0,Training at home,,,,,,,,,,,,,
13,15,3326,A,26.123706303563253,41.33237058311557,1.3061853151781628,0.6492473588968337,A,438.2978000212461,Correct,sub_013_day_12_data.csv,1,300,133.0,Training at home,,,,,,,,,,,,,
13,15,3327,B,56.12850940308805,35.42184460456249,2.8064254701544025,0.5564050339314638,B,442.3960999120027,Correct,sub_013_day_12_data.csv,1,300,133.0,Training at home,,,,,,,,,,,,,
13,15,3328,B,49.09372840120837,31.062525185909344,2.454686420060418,0.4879290046300036,B,494.3208999466151,Correct,sub_013_day_12_data.csv,1,300,133.0,Training at home,,,,,,,,,,,,,
13,15,3329,B,84.78089034460957,58.43053372564047,4.239044517230479,0.9178246774890138,B,463.8041998259723,Correct,sub_013_day_12_data.csv,1,300,133.0,Training at home,,,,,,,,,,,,,
13,15,3330,A,48.65761886478411,65.19863707969263,2.432880943239206,1.0241377963681473,A,414.8184000514448,Correct,sub_013_day_12_data.csv,1,300,133.0,Training at home,,,,,,,,,,,,,
13,15,3331,A,31.898371820236136,49.42407940906923,1.5949185910118069,0.7763516239098521,B,365.7074000220746,Incorrect,sub_013_day_12_data.csv,0,300,133.0,Training at home,,,,,,,,,,,,,
13,15,3332,A,44.03936385494824,72.41474948859943,2.201968192747412,1.137488225024646,A,448.86540016159415,Correct,sub_013_day_12_data.csv,1,300,133.0,Training at home,,,,,,,,,,,,,
13,15,3333,A,26.951340165385375,44.99318942270064,1.3475670082692688,0.7067513667596514,A,441.9066000264138,Correct,sub_013_day_12_data.csv,1,300,133.0,Training at home,,,,,,,,,,,,,
13,15,3334,B,78.48958790390785,60.40933974293176,3.924479395195392,0.948907689723022,B,498.6866000108421,Correct,sub_013_day_12_data.csv,1,300,133.0,Training at home,,,,,,,,,,,,,
13,15,3335,B,45.748326129111575,31.34508991001976,2.2874163064555786,0.4923675209371481,B,505.3735999390483,Correct,sub_013_day_12_data.csv,1,300,133.0,Training at home,,,,,,,,,,,,,
13,15,3336,B,45.43582717192217,29.93085705200552,2.2717913585961087,0.470152803151134,A,726.5155999921262,Incorrect,sub_013_day_12_data.csv,0,300,133.0,Training at home,,,,,,,,,,,,,
13,15,3337,B,50.964198416906314,31.374211957357073,2.5482099208453155,0.49282496898701,B,447.0756000373513,Correct,sub_013_day_12_data.csv,1,300,133.0,Training at home,,,,,,,,,,,,,
13,15,3338,A,27.918186855202908,53.59618237894725,1.3959093427601454,0.841886864110797,B,406.56820009462535,Incorrect,sub_013_day_12_data.csv,0,300,133.0,Training at home,,,,,,,,,,,,,
13,15,3339,B,47.82072806935025,17.360535423945077,2.3910364034675125,0.2726986527512561,B,446.18039997294545,Correct,sub_013_day_12_data.csv,1,300,133.0,Training at home,,,,,,,,,,,,,
13,15,3340,B,65.74303307293881,35.25063823890866,3.2871516536469407,0.5537157306285343,A,459.0866998769343,Incorrect,sub_013_day_12_data.csv,0,300,133.0,Training at home,,,,,,,,,,,,,
13,15,3341,A,57.35732822406091,70.6969747055,2.867866411203045,1.1105054818291111,A,464.3218000419438,Correct,sub_013_day_12_data.csv,1,300,133.0,Training at home,,,,,,,,,,,,,
13,15,3342,B,61.06665224009472,32.75424140145623,3.053332612004736,0.5145024208036076,B,794.1358999814838,Correct,sub_013_day_12_data.csv,1,300,133.0,Training at home,,,,,,,,,,,,,
13,15,3343,B,69.23190119871957,45.85023525283322,3.461595059935979,0.7202138111783231,B,442.54600000567734,Correct,sub_013_day_12_data.csv,1,300,133.0,Training at home,,,,,,,,,,,,,
13,15,3344,A,51.200191789277746,71.9034023442734,2.560009589463887,1.1294560028644025,A,465.4525998048484,Correct,sub_013_day_12_data.csv,1,300,133.0,Training at home,,,,,,,,,,,,,
13,15,3345,B,72.04992155758163,50.133325029203085,3.6024960778790813,0.7874924280588687,B,428.82329993881285,Correct,sub_013_day_12_data.csv,1,300,133.0,Training at home,,,,,,,,,,,,,
13,15,3346,A,24.155829132791865,45.66128885791382,1.2077914566395933,0.7172458481473176,A,461.0297998879105,Correct,sub_013_day_12_data.csv,1,300,133.0,Training at home,,,,,,,,,,,,,
13,15,3347,A,60.09603649481655,77.19274894614017,3.0048018247408277,1.212540864997976,A,728.0184999108315,Correct,sub_013_day_12_data.csv,1,300,133.0,Training at home,,,,,,,,,,,,,
13,15,3348,A,25.24865900802991,43.435048270686224,1.2624329504014955,0.6822761427775295,A,553.3129000104964,Correct,sub_013_day_12_data.csv,1,300,133.0,Training at home,,,,,,,,,,,,,
13,15,3349,B,77.86506796549347,50.74506549232103,3.8932533982746738,0.7971016247830434,B,599.3305000010878,Correct,sub_013_day_12_data.csv,1,300,133.0,Training at home,,,,,,,,,,,,,
13,15,3350,B,68.9663446529308,40.09190032480176,3.4483172326465397,0.6297620976442572,B,400.4150000400841,Correct,sub_013_day_12_data.csv,1,300,134.0,Training at home,,,,,,,,,,,,,
13,15,3351,B,78.32348507895884,52.12160333833313,3.9161742539479416,0.8187242307051431,B,470.4128000885248,Correct,sub_013_day_12_data.csv,1,300,134.0,Training at home,,,,,,,,,,,,,
13,15,3352,A,52.212008301230995,68.89231774018256,2.6106004150615494,1.0821579965066566,A,415.7388000749051,Correct,sub_013_day_12_data.csv,1,300,134.0,Training at home,,,,,,,,,,,,,
13,15,3353,B,72.06236747905456,50.334466635268925,3.603118373952728,0.7906519530186071,B,407.276300014928,Correct,sub_013_day_12_data.csv,1,300,134.0,Training at home,,,,,,,,,,,,,
13,15,3354,B,68.47311529371014,42.19306049528678,3.4236557646855066,0.6627670444223133,B,556.1492999549955,Correct,sub_013_day_12_data.csv,1,300,134.0,Training at home,,,,,,,,,,,,,
13,15,3355,B,44.81171617660845,19.109729888647685,2.2405858088304225,0.3001749351513043,B,433.48439992405474,Correct,sub_013_day_12_data.csv,1,300,134.0,Training at home,,,,,,,,,,,,,
13,15,3356,A,27.292913300528916,48.96362790657325,1.3646456650264458,0.7691188686219733,A,396.07000001706183,Correct,sub_013_day_12_data.csv,1,300,134.0,Training at home,,,,,,,,,,,,,
13,15,3357,A,26.30777948648377,43.00476207868122,1.3153889743241884,0.6755172230788091,A,402.3847000207752,Correct,sub_013_day_12_data.csv,1,300,134.0,Training at home,,,,,,,,,,,,,
13,15,3358,B,59.27102384499289,49.4077353760021,2.9635511922496445,0.7760948924387837,B,396.09660021960735,Correct,sub_013_day_12_data.csv,1,300,134.0,Training at home,,,,,,,,,,,,,
13,15,3359,B,41.68739047647071,14.59147691508342,2.0843695238235354,0.2292023834072556,B,467.968599870801,Correct,sub_013_day_12_data.csv,1,300,134.0,Training at home,,,,,,,,,,,,,
13,15,3360,B,38.5996155327441,23.222580416561513,1.9299807766372052,0.3647794401703392,B,444.9579999782145,Correct,sub_013_day_12_data.csv,1,300,134.0,Training at home,,,,,,,,,,,,,
13,15,3361,B,42.16254423412667,29.765962658205844,2.1081272117063334,0.4675626480702379,B,371.4343002066016,Correct,sub_013_day_12_data.csv,1,300,134.0,Training at home,,,,,,,,,,,,,
13,15,3362,B,41.446855788904216,31.17352748606173,2.0723427894452104,0.489672624683455,B,305.9784001670778,Correct,sub_013_day_12_data.csv,1,300,134.0,Training at home,,,,,,,,,,,,,
13,15,3363,A,37.311542824371216,46.00494208687703,1.8655771412185609,0.7226439404447839,A,422.55000001750886,Correct,sub_013_day_12_data.csv,1,300,134.0,Training at home,,,,,,,,,,,,,
13,15,3364,A,52.18800667350317,65.9940349743803,2.6094003336751586,1.036631877281305,A,362.1258002240211,Correct,sub_013_day_12_data.csv,1,300,134.0,Training at home,,,,,,,,,,,,,
13,15,3365,B,71.0548355573924,45.02354424688153,3.5527417778696195,0.7072281792228899,B,418.21109992451966,Correct,sub_013_day_12_data.csv,1,300,134.0,Training at home,,,,,,,,,,,,,
13,15,3366,A,39.266741295333816,47.688988466654514,1.9633370647666908,0.749096879119851,B,371.9490000512451,Incorrect,sub_013_day_12_data.csv,0,300,134.0,Training at home,,,,,,,,,,,,,
13,15,3367,B,57.042294897034985,40.696577177889594,2.852114744851749,0.6392603394415399,B,611.7579001002014,Correct,sub_013_day_12_data.csv,1,300,134.0,Training at home,,,,,,,,,,,,,
13,15,3368,B,84.49414831199648,64.28824682842935,4.224707415599824,1.0098374197418047,B,573.1593000236899,Correct,sub_013_day_12_data.csv,1,300,134.0,Training at home,,,,,,,,,,,,,
13,15,3369,B,50.24072222150404,33.118537741862546,2.512036111075202,0.5202247743373583,B,440.22200000472367,Correct,sub_013_day_12_data.csv,1,300,134.0,Training at home,,,,,,,,,,,,,
13,15,3370,A,16.38839429895025,34.58543194545523,0.8194197149475124,0.5432666946053594,A,508.3297998644411,Correct,sub_013_day_12_data.csv,1,300,134.0,Training at home,,,,,,,,,,,,,
13,15,3371,B,45.16513134953874,15.410961007977058,2.258256567476937,0.2420748094370974,B,430.3963999263942,Correct,sub_013_day_12_data.csv,1,300,134.0,Training at home,,,,,,,,,,,,,
13,15,3372,A,54.895516276393494,75.6334901934014,2.7447758138196745,1.1880480857847275,A,388.3327001240104,Correct,sub_013_day_12_data.csv,1,300,134.0,Training at home,,,,,,,,,,,,,
13,15,3373,B,74.32880791947876,56.37026629797455,3.7164403959739385,0.8854620724130857,B,422.9413999710232,Correct,sub_013_day_12_data.csv,1,300,134.0,Training at home,,,,,,,,,,,,,
13,15,3374,A,21.243449645587095,36.68349330382631,1.0621724822793548,0.5762229653565555,A,435.41890010237694,Correct,sub_013_day_12_data.csv,1,300,134.0,Training at home,,,,,,,,,,,,,
13,15,3375,B,87.97813604436571,64.4125774414176,4.398906802218286,1.0117904004437055,B,476.2279000133276,Correct,sub_013_day_12_data.csv,1,300,135.0,Training at home,,,,,,,,,,,,,
13,15,3376,A,14.383547323671582,36.09445184480907,0.7191773661835791,0.5669703237550137,A,392.1161000616849,Correct,sub_013_day_12_data.csv,1,300,135.0,Training at home,,,,,,,,,,,,,
13,15,3377,B,46.12725354500038,25.408423141506667,2.3063626772500188,0.3991145774032912,B,432.3756999801845,Correct,sub_013_day_12_data.csv,1,300,135.0,Training at home,,,,,,,,,,,,,
13,15,3378,B,45.182632111038416,30.335959680052326,2.2591316055519206,0.4765161403522429,B,522.717900108546,Correct,sub_013_day_12_data.csv,1,300,135.0,Training at home,,,,,,,,,,,,,
13,15,3379,B,66.3338873027376,53.834893559937726,3.31669436513688,0.8456365305734441,B,324.22730000689626,Correct,sub_013_day_12_data.csv,1,300,135.0,Training at home,,,,,,,,,,,,,
13,15,3380,A,36.83878536109482,52.18739750679956,1.8419392680547413,0.819757723086659,B,356.740599963814,Incorrect,sub_013_day_12_data.csv,0,300,135.0,Training at home,,,,,,,,,,,,,
13,15,3381,B,36.78525730493332,22.702278443452663,1.8392628652466656,0.3566065558885041,A,464.6492002066225,Incorrect,sub_013_day_12_data.csv,0,300,135.0,Training at home,,,,,,,,,,,,,
13,15,3382,B,58.05454751428766,40.11601704788377,2.902727375714383,0.6301409222445729,B,463.8642000500113,Correct,sub_013_day_12_data.csv,1,300,135.0,Training at home,,,,,,,,,,,,,
13,15,3383,B,77.64589142615483,61.6823018576616,3.8822945713077415,0.9689033318626886,B,478.21730002760887,Correct,sub_013_day_12_data.csv,1,300,135.0,Training at home,,,,,,,,,,,,,
13,15,3384,A,24.934613535498297,54.76580365691698,1.246730676774915,0.8602592321825572,A,543.1850999593735,Correct,sub_013_day_12_data.csv,1,300,135.0,Training at home,,,,,,,,,,,,,
13,15,3385,A,14.509287926953656,34.8181705510346,0.7254643963476829,0.5469225440728339,A,409.83389993198216,Correct,sub_013_day_12_data.csv,1,300,135.0,Training at home,,,,,,,,,,,,,
13,15,3386,B,52.51435450741843,39.08629538660252,2.6257177253709214,0.6139660922129555,B,381.02400000207126,Correct,sub_013_day_12_data.csv,1,300,135.0,Training at home,,,,,,,,,,,,,
13,15,3387,A,31.933427005414195,62.981715328249734,1.5966713502707095,0.9893144709285652,A,478.69630018249154,Correct,sub_013_day_12_data.csv,1,300,135.0,Training at home,,,,,,,,,,,,,
13,15,3388,A,56.36960022592355,64.62862843250677,2.8184800112961774,1.0151841214757389,A,464.3041000235826,Correct,sub_013_day_12_data.csv,1,300,135.0,Training at home,,,,,,,,,,,,,
13,15,3389,B,80.23352666290194,51.870297565053534,4.011676333145097,0.8147767288494435,B,402.5099000427872,Correct,sub_013_day_12_data.csv,1,300,135.0,Training at home,,,,,,,,,,,,,
13,15,3390,A,63.81389216551066,75.47593086460242,3.190694608275533,1.1855731496354305,B,312.2245999984443,Incorrect,sub_013_day_12_data.csv,0,300,135.0,Training at home,,,,,,,,,,,,,
13,15,3391,B,40.849650397336006,23.93763028964057,2.0424825198668004,0.3760114173114166,B,518.823399906978,Correct,sub_013_day_12_data.csv,1,300,135.0,Training at home,,,,,,,,,,,,,
13,15,3392,B,65.2899819336238,43.88557447812924,3.2644990966811904,0.6893529918952928,B,379.1793000418693,Correct,sub_013_day_12_data.csv,1,300,135.0,Training at home,,,,,,,,,,,,,
13,15,3393,B,78.45684455460861,55.22584694729575,3.9228422277304302,0.8674855752894932,B,422.5359999109059,Correct,sub_013_day_12_data.csv,1,300,135.0,Training at home,,,,,,,,,,,,,
13,15,3394,A,37.05774982333293,67.9939191818091,1.8528874911666464,1.068045984951748,A,419.58520002663136,Correct,sub_013_day_12_data.csv,1,300,135.0,Training at home,,,,,,,,,,,,,
13,15,3395,B,56.87289772333141,48.85726684083525,2.84364488616657,0.767448152908221,B,423.32850000821054,Correct,sub_013_day_12_data.csv,1,300,135.0,Training at home,,,,,,,,,,,,,
13,15,3396,B,43.73426139963374,26.71886729017732,2.186713069981687,0.4196989859553085,B,449.42059996537864,Correct,sub_013_day_12_data.csv,1,300,135.0,Training at home,,,,,,,,,,,,,
13,15,3397,A,33.19146856519164,52.672923188272875,1.6595734282595822,0.8273843426568877,A,411.2287999596447,Correct,sub_013_day_12_data.csv,1,300,135.0,Training at home,,,,,,,,,,,,,
13,15,3398,A,38.65874131968607,64.10410842595152,1.9329370659843037,1.006944980479464,A,456.7264998331666,Correct,sub_013_day_12_data.csv,1,300,135.0,Training at home,,,,,,,,,,,,,
13,15,3399,A,36.93832643492976,53.18070786421775,1.846916321746488,0.8353606056946572,A,351.6970002092421,Correct,sub_013_day_12_data.csv,1,300,135.0,Training at home,,,,,,,,,,,,,
13,15,3400,A,59.01649493157563,76.07485298384145,2.950824746578782,1.1949809962847993,A,368.8167999498546,Correct,sub_013_day_12_data.csv,1,300,136.0,Training at home,,,,,,,,,,,,,
13,15,3401,B,61.31616951343926,32.84860805042974,3.0658084756719632,0.5159847286594031,B,384.328099898994,Correct,sub_013_day_12_data.csv,1,300,136.0,Training at home,,,,,,,,,,,,,
13,15,3402,B,50.38271117382492,42.85397297562768,2.519135558691246,0.6731486333868372,B,449.83120006509125,Correct,sub_013_day_12_data.csv,1,300,136.0,Training at home,,,,,,,,,,,,,
13,15,3403,A,47.76151120466065,65.14619533584396,2.3880755602330326,1.023314043382065,B,345.63490003347397,Incorrect,sub_013_day_12_data.csv,0,300,136.0,Training at home,,,,,,,,,,,,,
13,15,3404,B,37.19900791274223,22.92115627606497,1.8599503956371115,0.3600446808433464,B,492.9751001764089,Correct,sub_013_day_12_data.csv,1,300,136.0,Training at home,,,,,,,,,,,,,
13,15,3405,A,16.714763998391433,41.847630980116385,0.8357381999195717,0.6573410502863514,A,416.3589999079704,Correct,sub_013_day_12_data.csv,1,300,136.0,Training at home,,,,,,,,,,,,,
13,15,3406,B,70.19834185796084,44.39682181392149,3.509917092898042,0.697383646266754,B,323.27880011871457,Correct,sub_013_day_12_data.csv,1,300,136.0,Training at home,,,,,,,,,,,,,
13,15,3407,B,50.18497730045097,19.85403773638144,2.509248865022548,0.3118664954835523,B,341.99930005706847,Correct,sub_013_day_12_data.csv,1,300,136.0,Training at home,,,,,,,,,,,,,
13,15,3408,B,57.31008516573587,45.42086217174218,2.8655042582867933,0.7134692345922987,B,355.9534999076277,Correct,sub_013_day_12_data.csv,1,300,136.0,Training at home,,,,,,,,,,,,,
13,15,3409,B,55.0938552273856,28.19799792183234,2.75469276136928,0.4429331155858436,B,389.12800000980496,Correct,sub_013_day_12_data.csv,1,300,136.0,Training at home,,,,,,,,,,,,,
13,15,3410,B,35.25397927169441,19.465782644628284,1.7626989635847208,0.3057677987636995,B,331.895399838686,Correct,sub_013_day_12_data.csv,1,300,136.0,Training at home,,,,,,,,,,,,,
13,15,3411,B,70.51680853765296,51.29942948717771,3.5258404268826484,0.8058095540513256,B,336.8514000903815,Correct,sub_013_day_12_data.csv,1,300,136.0,Training at home,,,,,,,,,,,,,
13,15,3412,A,38.904219680841365,63.22378539364575,1.9452109840420684,0.9931168986240758,A,394.02129990048707,Correct,sub_013_day_12_data.csv,1,300,136.0,Training at home,,,,,,,,,,,,,
13,15,3413,A,40.86945030644547,71.07954436877294,2.0434725153222733,1.1165148720472342,A,407.5348000042141,Correct,sub_013_day_12_data.csv,1,300,136.0,Training at home,,,,,,,,,,,,,
13,15,3414,B,35.56578234464119,20.092437845555423,1.7782891172320598,0.3156112756415322,B,341.7367998044938,Correct,sub_013_day_12_data.csv,1,300,136.0,Training at home,,,,,,,,,,,,,
13,15,3415,B,64.99317298754632,42.37764659108327,3.2496586493773156,0.6656665160348586,B,446.8545999843627,Correct,sub_013_day_12_data.csv,1,300,136.0,Training at home,,,,,,,,,,,,,
13,15,3416,A,53.46321977334999,81.29671974888572,2.673160988667499,1.277005887620238,A,437.13509989902377,Correct,sub_013_day_12_data.csv,1,300,136.0,Training at home,,,,,,,,,,,,,
13,15,3417,A,46.1222938240126,64.74239958934477,2.30611469120063,1.0169712346283015,A,400.2710999920964,Correct,sub_013_day_12_data.csv,1,300,136.0,Training at home,,,,,,,,,,,,,
13,15,3418,B,33.29850024116354,20.68352648477691,1.664925012058177,0.3248960742745252,B,365.94559997320175,Correct,sub_013_day_12_data.csv,1,300,136.0,Training at home,,,,,,,,,,,,,
13,15,3419,A,39.57608093592774,63.67489689328125,1.978804046796387,1.0002029414900997,A,392.4636000301689,Correct,sub_013_day_12_data.csv,1,300,136.0,Training at home,,,,,,,,,,,,,
13,15,3420,A,42.18585089078689,56.75266167567147,2.1092925445393447,0.8914687249597824,A,425.14539998956025,Correct,sub_013_day_12_data.csv,1,300,136.0,Training at home,,,,,,,,,,,,,
13,15,3421,B,41.02754490464126,18.292663651518293,2.051377245232063,0.2873404887109946,B,464.2721998970955,Correct,sub_013_day_12_data.csv,1,300,136.0,Training at home,,,,,,,,,,,,,
13,15,3422,A,47.00773068658007,71.55881211727984,2.350386534329003,1.124043192236293,A,364.9298998061567,Correct,sub_013_day_12_data.csv,1,300,136.0,Training at home,,,,,,,,,,,,,
13,15,3423,A,25.561764758125904,41.049691507537496,1.2780882379062952,0.6448070463610355,B,385.5506998952478,Incorrect,sub_013_day_12_data.csv,0,300,136.0,Training at home,,,,,,,,,,,,,
13,15,3424,A,60.25310284808761,80.11764649103532,3.0126551424043804,1.2584850481957033,A,453.89040000736713,Correct,sub_013_day_12_data.csv,1,300,136.0,Training at home,,,,,,,,,,,,,
13,15,3425,A,28.817833708740817,39.43623513217605,1.4408916854370406,0.6194629328824199,A,404.2825000360608,Correct,sub_013_day_12_data.csv,1,300,137.0,Training at home,,,,,,,,,,,,,
13,15,3426,B,62.58852545009161,38.48968979656513,3.1294262725045803,0.6045946335191951,B,501.4167998451739,Correct,sub_013_day_12_data.csv,1,300,137.0,Training at home,,,,,,,,,,,,,
13,15,3427,B,84.40395382720048,57.261844056406375,4.220197691360024,0.8994669430930532,B,434.4605999067426,Correct,sub_013_day_12_data.csv,1,300,137.0,Training at home,,,,,,,,,,,,,
13,15,3428,A,55.1949671923018,75.25852694326392,2.7597483596150902,1.1821581768247371,A,403.7272999994457,Correct,sub_013_day_12_data.csv,1,300,137.0,Training at home,,,,,,,,,,,,,
13,15,3429,B,82.8846140909819,64.4733507163671,4.144230704549095,1.0127450248142855,B,386.7825001943857,Correct,sub_013_day_12_data.csv,1,300,137.0,Training at home,,,,,,,,,,,,,
13,15,3430,B,71.82738348774251,46.001803211053634,3.5913691743871254,0.7225946350986471,B,432.86199984140694,Correct,sub_013_day_12_data.csv,1,300,137.0,Training at home,,,,,,,,,,,,,
13,15,3431,A,36.46577470783938,52.06929102331795,1.8232887353919691,0.8179025107824233,A,554.9943000078201,Correct,sub_013_day_12_data.csv,1,300,137.0,Training at home,,,,,,,,,,,,,
13,15,3432,A,15.936986866095992,45.08030488946549,0.7968493433047996,0.7081197733116641,A,396.06040017679334,Correct,sub_013_day_12_data.csv,1,300,137.0,Training at home,,,,,,,,,,,,,
13,15,3433,A,56.93772724691628,72.74857556689138,2.846886362345814,1.1427319528003392,B,463.9327998738736,Incorrect,sub_013_day_12_data.csv,0,300,137.0,Training at home,,,,,,,,,,,,,
13,15,3434,B,71.27813425285538,59.62009885006445,3.5639067126427686,0.9365103227682988,A,402.35410002060235,Incorrect,sub_013_day_12_data.csv,0,300,137.0,Training at home,,,,,,,,,,,,,
13,15,3435,B,75.78752139986199,44.04230826139421,3.789376069993099,0.6918149604056656,B,544.3418000359088,Correct,sub_013_day_12_data.csv,1,300,137.0,Training at home,,,,,,,,,,,,,
13,15,3436,A,20.63703126030521,49.42819195473415,1.0318515630152605,0.7764162236260945,A,363.1605999544263,Correct,sub_013_day_12_data.csv,1,300,137.0,Training at home,,,,,,,,,,,,,
13,15,3437,A,49.20122100948987,76.64451318163708,2.4600610504744935,1.2039291977469857,A,499.01319993659854,Correct,sub_013_day_12_data.csv,1,300,137.0,Training at home,,,,,,,,,,,,,
13,15,3438,B,77.72683854058315,56.53807079477064,3.886341927029157,0.8880979392849554,B,376.11380009911954,Correct,sub_013_day_12_data.csv,1,300,137.0,Training at home,,,,,,,,,,,,,
13,15,3439,B,42.0344929431608,23.644865277900813,2.10172464715804,0.3714126752608678,B,490.39819999597967,Correct,sub_013_day_12_data.csv,1,300,137.0,Training at home,,,,,,,,,,,,,
13,15,3440,B,34.89676075041955,19.809132159378557,1.7448380375209778,0.3111611203294649,B,404.38389987684786,Correct,sub_013_day_12_data.csv,1,300,137.0,Training at home,,,,,,,,,,,,,
13,15,3441,A,25.758986318586693,39.523836688642376,1.2879493159293347,0.6208389749136082,A,422.49369993805885,Correct,sub_013_day_12_data.csv,1,300,137.0,Training at home,,,,,,,,,,,,,
13,15,3442,B,48.26990068477175,40.951815113074154,2.4134950342385877,0.6432696075520061,B,342.7385000977665,Correct,sub_013_day_12_data.csv,1,300,137.0,Training at home,,,,,,,,,,,,,
13,15,3443,B,71.33240092000283,51.15562751577072,3.566620046000142,0.8035507179666058,B,395.0188001617789,Correct,sub_013_day_12_data.csv,1,300,137.0,Training at home,,,,,,,,,,,,,
13,15,3444,B,77.32734151964522,61.730242558397094,3.866367075982261,0.9696563826288817,B,376.97370001114905,Correct,sub_013_day_12_data.csv,1,300,137.0,Training at home,,,,,,,,,,,,,
13,15,3445,A,36.93064215644263,55.17801331800863,1.8465321078221313,0.8667342063976785,A,449.89910000003874,Correct,sub_013_day_12_data.csv,1,300,137.0,Training at home,,,,,,,,,,,,,
13,15,3446,B,69.4681060222905,46.342023458648185,3.473405301114525,0.7279388022508748,B,415.8511001151055,Correct,sub_013_day_12_data.csv,1,300,137.0,Training at home,,,,,,,,,,,,,
13,15,3447,B,45.00623233214516,21.978145171709613,2.2503116166072576,0.3452318970548645,B,430.9591001365334,Correct,sub_013_day_12_data.csv,1,300,137.0,Training at home,,,,,,,,,,,,,
13,15,3448,B,52.54841568186518,34.77198132682052,2.627420784093259,0.5461970054355041,B,318.1328000500798,Correct,sub_013_day_12_data.csv,1,300,137.0,Training at home,,,,,,,,,,,,,
13,15,3449,A,52.423836840693085,66.8086400856246,2.621191842034654,1.0494276644466145,B,330.26780001819134,Incorrect,sub_013_day_12_data.csv,0,300,137.0,Training at home,,,,,,,,,,,,,
13,15,3450,B,44.82718280384726,25.570640821142725,2.2413591401923627,0.4016626867564263,B,443.4020000044256,Correct,sub_013_day_12_data.csv,1,300,138.0,Training at home,,,,,,,,,,,,,
13,15,3451,B,53.7822007612458,41.53517182785547,2.6891100380622897,0.6524329533999024,B,396.5453000273555,Correct,sub_013_day_12_data.csv,1,300,138.0,Training at home,,,,,,,,,,,,,
13,15,3452,A,56.64331607017712,73.6862844993158,2.8321658035088557,1.15746145026689,A,407.4152000248432,Correct,sub_013_day_12_data.csv,1,300,138.0,Training at home,,,,,,,,,,,,,
13,15,3453,A,18.08531353117048,40.16245618880319,0.904265676558524,0.6308703865643301,A,498.6753000412136,Correct,sub_013_day_12_data.csv,1,300,138.0,Training at home,,,,,,,,,,,,,
13,15,3454,A,61.037002953796744,81.53977798994825,3.051850147689837,1.2808238375428205,B,431.1673000920564,Incorrect,sub_013_day_12_data.csv,0,300,138.0,Training at home,,,,,,,,,,,,,
13,15,3455,B,32.07906021977089,16.819549618496595,1.6039530109885445,0.2642008675907895,B,441.52049999684095,Correct,sub_013_day_12_data.csv,1,300,138.0,Training at home,,,,,,,,,,,,,
13,15,3456,A,15.167360166988612,44.38571616327464,0.7583680083494306,0.6972091991143267,A,358.12620003707707,Correct,sub_013_day_12_data.csv,1,300,138.0,Training at home,,,,,,,,,,,,,
13,15,3457,A,36.92464985039652,61.26934675651062,1.846232492519826,0.962416648302497,A,444.67040011659265,Correct,sub_013_day_12_data.csv,1,300,138.0,Training at home,,,,,,,,,,,,,
13,15,3458,A,62.604232063324744,85.9373398726396,3.130211603166237,1.349900578064669,A,513.1604000926018,Correct,sub_013_day_12_data.csv,1,300,138.0,Training at home,,,,,,,,,,,,,
13,15,3459,B,71.90549992481583,47.04419698025067,3.5952749962407915,0.7389685181359332,B,489.6565000526607,Correct,sub_013_day_12_data.csv,1,300,138.0,Training at home,,,,,,,,,,,,,
13,15,3460,B,89.01343962473729,64.37821951184506,4.450671981236865,1.0112507073480177,B,631.296900101006,Correct,sub_013_day_12_data.csv,1,300,138.0,Training at home,,,,,,,,,,,,,
13,15,3461,B,82.23462294686747,52.95192622529994,4.111731147343374,0.831766912114155,B,466.1109000444412,Correct,sub_013_day_12_data.csv,1,300,138.0,Training at home,,,,,,,,,,,,,
13,15,3462,A,18.192299903702175,33.294040518755835,0.9096149951851088,0.5229815655102211,A,375.9540000464767,Correct,sub_013_day_12_data.csv,1,300,138.0,Training at home,,,,,,,,,,,,,
13,15,3463,A,50.843455320631485,61.91065075180038,2.542172766031574,0.9724902279040976,A,410.40540020912886,Correct,sub_013_day_12_data.csv,1,300,138.0,Training at home,,,,,,,,,,,,,
13,15,3464,B,54.21480144219105,39.784964138004014,2.7107400721095525,0.6249407552964339,B,363.118400098756,Correct,sub_013_day_12_data.csv,1,300,138.0,Training at home,,,,,,,,,,,,,
13,15,3465,A,24.95876691872754,49.283633824728405,1.247938345936377,0.7741455098298808,A,358.9266000781208,Correct,sub_013_day_12_data.csv,1,300,138.0,Training at home,,,,,,,,,,,,,
13,15,3466,B,42.90700971898032,14.465158768428369,2.145350485949016,0.2272181825995227,B,398.2480999547988,Correct,sub_013_day_12_data.csv,1,300,138.0,Training at home,,,,,,,,,,,,,
13,15,3467,A,39.90506965983226,61.197700744557295,1.9952534829916129,0.9612912353784392,A,433.7816999759525,Correct,sub_013_day_12_data.csv,1,300,138.0,Training at home,,,,,,,,,,,,,
13,15,3468,A,35.598645566854785,55.66536078292075,1.7799322783427391,0.8743894424752461,A,519.5501998532563,Correct,sub_013_day_12_data.csv,1,300,138.0,Training at home,,,,,,,,,,,,,
13,15,3469,A,23.17160142109726,42.67157315201402,1.158580071054863,0.6702835036574335,A,484.82619994319975,Correct,sub_013_day_12_data.csv,1,300,138.0,Training at home,,,,,,,,,,,,,
13,15,3470,A,42.073976396704914,67.30524948943356,2.103698819835246,1.0572283867201633,A,444.87900007516146,Correct,sub_013_day_12_data.csv,1,300,138.0,Training at home,,,,,,,,,,,,,
13,15,3471,A,14.355467140709017,38.61152884855532,0.7177733570354508,0.6065084768724587,A,406.7863000091166,Correct,sub_013_day_12_data.csv,1,300,138.0,Training at home,,,,,,,,,,,,,
13,15,3472,A,52.448976381419584,62.584173565720434,2.6224488190709794,0.9830698995252792,A,509.9045999813825,Correct,sub_013_day_12_data.csv,1,300,138.0,Training at home,,,,,,,,,,,,,
13,15,3473,B,51.973683507912746,25.913232275803125,2.598684175395637,0.4070441007421451,B,403.84329995140433,Correct,sub_013_day_12_data.csv,1,300,138.0,Training at home,,,,,,,,,,,,,
13,15,3474,B,32.64747071238986,14.236958676958633,1.632373535619493,0.2236336239449734,B,499.9658002052456,Correct,sub_013_day_12_data.csv,1,300,138.0,Training at home,,,,,,,,,,,,,
13,15,3475,B,84.15004338162557,63.912719633441114,4.207502169081278,1.0039386523568137,B,555.3179001435637,Correct,sub_013_day_12_data.csv,1,300,139.0,Training at home,,,,,,,,,,,,,
13,15,3476,A,33.84333949502646,60.615348081640434,1.6921669747513233,0.9521436611403484,A,389.28029988892376,Correct,sub_013_day_12_data.csv,1,300,139.0,Training at home,,,,,,,,,,,,,
13,15,3477,A,21.7790946319489,46.954338645705725,1.088954731597445,0.737557026717582,A,407.0181001443416,Correct,sub_013_day_12_data.csv,1,300,139.0,Training at home,,,,,,,,,,,,,
13,15,3478,B,34.016151128433634,15.497118318524958,1.7008075564216818,0.243428165306449,B,362.8616000059992,Correct,sub_013_day_12_data.csv,1,300,139.0,Training at home,,,,,,,,,,,,,
13,15,3479,B,40.024264603568554,21.1345007034134,2.001213230178428,0.3319799607356593,B,449.89240006543696,Correct,sub_013_day_12_data.csv,1,300,139.0,Training at home,,,,,,,,,,,,,
13,15,3480,A,12.43844846490503,37.71753922955621,0.6219224232452515,0.592465720775293,A,337.41599996574223,Correct,sub_013_day_12_data.csv,1,300,139.0,Training at home,,,,,,,,,,,,,
13,15,3481,B,50.786582549858366,24.149431519131213,2.5393291274929184,0.3793383832443621,B,460.88330005295575,Correct,sub_013_day_12_data.csv,1,300,139.0,Training at home,,,,,,,,,,,,,
13,15,3482,A,24.251583397203987,55.51378725665604,1.212579169860199,0.8720085310922864,A,401.3637998141349,Correct,sub_013_day_12_data.csv,1,300,139.0,Training at home,,,,,,,,,,,,,
13,15,3483,A,21.44692050343113,35.695656684030155,1.0723460251715564,0.5607060640180627,B,424.2533999495208,Incorrect,sub_013_day_12_data.csv,0,300,139.0,Training at home,,,,,,,,,,,,,
13,15,3484,A,37.341156444262985,54.15514757295758,1.8670578222131493,0.8506670688463733,A,468.8989999704063,Correct,sub_013_day_12_data.csv,1,300,139.0,Training at home,,,,,,,,,,,,,
13,15,3485,A,15.334271247992117,39.48408412031388,0.7667135623996059,0.6202145430304975,A,450.16250014305115,Correct,sub_013_day_12_data.csv,1,300,139.0,Training at home,,,,,,,,,,,,,
13,15,3486,B,86.86156881102383,69.44512187961405,4.343078440551192,1.0908414236232165,A,475.1216000877321,Incorrect,sub_013_day_12_data.csv,0,300,139.0,Training at home,,,,,,,,,,,,,
13,15,3487,B,85.67937254975472,67.3723651730386,4.283968627487735,1.0582826374129346,A,438.2784999907017,Incorrect,sub_013_day_12_data.csv,0,300,139.0,Training at home,,,,,,,,,,,,,
13,15,3488,B,40.337602159754184,23.616555119506614,2.016880107987709,0.3709679803327021,B,509.8478998988867,Correct,sub_013_day_12_data.csv,1,300,139.0,Training at home,,,,,,,,,,,,,
13,15,3489,A,20.777654097485875,46.378973207086936,1.038882704874294,0.7285192075421107,A,509.30320005863905,Correct,sub_013_day_12_data.csv,1,300,139.0,Training at home,,,,,,,,,,,,,
13,15,3490,A,69.3346247706786,85.31284969825292,3.46673123853393,1.3400911093442078,A,563.1512999534607,Correct,sub_013_day_12_data.csv,1,300,139.0,Training at home,,,,,,,,,,,,,
13,15,3491,A,36.708041459192,64.38780138107848,1.8354020729596,1.0114012189979744,B,448.8982998300344,Incorrect,sub_013_day_12_data.csv,0,300,139.0,Training at home,,,,,,,,,,,,,
13,15,3492,B,77.04451504649701,45.03961065071098,3.85222575232485,0.7074805497040912,B,486.0054000746459,Correct,sub_013_day_12_data.csv,1,300,139.0,Training at home,,,,,,,,,,,,,
13,15,3493,B,50.33150065506257,33.08648732316134,2.5165750327531287,0.5197213275376774,B,443.17270000465214,Correct,sub_013_day_12_data.csv,1,300,139.0,Training at home,,,,,,,,,,,,,
13,15,3494,A,26.556767765707647,54.702373810792594,1.3278383882853826,0.8592628784895435,A,460.75200010091066,Correct,sub_013_day_12_data.csv,1,300,139.0,Training at home,,,,,,,,,,,,,
13,15,3495,B,80.48397054852552,50.17848646041472,4.024198527426276,0.788201822161469,B,551.614600000903,Correct,sub_013_day_12_data.csv,1,300,139.0,Training at home,,,,,,,,,,,,,
13,15,3496,B,66.26030393607948,53.60178491969036,3.313015196803974,0.8419748686149972,B,476.1840000282973,Correct,sub_013_day_12_data.csv,1,300,139.0,Training at home,,,,,,,,,,,,,
13,15,3497,A,55.235557099046666,78.17494948868682,2.7617778549523333,1.2279692350420583,B,660.5275000911206,Incorrect,sub_013_day_12_data.csv,0,300,139.0,Training at home,,,,,,,,,,,,,
13,15,3498,B,65.75004663256841,55.201539970699066,3.2875023316284206,0.8671037621939574,B,703.6892001051456,Correct,sub_013_day_12_data.csv,1,300,139.0,Training at home,,,,,,,,,,,,,
13,15,3499,A,38.43757010989565,65.36210394144291,1.921878505494783,1.0267055278280477,A,409.74240005016327,Correct,sub_013_day_12_data.csv,1,300,139.0,Training at home,,,,,,,,,,,,,
13,15,3500,A,46.27827931580984,62.07560122954314,2.313913965790492,0.9750812639495112,A,545.4994000028819,Correct,sub_013_day_12_data.csv,1,300,140.0,Training at home,,,,,,,,,,,,,
13,15,3501,A,28.425214162121407,51.698860863522015,1.4212607081060702,0.8120838074390082,A,450.9286999236792,Correct,sub_013_day_12_data.csv,1,300,140.0,Training at home,,,,,,,,,,,,,
13,15,3502,A,29.134508155637377,53.03007203688197,1.4567254077818688,0.8329944236520296,A,660.6840000022203,Correct,sub_013_day_12_data.csv,1,300,140.0,Training at home,,,,,,,,,,,,,
13,15,3503,A,46.16894895193863,77.64669444698109,2.3084474475969317,1.219671424250836,A,537.5171999912709,Correct,sub_013_day_12_data.csv,1,300,140.0,Training at home,,,,,,,,,,,,,
13,15,3504,A,32.30291563663173,54.29313956006897,1.6151457818315864,0.8528346419111903,A,477.1684999577701,Correct,sub_013_day_12_data.csv,1,300,140.0,Training at home,,,,,,,,,,,,,
13,15,3505,A,50.844090638730286,65.82197297435803,2.5422045319365143,1.0339291337051455,A,455.8659999165684,Correct,sub_013_day_12_data.csv,1,300,140.0,Training at home,,,,,,,,,,,,,
13,15,3506,A,53.308284312836264,67.83061278273308,2.665414215641813,1.065480774033641,A,653.112200088799,Correct,sub_013_day_12_data.csv,1,300,140.0,Training at home,,,,,,,,,,,,,
13,15,3507,B,61.99226248828244,30.77857948720525,3.099613124414122,0.4834687960246674,B,439.8342999629676,Correct,sub_013_day_12_data.csv,1,300,140.0,Training at home,,,,,,,,,,,,,
13,15,3508,B,81.31048138954932,56.01439534254858,4.0655240694774655,0.8798720645171249,B,436.83439982123673,Correct,sub_013_day_12_data.csv,1,300,140.0,Training at home,,,,,,,,,,,,,
13,15,3509,A,12.688725873035672,37.83648481305156,0.6344362936517836,0.5943341136317228,A,415.1290000882,Correct,sub_013_day_12_data.csv,1,300,140.0,Training at home,,,,,,,,,,,,,
13,15,3510,B,35.226657975304974,18.821399587641046,1.7613328987652488,0.2956458533740553,B,465.3219999745488,Correct,sub_013_day_12_data.csv,1,300,140.0,Training at home,,,,,,,,,,,,,
13,15,3511,A,67.0688268237775,79.20350719284373,3.353441341188875,1.244125781677921,A,452.6963999960571,Correct,sub_013_day_12_data.csv,1,300,140.0,Training at home,,,,,,,,,,,,,
13,15,3512,A,15.371047694399394,32.31625519729605,0.7685523847199697,0.5076225495967912,B,369.01749996468425,Incorrect,sub_013_day_12_data.csv,0,300,140.0,Training at home,,,,,,,,,,,,,
13,15,3513,B,34.095877227892245,10.820455574811144,1.704793861394612,0.169967318711607,B,579.7873998526484,Correct,sub_013_day_12_data.csv,1,300,140.0,Training at home,,,,,,,,,,,,,
13,15,3514,B,42.25799514571739,28.86968846501508,2.112899757285869,0.4534840059655869,B,494.76779997348785,Correct,sub_013_day_12_data.csv,1,300,140.0,Training at home,,,,,,,,,,,,,
13,15,3515,B,53.45499170026905,28.113605917280985,2.6727495850134524,0.4416074890782424,B,633.8676998857409,Correct,sub_013_day_12_data.csv,1,300,140.0,Training at home,,,,,,,,,,,,,
13,15,3516,A,52.310784134235114,68.93204601845159,2.6155392067117553,1.0827820468424054,A,859.1512001585215,Correct,sub_013_day_12_data.csv,1,300,140.0,Training at home,,,,,,,,,,,,,
13,15,3517,B,46.134771488043825,25.183793189035686,2.3067385744021913,0.3955860983609959,B,622.1233999822289,Correct,sub_013_day_12_data.csv,1,300,140.0,Training at home,,,,,,,,,,,,,
13,15,3518,A,55.844039392079345,76.58913735380241,2.7922019696039673,1.2030593562774263,A,574.6575999073684,Correct,sub_013_day_12_data.csv,1,300,140.0,Training at home,,,,,,,,,,,,,
13,15,3519,B,84.86822811119343,60.818146546081024,4.243411405559672,0.955329211970578,B,890.5204001348466,Correct,sub_013_day_12_data.csv,1,300,140.0,Training at home,,,,,,,,,,,,,
13,15,3520,A,40.30319841208474,68.94300310759832,2.015159920604237,1.0829541603962456,A,600.1099001150578,Correct,sub_013_day_12_data.csv,1,300,140.0,Training at home,,,,,,,,,,,,,
13,15,3521,B,79.33846803711475,67.07223445686253,3.9669234018557376,1.0535681951476576,B,1418.8558999449017,Correct,sub_013_day_12_data.csv,1,300,140.0,Training at home,,,,,,,,,,,,,
13,15,3522,A,42.95477335100562,60.00238727142729,2.147738667550281,0.9425152952488284,A,1044.679599814117,Correct,sub_013_day_12_data.csv,1,300,140.0,Training at home,,,,,,,,,,,,,
13,15,3523,B,73.34923817951619,60.29168302593422,3.6674619089758096,0.947059542334197,B,657.6837999746203,Correct,sub_013_day_12_data.csv,1,300,140.0,Training at home,,,,,,,,,,,,,
13,15,3524,B,79.46294392690953,52.843453112416086,3.9731471963454768,0.8300630204414152,B,1164.1019999515263,Correct,sub_013_day_12_data.csv,1,300,140.0,Training at home,,,,,,,,,,,,,
13,15,3525,B,69.45630200525422,53.87677726559605,3.472815100262711,0.8462944382834507,B,392.81109999865294,Correct,sub_013_day_12_data.csv,1,300,141.0,Training at home,,,,,,,,,,,,,
13,15,3526,A,38.42686462550219,45.818363541577554,1.9213432312751095,0.7197131715086322,B,553.3088999800384,Incorrect,sub_013_day_12_data.csv,0,300,141.0,Training at home,,,,,,,,,,,,,
13,15,3527,A,39.55989758820237,53.940189765703224,1.9779948794101183,0.847290519505863,A,633.0228999722749,Correct,sub_013_day_12_data.csv,1,300,141.0,Training at home,,,,,,,,,,,,,
13,15,3528,B,50.55017778331321,30.801595328113663,2.5275088891656607,0.4838303280082378,B,521.0335000883788,Correct,sub_013_day_12_data.csv,1,300,141.0,Training at home,,,,,,,,,,,,,
13,15,3529,B,70.21179373925445,43.19173484124089,3.5105896869627227,0.6784541843652033,B,422.2595999017358,Correct,sub_013_day_12_data.csv,1,300,141.0,Training at home,,,,,,,,,,,,,
13,15,3530,A,23.100788937316057,50.4737384087679,1.1550394468658027,0.7928396289209911,A,593.1178000755608,Correct,sub_013_day_12_data.csv,1,300,141.0,Training at home,,,,,,,,,,,,,
13,15,3531,A,54.11678324990179,78.8010384841498,2.7058391624950895,1.237803817985258,A,454.4178999494761,Correct,sub_013_day_12_data.csv,1,300,141.0,Training at home,,,,,,,,,,,,,
13,15,3532,B,70.91266654950266,61.035897652170675,3.545633327475133,0.9587496383465892,B,524.8107998631895,Correct,sub_013_day_12_data.csv,1,300,141.0,Training at home,,,,,,,,,,,,,
13,15,3533,B,76.69789112805898,60.21188030280016,3.8348945564029497,0.9458060040905248,B,522.9921999853104,Correct,sub_013_day_12_data.csv,1,300,141.0,Training at home,,,,,,,,,,,,,
13,15,3534,B,38.513507822562346,23.284973681791097,1.9256753911281177,0.3657595112887328,A,411.1923000309616,Incorrect,sub_013_day_12_data.csv,0,300,141.0,Training at home,,,,,,,,,,,,,
13,15,3535,A,49.054777157254826,58.63171376406354,2.452738857862742,0.920984806142808,B,545.4899999313056,Incorrect,sub_013_day_12_data.csv,0,300,141.0,Training at home,,,,,,,,,,,,,
13,15,3536,A,35.516111458941424,43.303599767735925,1.7758055729470712,0.6802113545215592,A,792.6174998283386,Correct,sub_013_day_12_data.csv,1,300,141.0,Training at home,,,,,,,,,,,,,
13,15,3537,B,77.18802686621385,46.62601544114362,3.859401343310692,0.7323997378803052,B,450.9695000015199,Correct,sub_013_day_12_data.csv,1,300,141.0,Training at home,,,,,,,,,,,,,
13,15,3538,A,59.84996501585397,81.46525701930871,2.9924982507926985,1.2796532648733228,A,503.3907999750227,Correct,sub_013_day_12_data.csv,1,300,141.0,Training at home,,,,,,,,,,,,,
13,15,3539,A,53.22093743272547,69.88176429399066,2.6610468716362736,1.0977001866294729,A,424.9670000281185,Correct,sub_013_day_12_data.csv,1,300,141.0,Training at home,,,,,,,,,,,,,
13,15,3540,A,41.872590112939,59.1887344814227,2.09362950564695,0.929734467110572,A,634.6403998322785,Correct,sub_013_day_12_data.csv,1,300,141.0,Training at home,,,,,,,,,,,,,
13,15,3541,A,20.73426586061107,33.138272613623684,1.0367132930305536,0.5205347689780799,A,592.3360001761466,Correct,sub_013_day_12_data.csv,1,300,141.0,Training at home,,,,,,,,,,,,,
13,15,3542,A,21.59516172939347,35.89662648273908,1.0797580864696734,0.5638628902341496,A,549.8771998099983,Correct,sub_013_day_12_data.csv,1,300,141.0,Training at home,,,,,,,,,,,,,
13,15,3543,B,56.43350966079293,41.144301990130245,2.8216754830396464,0.6462931843463655,B,538.4189998731017,Correct,sub_013_day_12_data.csv,1,300,141.0,Training at home,,,,,,,,,,,,,
13,15,3544,B,83.02132354543627,65.3150889092091,4.151066177271814,1.0259670174286772,B,519.1244999878109,Correct,sub_013_day_12_data.csv,1,300,141.0,Training at home,,,,,,,,,,,,,
13,15,3545,A,31.3360341240368,39.8637094939462,1.5668017062018402,0.6261776844550955,A,456.4294998999685,Correct,sub_013_day_12_data.csv,1,300,141.0,Training at home,,,,,,,,,,,,,
13,15,3546,A,25.41484705123993,41.85537421961697,1.2707423525619963,0.6574626808080014,A,476.3626998756081,Correct,sub_013_day_12_data.csv,1,300,141.0,Training at home,,,,,,,,,,,,,
13,15,3547,A,36.916999641554334,63.43248810998284,1.8458499820777168,0.99639519322622,A,439.09760005772114,Correct,sub_013_day_12_data.csv,1,300,141.0,Training at home,,,,,,,,,,,,,
13,15,3548,A,36.64181855720235,69.15650567018123,1.8320909278601176,1.0863078508069113,A,450.330900028348,Correct,sub_013_day_12_data.csv,1,300,141.0,Training at home,,,,,,,,,,,,,
13,15,3549,B,49.552607158562566,20.77896160972977,2.4776303579281285,0.3263951657117569,B,501.24739995226264,Correct,sub_013_day_12_data.csv,1,300,141.0,Training at home,,,,,,,,,,,,,
13,15,3550,A,65.43789265684416,87.15853033667364,3.2718946328422076,1.3690829930168853,A,397.06410001963377,Correct,sub_013_day_12_data.csv,1,300,142.0,Training at home,,,,,,,,,,,,,
13,15,3551,B,54.884024846637985,32.96373126207279,2.7442012423318993,0.5177930798391804,B,357.22790006548166,Correct,sub_013_day_12_data.csv,1,300,142.0,Training at home,,,,,,,,,,,,,
13,15,3552,A,37.181875522893456,61.02638160442878,1.8590937761446729,0.9586001606182036,A,489.79489994235337,Correct,sub_013_day_12_data.csv,1,300,142.0,Training at home,,,,,,,,,,,,,
13,15,3553,A,64.16612876013104,87.54865822964784,3.2083064380065527,1.375211107629526,A,553.8472000043839,Correct,sub_013_day_12_data.csv,1,300,142.0,Training at home,,,,,,,,,,,,,
13,15,3554,B,73.52625258479193,57.74810010355219,3.676312629239596,0.9071050352204376,B,528.2052999828011,Correct,sub_013_day_12_data.csv,1,300,142.0,Training at home,,,,,,,,,,,,,
13,15,3555,B,86.48093056797504,59.970982437750735,4.324046528398752,0.942021989275001,B,519.6669001597911,Correct,sub_013_day_12_data.csv,1,300,142.0,Training at home,,,,,,,,,,,,,
13,15,3556,B,77.32861829612693,46.52644764185497,3.8664309148063465,0.7308357305464087,B,458.49179988726974,Correct,sub_013_day_12_data.csv,1,300,142.0,Training at home,,,,,,,,,,,,,
13,15,3557,B,61.94212702078653,29.47082971080884,3.097106351039326,0.4629267105733642,B,374.4042001198977,Correct,sub_013_day_12_data.csv,1,300,142.0,Training at home,,,,,,,,,,,,,
13,15,3558,B,70.39965861548696,44.18595530698269,3.5199829307743475,0.6940713629213188,B,409.0255000628531,Correct,sub_013_day_12_data.csv,1,300,142.0,Training at home,,,,,,,,,,,,,
13,15,3559,A,39.8926668490596,62.80108103313049,1.99463334245298,0.9864770740559,A,407.3908000718802,Correct,sub_013_day_12_data.csv,1,300,142.0,Training at home,,,,,,,,,,,,,
13,15,3560,A,27.896948610199317,58.14388668557434,1.394847430509966,0.9133220363127884,A,440.1287001091987,Correct,sub_013_day_12_data.csv,1,300,142.0,Training at home,,,,,,,,,,,,,
13,15,3561,B,65.50951199979812,45.33517714041383,3.275475599989906,0.7121232972675801,B,432.4646999593824,Correct,sub_013_day_12_data.csv,1,300,142.0,Training at home,,,,,,,,,,,,,
13,15,3562,A,56.27372513258567,70.44357888902432,2.8136862566292837,1.1065251496516593,A,566.4311000145972,Correct,sub_013_day_12_data.csv,1,300,142.0,Training at home,,,,,,,,,,,,,
13,15,3563,A,47.49468367439952,57.616409932283474,2.374734183719976,0.9050364508473988,B,460.17679991200566,Incorrect,sub_013_day_12_data.csv,0,300,142.0,Training at home,,,,,,,,,,,,,
13,15,3564,A,36.196457932495335,58.3807883735865,1.8098228966247667,0.9170432793261988,A,487.48629982583225,Correct,sub_013_day_12_data.csv,1,300,142.0,Training at home,,,,,,,,,,,,,
13,15,3565,B,62.968111859854794,54.96560468626544,3.1484055929927397,0.863397699412461,B,456.9012001156807,Correct,sub_013_day_12_data.csv,1,300,142.0,Training at home,,,,,,,,,,,,,
13,15,3566,A,29.50415429285197,49.81246311519739,1.4752077146425986,0.7824523408995834,A,384.7399998921901,Correct,sub_013_day_12_data.csv,1,300,142.0,Training at home,,,,,,,,,,,,,
13,15,3567,B,57.54527902813347,50.800163760006086,2.8772639514066736,0.7979671063479679,B,511.1411998514086,Correct,sub_013_day_12_data.csv,1,300,142.0,Training at home,,,,,,,,,,,,,
13,15,3568,B,50.77975302808116,33.23182503940339,2.538987651404058,0.5220042870458551,B,423.0688998941332,Correct,sub_013_day_12_data.csv,1,300,142.0,Training at home,,,,,,,,,,,,,
13,15,3569,B,73.435652066489,51.01492346215658,3.6717826033244503,0.8013405438607835,B,438.67689999751747,Correct,sub_013_day_12_data.csv,1,300,142.0,Training at home,,,,,,,,,,,,,
13,15,3570,A,22.98952345778941,50.169554856525494,1.1494761728894705,0.788061524855653,A,427.9974999371916,Correct,sub_013_day_12_data.csv,1,300,142.0,Training at home,,,,,,,,,,,,,
13,15,3571,A,46.62728313884829,57.0348157858393,2.331364156942414,0.8959007913581994,B,518.9672000706196,Incorrect,sub_013_day_12_data.csv,0,300,142.0,Training at home,,,,,,,,,,,,,
13,15,3572,B,88.76476848709335,65.72569224031862,4.438238424354668,1.0324167594714433,B,506.9560001138598,Correct,sub_013_day_12_data.csv,1,300,142.0,Training at home,,,,,,,,,,,,,
13,15,3573,A,33.73894243293837,62.33276629051379,1.6869471216469183,0.9791208032810382,A,426.1928999330849,Correct,sub_013_day_12_data.csv,1,300,142.0,Training at home,,,,,,,,,,,,,
13,15,3574,A,29.074091226781952,56.664732366462985,1.4537045613390975,0.8900875346005594,A,502.54020001739264,Correct,sub_013_day_12_data.csv,1,300,142.0,Training at home,,,,,,,,,,,,,
13,15,3575,A,58.367045099184054,78.02335704784724,2.9183522549592027,1.2255880265496517,A,514.968000119552,Correct,sub_013_day_12_data.csv,1,300,143.0,Training at home,,,,,,,,,,,,,
13,15,3576,A,54.16935659817472,83.90410988625908,2.7084678299087357,1.3179626761233112,A,452.98970001749694,Correct,sub_013_day_12_data.csv,1,300,143.0,Training at home,,,,,,,,,,,,,
13,15,3577,B,80.63438840818083,61.029076593776225,4.031719420409042,0.958642493411881,B,564.3307000864297,Correct,sub_013_day_12_data.csv,1,300,143.0,Training at home,,,,,,,,,,,,,
13,15,3578,B,43.15626028971033,28.427819941531112,2.1578130144855168,0.4465431514294378,B,418.26350009068847,Correct,sub_013_day_12_data.csv,1,300,143.0,Training at home,,,,,,,,,,,,,
13,15,3579,A,15.53717025979639,38.64799699458952,0.7768585129898196,0.6070813171708143,A,468.0651999078691,Correct,sub_013_day_12_data.csv,1,300,143.0,Training at home,,,,,,,,,,,,,
13,15,3580,B,50.22235989582146,29.99618306760292,2.511117994791073,0.4711789418045794,B,348.22749998420477,Correct,sub_013_day_12_data.csv,1,300,143.0,Training at home,,,,,,,,,,,,,
13,15,3581,B,69.63536358122245,45.812692847529455,3.4817681790611226,0.719624096454821,B,460.09609987959266,Correct,sub_013_day_12_data.csv,1,300,143.0,Training at home,,,,,,,,,,,,,
13,15,3582,A,26.133178596039023,39.652885712205666,1.306658929801951,0.6228660722355049,A,437.6644000876695,Correct,sub_013_day_12_data.csv,1,300,143.0,Training at home,,,,,,,,,,,,,
13,15,3583,B,46.66201390073241,35.690689715571985,2.3331006950366207,0.5606280430599686,A,453.5520998761058,Incorrect,sub_013_day_12_data.csv,0,300,143.0,Training at home,,,,,,,,,,,,,
13,15,3584,B,77.63773704223145,51.9887762123178,3.881886852111572,0.816637787088707,B,413.69919991120696,Correct,sub_013_day_12_data.csv,1,300,143.0,Training at home,,,,,,,,,,,,,
13,15,3585,B,35.635153295864015,23.28570143699267,1.781757664793201,0.3657709428407073,B,461.6235999856144,Correct,sub_013_day_12_data.csv,1,300,143.0,Training at home,,,,,,,,,,,,,
13,15,3586,A,38.55313995070599,66.9299899599089,1.9276569975352995,1.051333823814442,A,414.9040000047534,Correct,sub_013_day_12_data.csv,1,300,143.0,Training at home,,,,,,,,,,,,,
13,15,3587,B,77.50422005660437,65.47505355492116,3.8752110028302185,1.028479736207693,B,486.6516999900341,Correct,sub_013_day_12_data.csv,1,300,143.0,Training at home,,,,,,,,,,,,,
13,15,3588,B,34.156965979642905,11.98907824243636,1.7078482989821453,0.1883240006487564,B,446.8390999827534,Correct,sub_013_day_12_data.csv,1,300,143.0,Training at home,,,,,,,,,,,,,
13,15,3589,A,52.8283088140207,66.3621534111716,2.641415440701035,1.0424142681646775,A,657.4843002017587,Correct,sub_013_day_12_data.csv,1,300,143.0,Training at home,,,,,,,,,,,,,
13,15,3590,A,54.89968506347276,73.14268584228451,2.744984253173638,1.148922622529736,A,562.5420999713242,Correct,sub_013_day_12_data.csv,1,300,143.0,Training at home,,,,,,,,,,,,,
13,15,3591,A,20.056951546268056,33.788451706004736,1.002847577313403,0.53074775827879,B,461.11429994925857,Incorrect,sub_013_day_12_data.csv,0,300,143.0,Training at home,,,,,,,,,,,,,
13,15,3592,B,46.70163765718573,38.554923918274746,2.3350818828592863,0.6056193287068267,B,476.293999934569,Correct,sub_013_day_12_data.csv,1,300,143.0,Training at home,,,,,,,,,,,,,
13,15,3593,A,30.620906747239673,52.11769766061837,1.5310453373619837,0.8186628804630631,B,541.7462999466807,Incorrect,sub_013_day_12_data.csv,0,300,143.0,Training at home,,,,,,,,,,,,,
13,15,3594,A,55.35031826333905,65.60773156289237,2.767515913166952,1.0305638374833692,A,574.2006001528352,Correct,sub_013_day_12_data.csv,1,300,143.0,Training at home,,,,,,,,,,,,,
13,15,3595,A,62.872191272748765,75.07674360381462,3.143609563637438,1.1793027308059425,B,461.8351000826806,Incorrect,sub_013_day_12_data.csv,0,300,143.0,Training at home,,,,,,,,,,,,,
13,15,3596,A,33.67621956415285,47.05103610184254,1.6838109782076427,0.7390759468066834,A,576.9313999917358,Correct,sub_013_day_12_data.csv,1,300,143.0,Training at home,,,,,,,,,,,,,
13,15,3597,A,49.43699207118173,71.22742563429944,2.4718496035590865,1.1188377855341425,A,406.13989997655153,Correct,sub_013_day_12_data.csv,1,300,143.0,Training at home,,,,,,,,,,,,,
13,15,3598,A,25.573741184898285,41.7489214793503,1.2786870592449142,0.6557905250741202,A,484.3119001016021,Correct,sub_013_day_12_data.csv,1,300,143.0,Training at home,,,,,,,,,,,,,
13,15,3599,B,46.06503736088045,24.780618528934113,2.303251868044023,0.3892530456095526,B,437.42120009846985,Correct,sub_013_day_12_data.csv,1,300,143.0,Training at home,,,,,,,,,,,,,
