subject,day,trial,cat,x,y,xt,yt,resp,rt,fb,f_name,acc,n_trials,block,session_type,ns_left_digit,ns_right_digit,ns_left_size,ns_right_size,ns_congruent,ns_cue,ns_correct_side,ns_resp,ns_rt,ns_fb,acc_stroop,acc_stroop_mean,resp_key
13,8,1500,A,50.59354887473797,58.552803710264726,2.5296774437368983,0.919745289916264,B,861.2137999734841,Incorrect,sub_013_day_06_data.csv,0,300,60.0,Training at home,,,,,,,,,,,,,
13,8,1501,B,79.06796837904767,65.53191506805044,3.9533984189523834,1.0293729147672877,B,421.8527999473736,Correct,sub_013_day_06_data.csv,1,300,60.0,Training at home,,,,,,,,,,,,,
13,8,1502,B,51.67267783797509,25.47230689288388,2.5836338918987543,0.4001180610233432,A,699.3923999834806,Incorrect,sub_013_day_06_data.csv,0,300,60.0,Training at home,,,,,,,,,,,,,
13,8,1503,B,60.37118750579213,34.57400005820695,3.0185593752896063,0.5430871229403801,B,536.8615000043064,Correct,sub_013_day_06_data.csv,1,300,60.0,Training at home,,,,,,,,,,,,,
13,8,1504,B,41.72033430015399,33.27480213682566,2.0860167150076996,0.5226793697135272,A,677.2561999969184,Incorrect,sub_013_day_06_data.csv,0,300,60.0,Training at home,,,,,,,,,,,,,
13,8,1505,B,59.91601946079849,50.59730542566794,2.995800973039924,0.7947806150835869,B,485.92519998783246,Correct,sub_013_day_06_data.csv,1,300,60.0,Training at home,,,,,,,,,,,,,
13,8,1506,B,72.67296386811476,55.15027651957268,3.6336481934057385,0.8662985177866759,B,407.79540000949055,Correct,sub_013_day_06_data.csv,1,300,60.0,Training at home,,,,,,,,,,,,,
13,8,1507,B,82.14566710375526,65.27364738480077,4.107283355187763,1.0253160554855034,B,352.0143000059761,Correct,sub_013_day_06_data.csv,1,300,60.0,Training at home,,,,,,,,,,,,,
13,8,1508,A,26.75289094995325,58.7057406730965,1.3376445474976626,0.9221476181107374,A,410.40410002460703,Correct,sub_013_day_06_data.csv,1,300,60.0,Training at home,,,,,,,,,,,,,
13,8,1509,A,62.430805498115845,78.51527304888958,3.121540274905792,1.233315025024941,B,493.08529996778816,Incorrect,sub_013_day_06_data.csv,0,300,60.0,Training at home,,,,,,,,,,,,,
13,8,1510,B,76.14261603211034,61.147055174834385,3.8071308016055174,0.9604956966295471,B,647.3538000136614,Correct,sub_013_day_06_data.csv,1,300,60.0,Training at home,,,,,,,,,,,,,
13,8,1511,A,59.0464660078528,82.44919423239308,2.9523233003926403,1.29510891447442,A,566.6233000229113,Correct,sub_013_day_06_data.csv,1,300,60.0,Training at home,,,,,,,,,,,,,
13,8,1512,A,23.664073045001235,56.05584292290007,1.1832036522500615,0.8805231215868312,A,470.2235000440851,Correct,sub_013_day_06_data.csv,1,300,60.0,Training at home,,,,,,,,,,,,,
13,8,1513,A,31.07929611101564,41.38915142571781,1.553964805550782,0.6501392702867529,A,565.308700024616,Correct,sub_013_day_06_data.csv,1,300,60.0,Training at home,,,,,,,,,,,,,
13,8,1514,B,63.42688297571531,48.18809288922171,3.1713441487857654,0.7569367930564073,B,595.6172000151128,Correct,sub_013_day_06_data.csv,1,300,60.0,Training at home,,,,,,,,,,,,,
13,8,1515,A,65.04030127521987,88.71532168764284,3.2520150637609935,1.3935370143737698,A,523.3949000248685,Correct,sub_013_day_06_data.csv,1,300,60.0,Training at home,,,,,,,,,,,,,
13,8,1516,B,52.094317484715425,40.79617391132071,2.604715874235771,0.6408248012718836,B,455.4597999667749,Correct,sub_013_day_06_data.csv,1,300,60.0,Training at home,,,,,,,,,,,,,
13,8,1517,A,61.55300361515109,80.1748769182988,3.0776501807575545,1.259384021644967,A,511.60630001686513,Correct,sub_013_day_06_data.csv,1,300,60.0,Training at home,,,,,,,,,,,,,
13,8,1518,A,29.75694653970789,54.79228229223381,1.4878473269853945,0.860675157613499,A,511.9210000266321,Correct,sub_013_day_06_data.csv,1,300,60.0,Training at home,,,,,,,,,,,,,
13,8,1519,B,43.684972611427554,20.799576762079845,2.1842486305713775,0.326718987767635,B,548.8905999809504,Correct,sub_013_day_06_data.csv,1,300,60.0,Training at home,,,,,,,,,,,,,
13,8,1520,A,49.228243506292706,64.41536393561331,2.4614121753146354,1.0118341705921785,A,615.6966999988072,Correct,sub_013_day_06_data.csv,1,300,60.0,Training at home,,,,,,,,,,,,,
13,8,1521,A,43.36377001832229,75.96985229525399,2.1681885009161146,1.193331649325358,A,457.0997999981046,Correct,sub_013_day_06_data.csv,1,300,60.0,Training at home,,,,,,,,,,,,,
13,8,1522,A,29.283323342230613,57.30918970312243,1.4641661671115307,0.9002106467725662,A,691.8910999665968,Correct,sub_013_day_06_data.csv,1,300,60.0,Training at home,,,,,,,,,,,,,
13,8,1523,B,42.42701646211916,18.850640151633183,2.121350823105958,0.296105163079178,B,604.2290999903344,Correct,sub_013_day_06_data.csv,1,300,60.0,Training at home,,,,,,,,,,,,,
13,8,1524,B,39.44888283009536,20.74308389351078,1.972444141504768,0.3258315998632511,B,485.1932000019587,Correct,sub_013_day_06_data.csv,1,300,60.0,Training at home,,,,,,,,,,,,,
13,8,1525,B,50.50708172957047,37.60670778009151,2.5253540864785236,0.5907247844381681,B,609.6273000002839,Correct,sub_013_day_06_data.csv,1,300,61.0,Training at home,,,,,,,,,,,,,
13,8,1526,B,58.223974657488405,40.60314222142801,2.9111987328744204,0.6377926665774989,B,476.055700040888,Correct,sub_013_day_06_data.csv,1,300,61.0,Training at home,,,,,,,,,,,,,
13,8,1527,A,16.69211413581566,37.1754231209774,0.834605706790783,0.5839501808547737,A,619.99510001624,Correct,sub_013_day_06_data.csv,1,300,61.0,Training at home,,,,,,,,,,,,,
13,8,1528,A,47.18234795589928,74.4921190977575,2.359117397794964,1.1701194705392544,B,800.8664000080898,Incorrect,sub_013_day_06_data.csv,0,300,61.0,Training at home,,,,,,,,,,,,,
13,8,1529,A,31.435803081574313,63.55762887897254,1.5717901540787156,0.9983608998288328,A,500.17019995721057,Correct,sub_013_day_06_data.csv,1,300,61.0,Training at home,,,,,,,,,,,,,
13,8,1530,B,57.32204294595901,48.659646267404064,2.866102147297951,0.7643439361997729,B,455.7015000027605,Correct,sub_013_day_06_data.csv,1,300,61.0,Training at home,,,,,,,,,,,,,
13,8,1531,B,85.29246615016554,67.65787355181325,4.264623307508277,1.0627673925394183,B,394.7123000398278,Correct,sub_013_day_06_data.csv,1,300,61.0,Training at home,,,,,,,,,,,,,
13,8,1532,B,81.46076872226323,50.373255875852095,4.073038436113161,0.7912612529848789,B,530.8274000417441,Correct,sub_013_day_06_data.csv,1,300,61.0,Training at home,,,,,,,,,,,,,
13,8,1533,A,11.681138766182748,33.99816711453602,0.5840569383091374,0.5340419602127222,A,402.78000000398606,Correct,sub_013_day_06_data.csv,1,300,61.0,Training at home,,,,,,,,,,,,,
13,8,1534,A,47.14369474784095,59.90813253564957,2.3571847373920476,0.941034745321402,B,516.2734999903478,Incorrect,sub_013_day_06_data.csv,0,300,61.0,Training at home,,,,,,,,,,,,,
13,8,1535,A,44.03312332374242,56.477732727393494,2.2016561661871212,0.8871501511389362,B,541.0333999898285,Incorrect,sub_013_day_06_data.csv,0,300,61.0,Training at home,,,,,,,,,,,,,
13,8,1536,B,77.0448407566585,63.462132494680546,3.852242037832925,0.9968608461321524,B,529.3787999544293,Correct,sub_013_day_06_data.csv,1,300,61.0,Training at home,,,,,,,,,,,,,
13,8,1537,A,54.51303936098379,81.81810756573105,2.7256519680491897,1.2851958282956009,A,795.3924000030383,Correct,sub_013_day_06_data.csv,1,300,61.0,Training at home,,,,,,,,,,,,,
13,8,1538,A,26.40692071528896,52.27203085279598,1.320346035764448,0.8210871405768142,A,673.8279999699444,Correct,sub_013_day_06_data.csv,1,300,61.0,Training at home,,,,,,,,,,,,,
13,8,1539,A,35.00060894351097,50.10677730608563,1.7500304471755483,0.7870754173992921,A,511.99309999356046,Correct,sub_013_day_06_data.csv,1,300,61.0,Training at home,,,,,,,,,,,,,
13,8,1540,B,78.31385644992471,61.94304169280556,3.915692822496236,0.9729990236156212,B,451.7037000041455,Correct,sub_013_day_06_data.csv,1,300,61.0,Training at home,,,,,,,,,,,,,
13,8,1541,A,49.408102635109714,70.40285809049716,2.4704051317554856,1.105885508844153,A,617.1564999967813,Correct,sub_013_day_06_data.csv,1,300,61.0,Training at home,,,,,,,,,,,,,
13,8,1542,A,30.949234529301098,58.67783976264611,1.5474617264650548,0.9217093516342404,A,492.9290000000037,Correct,sub_013_day_06_data.csv,1,300,61.0,Training at home,,,,,,,,,,,,,
13,8,1543,A,28.013206316393127,58.23416627633297,1.4006603158196562,0.9147401448082708,A,440.2381000109017,Correct,sub_013_day_06_data.csv,1,300,61.0,Training at home,,,,,,,,,,,,,
13,8,1544,B,43.02845635198105,25.569171386972776,2.1514228175990526,0.4016396049384601,B,603.2221000059508,Correct,sub_013_day_06_data.csv,1,300,61.0,Training at home,,,,,,,,,,,,,
13,8,1545,B,54.2753889657563,34.76320749484523,2.713769448287815,0.5460591864051171,B,566.0856000031345,Correct,sub_013_day_06_data.csv,1,300,61.0,Training at home,,,,,,,,,,,,,
13,8,1546,A,24.201218746497013,40.549337288388514,1.2100609373248503,0.6369475006656802,A,464.03489995282143,Correct,sub_013_day_06_data.csv,1,300,61.0,Training at home,,,,,,,,,,,,,
13,8,1547,B,77.11204445463548,45.60971863298157,3.8556022227317737,0.716435784948362,B,540.6078000087291,Correct,sub_013_day_06_data.csv,1,300,61.0,Training at home,,,,,,,,,,,,,
13,8,1548,A,58.69924412033707,80.6491887937745,2.934962206016854,1.266834495162491,A,1108.9212999795564,Correct,sub_013_day_06_data.csv,1,300,61.0,Training at home,,,,,,,,,,,,,
13,8,1549,B,40.30537275415122,21.363657961816624,2.0152686377075613,0.335579554533241,B,835.0234000245109,Correct,sub_013_day_06_data.csv,1,300,61.0,Training at home,,,,,,,,,,,,,
13,8,1550,B,37.61769285759103,11.66936634288868,1.8808846428795516,0.1833019778743353,B,597.2670000046492,Correct,sub_013_day_06_data.csv,1,300,62.0,Training at home,,,,,,,,,,,,,
13,8,1551,A,65.81551615542844,87.39546758765565,3.290775807771422,1.3728047946521196,A,619.0100999665447,Correct,sub_013_day_06_data.csv,1,300,62.0,Training at home,,,,,,,,,,,,,
13,8,1552,A,36.34849670824928,66.73286380641201,1.817424835412464,1.048237373436161,A,1077.1542000002228,Correct,sub_013_day_06_data.csv,1,300,62.0,Training at home,,,,,,,,,,,,,
13,8,1553,A,25.940215788396785,45.31343835321268,1.2970107894198393,0.7117818251967347,A,585.3384000365622,Correct,sub_013_day_06_data.csv,1,300,62.0,Training at home,,,,,,,,,,,,,
13,8,1554,A,44.83553378772564,69.68436272570979,2.241776689386282,1.0945994100458811,B,971.9850999535992,Incorrect,sub_013_day_06_data.csv,0,300,62.0,Training at home,,,,,,,,,,,,,
13,8,1555,B,60.8357717471005,32.547897633110864,3.041788587355025,0.5112611804698686,B,566.9183999998495,Correct,sub_013_day_06_data.csv,1,300,62.0,Training at home,,,,,,,,,,,,,
13,8,1556,A,56.3420719353835,64.57187120225717,2.817103596769175,1.0142925809877872,A,871.1022000061348,Correct,sub_013_day_06_data.csv,1,300,62.0,Training at home,,,,,,,,,,,,,
13,8,1557,B,31.1902247944692,11.946155518354256,1.5595112397234598,0.1876497720755144,B,1080.5245999945328,Correct,sub_013_day_06_data.csv,1,300,62.0,Training at home,,,,,,,,,,,,,
13,8,1558,A,57.34839305378938,70.13663434864856,2.867419652689469,1.1017036760861394,A,785.6344999745488,Correct,sub_013_day_06_data.csv,1,300,62.0,Training at home,,,,,,,,,,,,,
13,8,1559,A,60.53637245646906,76.04312650352324,3.0268186228234533,1.1944826378973394,B,739.956000004895,Incorrect,sub_013_day_06_data.csv,0,300,62.0,Training at home,,,,,,,,,,,,,
13,8,1560,A,28.860454635747203,52.73079903186302,1.44302273178736,0.8282934542821031,A,615.906199964229,Correct,sub_013_day_06_data.csv,1,300,62.0,Training at home,,,,,,,,,,,,,
13,8,1561,A,65.91419490816855,78.39995403137661,3.295709745408428,1.2315035981337512,A,676.4514000387862,Correct,sub_013_day_06_data.csv,1,300,62.0,Training at home,,,,,,,,,,,,,
13,8,1562,B,64.26312502595776,34.962057810826195,3.2131562512978884,0.5491827198643661,B,609.6729999990202,Correct,sub_013_day_06_data.csv,1,300,62.0,Training at home,,,,,,,,,,,,,
13,8,1563,A,36.65406917313367,50.09025106818138,1.8327034586566835,0.7868158238613345,A,497.47510004090145,Correct,sub_013_day_06_data.csv,1,300,62.0,Training at home,,,,,,,,,,,,,
13,8,1564,B,67.23158482369367,54.96552545433714,3.361579241184683,0.8633964548402416,B,654.5258999685757,Correct,sub_013_day_06_data.csv,1,300,62.0,Training at home,,,,,,,,,,,,,
13,8,1565,A,36.20453302474894,57.64071843885655,1.810226651237447,0.9054182879757472,A,477.4697000393644,Correct,sub_013_day_06_data.csv,1,300,62.0,Training at home,,,,,,,,,,,,,
13,8,1566,B,49.13636737425422,35.7316219203591,2.456818368712711,0.5612710046292408,A,542.72949998267,Incorrect,sub_013_day_06_data.csv,0,300,62.0,Training at home,,,,,,,,,,,,,
13,8,1567,B,57.94869979238388,46.08520438635935,2.8974349896191938,0.7239046976968532,B,790.0579000124708,Correct,sub_013_day_06_data.csv,1,300,62.0,Training at home,,,,,,,,,,,,,
13,8,1568,B,48.708162100390595,29.855586832997073,2.4354081050195298,0.4689704613157788,B,1470.8411999745294,Correct,sub_013_day_06_data.csv,1,300,62.0,Training at home,,,,,,,,,,,,,
13,8,1569,B,61.87738156528344,29.981284652696345,3.093869078264172,0.4709449180504761,B,515.6294999760576,Correct,sub_013_day_06_data.csv,1,300,62.0,Training at home,,,,,,,,,,,,,
13,8,1570,B,79.26450883282456,55.974509321358255,3.963225441641228,0.8792455363613624,B,555.0820999778807,Correct,sub_013_day_06_data.csv,1,300,62.0,Training at home,,,,,,,,,,,,,
13,8,1571,A,40.679935795990126,49.22171234409634,2.0339967897995064,0.7731728494866155,A,553.671800007578,Correct,sub_013_day_06_data.csv,1,300,62.0,Training at home,,,,,,,,,,,,,
13,8,1572,B,55.17521829440964,41.27173653455513,2.7587609147204817,0.6482949214892593,B,694.0474999719299,Correct,sub_013_day_06_data.csv,1,300,62.0,Training at home,,,,,,,,,,,,,
13,8,1573,A,48.34010600141241,74.42360146090496,2.4170053000706204,1.1690431980163682,A,529.7384000150487,Correct,sub_013_day_06_data.csv,1,300,62.0,Training at home,,,,,,,,,,,,,
13,8,1574,B,48.01405041568944,19.472697370584452,2.400702520784472,0.305876415025027,B,521.5481999912299,Correct,sub_013_day_06_data.csv,1,300,62.0,Training at home,,,,,,,,,,,,,
13,8,1575,B,64.59218422371569,37.15294444319825,3.2296092111857844,0.5835970866099067,B,529.6009999583475,Correct,sub_013_day_06_data.csv,1,300,63.0,Training at home,,,,,,,,,,,,,
13,8,1576,B,32.829773814004206,16.129420506496245,1.6414886907002102,0.2533603448493458,A,536.6150999907404,Incorrect,sub_013_day_06_data.csv,0,300,63.0,Training at home,,,,,,,,,,,,,
13,8,1577,B,78.45461553009957,64.61579311609697,3.9227307765049786,1.0149825047970409,B,1036.119000054896,Correct,sub_013_day_06_data.csv,1,300,63.0,Training at home,,,,,,,,,,,,,
13,8,1578,A,32.61352476386857,56.49961390060939,1.6306762381934283,0.8874938598040711,A,801.982400007546,Correct,sub_013_day_06_data.csv,1,300,63.0,Training at home,,,,,,,,,,,,,
13,8,1579,B,46.513580347917305,19.748463053220355,2.3256790173958652,0.3102081322384326,B,475.654499954544,Correct,sub_013_day_06_data.csv,1,300,63.0,Training at home,,,,,,,,,,,,,
13,8,1580,B,53.65375479768336,41.87939501272654,2.682687739884168,0.6578399985438337,B,481.6343999700621,Correct,sub_013_day_06_data.csv,1,300,63.0,Training at home,,,,,,,,,,,,,
13,8,1581,A,66.97959266703752,89.3178782404977,3.348979633351876,1.403001950572876,A,489.8653999553062,Correct,sub_013_day_06_data.csv,1,300,63.0,Training at home,,,,,,,,,,,,,
13,8,1582,A,36.09916470435828,66.01355962077223,1.804958235217914,1.0369385697096491,A,658.482400001958,Correct,sub_013_day_06_data.csv,1,300,63.0,Training at home,,,,,,,,,,,,,
13,8,1583,A,60.52539781022054,73.92908478274255,3.026269890511027,1.1612753482004046,A,665.231799997855,Correct,sub_013_day_06_data.csv,1,300,63.0,Training at home,,,,,,,,,,,,,
13,8,1584,A,30.827066086550868,39.935472396297016,1.5413533043275434,0.6273049334892232,A,501.8830000190064,Correct,sub_013_day_06_data.csv,1,300,63.0,Training at home,,,,,,,,,,,,,
13,8,1585,A,44.96359206411488,57.80016732450932,2.248179603205744,0.9079229052146964,A,862.9781999625266,Correct,sub_013_day_06_data.csv,1,300,63.0,Training at home,,,,,,,,,,,,,
13,8,1586,B,39.97177532688967,15.021618536627797,1.9985887663444837,0.2359590321984906,B,719.998000015039,Correct,sub_013_day_06_data.csv,1,300,63.0,Training at home,,,,,,,,,,,,,
13,8,1587,A,51.79259081083727,66.609588190386,2.5896295405418637,1.0463009645877908,A,481.0997000313364,Correct,sub_013_day_06_data.csv,1,300,63.0,Training at home,,,,,,,,,,,,,
13,8,1588,A,15.698402681725655,31.09172168117436,0.7849201340862828,0.4883876221051793,A,548.8723000162281,Correct,sub_013_day_06_data.csv,1,300,63.0,Training at home,,,,,,,,,,,,,
13,8,1589,A,60.58332872190141,74.42159439273102,3.0291664360950703,1.1690116710632157,B,749.690400029067,Incorrect,sub_013_day_06_data.csv,0,300,63.0,Training at home,,,,,,,,,,,,,
13,8,1590,A,40.614335803735685,64.92759030616122,2.0307167901867844,1.0198802036056198,A,968.1369999889284,Correct,sub_013_day_06_data.csv,1,300,63.0,Training at home,,,,,,,,,,,,,
13,8,1591,A,57.970713001959865,80.38207794028759,2.8985356500979935,1.2626387276874484,A,1015.4968000133522,Correct,sub_013_day_06_data.csv,1,300,63.0,Training at home,,,,,,,,,,,,,
13,8,1592,B,66.30357861459314,52.779871255034216,3.3151789307296564,0.829064278961153,A,830.3568999981508,Incorrect,sub_013_day_06_data.csv,0,300,63.0,Training at home,,,,,,,,,,,,,
13,8,1593,B,77.37620167719304,50.2585569320358,3.868810083859651,0.7894595661885403,B,724.8882999992929,Correct,sub_013_day_06_data.csv,1,300,63.0,Training at home,,,,,,,,,,,,,
13,8,1594,B,68.5850874592352,54.490135481704726,3.4292543729617595,0.8559290466121804,B,651.8152999924496,Correct,sub_013_day_06_data.csv,1,300,63.0,Training at home,,,,,,,,,,,,,
13,8,1595,A,37.651701799573075,60.04473158795221,1.8825850899786536,0.9431804382174082,A,681.7556999740191,Correct,sub_013_day_06_data.csv,1,300,63.0,Training at home,,,,,,,,,,,,,
13,8,1596,A,37.78694549163722,48.768905462049105,1.8893472745818611,0.7660601756159429,A,1174.2647999781184,Correct,sub_013_day_06_data.csv,1,300,63.0,Training at home,,,,,,,,,,,,,
13,8,1597,B,70.44141595095435,38.59545747040463,3.522070797547718,0.6062560282548025,B,1686.120200029109,Correct,sub_013_day_06_data.csv,1,300,63.0,Training at home,,,,,,,,,,,,,
13,8,1598,A,33.167526351596806,61.60548431518327,1.65837631757984,0.9676966847271048,A,589.2702999990433,Correct,sub_013_day_06_data.csv,1,300,63.0,Training at home,,,,,,,,,,,,,
13,8,1599,A,60.51401776768408,73.43854542082435,3.025700888384204,1.1535699739219103,A,1075.963800016325,Correct,sub_013_day_06_data.csv,1,300,63.0,Training at home,,,,,,,,,,,,,
13,8,1600,B,59.4513528272352,37.741286125655606,2.97256764136176,0.5928387361469502,B,560.7458999729715,Correct,sub_013_day_06_data.csv,1,300,64.0,Training at home,,,,,,,,,,,,,
13,8,1601,B,58.44275501235368,39.67334870265927,2.922137750617684,0.6231875041379025,A,978.1459999503568,Incorrect,sub_013_day_06_data.csv,0,300,64.0,Training at home,,,,,,,,,,,,,
13,8,1602,B,80.46477213822955,49.330709935800414,4.023238606911478,0.7748849796533981,B,833.8311000261456,Correct,sub_013_day_06_data.csv,1,300,64.0,Training at home,,,,,,,,,,,,,
13,8,1603,A,16.557959340505583,36.07930976181594,0.8278979670252792,0.5667324724715574,A,461.2250000354834,Correct,sub_013_day_06_data.csv,1,300,64.0,Training at home,,,,,,,,,,,,,
13,8,1604,B,67.4219792274373,52.56666251876507,3.371098961371865,0.8257152039634315,B,668.4218000154942,Correct,sub_013_day_06_data.csv,1,300,64.0,Training at home,,,,,,,,,,,,,
13,8,1605,A,50.94706901257263,62.753702184207405,2.5473534506286315,0.9857328488373388,A,832.4047999922186,Correct,sub_013_day_06_data.csv,1,300,64.0,Training at home,,,,,,,,,,,,,
13,8,1606,B,42.68498178816337,29.8568873619358,2.1342490894081685,0.4689908899765773,B,799.775299965404,Correct,sub_013_day_06_data.csv,1,300,64.0,Training at home,,,,,,,,,,,,,
13,8,1607,B,75.77468617550272,48.60188529573068,3.788734308775136,0.7634366289784064,B,622.1556999953464,Correct,sub_013_day_06_data.csv,1,300,64.0,Training at home,,,,,,,,,,,,,
13,8,1608,B,53.108352414402255,33.370861510101754,2.655417620720113,0.5241882668204904,B,564.0650999848731,Correct,sub_013_day_06_data.csv,1,300,64.0,Training at home,,,,,,,,,,,,,
13,8,1609,A,46.31016043959633,68.23228876775856,2.3155080219798165,1.0717902856520385,A,638.8569999835454,Correct,sub_013_day_06_data.csv,1,300,64.0,Training at home,,,,,,,,,,,,,
13,8,1610,B,79.27549127147789,66.37545928588902,3.9637745635738946,1.0426232763559868,B,710.1057000108995,Correct,sub_013_day_06_data.csv,1,300,64.0,Training at home,,,,,,,,,,,,,
13,8,1611,A,40.80283152903456,54.10545829883593,2.0401415764517283,0.8498865515536592,A,709.6594000468031,Correct,sub_013_day_06_data.csv,1,300,64.0,Training at home,,,,,,,,,,,,,
13,8,1612,A,45.52748383228451,74.85285139286354,2.2763741916142255,1.1757858401803432,A,894.0910000237636,Correct,sub_013_day_06_data.csv,1,300,64.0,Training at home,,,,,,,,,,,,,
13,8,1613,B,86.4184519037638,65.08811174483463,4.32092259518819,1.02240166846802,B,548.6524000298232,Correct,sub_013_day_06_data.csv,1,300,64.0,Training at home,,,,,,,,,,,,,
13,8,1614,B,88.87485041062091,65.54736411143851,4.443742520531045,1.0296155877733524,B,541.4865000057034,Correct,sub_013_day_06_data.csv,1,300,64.0,Training at home,,,,,,,,,,,,,
13,8,1615,B,73.80001087980489,54.998486637825735,3.690000543990244,0.8639142078997485,B,953.129799978342,Correct,sub_013_day_06_data.csv,1,300,64.0,Training at home,,,,,,,,,,,,,
13,8,1616,B,66.83006145023674,55.08377842342868,3.341503072511837,0.8652539681350575,B,1185.4253999772482,Correct,sub_013_day_06_data.csv,1,300,64.0,Training at home,,,,,,,,,,,,,
13,8,1617,B,60.03916325866569,27.28924854753829,3.0019581629332843,0.4286585137946611,B,566.5267999866046,Correct,sub_013_day_06_data.csv,1,300,64.0,Training at home,,,,,,,,,,,,,
13,8,1618,B,35.92187749668226,10.536076085025002,1.7960938748341129,0.1655002961318883,B,736.9178000371903,Correct,sub_013_day_06_data.csv,1,300,64.0,Training at home,,,,,,,,,,,,,
13,8,1619,A,57.472080902021126,72.52761360217033,2.8736040451010565,1.1392610903748872,A,868.5357000213116,Correct,sub_013_day_06_data.csv,1,300,64.0,Training at home,,,,,,,,,,,,,
13,8,1620,B,86.7520419969346,69.06264952337493,4.33760209984673,1.0848335619004066,B,1398.8057000096887,Correct,sub_013_day_06_data.csv,1,300,64.0,Training at home,,,,,,,,,,,,,
13,8,1621,A,21.250104168544183,32.9774953570663,1.062505208427209,0.5180092857377551,A,540.8698999672197,Correct,sub_013_day_06_data.csv,1,300,64.0,Training at home,,,,,,,,,,,,,
13,8,1622,B,53.8691556856064,29.199375342612612,2.69345778428032,0.4586627153288136,B,601.6008000005968,Correct,sub_013_day_06_data.csv,1,300,64.0,Training at home,,,,,,,,,,,,,
13,8,1623,A,18.543139582536337,48.70735741673016,0.9271569791268166,0.7650933811808591,A,743.6858000000939,Correct,sub_013_day_06_data.csv,1,300,64.0,Training at home,,,,,,,,,,,,,
13,8,1624,B,80.51822204891732,66.24104959672844,4.025911102445866,1.0405119738957962,B,1094.9536999687552,Correct,sub_013_day_06_data.csv,1,300,64.0,Training at home,,,,,,,,,,,,,
13,8,1625,A,46.71803684701878,67.2659382395298,2.335901842350939,1.056610887050658,A,535.8875999809243,Correct,sub_013_day_06_data.csv,1,300,65.0,Training at home,,,,,,,,,,,,,
13,8,1626,B,51.48911962451388,21.542762896466495,2.5744559812256944,0.3383929282678296,B,565.4443999519572,Correct,sub_013_day_06_data.csv,1,300,65.0,Training at home,,,,,,,,,,,,,
13,8,1627,B,69.39835010724593,48.30513997271719,3.469917505362297,0.7587753643445749,B,1468.8921999768354,Correct,sub_013_day_06_data.csv,1,300,65.0,Training at home,,,,,,,,,,,,,
13,8,1628,A,51.42710022297069,69.93205772113232,2.571355011148534,1.0984901939356333,A,669.0892000333406,Correct,sub_013_day_06_data.csv,1,300,65.0,Training at home,,,,,,,,,,,,,
13,8,1629,A,56.14615920196896,74.30138977145042,2.807307960098448,1.1671235012875023,A,600.3790000104345,Correct,sub_013_day_06_data.csv,1,300,65.0,Training at home,,,,,,,,,,,,,
13,8,1630,A,27.410514402239976,37.46890453904291,1.370525720111999,0.5885601761895722,A,770.2907999628223,Correct,sub_013_day_06_data.csv,1,300,65.0,Training at home,,,,,,,,,,,,,
13,8,1631,A,60.19530169894279,71.50232805207156,3.00976508494714,1.123155942614777,A,910.8219999470748,Correct,sub_013_day_06_data.csv,1,300,65.0,Training at home,,,,,,,,,,,,,
13,8,1632,B,68.12852388304546,51.77854261756429,3.4064261941522727,0.8133354455046299,B,1777.24650001619,Correct,sub_013_day_06_data.csv,1,300,65.0,Training at home,,,,,,,,,,,,,
13,8,1633,A,48.732894120547165,67.06455745185673,2.436644706027358,1.0534476050350186,A,551.9251000368968,Correct,sub_013_day_06_data.csv,1,300,65.0,Training at home,,,,,,,,,,,,,
13,8,1634,B,40.9321232795264,20.623364797443287,2.04660616397632,0.3239510566997509,B,576.4443000080064,Correct,sub_013_day_06_data.csv,1,300,65.0,Training at home,,,,,,,,,,,,,
13,8,1635,A,24.493002395912065,35.81354095158915,1.2246501197956032,0.5625577857627484,A,633.4027000120841,Correct,sub_013_day_06_data.csv,1,300,65.0,Training at home,,,,,,,,,,,,,
13,8,1636,A,14.729795310733902,42.95410003915866,0.7364897655366951,0.6747214256229094,A,481.9342000409961,Correct,sub_013_day_06_data.csv,1,300,65.0,Training at home,,,,,,,,,,,,,
13,8,1637,B,61.22716632192781,41.35870087439695,3.06135831609639,0.649660954145116,B,706.4007000299171,Correct,sub_013_day_06_data.csv,1,300,65.0,Training at home,,,,,,,,,,,,,
13,8,1638,B,58.64912394277907,41.53416464887344,2.9324561971389533,0.6524171326694485,B,644.0380999702029,Correct,sub_013_day_06_data.csv,1,300,65.0,Training at home,,,,,,,,,,,,,
13,8,1639,A,54.08968941321565,70.20650906576503,2.7044844706607822,1.1028012655759631,A,464.0521999681369,Correct,sub_013_day_06_data.csv,1,300,65.0,Training at home,,,,,,,,,,,,,
13,8,1640,A,60.18421329431591,85.53915253365517,3.0092106647157952,1.3436458659701391,A,697.8466000291519,Correct,sub_013_day_06_data.csv,1,300,65.0,Training at home,,,,,,,,,,,,,
13,8,1641,A,66.30487375982196,82.73199471366448,3.3152436879910976,1.2995511340463894,A,580.1794999861158,Correct,sub_013_day_06_data.csv,1,300,65.0,Training at home,,,,,,,,,,,,,
13,8,1642,B,79.64505520874087,67.53893290437159,3.982252760437043,1.0608990772183386,B,740.2112999698147,Correct,sub_013_day_06_data.csv,1,300,65.0,Training at home,,,,,,,,,,,,,
13,8,1643,B,35.63746672588286,20.739152285425224,1.781873336294143,0.3257698423078592,A,514.4962999620475,Incorrect,sub_013_day_06_data.csv,0,300,65.0,Training at home,,,,,,,,,,,,,
13,8,1644,B,77.34097559130088,52.87297819960307,3.867048779565044,0.8305267994264314,B,601.0461999685504,Correct,sub_013_day_06_data.csv,1,300,65.0,Training at home,,,,,,,,,,,,,
13,8,1645,A,40.42895740108966,68.05470352489098,2.021447870054483,1.0690007831801445,A,520.5068999784999,Correct,sub_013_day_06_data.csv,1,300,65.0,Training at home,,,,,,,,,,,,,
13,8,1646,A,49.2681152204884,59.70822477110247,2.46340576102442,0.9378946014989182,A,896.0932000190951,Correct,sub_013_day_06_data.csv,1,300,65.0,Training at home,,,,,,,,,,,,,
13,8,1647,A,17.3110538797143,41.19018051627516,0.8655526939857151,0.6470138425498373,A,530.7143999962136,Correct,sub_013_day_06_data.csv,1,300,65.0,Training at home,,,,,,,,,,,,,
13,8,1648,A,62.15679346498521,72.73771679638332,3.1078396732492606,1.1425613836320638,A,1291.838100005407,Correct,sub_013_day_06_data.csv,1,300,65.0,Training at home,,,,,,,,,,,,,
13,8,1649,B,38.82588228639757,19.480522827650777,1.9412941143198787,0.3059993370171797,A,641.2268999847583,Incorrect,sub_013_day_06_data.csv,0,300,65.0,Training at home,,,,,,,,,,,,,
13,8,1650,B,47.935780522835415,31.582915960649288,2.3967890261417706,0.4961032838045981,B,1002.2786000045016,Correct,sub_013_day_06_data.csv,1,300,66.0,Training at home,,,,,,,,,,,,,
13,8,1651,A,55.43433093720984,83.86663771231954,2.7717165468604925,1.3173740645914989,A,598.2513999915682,Correct,sub_013_day_06_data.csv,1,300,66.0,Training at home,,,,,,,,,,,,,
13,8,1652,A,36.5639075342553,49.09030432405306,1.828195376712765,0.7711086971346616,A,595.5824999837205,Correct,sub_013_day_06_data.csv,1,300,66.0,Training at home,,,,,,,,,,,,,
13,8,1653,A,37.974392103592024,62.057396494895166,1.8987196051796016,0.9747953046463582,A,587.6378000248224,Correct,sub_013_day_06_data.csv,1,300,66.0,Training at home,,,,,,,,,,,,,
13,8,1654,A,27.9155265166413,43.85381534539211,1.395776325832065,0.688854120604836,A,616.7773000197485,Correct,sub_013_day_06_data.csv,1,300,66.0,Training at home,,,,,,,,,,,,,
13,8,1655,A,37.43057063905889,55.556830234332885,1.8715285319529444,0.8726846486045774,A,690.2824999997392,Correct,sub_013_day_06_data.csv,1,300,66.0,Training at home,,,,,,,,,,,,,
13,8,1656,B,41.01980471240921,21.79674993321988,2.050990235620461,0.342382547311687,B,516.6992000304163,Correct,sub_013_day_06_data.csv,1,300,66.0,Training at home,,,,,,,,,,,,,
13,8,1657,A,36.45321836785668,60.05444603435478,1.8226609183928335,0.9433330323846684,A,493.1970000034198,Correct,sub_013_day_06_data.csv,1,300,66.0,Training at home,,,,,,,,,,,,,
13,8,1658,B,45.241146006521944,35.72549619989236,2.2620573003260973,0.5611747820371596,B,602.3315000347793,Correct,sub_013_day_06_data.csv,1,300,66.0,Training at home,,,,,,,,,,,,,
13,8,1659,B,53.39353581687462,29.489332990922268,2.6696767908437313,0.4632173594177225,B,477.999800001271,Correct,sub_013_day_06_data.csv,1,300,66.0,Training at home,,,,,,,,,,,,,
13,8,1660,A,43.80971927498768,59.673146631208226,2.190485963749384,0.9373435953659514,A,1071.3033999782056,Correct,sub_013_day_06_data.csv,1,300,66.0,Training at home,,,,,,,,,,,,,
13,8,1661,B,77.95525258466745,60.31910770083013,3.897762629233372,0.9474903281200971,B,528.3863000222482,Correct,sub_013_day_06_data.csv,1,300,66.0,Training at home,,,,,,,,,,,,,
13,8,1662,A,44.04323855827806,70.83786813773786,2.2021619279139033,1.1127186306873986,A,565.7534999772906,Correct,sub_013_day_06_data.csv,1,300,66.0,Training at home,,,,,,,,,,,,,
13,8,1663,A,41.692090283010565,50.59856390440518,2.0846045141505285,0.794800383221365,A,666.1512000137009,Correct,sub_013_day_06_data.csv,1,300,66.0,Training at home,,,,,,,,,,,,,
13,8,1664,A,38.392196829931954,48.05805578397187,1.9196098414965976,0.7548941749836724,A,489.9542999919504,Correct,sub_013_day_06_data.csv,1,300,66.0,Training at home,,,,,,,,,,,,,
13,8,1665,A,30.462660996159062,39.68765308069892,1.5231330498079532,0.6234121967827203,A,1034.396300034132,Correct,sub_013_day_06_data.csv,1,300,66.0,Training at home,,,,,,,,,,,,,
13,8,1666,B,68.34226053391491,46.73125091701513,3.4171130266957452,0.7340527728697801,B,503.0493999947794,Correct,sub_013_day_06_data.csv,1,300,66.0,Training at home,,,,,,,,,,,,,
13,8,1667,B,61.85490493111821,30.8995676491664,3.0927452465559107,0.48536927362861,B,443.9901000005193,Correct,sub_013_day_06_data.csv,1,300,66.0,Training at home,,,,,,,,,,,,,
13,8,1668,B,88.93808913857714,64.62044307404177,4.446904456928857,1.0150555461656352,B,675.7469999720342,Correct,sub_013_day_06_data.csv,1,300,66.0,Training at home,,,,,,,,,,,,,
13,8,1669,B,38.01856772191736,21.50594755160897,1.900928386095868,0.3378146341831106,B,655.0364000140689,Correct,sub_013_day_06_data.csv,1,300,66.0,Training at home,,,,,,,,,,,,,
13,8,1670,A,32.923651534631894,62.92570474908918,1.6461825767315943,0.9884346588084946,A,549.0106000215746,Correct,sub_013_day_06_data.csv,1,300,66.0,Training at home,,,,,,,,,,,,,
13,8,1671,B,31.55207064881759,11.798862961531288,1.5776035324408797,0.185336106003297,B,496.1289999773726,Correct,sub_013_day_06_data.csv,1,300,66.0,Training at home,,,,,,,,,,,,,
13,8,1672,A,23.062787615516395,38.63306907611678,1.15313938077582,0.6068468299757774,A,1064.6349000162445,Correct,sub_013_day_06_data.csv,1,300,66.0,Training at home,,,,,,,,,,,,,
13,8,1673,B,32.265187702190325,18.603964472029396,1.6132593851095165,0.2922303905648652,A,793.6552000464872,Incorrect,sub_013_day_06_data.csv,0,300,66.0,Training at home,,,,,,,,,,,,,
13,8,1674,B,71.57777082816888,40.72249610001699,3.578888541408444,0.6396674729182619,B,1119.319199991878,Correct,sub_013_day_06_data.csv,1,300,66.0,Training at home,,,,,,,,,,,,,
13,8,1675,B,84.54347971337174,67.68119069812874,4.227173985668587,1.0631336574172556,B,1081.040600023698,Correct,sub_013_day_06_data.csv,1,300,67.0,Training at home,,,,,,,,,,,,,
13,8,1676,A,33.9502573155372,52.24141792398176,1.69751286577686,0.8206062738154762,A,647.9210000252351,Correct,sub_013_day_06_data.csv,1,300,67.0,Training at home,,,,,,,,,,,,,
13,8,1677,B,38.45516957141099,28.234569955947755,1.9227584785705496,0.4435075877543628,B,700.1197999925353,Correct,sub_013_day_06_data.csv,1,300,67.0,Training at home,,,,,,,,,,,,,
13,8,1678,B,31.973111141692257,11.154631852392004,1.5986555570846128,0.1752165474048671,B,1011.086099955719,Correct,sub_013_day_06_data.csv,1,300,67.0,Training at home,,,,,,,,,,,,,
13,8,1679,B,63.98616477728357,49.25049354702804,3.1993082388641785,0.7736249435650742,B,939.8360999766736,Correct,sub_013_day_06_data.csv,1,300,67.0,Training at home,,,,,,,,,,,,,
13,8,1680,A,47.49260152589351,60.279592535026545,2.3746300762946757,0.9468696253471276,B,688.2576000061817,Incorrect,sub_013_day_06_data.csv,0,300,67.0,Training at home,,,,,,,,,,,,,
13,8,1681,B,85.84117238466331,62.987493910586565,4.292058619233165,0.9894052406876528,B,1018.5683000017888,Correct,sub_013_day_06_data.csv,1,300,67.0,Training at home,,,,,,,,,,,,,
13,8,1682,A,35.65475038207633,46.68412769107889,1.7827375191038164,0.7333125629677064,A,730.2973999758251,Correct,sub_013_day_06_data.csv,1,300,67.0,Training at home,,,,,,,,,,,,,
13,8,1683,A,64.10004930535779,86.88583755418735,3.2050024652678895,1.3647995448061556,B,517.232000012882,Incorrect,sub_013_day_06_data.csv,0,300,67.0,Training at home,,,,,,,,,,,,,
13,8,1684,A,18.72907477060051,34.26194162349336,0.9364537385300252,0.5381853205104454,A,719.7511999984272,Correct,sub_013_day_06_data.csv,1,300,67.0,Training at home,,,,,,,,,,,,,
13,8,1685,A,55.49403217867731,65.30648283632966,2.7747016089338654,1.0258318335520058,B,825.8821999770589,Incorrect,sub_013_day_06_data.csv,0,300,67.0,Training at home,,,,,,,,,,,,,
13,8,1686,B,43.13398117319896,33.115344971345074,2.1566990586599477,0.520174622415347,B,1315.9762999857776,Correct,sub_013_day_06_data.csv,1,300,67.0,Training at home,,,,,,,,,,,,,
13,8,1687,B,50.51706181509916,33.473171781224174,2.5258530907549583,0.5257953528012151,B,789.4820000510663,Correct,sub_013_day_06_data.csv,1,300,67.0,Training at home,,,,,,,,,,,,,
13,8,1688,A,34.547966421394484,60.63323889312488,1.727398321069724,0.9524246893499804,A,669.2939999629743,Correct,sub_013_day_06_data.csv,1,300,67.0,Training at home,,,,,,,,,,,,,
13,8,1689,A,58.487425134338395,73.32299654094064,2.92437125671692,1.1517549363610446,B,569.5913000381552,Incorrect,sub_013_day_06_data.csv,0,300,67.0,Training at home,,,,,,,,,,,,,
13,8,1690,B,76.69424068138653,53.19798595535277,3.8347120340693266,0.8356320093155464,B,1201.4198999968355,Correct,sub_013_day_06_data.csv,1,300,67.0,Training at home,,,,,,,,,,,,,
13,8,1691,B,35.27459688515631,21.572043283558248,1.7637298442578158,0.3388528635127381,B,1218.074499978684,Correct,sub_013_day_06_data.csv,1,300,67.0,Training at home,,,,,,,,,,,,,
13,8,1692,B,35.20435831208734,17.51214035116085,1.7602179156043667,0.2750800573792015,B,877.3089000023901,Correct,sub_013_day_06_data.csv,1,300,67.0,Training at home,,,,,,,,,,,,,
13,8,1693,A,34.352454640871144,59.66799351145329,1.7176227320435573,0.9372626503501256,A,697.5002000108361,Correct,sub_013_day_06_data.csv,1,300,67.0,Training at home,,,,,,,,,,,,,
13,8,1694,A,29.2815451753032,59.055220492187345,1.46407725876516,0.9276372342719058,A,425.3552000154741,Correct,sub_013_day_06_data.csv,1,300,67.0,Training at home,,,,,,,,,,,,,
13,8,1695,A,40.82738142191694,66.10827793165993,2.041369071095847,1.0384264014578752,A,697.326100023929,Correct,sub_013_day_06_data.csv,1,300,67.0,Training at home,,,,,,,,,,,,,
13,8,1696,B,64.20336347932276,48.177807185116734,3.2101681739661383,0.7567752255941412,A,660.6852000113577,Incorrect,sub_013_day_06_data.csv,0,300,67.0,Training at home,,,,,,,,,,,,,
13,8,1697,A,11.774182623048365,36.34955940862665,0.5887091311524182,0.570977543996836,A,532.5674000196159,Correct,sub_013_day_06_data.csv,1,300,67.0,Training at home,,,,,,,,,,,,,
13,8,1698,A,29.14956705245436,53.57171761398812,1.457478352622718,0.8415025724814601,A,738.5463999817148,Correct,sub_013_day_06_data.csv,1,300,67.0,Training at home,,,,,,,,,,,,,
13,8,1699,B,58.97165449620216,42.353168715666584,2.9485827248101084,0.6652820184669359,B,497.1404999960214,Correct,sub_013_day_06_data.csv,1,300,67.0,Training at home,,,,,,,,,,,,,
13,8,1700,A,14.446026208013349,31.308813078189797,0.7223013104006674,0.4917976857952854,A,620.411200041417,Correct,sub_013_day_06_data.csv,1,300,68.0,Training at home,,,,,,,,,,,,,
13,8,1701,A,56.18221652186786,78.52854844066336,2.8091108260933932,1.233523554391291,B,876.6715999809094,Incorrect,sub_013_day_06_data.csv,0,300,68.0,Training at home,,,,,,,,,,,,,
13,8,1702,A,42.04515930216555,70.66603452551361,2.1022579651082776,1.1100194746183811,B,578.5206999862567,Incorrect,sub_013_day_06_data.csv,0,300,68.0,Training at home,,,,,,,,,,,,,
13,8,1703,B,69.83803193826924,55.07835794326074,3.491901596913462,0.8651688234316849,B,1235.5544000165537,Correct,sub_013_day_06_data.csv,1,300,68.0,Training at home,,,,,,,,,,,,,
13,8,1704,B,71.31680913464797,53.63729230010048,3.5658404567323987,0.8425326172422203,A,675.972199998796,Incorrect,sub_013_day_06_data.csv,0,300,68.0,Training at home,,,,,,,,,,,,,
13,8,1705,B,77.11937585392722,50.61986451573949,3.8559687926963617,0.7951349724417892,B,593.6889000004157,Correct,sub_013_day_06_data.csv,1,300,68.0,Training at home,,,,,,,,,,,,,
13,8,1706,B,77.2660179458596,48.76977241898332,3.863300897292981,0.7660737937436206,B,943.1982999667524,Correct,sub_013_day_06_data.csv,1,300,68.0,Training at home,,,,,,,,,,,,,
13,8,1707,B,41.50619155493359,21.3770634721064,2.0753095777466792,0.3357901277964609,A,832.9226999776438,Incorrect,sub_013_day_06_data.csv,0,300,68.0,Training at home,,,,,,,,,,,,,
13,8,1708,A,59.56029138995231,69.57501215796226,2.9780145694976157,1.092881735344374,B,828.3122999710031,Incorrect,sub_013_day_06_data.csv,0,300,68.0,Training at home,,,,,,,,,,,,,
13,8,1709,B,58.961433970616206,44.978037644635755,2.94807169853081,0.7065133631863643,A,993.9104999648408,Incorrect,sub_013_day_06_data.csv,0,300,68.0,Training at home,,,,,,,,,,,,,
13,8,1710,A,49.289905312883896,69.6446694200786,2.4644952656441945,1.0939759090590433,A,1355.8485000394285,Correct,sub_013_day_06_data.csv,1,300,68.0,Training at home,,,,,,,,,,,,,
13,8,1711,A,33.06614648867189,42.2340042362551,1.6533073244335947,0.6634101872014961,B,850.9953999891877,Incorrect,sub_013_day_06_data.csv,0,300,68.0,Training at home,,,,,,,,,,,,,
13,8,1712,B,80.43880831952461,56.11682574403136,4.02194041597623,0.8814810375011375,B,2078.317999956198,Correct,sub_013_day_06_data.csv,1,300,68.0,Training at home,,,,,,,,,,,,,
13,8,1713,A,14.101088022245154,42.162314953028385,0.7050544011122577,0.6622840945738652,A,1821.3537999545224,Correct,sub_013_day_06_data.csv,1,300,68.0,Training at home,,,,,,,,,,,,,
13,8,1714,B,47.242287165948426,24.325689749848628,2.362114358297421,0.3821070410581448,B,1490.765399998054,Correct,sub_013_day_06_data.csv,1,300,68.0,Training at home,,,,,,,,,,,,,
13,8,1715,A,33.10076323993166,62.89453689949134,1.655038161996583,0.9879450753718708,A,1026.9182999618351,Correct,sub_013_day_06_data.csv,1,300,68.0,Training at home,,,,,,,,,,,,,
13,8,1716,B,43.172882759321496,16.77434521312084,2.158644137966075,0.2634907984515977,B,738.8181000133045,Correct,sub_013_day_06_data.csv,1,300,68.0,Training at home,,,,,,,,,,,,,
13,8,1717,A,22.124879429415497,35.46838411422189,1.1062439714707748,0.5571360748397021,A,506.9781999918632,Correct,sub_013_day_06_data.csv,1,300,68.0,Training at home,,,,,,,,,,,,,
13,8,1718,A,46.511984794365304,69.57152045437124,2.325599239718265,1.0928268877926235,B,626.2277000350878,Incorrect,sub_013_day_06_data.csv,0,300,68.0,Training at home,,,,,,,,,,,,,
13,8,1719,A,66.21560383379003,81.22251672584657,3.3107801916895014,1.2758403092599684,B,638.3575000218116,Incorrect,sub_013_day_06_data.csv,0,300,68.0,Training at home,,,,,,,,,,,,,
13,8,1720,A,45.000726488386775,64.78701638467722,2.2500363244193387,1.0176720736105176,A,682.4480000068434,Correct,sub_013_day_06_data.csv,1,300,68.0,Training at home,,,,,,,,,,,,,
13,8,1721,A,23.417026115201555,47.4407248173358,1.1708513057600778,0.7451971628355858,B,787.6362000242807,Incorrect,sub_013_day_06_data.csv,0,300,68.0,Training at home,,,,,,,,,,,,,
13,8,1722,A,66.10535429397041,85.01810904653665,3.3052677146985205,1.335461334013477,B,568.8188999774866,Incorrect,sub_013_day_06_data.csv,0,300,68.0,Training at home,,,,,,,,,,,,,
13,8,1723,A,59.08107234824659,73.33155908504268,2.9540536174123297,1.1518894364892798,A,600.8122999919578,Correct,sub_013_day_06_data.csv,1,300,68.0,Training at home,,,,,,,,,,,,,
13,8,1724,A,45.82448746857624,77.41117654183401,2.291224373428812,1.2159719176478414,B,590.5100999516435,Incorrect,sub_013_day_06_data.csv,0,300,68.0,Training at home,,,,,,,,,,,,,
13,8,1725,A,30.966310253346503,53.11269762076303,1.5483155126673254,0.8342923032886261,A,659.9516000133008,Correct,sub_013_day_06_data.csv,1,300,69.0,Training at home,,,,,,,,,,,,,
13,8,1726,A,61.815458023620856,79.67533377154191,3.0907729011810425,1.251537216244954,B,1354.4587999931537,Incorrect,sub_013_day_06_data.csv,0,300,69.0,Training at home,,,,,,,,,,,,,
13,8,1727,A,25.381301160722227,55.92333396200073,1.2690650580361114,0.8784416756963505,A,1163.252400001511,Correct,sub_013_day_06_data.csv,1,300,69.0,Training at home,,,,,,,,,,,,,
13,8,1728,B,78.06472084280546,51.06744599915926,3.9032360421402728,0.802165565942761,B,723.8827999681234,Correct,sub_013_day_06_data.csv,1,300,69.0,Training at home,,,,,,,,,,,,,
13,8,1729,A,38.628757950201646,46.86183295329342,1.9314378975100823,0.7361039506990934,A,727.5651000090875,Correct,sub_013_day_06_data.csv,1,300,69.0,Training at home,,,,,,,,,,,,,
13,8,1730,B,77.51743227442454,51.55899342292154,3.875871613721227,0.8098867748196739,B,580.8498000260442,Correct,sub_013_day_06_data.csv,1,300,69.0,Training at home,,,,,,,,,,,,,
13,8,1731,A,56.5255054026733,67.08413534240927,2.826275270133665,1.053755133820682,B,926.065000006929,Incorrect,sub_013_day_06_data.csv,0,300,69.0,Training at home,,,,,,,,,,,,,
13,8,1732,A,46.05969951138693,75.7763611585792,2.302984975569346,1.190292297657797,B,581.4358000061475,Incorrect,sub_013_day_06_data.csv,0,300,69.0,Training at home,,,,,,,,,,,,,
13,8,1733,A,51.347334982590866,64.01444013255967,2.567366749129543,1.0055364742205657,A,459.83979996526614,Correct,sub_013_day_06_data.csv,1,300,69.0,Training at home,,,,,,,,,,,,,
13,8,1734,A,47.04429579522563,60.82286901756442,2.3522147897612813,0.9554033923791732,A,621.7297000112012,Correct,sub_013_day_06_data.csv,1,300,69.0,Training at home,,,,,,,,,,,,,
13,8,1735,B,48.97708776672816,23.10585346413777,2.448854388336408,0.3629458974892874,B,544.7556999861263,Correct,sub_013_day_06_data.csv,1,300,69.0,Training at home,,,,,,,,,,,,,
13,8,1736,A,56.46754676850928,77.61469228561928,2.8233773384254643,1.2191687354756695,A,433.773199969437,Correct,sub_013_day_06_data.csv,1,300,69.0,Training at home,,,,,,,,,,,,,
13,8,1737,B,50.75603311653436,19.47979849897016,2.537801655826718,0.3059879592888707,A,554.9258000100963,Incorrect,sub_013_day_06_data.csv,0,300,69.0,Training at home,,,,,,,,,,,,,
13,8,1738,A,36.91176121246784,57.31380412179993,1.845588060623392,0.9002831298916555,B,710.096099996008,Incorrect,sub_013_day_06_data.csv,0,300,69.0,Training at home,,,,,,,,,,,,,
13,8,1739,B,78.15366637162091,58.818138809213025,3.907683318581046,0.9239131639042416,B,610.9029999934137,Correct,sub_013_day_06_data.csv,1,300,69.0,Training at home,,,,,,,,,,,,,
13,8,1740,B,73.3128648558089,44.24148592172664,3.6656432427904457,0.6949436357779634,B,498.5874999547377,Correct,sub_013_day_06_data.csv,1,300,69.0,Training at home,,,,,,,,,,,,,
13,8,1741,B,74.77120928620653,55.55164569927533,3.7385604643103263,0.8726032101183321,B,510.1781000266783,Correct,sub_013_day_06_data.csv,1,300,69.0,Training at home,,,,,,,,,,,,,
13,8,1742,A,41.065540993906865,57.96379330450368,2.0532770496953434,0.9104931360981302,A,672.4469000473619,Correct,sub_013_day_06_data.csv,1,300,69.0,Training at home,,,,,,,,,,,,,
13,8,1743,B,43.98088643506495,31.423962331742946,2.1990443217532474,0.49360644604043,A,434.92229998810217,Incorrect,sub_013_day_06_data.csv,0,300,69.0,Training at home,,,,,,,,,,,,,
13,8,1744,B,34.57565958824047,15.263634748878772,1.7287829794120233,0.2397606139707772,B,1158.9044000138529,Correct,sub_013_day_06_data.csv,1,300,69.0,Training at home,,,,,,,,,,,,,
13,8,1745,A,31.156527932078447,51.3071287627143,1.5578263966039223,0.8059304939886442,A,730.550000036601,Correct,sub_013_day_06_data.csv,1,300,69.0,Training at home,,,,,,,,,,,,,
13,8,1746,B,50.7887376115639,22.060165500943707,2.539436880578195,0.3465202693736987,B,500.6679999642074,Correct,sub_013_day_06_data.csv,1,300,69.0,Training at home,,,,,,,,,,,,,
13,8,1747,B,78.7453681646444,60.484385272612634,3.93726840823222,0.9500865021466728,B,608.6742000188679,Correct,sub_013_day_06_data.csv,1,300,69.0,Training at home,,,,,,,,,,,,,
13,8,1748,B,56.17727792215913,33.95164217318733,2.8088638961079564,0.5333111481429736,B,564.3574999994598,Correct,sub_013_day_06_data.csv,1,300,69.0,Training at home,,,,,,,,,,,,,
13,8,1749,B,77.9293776614433,58.962463829437624,3.896468883072165,0.9261802160205758,B,647.3538000136614,Correct,sub_013_day_06_data.csv,1,300,69.0,Training at home,,,,,,,,,,,,,
13,8,1750,A,39.70274331438625,49.77234339365184,1.9851371657193124,0.7818221417872253,A,1099.0987999830395,Correct,sub_013_day_06_data.csv,1,300,70.0,Training at home,,,,,,,,,,,,,
13,8,1751,A,22.95209294820946,46.998752515391466,1.147604647410473,0.7382546781511933,A,793.6207000166178,Correct,sub_013_day_06_data.csv,1,300,70.0,Training at home,,,,,,,,,,,,,
13,8,1752,B,70.58580842100592,58.65262309258237,3.5292904210502964,0.9213132491071392,B,566.4965000469238,Correct,sub_013_day_06_data.csv,1,300,70.0,Training at home,,,,,,,,,,,,,
13,8,1753,A,47.984689025417545,65.25801920674517,2.399234451270877,1.0250705686386612,A,712.0942000183277,Correct,sub_013_day_06_data.csv,1,300,70.0,Training at home,,,,,,,,,,,,,
13,8,1754,B,51.442701834078136,35.573628871634384,2.572135091703907,0.5587892556232817,B,754.5765999821015,Correct,sub_013_day_06_data.csv,1,300,70.0,Training at home,,,,,,,,,,,,,
13,8,1755,A,54.88433474149372,78.1563469802964,2.744216737074686,1.22767702752357,A,1383.306400035508,Correct,sub_013_day_06_data.csv,1,300,70.0,Training at home,,,,,,,,,,,,,
13,8,1756,B,45.59018069074527,21.675495224222914,2.2795090345372637,0.3404778827966967,B,630.3171999752522,Correct,sub_013_day_06_data.csv,1,300,70.0,Training at home,,,,,,,,,,,,,
13,8,1757,A,45.464158264258685,63.8332770705568,2.2732079132129344,1.0026907714971152,B,726.2730000074953,Incorrect,sub_013_day_06_data.csv,0,300,70.0,Training at home,,,,,,,,,,,,,
13,8,1758,A,43.11124183947385,63.80010089531287,2.1555620919736924,1.0021696413550123,A,505.3224000148475,Correct,sub_013_day_06_data.csv,1,300,70.0,Training at home,,,,,,,,,,,,,
13,8,1759,B,69.4094356830118,51.384594520086026,3.4704717841505897,0.807147323259963,B,672.6520999800414,Correct,sub_013_day_06_data.csv,1,300,70.0,Training at home,,,,,,,,,,,,,
13,8,1760,A,45.864878873118016,53.269246646141866,2.293243943655901,0.8367513696289101,A,509.0540000237525,Correct,sub_013_day_06_data.csv,1,300,70.0,Training at home,,,,,,,,,,,,,
13,8,1761,A,15.868025977764525,42.62671009624372,0.7934012988882262,0.6695787964253056,A,560.9909999766387,Correct,sub_013_day_06_data.csv,1,300,70.0,Training at home,,,,,,,,,,,,,
13,8,1762,A,26.894936468784913,54.015147922927,1.3447468234392457,0.8484679594861672,A,660.7185999746434,Correct,sub_013_day_06_data.csv,1,300,70.0,Training at home,,,,,,,,,,,,,
13,8,1763,A,44.14364630691426,59.5126431558323,2.207182315345713,0.9348224126703684,B,764.7612000000663,Incorrect,sub_013_day_06_data.csv,0,300,70.0,Training at home,,,,,,,,,,,,,
13,8,1764,B,53.42071262614977,41.51890400262617,2.6710356313074883,0.6521774189987513,B,1082.4169999687,Correct,sub_013_day_06_data.csv,1,300,70.0,Training at home,,,,,,,,,,,,,
13,8,1765,B,40.388124307176525,17.10395912155478,2.0194062153588264,0.2686683616178831,B,613.6384999845177,Correct,sub_013_day_06_data.csv,1,300,70.0,Training at home,,,,,,,,,,,,,
13,8,1766,B,52.55062633499416,24.934519108336794,2.627531316749708,0.391670510257726,B,526.1833000113256,Correct,sub_013_day_06_data.csv,1,300,70.0,Training at home,,,,,,,,,,,,,
13,8,1767,A,66.43533963467988,82.51634704072734,3.3217669817339934,1.2961637483210742,A,548.4133000136353,Correct,sub_013_day_06_data.csv,1,300,70.0,Training at home,,,,,,,,,,,,,
13,8,1768,B,52.1047664345505,25.95954105568251,2.605238321727525,0.4077715173554741,B,613.3050000062212,Correct,sub_013_day_06_data.csv,1,300,70.0,Training at home,,,,,,,,,,,,,
13,8,1769,B,35.70576686712768,14.198985694993516,1.785288343356384,0.2230371457390909,B,671.6291999910027,Correct,sub_013_day_06_data.csv,1,300,70.0,Training at home,,,,,,,,,,,,,
13,8,1770,B,38.43547511765532,23.48038480448588,1.921773755882766,0.3688290220261712,B,668.8567000092007,Correct,sub_013_day_06_data.csv,1,300,70.0,Training at home,,,,,,,,,,,,,
13,8,1771,B,41.355449385214584,27.59725577588369,2.067772469260729,0.4334966800237734,B,944.2586000077426,Correct,sub_013_day_06_data.csv,1,300,70.0,Training at home,,,,,,,,,,,,,
13,8,1772,B,63.12883598614593,52.52880921823821,3.1564417993072964,0.8251206057091848,A,806.4424999756739,Incorrect,sub_013_day_06_data.csv,0,300,70.0,Training at home,,,,,,,,,,,,,
13,8,1773,B,52.45221586038829,24.98091193991885,2.6226107930194145,0.392399247152113,B,477.0649999845773,Correct,sub_013_day_06_data.csv,1,300,70.0,Training at home,,,,,,,,,,,,,
13,8,1774,B,56.8061108117762,49.26672482386132,2.84030554058881,0.7738799038653631,B,527.6133000152186,Correct,sub_013_day_06_data.csv,1,300,70.0,Training at home,,,,,,,,,,,,,
13,8,1775,B,82.13518827714461,59.25476484373951,4.1067594138572305,0.930771669616414,B,530.8625000179745,Correct,sub_013_day_06_data.csv,1,300,71.0,Training at home,,,,,,,,,,,,,
13,8,1776,A,23.788652841422124,54.373002941168856,1.189432642071106,0.8540891329679615,A,494.97150001116097,Correct,sub_013_day_06_data.csv,1,300,71.0,Training at home,,,,,,,,,,,,,
13,8,1777,B,56.05922909419978,45.432328866108875,2.802961454709989,0.7136493530062157,B,474.5561000308953,Correct,sub_013_day_06_data.csv,1,300,71.0,Training at home,,,,,,,,,,,,,
13,8,1778,B,54.08545849172609,40.25242158801549,2.704272924586304,0.6322835597505433,B,501.0611999896355,Correct,sub_013_day_06_data.csv,1,300,71.0,Training at home,,,,,,,,,,,,,
13,8,1779,A,34.66907478686763,67.11255926158837,1.7334537393433818,1.0542016156990783,A,431.2767999945208,Correct,sub_013_day_06_data.csv,1,300,71.0,Training at home,,,,,,,,,,,,,
13,8,1780,B,83.28261390375036,56.0455742004132,4.164130695187518,0.8803618208711987,B,428.6759999813512,Correct,sub_013_day_06_data.csv,1,300,71.0,Training at home,,,,,,,,,,,,,
13,8,1781,B,73.24658689185384,58.71467211530712,3.662329344592692,0.9222879128769116,B,353.26140001416206,Correct,sub_013_day_06_data.csv,1,300,71.0,Training at home,,,,,,,,,,,,,
13,8,1782,B,78.07000595005658,56.35879234906599,3.903500297502829,0.8852818400450917,B,379.2783999815583,Correct,sub_013_day_06_data.csv,1,300,71.0,Training at home,,,,,,,,,,,,,
13,8,1783,B,69.98854512699394,39.147779645609965,3.499427256349697,0.6149318846950015,B,390.5232999823056,Correct,sub_013_day_06_data.csv,1,300,71.0,Training at home,,,,,,,,,,,,,
13,8,1784,A,57.01858465065472,82.20715079885935,2.8509292325327364,1.291306905111224,A,700.254799972754,Correct,sub_013_day_06_data.csv,1,300,71.0,Training at home,,,,,,,,,,,,,
13,8,1785,A,53.325418335228306,67.68102775418616,2.666270916761415,1.0631310978997908,A,535.0992000312544,Correct,sub_013_day_06_data.csv,1,300,71.0,Training at home,,,,,,,,,,,,,
13,8,1786,A,46.14944674074192,56.25850752358048,2.307472337037096,0.8837065696900328,A,498.7111000227742,Correct,sub_013_day_06_data.csv,1,300,71.0,Training at home,,,,,,,,,,,,,
13,8,1787,B,45.16215336729153,22.941444585326284,2.2581076683645764,0.360363368859992,B,461.4808000042103,Correct,sub_013_day_06_data.csv,1,300,71.0,Training at home,,,,,,,,,,,,,
13,8,1788,A,39.7966750198982,48.99964214752626,1.9898337509949104,0.7696845789959864,A,489.29239995777607,Correct,sub_013_day_06_data.csv,1,300,71.0,Training at home,,,,,,,,,,,,,
13,8,1789,B,71.3387745854526,45.16090390708601,3.56693872927263,0.70938581971988,B,388.30869999947026,Correct,sub_013_day_06_data.csv,1,300,71.0,Training at home,,,,,,,,,,,,,
13,8,1790,B,41.24666109972017,19.25481003535616,2.0623330549860084,0.3024538487667097,B,519.5067999884486,Correct,sub_013_day_06_data.csv,1,300,71.0,Training at home,,,,,,,,,,,,,
13,8,1791,B,38.68995971467942,21.218509905092265,1.9344979857339708,0.3332995741898005,B,443.7346999766305,Correct,sub_013_day_06_data.csv,1,300,71.0,Training at home,,,,,,,,,,,,,
13,8,1792,B,59.432554669078755,43.82130075386911,2.9716277334539374,0.6883433825955203,B,450.052100000903,Correct,sub_013_day_06_data.csv,1,300,71.0,Training at home,,,,,,,,,,,,,
13,8,1793,B,41.73548878632564,31.302381870241092,2.086774439316282,0.4916966646170587,B,449.65029996819794,Correct,sub_013_day_06_data.csv,1,300,71.0,Training at home,,,,,,,,,,,,,
13,8,1794,A,44.06202550590761,60.45734042413316,2.203101275295381,0.9496616826601698,A,602.2683999617584,Correct,sub_013_day_06_data.csv,1,300,71.0,Training at home,,,,,,,,,,,,,
13,8,1795,B,84.05745612998336,68.03889657651406,4.202872806499169,1.0687524882156616,B,606.2028000014834,Correct,sub_013_day_06_data.csv,1,300,71.0,Training at home,,,,,,,,,,,,,
13,8,1796,B,54.51513623499993,42.15407638429538,2.7257568117499966,0.6621546834388268,B,605.5764999473467,Correct,sub_013_day_06_data.csv,1,300,71.0,Training at home,,,,,,,,,,,,,
13,8,1797,B,72.36641429995537,49.486791898061966,3.618320714997768,0.7773367093833918,B,414.4213999970816,Correct,sub_013_day_06_data.csv,1,300,71.0,Training at home,,,,,,,,,,,,,
13,8,1798,A,24.9559199925183,56.40676657907914,1.2477959996259151,0.8860354174879465,A,455.23039996623993,Correct,sub_013_day_06_data.csv,1,300,71.0,Training at home,,,,,,,,,,,,,
13,8,1799,B,66.3433255411092,49.97924324525053,3.3171662770554597,0.7850721170562818,B,384.7846999997273,Correct,sub_013_day_06_data.csv,1,300,71.0,Training at home,,,,,,,,,,,,,
