subject,day,trial,cat,x,y,xt,yt,resp,rt,fb,f_name,acc,n_trials,block,session_type,ns_left_digit,ns_right_digit,ns_left_size,ns_right_size,ns_congruent,ns_cue,ns_correct_side,ns_resp,ns_rt,ns_fb,acc_stroop,acc_stroop_mean,resp_key
13,13,2700,B,77.68035609297107,56.05347365490195,3.884017804648553,0.880485905212145,B,717.5575000001118,Correct,sub_013_day_10_data.csv,1,300,108.0,Training at home,,,,,,,,,,,,,
13,13,2701,A,61.66403225096006,84.0457206489209,3.0832016125480033,1.3201870927815496,A,507.8844999661669,Correct,sub_013_day_10_data.csv,1,300,108.0,Training at home,,,,,,,,,,,,,
13,13,2702,B,64.13313385357112,42.5549328442355,3.206656692678556,0.6684513219872863,B,424.7793999966234,Correct,sub_013_day_10_data.csv,1,300,108.0,Training at home,,,,,,,,,,,,,
13,13,2703,A,22.28843415586675,49.15681672507651,1.1144217077933376,0.7721534714868012,A,446.04889990296215,Correct,sub_013_day_10_data.csv,1,300,108.0,Training at home,,,,,,,,,,,,,
13,13,2704,B,39.92107337649354,18.48953974127861,1.996053668824677,0.290433011097287,B,475.6171000190079,Correct,sub_013_day_10_data.csv,1,300,108.0,Training at home,,,,,,,,,,,,,
13,13,2705,A,60.183624656617994,87.66976640936826,3.0091812328309,1.3771134704680226,A,483.76159998588264,Correct,sub_013_day_10_data.csv,1,300,108.0,Training at home,,,,,,,,,,,,,
13,13,2706,B,79.51793601729189,61.93587176409383,3.9758968008645943,0.9728863986387836,B,442.9221999598667,Correct,sub_013_day_10_data.csv,1,300,108.0,Training at home,,,,,,,,,,,,,
13,13,2707,A,20.687837253706547,52.4057341684168,1.0343918626853277,0.8231873473473892,A,361.8277999339625,Correct,sub_013_day_10_data.csv,1,300,108.0,Training at home,,,,,,,,,,,,,
13,13,2708,B,65.95546774441131,45.46484949959087,3.2977733872205652,0.7141601859224013,B,448.57230002526194,Correct,sub_013_day_10_data.csv,1,300,108.0,Training at home,,,,,,,,,,,,,
13,13,2709,B,44.29913894763137,21.04289639483065,2.2149569473815687,0.3305410436212556,B,342.63229998759925,Correct,sub_013_day_10_data.csv,1,300,108.0,Training at home,,,,,,,,,,,,,
13,13,2710,A,64.73040291299917,82.85548858404702,3.2365201456499584,1.3014909712261755,A,405.3312001051381,Correct,sub_013_day_10_data.csv,1,300,108.0,Training at home,,,,,,,,,,,,,
13,13,2711,B,82.02225956511312,51.15087788577989,4.101112978255656,0.8034761109531735,B,383.6874000262469,Correct,sub_013_day_10_data.csv,1,300,108.0,Training at home,,,,,,,,,,,,,
13,13,2712,A,10.702193641365165,32.490504709110105,0.5351096820682582,0.5103596545278244,A,387.6577999908477,Correct,sub_013_day_10_data.csv,1,300,108.0,Training at home,,,,,,,,,,,,,
13,13,2713,B,50.93282433312095,21.03357103661831,2.5466412166560475,0.3303945612369956,B,360.4320000158623,Correct,sub_013_day_10_data.csv,1,300,108.0,Training at home,,,,,,,,,,,,,
13,13,2714,A,59.4863548078571,84.17054150054099,2.9743177403928547,1.322147774133872,A,463.9976000180468,Correct,sub_013_day_10_data.csv,1,300,108.0,Training at home,,,,,,,,,,,,,
13,13,2715,A,58.0599457640717,79.76525317194455,2.902997288203585,1.2529496668835547,A,535.3978000348434,Correct,sub_013_day_10_data.csv,1,300,108.0,Training at home,,,,,,,,,,,,,
13,13,2716,A,38.85613752145598,46.96514940466458,1.942806876072799,0.7377268417222065,B,466.9634000165388,Incorrect,sub_013_day_10_data.csv,0,300,108.0,Training at home,,,,,,,,,,,,,
13,13,2717,B,61.95580153993262,52.94321379629256,3.097790076996631,0.8316300575993324,A,515.3779999818653,Incorrect,sub_013_day_10_data.csv,0,300,108.0,Training at home,,,,,,,,,,,,,
13,13,2718,A,48.782413905680336,66.47560251400697,2.4391206952840165,1.0441963225047972,A,624.7169999405742,Correct,sub_013_day_10_data.csv,1,300,108.0,Training at home,,,,,,,,,,,,,
13,13,2719,B,36.519952197707354,24.076072428855134,1.825997609885368,0.3781860613489354,B,357.46759991161525,Correct,sub_013_day_10_data.csv,1,300,108.0,Training at home,,,,,,,,,,,,,
13,13,2720,A,36.57062618165618,58.65298179351136,1.8285313090828088,0.921318883568156,A,489.11850003059953,Correct,sub_013_day_10_data.csv,1,300,108.0,Training at home,,,,,,,,,,,,,
13,13,2721,B,52.94137553187488,32.08486369343189,2.6470687765937435,0.5039878603535776,B,458.5144000593573,Correct,sub_013_day_10_data.csv,1,300,108.0,Training at home,,,,,,,,,,,,,
13,13,2722,B,61.41041821733653,33.877727432226656,3.0705209108668265,0.5321500981070033,B,501.4629999641329,Correct,sub_013_day_10_data.csv,1,300,108.0,Training at home,,,,,,,,,,,,,
13,13,2723,A,39.09881005507287,48.11305672938256,1.9549405027536435,0.7557581278138861,A,478.43639994971454,Correct,sub_013_day_10_data.csv,1,300,108.0,Training at home,,,,,,,,,,,,,
13,13,2724,B,37.00388908965323,21.054136142924698,1.8501944544826616,0.3307175971714579,B,445.15420007519424,Correct,sub_013_day_10_data.csv,1,300,108.0,Training at home,,,,,,,,,,,,,
13,13,2725,B,62.18599190521134,46.642818274224645,3.1092995952605667,0.7326636761651396,B,565.0322999572381,Correct,sub_013_day_10_data.csv,1,300,109.0,Training at home,,,,,,,,,,,,,
13,13,2726,B,64.01244989567832,35.6182139530263,3.2006224947839157,0.5594895964440844,B,373.3640999998898,Correct,sub_013_day_10_data.csv,1,300,109.0,Training at home,,,,,,,,,,,,,
13,13,2727,A,36.13582101965129,62.22619227053203,1.8067910509825649,0.9774467424898472,A,396.69229998253286,Correct,sub_013_day_10_data.csv,1,300,109.0,Training at home,,,,,,,,,,,,,
13,13,2728,A,66.08511673474334,84.99601172020763,3.304255836737167,1.3351142300231813,A,615.1880000252277,Correct,sub_013_day_10_data.csv,1,300,109.0,Training at home,,,,,,,,,,,,,
13,13,2729,A,45.10041846663554,71.32596458988415,2.255020923331777,1.1203856318289287,A,435.3036999236792,Correct,sub_013_day_10_data.csv,1,300,109.0,Training at home,,,,,,,,,,,,,
13,13,2730,B,68.60558362590243,49.038038997965856,3.4302791812951217,0.7702877153122967,B,436.0571999568492,Correct,sub_013_day_10_data.csv,1,300,109.0,Training at home,,,,,,,,,,,,,
13,13,2731,B,53.47463215004949,30.18292264456384,2.673731607502474,0.4741122402201538,B,478.9225000422448,Correct,sub_013_day_10_data.csv,1,300,109.0,Training at home,,,,,,,,,,,,,
13,13,2732,B,76.82009870994104,52.38098829334317,3.841004935497052,0.8227986400506994,B,481.308399932459,Correct,sub_013_day_10_data.csv,1,300,109.0,Training at home,,,,,,,,,,,,,
13,13,2733,A,52.000212448499546,60.17163378981496,2.600010622424977,0.94517381334289,A,530.5589999770746,Correct,sub_013_day_10_data.csv,1,300,109.0,Training at home,,,,,,,,,,,,,
13,13,2734,B,51.31239423416176,40.84571720802072,2.565619711708087,0.6416030255566205,A,576.4347000513226,Incorrect,sub_013_day_10_data.csv,0,300,109.0,Training at home,,,,,,,,,,,,,
13,13,2735,A,34.72288674654297,62.32403199586722,1.7361443373271483,0.9789836053015584,A,529.0566999465227,Correct,sub_013_day_10_data.csv,1,300,109.0,Training at home,,,,,,,,,,,,,
13,13,2736,B,38.668469477548754,16.838273157044707,1.9334234738774376,0.2644949762465493,B,467.9607999278233,Correct,sub_013_day_10_data.csv,1,300,109.0,Training at home,,,,,,,,,,,,,
13,13,2737,A,42.89824673987683,59.540172742412715,2.144912336993842,0.9352548464051552,A,430.98269996698946,Correct,sub_013_day_10_data.csv,1,300,109.0,Training at home,,,,,,,,,,,,,
13,13,2738,B,41.049095902586586,32.74419040012594,2.0524547951293295,0.5143445400439054,B,457.7475000405684,Correct,sub_013_day_10_data.csv,1,300,109.0,Training at home,,,,,,,,,,,,,
13,13,2739,B,33.50473383345359,16.639471463333933,1.6752366916726795,0.2613722065441344,A,520.9372999379411,Incorrect,sub_013_day_10_data.csv,0,300,109.0,Training at home,,,,,,,,,,,,,
13,13,2740,A,40.435434402375016,57.711784665312265,2.021771720118751,0.9065345936505056,A,431.87930004205555,Correct,sub_013_day_10_data.csv,1,300,109.0,Training at home,,,,,,,,,,,,,
13,13,2741,B,42.62042504204714,16.927143208795144,2.131021252102357,0.2658909437550659,B,397.30249997228384,Correct,sub_013_day_10_data.csv,1,300,109.0,Training at home,,,,,,,,,,,,,
13,13,2742,A,49.94593914070472,64.39349909406947,2.4972969570352364,1.0114907184643482,A,547.7885999716818,Correct,sub_013_day_10_data.csv,1,300,109.0,Training at home,,,,,,,,,,,,,
13,13,2743,A,39.85009099855817,58.95575032343626,1.9925045499279088,0.9260747605149072,A,378.8069000001997,Correct,sub_013_day_10_data.csv,1,300,109.0,Training at home,,,,,,,,,,,,,
13,13,2744,B,69.67380184316474,46.946422582759226,3.4836900921582368,0.7374326814915918,B,430.49279996193945,Correct,sub_013_day_10_data.csv,1,300,109.0,Training at home,,,,,,,,,,,,,
13,13,2745,A,65.83521088316256,81.88726577206234,3.2917605441581284,1.2862821628603296,B,390.1580999372527,Incorrect,sub_013_day_10_data.csv,0,300,109.0,Training at home,,,,,,,,,,,,,
13,13,2746,A,66.56309980863732,82.76694355415881,3.328154990431866,1.300100109149132,A,486.13910004496574,Correct,sub_013_day_10_data.csv,1,300,109.0,Training at home,,,,,,,,,,,,,
13,13,2747,B,60.523522572671965,42.5740040927458,3.026176128633598,0.66875089245836,B,487.74660006165504,Correct,sub_013_day_10_data.csv,1,300,109.0,Training at home,,,,,,,,,,,,,
13,13,2748,B,36.12298906012755,20.7419773950003,1.8061494530063775,0.3258142190252925,B,430.5890999967232,Correct,sub_013_day_10_data.csv,1,300,109.0,Training at home,,,,,,,,,,,,,
13,13,2749,A,30.984702230749484,54.607150719229175,1.5492351115374745,0.8577671176650049,A,648.8885000580922,Correct,sub_013_day_10_data.csv,1,300,109.0,Training at home,,,,,,,,,,,,,
13,13,2750,A,45.752926861699905,63.38918851106628,2.287646343084995,0.9957150447169216,A,405.1610000897199,Correct,sub_013_day_10_data.csv,1,300,110.0,Training at home,,,,,,,,,,,,,
13,13,2751,B,45.07325018452585,29.46820352791718,2.2536625092262925,0.4628854585889671,B,504.614399978891,Correct,sub_013_day_10_data.csv,1,300,110.0,Training at home,,,,,,,,,,,,,
13,13,2752,A,28.22060089341278,39.02586323414913,1.411030044670639,0.6130168261820146,A,458.1796999555081,Correct,sub_013_day_10_data.csv,1,300,110.0,Training at home,,,,,,,,,,,,,
13,13,2753,B,68.1829824810876,39.29296194026257,3.4091491240543803,0.6172124028465612,B,411.2454999703914,Correct,sub_013_day_10_data.csv,1,300,110.0,Training at home,,,,,,,,,,,,,
13,13,2754,B,51.260706147716945,31.08540564332973,2.5630353073858476,0.4882884100147168,B,457.1683000540361,Correct,sub_013_day_10_data.csv,1,300,110.0,Training at home,,,,,,,,,,,,,
13,13,2755,A,32.13001430831578,64.39187779497479,1.6065007154157889,1.0114652511577225,A,447.20180006697774,Correct,sub_013_day_10_data.csv,1,300,110.0,Training at home,,,,,,,,,,,,,
13,13,2756,A,61.810148491819504,77.74390018023826,3.0905074245909754,1.2211983283382737,A,487.5141000375152,Correct,sub_013_day_10_data.csv,1,300,110.0,Training at home,,,,,,,,,,,,,
13,13,2757,A,35.98792493377272,50.29552216547057,1.799396246688636,0.7900402147175247,A,514.9512001080438,Correct,sub_013_day_10_data.csv,1,300,110.0,Training at home,,,,,,,,,,,,,
13,13,2758,A,46.82107660244647,62.491391532845896,2.3410538301223234,0.9816124827609604,A,466.04430000297725,Correct,sub_013_day_10_data.csv,1,300,110.0,Training at home,,,,,,,,,,,,,
13,13,2759,A,60.49721791903187,73.97746625637656,3.0248608959515932,1.162035322611097,A,353.75699994619936,Correct,sub_013_day_10_data.csv,1,300,110.0,Training at home,,,,,,,,,,,,,
13,13,2760,B,51.29389104471991,40.749661379302125,2.5646945522359954,0.6400941841274363,A,384.01419995352626,Incorrect,sub_013_day_10_data.csv,0,300,110.0,Training at home,,,,,,,,,,,,,
13,13,2761,B,82.9420376210452,60.52352868410878,4.14710188105226,0.9507013654166364,B,533.9417000068352,Correct,sub_013_day_10_data.csv,1,300,110.0,Training at home,,,,,,,,,,,,,
13,13,2762,A,11.291778870715714,37.459319705363015,0.5645889435357857,0.5884096179741992,A,375.4576999926939,Correct,sub_013_day_10_data.csv,1,300,110.0,Training at home,,,,,,,,,,,,,
13,13,2763,A,33.915103291843366,66.19298163200943,1.6957551645921682,1.039756924071625,A,418.9191999612376,Correct,sub_013_day_10_data.csv,1,300,110.0,Training at home,,,,,,,,,,,,,
13,13,2764,A,50.997782498912954,77.96085756304825,2.549889124945648,1.224606286938163,A,392.7544999169186,Correct,sub_013_day_10_data.csv,1,300,110.0,Training at home,,,,,,,,,,,,,
13,13,2765,B,45.1015905778866,21.123748797883803,2.25507952889433,0.3318110701985399,B,415.790900005959,Correct,sub_013_day_10_data.csv,1,300,110.0,Training at home,,,,,,,,,,,,,
13,13,2766,A,41.84383339637849,50.00777217581164,2.092191669818925,0.7855202484496094,A,603.7839000346139,Correct,sub_013_day_10_data.csv,1,300,110.0,Training at home,,,,,,,,,,,,,
13,13,2767,A,34.14194679134014,56.56523335258605,1.7070973395670068,0.8885246077453832,A,419.273899984546,Correct,sub_013_day_10_data.csv,1,300,110.0,Training at home,,,,,,,,,,,,,
13,13,2768,B,41.23623982721077,15.345373728491555,2.061811991360538,0.2410445668600944,B,470.7522999960929,Correct,sub_013_day_10_data.csv,1,300,110.0,Training at home,,,,,,,,,,,,,
13,13,2769,A,46.11019536698377,60.85940681523975,2.305509768349188,0.9559773267629488,A,484.6152999671176,Correct,sub_013_day_10_data.csv,1,300,110.0,Training at home,,,,,,,,,,,,,
13,13,2770,A,24.335316836984617,55.58934207176826,1.2167658418492306,0.8731953433527858,A,444.6419000159949,Correct,sub_013_day_10_data.csv,1,300,110.0,Training at home,,,,,,,,,,,,,
13,13,2771,B,48.76598906758886,19.077752942570836,2.438299453379443,0.2996726424569079,B,396.3972999481484,Correct,sub_013_day_10_data.csv,1,300,110.0,Training at home,,,,,,,,,,,,,
13,13,2772,A,61.257816294770834,82.88485188364211,3.0628908147385414,1.301952208857641,A,404.71539995633066,Correct,sub_013_day_10_data.csv,1,300,110.0,Training at home,,,,,,,,,,,,,
13,13,2773,A,67.56999600930291,81.54640310592065,3.378499800465146,1.2809279046211608,A,352.68730006646365,Correct,sub_013_day_10_data.csv,1,300,110.0,Training at home,,,,,,,,,,,,,
13,13,2774,A,31.69684959633104,60.95274523126382,1.584842479816552,0.9574434831733436,B,389.1273000044748,Incorrect,sub_013_day_10_data.csv,0,300,110.0,Training at home,,,,,,,,,,,,,
13,13,2775,A,49.80055062449074,72.3735548491515,2.490027531224537,1.1368411411413617,A,488.23470005299896,Correct,sub_013_day_10_data.csv,1,300,111.0,Training at home,,,,,,,,,,,,,
13,13,2776,B,58.871933126644194,31.20099813125003,2.94359665633221,0.4901041325690198,B,397.7467999793589,Correct,sub_013_day_10_data.csv,1,300,111.0,Training at home,,,,,,,,,,,,,
13,13,2777,A,12.183077437776276,38.06194564004464,0.6091538718888139,0.5978756440204915,A,403.47270003985614,Correct,sub_013_day_10_data.csv,1,300,111.0,Training at home,,,,,,,,,,,,,
13,13,2778,B,72.74397958609381,41.72353582933649,3.637198979304691,0.6553917682161701,B,325.1938000321388,Correct,sub_013_day_10_data.csv,1,300,111.0,Training at home,,,,,,,,,,,,,
13,13,2779,B,50.62693649402815,33.01807417664657,2.5313468247014073,0.5186466963451787,B,403.9964999537915,Correct,sub_013_day_10_data.csv,1,300,111.0,Training at home,,,,,,,,,,,,,
13,13,2780,B,73.41538655711882,41.2327575578887,3.6707693278559415,0.6476826411555608,B,347.1327000297606,Correct,sub_013_day_10_data.csv,1,300,111.0,Training at home,,,,,,,,,,,,,
13,13,2781,A,27.205522108834757,49.206492545238945,1.360276105441738,0.772933777445218,A,435.0811999756843,Correct,sub_013_day_10_data.csv,1,300,111.0,Training at home,,,,,,,,,,,,,
13,13,2782,B,63.66147415518567,38.05713265345192,3.183073707759283,0.5978000418038839,B,494.9817000888288,Correct,sub_013_day_10_data.csv,1,300,111.0,Training at home,,,,,,,,,,,,,
13,13,2783,B,80.90186419026455,61.19756682592519,4.045093209513227,0.961289131789485,B,409.59680010564625,Correct,sub_013_day_10_data.csv,1,300,111.0,Training at home,,,,,,,,,,,,,
13,13,2784,A,33.73770902011734,62.62956457160792,1.686885451005867,0.9837828997784552,A,385.6980000855401,Correct,sub_013_day_10_data.csv,1,300,111.0,Training at home,,,,,,,,,,,,,
13,13,2785,B,88.71582473029811,66.84526247466849,4.4357912365149055,1.0500029275885,B,381.48720003664494,Correct,sub_013_day_10_data.csv,1,300,111.0,Training at home,,,,,,,,,,,,,
13,13,2786,B,70.4694915788488,49.1064290417056,3.5234745789424404,0.7713619836072537,A,386.516600032337,Incorrect,sub_013_day_10_data.csv,0,300,111.0,Training at home,,,,,,,,,,,,,
13,13,2787,A,43.52313590856187,63.5932915854012,2.176156795428094,0.99892108831145,A,403.8696000352502,Correct,sub_013_day_10_data.csv,1,300,111.0,Training at home,,,,,,,,,,,,,
13,13,2788,B,75.06856133738428,45.78814625863036,3.7534280668692137,0.7192385195380405,B,409.3474000692368,Correct,sub_013_day_10_data.csv,1,300,111.0,Training at home,,,,,,,,,,,,,
13,13,2789,A,49.56169508166552,61.50461915672297,2.478084754083276,0.9661122985229949,A,467.18240005429834,Correct,sub_013_day_10_data.csv,1,300,111.0,Training at home,,,,,,,,,,,,,
13,13,2790,A,31.86934025384258,44.763308945539706,1.593467012692129,0.7031404126683891,A,429.0253999643028,Correct,sub_013_day_10_data.csv,1,300,111.0,Training at home,,,,,,,,,,,,,
13,13,2791,B,80.72201524147178,53.29254632298254,4.036100762073589,0.8371173600968783,B,381.1903999885544,Correct,sub_013_day_10_data.csv,1,300,111.0,Training at home,,,,,,,,,,,,,
13,13,2792,A,34.61605913831608,48.51089898347216,1.730802956915804,0.7620074193275636,A,429.6908000251278,Correct,sub_013_day_10_data.csv,1,300,111.0,Training at home,,,,,,,,,,,,,
13,13,2793,A,43.003655289482595,59.57920273110411,2.15018276447413,0.935867928033868,B,326.52490003965795,Incorrect,sub_013_day_10_data.csv,0,300,111.0,Training at home,,,,,,,,,,,,,
13,13,2794,B,77.88987361986035,62.61652992817815,3.8944936809930177,0.9835781520782496,B,556.6046999301761,Correct,sub_013_day_10_data.csv,1,300,111.0,Training at home,,,,,,,,,,,,,
13,13,2795,B,76.73870101800412,50.71518431452384,3.8369350509002063,0.796632252339802,B,425.2162999473512,Correct,sub_013_day_10_data.csv,1,300,111.0,Training at home,,,,,,,,,,,,,
13,13,2796,A,56.39244374940513,71.09508105925984,2.8196221874702565,1.116758921810708,A,453.5861000185832,Correct,sub_013_day_10_data.csv,1,300,111.0,Training at home,,,,,,,,,,,,,
13,13,2797,A,56.26827029495807,79.29967185705875,2.8134135147479036,1.245636332691085,A,431.4312000060454,Correct,sub_013_day_10_data.csv,1,300,111.0,Training at home,,,,,,,,,,,,,
13,13,2798,A,24.58690133032207,44.253077796820776,1.2293450665161034,0.6951257205261487,A,404.7796999802813,Correct,sub_013_day_10_data.csv,1,300,111.0,Training at home,,,,,,,,,,,,,
13,13,2799,B,81.73909160893234,54.07672797273006,4.0869545804466165,0.8494352566465122,B,397.5743999471888,Correct,sub_013_day_10_data.csv,1,300,111.0,Training at home,,,,,,,,,,,,,
13,13,2800,A,64.34647234737088,75.82310000514079,3.217323617368544,1.1910264697427724,A,455.19360003527254,Correct,sub_013_day_10_data.csv,1,300,112.0,Training at home,,,,,,,,,,,,,
13,13,2801,A,29.803970377608792,39.43997482406266,1.4901985188804394,0.6195216758252081,B,403.5852999659255,Incorrect,sub_013_day_10_data.csv,0,300,112.0,Training at home,,,,,,,,,,,,,
13,13,2802,B,57.211707250068486,28.423942876908995,2.860585362503424,0.4464822506407661,B,477.8821999207139,Correct,sub_013_day_10_data.csv,1,300,112.0,Training at home,,,,,,,,,,,,,
13,13,2803,B,79.50362510786988,66.88061290452552,3.975181255393494,1.0505582108422007,B,604.4645999791101,Correct,sub_013_day_10_data.csv,1,300,112.0,Training at home,,,,,,,,,,,,,
13,13,2804,B,58.89482007782137,26.921130283621444,2.944741003891069,0.4228761256267941,B,501.9331999355927,Correct,sub_013_day_10_data.csv,1,300,112.0,Training at home,,,,,,,,,,,,,
13,13,2805,B,83.9617661664199,54.14913350846891,4.198088308320996,0.850572600142294,A,469.1157001070678,Incorrect,sub_013_day_10_data.csv,0,300,112.0,Training at home,,,,,,,,,,,,,
13,13,2806,A,24.032199952845463,49.98733043533683,1.2016099976422732,0.7851991503410984,A,441.4021000266075,Correct,sub_013_day_10_data.csv,1,300,112.0,Training at home,,,,,,,,,,,,,
13,13,2807,B,80.96293458171576,51.66169548544408,4.048146729085788,0.8115000150453204,B,496.26799998804927,Correct,sub_013_day_10_data.csv,1,300,112.0,Training at home,,,,,,,,,,,,,
13,13,2808,B,42.74926456884204,14.600608409467416,2.1374632284421016,0.2293458205856209,B,588.5915000690147,Correct,sub_013_day_10_data.csv,1,300,112.0,Training at home,,,,,,,,,,,,,
13,13,2809,B,53.87101957681727,44.05699076082342,2.693550978840863,0.6920455925673812,B,356.6191999707371,Correct,sub_013_day_10_data.csv,1,300,112.0,Training at home,,,,,,,,,,,,,
13,13,2810,B,89.29886445701109,68.1778633829061,4.464943222850554,1.070935373705932,A,442.923599970527,Incorrect,sub_013_day_10_data.csv,0,300,112.0,Training at home,,,,,,,,,,,,,
13,13,2811,B,48.344934133935766,19.088658574666116,2.417246706696788,0.2998439477252744,B,543.9103000098839,Correct,sub_013_day_10_data.csv,1,300,112.0,Training at home,,,,,,,,,,,,,
13,13,2812,B,62.91590781167291,39.663841349696646,3.1457953905836455,0.6230381629867902,B,554.715899983421,Correct,sub_013_day_10_data.csv,1,300,112.0,Training at home,,,,,,,,,,,,,
13,13,2813,A,36.13439742176361,44.30096480999585,1.80671987108818,0.6958779279701144,A,458.5654999827966,Correct,sub_013_day_10_data.csv,1,300,112.0,Training at home,,,,,,,,,,,,,
13,13,2814,B,62.33726455303993,39.79560041817757,3.1168632276519963,0.6251078295947077,B,503.1580999493599,Correct,sub_013_day_10_data.csv,1,300,112.0,Training at home,,,,,,,,,,,,,
13,13,2815,A,59.91542388912133,83.13511060753994,2.9957711944560663,1.3058832637001117,A,530.9783999109641,Correct,sub_013_day_10_data.csv,1,300,112.0,Training at home,,,,,,,,,,,,,
13,13,2816,B,50.582787013023065,34.25521427509017,2.5291393506511533,0.5380796475688374,B,460.45540005434304,Correct,sub_013_day_10_data.csv,1,300,112.0,Training at home,,,,,,,,,,,,,
13,13,2817,B,58.59823574535346,48.67725532345416,2.929911787267673,0.7646205386053911,B,465.3156999265775,Correct,sub_013_day_10_data.csv,1,300,112.0,Training at home,,,,,,,,,,,,,
13,13,2818,A,39.82592908839852,60.12641819116459,1.991296454419926,0.944463568380152,A,500.7051998982206,Correct,sub_013_day_10_data.csv,1,300,112.0,Training at home,,,,,,,,,,,,,
13,13,2819,B,68.74491538142709,56.99134832231378,3.4372457690713545,0.8952180060377899,B,493.08240006212145,Correct,sub_013_day_10_data.csv,1,300,112.0,Training at home,,,,,,,,,,,,,
13,13,2820,A,23.95541439518036,55.74173670258047,1.197770719759018,0.8755891526158166,A,414.25269993487746,Correct,sub_013_day_10_data.csv,1,300,112.0,Training at home,,,,,,,,,,,,,
13,13,2821,A,38.14024161320512,49.44925777105206,1.907012080660256,0.7767471246950257,A,411.49850003421307,Correct,sub_013_day_10_data.csv,1,300,112.0,Training at home,,,,,,,,,,,,,
13,13,2822,A,33.81379219654419,53.230594750802545,1.6906896098272095,0.8361442270766835,A,624.2861000355333,Correct,sub_013_day_10_data.csv,1,300,112.0,Training at home,,,,,,,,,,,,,
13,13,2823,B,64.76615156265535,36.6099096455267,3.2383075781327677,0.5750671159548639,B,458.1839999882504,Correct,sub_013_day_10_data.csv,1,300,112.0,Training at home,,,,,,,,,,,,,
13,13,2824,B,81.31645998602839,54.5891708917341,4.06582299930142,0.8574846911951483,B,420.68659991491586,Correct,sub_013_day_10_data.csv,1,300,112.0,Training at home,,,,,,,,,,,,,
13,13,2825,A,52.346287207415955,60.84405059849955,2.617314360370798,0.9557361118744592,B,353.52620005141944,Incorrect,sub_013_day_10_data.csv,0,300,113.0,Training at home,,,,,,,,,,,,,
13,13,2826,B,78.15218806981309,54.015514527886566,3.9076094034906546,0.8484737181034059,B,525.8406999055296,Correct,sub_013_day_10_data.csv,1,300,113.0,Training at home,,,,,,,,,,,,,
13,13,2827,B,41.72167131346136,18.33430172157952,2.086083565673068,0.2879945379860645,A,425.3656999208033,Incorrect,sub_013_day_10_data.csv,0,300,113.0,Training at home,,,,,,,,,,,,,
13,13,2828,B,34.33052700330185,19.639170929155163,1.7165263501650927,0.3084913755681405,B,581.6923000384122,Correct,sub_013_day_10_data.csv,1,300,113.0,Training at home,,,,,,,,,,,,,
13,13,2829,B,64.4137621363934,47.64484534725785,3.2206881068196704,0.7484034806218355,B,684.9212000379339,Correct,sub_013_day_10_data.csv,1,300,113.0,Training at home,,,,,,,,,,,,,
13,13,2830,B,50.01086806805717,19.728305414448855,2.500543403402858,0.3098914967890413,B,362.49030008912086,Correct,sub_013_day_10_data.csv,1,300,113.0,Training at home,,,,,,,,,,,,,
13,13,2831,A,20.991168281779075,36.663757964197,1.0495584140889536,0.5759129633665779,A,438.5785000631586,Correct,sub_013_day_10_data.csv,1,300,113.0,Training at home,,,,,,,,,,,,,
13,13,2832,A,34.91334012602039,57.322103383181336,1.7456670063010191,0.9004134943845855,A,461.1049999948591,Correct,sub_013_day_10_data.csv,1,300,113.0,Training at home,,,,,,,,,,,,,
13,13,2833,B,40.20577287290256,18.887659711811384,2.010288643645128,0.2966866649706528,B,471.46449994761497,Correct,sub_013_day_10_data.csv,1,300,113.0,Training at home,,,,,,,,,,,,,
13,13,2834,B,53.30705070096744,30.769176354043623,2.665352535048372,0.4833210919543611,B,420.159500092268,Correct,sub_013_day_10_data.csv,1,300,113.0,Training at home,,,,,,,,,,,,,
13,13,2835,B,86.44422189482233,66.07571445991182,4.322211094741117,1.0379148956397792,A,410.932100028731,Incorrect,sub_013_day_10_data.csv,0,300,113.0,Training at home,,,,,,,,,,,,,
13,13,2836,A,50.37802438285058,59.94770879517135,2.518901219142529,0.9416564077522528,B,604.3568999739364,Incorrect,sub_013_day_10_data.csv,0,300,113.0,Training at home,,,,,,,,,,,,,
13,13,2837,A,44.54398046016954,74.41196246524312,2.227199023008477,1.168860373100036,A,521.980700083077,Correct,sub_013_day_10_data.csv,1,300,113.0,Training at home,,,,,,,,,,,,,
13,13,2838,B,83.61432769083515,58.51199434013964,4.180716384541757,0.9191042578293512,B,359.3207000521943,Correct,sub_013_day_10_data.csv,1,300,113.0,Training at home,,,,,,,,,,,,,
13,13,2839,A,51.08914614117806,77.33158314254943,2.554457307058903,1.214721667455508,A,509.1715999878943,Correct,sub_013_day_10_data.csv,1,300,113.0,Training at home,,,,,,,,,,,,,
13,13,2840,A,15.548636580689372,38.230194562389954,0.7774318290344686,0.6005184919125637,A,478.38109999429435,Correct,sub_013_day_10_data.csv,1,300,113.0,Training at home,,,,,,,,,,,,,
13,13,2841,B,35.67537044495981,17.877913371511905,1.7837685222479904,0.2808256065472826,B,514.629999990575,Correct,sub_013_day_10_data.csv,1,300,113.0,Training at home,,,,,,,,,,,,,
13,13,2842,A,40.28315202394504,62.61085999353194,2.014157601197252,0.9834890889530952,A,424.05359994154423,Correct,sub_013_day_10_data.csv,1,300,113.0,Training at home,,,,,,,,,,,,,
13,13,2843,A,50.70167990042985,78.94280629289497,2.5350839950214925,1.2400307015176046,A,508.88139999005944,Correct,sub_013_day_10_data.csv,1,300,113.0,Training at home,,,,,,,,,,,,,
13,13,2844,A,31.621897550874465,56.12716088061909,1.581094877543723,0.8816433814470268,A,503.2872000010684,Correct,sub_013_day_10_data.csv,1,300,113.0,Training at home,,,,,,,,,,,,,
13,13,2845,B,52.26950792105556,41.79574490959652,2.613475396052778,0.6565260257965071,B,400.6316000595689,Correct,sub_013_day_10_data.csv,1,300,113.0,Training at home,,,,,,,,,,,,,
13,13,2846,B,74.61958305009168,54.67749061438611,3.730979152504584,0.8588720141544013,B,447.00309995096177,Correct,sub_013_day_10_data.csv,1,300,113.0,Training at home,,,,,,,,,,,,,
13,13,2847,A,47.12996174353108,74.10077259186426,2.3564980871765537,1.1639722139996431,A,381.464600097388,Correct,sub_013_day_10_data.csv,1,300,113.0,Training at home,,,,,,,,,,,,,
13,13,2848,B,78.7629036320178,54.70012296427785,3.93814518160089,0.8592275222751683,B,369.0495999762789,Correct,sub_013_day_10_data.csv,1,300,113.0,Training at home,,,,,,,,,,,,,
13,13,2849,A,48.07770567514258,61.426353902044816,2.4038852837571287,0.9648829107773536,A,480.9261999325827,Correct,sub_013_day_10_data.csv,1,300,113.0,Training at home,,,,,,,,,,,,,
13,13,2850,B,41.57195249519478,29.90935956659016,2.078597624759739,0.4698151214398763,B,406.31250001024455,Correct,sub_013_day_10_data.csv,1,300,114.0,Training at home,,,,,,,,,,,,,
13,13,2851,A,43.44659141064052,73.44559549947303,2.172329570532026,1.1536807162983602,A,465.9799999790266,Correct,sub_013_day_10_data.csv,1,300,114.0,Training at home,,,,,,,,,,,,,
13,13,2852,A,48.45919014757072,58.45037652276768,2.422959507378536,0.9181363674174212,B,417.77019994333386,Incorrect,sub_013_day_10_data.csv,0,300,114.0,Training at home,,,,,,,,,,,,,
13,13,2853,B,57.73403335636909,28.712871489563312,2.8867016678184547,0.4510207306753996,A,445.3396999742836,Incorrect,sub_013_day_10_data.csv,0,300,114.0,Training at home,,,,,,,,,,,,,
13,13,2854,B,45.91105640902585,23.34266571327985,2.295552820451293,0.3666657356002116,B,744.5075999712572,Correct,sub_013_day_10_data.csv,1,300,114.0,Training at home,,,,,,,,,,,,,
13,13,2855,B,78.1420425755864,51.8627700330228,3.90710212877932,0.8146584866528064,A,378.9210000541061,Incorrect,sub_013_day_10_data.csv,0,300,114.0,Training at home,,,,,,,,,,,,,
13,13,2856,A,58.557707745815726,84.08800887603864,2.9278853872907864,1.3208513546997815,A,402.8601000318304,Correct,sub_013_day_10_data.csv,1,300,114.0,Training at home,,,,,,,,,,,,,
13,13,2857,A,35.435220422543324,58.03332594972667,1.7717610211271662,0.911585352335216,B,468.6848000856117,Incorrect,sub_013_day_10_data.csv,0,300,114.0,Training at home,,,,,,,,,,,,,
13,13,2858,B,53.07492007307714,33.95084396353582,2.6537460036538567,0.5332986098950875,B,516.3925000233576,Correct,sub_013_day_10_data.csv,1,300,114.0,Training at home,,,,,,,,,,,,,
13,13,2859,A,64.1887622353213,78.70491291512106,3.2094381117660653,1.2362938810778437,A,434.57779998425394,Correct,sub_013_day_10_data.csv,1,300,114.0,Training at home,,,,,,,,,,,,,
13,13,2860,B,36.0941850796555,26.37667696354008,1.8047092539827752,0.4143238728738432,B,475.56490008719265,Correct,sub_013_day_10_data.csv,1,300,114.0,Training at home,,,,,,,,,,,,,
13,13,2861,A,33.504298242410314,52.0075613657666,1.6752149121205155,0.8169328635890635,B,430.6462000822648,Incorrect,sub_013_day_10_data.csv,0,300,114.0,Training at home,,,,,,,,,,,,,
13,13,2862,A,60.574048512749215,77.95510139372408,3.0287024256374604,1.224515869241855,A,562.9196999361739,Correct,sub_013_day_10_data.csv,1,300,114.0,Training at home,,,,,,,,,,,,,
13,13,2863,A,13.74136892252546,34.210065253920106,0.6870684461262729,0.5373704484027143,A,435.9506999608129,Correct,sub_013_day_10_data.csv,1,300,114.0,Training at home,,,,,,,,,,,,,
13,13,2864,B,47.92399628387002,21.338269264938138,2.396199814193501,0.3351807498152526,B,447.49430008232594,Correct,sub_013_day_10_data.csv,1,300,114.0,Training at home,,,,,,,,,,,,,
13,13,2865,A,49.462838805297494,64.85881929500775,2.473141940264875,1.0187999510885213,A,459.946500021033,Correct,sub_013_day_10_data.csv,1,300,114.0,Training at home,,,,,,,,,,,,,
13,13,2866,A,41.3522732431566,72.38627197932148,2.0676136621578305,1.1370409013549454,A,426.0604999726638,Correct,sub_013_day_10_data.csv,1,300,114.0,Training at home,,,,,,,,,,,,,
13,13,2867,B,71.0841788176878,49.498768143305576,3.55420894088439,0.7775248318037664,B,437.11449997499585,Correct,sub_013_day_10_data.csv,1,300,114.0,Training at home,,,,,,,,,,,,,
13,13,2868,A,14.690732160493448,30.58524128799339,0.7345366080246722,0.4804318466931562,A,402.89200004190207,Correct,sub_013_day_10_data.csv,1,300,114.0,Training at home,,,,,,,,,,,,,
13,13,2869,B,48.318646594426774,34.46725129236594,2.415932329721339,0.5414103172476507,B,339.3738999729976,Correct,sub_013_day_10_data.csv,1,300,114.0,Training at home,,,,,,,,,,,,,
13,13,2870,A,39.9387195486642,46.87421102038261,1.9969359774332105,0.7362983849222585,B,452.23940000869334,Incorrect,sub_013_day_10_data.csv,0,300,114.0,Training at home,,,,,,,,,,,,,
13,13,2871,A,50.74085041131738,75.9248025752095,2.537042520565869,1.192624009977668,A,525.8215999929234,Correct,sub_013_day_10_data.csv,1,300,114.0,Training at home,,,,,,,,,,,,,
13,13,2872,A,44.83754595402495,75.05192992188753,2.2418772977012473,1.1789129584016893,A,397.35640003345907,Correct,sub_013_day_10_data.csv,1,300,114.0,Training at home,,,,,,,,,,,,,
13,13,2873,B,35.1241374637528,19.538643997068757,1.75620687318764,0.3069123022114876,B,413.4559000376612,Correct,sub_013_day_10_data.csv,1,300,114.0,Training at home,,,,,,,,,,,,,
13,13,2874,B,72.5407856707995,54.813795056972864,3.6270392835399745,0.8610130793318124,B,575.2888000570238,Correct,sub_013_day_10_data.csv,1,300,114.0,Training at home,,,,,,,,,,,,,
13,13,2875,B,76.84813709020301,54.36715301800221,3.84240685451015,0.8539972425897395,B,358.59329998493195,Correct,sub_013_day_10_data.csv,1,300,115.0,Training at home,,,,,,,,,,,,,
13,13,2876,A,60.2544196629317,73.42128349470576,3.0127209831465853,1.1532988242205056,A,457.63209997676313,Correct,sub_013_day_10_data.csv,1,300,115.0,Training at home,,,,,,,,,,,,,
13,13,2877,B,37.853684293160704,12.752100428682226,1.8926842146580352,0.2003095251229366,B,477.32850001193583,Correct,sub_013_day_10_data.csv,1,300,115.0,Training at home,,,,,,,,,,,,,
13,13,2878,A,33.005256654315865,44.189308206399275,1.650262832715793,0.6941240301421956,A,537.1041999896988,Correct,sub_013_day_10_data.csv,1,300,115.0,Training at home,,,,,,,,,,,,,
13,13,2879,B,71.14444191362543,39.724402856779626,3.5572220956812712,0.6239894609155013,B,469.4344000890851,Correct,sub_013_day_10_data.csv,1,300,115.0,Training at home,,,,,,,,,,,,,
13,13,2880,B,81.544405527345,66.90915983421785,4.0772202763672505,1.0510066249652203,B,396.6894999612123,Correct,sub_013_day_10_data.csv,1,300,115.0,Training at home,,,,,,,,,,,,,
13,13,2881,A,30.567091717492808,49.793647583124,1.5283545858746406,0.7821567872129075,A,607.3421000037342,Correct,sub_013_day_10_data.csv,1,300,115.0,Training at home,,,,,,,,,,,,,
13,13,2882,A,45.87965015764088,71.08596263053,2.2939825078820437,1.1166156898671582,A,474.92439998313785,Correct,sub_013_day_10_data.csv,1,300,115.0,Training at home,,,,,,,,,,,,,
13,13,2883,B,41.962770737156575,31.929675556258196,2.098138536857829,0.5015501707952317,B,440.4735999414698,Correct,sub_013_day_10_data.csv,1,300,115.0,Training at home,,,,,,,,,,,,,
13,13,2884,B,64.32626549689697,49.34435929852151,3.216313274844848,0.7750993833416518,B,401.8860999494791,Correct,sub_013_day_10_data.csv,1,300,115.0,Training at home,,,,,,,,,,,,,
13,13,2885,A,45.19746173156984,71.09724957771778,2.2598730865784917,1.1167929848189908,A,381.4530000090599,Correct,sub_013_day_10_data.csv,1,300,115.0,Training at home,,,,,,,,,,,,,
13,13,2886,B,49.20906955607953,24.71003832797504,2.460453477803976,0.388144374405443,B,398.1767999939621,Correct,sub_013_day_10_data.csv,1,300,115.0,Training at home,,,,,,,,,,,,,
13,13,2887,B,85.72264303367147,59.23142808198073,4.2861321516835735,0.9304050966199142,A,468.25349994469434,Incorrect,sub_013_day_10_data.csv,0,300,115.0,Training at home,,,,,,,,,,,,,
13,13,2888,B,39.393483555028965,23.370808501718567,1.9696741777514484,0.3671078014872646,B,501.78139994386584,Correct,sub_013_day_10_data.csv,1,300,115.0,Training at home,,,,,,,,,,,,,
13,13,2889,B,65.62324736646524,32.279335932646994,3.281162368323262,0.5070426231438041,B,360.7261999277398,Correct,sub_013_day_10_data.csv,1,300,115.0,Training at home,,,,,,,,,,,,,
13,13,2890,B,49.54758047581707,30.11616501744256,2.4773790237908537,0.4730636138654773,B,1012.7054000040516,Correct,sub_013_day_10_data.csv,1,300,115.0,Training at home,,,,,,,,,,,,,
13,13,2891,B,62.43467440007454,41.68900405514941,3.1217337200037267,0.6548493443756623,B,435.97150000277907,Correct,sub_013_day_10_data.csv,1,300,115.0,Training at home,,,,,,,,,,,,,
13,13,2892,A,32.00908241159943,47.615227313180434,1.6004541205799714,0.7479382416304787,A,409.6322999102995,Correct,sub_013_day_10_data.csv,1,300,115.0,Training at home,,,,,,,,,,,,,
13,13,2893,A,27.01958134151472,54.14096524055901,1.350979067075736,0.8504442932900027,A,555.5210000602528,Correct,sub_013_day_10_data.csv,1,300,115.0,Training at home,,,,,,,,,,,,,
13,13,2894,A,35.54594997747826,45.97623785739574,1.7772974988739128,0.7221930554624569,A,459.2831999761984,Correct,sub_013_day_10_data.csv,1,300,115.0,Training at home,,,,,,,,,,,,,
13,13,2895,B,54.76310763176644,32.56488048803039,2.7381553815883217,0.5115279465311293,B,586.931400001049,Correct,sub_013_day_10_data.csv,1,300,115.0,Training at home,,,,,,,,,,,,,
13,13,2896,A,14.647763412974438,39.328507042814934,0.732388170648722,0.6177707440118092,A,398.8058000104502,Correct,sub_013_day_10_data.csv,1,300,115.0,Training at home,,,,,,,,,,,,,
13,13,2897,B,73.23257768053615,52.12794272264106,3.661628884026808,0.8188238095209933,B,441.7555999243632,Correct,sub_013_day_10_data.csv,1,300,115.0,Training at home,,,,,,,,,,,,,
13,13,2898,A,40.95598769679942,62.047768835903554,2.047799384839971,0.9746440737325616,A,478.4956999355927,Correct,sub_013_day_10_data.csv,1,300,115.0,Training at home,,,,,,,,,,,,,
13,13,2899,A,42.17875731742575,68.52867331605911,2.1089378658712876,1.0764458832499308,A,359.57800003234297,Correct,sub_013_day_10_data.csv,1,300,115.0,Training at home,,,,,,,,,,,,,
13,13,2900,A,57.023779458467075,81.81219846196623,2.8511889729233535,1.2851030083107164,B,524.0763999754563,Incorrect,sub_013_day_10_data.csv,0,300,116.0,Training at home,,,,,,,,,,,,,
13,13,2901,B,83.52453955305832,58.36380474395777,4.176226977652916,0.9167765010958344,B,410.598500049673,Correct,sub_013_day_10_data.csv,1,300,116.0,Training at home,,,,,,,,,,,,,
13,13,2902,B,31.245884597092235,13.032354796811354,1.562294229854612,0.2047117504431913,B,547.5004999898374,Correct,sub_013_day_10_data.csv,1,300,116.0,Training at home,,,,,,,,,,,,,
13,13,2903,B,77.54911528239069,61.913935572858016,3.877455764119534,0.9725418257526124,A,476.47600003983825,Incorrect,sub_013_day_10_data.csv,0,300,116.0,Training at home,,,,,,,,,,,,,
13,13,2904,A,46.945262807313824,74.62297467652952,2.3472631403656914,1.1721749451640116,A,1026.1829999508336,Correct,sub_013_day_10_data.csv,1,300,116.0,Training at home,,,,,,,,,,,,,
13,13,2905,B,51.59243905809606,19.983496744011855,2.579621952904803,0.313900032820116,B,438.6614999966696,Correct,sub_013_day_10_data.csv,1,300,116.0,Training at home,,,,,,,,,,,,,
13,13,2906,B,78.58567994319762,51.443303436527906,3.929283997159881,0.8080695207629331,B,380.19050005823374,Correct,sub_013_day_10_data.csv,1,300,116.0,Training at home,,,,,,,,,,,,,
13,13,2907,B,78.02335707297664,52.50978421844207,3.901167853648832,0.8248217617112144,B,394.25030001439154,Correct,sub_013_day_10_data.csv,1,300,116.0,Training at home,,,,,,,,,,,,,
13,13,2908,B,48.76654193020107,20.073519003440605,2.4383270965100534,0.3153140991645206,B,455.2070000208914,Correct,sub_013_day_10_data.csv,1,300,116.0,Training at home,,,,,,,,,,,,,
13,13,2909,B,78.58550659343398,49.621034415499345,3.929275329671699,0.7794453859162952,B,455.2932999795303,Correct,sub_013_day_10_data.csv,1,300,116.0,Training at home,,,,,,,,,,,,,
13,13,2910,B,48.618045380142526,35.507848067730635,2.430902269007126,0.5577559731718255,B,400.8525999961421,Correct,sub_013_day_10_data.csv,1,300,116.0,Training at home,,,,,,,,,,,,,
13,13,2911,B,47.64564671810899,17.565015685946392,2.3822823359054497,0.2759106211957933,B,407.49450004659593,Correct,sub_013_day_10_data.csv,1,300,116.0,Training at home,,,,,,,,,,,,,
13,13,2912,A,42.84308666872409,71.30911737048635,2.1421543334362045,1.120120996325461,A,512.8110999939963,Correct,sub_013_day_10_data.csv,1,300,116.0,Training at home,,,,,,,,,,,,,
13,13,2913,A,16.6275110381436,41.190334602038874,0.8313755519071799,0.6470162629233539,B,346.65860002860427,Incorrect,sub_013_day_10_data.csv,0,300,116.0,Training at home,,,,,,,,,,,,,
13,13,2914,B,59.99558448589507,49.00047111709929,2.9997792242947536,0.7696976004195897,B,461.7004999890923,Correct,sub_013_day_10_data.csv,1,300,116.0,Training at home,,,,,,,,,,,,,
13,13,2915,A,62.67488785932727,84.94470002863103,3.1337443929663635,1.3343082278566798,A,501.4944000868127,Correct,sub_013_day_10_data.csv,1,300,116.0,Training at home,,,,,,,,,,,,,
13,13,2916,B,67.4165152975238,42.58126624306172,3.37082576487619,0.6688649660487687,B,390.45539998915046,Correct,sub_013_day_10_data.csv,1,300,116.0,Training at home,,,,,,,,,,,,,
13,13,2917,A,63.78649194885371,76.00110660240964,3.1893245974426856,1.1938225908341242,B,436.6689999587834,Incorrect,sub_013_day_10_data.csv,0,300,116.0,Training at home,,,,,,,,,,,,,
13,13,2918,A,63.62195564563831,83.03775908177751,3.1810977822819155,1.3043540695093567,A,444.8347999714315,Correct,sub_013_day_10_data.csv,1,300,116.0,Training at home,,,,,,,,,,,,,
13,13,2919,A,17.159650981134664,38.029642732666574,0.8579825490567332,0.597368231137949,A,445.80619991756976,Correct,sub_013_day_10_data.csv,1,300,116.0,Training at home,,,,,,,,,,,,,
13,13,2920,A,59.36095965878189,81.8133275989847,2.968047982939094,1.2851207447535271,A,421.527799917385,Correct,sub_013_day_10_data.csv,1,300,116.0,Training at home,,,,,,,,,,,,,
13,13,2921,B,63.33635761506933,49.73934407686397,3.1668178807534666,0.7813037897312541,B,496.2420000229031,Correct,sub_013_day_10_data.csv,1,300,116.0,Training at home,,,,,,,,,,,,,
13,13,2922,B,76.26622546573648,61.08672185040624,3.813311273286824,0.9595479829855968,B,554.0172000182793,Correct,sub_013_day_10_data.csv,1,300,116.0,Training at home,,,,,,,,,,,,,
13,13,2923,A,51.61417727403912,65.29796225513128,2.5807088637019557,1.02569799257552,A,392.9759000893682,Correct,sub_013_day_10_data.csv,1,300,116.0,Training at home,,,,,,,,,,,,,
13,13,2924,B,69.15630232384996,37.67966209856135,3.457815116192498,0.5918707481929305,B,562.6134000485763,Correct,sub_013_day_10_data.csv,1,300,116.0,Training at home,,,,,,,,,,,,,
13,13,2925,A,18.20390993552738,38.198862584942304,0.910195496776369,0.6000263303617038,A,387.89509993512183,Correct,sub_013_day_10_data.csv,1,300,117.0,Training at home,,,,,,,,,,,,,
13,13,2926,B,58.869099569458854,34.102872751560795,2.9434549784729427,0.5356866725130547,B,491.5829999372363,Correct,sub_013_day_10_data.csv,1,300,117.0,Training at home,,,,,,,,,,,,,
13,13,2927,A,54.51024349591003,77.2511205970557,2.7255121747955013,1.2134577647464468,A,456.8941999459639,Correct,sub_013_day_10_data.csv,1,300,117.0,Training at home,,,,,,,,,,,,,
13,13,2928,B,46.77061640039128,16.772379169231804,2.338530820019564,0.2634599159064056,B,445.8937000017613,Correct,sub_013_day_10_data.csv,1,300,117.0,Training at home,,,,,,,,,,,,,
13,13,2929,A,64.0645894381108,77.41012141550293,3.2032294719055403,1.2159553437621895,A,385.3091000346467,Correct,sub_013_day_10_data.csv,1,300,117.0,Training at home,,,,,,,,,,,,,
13,13,2930,A,18.729574505832264,34.26916130655859,0.9364787252916132,0.5382987270268402,A,502.3251000093296,Correct,sub_013_day_10_data.csv,1,300,117.0,Training at home,,,,,,,,,,,,,
13,13,2931,A,25.835551231974684,55.65633754133734,1.291777561598734,0.874247705727896,A,425.11880001984537,Correct,sub_013_day_10_data.csv,1,300,117.0,Training at home,,,,,,,,,,,,,
13,13,2932,A,22.908540128152076,48.3612365991121,1.145427006407604,0.759656528091442,A,374.2540000239387,Correct,sub_013_day_10_data.csv,1,300,117.0,Training at home,,,,,,,,,,,,,
13,13,2933,B,56.89164360872428,48.468956161926776,2.844582180436214,0.7613485830273745,B,636.4173000911251,Correct,sub_013_day_10_data.csv,1,300,117.0,Training at home,,,,,,,,,,,,,
13,13,2934,B,81.54056938946555,61.12533982310387,4.0770284694732775,0.9601545926822136,B,444.462800049223,Correct,sub_013_day_10_data.csv,1,300,117.0,Training at home,,,,,,,,,,,,,
13,13,2935,A,46.8510789959434,68.00435912894177,2.34255394979717,1.0682099752578271,A,429.8892000224442,Correct,sub_013_day_10_data.csv,1,300,117.0,Training at home,,,,,,,,,,,,,
13,13,2936,A,13.378586457158278,35.526786373983086,0.6689293228579138,0.5580534553907961,A,431.7889000521973,Correct,sub_013_day_10_data.csv,1,300,117.0,Training at home,,,,,,,,,,,,,
13,13,2937,A,52.636935085205906,78.19820233603025,2.631846754260295,1.228334489914004,B,652.3010999662802,Incorrect,sub_013_day_10_data.csv,0,300,117.0,Training at home,,,,,,,,,,,,,
13,13,2938,B,79.93186829114927,51.580676828518165,3.996593414557464,0.8102273769583097,B,491.0653999540955,Correct,sub_013_day_10_data.csv,1,300,117.0,Training at home,,,,,,,,,,,,,
13,13,2939,A,42.45165162704715,68.54049887215555,2.1225825813523578,1.0766316386507169,A,428.7828999804333,Correct,sub_013_day_10_data.csv,1,300,117.0,Training at home,,,,,,,,,,,,,
13,13,2940,A,38.8698738989972,64.69604781083667,1.94349369494986,1.0162431425940923,A,440.57950004935265,Correct,sub_013_day_10_data.csv,1,300,117.0,Training at home,,,,,,,,,,,,,
13,13,2941,A,23.579516537688313,34.519213042324544,1.1789758268844155,0.5422265305073388,A,529.8891999991611,Correct,sub_013_day_10_data.csv,1,300,117.0,Training at home,,,,,,,,,,,,,
13,13,2942,A,27.882752343732665,57.677445106568626,1.3941376171866329,0.9059951891231228,A,411.42879996914417,Correct,sub_013_day_10_data.csv,1,300,117.0,Training at home,,,,,,,,,,,,,
13,13,2943,B,59.7532717287117,48.59097259535552,2.9876635864355854,0.7632652126817594,B,452.8569000540301,Correct,sub_013_day_10_data.csv,1,300,117.0,Training at home,,,,,,,,,,,,,
13,13,2944,A,21.44580462765359,48.36180937413517,1.0722902313826796,0.7596655252204653,A,442.42530001793057,Correct,sub_013_day_10_data.csv,1,300,117.0,Training at home,,,,,,,,,,,,,
13,13,2945,B,76.25378776892389,58.72026798169087,3.812689388446194,0.92237581254052,B,358.5357000119984,Correct,sub_013_day_10_data.csv,1,300,117.0,Training at home,,,,,,,,,,,,,
13,13,2946,B,52.482075728638904,38.37585640057491,2.624103786431945,0.602806542716315,B,466.8918000534177,Correct,sub_013_day_10_data.csv,1,300,117.0,Training at home,,,,,,,,,,,,,
13,13,2947,B,69.02761176064571,56.725645349280626,3.4513805880322854,0.8910443534972002,B,350.256200064905,Correct,sub_013_day_10_data.csv,1,300,117.0,Training at home,,,,,,,,,,,,,
13,13,2948,B,68.10777888559753,51.077277030958136,3.4053889442798764,0.8023199914291439,B,570.944800041616,Correct,sub_013_day_10_data.csv,1,300,117.0,Training at home,,,,,,,,,,,,,
13,13,2949,A,29.25459846462951,48.02977030973292,1.4627299232314754,0.7544498677933105,A,493.5924999881536,Correct,sub_013_day_10_data.csv,1,300,117.0,Training at home,,,,,,,,,,,,,
13,13,2950,A,40.34869089341307,63.691997291681645,2.0174345446706536,1.0004715539200402,A,382.3269999120385,Correct,sub_013_day_10_data.csv,1,300,118.0,Training at home,,,,,,,,,,,,,
13,13,2951,B,84.10107276585249,62.59921298200939,4.2050536382926245,0.9833061381239177,B,493.7122000847012,Correct,sub_013_day_10_data.csv,1,300,118.0,Training at home,,,,,,,,,,,,,
13,13,2952,B,50.86109219420005,41.06326922537209,2.543054609710002,0.645020324654044,B,568.4617999941111,Correct,sub_013_day_10_data.csv,1,300,118.0,Training at home,,,,,,,,,,,,,
13,13,2953,B,54.68283462856908,39.03028921947276,2.734141731428454,0.6130863493969027,B,407.87730005104095,Correct,sub_013_day_10_data.csv,1,300,118.0,Training at home,,,,,,,,,,,,,
13,13,2954,B,88.21278620777524,65.02048068427959,4.4106393103887624,1.0213393222530491,A,419.2071999423206,Incorrect,sub_013_day_10_data.csv,0,300,118.0,Training at home,,,,,,,,,,,,,
13,13,2955,A,43.33581800530269,56.975718317871454,2.166790900265134,0.8949724905021318,A,444.9643000261858,Correct,sub_013_day_10_data.csv,1,300,118.0,Training at home,,,,,,,,,,,,,
13,13,2956,B,80.8303220319287,56.761733340850384,4.041516101596435,0.891611222343192,B,530.5779000045732,Correct,sub_013_day_10_data.csv,1,300,118.0,Training at home,,,,,,,,,,,,,
13,13,2957,A,51.3047536622275,62.4272056133639,2.565237683111375,0.9806042526954176,B,518.8701000297442,Incorrect,sub_013_day_10_data.csv,0,300,118.0,Training at home,,,,,,,,,,,,,
13,13,2958,B,42.6524622500644,28.091873468818896,2.13262311250322,0.4412661165760773,B,480.3317000623792,Correct,sub_013_day_10_data.csv,1,300,118.0,Training at home,,,,,,,,,,,,,
13,13,2959,A,50.37916204493965,81.18922936918577,2.5189581022469825,1.2753174326842531,A,445.4487999901175,Correct,sub_013_day_10_data.csv,1,300,118.0,Training at home,,,,,,,,,,,,,
13,13,2960,A,45.750689695358446,66.42855998489038,2.287534484767922,1.0434573801854028,A,484.1916000004858,Correct,sub_013_day_10_data.csv,1,300,118.0,Training at home,,,,,,,,,,,,,
13,13,2961,A,30.28658176724478,48.499741024083235,1.5143290883622391,0.761832150511337,B,488.5651000076905,Incorrect,sub_013_day_10_data.csv,0,300,118.0,Training at home,,,,,,,,,,,,,
13,13,2962,A,44.84441119194222,64.1871405840437,2.242220559597111,1.0082492465688349,B,460.1692999713123,Incorrect,sub_013_day_10_data.csv,0,300,118.0,Training at home,,,,,,,,,,,,,
13,13,2963,A,50.55714059125811,65.75508920348076,2.5278570295629055,1.0328785258889837,A,522.0275000901893,Correct,sub_013_day_10_data.csv,1,300,118.0,Training at home,,,,,,,,,,,,,
13,13,2964,B,60.69537650151754,35.11757119893604,3.0347688250758775,0.5516255184524699,B,381.76409993320704,Correct,sub_013_day_10_data.csv,1,300,118.0,Training at home,,,,,,,,,,,,,
13,13,2965,B,37.13939152804413,19.901218502561807,1.8569695764022065,0.3126076092256671,B,393.56959995348006,Correct,sub_013_day_10_data.csv,1,300,118.0,Training at home,,,,,,,,,,,,,
13,13,2966,B,80.74415957179377,50.418899107510725,4.037207978589689,0.7919782151912033,B,612.7440000418574,Correct,sub_013_day_10_data.csv,1,300,118.0,Training at home,,,,,,,,,,,,,
13,13,2967,B,47.76308505747251,22.384176967413342,2.3881542528736257,0.351609829587398,B,432.3073999257758,Correct,sub_013_day_10_data.csv,1,300,118.0,Training at home,,,,,,,,,,,,,
13,13,2968,B,60.461376941074974,37.32057658038139,3.0230688470537483,0.5862302460633072,B,381.23800000175834,Correct,sub_013_day_10_data.csv,1,300,118.0,Training at home,,,,,,,,,,,,,
13,13,2969,B,33.33948845200196,13.867791706965978,1.6669744226000978,0.2178347627405888,B,434.6772999269888,Correct,sub_013_day_10_data.csv,1,300,118.0,Training at home,,,,,,,,,,,,,
13,13,2970,A,36.84217144137069,45.08382022758358,1.8421085720685344,0.7081749921136975,B,488.17370005417615,Incorrect,sub_013_day_10_data.csv,0,300,118.0,Training at home,,,,,,,,,,,,,
13,13,2971,B,47.80091673469632,27.607536941312436,2.3900458367348163,0.4336581761926799,B,363.3892999496311,Correct,sub_013_day_10_data.csv,1,300,118.0,Training at home,,,,,,,,,,,,,
13,13,2972,A,59.729076296551106,86.62879848695597,2.9864538148275552,1.3607619845796577,A,370.2218000544235,Correct,sub_013_day_10_data.csv,1,300,118.0,Training at home,,,,,,,,,,,,,
13,13,2973,A,28.665233157631057,52.41745870462519,1.433261657881553,0.8233715159314842,A,568.3892000233755,Correct,sub_013_day_10_data.csv,1,300,118.0,Training at home,,,,,,,,,,,,,
13,13,2974,A,32.920389318061126,61.88407977884712,1.6460194659030565,0.972072852036954,A,374.6059000259266,Correct,sub_013_day_10_data.csv,1,300,118.0,Training at home,,,,,,,,,,,,,
13,13,2975,B,37.578206905376305,18.830422417675976,1.8789103452688152,0.295787583656817,B,417.7672000369057,Correct,sub_013_day_10_data.csv,1,300,119.0,Training at home,,,,,,,,,,,,,
13,13,2976,A,46.7611502511688,62.941005839820704,2.33805751255844,0.988675007779665,A,453.6029000300914,Correct,sub_013_day_10_data.csv,1,300,119.0,Training at home,,,,,,,,,,,,,
13,13,2977,B,60.10304682596626,43.70369404939495,3.005152341298313,0.6864960208015756,B,467.7475000498816,Correct,sub_013_day_10_data.csv,1,300,119.0,Training at home,,,,,,,,,,,,,
13,13,2978,A,59.09338560277655,85.64111218985337,2.9546692801388277,1.3452474445045133,A,399.3549000006169,Correct,sub_013_day_10_data.csv,1,300,119.0,Training at home,,,,,,,,,,,,,
13,13,2979,A,41.73741317203027,54.98231540416672,2.0868706586015136,0.8636601907554353,A,367.76409996673465,Correct,sub_013_day_10_data.csv,1,300,119.0,Training at home,,,,,,,,,,,,,
13,13,2980,A,25.088148736027502,43.06190990579867,1.2544074368013751,0.6764148990480133,A,356.0592000139877,Correct,sub_013_day_10_data.csv,1,300,119.0,Training at home,,,,,,,,,,,,,
13,13,2981,A,35.90617858095776,44.949632516511365,1.795308929047888,0.706067176477165,A,385.4339000536129,Correct,sub_013_day_10_data.csv,1,300,119.0,Training at home,,,,,,,,,,,,,
13,13,2982,B,49.54166783580243,22.413396918356707,2.4770833917901216,0.3520688155035076,B,467.07429992966354,Correct,sub_013_day_10_data.csv,1,300,119.0,Training at home,,,,,,,,,,,,,
13,13,2983,A,29.477419428179612,38.46250568233555,1.4738709714089806,0.6041676264514051,A,463.0261000711471,Correct,sub_013_day_10_data.csv,1,300,119.0,Training at home,,,,,,,,,,,,,
13,13,2984,B,63.66038900849993,46.88101648773506,3.1830194504249967,0.7364052849534521,B,366.7176999151706,Correct,sub_013_day_10_data.csv,1,300,119.0,Training at home,,,,,,,,,,,,,
13,13,2985,B,35.91337323930399,14.889332830629684,1.7956686619651998,0.2338810931877976,A,438.7795999646187,Incorrect,sub_013_day_10_data.csv,0,300,119.0,Training at home,,,,,,,,,,,,,
13,13,2986,A,36.67486103278955,54.360681691726825,1.8337430516394777,0.8538955912343108,A,521.1843000724912,Correct,sub_013_day_10_data.csv,1,300,119.0,Training at home,,,,,,,,,,,,,
13,13,2987,A,50.308199753652275,75.3099329837028,2.515409987682614,1.182965661019702,A,557.1483999956399,Correct,sub_013_day_10_data.csv,1,300,119.0,Training at home,,,,,,,,,,,,,
13,13,2988,B,31.883482435602406,12.465223315272116,1.5941741217801202,0.1958032699630754,B,389.5620000548661,Correct,sub_013_day_10_data.csv,1,300,119.0,Training at home,,,,,,,,,,,,,
13,13,2989,B,42.944033831181585,21.607544787638293,2.1472016915590793,0.3394105198347844,B,379.23249998129904,Correct,sub_013_day_10_data.csv,1,300,119.0,Training at home,,,,,,,,,,,,,
13,13,2990,B,50.88161279322645,40.118300266099986,2.5440806396613227,0.6301767869524458,A,519.7673999937251,Incorrect,sub_013_day_10_data.csv,0,300,119.0,Training at home,,,,,,,,,,,,,
13,13,2991,B,80.18952672619011,66.61351183593933,4.009476336309506,1.0463625970680186,A,562.7278999891132,Incorrect,sub_013_day_10_data.csv,0,300,119.0,Training at home,,,,,,,,,,,,,
13,13,2992,A,20.725101281256443,34.01742337259657,1.036255064062822,0.5343444368070155,A,507.05539993941784,Correct,sub_013_day_10_data.csv,1,300,119.0,Training at home,,,,,,,,,,,,,
13,13,2993,B,52.12215027627397,40.09182654404791,2.6061075138136984,0.6297609386988859,B,456.89159992616624,Correct,sub_013_day_10_data.csv,1,300,119.0,Training at home,,,,,,,,,,,,,
13,13,2994,A,59.79390515223666,71.60965901159481,2.9896952576118334,1.124841893384482,A,595.9720000391826,Correct,sub_013_day_10_data.csv,1,300,119.0,Training at home,,,,,,,,,,,,,
13,13,2995,A,30.85802066799125,55.90574240400548,1.5429010333995623,0.878165348149535,A,474.0525999804958,Correct,sub_013_day_10_data.csv,1,300,119.0,Training at home,,,,,,,,,,,,,
13,13,2996,A,64.25126588660784,82.84388836610268,3.212563294330392,1.3013087554288054,A,540.8270000480115,Correct,sub_013_day_10_data.csv,1,300,119.0,Training at home,,,,,,,,,,,,,
13,13,2997,B,62.067239945253725,36.76669248160344,3.1033619972626862,0.5775298549850022,B,399.19300004839897,Correct,sub_013_day_10_data.csv,1,300,119.0,Training at home,,,,,,,,,,,,,
13,13,2998,A,38.79970637195409,55.75383766740753,1.9399853185977043,0.8757792341268269,A,489.3319000257179,Correct,sub_013_day_10_data.csv,1,300,119.0,Training at home,,,,,,,,,,,,,
13,13,2999,A,41.93659732635095,68.07884119607904,2.0968298663175475,1.0693799368325403,A,496.12910009454936,Correct,sub_013_day_10_data.csv,1,300,119.0,Training at home,,,,,,,,,,,,,
