subject,day,trial,cat,x,y,xt,yt,resp,rt,fb,f_name,acc,n_trials,block,session_type,ns_left_digit,ns_right_digit,ns_left_size,ns_right_size,ns_congruent,ns_cue,ns_correct_side,ns_resp,ns_rt,ns_fb,acc_stroop,acc_stroop_mean,resp_key
13,3,300,B,69.86624475654058,61.0276647978548,3.493312237827029,0.9586203169734054,B,856.6430000064429,Correct,sub_013_day_02_data.csv,1,300,12.0,Training at home,,,,,,,,,,,,,
13,3,301,A,19.08545083589784,36.29201778547188,0.9542725417948918,0.5700736822939428,A,1034.6804000000702,Correct,sub_013_day_02_data.csv,1,300,12.0,Training at home,,,,,,,,,,,,,
13,3,302,B,78.41194186541735,58.772369051163864,3.9205970932708674,0.9231942142260228,B,1060.3967000060948,Correct,sub_013_day_02_data.csv,1,300,12.0,Training at home,,,,,,,,,,,,,
13,3,303,B,78.3212689208946,57.52259565352147,3.9160634460447294,0.903562819602596,B,548.7719999946421,Correct,sub_013_day_02_data.csv,1,300,12.0,Training at home,,,,,,,,,,,,,
13,3,304,B,68.86710867177625,47.16379474436749,3.4433554335888124,0.7408471554216091,B,657.0692000095733,Correct,sub_013_day_02_data.csv,1,300,12.0,Training at home,,,,,,,,,,,,,
13,3,305,A,21.278168373399865,35.27368856223144,1.0639084186699932,0.554077804260603,A,752.762400006759,Correct,sub_013_day_02_data.csv,1,300,12.0,Training at home,,,,,,,,,,,,,
13,3,306,B,80.69740267296956,49.87700278031349,4.034870133648479,0.7834661275885527,B,606.0151999990921,Correct,sub_013_day_02_data.csv,1,300,12.0,Training at home,,,,,,,,,,,,,
13,3,307,B,42.22197415745667,22.81241591412827,2.1110987078728334,0.3583365912323012,A,1399.1017999942414,Incorrect,sub_013_day_02_data.csv,0,300,12.0,Training at home,,,,,,,,,,,,,
13,3,308,B,59.676230640239254,34.89183826507615,2.983811532011963,0.5480797138190324,B,593.0442999961087,Correct,sub_013_day_02_data.csv,1,300,12.0,Training at home,,,,,,,,,,,,,
13,3,309,A,21.222393296857685,33.78696164371111,1.0611196648428842,0.5307243524350147,A,633.4500999946613,Correct,sub_013_day_02_data.csv,1,300,12.0,Training at home,,,,,,,,,,,,,
13,3,310,B,73.676580612031,55.64151434855852,3.68382903060155,0.8740148635602126,B,1143.2280000008177,Correct,sub_013_day_02_data.csv,1,300,12.0,Training at home,,,,,,,,,,,,,
13,3,311,A,53.43700311044619,82.86054235133138,2.6718501555223093,1.3015703556170428,A,1588.4125000011409,Correct,sub_013_day_02_data.csv,1,300,12.0,Training at home,,,,,,,,,,,,,
13,3,312,A,57.03462301969946,69.85378912691131,2.851731150984973,1.0972607537325758,A,1463.4588999906557,Correct,sub_013_day_02_data.csv,1,300,12.0,Training at home,,,,,,,,,,,,,
13,3,313,A,32.704918715935136,53.66683920115868,1.635245935796757,0.8429967388787243,A,780.167299992172,Correct,sub_013_day_02_data.csv,1,300,12.0,Training at home,,,,,,,,,,,,,
13,3,314,B,36.581846752457274,15.814876216000137,1.8290923376228636,0.2484194946880898,B,1284.7657999955118,Correct,sub_013_day_02_data.csv,1,300,12.0,Training at home,,,,,,,,,,,,,
13,3,315,B,85.69557769283382,64.83667442447697,4.284778884641691,1.0184521002756504,B,912.3270999989472,Correct,sub_013_day_02_data.csv,1,300,12.0,Training at home,,,,,,,,,,,,,
13,3,316,B,75.7401230257989,46.66801727757642,3.787006151289944,0.7330595011841782,B,679.1101999988314,Correct,sub_013_day_02_data.csv,1,300,12.0,Training at home,,,,,,,,,,,,,
13,3,317,A,35.49617954626953,67.58807971497913,1.7748089773134763,1.0616710735140988,A,1085.9682000009343,Correct,sub_013_day_02_data.csv,1,300,12.0,Training at home,,,,,,,,,,,,,
13,3,318,B,66.06896735848817,33.768795953599536,3.3034483679244087,0.5304390064420051,B,2620.6475000071805,Correct,sub_013_day_02_data.csv,1,300,12.0,Training at home,,,,,,,,,,,,,
13,3,319,A,33.919589759102806,42.82811251241655,1.6959794879551402,0.6727424181806246,A,535.5195000011008,Correct,sub_013_day_02_data.csv,1,300,12.0,Training at home,,,,,,,,,,,,,
13,3,320,B,50.65256953964277,40.05737971162389,2.5326284769821386,0.6292198491204721,B,749.9916999950074,Correct,sub_013_day_02_data.csv,1,300,12.0,Training at home,,,,,,,,,,,,,
13,3,321,A,30.92982489701931,63.73968449199343,1.5464912448509651,1.001220622710889,A,826.5749999991385,Correct,sub_013_day_02_data.csv,1,300,12.0,Training at home,,,,,,,,,,,,,
13,3,322,A,56.89333995570766,78.8402913672509,2.8446669977853833,1.238420400831171,A,1348.1488000106765,Correct,sub_013_day_02_data.csv,1,300,12.0,Training at home,,,,,,,,,,,,,
13,3,323,B,52.59668535612808,45.31546238276556,2.629834267806404,0.7118136185786046,B,910.0787000061246,Correct,sub_013_day_02_data.csv,1,300,12.0,Training at home,,,,,,,,,,,,,
13,3,324,B,61.316070242335634,52.44036073262207,3.0658035121167817,0.8237312601460207,B,763.0581999983406,Correct,sub_013_day_02_data.csv,1,300,12.0,Training at home,,,,,,,,,,,,,
13,3,325,B,48.30495877121302,21.949836580221888,2.4152479385606513,0.344787226739608,A,1485.44160000165,Incorrect,sub_013_day_02_data.csv,0,300,13.0,Training at home,,,,,,,,,,,,,
13,3,326,B,58.40185457388031,35.20334151249685,2.9200927286940153,0.5529727953873635,B,774.3209999898681,Correct,sub_013_day_02_data.csv,1,300,13.0,Training at home,,,,,,,,,,,,,
13,3,327,A,41.76909652816173,71.12965329705136,2.0884548264080864,1.117301981252028,A,641.253499998129,Correct,sub_013_day_02_data.csv,1,300,13.0,Training at home,,,,,,,,,,,,,
13,3,328,B,53.9601507898218,36.10288301079779,2.6980075394910905,0.5671027602006705,B,785.9374999970896,Correct,sub_013_day_02_data.csv,1,300,13.0,Training at home,,,,,,,,,,,,,
13,3,329,B,68.33117272059474,55.39873825142935,3.4165586360297366,0.8702013455441715,B,630.3270000062184,Correct,sub_013_day_02_data.csv,1,300,13.0,Training at home,,,,,,,,,,,,,
13,3,330,A,19.585432964962777,46.87712485822392,0.9792716482481388,0.7363441553800386,A,520.280199998524,Correct,sub_013_day_02_data.csv,1,300,13.0,Training at home,,,,,,,,,,,,,
13,3,331,A,61.16581704408915,81.59774490209823,3.058290852204458,1.281734379669629,A,2104.9078999931226,Correct,sub_013_day_02_data.csv,1,300,13.0,Training at home,,,,,,,,,,,,,
13,3,332,B,49.958409677345934,37.023214368558165,2.4979204838672966,0.581559291362712,B,606.6705999983242,Correct,sub_013_day_02_data.csv,1,300,13.0,Training at home,,,,,,,,,,,,,
13,3,333,B,54.2471913535404,38.902909876542125,2.71235956767702,0.6110854793570528,B,533.9157999987947,Correct,sub_013_day_02_data.csv,1,300,13.0,Training at home,,,,,,,,,,,,,
13,3,334,A,31.694959510846537,49.84437592485576,1.5847479755423268,0.782953626141474,A,1131.778100010706,Correct,sub_013_day_02_data.csv,1,300,13.0,Training at home,,,,,,,,,,,,,
13,3,335,A,53.794718171027576,80.5032464284708,2.689735908551379,1.264542037849063,A,741.6928000020562,Correct,sub_013_day_02_data.csv,1,300,13.0,Training at home,,,,,,,,,,,,,
13,3,336,B,65.2525701486906,50.747988519165894,3.26262850743453,0.7971475395813539,B,729.2060000036145,Correct,sub_013_day_02_data.csv,1,300,13.0,Training at home,,,,,,,,,,,,,
13,3,337,A,63.69838859162216,87.53725989274285,3.1849194295811083,1.375032062972107,A,668.4470000036526,Correct,sub_013_day_02_data.csv,1,300,13.0,Training at home,,,,,,,,,,,,,
13,3,338,A,57.05724906673317,81.83502585284,2.852862453336659,1.2854615801280649,A,738.0429000040749,Correct,sub_013_day_02_data.csv,1,300,13.0,Training at home,,,,,,,,,,,,,
13,3,339,A,38.24387729779983,49.26693071100059,1.9121938648899912,0.7738831379329841,A,1014.675200000056,Correct,sub_013_day_02_data.csv,1,300,13.0,Training at home,,,,,,,,,,,,,
13,3,340,A,30.493036807131503,42.84868042261441,1.524651840356575,0.673065498158511,A,835.1450000045588,Correct,sub_013_day_02_data.csv,1,300,13.0,Training at home,,,,,,,,,,,,,
13,3,341,B,68.21888830559409,51.90777699908176,3.4109444152797046,0.8153654544224626,B,801.1131999955978,Correct,sub_013_day_02_data.csv,1,300,13.0,Training at home,,,,,,,,,,,,,
13,3,342,B,56.54536566529168,42.88607397007915,2.8272682832645843,0.6736528746285456,B,582.3062999988906,Correct,sub_013_day_02_data.csv,1,300,13.0,Training at home,,,,,,,,,,,,,
13,3,343,B,65.98450076415709,40.13669945303768,3.2992250382078545,0.6304658007050232,B,656.8236999883084,Correct,sub_013_day_02_data.csv,1,300,13.0,Training at home,,,,,,,,,,,,,
13,3,344,A,11.26084711884858,35.8678285667437,0.563042355942429,0.5634105336275006,A,559.8495999875013,Correct,sub_013_day_02_data.csv,1,300,13.0,Training at home,,,,,,,,,,,,,
13,3,345,B,66.58789940427764,37.05735110005367,3.329394970213882,0.5820955098871312,B,790.3844999964349,Correct,sub_013_day_02_data.csv,1,300,13.0,Training at home,,,,,,,,,,,,,
13,3,346,A,34.23181076019142,42.806324964555955,1.711590538009571,0.6724001801791317,A,750.7297999982256,Correct,sub_013_day_02_data.csv,1,300,13.0,Training at home,,,,,,,,,,,,,
13,3,347,B,73.36417064290782,47.452150806310335,3.668208532145391,0.7453766418506976,B,557.6199999923119,Correct,sub_013_day_02_data.csv,1,300,13.0,Training at home,,,,,,,,,,,,,
13,3,348,B,44.29907005634615,14.958392994374552,2.2149535028173077,0.2349658877031805,A,935.9989000076894,Incorrect,sub_013_day_02_data.csv,0,300,13.0,Training at home,,,,,,,,,,,,,
13,3,349,A,39.30331914634626,58.002651323920496,1.9651659573173133,0.9111035164397946,A,1213.5457999975188,Correct,sub_013_day_02_data.csv,1,300,13.0,Training at home,,,,,,,,,,,,,
13,3,350,B,75.56494490887657,51.046155041403054,3.778247245443828,0.8018311283603871,B,606.7384999914793,Correct,sub_013_day_02_data.csv,1,300,14.0,Training at home,,,,,,,,,,,,,
13,3,351,A,65.0377100666795,85.35301261096654,3.251885503333974,1.3407219869018472,A,2350.276800003485,Correct,sub_013_day_02_data.csv,1,300,14.0,Training at home,,,,,,,,,,,,,
13,3,352,B,50.378319162916654,33.780219944977645,2.5189159581458327,0.5306184540789458,B,1260.956600002828,Correct,sub_013_day_02_data.csv,1,300,14.0,Training at home,,,,,,,,,,,,,
13,3,353,B,70.10949752105418,50.69622287748476,3.5054748760527095,0.7963344067832847,B,621.5074000065215,Correct,sub_013_day_02_data.csv,1,300,14.0,Training at home,,,,,,,,,,,,,
13,3,354,B,47.68497699677467,17.9908621724984,2.3842488498387335,0.2825998021643374,B,804.3065999954706,Correct,sub_013_day_02_data.csv,1,300,14.0,Training at home,,,,,,,,,,,,,
13,3,355,B,64.58771240498768,36.218256183869435,3.229385620249384,0.5689150377653865,B,968.6583000002428,Correct,sub_013_day_02_data.csv,1,300,14.0,Training at home,,,,,,,,,,,,,
13,3,356,B,65.80853844769003,54.21685428410565,3.2904269223845013,0.851636355598473,B,555.9033999888925,Correct,sub_013_day_02_data.csv,1,300,14.0,Training at home,,,,,,,,,,,,,
13,3,357,A,36.2146201416981,68.44358654382475,1.810731007084905,1.0751093433570853,A,1014.04470000125,Correct,sub_013_day_02_data.csv,1,300,14.0,Training at home,,,,,,,,,,,,,
13,3,358,B,65.4551105362201,37.09021011393407,3.272755526811005,0.5826116580701856,B,525.7366999867372,Correct,sub_013_day_02_data.csv,1,300,14.0,Training at home,,,,,,,,,,,,,
13,3,359,B,41.60850504015443,13.663085928982955,2.0804252520077213,0.2146192518992946,B,1326.276499996311,Correct,sub_013_day_02_data.csv,1,300,14.0,Training at home,,,,,,,,,,,,,
13,3,360,B,40.82461057025486,13.996223552439108,2.041230528512743,0.2198521654517157,B,472.8693000070052,Correct,sub_013_day_02_data.csv,1,300,14.0,Training at home,,,,,,,,,,,,,
13,3,361,A,58.8866802713153,73.87371642933928,2.944334013565765,1.1604056241389396,B,678.9245999971172,Incorrect,sub_013_day_02_data.csv,0,300,14.0,Training at home,,,,,,,,,,,,,
13,3,362,B,75.47078624082742,58.651696241705935,3.773539312041371,0.9212986901676172,B,624.9162000021897,Correct,sub_013_day_02_data.csv,1,300,14.0,Training at home,,,,,,,,,,,,,
13,3,363,A,38.25427591394683,61.27749687458078,1.9127137956973417,0.9625446700577724,A,489.7663000010653,Correct,sub_013_day_02_data.csv,1,300,14.0,Training at home,,,,,,,,,,,,,
13,3,364,A,48.57337077366171,59.41930327195889,2.4286685386830853,0.93335623320305,B,1347.284999996191,Incorrect,sub_013_day_02_data.csv,0,300,14.0,Training at home,,,,,,,,,,,,,
13,3,365,A,19.612736735834172,36.44535299500322,0.9806368367917088,0.5724822661329445,A,577.2545000072569,Correct,sub_013_day_02_data.csv,1,300,14.0,Training at home,,,,,,,,,,,,,
13,3,366,A,23.76265582252737,34.40516420690049,1.1881327911263684,0.5404350555897454,A,576.9025000045076,Correct,sub_013_day_02_data.csv,1,300,14.0,Training at home,,,,,,,,,,,,,
13,3,367,A,36.93425080304859,66.44295886983512,1.8467125401524296,1.043683557341214,A,978.2103000034112,Correct,sub_013_day_02_data.csv,1,300,14.0,Training at home,,,,,,,,,,,,,
13,3,368,A,62.91648603950652,74.37248980882462,3.1458243019753263,1.168240338062926,B,1512.1883999963757,Incorrect,sub_013_day_02_data.csv,0,300,14.0,Training at home,,,,,,,,,,,,,
13,3,369,B,39.73622039722521,13.590352723609955,1.9868110198612607,0.2134767613809353,B,1441.3977000076557,Correct,sub_013_day_02_data.csv,1,300,14.0,Training at home,,,,,,,,,,,,,
13,3,370,B,32.11879057137743,15.93129940213512,1.6059395285688711,0.2502482658194358,B,590.7823000015924,Correct,sub_013_day_02_data.csv,1,300,14.0,Training at home,,,,,,,,,,,,,
13,3,371,A,60.60061094220272,73.09660816936618,3.030030547110136,1.1481988361360622,A,860.1022000075318,Correct,sub_013_day_02_data.csv,1,300,14.0,Training at home,,,,,,,,,,,,,
13,3,372,A,27.6256529402971,43.29610210353483,1.3812826470148551,0.680093581487693,A,1930.6181000138167,Correct,sub_013_day_02_data.csv,1,300,14.0,Training at home,,,,,,,,,,,,,
13,3,373,A,42.27770431557101,65.75714237814879,2.1138852157785504,1.0329107770812516,A,1855.887199999415,Correct,sub_013_day_02_data.csv,1,300,14.0,Training at home,,,,,,,,,,,,,
13,3,374,A,39.98221428849673,59.29070602608694,1.9991107144248363,0.931336232388534,A,763.9043999952264,Correct,sub_013_day_02_data.csv,1,300,14.0,Training at home,,,,,,,,,,,,,
13,3,375,A,58.1400915140797,83.2529556979611,2.907004575703985,1.3077343700517554,B,524.2313999915496,Incorrect,sub_013_day_02_data.csv,0,300,15.0,Training at home,,,,,,,,,,,,,
13,3,376,B,83.25188507840546,63.2210814055633,4.162594253920273,0.9930744244785996,B,785.7017000060296,Correct,sub_013_day_02_data.csv,1,300,15.0,Training at home,,,,,,,,,,,,,
13,3,377,A,27.7909014369179,58.4403711077107,1.3895450718458948,0.9179792027252256,A,537.3529000062263,Correct,sub_013_day_02_data.csv,1,300,15.0,Training at home,,,,,,,,,,,,,
13,3,378,A,45.42299656436561,53.326150462475184,2.2711498282182805,0.83764521268568,A,664.7369000129402,Correct,sub_013_day_02_data.csv,1,300,15.0,Training at home,,,,,,,,,,,,,
13,3,379,A,37.565351877394626,67.89887778939708,1.8782675938697313,1.066553078250805,A,589.923200008343,Correct,sub_013_day_02_data.csv,1,300,15.0,Training at home,,,,,,,,,,,,,
13,3,380,B,83.64193412014137,57.35816703004951,4.182096706007069,0.9009799808248992,B,726.463099999819,Correct,sub_013_day_02_data.csv,1,300,15.0,Training at home,,,,,,,,,,,,,
13,3,381,B,64.68355587608698,52.69061328221786,3.234177793804349,0.8276622180027821,B,559.8148999997647,Correct,sub_013_day_02_data.csv,1,300,15.0,Training at home,,,,,,,,,,,,,
13,3,382,A,56.54277003207898,68.4668444924272,2.8271385016039488,1.0754746783594202,B,564.2971000052057,Incorrect,sub_013_day_02_data.csv,0,300,15.0,Training at home,,,,,,,,,,,,,
13,3,383,A,22.281015705619655,54.10665507659492,1.114050785280983,0.8499053504947376,A,539.6840000030352,Correct,sub_013_day_02_data.csv,1,300,15.0,Training at home,,,,,,,,,,,,,
13,3,384,A,52.88567485281692,81.0748201762938,2.644283742640846,1.2735202972847908,A,797.9386999941198,Correct,sub_013_day_02_data.csv,1,300,15.0,Training at home,,,,,,,,,,,,,
13,3,385,B,56.27929156276116,28.534828071970573,2.813964578138058,0.4482240312117528,B,713.162599990028,Correct,sub_013_day_02_data.csv,1,300,15.0,Training at home,,,,,,,,,,,,,
13,3,386,B,57.154638450636824,37.46239514561988,2.857731922531841,0.5884579268767867,B,536.015599995153,Correct,sub_013_day_02_data.csv,1,300,15.0,Training at home,,,,,,,,,,,,,
13,3,387,B,53.22699665811879,45.11063592673615,2.6613498329059393,0.7085962121309903,B,587.0907000062289,Correct,sub_013_day_02_data.csv,1,300,15.0,Training at home,,,,,,,,,,,,,
13,3,388,A,21.894473026860137,45.13516317960608,1.094723651343007,0.708981485318135,A,691.4465000008931,Correct,sub_013_day_02_data.csv,1,300,15.0,Training at home,,,,,,,,,,,,,
13,3,389,B,64.76433210513015,37.499222961859694,3.2382166052565076,0.5890364168615204,B,609.7650000010617,Correct,sub_013_day_02_data.csv,1,300,15.0,Training at home,,,,,,,,,,,,,
13,3,390,A,55.045149537260485,76.94566748224761,2.7522574768630244,1.208659718438961,A,637.5617000012426,Correct,sub_013_day_02_data.csv,1,300,15.0,Training at home,,,,,,,,,,,,,
13,3,391,B,51.606332623245606,19.98185399803502,2.5803166311622805,0.3138742286266532,B,1146.0855000041192,Correct,sub_013_day_02_data.csv,1,300,15.0,Training at home,,,,,,,,,,,,,
13,3,392,A,60.36886615474356,70.55741452965432,3.018443307737178,1.1083132757132588,A,1518.4840000001714,Correct,sub_013_day_02_data.csv,1,300,15.0,Training at home,,,,,,,,,,,,,
13,3,393,B,39.67495478687157,17.994237527194134,1.9837477393435785,0.2826528221119143,B,1731.3495999987936,Correct,sub_013_day_02_data.csv,1,300,15.0,Training at home,,,,,,,,,,,,,
13,3,394,A,27.556316322871726,50.443257332574134,1.3778158161435865,0.7923608332957718,A,899.3682000000263,Correct,sub_013_day_02_data.csv,1,300,15.0,Training at home,,,,,,,,,,,,,
13,3,395,A,38.379398101476106,71.52012788759849,1.9189699050738056,1.1234355417774096,A,883.7547000002814,Correct,sub_013_day_02_data.csv,1,300,15.0,Training at home,,,,,,,,,,,,,
13,3,396,B,54.56799506472262,38.20613779091052,2.728399753236131,0.6001406090298192,B,875.8974000083981,Correct,sub_013_day_02_data.csv,1,300,15.0,Training at home,,,,,,,,,,,,,
13,3,397,A,63.47054730474548,77.95958697914554,3.173527365237274,1.2245863286528904,A,1929.9217999941905,Correct,sub_013_day_02_data.csv,1,300,15.0,Training at home,,,,,,,,,,,,,
13,3,398,A,39.122428333268665,49.263901554699025,1.956121416663433,0.7738355560570663,A,3765.0414999952777,Correct,sub_013_day_02_data.csv,1,300,15.0,Training at home,,,,,,,,,,,,,
13,3,399,A,55.837319361516954,72.89840572600352,2.7918659680758475,1.1450854794361036,A,1341.136799994274,Correct,sub_013_day_02_data.csv,1,300,15.0,Training at home,,,,,,,,,,,,,
13,3,400,A,52.15109875896251,69.11596671282135,2.6075549379481253,1.0856710663537812,A,2600.589099994977,Correct,sub_013_day_02_data.csv,1,300,16.0,Training at home,,,,,,,,,,,,,
13,3,401,B,51.37636337736219,34.46011725940097,2.5688181688681095,0.5412982561198846,B,739.7990000026766,Correct,sub_013_day_02_data.csv,1,300,16.0,Training at home,,,,,,,,,,,,,
13,3,402,A,61.676570658936306,87.58503702577985,3.083828532946815,1.3757825444229002,A,913.8880999962566,Correct,sub_013_day_02_data.csv,1,300,16.0,Training at home,,,,,,,,,,,,,
13,3,403,B,41.552389612004575,24.971514629779826,2.0776194806002284,0.3922516345496317,B,1373.145299992757,Correct,sub_013_day_02_data.csv,1,300,16.0,Training at home,,,,,,,,,,,,,
13,3,404,B,48.84405885365126,31.669885927656996,2.442202942682563,0.4974694048517699,B,882.4127999978373,Correct,sub_013_day_02_data.csv,1,300,16.0,Training at home,,,,,,,,,,,,,
13,3,405,A,31.67603264718429,58.52515626054541,1.5838016323592143,0.9193110047916208,A,716.0379000124522,Correct,sub_013_day_02_data.csv,1,300,16.0,Training at home,,,,,,,,,,,,,
13,3,406,B,72.30989608668584,43.40861054531129,3.615494804334292,0.6818608599584518,B,773.5268999967957,Correct,sub_013_day_02_data.csv,1,300,16.0,Training at home,,,,,,,,,,,,,
13,3,407,A,45.391197767336216,58.25393166143821,2.269559888366811,0.9150506187514807,A,1879.5909000036772,Correct,sub_013_day_02_data.csv,1,300,16.0,Training at home,,,,,,,,,,,,,
13,3,408,B,38.672505322502786,18.794805096355542,1.9336252661251392,0.2952281080818129,A,672.925100006978,Incorrect,sub_013_day_02_data.csv,0,300,16.0,Training at home,,,,,,,,,,,,,
13,3,409,B,83.53550756233042,62.688470293241465,4.17677537811652,0.9847081886901468,B,1749.5089000003643,Correct,sub_013_day_02_data.csv,1,300,16.0,Training at home,,,,,,,,,,,,,
13,3,410,B,63.12076160230844,35.94047198857932,3.156038080115422,0.5645516138293527,B,646.772799998871,Correct,sub_013_day_02_data.csv,1,300,16.0,Training at home,,,,,,,,,,,,,
13,3,411,B,48.08472572773698,33.071834734138,2.404236286386849,0.5194911652075185,B,907.1879000111948,Correct,sub_013_day_02_data.csv,1,300,16.0,Training at home,,,,,,,,,,,,,
13,3,412,B,77.19267734475329,46.7781023510276,3.859633867237664,0.7347887134742987,B,614.4769999955315,Correct,sub_013_day_02_data.csv,1,300,16.0,Training at home,,,,,,,,,,,,,
13,3,413,A,33.675661344804176,54.88854992320179,1.683783067240209,0.8621873260246369,A,569.016699999338,Correct,sub_013_day_02_data.csv,1,300,16.0,Training at home,,,,,,,,,,,,,
13,3,414,B,57.62796309994343,31.900873829819037,2.881398154997171,0.5010977543342718,B,462.29280000261497,Correct,sub_013_day_02_data.csv,1,300,16.0,Training at home,,,,,,,,,,,,,
13,3,415,B,34.428544755453146,18.551789380854697,1.7214272377726574,0.2914108261491913,A,536.879899998894,Incorrect,sub_013_day_02_data.csv,0,300,16.0,Training at home,,,,,,,,,,,,,
13,3,416,B,51.6999335591303,41.984632195589754,2.5849966779565148,0.6594930603466713,B,666.7336999962572,Correct,sub_013_day_02_data.csv,1,300,16.0,Training at home,,,,,,,,,,,,,
13,3,417,A,58.30996630704085,69.88605441991024,2.915498315352042,1.0977675757698324,A,1369.3047999986447,Correct,sub_013_day_02_data.csv,1,300,16.0,Training at home,,,,,,,,,,,,,
13,3,418,A,42.11436878067117,73.68127487078199,2.105718439033558,1.1573827592058947,A,747.5790000025881,Correct,sub_013_day_02_data.csv,1,300,16.0,Training at home,,,,,,,,,,,,,
13,3,419,A,61.13659622308204,80.0080903164591,3.056829811154102,1.2567641438296828,B,1947.1469999989497,Incorrect,sub_013_day_02_data.csv,0,300,16.0,Training at home,,,,,,,,,,,,,
13,3,420,A,17.26831226997637,47.02135765339379,0.8634156134988186,0.7386097588286008,A,553.4448999969754,Correct,sub_013_day_02_data.csv,1,300,16.0,Training at home,,,,,,,,,,,,,
13,3,421,A,68.3176150146345,87.17277792085825,3.415880750731725,1.369306793545914,A,1171.31989999325,Correct,sub_013_day_02_data.csv,1,300,16.0,Training at home,,,,,,,,,,,,,
13,3,422,B,53.07194743042668,46.05293848572386,2.653597371521334,0.7233978661148636,B,633.0353999946965,Correct,sub_013_day_02_data.csv,1,300,16.0,Training at home,,,,,,,,,,,,,
13,3,423,B,70.217167244868,40.509873163502874,3.5108583622433995,0.6363275996415747,B,522.3273000010522,Correct,sub_013_day_02_data.csv,1,300,16.0,Training at home,,,,,,,,,,,,,
13,3,424,B,84.07514728088493,64.39503351629924,4.203757364044247,1.0115148211123708,B,902.9290000034962,Correct,sub_013_day_02_data.csv,1,300,16.0,Training at home,,,,,,,,,,,,,
13,3,425,A,50.19320088779937,70.98601658272332,2.509660044389969,1.115045741019434,A,1630.5477999994764,Correct,sub_013_day_02_data.csv,1,300,17.0,Training at home,,,,,,,,,,,,,
13,3,426,A,25.367176662642436,53.13488750459779,1.2683588331321218,0.8346408611688225,A,749.0752000012435,Correct,sub_013_day_02_data.csv,1,300,17.0,Training at home,,,,,,,,,,,,,
13,3,427,A,57.97921640105014,85.89188350210249,2.898960820052507,1.3491865510659775,A,870.1731999899494,Correct,sub_013_day_02_data.csv,1,300,17.0,Training at home,,,,,,,,,,,,,
13,3,428,B,71.38942605881148,52.362297869799846,3.569471302940574,0.8225050515642184,B,637.6063000061549,Correct,sub_013_day_02_data.csv,1,300,17.0,Training at home,,,,,,,,,,,,,
13,3,429,A,29.08042386695903,58.78211384916575,1.4540211933479514,0.9233472851550898,A,1289.88229999959,Correct,sub_013_day_02_data.csv,1,300,17.0,Training at home,,,,,,,,,,,,,
13,3,430,B,59.76517992132885,29.559131602429257,2.9882589960664427,0.4643137534434282,B,622.2691000002669,Correct,sub_013_day_02_data.csv,1,300,17.0,Training at home,,,,,,,,,,,,,
13,3,431,B,59.57006665861534,38.91460604903951,2.978503332930767,0.6112692024050174,B,590.3008000022965,Correct,sub_013_day_02_data.csv,1,300,17.0,Training at home,,,,,,,,,,,,,
13,3,432,B,59.9230694338982,32.798868526606675,2.99615347169491,0.515203422046225,B,593.7106999917887,Correct,sub_013_day_02_data.csv,1,300,17.0,Training at home,,,,,,,,,,,,,
13,3,433,B,67.63573280901718,47.76799968097387,3.3817866404508594,0.7503379843721356,B,583.1135000044014,Correct,sub_013_day_02_data.csv,1,300,17.0,Training at home,,,,,,,,,,,,,
13,3,434,B,39.87657359311292,26.99232891500023,1.9938286796556464,0.4239945111132204,B,866.3239000015892,Correct,sub_013_day_02_data.csv,1,300,17.0,Training at home,,,,,,,,,,,,,
13,3,435,A,20.117153990810547,33.65783044733239,1.0058576995405273,0.5286959643455513,B,1132.749399999739,Incorrect,sub_013_day_02_data.csv,0,300,17.0,Training at home,,,,,,,,,,,,,
13,3,436,B,38.5264909958752,20.61379223780016,1.92632454979376,0.3238006912844964,A,913.4575000061886,Incorrect,sub_013_day_02_data.csv,0,300,17.0,Training at home,,,,,,,,,,,,,
13,3,437,B,52.80345132656704,29.43433444291147,2.640172566328352,0.4623534442457784,B,634.0821000048891,Correct,sub_013_day_02_data.csv,1,300,17.0,Training at home,,,,,,,,,,,,,
13,3,438,B,64.10833435563815,31.15373116858995,3.2054167177819073,0.4893616648557677,B,582.9138999979477,Correct,sub_013_day_02_data.csv,1,300,17.0,Training at home,,,,,,,,,,,,,
13,3,439,B,37.27033958742764,21.504327597492132,1.8635169793713824,0.3377891880033476,B,1001.885100005893,Correct,sub_013_day_02_data.csv,1,300,17.0,Training at home,,,,,,,,,,,,,
13,3,440,B,41.11228272122645,20.772953537544183,2.0556141360613225,0.3263007911345545,B,892.490899990662,Correct,sub_013_day_02_data.csv,1,300,17.0,Training at home,,,,,,,,,,,,,
13,3,441,A,26.498941178311135,49.770702241155085,1.3249470589155568,0.7817963626240895,A,659.0415999962715,Correct,sub_013_day_02_data.csv,1,300,17.0,Training at home,,,,,,,,,,,,,
13,3,442,B,79.25424083867159,48.20380410083334,3.962712041933579,0.7571835841912977,B,748.471700004302,Correct,sub_013_day_02_data.csv,1,300,17.0,Training at home,,,,,,,,,,,,,
13,3,443,B,83.81884197885421,64.30107292874906,4.190942098942711,1.0100388916544978,B,883.2167000073241,Correct,sub_013_day_02_data.csv,1,300,17.0,Training at home,,,,,,,,,,,,,
13,3,444,B,53.01403700263149,31.848170133190607,2.6507018501315747,0.5002698866035473,B,863.796599995112,Correct,sub_013_day_02_data.csv,1,300,17.0,Training at home,,,,,,,,,,,,,
13,3,445,B,82.02103250746046,64.98050815697067,4.101051625373023,1.0207114352623534,B,789.7851999878185,Correct,sub_013_day_02_data.csv,1,300,17.0,Training at home,,,,,,,,,,,,,
13,3,446,B,77.71448153933184,60.37086732838816,3.885724076966592,0.9483033664485416,B,746.9875999959186,Correct,sub_013_day_02_data.csv,1,300,17.0,Training at home,,,,,,,,,,,,,
13,3,447,A,60.50672647459458,87.24668407827645,3.0253363237297286,1.370467708751914,A,731.8763000075705,Correct,sub_013_day_02_data.csv,1,300,17.0,Training at home,,,,,,,,,,,,,
13,3,448,B,45.804832026588414,17.717063716082627,2.290241601329421,0.2782989860681373,B,1329.0457000111928,Correct,sub_013_day_02_data.csv,1,300,17.0,Training at home,,,,,,,,,,,,,
13,3,449,A,44.17504362346719,54.5532627359778,2.2087521811733595,0.8569206472035084,A,1407.8182999946875,Correct,sub_013_day_02_data.csv,1,300,17.0,Training at home,,,,,,,,,,,,,
13,3,450,A,56.34868661414896,81.12359195193253,2.817434330707448,1.2742864025450364,A,926.9887000118616,Correct,sub_013_day_02_data.csv,1,300,18.0,Training at home,,,,,,,,,,,,,
13,3,451,B,52.056345075152734,39.7456353432909,2.602817253757637,0.6243229800337076,B,946.0120000003373,Correct,sub_013_day_02_data.csv,1,300,18.0,Training at home,,,,,,,,,,,,,
13,3,452,A,29.02068510102498,51.823706546691234,1.451034255051249,0.814044878844392,A,831.2179999920772,Correct,sub_013_day_02_data.csv,1,300,18.0,Training at home,,,,,,,,,,,,,
13,3,453,A,39.85909985108278,65.36366559419339,1.9929549925541392,1.0267300582120893,A,1007.7585999970324,Correct,sub_013_day_02_data.csv,1,300,18.0,Training at home,,,,,,,,,,,,,
13,3,454,A,50.3250582307857,70.42660177192738,2.516252911539285,1.1062584737199048,A,784.8804000095697,Correct,sub_013_day_02_data.csv,1,300,18.0,Training at home,,,,,,,,,,,,,
13,3,455,A,55.40883811269999,77.34715373496542,2.770441905635,1.2149662497492384,A,784.7074000019347,Correct,sub_013_day_02_data.csv,1,300,18.0,Training at home,,,,,,,,,,,,,
13,3,456,B,55.74053820971095,46.29952846761573,2.7870269104855474,0.7272712924926653,B,776.8340000038734,Correct,sub_013_day_02_data.csv,1,300,18.0,Training at home,,,,,,,,,,,,,
13,3,457,A,27.320838562717864,43.08204678694659,1.366041928135893,0.6767312084374159,A,678.5216999996919,Correct,sub_013_day_02_data.csv,1,300,18.0,Training at home,,,,,,,,,,,,,
13,3,458,B,56.30011409686417,34.71720959551495,2.8150057048432084,0.5453366530920343,B,811.8955999962054,Correct,sub_013_day_02_data.csv,1,300,18.0,Training at home,,,,,,,,,,,,,
13,3,459,B,65.90553419385338,47.02849079723567,3.2952767096926694,0.7387218059900538,B,970.539000001736,Correct,sub_013_day_02_data.csv,1,300,18.0,Training at home,,,,,,,,,,,,,
13,3,460,A,19.1682339690754,39.10818223303437,0.95841169845377,0.6143098899927583,A,548.3252999983961,Correct,sub_013_day_02_data.csv,1,300,18.0,Training at home,,,,,,,,,,,,,
13,3,461,A,53.520328796552256,67.6628096208787,2.6760164398276127,1.0628449281309864,A,1440.2489000058267,Correct,sub_013_day_02_data.csv,1,300,18.0,Training at home,,,,,,,,,,,,,
13,3,462,A,41.14444524825085,60.85976245998354,2.0572222624125427,0.9559829132175208,B,1458.9924000028986,Incorrect,sub_013_day_02_data.csv,0,300,18.0,Training at home,,,,,,,,,,,,,
13,3,463,B,57.88204892048854,37.491431419797905,2.8941024460244273,0.5889140276050133,B,712.0531999971718,Correct,sub_013_day_02_data.csv,1,300,18.0,Training at home,,,,,,,,,,,,,
13,3,464,A,36.59826251208176,46.798487523051065,1.829913125604088,0.7351089230076541,A,2880.287299994962,Correct,sub_013_day_02_data.csv,1,300,18.0,Training at home,,,,,,,,,,,,,
13,3,465,B,33.304243639403225,18.02227416482634,1.6652121819701613,0.2830932205859978,A,558.1481000117492,Incorrect,sub_013_day_02_data.csv,0,300,18.0,Training at home,,,,,,,,,,,,,
13,3,466,A,53.08458802045508,62.67068544290219,2.654229401022754,0.9844288249142916,A,903.8670000009006,Correct,sub_013_day_02_data.csv,1,300,18.0,Training at home,,,,,,,,,,,,,
13,3,467,B,50.10503980290597,25.394659539552073,2.505251990145298,0.3988983792493537,B,586.8499999924097,Correct,sub_013_day_02_data.csv,1,300,18.0,Training at home,,,,,,,,,,,,,
13,3,468,B,77.89403114285376,47.251437142682775,3.894701557142688,0.7422238389950605,B,1439.5118999964325,Correct,sub_013_day_02_data.csv,1,300,18.0,Training at home,,,,,,,,,,,,,
13,3,469,A,38.85810003203298,55.19067277708346,1.942905001601649,0.8669330607158179,A,1532.7335000038147,Correct,sub_013_day_02_data.csv,1,300,18.0,Training at home,,,,,,,,,,,,,
13,3,470,A,20.518954296860507,35.60688039775689,1.0259477148430252,0.5593115693742172,B,1278.7011000036728,Incorrect,sub_013_day_02_data.csv,0,300,18.0,Training at home,,,,,,,,,,,,,
13,3,471,B,71.87821135705425,39.30982457615923,3.593910567852713,0.6174772805118266,B,1106.3762999983735,Correct,sub_013_day_02_data.csv,1,300,18.0,Training at home,,,,,,,,,,,,,
13,3,472,B,61.67037750078533,37.368026477679535,3.0835188750392666,0.5869755873071345,B,681.9084999879124,Correct,sub_013_day_02_data.csv,1,300,18.0,Training at home,,,,,,,,,,,,,
13,3,473,B,31.078312135048098,15.869386773378912,1.5539156067524047,0.2492757445211111,B,1581.9198000099277,Correct,sub_013_day_02_data.csv,1,300,18.0,Training at home,,,,,,,,,,,,,
13,3,474,B,40.94261057934069,29.98587279818158,2.0471305289670343,0.4710169884712262,A,1325.948600002448,Incorrect,sub_013_day_02_data.csv,0,300,18.0,Training at home,,,,,,,,,,,,,
13,3,475,A,26.826379064748767,56.9469688319635,1.3413189532374383,0.8945208946335175,A,2273.1365999934496,Correct,sub_013_day_02_data.csv,1,300,19.0,Training at home,,,,,,,,,,,,,
13,3,476,A,51.8262497278233,67.33833088831057,2.591312486391165,1.0577480281185756,A,2075.089299993124,Correct,sub_013_day_02_data.csv,1,300,19.0,Training at home,,,,,,,,,,,,,
13,3,477,B,83.068578386753,57.9936041657851,4.15342891933765,0.9109614040121246,B,1040.1326999999585,Correct,sub_013_day_02_data.csv,1,300,19.0,Training at home,,,,,,,,,,,,,
13,3,478,A,22.985614175868264,42.80281577928681,1.1492807087934132,0.6723450580258236,A,666.7319999978645,Correct,sub_013_day_02_data.csv,1,300,19.0,Training at home,,,,,,,,,,,,,
13,3,479,B,72.86444665703931,59.965998422029706,3.6432223328519657,0.9419437005391283,B,2270.927200006554,Correct,sub_013_day_02_data.csv,1,300,19.0,Training at home,,,,,,,,,,,,,
13,3,480,B,33.53080873017923,14.15969767748786,1.6765404365089611,0.2224200110032415,B,1388.4342999954242,Correct,sub_013_day_02_data.csv,1,300,19.0,Training at home,,,,,,,,,,,,,
13,3,481,A,44.77595192575778,62.4013505283703,2.238797596287889,0.9801981219700486,B,791.5145000006305,Incorrect,sub_013_day_02_data.csv,0,300,19.0,Training at home,,,,,,,,,,,,,
13,3,482,B,48.26153686547828,22.25638476891939,2.4130768432739136,0.3496024744275245,B,618.3608999999706,Correct,sub_013_day_02_data.csv,1,300,19.0,Training at home,,,,,,,,,,,,,
13,3,483,B,50.93355177240693,43.20309900884023,2.5466775886203465,0.6786326922924247,B,1703.0102999997323,Correct,sub_013_day_02_data.csv,1,300,19.0,Training at home,,,,,,,,,,,,,
13,3,484,B,69.63810138096201,39.748723986644386,3.4819050690481004,0.624371496330052,B,675.8933999954024,Correct,sub_013_day_02_data.csv,1,300,19.0,Training at home,,,,,,,,,,,,,
13,3,485,B,55.43004212152255,29.437376802859298,2.7715021060761273,0.4624012335240868,B,620.4146999953082,Correct,sub_013_day_02_data.csv,1,300,19.0,Training at home,,,,,,,,,,,,,
13,3,486,A,43.78047350194966,57.3116085406189,2.1890236750974825,0.9002486417831119,A,1091.0314999928232,Correct,sub_013_day_02_data.csv,1,300,19.0,Training at home,,,,,,,,,,,,,
13,3,487,A,52.17782815898952,72.53657596711707,2.608891407949476,1.1394018708742648,A,1170.1687000022505,Correct,sub_013_day_02_data.csv,1,300,19.0,Training at home,,,,,,,,,,,,,
13,3,488,B,58.713715337875655,51.10540703455264,2.935685766893783,0.8027618564923334,B,997.8229000116698,Correct,sub_013_day_02_data.csv,1,300,19.0,Training at home,,,,,,,,,,,,,
13,3,489,A,13.253988291642017,40.272858398666486,0.6626994145821008,0.6326045804215632,A,789.1433000040706,Correct,sub_013_day_02_data.csv,1,300,19.0,Training at home,,,,,,,,,,,,,
13,3,490,A,36.59885873321567,44.15852336036999,1.8299429366607836,0.6936404629115581,B,1909.7828999947524,Incorrect,sub_013_day_02_data.csv,0,300,19.0,Training at home,,,,,,,,,,,,,
13,3,491,A,38.91375208744603,50.82916034505233,1.9456876043723017,0.7984225836407702,A,690.1491000025999,Correct,sub_013_day_02_data.csv,1,300,19.0,Training at home,,,,,,,,,,,,,
13,3,492,A,67.58888096712593,80.89926564739173,3.3794440483562966,1.270762693193275,A,1965.6319999921832,Correct,sub_013_day_02_data.csv,1,300,19.0,Training at home,,,,,,,,,,,,,
13,3,493,A,50.65798382644336,64.76239109007898,2.5328991913221675,1.017285260387506,A,2475.12459999416,Correct,sub_013_day_02_data.csv,1,300,19.0,Training at home,,,,,,,,,,,,,
13,3,494,B,34.181164416549315,20.453455563365907,1.7090582208274656,0.3212821286919781,B,698.6839000019245,Correct,sub_013_day_02_data.csv,1,300,19.0,Training at home,,,,,,,,,,,,,
13,3,495,A,57.12036204910713,68.48199625825356,2.856018102455357,1.0757126817404654,A,1182.399199999054,Correct,sub_013_day_02_data.csv,1,300,19.0,Training at home,,,,,,,,,,,,,
13,3,496,A,17.77856273262387,32.519251992929966,0.8889281366311935,0.5108112158061201,A,778.9593000052264,Correct,sub_013_day_02_data.csv,1,300,19.0,Training at home,,,,,,,,,,,,,
13,3,497,B,63.19805671529405,53.88723908878233,3.1599028357647025,0.8464587722177765,B,968.9400999923236,Correct,sub_013_day_02_data.csv,1,300,19.0,Training at home,,,,,,,,,,,,,
13,3,498,A,65.1090867714125,81.90018440553644,3.2554543385706256,1.2864850882804129,A,637.2788000007858,Correct,sub_013_day_02_data.csv,1,300,19.0,Training at home,,,,,,,,,,,,,
13,3,499,B,40.483576258325215,15.800246450921277,2.024178812916261,0.2481896908756123,B,686.419300007401,Correct,sub_013_day_02_data.csv,1,300,19.0,Training at home,,,,,,,,,,,,,
13,3,500,A,26.084885373270527,58.64731207072445,1.3042442686635265,0.9212298237708796,A,775.7015000097454,Correct,sub_013_day_02_data.csv,1,300,20.0,Training at home,,,,,,,,,,,,,
13,3,501,B,82.58160844046746,62.280902279094775,4.129080422023373,0.9783061252947396,A,1617.2415999899383,Incorrect,sub_013_day_02_data.csv,0,300,20.0,Training at home,,,,,,,,,,,,,
13,3,502,A,35.791747978966086,53.09522612512434,1.7895873989483044,0.8340178616768974,A,1153.0837000027532,Correct,sub_013_day_02_data.csv,1,300,20.0,Training at home,,,,,,,,,,,,,
13,3,503,A,61.33834432988549,77.77318111879913,3.066917216494274,1.2216582722456388,B,1335.596600009012,Incorrect,sub_013_day_02_data.csv,0,300,20.0,Training at home,,,,,,,,,,,,,
13,3,504,A,16.938474673873554,47.437295822235086,0.8469237336936777,0.7451433003064976,A,987.892400007695,Correct,sub_013_day_02_data.csv,1,300,20.0,Training at home,,,,,,,,,,,,,
13,3,505,B,58.03472350570697,49.80866546784015,2.901736175285349,0.7823926875943912,B,839.4004000001587,Correct,sub_013_day_02_data.csv,1,300,20.0,Training at home,,,,,,,,,,,,,
13,3,506,B,64.17909746410776,42.225887570162136,3.208954873205388,0.6632826909086496,B,858.2203999976628,Correct,sub_013_day_02_data.csv,1,300,20.0,Training at home,,,,,,,,,,,,,
13,3,507,A,63.34501398533932,77.83275877937083,3.1672506992669662,1.2225941159494895,A,975.8527000085452,Correct,sub_013_day_02_data.csv,1,300,20.0,Training at home,,,,,,,,,,,,,
13,3,508,A,22.15361574052024,52.40857095227162,1.107680787026012,0.8232319074439798,A,1693.6936999991303,Correct,sub_013_day_02_data.csv,1,300,20.0,Training at home,,,,,,,,,,,,,
13,3,509,B,43.980997336459545,29.0577195249854,2.1990498668229774,0.4564375909488341,B,734.1861000022618,Correct,sub_013_day_02_data.csv,1,300,20.0,Training at home,,,,,,,,,,,,,
13,3,510,B,70.7365871721143,48.67737668742485,3.536829358605715,0.7646224449861847,B,1392.3429999995278,Correct,sub_013_day_02_data.csv,1,300,20.0,Training at home,,,,,,,,,,,,,
13,3,511,B,59.124648522572215,44.94242667486755,2.9562324261286106,0.7059539873813091,B,743.5746999981347,Correct,sub_013_day_02_data.csv,1,300,20.0,Training at home,,,,,,,,,,,,,
13,3,512,B,48.01518578283334,23.883827265284307,2.400759289141667,0.3751662813811239,B,615.441700007068,Correct,sub_013_day_02_data.csv,1,300,20.0,Training at home,,,,,,,,,,,,,
13,3,513,A,29.00282612887461,56.69498216731543,1.4501413064437303,0.8905626973612123,A,946.3577999995324,Correct,sub_013_day_02_data.csv,1,300,20.0,Training at home,,,,,,,,,,,,,
13,3,514,A,33.787525986204344,65.81842821452312,1.6893762993102173,1.033873452747865,B,1652.6306999876397,Incorrect,sub_013_day_02_data.csv,0,300,20.0,Training at home,,,,,,,,,,,,,
13,3,515,A,60.44758688393442,85.63006830426106,3.0223793441967213,1.3450739675552936,A,1659.8882999969646,Correct,sub_013_day_02_data.csv,1,300,20.0,Training at home,,,,,,,,,,,,,
13,3,516,B,83.12180774872539,54.85690043274996,4.156090387436269,0.86169017699117,B,714.4272000005003,Correct,sub_013_day_02_data.csv,1,300,20.0,Training at home,,,,,,,,,,,,,
13,3,517,A,35.49223606008104,54.50568473570207,1.774611803004052,0.8561732937228146,A,701.6065000061644,Correct,sub_013_day_02_data.csv,1,300,20.0,Training at home,,,,,,,,,,,,,
13,3,518,B,74.5251201968647,45.24156015161981,3.726256009843235,0.7106527650463476,B,783.2458999910159,Correct,sub_013_day_02_data.csv,1,300,20.0,Training at home,,,,,,,,,,,,,
13,3,519,A,39.16173252224856,48.30792749079322,1.9580866261124277,0.7588191505761219,A,914.0208000026178,Correct,sub_013_day_02_data.csv,1,300,20.0,Training at home,,,,,,,,,,,,,
13,3,520,A,54.257692811006265,78.7428894017404,2.7128846405503135,1.236890414334706,A,1110.6875999976182,Correct,sub_013_day_02_data.csv,1,300,20.0,Training at home,,,,,,,,,,,,,
13,3,521,B,81.49801676274546,51.87209289163053,4.074900838137273,0.814804929773369,B,674.6356999938143,Correct,sub_013_day_02_data.csv,1,300,20.0,Training at home,,,,,,,,,,,,,
13,3,522,B,51.64612471901698,29.56649930343625,2.582306235950849,0.4644294850202153,B,1266.010200008168,Correct,sub_013_day_02_data.csv,1,300,20.0,Training at home,,,,,,,,,,,,,
13,3,523,A,53.3520250327075,75.82661428334832,2.667601251635375,1.1910816718957695,A,755.6693999940762,Correct,sub_013_day_02_data.csv,1,300,20.0,Training at home,,,,,,,,,,,,,
13,3,524,B,50.992118789969766,19.76585611446245,2.5496059394984885,0.3104813418055406,B,589.5111999998335,Correct,sub_013_day_02_data.csv,1,300,20.0,Training at home,,,,,,,,,,,,,
13,3,525,A,27.328327257191248,46.84789305902101,1.3664163628595625,0.7358849833519032,A,574.579399995855,Correct,sub_013_day_02_data.csv,1,300,21.0,Training at home,,,,,,,,,,,,,
13,3,526,B,70.03744862529688,48.33530857896926,3.5018724312648435,0.7592492517034276,B,749.8841999913566,Correct,sub_013_day_02_data.csv,1,300,21.0,Training at home,,,,,,,,,,,,,
13,3,527,A,30.896009293289872,54.25202376851113,1.5448004646644935,0.8521887965676669,A,700.5140999972355,Correct,sub_013_day_02_data.csv,1,300,21.0,Training at home,,,,,,,,,,,,,
13,3,528,A,53.111251407131306,65.45430887534515,2.6555625703565653,1.0281538795429075,B,1319.8444000008749,Incorrect,sub_013_day_02_data.csv,0,300,21.0,Training at home,,,,,,,,,,,,,
13,3,529,B,44.87771704300001,20.219500467666755,2.2438858521500005,0.3176071706423863,A,1169.44009999861,Incorrect,sub_013_day_02_data.csv,0,300,21.0,Training at home,,,,,,,,,,,,,
13,3,530,A,55.263538757399346,83.14051479081537,2.7631769378699675,1.3059681524124955,A,669.5416000002297,Correct,sub_013_day_02_data.csv,1,300,21.0,Training at home,,,,,,,,,,,,,
13,3,531,B,80.54542331371371,65.48597318475497,4.027271165685686,1.028651261352022,B,2110.326100009843,Correct,sub_013_day_02_data.csv,1,300,21.0,Training at home,,,,,,,,,,,,,
13,3,532,A,50.01727041153474,67.44771398913107,2.500863520576737,1.0594662138483986,A,2802.9370999865932,Correct,sub_013_day_02_data.csv,1,300,21.0,Training at home,,,,,,,,,,,,,
13,3,533,B,78.58384405658202,63.48924629449934,3.9291922028291015,0.9972867487037606,B,1340.4167999979109,Correct,sub_013_day_02_data.csv,1,300,21.0,Training at home,,,,,,,,,,,,,
13,3,534,B,56.29205443278815,46.37750667202164,2.8146027216394076,0.728496171263174,B,719.7184999968158,Correct,sub_013_day_02_data.csv,1,300,21.0,Training at home,,,,,,,,,,,,,
13,3,535,A,38.64657577657039,70.46825945663556,1.9323287888285192,1.106912831101129,A,959.1061999963132,Correct,sub_013_day_02_data.csv,1,300,21.0,Training at home,,,,,,,,,,,,,
13,3,536,A,26.546003502496156,45.08909195097347,1.3273001751248077,0.7082578001510647,A,879.9167000106536,Correct,sub_013_day_02_data.csv,1,300,21.0,Training at home,,,,,,,,,,,,,
13,3,537,B,71.92284458712957,41.7311435735711,3.596142229356479,0.6555112703831594,B,698.1373000016902,Correct,sub_013_day_02_data.csv,1,300,21.0,Training at home,,,,,,,,,,,,,
13,3,538,A,47.29669385284502,56.1343483149868,2.3648346926422508,0.8817562814020656,A,1793.1013999914285,Correct,sub_013_day_02_data.csv,1,300,21.0,Training at home,,,,,,,,,,,,,
13,3,539,A,12.47849165369955,33.20805338373705,0.6239245826849775,0.52163088275183,A,582.0459000096889,Correct,sub_013_day_02_data.csv,1,300,21.0,Training at home,,,,,,,,,,,,,
13,3,540,A,40.56843125630784,57.23581272319384,2.028421562815392,0.8990580438671348,B,1330.6207999994513,Incorrect,sub_013_day_02_data.csv,0,300,21.0,Training at home,,,,,,,,,,,,,
13,3,541,A,47.44041186590511,58.90520388878593,2.3720205932952556,0.925280778976094,A,533.2683000015095,Correct,sub_013_day_02_data.csv,1,300,21.0,Training at home,,,,,,,,,,,,,
13,3,542,B,83.66485094632674,63.39326620417593,4.183242547316337,0.995779096970506,B,500.56979998771567,Correct,sub_013_day_02_data.csv,1,300,21.0,Training at home,,,,,,,,,,,,,
13,3,543,A,62.27850154498507,86.0958795689531,3.113925077249254,1.352390913790873,A,1455.7719000004,Correct,sub_013_day_02_data.csv,1,300,21.0,Training at home,,,,,,,,,,,,,
13,3,544,A,25.339637572181783,51.37792525756025,1.2669818786090894,0.8070425627291838,A,952.0629000035116,Correct,sub_013_day_02_data.csv,1,300,21.0,Training at home,,,,,,,,,,,,,
13,3,545,B,32.28059316210004,14.814217153874502,1.614029658105002,0.2327011788964801,B,940.7276999991154,Correct,sub_013_day_02_data.csv,1,300,21.0,Training at home,,,,,,,,,,,,,
13,3,546,B,58.2748827664813,32.64433558816612,2.913744138324065,0.5127760243255126,B,773.3888999937335,Correct,sub_013_day_02_data.csv,1,300,21.0,Training at home,,,,,,,,,,,,,
13,3,547,B,83.29893914720806,65.62835493985203,4.164946957360403,1.0308877887311128,B,1880.203299995628,Correct,sub_013_day_02_data.csv,1,300,21.0,Training at home,,,,,,,,,,,,,
13,3,548,A,43.07356857348189,74.16587022724615,2.153678428674094,1.1649947652650523,A,1117.3222000070382,Correct,sub_013_day_02_data.csv,1,300,21.0,Training at home,,,,,,,,,,,,,
13,3,549,A,36.174380553451826,44.28244504539365,1.8087190276725915,0.695587020188012,A,1536.656000011135,Correct,sub_013_day_02_data.csv,1,300,21.0,Training at home,,,,,,,,,,,,,
13,3,550,B,78.49813928887448,58.42978230502359,3.924906964443724,0.9178128742015652,B,843.0773000000045,Correct,sub_013_day_02_data.csv,1,300,22.0,Training at home,,,,,,,,,,,,,
13,3,551,A,31.65537969465234,64.03585181236868,1.582768984732617,1.0058728081005104,A,835.3362000052584,Correct,sub_013_day_02_data.csv,1,300,22.0,Training at home,,,,,,,,,,,,,
13,3,552,A,30.01144393876084,49.27709964757985,1.500572196938042,0.7740428712152452,A,648.3823000016855,Correct,sub_013_day_02_data.csv,1,300,22.0,Training at home,,,,,,,,,,,,,
13,3,553,B,34.70258885522202,17.11841666887074,1.7351294427611008,0.2688954602400668,B,641.3846000068588,Correct,sub_013_day_02_data.csv,1,300,22.0,Training at home,,,,,,,,,,,,,
13,3,554,A,57.31174232063,69.941129060534,2.8655871160315,1.098632686201746,A,959.7606000024824,Correct,sub_013_day_02_data.csv,1,300,22.0,Training at home,,,,,,,,,,,,,
13,3,555,B,67.54402158703552,52.50635373699867,3.3772010793517757,0.8247678758347102,B,1366.221599993878,Correct,sub_013_day_02_data.csv,1,300,22.0,Training at home,,,,,,,,,,,,,
13,3,556,A,66.94075981751027,79.49240426376078,3.347037990875514,1.248663766256104,B,485.9262999962084,Incorrect,sub_013_day_02_data.csv,0,300,22.0,Training at home,,,,,,,,,,,,,
13,3,557,A,12.560180114089732,33.49726807617119,0.6280090057044866,0.5261738565171364,A,576.7916000040714,Correct,sub_013_day_02_data.csv,1,300,22.0,Training at home,,,,,,,,,,,,,
13,3,558,B,46.823437072806904,19.88095799398564,2.341171853640345,0.3122893579011627,B,924.106300008134,Correct,sub_013_day_02_data.csv,1,300,22.0,Training at home,,,,,,,,,,,,,
13,3,559,A,34.57321769895359,61.40054613197825,1.7286608849476794,0.9644775232731204,A,786.2039000028744,Correct,sub_013_day_02_data.csv,1,300,22.0,Training at home,,,,,,,,,,,,,
13,3,560,A,43.96047273579675,64.24201001293312,2.198023636789838,1.0091111335423633,A,2014.113900004304,Correct,sub_013_day_02_data.csv,1,300,22.0,Training at home,,,,,,,,,,,,,
13,3,561,A,35.718177142964436,66.99470094476999,1.7859088571482218,1.052350301587673,A,710.2290999901015,Correct,sub_013_day_02_data.csv,1,300,22.0,Training at home,,,,,,,,,,,,,
13,3,562,A,61.35986794051239,76.74541348343845,3.0679933970256195,1.2055141359814066,A,732.6912999997148,Correct,sub_013_day_02_data.csv,1,300,22.0,Training at home,,,,,,,,,,,,,
13,3,563,A,54.616135758561626,80.3406604677457,2.7308067879280817,1.2619881435501092,A,544.3146000034176,Correct,sub_013_day_02_data.csv,1,300,22.0,Training at home,,,,,,,,,,,,,
13,3,564,A,52.254581828075366,59.137943504132195,2.6127290914037684,0.9289366443049496,B,1244.5039000012912,Incorrect,sub_013_day_02_data.csv,0,300,22.0,Training at home,,,,,,,,,,,,,
13,3,565,B,82.31592084106128,57.36538857832025,4.115796042053064,0.9010934166398736,B,789.0855000005104,Correct,sub_013_day_02_data.csv,1,300,22.0,Training at home,,,,,,,,,,,,,
13,3,566,B,46.58535988069157,24.96737704088774,2.3292679940345784,0.3921866414552969,B,940.7253000099444,Correct,sub_013_day_02_data.csv,1,300,22.0,Training at home,,,,,,,,,,,,,
13,3,567,A,23.988611709000484,52.9212844419948,1.1994305854500242,0.8312855921075335,A,535.5949000077089,Correct,sub_013_day_02_data.csv,1,300,22.0,Training at home,,,,,,,,,,,,,
13,3,568,A,35.441010963807855,53.252439604968664,1.7720505481903928,0.8364873652435184,A,1356.4009999972768,Correct,sub_013_day_02_data.csv,1,300,22.0,Training at home,,,,,,,,,,,,,
13,3,569,A,38.55015193445712,59.88520186641272,1.927507596722856,0.9406745512113198,B,1515.9145000070566,Incorrect,sub_013_day_02_data.csv,0,300,22.0,Training at home,,,,,,,,,,,,,
13,3,570,B,71.2261655937249,59.388179432183875,3.5613082796862447,0.9328673410711064,B,763.9456000033533,Correct,sub_013_day_02_data.csv,1,300,22.0,Training at home,,,,,,,,,,,,,
13,3,571,B,66.94401500980268,43.125483946809275,3.347200750490134,0.6774135177490028,B,1132.8204000019468,Correct,sub_013_day_02_data.csv,1,300,22.0,Training at home,,,,,,,,,,,,,
13,3,572,A,36.20873873641504,52.96055905977796,1.810436936820752,0.8319025163610341,A,803.5541999997804,Correct,sub_013_day_02_data.csv,1,300,22.0,Training at home,,,,,,,,,,,,,
13,3,573,B,47.54551054913557,36.75521699493022,2.3772755274567787,0.5773495984618574,B,776.8504999985453,Correct,sub_013_day_02_data.csv,1,300,22.0,Training at home,,,,,,,,,,,,,
13,3,574,A,34.35021755423087,66.2484092006737,1.7175108777115438,1.040627578284235,A,689.8891000018921,Correct,sub_013_day_02_data.csv,1,300,22.0,Training at home,,,,,,,,,,,,,
13,3,575,A,41.56135004213533,61.93184073119866,2.0780675021067663,0.972823079322134,A,1550.914500010549,Correct,sub_013_day_02_data.csv,1,300,23.0,Training at home,,,,,,,,,,,,,
13,3,576,A,14.045387534062414,37.53674313007426,0.7022693767031207,0.5896257822856421,A,626.9330000068294,Correct,sub_013_day_02_data.csv,1,300,23.0,Training at home,,,,,,,,,,,,,
13,3,577,B,86.75599111383512,61.93688863456222,4.337799555691756,0.9729023716027492,B,492.1103999949992,Correct,sub_013_day_02_data.csv,1,300,23.0,Training at home,,,,,,,,,,,,,
13,3,578,B,64.55389241717944,55.89985049455912,3.227694620858972,0.8780727982523735,B,756.1035999970045,Correct,sub_013_day_02_data.csv,1,300,23.0,Training at home,,,,,,,,,,,,,
13,3,579,B,67.93730938391087,37.23689634748624,3.396865469195544,0.5849158000387369,B,649.5437999983551,Correct,sub_013_day_02_data.csv,1,300,23.0,Training at home,,,,,,,,,,,,,
13,3,580,B,79.19451060644586,55.582371766008926,3.959725530322294,0.8730858540459517,B,617.1730000060052,Correct,sub_013_day_02_data.csv,1,300,23.0,Training at home,,,,,,,,,,,,,
13,3,581,A,23.33400911918857,47.785237975035365,1.1667004559594285,0.7506087628620557,A,661.7632999987109,Correct,sub_013_day_02_data.csv,1,300,23.0,Training at home,,,,,,,,,,,,,
13,3,582,B,44.683040531027146,33.65769856241701,2.234152026551357,0.5286938927021451,B,856.2105000019073,Correct,sub_013_day_02_data.csv,1,300,23.0,Training at home,,,,,,,,,,,,,
13,3,583,A,27.96841969974535,58.18781213196711,1.3984209849872675,0.9140120156112544,B,918.3697999978904,Incorrect,sub_013_day_02_data.csv,0,300,23.0,Training at home,,,,,,,,,,,,,
13,3,584,A,34.1543023388676,46.51976038914678,1.7077151169433802,0.730730687426505,A,428.2134999957634,Correct,sub_013_day_02_data.csv,1,300,23.0,Training at home,,,,,,,,,,,,,
13,3,585,A,63.56935303047824,76.8974751813723,3.1784676515239116,1.2079027155470137,A,2031.0188000003109,Correct,sub_013_day_02_data.csv,1,300,23.0,Training at home,,,,,,,,,,,,,
13,3,586,A,47.94202155541891,78.80407382963323,2.3971010777709454,1.237851497080617,A,749.7699000086868,Correct,sub_013_day_02_data.csv,1,300,23.0,Training at home,,,,,,,,,,,,,
13,3,587,B,63.008870496876725,40.997924598120335,3.1504435248438365,0.6439938936494155,B,712.1997000067495,Correct,sub_013_day_02_data.csv,1,300,23.0,Training at home,,,,,,,,,,,,,
13,3,588,B,50.65224216434505,28.094833941258408,2.5326121082172524,0.4413126195684129,B,917.6218000066,Correct,sub_013_day_02_data.csv,1,300,23.0,Training at home,,,,,,,,,,,,,
13,3,589,A,29.89862735404658,50.650227647447046,1.4949313677023293,0.7956119153993513,A,1517.639799989411,Correct,sub_013_day_02_data.csv,1,300,23.0,Training at home,,,,,,,,,,,,,
13,3,590,B,45.37702757354312,20.556450325015007,2.2688513786771565,0.3228999666247533,B,564.9047999904724,Correct,sub_013_day_02_data.csv,1,300,23.0,Training at home,,,,,,,,,,,,,
13,3,591,B,49.46468336824077,35.51477437698972,2.4732341684120387,0.5578647713832496,B,572.0261000096798,Correct,sub_013_day_02_data.csv,1,300,23.0,Training at home,,,,,,,,,,,,,
13,3,592,B,84.85870744253454,65.27887675829587,4.242935372126727,1.0253981982922789,B,793.5882999881869,Correct,sub_013_day_02_data.csv,1,300,23.0,Training at home,,,,,,,,,,,,,
13,3,593,A,13.226071664573478,38.33043477429773,0.661303583228674,0.6020930614791824,A,525.7427999895299,Correct,sub_013_day_02_data.csv,1,300,23.0,Training at home,,,,,,,,,,,,,
13,3,594,B,49.17179719174473,34.754202804803015,2.4585898595872364,0.5459177410646947,B,857.0505999960005,Correct,sub_013_day_02_data.csv,1,300,23.0,Training at home,,,,,,,,,,,,,
13,3,595,B,87.14727600408688,66.68368997483215,4.357363800204343,1.04746495269596,B,777.6993999868864,Correct,sub_013_day_02_data.csv,1,300,23.0,Training at home,,,,,,,,,,,,,
13,3,596,A,52.42540554119853,61.84725551971231,2.6212702770599265,0.971494417927095,B,604.7714000014821,Incorrect,sub_013_day_02_data.csv,0,300,23.0,Training at home,,,,,,,,,,,,,
13,3,597,B,76.85199514106975,56.08898453892227,3.842599757053488,0.8810437088739486,B,834.3465000070864,Correct,sub_013_day_02_data.csv,1,300,23.0,Training at home,,,,,,,,,,,,,
13,3,598,A,16.054132520453795,34.94421708292951,0.8027066260226897,0.5489024783658916,A,600.891900001443,Correct,sub_013_day_02_data.csv,1,300,23.0,Training at home,,,,,,,,,,,,,
13,3,599,B,69.76834404684666,53.75713006221839,3.488417202342333,0.8444150244076813,B,701.3844000030076,Correct,sub_013_day_02_data.csv,1,300,23.0,Training at home,,,,,,,,,,,,,
