subject,day,trial,cat,x,y,xt,yt,resp,rt,fb,f_name,acc,n_trials,block,session_type,ns_left_digit,ns_right_digit,ns_left_size,ns_right_size,ns_congruent,ns_cue,ns_correct_side,ns_resp,ns_rt,ns_fb,acc_stroop,acc_stroop_mean,resp_key
13,12,2400,A,19.151363615459893,48.91007185467002,0.9575681807729948,0.7682776121259012,A,623.1280999490991,Correct,sub_013_day_09_data.csv,1,300,96.0,Training at home,,,,,,,,,,,,,
13,12,2401,B,44.88305543997232,25.35684846882584,2.244152771998616,0.3983044443392643,B,421.0354998940602,Correct,sub_013_day_09_data.csv,1,300,96.0,Training at home,,,,,,,,,,,,,
13,12,2402,A,24.58569986073774,40.969118434416075,1.2292849930368872,0.6435414074880584,B,393.9372999593615,Incorrect,sub_013_day_09_data.csv,0,300,96.0,Training at home,,,,,,,,,,,,,
13,12,2403,A,25.558266294805648,51.86026723030098,1.2779133147402824,0.8146191727195853,A,484.4555000308901,Correct,sub_013_day_09_data.csv,1,300,96.0,Training at home,,,,,,,,,,,,,
13,12,2404,B,71.65582382605687,60.64605922466474,3.5827911913028436,0.9526260706468912,B,419.0362000372261,Correct,sub_013_day_09_data.csv,1,300,96.0,Training at home,,,,,,,,,,,,,
13,12,2405,B,55.47041712965989,34.49991050505312,2.7735208564829947,0.5419233269609012,B,346.43960010726005,Correct,sub_013_day_09_data.csv,1,300,96.0,Training at home,,,,,,,,,,,,,
13,12,2406,A,36.46990753939852,45.62417574431434,1.823495376969926,0.7166628767221378,A,640.04319999367,Correct,sub_013_day_09_data.csv,1,300,96.0,Training at home,,,,,,,,,,,,,
13,12,2407,B,55.71269668054181,37.67936822795266,2.7856348340270904,0.5918661320842037,B,445.2441999455914,Correct,sub_013_day_09_data.csv,1,300,96.0,Training at home,,,,,,,,,,,,,
13,12,2408,B,71.14715854516791,53.07959368701327,3.557357927258396,0.8337723079132603,B,338.6816999409348,Correct,sub_013_day_09_data.csv,1,300,96.0,Training at home,,,,,,,,,,,,,
13,12,2409,B,66.5662805600356,41.51008942615467,3.3283140280017793,0.6520389599553142,B,380.3430999396369,Correct,sub_013_day_09_data.csv,1,300,96.0,Training at home,,,,,,,,,,,,,
13,12,2410,A,59.71456906211989,75.75264533741115,2.9857284531059944,1.1899197704100195,A,451.2656999286264,Correct,sub_013_day_09_data.csv,1,300,96.0,Training at home,,,,,,,,,,,,,
13,12,2411,A,38.00096664452888,53.74034011859335,1.900048332226444,0.8441512885899485,B,457.1280999807641,Incorrect,sub_013_day_09_data.csv,0,300,96.0,Training at home,,,,,,,,,,,,,
13,12,2412,B,65.2612770869352,49.90890117061436,3.26306385434676,0.7839671863317054,B,451.3595999451354,Correct,sub_013_day_09_data.csv,1,300,96.0,Training at home,,,,,,,,,,,,,
13,12,2413,B,44.1705120775064,27.799713511613863,2.2085256038753203,0.4366768786999351,A,455.1358000608161,Incorrect,sub_013_day_09_data.csv,0,300,96.0,Training at home,,,,,,,,,,,,,
13,12,2414,B,52.42439949021165,34.5980495365653,2.6212199745105824,0.5434648912630464,A,483.41540002729744,Incorrect,sub_013_day_09_data.csv,0,300,96.0,Training at home,,,,,,,,,,,,,
13,12,2415,A,31.09769143508294,46.81397747619943,1.554884571754147,0.735352238622731,A,541.4843000471592,Correct,sub_013_day_09_data.csv,1,300,96.0,Training at home,,,,,,,,,,,,,
13,12,2416,A,39.4823967239945,70.59684569299318,1.974119836199725,1.1089326589785982,A,431.5171999623999,Correct,sub_013_day_09_data.csv,1,300,96.0,Training at home,,,,,,,,,,,,,
13,12,2417,B,40.78897335476111,21.283711687271083,2.0394486677380557,0.3343237613892702,B,524.7505999868736,Correct,sub_013_day_09_data.csv,1,300,96.0,Training at home,,,,,,,,,,,,,
13,12,2418,B,39.49545062548641,16.76274976319584,1.9747725312743205,0.2633086575501004,B,388.0725000053644,Correct,sub_013_day_09_data.csv,1,300,96.0,Training at home,,,,,,,,,,,,,
13,12,2419,B,41.43972397366167,32.17231816202444,2.0719861986830836,0.5053615919338473,B,442.1915999846533,Correct,sub_013_day_09_data.csv,1,300,96.0,Training at home,,,,,,,,,,,,,
13,12,2420,A,57.12225514767143,82.33419938122205,2.856112757383572,1.2933025795762223,A,352.247399976477,Correct,sub_013_day_09_data.csv,1,300,96.0,Training at home,,,,,,,,,,,,,
13,12,2421,A,20.5741720818771,41.85299517645904,1.028708604093855,0.6574253108854639,A,520.2624999219552,Correct,sub_013_day_09_data.csv,1,300,96.0,Training at home,,,,,,,,,,,,,
13,12,2422,A,51.18471015438511,70.75796378358831,2.5592355077192552,1.1114634960274683,A,431.4053999260068,Correct,sub_013_day_09_data.csv,1,300,96.0,Training at home,,,,,,,,,,,,,
13,12,2423,B,56.47548111631136,41.1179889935981,2.8237740558155684,0.6458798607633688,B,438.6871000751853,Correct,sub_013_day_09_data.csv,1,300,96.0,Training at home,,,,,,,,,,,,,
13,12,2424,B,52.945045023327374,27.556652310706266,2.6472522511663685,0.432858882284215,B,410.6841000029817,Correct,sub_013_day_09_data.csv,1,300,96.0,Training at home,,,,,,,,,,,,,
13,12,2425,B,85.26307752795863,57.98593496213413,4.263153876397931,0.9108409364428804,A,461.1396000254899,Incorrect,sub_013_day_09_data.csv,0,300,97.0,Training at home,,,,,,,,,,,,,
13,12,2426,B,47.878840042632866,38.8246045145841,2.3939420021316433,0.6098554616077327,B,437.8038999857381,Correct,sub_013_day_09_data.csv,1,300,97.0,Training at home,,,,,,,,,,,,,
13,12,2427,B,40.36322936815678,17.812470367850462,2.0181614684078393,0.2797976302496244,B,399.9216000083834,Correct,sub_013_day_09_data.csv,1,300,97.0,Training at home,,,,,,,,,,,,,
13,12,2428,A,14.41575248520378,34.9086864931018,0.7207876242601889,0.5483443651659893,A,364.1058000503108,Correct,sub_013_day_09_data.csv,1,300,97.0,Training at home,,,,,,,,,,,,,
13,12,2429,B,41.006315100937506,13.346132989463314,2.0503157550468756,0.2096405667676516,B,367.0624999795109,Correct,sub_013_day_09_data.csv,1,300,97.0,Training at home,,,,,,,,,,,,,
13,12,2430,B,79.93810688496133,67.18707533579861,3.9969053442480664,1.0553721114556442,A,577.0704000024125,Incorrect,sub_013_day_09_data.csv,0,300,97.0,Training at home,,,,,,,,,,,,,
13,12,2431,A,34.792384833996806,55.91673033687841,1.7396192416998404,0.8783379461954937,A,428.84139996021986,Correct,sub_013_day_09_data.csv,1,300,97.0,Training at home,,,,,,,,,,,,,
13,12,2432,B,57.64924755903456,50.24758688553405,2.8824623779517276,0.789287249101043,B,551.7422000411898,Correct,sub_013_day_09_data.csv,1,300,97.0,Training at home,,,,,,,,,,,,,
13,12,2433,B,59.63002479768411,41.33195487440441,2.9815012398842056,0.6492408289596687,B,380.813300027512,Correct,sub_013_day_09_data.csv,1,300,97.0,Training at home,,,,,,,,,,,,,
13,12,2434,A,52.915712286397266,74.26598702142357,2.645785614319863,1.166567396190496,A,514.1458000289276,Correct,sub_013_day_09_data.csv,1,300,97.0,Training at home,,,,,,,,,,,,,
13,12,2435,B,65.10294258098025,53.23212456216381,3.255147129049013,0.8361682572973529,B,505.7853000471368,Correct,sub_013_day_09_data.csv,1,300,97.0,Training at home,,,,,,,,,,,,,
13,12,2436,B,39.34837223451612,28.43432219674224,1.967418611725806,0.446645288615453,B,743.4785000514239,Correct,sub_013_day_09_data.csv,1,300,97.0,Training at home,,,,,,,,,,,,,
13,12,2437,A,48.29343684318533,58.92651500239553,2.4146718421592666,0.9256155331658728,B,345.91969999019057,Incorrect,sub_013_day_09_data.csv,0,300,97.0,Training at home,,,,,,,,,,,,,
13,12,2438,B,48.14475490309749,37.41126100333135,2.4072377451548745,0.5876547136479804,B,456.7075000377372,Correct,sub_013_day_09_data.csv,1,300,97.0,Training at home,,,,,,,,,,,,,
13,12,2439,B,71.99450596848543,51.80425033655086,3.5997252984242714,0.8137392614101737,B,496.7638000380248,Correct,sub_013_day_09_data.csv,1,300,97.0,Training at home,,,,,,,,,,,,,
13,12,2440,B,51.991068438674446,30.568246445980265,2.5995534219337224,0.4801648923390695,B,421.32480000145733,Correct,sub_013_day_09_data.csv,1,300,97.0,Training at home,,,,,,,,,,,,,
13,12,2441,A,29.85229094182894,50.703069383461944,1.492614547091447,0.7964419514476881,A,549.1555000189692,Correct,sub_013_day_09_data.csv,1,300,97.0,Training at home,,,,,,,,,,,,,
13,12,2442,A,34.087074389041135,49.45819395844617,1.7043537194520568,0.7768874939983679,A,423.8941000076011,Correct,sub_013_day_09_data.csv,1,300,97.0,Training at home,,,,,,,,,,,,,
13,12,2443,B,66.35341270110004,43.69937875649575,3.3176706350550025,0.6864282363392245,B,397.4757000105455,Correct,sub_013_day_09_data.csv,1,300,97.0,Training at home,,,,,,,,,,,,,
13,12,2444,B,72.72858965750726,58.826146873493286,3.636429482875363,0.9240389542838034,B,508.1522000255063,Correct,sub_013_day_09_data.csv,1,300,97.0,Training at home,,,,,,,,,,,,,
13,12,2445,B,49.99347333263759,35.55505804658288,2.4996736666318795,0.5584975457855171,B,657.5784999877214,Correct,sub_013_day_09_data.csv,1,300,97.0,Training at home,,,,,,,,,,,,,
13,12,2446,A,60.651620492219536,76.15454847142094,3.032581024610977,1.1962328500763193,B,582.7061000745744,Incorrect,sub_013_day_09_data.csv,0,300,97.0,Training at home,,,,,,,,,,,,,
13,12,2447,B,48.97420948915846,32.74713886234206,2.448710474457923,0.5143908543800932,B,390.5605999752879,Correct,sub_013_day_09_data.csv,1,300,97.0,Training at home,,,,,,,,,,,,,
13,12,2448,B,70.89883964075423,38.83575559031511,3.5449419820377113,0.6100306222957134,B,555.9107000008225,Correct,sub_013_day_09_data.csv,1,300,97.0,Training at home,,,,,,,,,,,,,
13,12,2449,A,59.242481856756925,68.9932046294408,2.962124092837846,1.0837427240573427,A,643.0305000394583,Correct,sub_013_day_09_data.csv,1,300,97.0,Training at home,,,,,,,,,,,,,
13,12,2450,A,53.33426439741325,81.33438258274614,2.6667132198706622,1.2775974940310846,A,532.250800053589,Correct,sub_013_day_09_data.csv,1,300,98.0,Training at home,,,,,,,,,,,,,
13,12,2451,A,23.932678030965143,46.73917621523645,1.1966339015482572,0.7341772631631281,B,440.4494999907911,Incorrect,sub_013_day_09_data.csv,0,300,98.0,Training at home,,,,,,,,,,,,,
13,12,2452,B,84.08937556378451,69.1737429217552,4.204468778189226,1.0865786129214754,B,451.6925000352785,Correct,sub_013_day_09_data.csv,1,300,98.0,Training at home,,,,,,,,,,,,,
13,12,2453,B,45.83068240266042,36.64264254460321,2.291534120133021,0.5755812831312113,B,552.0993999671191,Correct,sub_013_day_09_data.csv,1,300,98.0,Training at home,,,,,,,,,,,,,
13,12,2454,B,57.79429648267546,35.5051032266723,2.8897148241337733,0.5577128573093048,B,550.5992999533191,Correct,sub_013_day_09_data.csv,1,300,98.0,Training at home,,,,,,,,,,,,,
13,12,2455,B,62.18556508402093,29.748929675405527,3.109278254201046,0.467295094602067,B,428.7589000305161,Correct,sub_013_day_09_data.csv,1,300,98.0,Training at home,,,,,,,,,,,,,
13,12,2456,B,37.87608854297264,25.534552832712073,1.893804427148632,0.4010958179597435,B,565.673099947162,Correct,sub_013_day_09_data.csv,1,300,98.0,Training at home,,,,,,,,,,,,,
13,12,2457,A,36.94970707050766,56.38954671782081,1.8474853535253828,0.8857649285398214,A,404.6894999919459,Correct,sub_013_day_09_data.csv,1,300,98.0,Training at home,,,,,,,,,,,,,
13,12,2458,B,83.30379027183581,58.99270578551528,4.16518951359179,0.9266552555557946,B,476.8386000068858,Correct,sub_013_day_09_data.csv,1,300,98.0,Training at home,,,,,,,,,,,,,
13,12,2459,A,37.26168483683493,64.45822680137329,1.863084241841746,1.0125074589130951,A,415.51929991692305,Correct,sub_013_day_09_data.csv,1,300,98.0,Training at home,,,,,,,,,,,,,
13,12,2460,A,19.26657733473192,50.62959804213459,0.963328866736596,0.795287866316871,A,410.0686999736354,Correct,sub_013_day_09_data.csv,1,300,98.0,Training at home,,,,,,,,,,,,,
13,12,2461,A,54.11795656168282,65.39068375448427,2.705897828084141,1.0271544584815062,A,380.63530006911606,Correct,sub_013_day_09_data.csv,1,300,98.0,Training at home,,,,,,,,,,,,,
13,12,2462,B,53.40165212711728,39.87759513716541,2.670082606355864,0.6263957996287346,A,497.5521999876946,Incorrect,sub_013_day_09_data.csv,0,300,98.0,Training at home,,,,,,,,,,,,,
13,12,2463,B,70.83505948245111,58.63629519752654,3.5417529741225557,0.9210567711313592,B,453.8340999279171,Correct,sub_013_day_09_data.csv,1,300,98.0,Training at home,,,,,,,,,,,,,
13,12,2464,A,59.46772479188722,80.07033298432907,2.9733862395943613,1.2577418493702837,A,440.9607000416145,Correct,sub_013_day_09_data.csv,1,300,98.0,Training at home,,,,,,,,,,,,,
13,12,2465,B,70.2850389650716,43.5970963589852,3.514251948253581,0.6848215881961711,B,499.8046000255272,Correct,sub_013_day_09_data.csv,1,300,98.0,Training at home,,,,,,,,,,,,,
13,12,2466,A,57.9367743283003,77.69864717100431,2.896838716415015,1.2204874957314624,A,435.9278000192717,Correct,sub_013_day_09_data.csv,1,300,98.0,Training at home,,,,,,,,,,,,,
13,12,2467,B,40.61429762534332,31.659606516291284,2.030714881267166,0.4973079362356211,B,383.2980999723077,Correct,sub_013_day_09_data.csv,1,300,98.0,Training at home,,,,,,,,,,,,,
13,12,2468,B,47.284880838214235,31.29481172619426,2.3642440419107116,0.491577753072438,B,421.55699990689754,Correct,sub_013_day_09_data.csv,1,300,98.0,Training at home,,,,,,,,,,,,,
13,12,2469,B,69.42734281681005,43.51904316224728,3.4713671408405027,0.6835955314488658,B,432.3677000356838,Correct,sub_013_day_09_data.csv,1,300,98.0,Training at home,,,,,,,,,,,,,
13,12,2470,B,48.969680143900895,41.86855044665756,2.4484840071950447,0.6576696524983652,B,782.089399988763,Correct,sub_013_day_09_data.csv,1,300,98.0,Training at home,,,,,,,,,,,,,
13,12,2471,B,45.2394004682944,24.536783608703807,2.26197002341472,0.3854228956391316,B,447.707699961029,Correct,sub_013_day_09_data.csv,1,300,98.0,Training at home,,,,,,,,,,,,,
13,12,2472,A,44.50670665057106,66.91425557598447,2.225335332528553,1.0510866686897131,A,454.230000032112,Correct,sub_013_day_09_data.csv,1,300,98.0,Training at home,,,,,,,,,,,,,
13,12,2473,B,69.15791666339287,38.50786460097681,3.4578958331696437,0.6048801226792959,B,354.4114000396803,Correct,sub_013_day_09_data.csv,1,300,98.0,Training at home,,,,,,,,,,,,,
13,12,2474,A,28.708895679198612,45.50103473319109,1.4354447839599305,0.7147285822426356,B,400.4739000229165,Incorrect,sub_013_day_09_data.csv,0,300,98.0,Training at home,,,,,,,,,,,,,
13,12,2475,A,52.45001010103803,68.00752002755344,2.6225005050519017,1.068259626537113,A,476.9401999656111,Correct,sub_013_day_09_data.csv,1,300,99.0,Training at home,,,,,,,,,,,,,
13,12,2476,B,41.50529639177421,21.003628860755196,2.0752648195887105,0.3299242306383754,A,360.4030999122187,Incorrect,sub_013_day_09_data.csv,0,300,99.0,Training at home,,,,,,,,,,,,,
13,12,2477,A,45.067235303449344,53.63078965712482,2.253361765172467,0.842430473965214,A,762.5574000412598,Correct,sub_013_day_09_data.csv,1,300,99.0,Training at home,,,,,,,,,,,,,
13,12,2478,B,80.2331777634374,55.46966076146743,4.01165888817187,0.8713153937267205,B,423.6667000222951,Correct,sub_013_day_09_data.csv,1,300,99.0,Training at home,,,,,,,,,,,,,
13,12,2479,A,40.15126755481899,65.53147973808761,2.0075633777409494,1.0293660766202222,A,443.9191999845207,Correct,sub_013_day_09_data.csv,1,300,99.0,Training at home,,,,,,,,,,,,,
13,12,2480,B,41.9927614389124,33.93691137869555,2.09963807194562,0.533079757364189,A,405.6420000270009,Incorrect,sub_013_day_09_data.csv,0,300,99.0,Training at home,,,,,,,,,,,,,
13,12,2481,A,46.79423939422793,58.97569053040784,2.3397119697113964,0.926387980553572,B,455.64669999293983,Incorrect,sub_013_day_09_data.csv,0,300,99.0,Training at home,,,,,,,,,,,,,
13,12,2482,A,23.453084308528656,55.17240438427846,1.1726542154264328,0.8666461014726724,A,630.6250999914482,Correct,sub_013_day_09_data.csv,1,300,99.0,Training at home,,,,,,,,,,,,,
13,12,2483,A,18.49618907920092,49.07007910616343,0.924809453960046,0.7707910001549653,A,447.0869000069797,Correct,sub_013_day_09_data.csv,1,300,99.0,Training at home,,,,,,,,,,,,,
13,12,2484,B,63.960932144568815,43.33907441818185,3.1980466072284406,0.6807685890277072,B,489.05249999370426,Correct,sub_013_day_09_data.csv,1,300,99.0,Training at home,,,,,,,,,,,,,
13,12,2485,B,34.26751330307715,15.861980315000627,1.7133756651538576,0.2491594041449594,B,505.1942999707535,Correct,sub_013_day_09_data.csv,1,300,99.0,Training at home,,,,,,,,,,,,,
13,12,2486,B,69.08261831655551,56.34530928119022,3.4541309158277755,0.8850700485101599,A,443.0802999995649,Incorrect,sub_013_day_09_data.csv,0,300,99.0,Training at home,,,,,,,,,,,,,
13,12,2487,A,62.21269236043162,82.31644884953974,3.1106346180215807,1.29302375487657,A,529.1316999355331,Correct,sub_013_day_09_data.csv,1,300,99.0,Training at home,,,,,,,,,,,,,
13,12,2488,A,17.19460646509508,40.447762322846714,0.859730323254754,0.6353519648380064,A,447.1939000068232,Correct,sub_013_day_09_data.csv,1,300,99.0,Training at home,,,,,,,,,,,,,
13,12,2489,A,55.52238326231709,79.41765415759744,2.7761191631158546,1.247489594334215,A,549.988100072369,Correct,sub_013_day_09_data.csv,1,300,99.0,Training at home,,,,,,,,,,,,,
13,12,2490,A,39.274282803915895,56.25058465589658,1.9637141401957947,0.8835821175754773,B,933.1892000045628,Incorrect,sub_013_day_09_data.csv,0,300,99.0,Training at home,,,,,,,,,,,,,
13,12,2491,B,57.79080469061067,43.47286587612021,2.889540234530534,0.6828701803345684,B,580.926000024192,Correct,sub_013_day_09_data.csv,1,300,99.0,Training at home,,,,,,,,,,,,,
13,12,2492,A,27.00637728597526,41.294666370020856,1.350318864298763,0.6486551025024951,A,423.0663999915123,Correct,sub_013_day_09_data.csv,1,300,99.0,Training at home,,,,,,,,,,,,,
13,12,2493,A,41.2641425884098,54.82375715932513,2.06320712942049,0.8611695636696333,B,565.2481999713928,Incorrect,sub_013_day_09_data.csv,0,300,99.0,Training at home,,,,,,,,,,,,,
13,12,2494,A,33.73341613861578,60.13802376484493,1.686670806930789,0.944645868305226,A,461.1713999183849,Correct,sub_013_day_09_data.csv,1,300,99.0,Training at home,,,,,,,,,,,,,
13,12,2495,B,43.00605966286557,32.600846703215005,2.1503029831432783,0.5120929025181364,B,499.5097999926657,Correct,sub_013_day_09_data.csv,1,300,99.0,Training at home,,,,,,,,,,,,,
13,12,2496,B,66.14370463044006,50.376353304594176,3.307185231522003,0.7913099072817847,B,498.70300001930445,Correct,sub_013_day_09_data.csv,1,300,99.0,Training at home,,,,,,,,,,,,,
13,12,2497,B,32.268814768815986,14.135100084565742,1.6134407384407994,0.222033632917141,A,541.9651000993326,Incorrect,sub_013_day_09_data.csv,0,300,99.0,Training at home,,,,,,,,,,,,,
13,12,2498,A,57.04763705325031,68.96103302315622,2.8523818526625155,1.0832373736475536,A,648.9410999929532,Correct,sub_013_day_09_data.csv,1,300,99.0,Training at home,,,,,,,,,,,,,
13,12,2499,B,70.98517910670911,56.153665154238766,3.549258955335455,0.8820597096034883,B,538.1772998953238,Correct,sub_013_day_09_data.csv,1,300,99.0,Training at home,,,,,,,,,,,,,
13,12,2500,B,77.35078088940219,50.916489009422925,3.867539044470109,0.7997943390929425,B,433.0656999954954,Correct,sub_013_day_09_data.csv,1,300,100.0,Training at home,,,,,,,,,,,,,
13,12,2501,A,41.720916700344624,55.29128052597759,2.0860458350172313,0.8685134035399179,B,820.9320999449119,Incorrect,sub_013_day_09_data.csv,0,300,100.0,Training at home,,,,,,,,,,,,,
13,12,2502,A,57.373459804708695,74.1712253802718,2.868672990235434,1.1650788838120738,A,926.1957000708207,Correct,sub_013_day_09_data.csv,1,300,100.0,Training at home,,,,,,,,,,,,,
13,12,2503,A,50.2743617851788,74.99335201596917,2.5137180892589397,1.1779928188072104,A,536.0365998931229,Correct,sub_013_day_09_data.csv,1,300,100.0,Training at home,,,,,,,,,,,,,
13,12,2504,A,42.601107193729106,67.64969167282372,2.1300553596864553,1.062638871884788,A,676.3944000704214,Correct,sub_013_day_09_data.csv,1,300,100.0,Training at home,,,,,,,,,,,,,
13,12,2505,B,51.70635453183893,36.29943416146609,2.5853177265919465,0.5701901784556411,B,458.97819998208433,Correct,sub_013_day_09_data.csv,1,300,100.0,Training at home,,,,,,,,,,,,,
13,12,2506,A,42.87570787211816,54.94087848853458,2.143785393605908,0.8630093012067486,B,683.8732999749482,Incorrect,sub_013_day_09_data.csv,0,300,100.0,Training at home,,,,,,,,,,,,,
13,12,2507,A,47.38824564135791,65.35259120329223,2.369412282067896,1.0265561020865992,A,836.4241999806836,Correct,sub_013_day_09_data.csv,1,300,100.0,Training at home,,,,,,,,,,,,,
13,12,2508,B,49.14408420376918,23.183859523112368,2.457204210188459,0.3641712137983379,B,649.5024999603629,Correct,sub_013_day_09_data.csv,1,300,100.0,Training at home,,,,,,,,,,,,,
13,12,2509,B,70.5658051487911,40.39564868000253,3.528290257439555,0.6345333656504508,B,1168.1987999472767,Correct,sub_013_day_09_data.csv,1,300,100.0,Training at home,,,,,,,,,,,,,
13,12,2510,A,49.16384123469918,71.96543370944934,2.458192061734959,1.1304303892700465,A,1544.3611999507991,Correct,sub_013_day_09_data.csv,1,300,100.0,Training at home,,,,,,,,,,,,,
13,12,2511,A,34.19584156897688,48.269300697568845,1.709792078448844,0.7582124023269949,A,670.2897999202833,Correct,sub_013_day_09_data.csv,1,300,100.0,Training at home,,,,,,,,,,,,,
13,12,2512,A,17.615488128144815,39.62461951407529,0.8807744064072408,0.6224220678335486,A,703.3964999718592,Correct,sub_013_day_09_data.csv,1,300,100.0,Training at home,,,,,,,,,,,,,
13,12,2513,A,37.23066814248389,55.15174037359953,1.861533407124195,0.8663215119519593,A,458.605399937369,Correct,sub_013_day_09_data.csv,1,300,100.0,Training at home,,,,,,,,,,,,,
13,12,2514,B,54.19695855364039,23.744747086946894,2.7098479276820195,0.3729816150485001,B,463.1339000770822,Correct,sub_013_day_09_data.csv,1,300,100.0,Training at home,,,,,,,,,,,,,
13,12,2515,A,62.30209122302084,83.68628130875713,3.115104561151042,1.314541032829201,A,96.44090000074355,Correct,sub_013_day_09_data.csv,1,300,100.0,Training at home,,,,,,,,,,,,,
13,12,2516,A,52.17476078758544,67.26087302815178,2.608738039379272,1.0565313228963873,A,766.143900109455,Correct,sub_013_day_09_data.csv,1,300,100.0,Training at home,,,,,,,,,,,,,
13,12,2517,A,54.37261752911557,79.42047478046979,2.7186308764557787,1.2475339005746866,A,443.0401000427082,Correct,sub_013_day_09_data.csv,1,300,100.0,Training at home,,,,,,,,,,,,,
13,12,2518,A,47.53657755614369,77.8052582321,2.3768288778071844,1.2221621383631107,A,412.4081999761984,Correct,sub_013_day_09_data.csv,1,300,100.0,Training at home,,,,,,,,,,,,,
13,12,2519,B,51.92750143435798,32.52888217345887,2.596375071717899,0.5109624863281318,B,463.4546000743285,Correct,sub_013_day_09_data.csv,1,300,100.0,Training at home,,,,,,,,,,,,,
13,12,2520,A,51.855118935748294,66.72145828672053,2.5927559467874146,1.0480582159517953,A,554.3501999927685,Correct,sub_013_day_09_data.csv,1,300,100.0,Training at home,,,,,,,,,,,,,
13,12,2521,A,39.358155729319655,66.51893464189806,1.9679077864659829,1.0448769819780328,A,431.3533999957144,Correct,sub_013_day_09_data.csv,1,300,100.0,Training at home,,,,,,,,,,,,,
13,12,2522,A,33.28772035407632,56.36601036896646,1.664386017703816,0.8853952204365555,B,419.22869998961687,Incorrect,sub_013_day_09_data.csv,0,300,100.0,Training at home,,,,,,,,,,,,,
13,12,2523,A,32.66539721951988,44.16696459371899,1.633269860975994,0.6937730574949403,A,393.6737000476569,Correct,sub_013_day_09_data.csv,1,300,100.0,Training at home,,,,,,,,,,,,,
13,12,2524,A,56.14659932856851,77.32375137041588,2.807329966428426,1.2145986462665113,A,486.2366000888869,Correct,sub_013_day_09_data.csv,1,300,100.0,Training at home,,,,,,,,,,,,,
13,12,2525,A,48.709834349744824,63.09461320091646,2.435491717487241,0.9910878665654436,A,507.9000000841915,Correct,sub_013_day_09_data.csv,1,300,101.0,Training at home,,,,,,,,,,,,,
13,12,2526,B,72.05474949429075,45.08562961339845,3.602737474714537,0.7082034138796149,B,464.4718000199646,Correct,sub_013_day_09_data.csv,1,300,101.0,Training at home,,,,,,,,,,,,,
13,12,2527,A,39.810968811543766,64.74484683019834,1.9905484405771885,1.0170096757977374,A,429.83370006550103,Correct,sub_013_day_09_data.csv,1,300,101.0,Training at home,,,,,,,,,,,,,
13,12,2528,A,18.53286353564775,40.54764112152057,0.9266431767823876,0.6369208573388221,A,499.8277999693528,Correct,sub_013_day_09_data.csv,1,300,101.0,Training at home,,,,,,,,,,,,,
13,12,2529,A,15.281613478463374,40.735971071200495,0.7640806739231687,0.639879137270649,A,463.47449999302626,Correct,sub_013_day_09_data.csv,1,300,101.0,Training at home,,,,,,,,,,,,,
13,12,2530,A,50.8648047320878,73.03801809998816,2.54324023660439,1.1472785054784058,B,710.9969999874011,Incorrect,sub_013_day_09_data.csv,0,300,101.0,Training at home,,,,,,,,,,,,,
13,12,2531,B,60.34728794526211,37.37876404432979,3.0173643972631057,0.587144252609664,B,449.7789000160992,Correct,sub_013_day_09_data.csv,1,300,101.0,Training at home,,,,,,,,,,,,,
13,12,2532,A,64.59302377248328,89.04866378477054,3.229651188624164,1.398773139791113,B,495.0799999060109,Incorrect,sub_013_day_09_data.csv,0,300,101.0,Training at home,,,,,,,,,,,,,
13,12,2533,A,51.70863040097899,66.81752406342866,2.58543152004895,1.0495672136436336,A,464.8674000054598,Correct,sub_013_day_09_data.csv,1,300,101.0,Training at home,,,,,,,,,,,,,
13,12,2534,A,44.009356790313625,72.242755485745,2.200467839515681,1.1347865495455012,A,481.6469999495894,Correct,sub_013_day_09_data.csv,1,300,101.0,Training at home,,,,,,,,,,,,,
13,12,2535,B,61.95867451677823,44.4885474913325,3.0979337258389115,0.698824469838254,B,358.37190004531294,Correct,sub_013_day_09_data.csv,1,300,101.0,Training at home,,,,,,,,,,,,,
13,12,2536,A,50.843638821335425,62.63959154003067,2.542181941066771,0.9839404030301286,A,519.0901999594644,Correct,sub_013_day_09_data.csv,1,300,101.0,Training at home,,,,,,,,,,,,,
13,12,2537,A,49.7543728023217,77.200516229042,2.487718640116085,1.212662873192489,A,659.8892000038177,Correct,sub_013_day_09_data.csv,1,300,101.0,Training at home,,,,,,,,,,,,,
13,12,2538,A,10.660068007744044,32.05626533561479,0.5330034003872022,0.5035386383994628,A,500.0467000063509,Correct,sub_013_day_09_data.csv,1,300,101.0,Training at home,,,,,,,,,,,,,
13,12,2539,B,61.7743983028716,46.56476979777733,3.08871991514358,0.7314376935639858,B,305.52570009604096,Correct,sub_013_day_09_data.csv,1,300,101.0,Training at home,,,,,,,,,,,,,
13,12,2540,A,28.771285038413843,46.15267928872965,1.4385642519206925,0.7249645909847942,A,442.5195000367239,Correct,sub_013_day_09_data.csv,1,300,101.0,Training at home,,,,,,,,,,,,,
13,12,2541,A,14.25572644287602,37.351972769412086,0.7127863221438011,0.5867234162473551,A,399.0059000207111,Correct,sub_013_day_09_data.csv,1,300,101.0,Training at home,,,,,,,,,,,,,
13,12,2542,B,31.85576889790097,14.446323063373658,1.5927884448950484,0.2269223120363974,B,425.68450001999736,Correct,sub_013_day_09_data.csv,1,300,101.0,Training at home,,,,,,,,,,,,,
13,12,2543,B,78.70230278797196,50.151590914277094,3.935115139398598,0.7877793479106676,B,478.0625000130385,Correct,sub_013_day_09_data.csv,1,300,101.0,Training at home,,,,,,,,,,,,,
13,12,2544,A,29.73375070005176,53.056717657339426,1.486687535002588,0.8334129720794269,A,520.4430000158027,Correct,sub_013_day_09_data.csv,1,300,101.0,Training at home,,,,,,,,,,,,,
13,12,2545,A,49.40538936617545,63.51799288292703,2.4702694683087727,0.9977382990588618,B,425.9971000719815,Incorrect,sub_013_day_09_data.csv,0,300,101.0,Training at home,,,,,,,,,,,,,
13,12,2546,B,69.18299243203181,38.79413548994135,3.4591496216015907,0.609376855287834,A,497.3596000345424,Incorrect,sub_013_day_09_data.csv,0,300,101.0,Training at home,,,,,,,,,,,,,
13,12,2547,A,32.95637781483733,47.77714240136183,1.6478188907418667,0.7504815978881586,A,459.5868999604136,Correct,sub_013_day_09_data.csv,1,300,101.0,Training at home,,,,,,,,,,,,,
13,12,2548,B,54.475327248450945,24.777870967334472,2.723766362422547,0.389209887012869,B,401.3411001069471,Correct,sub_013_day_09_data.csv,1,300,101.0,Training at home,,,,,,,,,,,,,
13,12,2549,A,39.27004700779108,66.72698041520096,1.963502350389554,1.0481449573431263,A,378.75599996186793,Correct,sub_013_day_09_data.csv,1,300,101.0,Training at home,,,,,,,,,,,,,
13,12,2550,A,53.2191945124454,80.80479953142806,2.6609597256222695,1.2692788229136518,A,429.92220004089177,Correct,sub_013_day_09_data.csv,1,300,102.0,Training at home,,,,,,,,,,,,,
13,12,2551,A,42.54109457866791,54.66924921992776,2.1270547289333956,0.8587425586329729,A,468.6684999614954,Correct,sub_013_day_09_data.csv,1,300,102.0,Training at home,,,,,,,,,,,,,
13,12,2552,A,24.571331248695895,48.25543631118386,1.2285665624347948,0.7579946210549268,A,408.6130000650883,Correct,sub_013_day_09_data.csv,1,300,102.0,Training at home,,,,,,,,,,,,,
13,12,2553,A,30.51729494326676,51.66532662589437,1.5258647471633378,0.8115570528661344,A,413.23689999990165,Correct,sub_013_day_09_data.csv,1,300,102.0,Training at home,,,,,,,,,,,,,
13,12,2554,A,39.0686848392257,52.40342184607369,1.9534342419612851,0.8231510254729599,A,396.1450000060722,Correct,sub_013_day_09_data.csv,1,300,102.0,Training at home,,,,,,,,,,,,,
13,12,2555,A,65.54551840970699,82.81505647361807,3.277275920485349,1.3008558651207118,A,563.9489999739453,Correct,sub_013_day_09_data.csv,1,300,102.0,Training at home,,,,,,,,,,,,,
13,12,2556,B,55.1304852973287,27.577557172451115,2.7565242648664348,0.4331872550846246,B,378.5278000868857,Correct,sub_013_day_09_data.csv,1,300,102.0,Training at home,,,,,,,,,,,,,
13,12,2557,B,84.17201835182144,60.798446711210026,4.208600917591071,0.9550197676880396,B,367.9344999836758,Correct,sub_013_day_09_data.csv,1,300,102.0,Training at home,,,,,,,,,,,,,
13,12,2558,B,51.54003280935003,37.08767778149158,2.577001640467502,0.5825718802851967,B,483.2545999670401,Correct,sub_013_day_09_data.csv,1,300,102.0,Training at home,,,,,,,,,,,,,
13,12,2559,B,59.02550927038607,45.69785749358704,2.9512754635193033,0.7178202669332315,B,362.99689998850226,Correct,sub_013_day_09_data.csv,1,300,102.0,Training at home,,,,,,,,,,,,,
13,12,2560,B,69.50102373574079,39.04447596049539,3.4750511867870393,0.613309194203778,B,336.87830006238073,Correct,sub_013_day_09_data.csv,1,300,102.0,Training at home,,,,,,,,,,,,,
13,12,2561,A,48.734431478691334,74.95769267132496,2.436721573934567,1.17743268313138,A,476.00729996338487,Correct,sub_013_day_09_data.csv,1,300,102.0,Training at home,,,,,,,,,,,,,
13,12,2562,B,51.65197682634247,23.93077423659448,2.5825988413171235,0.3759037226820055,B,416.048499988392,Correct,sub_013_day_09_data.csv,1,300,102.0,Training at home,,,,,,,,,,,,,
13,12,2563,B,37.81135680251951,23.235876916433472,1.890567840125976,0.3649883011019202,A,483.3717000437901,Incorrect,sub_013_day_09_data.csv,0,300,102.0,Training at home,,,,,,,,,,,,,
13,12,2564,A,43.41715954103359,68.02164606450968,2.1708579770516794,1.0684815178067433,A,480.34530004952103,Correct,sub_013_day_09_data.csv,1,300,102.0,Training at home,,,,,,,,,,,,,
13,12,2565,A,52.10922064797936,70.97381708154045,2.605461032398968,1.114854111702966,A,399.32810002937913,Correct,sub_013_day_09_data.csv,1,300,102.0,Training at home,,,,,,,,,,,,,
13,12,2566,B,54.56498542609036,22.782085880577483,2.728249271304518,0.3578601681793699,B,390.57630009483546,Correct,sub_013_day_09_data.csv,1,300,102.0,Training at home,,,,,,,,,,,,,
13,12,2567,B,40.1454985074044,19.190765418980977,2.00727492537022,0.3014478382851784,B,357.93409997131675,Correct,sub_013_day_09_data.csv,1,300,102.0,Training at home,,,,,,,,,,,,,
13,12,2568,B,72.81766038775939,44.31585651028066,3.640883019387969,0.6961118462511857,B,367.8695999551565,Correct,sub_013_day_09_data.csv,1,300,102.0,Training at home,,,,,,,,,,,,,
13,12,2569,A,48.830877830677274,75.66219319217906,2.441543891533864,1.188498951435207,A,498.12590004876256,Correct,sub_013_day_09_data.csv,1,300,102.0,Training at home,,,,,,,,,,,,,
13,12,2570,B,56.68478620919368,43.44985504883682,2.834239310459684,0.6825087271048357,B,341.91169997211546,Correct,sub_013_day_09_data.csv,1,300,102.0,Training at home,,,,,,,,,,,,,
13,12,2571,A,39.995357778215144,49.35271837070345,1.9997678889107573,0.77523068734044,A,460.64289996866137,Correct,sub_013_day_09_data.csv,1,300,102.0,Training at home,,,,,,,,,,,,,
13,12,2572,B,86.93467078992404,62.77992040140654,4.346733539496202,0.9861446836300538,B,364.3792000366375,Correct,sub_013_day_09_data.csv,1,300,102.0,Training at home,,,,,,,,,,,,,
13,12,2573,B,80.68121374529365,58.21620686458794,4.034060687264682,0.9144580390282656,B,341.6209000861272,Correct,sub_013_day_09_data.csv,1,300,102.0,Training at home,,,,,,,,,,,,,
13,12,2574,A,34.65672201309256,61.55602997591582,1.7328361006546282,0.9669198577824512,A,399.1108000045642,Correct,sub_013_day_09_data.csv,1,300,102.0,Training at home,,,,,,,,,,,,,
13,12,2575,A,58.51718031211386,82.71916871419491,2.925859015605693,1.2993496637178468,A,379.7537999926135,Correct,sub_013_day_09_data.csv,1,300,103.0,Training at home,,,,,,,,,,,,,
13,12,2576,B,49.705358445901325,36.85022905692474,2.485267922295066,0.5788420444416794,B,416.6440999833867,Correct,sub_013_day_09_data.csv,1,300,103.0,Training at home,,,,,,,,,,,,,
13,12,2577,A,41.257435057168905,51.30535360007897,2.0628717528584453,0.8059026097991736,A,455.00680000986904,Correct,sub_013_day_09_data.csv,1,300,103.0,Training at home,,,,,,,,,,,,,
13,12,2578,A,36.209677847869784,67.33766804196027,1.8104838923934892,1.0577376161524528,A,467.12759998627007,Correct,sub_013_day_09_data.csv,1,300,103.0,Training at home,,,,,,,,,,,,,
13,12,2579,B,33.656244598760026,15.354986197134425,1.6828122299380013,0.2411955591644508,B,463.1909999297932,Correct,sub_013_day_09_data.csv,1,300,103.0,Training at home,,,,,,,,,,,,,
13,12,2580,A,49.64503716819882,59.30253579889568,2.482251858409941,0.931522054025282,A,438.7562999036163,Correct,sub_013_day_09_data.csv,1,300,103.0,Training at home,,,,,,,,,,,,,
13,12,2581,B,80.05755294955122,65.71200240541872,4.002877647477561,1.0322017200476912,B,443.2222000323236,Correct,sub_013_day_09_data.csv,1,300,103.0,Training at home,,,,,,,,,,,,,
13,12,2582,A,57.81899502651119,76.02190555706973,2.890949751325559,1.1941493000499366,A,469.5474000182003,Correct,sub_013_day_09_data.csv,1,300,103.0,Training at home,,,,,,,,,,,,,
13,12,2583,A,60.88703867923836,82.98696595591738,3.044351933961918,1.3035562129540816,A,382.4951000278816,Correct,sub_013_day_09_data.csv,1,300,103.0,Training at home,,,,,,,,,,,,,
13,12,2584,B,55.104014435668745,26.348759383570524,2.7552007217834373,0.4138853445531514,B,315.0512999854982,Correct,sub_013_day_09_data.csv,1,300,103.0,Training at home,,,,,,,,,,,,,
13,12,2585,B,62.926365193065266,46.30071851420591,3.1463182596532637,0.7272899857007911,B,405.0878999987617,Correct,sub_013_day_09_data.csv,1,300,103.0,Training at home,,,,,,,,,,,,,
13,12,2586,B,72.86423865919193,47.82650410243909,3.643211932959596,0.7512569696755237,B,363.5331999976188,Correct,sub_013_day_09_data.csv,1,300,103.0,Training at home,,,,,,,,,,,,,
13,12,2587,B,52.06622537244713,31.03629350486551,2.6033112686223565,0.4875169583477105,A,469.1141999792307,Incorrect,sub_013_day_09_data.csv,0,300,103.0,Training at home,,,,,,,,,,,,,
13,12,2588,A,57.457556675797896,74.0932755698101,2.872877833789895,1.1638544510525974,A,483.93360001500696,Correct,sub_013_day_09_data.csv,1,300,103.0,Training at home,,,,,,,,,,,,,
13,12,2589,B,52.5614258524804,41.48880019635256,2.6280712926240204,0.6517045495155798,B,492.0858000405133,Correct,sub_013_day_09_data.csv,1,300,103.0,Training at home,,,,,,,,,,,,,
13,12,2590,A,53.96725694190812,65.25816080289842,2.6983628470954057,1.0250727928258354,A,440.2815999928862,Correct,sub_013_day_09_data.csv,1,300,103.0,Training at home,,,,,,,,,,,,,
13,12,2591,A,64.57515324126828,89.46450505319365,3.2287576620634137,1.4053051591608003,A,480.9366000117734,Correct,sub_013_day_09_data.csv,1,300,103.0,Training at home,,,,,,,,,,,,,
13,12,2592,A,25.126471826666503,44.47224453341423,1.256323591333325,0.6985683835741149,A,504.4976000208408,Correct,sub_013_day_09_data.csv,1,300,103.0,Training at home,,,,,,,,,,,,,
13,12,2593,A,55.92958353724998,84.22618730667382,2.796479176862499,1.323021856412622,A,480.08840007241815,Correct,sub_013_day_09_data.csv,1,300,103.0,Training at home,,,,,,,,,,,,,
13,12,2594,A,18.242726860722364,36.20528742015142,0.9121363430361182,0.5687113249012732,A,455.117299919948,Correct,sub_013_day_09_data.csv,1,300,103.0,Training at home,,,,,,,,,,,,,
13,12,2595,B,71.58325180838008,48.78296876620849,3.579162590419004,0.7662810814811049,B,589.1245000530034,Correct,sub_013_day_09_data.csv,1,300,103.0,Training at home,,,,,,,,,,,,,
13,12,2596,B,80.65329259370446,64.4302158694679,4.0326646296852235,1.0120674642236245,B,349.13019998930395,Correct,sub_013_day_09_data.csv,1,300,103.0,Training at home,,,,,,,,,,,,,
13,12,2597,B,61.62526902263461,37.580235389435664,3.0812634511317305,0.5903089570981312,B,548.1282999971882,Correct,sub_013_day_09_data.csv,1,300,103.0,Training at home,,,,,,,,,,,,,
13,12,2598,A,46.35876367672133,62.64344113966928,2.317938183836066,0.984000872399848,B,379.78990003466606,Incorrect,sub_013_day_09_data.csv,0,300,103.0,Training at home,,,,,,,,,,,,,
13,12,2599,B,44.370591581629114,36.94079027358759,2.218529579081456,0.5802645767065202,A,445.4334999900311,Incorrect,sub_013_day_09_data.csv,0,300,103.0,Training at home,,,,,,,,,,,,,
13,12,2600,B,73.38465420564825,55.21617367388069,3.669232710282413,0.8673336278660086,B,445.71329990867525,Correct,sub_013_day_09_data.csv,1,300,104.0,Training at home,,,,,,,,,,,,,
13,12,2601,A,46.04584813554699,63.48534294813048,2.302292406777349,0.9972254350823764,A,451.61540003027767,Correct,sub_013_day_09_data.csv,1,300,104.0,Training at home,,,,,,,,,,,,,
13,12,2602,A,39.85039561820092,72.82451810884194,1.992519780910046,1.1439248554597734,A,426.6623000148684,Correct,sub_013_day_09_data.csv,1,300,104.0,Training at home,,,,,,,,,,,,,
13,12,2603,B,43.83723391190761,16.159508858517583,2.1918616955953807,0.2538329715776901,B,421.1086999857798,Correct,sub_013_day_09_data.csv,1,300,104.0,Training at home,,,,,,,,,,,,,
13,12,2604,A,34.89075865158544,43.65221667697212,1.744537932579272,0.6856874161264273,B,417.14309994131327,Incorrect,sub_013_day_09_data.csv,0,300,104.0,Training at home,,,,,,,,,,,,,
13,12,2605,A,28.966413192163735,55.109564832859434,1.4483206596081868,0.8656590201072081,A,424.22899999655783,Correct,sub_013_day_09_data.csv,1,300,104.0,Training at home,,,,,,,,,,,,,
13,12,2606,B,62.08663827654631,32.16708978772347,3.1043319138273153,0.5052794648223766,B,413.605900015682,Correct,sub_013_day_09_data.csv,1,300,104.0,Training at home,,,,,,,,,,,,,
13,12,2607,B,50.94623207294234,28.192139677161563,2.547311603647117,0.4428410944937404,B,407.489400007762,Correct,sub_013_day_09_data.csv,1,300,104.0,Training at home,,,,,,,,,,,,,
13,12,2608,B,85.02478528567383,59.65884507935064,4.251239264283692,0.9371189471146976,B,534.7087000263855,Correct,sub_013_day_09_data.csv,1,300,104.0,Training at home,,,,,,,,,,,,,
13,12,2609,A,25.97197964232506,49.85038998354294,1.2985989821162531,0.7830480947544234,A,426.7324999673292,Correct,sub_013_day_09_data.csv,1,300,104.0,Training at home,,,,,,,,,,,,,
13,12,2610,B,31.474487414625415,10.724342206558743,1.5737243707312707,0.1684575734535395,B,435.7183000538498,Correct,sub_013_day_09_data.csv,1,300,104.0,Training at home,,,,,,,,,,,,,
13,12,2611,B,76.31820400782925,44.29965781443353,3.8159102003914622,0.6958573977318303,A,375.60360005591065,Incorrect,sub_013_day_09_data.csv,0,300,104.0,Training at home,,,,,,,,,,,,,
13,12,2612,A,39.40735457617274,59.11092519483633,1.970367728808637,0.928512241694968,A,406.0992000158876,Correct,sub_013_day_09_data.csv,1,300,104.0,Training at home,,,,,,,,,,,,,
13,12,2613,B,55.058829733657575,38.23735203044239,2.752941486682879,0.6006309211578228,B,479.87559996545315,Correct,sub_013_day_09_data.csv,1,300,104.0,Training at home,,,,,,,,,,,,,
13,12,2614,B,69.61369454622682,38.07369171052271,3.4806847273113415,0.5980601508641037,A,470.1943000545725,Incorrect,sub_013_day_09_data.csv,0,300,104.0,Training at home,,,,,,,,,,,,,
13,12,2615,B,69.75614270094258,38.254043104960616,3.4878071350471287,0.6008931039432578,B,461.46269992459565,Correct,sub_013_day_09_data.csv,1,300,104.0,Training at home,,,,,,,,,,,,,
13,12,2616,B,49.83667363308531,31.599733022987092,2.491833681654265,0.4963674456020752,B,414.7020000964403,Correct,sub_013_day_09_data.csv,1,300,104.0,Training at home,,,,,,,,,,,,,
13,12,2617,B,73.48475964659043,57.51433671067188,3.6742379823295215,0.9034330884316826,B,443.4942998923362,Correct,sub_013_day_09_data.csv,1,300,104.0,Training at home,,,,,,,,,,,,,
13,12,2618,A,10.88041359923556,31.589867803124996,0.5440206799617779,0.4962124830908511,A,409.0381999267265,Correct,sub_013_day_09_data.csv,1,300,104.0,Training at home,,,,,,,,,,,,,
13,12,2619,A,19.35056315274702,48.30468283307024,0.967528157637351,0.7587681836117922,A,646.8751999782398,Correct,sub_013_day_09_data.csv,1,300,104.0,Training at home,,,,,,,,,,,,,
13,12,2620,A,66.90456374574349,83.73627357842639,3.3452281872871743,1.3153263095648473,A,479.6722000464797,Correct,sub_013_day_09_data.csv,1,300,104.0,Training at home,,,,,,,,,,,,,
13,12,2621,A,56.68596913103812,79.07480878811651,2.834298456551906,1.2421041918638225,A,475.52810003980994,Correct,sub_013_day_09_data.csv,1,300,104.0,Training at home,,,,,,,,,,,,,
13,12,2622,A,50.10582986753866,72.92628685581968,2.505291493376933,1.145523435199125,A,453.3655000850558,Correct,sub_013_day_09_data.csv,1,300,104.0,Training at home,,,,,,,,,,,,,
13,12,2623,B,46.55215381229512,36.72904872239737,2.3276076906147565,0.5769385481981258,B,427.7066000504419,Correct,sub_013_day_09_data.csv,1,300,104.0,Training at home,,,,,,,,,,,,,
13,12,2624,B,53.05627838313753,27.802218618494756,2.6528139191568765,0.4367162288268024,B,388.7442999985069,Correct,sub_013_day_09_data.csv,1,300,104.0,Training at home,,,,,,,,,,,,,
13,12,2625,B,69.07270633426378,41.293312697606254,3.4536353167131892,0.6486338390659296,B,427.52779996953905,Correct,sub_013_day_09_data.csv,1,300,105.0,Training at home,,,,,,,,,,,,,
13,12,2626,B,32.69931893384064,17.719706785622733,1.6349659466920317,0.2783405033073879,A,589.7411999758333,Incorrect,sub_013_day_09_data.csv,0,300,105.0,Training at home,,,,,,,,,,,,,
13,12,2627,B,59.10222159377225,28.47989995472018,2.9551110796886126,0.4473612223636061,B,484.59449992515147,Correct,sub_013_day_09_data.csv,1,300,105.0,Training at home,,,,,,,,,,,,,
13,12,2628,A,48.56651796022078,62.66488978149274,2.428325898011039,0.9843377868777584,A,506.3779999036342,Correct,sub_013_day_09_data.csv,1,300,105.0,Training at home,,,,,,,,,,,,,
13,12,2629,B,69.9829767855352,42.300167731907,3.49914883927676,0.6644494809608753,B,406.7114000208676,Correct,sub_013_day_09_data.csv,1,300,105.0,Training at home,,,,,,,,,,,,,
13,12,2630,A,14.904922113928464,31.554863116724604,0.7452461056964232,0.4956626307626677,A,403.6169999744743,Correct,sub_013_day_09_data.csv,1,300,105.0,Training at home,,,,,,,,,,,,,
13,12,2631,A,51.72570059776988,75.69866887409414,2.586285029888494,1.1890719101069025,A,453.8930000271648,Correct,sub_013_day_09_data.csv,1,300,105.0,Training at home,,,,,,,,,,,,,
13,12,2632,B,41.97762356495527,19.37755582071562,2.0988811782477637,0.3043819350544316,B,346.4832999743521,Correct,sub_013_day_09_data.csv,1,300,105.0,Training at home,,,,,,,,,,,,,
13,12,2633,A,55.51996890380542,81.33991391774573,2.775998445190271,1.2776843800380808,A,471.4968000771478,Correct,sub_013_day_09_data.csv,1,300,105.0,Training at home,,,,,,,,,,,,,
13,12,2634,A,12.899014432826784,30.478588647181898,0.6449507216413393,0.4787565509288596,A,479.6753999544307,Correct,sub_013_day_09_data.csv,1,300,105.0,Training at home,,,,,,,,,,,,,
13,12,2635,A,60.236881269268906,86.05616551957843,3.011844063463445,1.3517670869620744,A,365.24469999130815,Correct,sub_013_day_09_data.csv,1,300,105.0,Training at home,,,,,,,,,,,,,
13,12,2636,A,43.11526797311772,60.35345318840423,2.155763398655886,0.9480298257773312,B,631.8302999716252,Incorrect,sub_013_day_09_data.csv,0,300,105.0,Training at home,,,,,,,,,,,,,
13,12,2637,B,56.41825022445495,41.56797036550289,2.8209125112227476,0.6529481516245105,B,449.496699962765,Correct,sub_013_day_09_data.csv,1,300,105.0,Training at home,,,,,,,,,,,,,
13,12,2638,A,50.7049059428855,71.83530519336718,2.535245297144275,1.128386335319315,B,476.8814999843016,Incorrect,sub_013_day_09_data.csv,0,300,105.0,Training at home,,,,,,,,,,,,,
13,12,2639,A,63.31543714727479,80.66611979338184,3.165771857363739,1.2671004466824127,A,482.441799947992,Correct,sub_013_day_09_data.csv,1,300,105.0,Training at home,,,,,,,,,,,,,
13,12,2640,B,39.19468338282038,23.524837858072175,1.959734169141019,0.3695272889590529,B,513.0117000080645,Correct,sub_013_day_09_data.csv,1,300,105.0,Training at home,,,,,,,,,,,,,
13,12,2641,A,23.51961799168419,50.078529919759795,1.1759808995842094,0.7866317084924701,A,385.32710005529225,Correct,sub_013_day_09_data.csv,1,300,105.0,Training at home,,,,,,,,,,,,,
13,12,2642,A,14.119388139113877,37.18091862915061,0.7059694069556939,0.5840365040952972,A,359.2044999822974,Correct,sub_013_day_09_data.csv,1,300,105.0,Training at home,,,,,,,,,,,,,
13,12,2643,A,34.07944183819857,49.517393823903014,1.7039720919099284,0.7778174033104315,B,381.0870999004692,Incorrect,sub_013_day_09_data.csv,0,300,105.0,Training at home,,,,,,,,,,,,,
13,12,2644,A,46.51197756476289,64.05914745219468,2.3255988782381447,1.006238735155201,A,430.5369999492541,Correct,sub_013_day_09_data.csv,1,300,105.0,Training at home,,,,,,,,,,,,,
13,12,2645,A,53.31834332918388,67.92404870386044,2.665917166459194,1.0669484620506162,A,405.279399943538,Correct,sub_013_day_09_data.csv,1,300,105.0,Training at home,,,,,,,,,,,,,
13,12,2646,B,33.51738982240119,18.592457440947484,1.6758694911200596,0.2920496385433075,B,405.30059998854995,Correct,sub_013_day_09_data.csv,1,300,105.0,Training at home,,,,,,,,,,,,,
13,12,2647,B,83.01339033839916,66.5199379401746,4.150669516919958,1.0448927417505074,B,544.7214000159875,Correct,sub_013_day_09_data.csv,1,300,105.0,Training at home,,,,,,,,,,,,,
13,12,2648,B,77.99807723601903,46.996982007467274,3.899903861800951,0.7382268670777543,B,336.6690999828279,Correct,sub_013_day_09_data.csv,1,300,105.0,Training at home,,,,,,,,,,,,,
13,12,2649,A,26.613728638454884,49.25368554730126,1.330686431922744,0.773675083388117,A,413.2339999778196,Correct,sub_013_day_09_data.csv,1,300,105.0,Training at home,,,,,,,,,,,,,
13,12,2650,A,50.05487225901267,66.82914529773359,2.502743612950633,1.0497497595652237,A,440.60700002592057,Correct,sub_013_day_09_data.csv,1,300,106.0,Training at home,,,,,,,,,,,,,
13,12,2651,B,72.00743821561699,39.41212216359177,3.600371910780849,0.6190841672576168,B,381.97310001123697,Correct,sub_013_day_09_data.csv,1,300,106.0,Training at home,,,,,,,,,,,,,
13,12,2652,A,37.77386798741092,65.9587858672305,1.8886933993705457,1.036078185600968,A,407.6917000347749,Correct,sub_013_day_09_data.csv,1,300,106.0,Training at home,,,,,,,,,,,,,
13,12,2653,A,27.23927284037769,55.28342278297767,1.3619636420188843,0.8683899744015062,A,413.8348000124097,Correct,sub_013_day_09_data.csv,1,300,106.0,Training at home,,,,,,,,,,,,,
13,12,2654,B,71.71769782813628,57.822363940767474,3.585884891406814,0.9082715688475524,B,432.3951000114903,Correct,sub_013_day_09_data.csv,1,300,106.0,Training at home,,,,,,,,,,,,,
13,12,2655,B,34.37110260381408,13.79198740131994,1.718555130190704,0.2166440314919485,A,432.5298999901861,Incorrect,sub_013_day_09_data.csv,0,300,106.0,Training at home,,,,,,,,,,,,,
13,12,2656,A,53.064914022201734,70.99239959126768,2.6532457011100865,1.1151460050831878,A,516.9849999947473,Correct,sub_013_day_09_data.csv,1,300,106.0,Training at home,,,,,,,,,,,,,
13,12,2657,B,36.06075529450865,14.275414457666368,1.8030377647254323,0.2242376859357709,B,360.66100001335144,Correct,sub_013_day_09_data.csv,1,300,106.0,Training at home,,,,,,,,,,,,,
13,12,2658,B,78.56328078498743,63.68570976354069,3.928164039249371,1.000372789658956,B,643.6398000223562,Correct,sub_013_day_09_data.csv,1,300,106.0,Training at home,,,,,,,,,,,,,
13,12,2659,B,72.19160026342813,57.19444255902551,3.6095800131714064,0.8984082028479897,B,337.3927000211552,Correct,sub_013_day_09_data.csv,1,300,106.0,Training at home,,,,,,,,,,,,,
13,12,2660,B,58.905503572007675,46.86665250969554,2.9452751786003835,0.7361796561140257,B,330.63620002940297,Correct,sub_013_day_09_data.csv,1,300,106.0,Training at home,,,,,,,,,,,,,
13,12,2661,B,62.06097579798244,44.9540885167063,3.103048789899122,0.7061371711645489,B,275.1157999737188,Correct,sub_013_day_09_data.csv,1,300,106.0,Training at home,,,,,,,,,,,,,
13,12,2662,A,48.58514125990098,61.42524086502729,2.429257062995049,0.9648654272327664,B,310.4821000015363,Incorrect,sub_013_day_09_data.csv,0,300,106.0,Training at home,,,,,,,,,,,,,
13,12,2663,B,87.61647066892942,62.80440262879392,4.380823533446471,0.9865292495585724,B,411.1987000796944,Correct,sub_013_day_09_data.csv,1,300,106.0,Training at home,,,,,,,,,,,,,
13,12,2664,B,82.89561617862464,62.04612187191973,4.144780808931232,0.9746182032828,B,368.27820003964007,Correct,sub_013_day_09_data.csv,1,300,106.0,Training at home,,,,,,,,,,,,,
13,12,2665,A,37.50236128002994,52.14853989586381,1.8751180640014968,0.8191473491614,A,385.74039994273335,Correct,sub_013_day_09_data.csv,1,300,106.0,Training at home,,,,,,,,,,,,,
13,12,2666,A,33.445656390962526,42.83896397039514,1.6722828195481263,0.6729128724839561,A,438.440699945204,Correct,sub_013_day_09_data.csv,1,300,106.0,Training at home,,,,,,,,,,,,,
13,12,2667,A,44.07836101454498,53.76421499465712,2.203918050727249,0.844526314266185,A,450.2405000384897,Correct,sub_013_day_09_data.csv,1,300,106.0,Training at home,,,,,,,,,,,,,
13,12,2668,B,80.23591209015876,53.30406405203445,4.011795604507938,0.8372982801617561,B,404.8260999843478,Correct,sub_013_day_09_data.csv,1,300,106.0,Training at home,,,,,,,,,,,,,
13,12,2669,B,43.361315089813054,30.17284773257324,2.1680657544906525,0.4739539838726777,A,518.7194999307394,Incorrect,sub_013_day_09_data.csv,0,300,106.0,Training at home,,,,,,,,,,,,,
13,12,2670,B,83.06867844778009,52.81408026577594,4.153433922389004,0.8296016328453167,B,402.07099996041507,Correct,sub_013_day_09_data.csv,1,300,106.0,Training at home,,,,,,,,,,,,,
13,12,2671,B,70.22513612132985,49.53834844183521,3.5112568060664926,0.7781465576792044,B,353.0713999643922,Correct,sub_013_day_09_data.csv,1,300,106.0,Training at home,,,,,,,,,,,,,
13,12,2672,A,43.667112149626526,68.38582924145436,2.1833556074813263,1.0742020937729952,A,444.5975999115035,Correct,sub_013_day_09_data.csv,1,300,106.0,Training at home,,,,,,,,,,,,,
13,12,2673,B,48.96264441500197,22.54104809110061,2.4481322207500984,0.3540739554360795,B,358.4615000290796,Correct,sub_013_day_09_data.csv,1,300,106.0,Training at home,,,,,,,,,,,,,
13,12,2674,B,83.64809386255668,58.67411020068333,4.182404693127833,0.9216507678119236,B,389.8659000406042,Correct,sub_013_day_09_data.csv,1,300,106.0,Training at home,,,,,,,,,,,,,
13,12,2675,B,65.1823226444882,38.59399206254114,3.2591161322244098,0.6062330096819102,B,376.96390005294234,Correct,sub_013_day_09_data.csv,1,300,107.0,Training at home,,,,,,,,,,,,,
13,12,2676,B,50.02384373340618,27.723473745665665,2.501192186670309,0.4354793072568638,B,430.6466999696568,Correct,sub_013_day_09_data.csv,1,300,107.0,Training at home,,,,,,,,,,,,,
13,12,2677,B,48.59980760929598,41.600366761452285,2.429990380464799,0.6534570330220976,B,364.1467000124976,Correct,sub_013_day_09_data.csv,1,300,107.0,Training at home,,,,,,,,,,,,,
13,12,2678,A,43.501531258302506,54.95256242838986,2.1750765629151254,0.8631928321048203,B,413.498800015077,Incorrect,sub_013_day_09_data.csv,0,300,107.0,Training at home,,,,,,,,,,,,,
13,12,2679,A,29.23899041585102,61.27808442610169,1.461949520792551,0.9625538992954809,A,393.9093000954017,Correct,sub_013_day_09_data.csv,1,300,107.0,Training at home,,,,,,,,,,,,,
13,12,2680,B,74.28054837716515,47.953355022340766,3.714027418858257,0.7532495392658448,B,440.66999992355704,Correct,sub_013_day_09_data.csv,1,300,107.0,Training at home,,,,,,,,,,,,,
13,12,2681,B,60.81966674845693,49.5126978159917,3.0409833374228463,0.7777436385906545,B,374.76879998575896,Correct,sub_013_day_09_data.csv,1,300,107.0,Training at home,,,,,,,,,,,,,
13,12,2682,A,35.79823461024058,53.848603828920496,1.789911730512029,0.8458518909750192,A,487.2789999935776,Correct,sub_013_day_09_data.csv,1,300,107.0,Training at home,,,,,,,,,,,,,
13,12,2683,B,46.14435863542269,31.146456022370156,2.3072179317711345,0.4892473871261782,B,391.4413000456989,Correct,sub_013_day_09_data.csv,1,300,107.0,Training at home,,,,,,,,,,,,,
13,12,2684,A,34.01890793889463,49.44072274492964,1.7009453969447317,0.7766130568182037,A,519.8571999790147,Correct,sub_013_day_09_data.csv,1,300,107.0,Training at home,,,,,,,,,,,,,
13,12,2685,B,37.25374376337385,15.159507346928017,1.8626871881686924,0.2381249845657478,B,518.3576000854373,Correct,sub_013_day_09_data.csv,1,300,107.0,Training at home,,,,,,,,,,,,,
13,12,2686,B,30.99030250765549,15.734520521801796,1.5495151253827746,0.2471572703952517,B,376.42650003544986,Correct,sub_013_day_09_data.csv,1,300,107.0,Training at home,,,,,,,,,,,,,
13,12,2687,B,45.85204151373837,17.799474739756512,2.2926020756869185,0.2795934954008808,B,325.99370006937534,Correct,sub_013_day_09_data.csv,1,300,107.0,Training at home,,,,,,,,,,,,,
13,12,2688,A,24.82773566883772,50.69223812681465,1.241386783441886,0.7962718144661267,A,406.7063999827951,Correct,sub_013_day_09_data.csv,1,300,107.0,Training at home,,,,,,,,,,,,,
13,12,2689,A,36.46775578888853,58.124490073747346,1.8233877894444264,0.9130173550466876,A,360.0515000289306,Correct,sub_013_day_09_data.csv,1,300,107.0,Training at home,,,,,,,,,,,,,
13,12,2690,A,27.9801381647386,41.379493596859305,1.39900690823693,0.6499875654657953,A,531.3746999017894,Correct,sub_013_day_09_data.csv,1,300,107.0,Training at home,,,,,,,,,,,,,
13,12,2691,B,76.96697041076523,51.50380931703043,3.848348520538261,0.8090199449113616,B,380.3916999604553,Correct,sub_013_day_09_data.csv,1,300,107.0,Training at home,,,,,,,,,,,,,
13,12,2692,A,25.56156652607553,50.95596510125054,1.2780783263037765,0.8004144280933329,A,367.62260005343705,Correct,sub_013_day_09_data.csv,1,300,107.0,Training at home,,,,,,,,,,,,,
13,12,2693,A,56.010135961778,83.42623923903129,2.8005067980889,1.310456301549826,A,570.0561000267044,Correct,sub_013_day_09_data.csv,1,300,107.0,Training at home,,,,,,,,,,,,,
13,12,2694,B,76.6028024276113,62.433363373081946,3.830140121380565,0.9807009785588816,B,475.5930000683293,Correct,sub_013_day_09_data.csv,1,300,107.0,Training at home,,,,,,,,,,,,,
13,12,2695,A,51.51634759991518,59.35161417032956,2.575817379995759,0.9322929752810162,A,366.2836999865249,Correct,sub_013_day_09_data.csv,1,300,107.0,Training at home,,,,,,,,,,,,,
13,12,2696,B,60.51654254712404,29.268109536154487,3.025827127356202,0.4597423895162215,A,462.91630004998296,Incorrect,sub_013_day_09_data.csv,0,300,107.0,Training at home,,,,,,,,,,,,,
13,12,2697,B,77.71242229573821,56.34949745972186,3.88562111478691,0.8851358362646945,A,454.53560003079474,Incorrect,sub_013_day_09_data.csv,0,300,107.0,Training at home,,,,,,,,,,,,,
13,12,2698,B,52.642407406251834,25.114762658738822,2.6321203703125917,0.3945017693267256,B,498.2880000025034,Correct,sub_013_day_09_data.csv,1,300,107.0,Training at home,,,,,,,,,,,,,
13,12,2699,A,11.062933323298058,36.532683949943106,0.5531466661649028,0.573854057565295,A,364.1006000107154,Correct,sub_013_day_09_data.csv,1,300,107.0,Training at home,,,,,,,,,,,,,
