subject,day,trial,cat,x,y,xt,yt,resp,rt,fb,f_name,acc,n_trials,block,session_type,ns_left_digit,ns_right_digit,ns_left_size,ns_right_size,ns_congruent,ns_cue,ns_correct_side,ns_resp,ns_rt,ns_fb,acc_stroop,acc_stroop_mean,resp_key
13,5,900,A,49.86412041169871,74.9843325026019,2.4932060205849353,1.1778511406225425,A,927.100600000017,Correct,sub_013_day_04_data.csv,1,300,36.0,Training at home,,,,,,,,,,,,,
13,5,901,A,21.006026146337188,39.15343975740308,1.0503013073168594,0.6150207935231402,A,774.7775999999931,Correct,sub_013_day_04_data.csv,1,300,36.0,Training at home,,,,,,,,,,,,,
13,5,902,A,29.84649309928377,62.26523703849484,1.4923246549641882,0.9780600562708124,A,469.8194999999714,Correct,sub_013_day_04_data.csv,1,300,36.0,Training at home,,,,,,,,,,,,,
13,5,903,A,45.13951907117253,61.79313220477085,2.2569759535586265,0.9706442508840548,A,821.5511999999876,Correct,sub_013_day_04_data.csv,1,300,36.0,Training at home,,,,,,,,,,,,,
13,5,904,A,59.32068047868181,83.01124179098916,2.9660340239340908,1.3039375368796875,A,1468.483899999967,Correct,sub_013_day_04_data.csv,1,300,36.0,Training at home,,,,,,,,,,,,,
13,5,905,B,80.18745150151771,53.17798157084213,4.0093725750758855,0.8353177811784552,B,578.6284000000137,Correct,sub_013_day_04_data.csv,1,300,36.0,Training at home,,,,,,,,,,,,,
13,5,906,B,70.21826893996429,46.53157180493152,3.5109134469982144,0.7309162207117941,B,497.2319999999968,Correct,sub_013_day_04_data.csv,1,300,36.0,Training at home,,,,,,,,,,,,,
13,5,907,B,71.44739525705107,54.16060713120217,3.5723697628525537,0.8507528273867385,B,435.5282999999872,Correct,sub_013_day_04_data.csv,1,300,36.0,Training at home,,,,,,,,,,,,,
13,5,908,A,28.30123719564506,47.20394095520846,1.415061859782253,0.7414777706268464,A,516.0257000000001,Correct,sub_013_day_04_data.csv,1,300,36.0,Training at home,,,,,,,,,,,,,
13,5,909,B,66.93649961942748,33.81646323190416,3.346824980971374,0.5311877622986972,B,502.1750999999881,Correct,sub_013_day_04_data.csv,1,300,36.0,Training at home,,,,,,,,,,,,,
13,5,910,B,77.98274474919388,46.3084298690222,3.899137237459694,0.7274111153789914,B,472.90129999998953,Correct,sub_013_day_04_data.csv,1,300,36.0,Training at home,,,,,,,,,,,,,
13,5,911,A,68.87282638467524,82.51241197942073,3.443641319233762,1.296101936522613,A,710.1574000000141,Correct,sub_013_day_04_data.csv,1,300,36.0,Training at home,,,,,,,,,,,,,
13,5,912,B,52.0031240638733,25.66720488814986,2.600156203193665,0.4031795115739781,B,685.295300000007,Correct,sub_013_day_04_data.csv,1,300,36.0,Training at home,,,,,,,,,,,,,
13,5,913,A,32.76023408863715,52.96901641509768,1.6380117044318576,0.8320353641877404,A,849.4104000000107,Correct,sub_013_day_04_data.csv,1,300,36.0,Training at home,,,,,,,,,,,,,
13,5,914,B,71.43344400125584,62.02240611604123,3.571672200062792,0.9742456770605888,B,633.8982000000328,Correct,sub_013_day_04_data.csv,1,300,36.0,Training at home,,,,,,,,,,,,,
13,5,915,A,55.06302980941487,64.56293706084259,2.7531514904707435,1.0141522438226165,B,564.0214000000014,Incorrect,sub_013_day_04_data.csv,0,300,36.0,Training at home,,,,,,,,,,,,,
13,5,916,B,39.12997884045639,19.309370550440597,1.9564989420228192,0.3033108833335363,B,917.0756000000324,Correct,sub_013_day_04_data.csv,1,300,36.0,Training at home,,,,,,,,,,,,,
13,5,917,B,58.00173109186891,49.405125711555755,2.9000865545934453,0.7760538999255189,B,585.3988999999729,Correct,sub_013_day_04_data.csv,1,300,36.0,Training at home,,,,,,,,,,,,,
13,5,918,A,36.09400416635573,56.71776610042448,1.8047002083177863,0.8909205865455887,A,611.065300000007,Correct,sub_013_day_04_data.csv,1,300,36.0,Training at home,,,,,,,,,,,,,
13,5,919,B,59.988394104337935,38.324954844104944,2.9994197052168965,0.6020069829370033,B,645.7515000000171,Correct,sub_013_day_04_data.csv,1,300,36.0,Training at home,,,,,,,,,,,,,
13,5,920,B,62.699100670289674,38.500307386843545,3.1349550335144833,0.6047614142372826,B,614.3215000000168,Correct,sub_013_day_04_data.csv,1,300,36.0,Training at home,,,,,,,,,,,,,
13,5,921,A,47.75827123674517,64.95617969613654,2.3879135618372587,1.0203292846932053,A,638.6982999999873,Correct,sub_013_day_04_data.csv,1,300,36.0,Training at home,,,,,,,,,,,,,
13,5,922,A,41.16320619159521,74.0730090756,2.0581603095797605,1.163536105705975,A,719.5197000000348,Correct,sub_013_day_04_data.csv,1,300,36.0,Training at home,,,,,,,,,,,,,
13,5,923,B,73.09244765889126,48.2288416543521,3.654622382944563,0.7575768731622898,B,462.0209999999929,Correct,sub_013_day_04_data.csv,1,300,36.0,Training at home,,,,,,,,,,,,,
13,5,924,B,45.8065204893884,24.772884313412504,2.2903260244694197,0.3891315568362328,B,908.8947000000188,Correct,sub_013_day_04_data.csv,1,300,36.0,Training at home,,,,,,,,,,,,,
13,5,925,A,57.78976843045952,72.56553715657235,2.889488421522976,1.1398567921744245,B,986.0938999999576,Incorrect,sub_013_day_04_data.csv,0,300,37.0,Training at home,,,,,,,,,,,,,
13,5,926,A,20.49077852611595,33.69517212815214,1.0245389263057971,0.5292825260962316,A,549.5483000000831,Correct,sub_013_day_04_data.csv,1,300,37.0,Training at home,,,,,,,,,,,,,
13,5,927,A,48.92563702823446,79.5777983214542,2.4462818514117233,1.2500051329776534,A,781.3843000000134,Correct,sub_013_day_04_data.csv,1,300,37.0,Training at home,,,,,,,,,,,,,
13,5,928,B,67.47506556583502,51.715253559852826,3.3737532782917516,0.8123413033108351,B,859.9645000000464,Correct,sub_013_day_04_data.csv,1,300,37.0,Training at home,,,,,,,,,,,,,
13,5,929,A,67.0295841471056,81.72610978758874,3.35147920735528,1.2837507305758082,A,669.2260999999462,Correct,sub_013_day_04_data.csv,1,300,37.0,Training at home,,,,,,,,,,,,,
13,5,930,B,42.16480533020233,17.553170703475626,2.1082402665101165,0.275724560646233,A,982.9131000000187,Incorrect,sub_013_day_04_data.csv,0,300,37.0,Training at home,,,,,,,,,,,,,
13,5,931,B,68.46660803119399,42.08911652831252,3.4233304015596993,0.6611342964071568,B,1025.390899999934,Correct,sub_013_day_04_data.csv,1,300,37.0,Training at home,,,,,,,,,,,,,
13,5,932,B,61.335226087315675,44.90986186254385,3.066761304365784,0.7054424605055009,B,796.7995000000201,Correct,sub_013_day_04_data.csv,1,300,37.0,Training at home,,,,,,,,,,,,,
13,5,933,B,40.22478029936575,27.602833870508825,2.0112390149682877,0.4335843005292502,A,792.9666999999654,Incorrect,sub_013_day_04_data.csv,0,300,37.0,Training at home,,,,,,,,,,,,,
13,5,934,A,46.05455882298258,60.13359702799385,2.302727941149129,0.9445763332853724,A,776.7412000000604,Correct,sub_013_day_04_data.csv,1,300,37.0,Training at home,,,,,,,,,,,,,
13,5,935,A,63.7551481310981,76.61643833314236,3.187757406554905,1.2034881990580772,A,1221.61779999999,Correct,sub_013_day_04_data.csv,1,300,37.0,Training at home,,,,,,,,,,,,,
13,5,936,A,50.95691058827218,62.62181979308975,2.547845529413609,0.9836612450819732,A,749.296299999969,Correct,sub_013_day_04_data.csv,1,300,37.0,Training at home,,,,,,,,,,,,,
13,5,937,A,57.48933754506944,77.24202751977646,2.874466877253472,1.2133149310225515,A,993.4435999999778,Correct,sub_013_day_04_data.csv,1,300,37.0,Training at home,,,,,,,,,,,,,
13,5,938,B,88.6310165419687,69.37996723454938,4.431550827098436,1.0898179768518044,B,461.6303000000243,Correct,sub_013_day_04_data.csv,1,300,37.0,Training at home,,,,,,,,,,,,,
13,5,939,A,15.141840508100724,30.487642608059044,0.7570920254050363,0.4788987702137472,A,519.9248000000125,Correct,sub_013_day_04_data.csv,1,300,37.0,Training at home,,,,,,,,,,,,,
13,5,940,B,80.61288818742736,54.21846461340024,4.030644409371368,0.8516616505918819,B,530.7043000000249,Correct,sub_013_day_04_data.csv,1,300,37.0,Training at home,,,,,,,,,,,,,
13,5,941,A,53.187885597425534,79.18878883384755,2.6593942798712766,1.243894586235445,A,711.2507000000505,Correct,sub_013_day_04_data.csv,1,300,37.0,Training at home,,,,,,,,,,,,,
13,5,942,B,63.737636876004906,33.54517941168697,3.1868818438002453,0.5269264460155368,B,596.3921000000028,Correct,sub_013_day_04_data.csv,1,300,37.0,Training at home,,,,,,,,,,,,,
13,5,943,B,59.24374999332307,32.87235384656534,2.9621874996661535,0.5163577267528693,B,611.197000000061,Correct,sub_013_day_04_data.csv,1,300,37.0,Training at home,,,,,,,,,,,,,
13,5,944,B,81.76951997358046,65.85359203143344,4.088475998679023,1.0344258046922532,A,514.4528000000719,Incorrect,sub_013_day_04_data.csv,0,300,37.0,Training at home,,,,,,,,,,,,,
13,5,945,A,51.00878891259277,75.84449881699273,2.5504394456296384,1.1913626014933203,A,1684.5937000000504,Correct,sub_013_day_04_data.csv,1,300,37.0,Training at home,,,,,,,,,,,,,
13,5,946,B,72.23610076234934,50.03187078488803,3.611805038117467,0.78589878851579,B,696.9695999999885,Correct,sub_013_day_04_data.csv,1,300,37.0,Training at home,,,,,,,,,,,,,
13,5,947,A,11.864386997537292,32.808870119242485,0.5932193498768646,0.5153605266959693,A,492.3364999999649,Correct,sub_013_day_04_data.csv,1,300,37.0,Training at home,,,,,,,,,,,,,
13,5,948,A,60.422013726807464,80.82544346602177,3.021100686340373,1.2696030970799557,A,740.4655999999932,Correct,sub_013_day_04_data.csv,1,300,37.0,Training at home,,,,,,,,,,,,,
13,5,949,A,27.423535385090943,55.41530376436258,1.3711767692545471,0.8704615560128414,A,613.4783999999627,Correct,sub_013_day_04_data.csv,1,300,37.0,Training at home,,,,,,,,,,,,,
13,5,950,A,47.318486370443566,55.85721530650923,2.365924318522178,0.8774030862845638,A,760.1126999999224,Correct,sub_013_day_04_data.csv,1,300,38.0,Training at home,,,,,,,,,,,,,
13,5,951,A,24.27243041385215,48.80083142216134,1.2136215206926075,0.76656166742468,A,643.8885000000028,Correct,sub_013_day_04_data.csv,1,300,38.0,Training at home,,,,,,,,,,,,,
13,5,952,A,29.676699327940227,62.41199223840985,1.4838349663970114,0.980365281560458,A,687.6958999999943,Correct,sub_013_day_04_data.csv,1,300,38.0,Training at home,,,,,,,,,,,,,
13,5,953,A,41.08513836756356,52.664374354044384,2.054256918378178,0.8272500578828427,A,563.7904999999819,Correct,sub_013_day_04_data.csv,1,300,38.0,Training at home,,,,,,,,,,,,,
13,5,954,B,82.08344355795879,61.52379199051625,4.104172177897939,0.966413464691962,B,477.8896000000259,Correct,sub_013_day_04_data.csv,1,300,38.0,Training at home,,,,,,,,,,,,,
13,5,955,A,23.63058503593592,41.47214431542649,1.181529251796796,0.6514429195497978,A,478.0801000000565,Correct,sub_013_day_04_data.csv,1,300,38.0,Training at home,,,,,,,,,,,,,
13,5,956,B,56.95857614051386,39.61731592073059,2.8479288070256934,0.6223073432575659,B,507.53980000001775,Correct,sub_013_day_04_data.csv,1,300,38.0,Training at home,,,,,,,,,,,,,
13,5,957,B,46.45943671921302,24.107017161591067,2.3229718359606513,0.3786721400740878,B,876.5971000000263,Correct,sub_013_day_04_data.csv,1,300,38.0,Training at home,,,,,,,,,,,,,
13,5,958,B,56.05392580762969,48.793479885770715,2.8026962903814843,0.7664461897610931,B,709.0150999999878,Correct,sub_013_day_04_data.csv,1,300,38.0,Training at home,,,,,,,,,,,,,
13,5,959,B,48.5441339318361,30.06411850007,2.4272066965918047,0.4722460690823645,B,661.7701000000125,Correct,sub_013_day_04_data.csv,1,300,38.0,Training at home,,,,,,,,,,,,,
13,5,960,A,28.071351548974462,58.13161296654956,1.4035675774487233,0.9131292411851862,A,1419.041600000014,Correct,sub_013_day_04_data.csv,1,300,38.0,Training at home,,,,,,,,,,,,,
13,5,961,A,52.20220380131026,70.28782747084257,2.610110190065513,1.1040786120959294,B,1186.540300000047,Incorrect,sub_013_day_04_data.csv,0,300,38.0,Training at home,,,,,,,,,,,,,
13,5,962,B,62.43839797394566,36.17447180503919,3.1219198986972834,0.5682272743510112,B,1116.4932000000365,Correct,sub_013_day_04_data.csv,1,300,38.0,Training at home,,,,,,,,,,,,,
13,5,963,A,30.219963512100655,46.91427812440882,1.5109981756050328,0.7369277575205554,A,990.8235999999988,Correct,sub_013_day_04_data.csv,1,300,38.0,Training at home,,,,,,,,,,,,,
13,5,964,B,49.46610158347693,28.183305531858345,2.4733050791738465,0.4427023280638139,B,719.2374999999629,Correct,sub_013_day_04_data.csv,1,300,38.0,Training at home,,,,,,,,,,,,,
13,5,965,A,26.35243013442536,49.48392926885093,1.3176215067212678,0.7772917433088951,A,533.5863000000245,Correct,sub_013_day_04_data.csv,1,300,38.0,Training at home,,,,,,,,,,,,,
13,5,966,B,60.40849281230491,47.56577816060846,3.020424640615245,0.7471614961582469,B,635.0118000000293,Correct,sub_013_day_04_data.csv,1,300,38.0,Training at home,,,,,,,,,,,,,
13,5,967,A,69.42623834664244,86.97537243582458,3.471311917332122,1.3662059554381136,A,1432.6208999999608,Correct,sub_013_day_04_data.csv,1,300,38.0,Training at home,,,,,,,,,,,,,
13,5,968,B,65.59453806477174,46.054653584933966,3.279726903238587,0.7234248068302571,B,663.6548000000175,Correct,sub_013_day_04_data.csv,1,300,38.0,Training at home,,,,,,,,,,,,,
13,5,969,A,22.97901731021722,53.427430823056504,1.148950865510861,0.8392361208694559,A,499.6496999999635,Correct,sub_013_day_04_data.csv,1,300,38.0,Training at home,,,,,,,,,,,,,
13,5,970,B,44.17498027052392,26.28431532187873,2.208749013526196,0.4128730595992593,B,566.8100000000322,Correct,sub_013_day_04_data.csv,1,300,38.0,Training at home,,,,,,,,,,,,,
13,5,971,A,26.16720912086774,53.93164218334999,1.308360456043387,0.8471562543962287,A,596.2448000000222,Correct,sub_013_day_04_data.csv,1,300,38.0,Training at home,,,,,,,,,,,,,
13,5,972,A,48.988879402247825,77.98410806226326,2.4494439701123913,1.224971504925794,A,965.5151999999134,Correct,sub_013_day_04_data.csv,1,300,38.0,Training at home,,,,,,,,,,,,,
13,5,973,B,60.02340306598918,44.96411740099035,3.001170153299459,0.7062947045105012,B,602.9316000000335,Correct,sub_013_day_04_data.csv,1,300,38.0,Training at home,,,,,,,,,,,,,
13,5,974,A,55.846260403236265,69.88448025926937,2.792313020161813,1.0977428489123078,B,1102.063299999941,Incorrect,sub_013_day_04_data.csv,0,300,38.0,Training at home,,,,,,,,,,,,,
13,5,975,B,89.01503292623319,65.36922883915885,4.45075164631166,1.0268174454596577,B,615.0481000000809,Correct,sub_013_day_04_data.csv,1,300,39.0,Training at home,,,,,,,,,,,,,
13,5,976,B,69.21393001439405,56.159154822738785,3.4606965007197026,0.8821459411146398,B,599.4216000000279,Correct,sub_013_day_04_data.csv,1,300,39.0,Training at home,,,,,,,,,,,,,
13,5,977,A,55.137355715673095,65.0980002737628,2.7568677857836548,1.022556997117198,A,1177.030699999932,Correct,sub_013_day_04_data.csv,1,300,39.0,Training at home,,,,,,,,,,,,,
13,5,978,B,65.38178033486463,40.34657749017791,3.2690890167432314,0.6337625572031712,B,700.8471999999983,Correct,sub_013_day_04_data.csv,1,300,39.0,Training at home,,,,,,,,,,,,,
13,5,979,A,54.9843448443512,67.16692191976279,2.74921724221756,1.05505554233683,A,773.2727000000068,Correct,sub_013_day_04_data.csv,1,300,39.0,Training at home,,,,,,,,,,,,,
13,5,980,B,50.95156478734447,42.09383783169473,2.5475782393672235,0.6612084584672613,A,1036.4567999999963,Incorrect,sub_013_day_04_data.csv,0,300,39.0,Training at home,,,,,,,,,,,,,
13,5,981,B,86.35579609092288,65.01916897431467,4.317789804546144,1.0213187179611016,B,718.8121000000365,Correct,sub_013_day_04_data.csv,1,300,39.0,Training at home,,,,,,,,,,,,,
13,5,982,A,42.98685914763887,68.31485217511802,2.1493429573819434,1.0730871886221174,A,526.170900000011,Correct,sub_013_day_04_data.csv,1,300,39.0,Training at home,,,,,,,,,,,,,
13,5,983,B,36.356034447704275,25.15244558822321,1.8178017223852136,0.3950936913988952,B,1536.062099999981,Correct,sub_013_day_04_data.csv,1,300,39.0,Training at home,,,,,,,,,,,,,
13,5,984,B,73.06719430329944,46.896544784543075,3.6533597151649726,0.7366492028693263,B,695.586800000001,Correct,sub_013_day_04_data.csv,1,300,39.0,Training at home,,,,,,,,,,,,,
13,5,985,B,78.1012694756634,61.47304665728062,3.90506347378317,0.9656163588614768,A,915.8770000000231,Incorrect,sub_013_day_04_data.csv,0,300,39.0,Training at home,,,,,,,,,,,,,
13,5,986,A,39.858988966771136,65.06379285096214,1.9929494483385568,1.0220196681763538,A,1254.5473999999786,Correct,sub_013_day_04_data.csv,1,300,39.0,Training at home,,,,,,,,,,,,,
13,5,987,A,42.40230183269765,55.77754444197196,2.1201150916348825,0.8761516192708866,A,766.2253000000874,Correct,sub_013_day_04_data.csv,1,300,39.0,Training at home,,,,,,,,,,,,,
13,5,988,A,51.050444021428625,61.52652081617031,2.5525222010714312,0.9664563289851006,A,549.0505999999868,Correct,sub_013_day_04_data.csv,1,300,39.0,Training at home,,,,,,,,,,,,,
13,5,989,B,75.62174878625999,48.62637893713804,3.781087439313,0.7638213741979315,B,475.1346000000467,Correct,sub_013_day_04_data.csv,1,300,39.0,Training at home,,,,,,,,,,,,,
13,5,990,A,45.93243333182331,66.70335033606872,2.296621666591166,1.0477737769280988,A,1339.0534999999772,Correct,sub_013_day_04_data.csv,1,300,39.0,Training at home,,,,,,,,,,,,,
13,5,991,A,13.742302614308812,33.47339132250394,0.6871151307154406,0.5257988013475736,A,497.6378000000068,Correct,sub_013_day_04_data.csv,1,300,39.0,Training at home,,,,,,,,,,,,,
13,5,992,B,62.85363420626898,31.0911383276538,3.142681710313449,0.4883784588095062,B,475.4437999999936,Correct,sub_013_day_04_data.csv,1,300,39.0,Training at home,,,,,,,,,,,,,
13,5,993,A,52.702818480313546,68.78132537186863,2.635140924015677,1.0804145324621586,A,643.585299999927,Correct,sub_013_day_04_data.csv,1,300,39.0,Training at home,,,,,,,,,,,,,
13,5,994,B,72.236827175956,61.89405244145215,3.6118413587978,0.9722295022548376,B,599.5146999999861,Correct,sub_013_day_04_data.csv,1,300,39.0,Training at home,,,,,,,,,,,,,
13,5,995,B,48.57695077167872,29.173680196379657,2.428847538583936,0.4582590969156218,B,529.2596000000458,Correct,sub_013_day_04_data.csv,1,300,39.0,Training at home,,,,,,,,,,,,,
13,5,996,A,17.0337278167463,32.2864714283456,0.851686390837315,0.5071547072481364,A,469.20620000003055,Correct,sub_013_day_04_data.csv,1,300,39.0,Training at home,,,,,,,,,,,,,
13,5,997,B,45.98506707330866,16.59703407525847,2.299253353665433,0.2607056016110574,B,1001.0552999999618,Correct,sub_013_day_04_data.csv,1,300,39.0,Training at home,,,,,,,,,,,,,
13,5,998,B,75.76949950723416,45.833746541243606,3.788474975361708,0.7199548071023375,B,545.4397000000881,Correct,sub_013_day_04_data.csv,1,300,39.0,Training at home,,,,,,,,,,,,,
13,5,999,B,37.75532658436962,12.956707592568256,1.887766329218481,0.2035234869376176,B,786.6634999999178,Correct,sub_013_day_04_data.csv,1,300,39.0,Training at home,,,,,,,,,,,,,
13,5,1000,A,31.37070022239431,46.87900156439856,1.5685350111197156,0.7363736346116947,A,788.4632000000238,Correct,sub_013_day_04_data.csv,1,300,40.0,Training at home,,,,,,,,,,,,,
13,5,1001,B,48.52509264231501,26.358792943544792,2.4262546321157505,0.414042951344674,B,475.7952999999589,Correct,sub_013_day_04_data.csv,1,300,40.0,Training at home,,,,,,,,,,,,,
13,5,1002,A,58.98949666033253,78.4539110324858,2.9494748330166267,1.232351152725223,A,708.579699999973,Correct,sub_013_day_04_data.csv,1,300,40.0,Training at home,,,,,,,,,,,,,
13,5,1003,A,27.20334552364732,51.259128351739726,1.3601672761823662,0.8051765052962089,A,593.7061999999287,Correct,sub_013_day_04_data.csv,1,300,40.0,Training at home,,,,,,,,,,,,,
13,5,1004,B,30.874782814250107,12.937610555789892,1.5437391407125054,0.2032235113853764,B,723.4803999999713,Correct,sub_013_day_04_data.csv,1,300,40.0,Training at home,,,,,,,,,,,,,
13,5,1005,A,57.900576694825446,83.09549664614607,2.895028834741272,1.305261009049639,A,548.5357999999678,Correct,sub_013_day_04_data.csv,1,300,40.0,Training at home,,,,,,,,,,,,,
13,5,1006,A,47.7942319364252,71.08077985602928,2.38971159682126,1.1165342790356747,B,854.7273000000359,Incorrect,sub_013_day_04_data.csv,0,300,40.0,Training at home,,,,,,,,,,,,,
13,5,1007,A,22.24113253046885,53.88050801792767,1.1120566265234424,0.8463530408040376,A,553.2549000000699,Correct,sub_013_day_04_data.csv,1,300,40.0,Training at home,,,,,,,,,,,,,
13,5,1008,A,24.780198001534743,52.84789966885906,1.2390099000767372,0.8301328667866904,A,503.4871000000294,Correct,sub_013_day_04_data.csv,1,300,40.0,Training at home,,,,,,,,,,,,,
13,5,1009,B,75.47642215901412,43.03815381577691,3.773821107950706,0.6760417392585614,B,755.6098999999676,Correct,sub_013_day_04_data.csv,1,300,40.0,Training at home,,,,,,,,,,,,,
13,5,1010,B,56.08478215388173,26.671350340326804,2.804239107694087,0.4189525914524515,B,690.8295999999154,Correct,sub_013_day_04_data.csv,1,300,40.0,Training at home,,,,,,,,,,,,,
13,5,1011,B,72.29690426301305,52.521431138170115,3.614845213150653,0.8250047110984873,B,567.2857000000704,Correct,sub_013_day_04_data.csv,1,300,40.0,Training at home,,,,,,,,,,,,,
13,5,1012,A,25.583250506028556,40.09920163736281,1.2791625253014276,0.629876786393774,A,577.9693999999154,Correct,sub_013_day_04_data.csv,1,300,40.0,Training at home,,,,,,,,,,,,,
13,5,1013,A,58.06637440991125,80.33740191113387,2.9033187204955624,1.261936958262544,A,1539.6030000000565,Correct,sub_013_day_04_data.csv,1,300,40.0,Training at home,,,,,,,,,,,,,
13,5,1014,B,66.91281271468824,57.85023423011286,3.345640635734412,0.9087093543288568,B,540.1579000000538,Correct,sub_013_day_04_data.csv,1,300,40.0,Training at home,,,,,,,,,,,,,
13,5,1015,B,59.62669624179212,34.98972926959305,2.9813348120896057,0.5496173821222464,B,716.9020999999702,Correct,sub_013_day_04_data.csv,1,300,40.0,Training at home,,,,,,,,,,,,,
13,5,1016,B,44.96020636191308,21.861930985530886,2.248010318095654,0.3434064088871544,B,977.5068999999804,Correct,sub_013_day_04_data.csv,1,300,40.0,Training at home,,,,,,,,,,,,,
13,5,1017,A,65.73986775960094,82.2020580730171,3.286993387980047,1.2912269087607602,A,798.5879000000295,Correct,sub_013_day_04_data.csv,1,300,40.0,Training at home,,,,,,,,,,,,,
13,5,1018,A,33.43042358881589,66.46627623471751,1.6715211794407947,1.044049825652292,A,592.852799999946,Correct,sub_013_day_04_data.csv,1,300,40.0,Training at home,,,,,,,,,,,,,
13,5,1019,A,36.86422383197144,50.76549380637121,1.8432111915985725,0.7974225119897698,A,1247.6050000000214,Correct,sub_013_day_04_data.csv,1,300,40.0,Training at home,,,,,,,,,,,,,
13,5,1020,A,37.759841472185045,62.165026938785545,1.887992073609252,0.9764859597055012,A,550.7126999999628,Correct,sub_013_day_04_data.csv,1,300,40.0,Training at home,,,,,,,,,,,,,
13,5,1021,A,33.5927139609801,58.73600304193369,1.6796356980490048,0.9226229782888332,B,513.8802999999825,Incorrect,sub_013_day_04_data.csv,0,300,40.0,Training at home,,,,,,,,,,,,,
13,5,1022,B,86.66901318486092,63.920497250044775,4.333450659243045,1.004060822872736,B,1175.5177000000003,Correct,sub_013_day_04_data.csv,1,300,40.0,Training at home,,,,,,,,,,,,,
13,5,1023,A,49.727745588815466,69.36702587940717,2.4863872794407733,1.0896146945205931,A,689.3785999999409,Correct,sub_013_day_04_data.csv,1,300,40.0,Training at home,,,,,,,,,,,,,
13,5,1024,A,64.72622346388611,84.9990009901601,3.2363111731943057,1.3351611853657928,A,661.8978000000197,Correct,sub_013_day_04_data.csv,1,300,40.0,Training at home,,,,,,,,,,,,,
13,5,1025,B,53.077235945055556,38.31312948512018,2.6538617972527776,0.6018212306324403,B,805.7916999999861,Correct,sub_013_day_04_data.csv,1,300,41.0,Training at home,,,,,,,,,,,,,
13,5,1026,B,48.31305451602793,37.693527902032585,2.4156527258013964,0.5920885517245373,B,708.2645000000412,Correct,sub_013_day_04_data.csv,1,300,41.0,Training at home,,,,,,,,,,,,,
13,5,1027,B,53.70734332024781,22.048349815734667,2.6853671660123903,0.3463346690244495,B,667.4121999999443,Correct,sub_013_day_04_data.csv,1,300,41.0,Training at home,,,,,,,,,,,,,
13,5,1028,B,50.94041417694907,28.62323867140338,2.5470207088474535,0.4496127816601407,B,545.9096999999247,Correct,sub_013_day_04_data.csv,1,300,41.0,Training at home,,,,,,,,,,,,,
13,5,1029,B,44.050124805958546,18.162753504254848,2.2025062402979274,0.2852998648896465,B,660.9359999999924,Correct,sub_013_day_04_data.csv,1,300,41.0,Training at home,,,,,,,,,,,,,
13,5,1030,B,50.26740204049845,26.17477950478092,2.5133701020249224,0.4111524750077621,B,567.233299999998,Correct,sub_013_day_04_data.csv,1,300,41.0,Training at home,,,,,,,,,,,,,
13,5,1031,A,17.137126872578662,32.93305213966251,0.8568563436289331,0.5173111733112669,A,522.6051999999299,Correct,sub_013_day_04_data.csv,1,300,41.0,Training at home,,,,,,,,,,,,,
13,5,1032,B,66.1472409337127,50.68499740147648,3.3073620466856344,0.7961580774184813,B,696.4904999999817,Correct,sub_013_day_04_data.csv,1,300,41.0,Training at home,,,,,,,,,,,,,
13,5,1033,A,42.54591737531878,68.40383200152432,2.127295868765939,1.074484880466896,A,576.8209000000297,Correct,sub_013_day_04_data.csv,1,300,41.0,Training at home,,,,,,,,,,,,,
13,5,1034,B,33.02318245059476,13.413472596886546,1.651159122529738,0.2106983348475339,B,575.6814000000077,Correct,sub_013_day_04_data.csv,1,300,41.0,Training at home,,,,,,,,,,,,,
13,5,1035,A,39.87104909604877,53.177752406975024,1.9935524548024384,0.8353141814808485,A,1276.8714000000043,Correct,sub_013_day_04_data.csv,1,300,41.0,Training at home,,,,,,,,,,,,,
13,5,1036,B,76.37908988491016,65.00407322496923,3.818954494245508,1.0210815944848817,B,1071.710499999995,Correct,sub_013_day_04_data.csv,1,300,41.0,Training at home,,,,,,,,,,,,,
13,5,1037,A,53.51957599164635,66.35874326033576,2.675978799582317,1.04236070164061,B,869.4686000000047,Incorrect,sub_013_day_04_data.csv,0,300,41.0,Training at home,,,,,,,,,,,,,
13,5,1038,B,72.68510672357125,63.02886490515368,3.634255336178563,0.9900550947506718,A,607.8635000000077,Incorrect,sub_013_day_04_data.csv,0,300,41.0,Training at home,,,,,,,,,,,,,
13,5,1039,B,53.08492401769869,33.654113755328424,2.6542462008849346,0.5286375826840749,B,834.6621000000596,Correct,sub_013_day_04_data.csv,1,300,41.0,Training at home,,,,,,,,,,,,,
13,5,1040,A,39.94641840311482,54.61334581920453,1.997320920155741,0.8578644300678591,A,724.8686000000362,Correct,sub_013_day_04_data.csv,1,300,41.0,Training at home,,,,,,,,,,,,,
13,5,1041,B,77.31146060947978,63.27016958199063,3.8655730304739895,0.9938454997508108,B,951.1414000000968,Correct,sub_013_day_04_data.csv,1,300,41.0,Training at home,,,,,,,,,,,,,
13,5,1042,B,50.367085758563775,34.11734661416134,2.518354287928189,0.5359140274151294,B,957.2991999999658,Correct,sub_013_day_04_data.csv,1,300,41.0,Training at home,,,,,,,,,,,,,
13,5,1043,B,64.04956322269126,49.04459513833669,3.202478161134563,0.7703906989244211,B,513.6620000000676,Correct,sub_013_day_04_data.csv,1,300,41.0,Training at home,,,,,,,,,,,,,
13,5,1044,B,78.39117099508607,54.33378059085648,3.919558549754304,0.853473029729972,B,525.9145999999646,Correct,sub_013_day_04_data.csv,1,300,41.0,Training at home,,,,,,,,,,,,,
13,5,1045,A,63.21290703085789,76.05201382385972,3.1606453515428945,1.1946222395987354,A,606.1680000000251,Correct,sub_013_day_04_data.csv,1,300,41.0,Training at home,,,,,,,,,,,,,
13,5,1046,A,12.282933282596083,38.01555702015949,0.6141466641298041,0.5971469732832848,A,619.263100000012,Correct,sub_013_day_04_data.csv,1,300,41.0,Training at home,,,,,,,,,,,,,
13,5,1047,A,54.01504413974688,81.66632486285177,2.700752206987344,1.2828116311740627,A,699.4012000000112,Correct,sub_013_day_04_data.csv,1,300,41.0,Training at home,,,,,,,,,,,,,
13,5,1048,A,13.456878882801256,40.367815233521426,0.6728439441400628,0.6340961588955053,A,489.4370000000663,Correct,sub_013_day_04_data.csv,1,300,41.0,Training at home,,,,,,,,,,,,,
13,5,1049,A,36.08462526776741,69.12624849441163,1.8042312633883704,1.0858325722013302,A,705.7341000000861,Correct,sub_013_day_04_data.csv,1,300,41.0,Training at home,,,,,,,,,,,,,
13,5,1050,B,53.902204787648486,33.26028711819405,2.695110239382424,0.5224513683340283,B,753.890599999977,Correct,sub_013_day_04_data.csv,1,300,42.0,Training at home,,,,,,,,,,,,,
13,5,1051,A,30.99263130236433,53.774482943161274,1.5496315651182164,0.8446876028241255,A,782.2584000000461,Correct,sub_013_day_04_data.csv,1,300,42.0,Training at home,,,,,,,,,,,,,
13,5,1052,B,75.64314210534768,63.85694348343719,3.782157105267384,1.0030625226413246,B,995.0266999999258,Correct,sub_013_day_04_data.csv,1,300,42.0,Training at home,,,,,,,,,,,,,
13,5,1053,B,66.70373110735949,48.513707708176995,3.3351865553679745,0.762051538672057,B,737.8400999999712,Correct,sub_013_day_04_data.csv,1,300,42.0,Training at home,,,,,,,,,,,,,
13,5,1054,A,49.97752249378731,73.53377700678372,2.4988761246893656,1.1550658681761088,A,543.9749999999322,Correct,sub_013_day_04_data.csv,1,300,42.0,Training at home,,,,,,,,,,,,,
13,5,1055,A,26.69379261239125,41.00302268673309,1.3346896306195624,0.6440739742380814,A,712.4110999999402,Correct,sub_013_day_04_data.csv,1,300,42.0,Training at home,,,,,,,,,,,,,
13,5,1056,A,37.6594766378352,62.670186583208995,1.88297383189176,0.9844209888445548,A,520.067099999892,Correct,sub_013_day_04_data.csv,1,300,42.0,Training at home,,,,,,,,,,,,,
13,5,1057,B,45.77129544133702,33.20370734111215,2.288564772066851,0.5215626152739171,A,958.0222000000732,Incorrect,sub_013_day_04_data.csv,0,300,42.0,Training at home,,,,,,,,,,,,,
13,5,1058,A,46.07291071055872,63.84695654416131,2.303645535527936,1.0029056481660197,B,620.5064000000675,Incorrect,sub_013_day_04_data.csv,0,300,42.0,Training at home,,,,,,,,,,,,,
13,5,1059,B,69.8167642984074,44.159457631552606,3.4908382149203705,0.693655138408977,B,704.2049000000361,Correct,sub_013_day_04_data.csv,1,300,42.0,Training at home,,,,,,,,,,,,,
13,5,1060,A,41.37333516653042,50.97389177575237,2.0686667583265206,0.8006960196379241,A,621.2458999999626,Correct,sub_013_day_04_data.csv,1,300,42.0,Training at home,,,,,,,,,,,,,
13,5,1061,B,41.841978755854704,33.773234632654706,2.0920989377927355,0.530508729049562,B,763.8246000000208,Correct,sub_013_day_04_data.csv,1,300,42.0,Training at home,,,,,,,,,,,,,
13,5,1062,B,49.45356829505998,40.73193558573723,2.472678414752999,0.6398157480132237,B,673.8172000000304,Correct,sub_013_day_04_data.csv,1,300,42.0,Training at home,,,,,,,,,,,,,
13,5,1063,B,79.51446375115401,51.73815797220267,3.975723187557701,0.8127010849787004,B,571.7320999999629,Correct,sub_013_day_04_data.csv,1,300,42.0,Training at home,,,,,,,,,,,,,
13,5,1064,B,72.39417496164317,54.72589765340621,3.6197087480821586,0.8596323901452392,B,454.6706000000995,Correct,sub_013_day_04_data.csv,1,300,42.0,Training at home,,,,,,,,,,,,,
13,5,1065,B,58.636714740476755,40.480310104146334,2.931835737023838,0.635863224191114,B,561.0994000001028,Correct,sub_013_day_04_data.csv,1,300,42.0,Training at home,,,,,,,,,,,,,
13,5,1066,B,65.43355513880957,56.02350003401992,3.2716777569404782,0.8800150806763226,B,519.5324000001165,Correct,sub_013_day_04_data.csv,1,300,42.0,Training at home,,,,,,,,,,,,,
13,5,1067,A,21.00355467913709,44.317922670143474,1.0501777339568543,0.6961443014144165,A,558.1664999999703,Correct,sub_013_day_04_data.csv,1,300,42.0,Training at home,,,,,,,,,,,,,
13,5,1068,B,77.76235899209429,66.44790853414356,3.8881179496047142,1.0437613064863598,B,469.6516999999858,Correct,sub_013_day_04_data.csv,1,300,42.0,Training at home,,,,,,,,,,,,,
13,5,1069,A,27.70707830937739,57.252981535013134,1.3853539154688697,0.8993277309325467,A,522.1570999999585,Correct,sub_013_day_04_data.csv,1,300,42.0,Training at home,,,,,,,,,,,,,
13,5,1070,B,49.84255461298973,34.875379018744646,2.4921277306494862,0.547821172582239,B,499.1207000000486,Correct,sub_013_day_04_data.csv,1,300,42.0,Training at home,,,,,,,,,,,,,
13,5,1071,B,83.96638769440631,58.44977157604727,4.198319384720316,0.918126864936558,B,601.8005000000812,Correct,sub_013_day_04_data.csv,1,300,42.0,Training at home,,,,,,,,,,,,,
13,5,1072,A,40.829545055918025,73.08005185456275,2.0414772527959015,1.147938770151277,A,518.7713000000258,Correct,sub_013_day_04_data.csv,1,300,42.0,Training at home,,,,,,,,,,,,,
13,5,1073,B,45.967768333961374,18.98672033198228,2.2983884166980686,0.2982427055535974,B,509.9341000000095,Correct,sub_013_day_04_data.csv,1,300,42.0,Training at home,,,,,,,,,,,,,
13,5,1074,A,23.472445629105987,42.81687151196104,1.1736222814552997,0.6725658449583745,A,483.3486999998513,Correct,sub_013_day_04_data.csv,1,300,42.0,Training at home,,,,,,,,,,,,,
13,5,1075,B,79.34606666400953,58.70654224937665,3.967303333200476,0.9221602092415024,B,1259.096799999952,Correct,sub_013_day_04_data.csv,1,300,43.0,Training at home,,,,,,,,,,,,,
13,5,1076,A,47.71836661535179,57.413863207698824,2.3859183307675895,0.9018548543375796,B,626.5952000001107,Incorrect,sub_013_day_04_data.csv,0,300,43.0,Training at home,,,,,,,,,,,,,
13,5,1077,B,78.73328987368652,58.56152806404246,3.9366644936843262,0.9198823317449416,B,617.0422999998664,Correct,sub_013_day_04_data.csv,1,300,43.0,Training at home,,,,,,,,,,,,,
13,5,1078,A,36.4362652753644,62.951185452027815,1.82181326376822,0.988834908754296,A,514.9770000000444,Correct,sub_013_day_04_data.csv,1,300,43.0,Training at home,,,,,,,,,,,,,
13,5,1079,B,49.672209285086126,26.58758411719124,2.483610464254306,0.4176367946963433,B,615.6413000001066,Correct,sub_013_day_04_data.csv,1,300,43.0,Training at home,,,,,,,,,,,,,
13,5,1080,A,28.642709987921336,42.43986573950335,1.4321354993960669,0.6666438521328043,A,622.8665999999521,Correct,sub_013_day_04_data.csv,1,300,43.0,Training at home,,,,,,,,,,,,,
13,5,1081,A,54.37992146329523,79.0353072931744,2.7189960731647616,1.2414837038322424,A,751.5260000000126,Correct,sub_013_day_04_data.csv,1,300,43.0,Training at home,,,,,,,,,,,,,
13,5,1082,B,55.67059126021739,38.04804179534861,2.7835295630108696,0.5976572429387229,B,539.2334999999093,Correct,sub_013_day_04_data.csv,1,300,43.0,Training at home,,,,,,,,,,,,,
13,5,1083,A,31.00762631632523,48.71556064944144,1.5503813158162614,0.7652222372589662,A,554.2993999999908,Correct,sub_013_day_04_data.csv,1,300,43.0,Training at home,,,,,,,,,,,,,
13,5,1084,A,30.61074559531857,41.281595011422255,1.5305372797659285,0.648449778081766,A,807.9589999999826,Correct,sub_013_day_04_data.csv,1,300,43.0,Training at home,,,,,,,,,,,,,
13,5,1085,B,62.159527091157265,38.96357295981402,3.1079763545578634,0.6120383728408082,B,652.4082999999337,Correct,sub_013_day_04_data.csv,1,300,43.0,Training at home,,,,,,,,,,,,,
13,5,1086,A,33.27578215293321,63.40928581487498,1.6637891076466604,0.9960307324269336,A,513.158599999997,Correct,sub_013_day_04_data.csv,1,300,43.0,Training at home,,,,,,,,,,,,,
13,5,1087,A,14.96350364502268,38.75144309267546,0.748175182251134,0.6087062446797608,A,542.2774999999547,Correct,sub_013_day_04_data.csv,1,300,43.0,Training at home,,,,,,,,,,,,,
13,5,1088,A,44.27912937121594,65.7640289614635,2.213956468560797,1.033018951279001,B,514.0887000000021,Incorrect,sub_013_day_04_data.csv,0,300,43.0,Training at home,,,,,,,,,,,,,
13,5,1089,B,71.33610542950312,45.15823877492858,3.5668052714751557,0.7093439559218468,B,687.6569999999447,Correct,sub_013_day_04_data.csv,1,300,43.0,Training at home,,,,,,,,,,,,,
13,5,1090,A,36.733916064484454,57.97364906473319,1.8366958032242229,0.9106479500177928,A,1142.1298999998726,Correct,sub_013_day_04_data.csv,1,300,43.0,Training at home,,,,,,,,,,,,,
13,5,1091,B,56.98277325400699,31.008818634123465,2.8491386627003497,0.4870853840873028,B,602.9807000002165,Correct,sub_013_day_04_data.csv,1,300,43.0,Training at home,,,,,,,,,,,,,
13,5,1092,B,34.40196838772965,14.130184214306825,1.7200984193864826,0.2219564146076838,A,645.1090000000477,Incorrect,sub_013_day_04_data.csv,0,300,43.0,Training at home,,,,,,,,,,,,,
13,5,1093,A,24.24196117384262,37.02516888513999,1.2120980586921308,0.581589992837386,A,573.3159999999771,Correct,sub_013_day_04_data.csv,1,300,43.0,Training at home,,,,,,,,,,,,,
13,5,1094,A,48.50281358106253,70.14288682861856,2.4251406790531265,1.1018018898118416,A,1340.6079999999747,Correct,sub_013_day_04_data.csv,1,300,43.0,Training at home,,,,,,,,,,,,,
13,5,1095,A,32.3701967196249,64.67445189041715,1.618509835981245,1.015903914669405,A,5986.651299999949,Correct,sub_013_day_04_data.csv,1,300,43.0,Training at home,,,,,,,,,,,,,
13,5,1096,B,59.88444989888017,31.33511798871299,2.994222494944008,0.4922108823635506,B,797.431700000061,Correct,sub_013_day_04_data.csv,1,300,43.0,Training at home,,,,,,,,,,,,,
13,5,1097,A,29.83265056698885,58.491255355494154,1.4916325283494425,0.9187784906203256,A,908.5161000000426,Correct,sub_013_day_04_data.csv,1,300,43.0,Training at home,,,,,,,,,,,,,
13,5,1098,B,49.87062968699957,38.70730365929588,2.4935314843499783,0.6080129040815663,B,885.4856000000382,Correct,sub_013_day_04_data.csv,1,300,43.0,Training at home,,,,,,,,,,,,,
13,5,1099,A,46.245749255050086,66.49537038615303,2.3122874627525043,1.0445068355143532,B,958.4684000001288,Incorrect,sub_013_day_04_data.csv,0,300,43.0,Training at home,,,,,,,,,,,,,
13,5,1100,B,81.1433783028762,65.92287063390725,4.05716891514381,1.0355140304351669,B,1454.3275000000904,Correct,sub_013_day_04_data.csv,1,300,44.0,Training at home,,,,,,,,,,,,,
13,5,1101,B,85.06389971336597,68.58283890909874,4.253194985668299,1.077296714395784,B,753.8317999999435,Correct,sub_013_day_04_data.csv,1,300,44.0,Training at home,,,,,,,,,,,,,
13,5,1102,B,37.544272385895425,27.509951888151885,1.8772136192947713,0.4321253137621331,B,2855.7806000001165,Correct,sub_013_day_04_data.csv,1,300,44.0,Training at home,,,,,,,,,,,,,
13,5,1103,B,63.1864945877164,48.74811196063882,3.15932472938582,0.7657335520595783,B,836.6416000001209,Correct,sub_013_day_04_data.csv,1,300,44.0,Training at home,,,,,,,,,,,,,
13,5,1104,B,48.104653245558325,19.136366183916863,2.4052326622779163,0.3005933370989869,B,723.9030999999159,Correct,sub_013_day_04_data.csv,1,300,44.0,Training at home,,,,,,,,,,,,,
13,5,1105,A,52.05275663452922,73.90440323575979,2.6026378317264607,1.1608876513670032,A,826.878699999952,Correct,sub_013_day_04_data.csv,1,300,44.0,Training at home,,,,,,,,,,,,,
13,5,1106,A,29.165628305758855,43.543204103700845,1.4582814152879429,0.6839750506297375,A,858.9795000000322,Correct,sub_013_day_04_data.csv,1,300,44.0,Training at home,,,,,,,,,,,,,
13,5,1107,A,13.686042383360835,31.13548078458657,0.6843021191680418,0.4890749884942167,A,597.4460000002182,Correct,sub_013_day_04_data.csv,1,300,44.0,Training at home,,,,,,,,,,,,,
13,5,1108,B,64.93630107243794,35.33447738785155,3.246815053621897,0.5550326729005455,B,679.9323000000186,Correct,sub_013_day_04_data.csv,1,300,44.0,Training at home,,,,,,,,,,,,,
13,5,1109,A,59.730741286538205,69.77945488325646,2.9865370643269102,1.0960931141636947,A,1704.6818000001167,Correct,sub_013_day_04_data.csv,1,300,44.0,Training at home,,,,,,,,,,,,,
13,5,1110,A,27.143155226051174,46.36067309612351,1.3571577613025587,0.7282317500712979,A,787.9620999999588,Correct,sub_013_day_04_data.csv,1,300,44.0,Training at home,,,,,,,,,,,,,
13,5,1111,A,16.87226427768923,46.81212240547557,0.8436132138844614,0.735323099239941,A,559.475300000031,Correct,sub_013_day_04_data.csv,1,300,44.0,Training at home,,,,,,,,,,,,,
13,5,1112,A,29.093821591814105,43.94626326696934,1.454691079590705,0.6903062891611692,A,1317.544500000167,Correct,sub_013_day_04_data.csv,1,300,44.0,Training at home,,,,,,,,,,,,,
13,5,1113,A,25.226460564809948,49.65719237988243,1.2613230282404972,0.7800133538926683,A,467.5151999999798,Correct,sub_013_day_04_data.csv,1,300,44.0,Training at home,,,,,,,,,,,,,
13,5,1114,B,34.09898957391836,17.69942226576947,1.7049494786959178,0.2780218748146249,B,657.6168999999936,Correct,sub_013_day_04_data.csv,1,300,44.0,Training at home,,,,,,,,,,,,,
13,5,1115,A,19.996676851851657,42.562811156208966,0.9998338425925828,0.6685750742223788,A,495.48909999998614,Correct,sub_013_day_04_data.csv,1,300,44.0,Training at home,,,,,,,,,,,,,
13,5,1116,B,55.26282866663586,30.01453355098441,2.7631414333317927,0.4714671905234849,B,715.0406000000658,Correct,sub_013_day_04_data.csv,1,300,44.0,Training at home,,,,,,,,,,,,,
13,5,1117,A,55.987704037381384,73.64552305307961,2.7993852018690695,1.1568211709666631,A,565.8135999999558,Correct,sub_013_day_04_data.csv,1,300,44.0,Training at home,,,,,,,,,,,,,
13,5,1118,A,47.01254801965972,67.26890894934765,2.350627400982986,1.0566575508513565,A,567.8336999999374,Correct,sub_013_day_04_data.csv,1,300,44.0,Training at home,,,,,,,,,,,,,
13,5,1119,A,63.48890404100953,80.87261571572272,3.1744452020504763,1.2703440770455248,A,578.4036000000015,Correct,sub_013_day_04_data.csv,1,300,44.0,Training at home,,,,,,,,,,,,,
13,5,1120,B,48.82291525555735,41.14619879555879,2.441145762777867,0.6463229792963634,B,524.0404999999555,Correct,sub_013_day_04_data.csv,1,300,44.0,Training at home,,,,,,,,,,,,,
13,5,1121,B,72.58026160068974,41.17158976533746,3.629013080034486,0.6467218197169844,B,598.4995999999683,Correct,sub_013_day_04_data.csv,1,300,44.0,Training at home,,,,,,,,,,,,,
13,5,1122,A,24.34565214443616,41.97400358130984,1.217282607221808,0.6593261064639734,A,521.7611000000488,Correct,sub_013_day_04_data.csv,1,300,44.0,Training at home,,,,,,,,,,,,,
13,5,1123,B,87.73828225552352,63.65234693525362,4.386914112776176,0.9998487275777076,B,1049.0592999999535,Correct,sub_013_day_04_data.csv,1,300,44.0,Training at home,,,,,,,,,,,,,
13,5,1124,B,57.05812892056055,39.858594421771166,2.8529064460280273,0.626097337089257,B,711.4001999998436,Correct,sub_013_day_04_data.csv,1,300,44.0,Training at home,,,,,,,,,,,,,
13,5,1125,A,28.370504881321395,57.45005957203217,1.4185252440660696,0.9024234254989612,A,541.1406999999144,Correct,sub_013_day_04_data.csv,1,300,45.0,Training at home,,,,,,,,,,,,,
13,5,1126,A,47.40389844399176,73.31964416427564,2.370194922199588,1.1517022773515304,A,722.9419999998754,Correct,sub_013_day_04_data.csv,1,300,45.0,Training at home,,,,,,,,,,,,,
13,5,1127,A,26.61492906910581,53.92303185135906,1.3307464534552904,0.8470210036175903,A,590.5044000000998,Correct,sub_013_day_04_data.csv,1,300,45.0,Training at home,,,,,,,,,,,,,
13,5,1128,B,75.09906662693298,57.8667612508221,3.754953331346649,0.908968960163086,B,824.1110000001299,Correct,sub_013_day_04_data.csv,1,300,45.0,Training at home,,,,,,,,,,,,,
13,5,1129,A,19.72586136107344,40.619029067925815,0.986293068053672,0.63804221657873,A,512.4915000001238,Correct,sub_013_day_04_data.csv,1,300,45.0,Training at home,,,,,,,,,,,,,
13,5,1130,A,17.81887855422477,43.58679030259693,0.8909439277112385,0.6846597010409867,A,635.770999999977,Correct,sub_013_day_04_data.csv,1,300,45.0,Training at home,,,,,,,,,,,,,
13,5,1131,A,20.954099887396097,35.15724159201939,1.047704994369805,0.5522486595298483,A,1150.2622000000429,Correct,sub_013_day_04_data.csv,1,300,45.0,Training at home,,,,,,,,,,,,,
13,5,1132,A,42.206218127007936,63.36097233256553,2.1103109063503966,0.99527182602147,A,902.2738999999548,Correct,sub_013_day_04_data.csv,1,300,45.0,Training at home,,,,,,,,,,,,,
13,5,1133,B,56.265582907962575,24.166362345855987,2.8132791453981287,0.3796043320486508,B,542.8051000001233,Correct,sub_013_day_04_data.csv,1,300,45.0,Training at home,,,,,,,,,,,,,
13,5,1134,B,73.36983597790338,54.94933640794201,3.668491798895169,0.8631421578941239,A,551.156500000161,Incorrect,sub_013_day_04_data.csv,0,300,45.0,Training at home,,,,,,,,,,,,,
13,5,1135,A,34.841621744852795,46.71438919748284,1.7420810872426398,0.7337879095987323,A,721.5905000000475,Correct,sub_013_day_04_data.csv,1,300,45.0,Training at home,,,,,,,,,,,,,
13,5,1136,B,46.94297533859603,23.936365859626697,2.3471487669298012,0.3759915556912038,B,1372.9693999998744,Correct,sub_013_day_04_data.csv,1,300,45.0,Training at home,,,,,,,,,,,,,
13,5,1137,B,74.12924987997323,53.005532976417136,3.7064624939986617,0.832608964991618,B,702.5461000000632,Correct,sub_013_day_04_data.csv,1,300,45.0,Training at home,,,,,,,,,,,,,
13,5,1138,A,15.654136966108748,41.77097640918015,0.7827068483054375,0.6561369631017646,A,474.9485999998342,Correct,sub_013_day_04_data.csv,1,300,45.0,Training at home,,,,,,,,,,,,,
13,5,1139,B,50.208566536536,36.399292220851905,2.5104283268268004,0.5717587451844822,B,1385.932700000012,Correct,sub_013_day_04_data.csv,1,300,45.0,Training at home,,,,,,,,,,,,,
13,5,1140,B,41.21697445730845,23.27397728898717,2.060848722865422,0.3655867803544889,B,582.4459000000388,Correct,sub_013_day_04_data.csv,1,300,45.0,Training at home,,,,,,,,,,,,,
13,5,1141,A,36.5590484530675,56.774676702733686,1.827952422653375,0.8918145361962186,A,564.8121000001538,Correct,sub_013_day_04_data.csv,1,300,45.0,Training at home,,,,,,,,,,,,,
13,5,1142,B,32.004538706044684,10.269916261367204,1.6002269353022345,0.1613194673984678,B,718.2674999999108,Correct,sub_013_day_04_data.csv,1,300,45.0,Training at home,,,,,,,,,,,,,
13,5,1143,B,46.46312851490947,35.25360313402062,2.3231564257454735,0.5537623030920465,A,1222.638199999892,Incorrect,sub_013_day_04_data.csv,0,300,45.0,Training at home,,,,,,,,,,,,,
13,5,1144,B,85.06525545785613,69.64795329074072,4.253262772892806,1.0940274919787805,B,986.2428999999792,Correct,sub_013_day_04_data.csv,1,300,45.0,Training at home,,,,,,,,,,,,,
13,5,1145,A,32.602498631725524,64.33084053706,1.6301249315862762,1.0105064801524208,A,973.3470999999554,Correct,sub_013_day_04_data.csv,1,300,45.0,Training at home,,,,,,,,,,,,,
13,5,1146,A,44.37476596099736,76.70258980513553,2.218738298049868,1.204841463215626,A,1068.6581999998452,Correct,sub_013_day_04_data.csv,1,300,45.0,Training at home,,,,,,,,,,,,,
13,5,1147,A,27.56311842692125,57.64926030034875,1.378155921346062,0.9055524632223068,A,696.6807999999673,Correct,sub_013_day_04_data.csv,1,300,45.0,Training at home,,,,,,,,,,,,,
13,5,1148,B,71.40404773229218,47.31047911754065,3.570202386614609,0.7431512681673951,B,499.7584000000188,Correct,sub_013_day_04_data.csv,1,300,45.0,Training at home,,,,,,,,,,,,,
13,5,1149,B,36.55553504007628,15.81560509286415,1.827776752003814,0.2484309438590966,B,802.2085000000061,Correct,sub_013_day_04_data.csv,1,300,45.0,Training at home,,,,,,,,,,,,,
13,5,1150,A,26.381766303417308,51.309608200599754,1.3190883151708652,0.805969440907874,A,723.5851000000366,Correct,sub_013_day_04_data.csv,1,300,46.0,Training at home,,,,,,,,,,,,,
13,5,1151,A,62.11437843149602,87.06284494805385,3.105718921574801,1.367579970447166,A,1126.9913999999517,Correct,sub_013_day_04_data.csv,1,300,46.0,Training at home,,,,,,,,,,,,,
13,5,1152,B,77.68557369547342,57.11421830891708,3.8842786847736703,0.8971480432740877,B,1493.5464000000138,Correct,sub_013_day_04_data.csv,1,300,46.0,Training at home,,,,,,,,,,,,,
13,5,1153,A,54.07175090698679,80.73710876921766,2.7035875453493396,1.2682155389072711,A,937.5230999999076,Correct,sub_013_day_04_data.csv,1,300,46.0,Training at home,,,,,,,,,,,,,
13,5,1154,A,13.125051809753288,40.94697578270341,0.6562525904876644,0.643193591528301,A,578.5025000000132,Correct,sub_013_day_04_data.csv,1,300,46.0,Training at home,,,,,,,,,,,,,
13,5,1155,B,64.65461062409399,50.01887863408512,3.2327305312047,0.7856947082882064,B,686.5864999999758,Correct,sub_013_day_04_data.csv,1,300,46.0,Training at home,,,,,,,,,,,,,
13,5,1156,B,82.91120359541746,55.76113964778813,4.145560179770873,0.8758939333664285,B,875.1229000001786,Correct,sub_013_day_04_data.csv,1,300,46.0,Training at home,,,,,,,,,,,,,
13,5,1157,B,82.05023757738618,67.34891345705253,4.102511878869309,1.0579142587196548,B,687.6786999998785,Correct,sub_013_day_04_data.csv,1,300,46.0,Training at home,,,,,,,,,,,,,
13,5,1158,B,45.307396291228315,23.006927695201657,2.265369814561416,0.3613919751445854,A,1427.6714000000084,Incorrect,sub_013_day_04_data.csv,0,300,46.0,Training at home,,,,,,,,,,,,,
13,5,1159,B,76.98507124679428,56.91552033686642,3.849253562339714,0.8940269028277001,B,833.4687999999915,Correct,sub_013_day_04_data.csv,1,300,46.0,Training at home,,,,,,,,,,,,,
13,5,1160,B,52.367677095951315,32.51524247964468,2.6183838547975657,0.5107482345187124,B,668.2396999999582,Correct,sub_013_day_04_data.csv,1,300,46.0,Training at home,,,,,,,,,,,,,
13,5,1161,B,79.92373808512815,58.11698034606677,3.9961869042564073,0.9128993925201287,B,816.0507000000052,Correct,sub_013_day_04_data.csv,1,300,46.0,Training at home,,,,,,,,,,,,,
13,5,1162,B,77.12205929808388,55.97059549771092,3.856102964904194,0.8791840581632728,B,918.8455000000886,Correct,sub_013_day_04_data.csv,1,300,46.0,Training at home,,,,,,,,,,,,,
13,5,1163,B,54.575416451924845,41.13736004284972,2.728770822596242,0.646184140493475,B,746.7609000000266,Correct,sub_013_day_04_data.csv,1,300,46.0,Training at home,,,,,,,,,,,,,
13,5,1164,A,33.544656807518464,45.91604943612707,1.6772328403759231,0.7212476179520126,B,806.8053000001782,Incorrect,sub_013_day_04_data.csv,0,300,46.0,Training at home,,,,,,,,,,,,,
13,5,1165,A,43.926506650709456,76.16342238604507,2.196325332535473,1.196372241201278,A,903.8580999999796,Correct,sub_013_day_04_data.csv,1,300,46.0,Training at home,,,,,,,,,,,,,
13,5,1166,B,60.11844809134128,45.44121170993736,3.0059224045670643,0.7137888843907885,B,856.2606000000414,Correct,sub_013_day_04_data.csv,1,300,46.0,Training at home,,,,,,,,,,,,,
13,5,1167,B,42.88851217357951,26.826721963635286,2.1444256086789752,0.4213931632042629,B,878.8059999999405,Correct,sub_013_day_04_data.csv,1,300,46.0,Training at home,,,,,,,,,,,,,
13,5,1168,B,72.0999438099697,46.17485063498611,3.6049971904984854,0.7253128576773917,B,659.0023000001111,Correct,sub_013_day_04_data.csv,1,300,46.0,Training at home,,,,,,,,,,,,,
13,5,1169,A,32.839094136338566,41.88029065631771,1.6419547068169282,0.6578540672804649,A,936.5413999998964,Correct,sub_013_day_04_data.csv,1,300,46.0,Training at home,,,,,,,,,,,,,
13,5,1170,A,53.97315803314382,65.86471861910664,2.698657901657191,1.0346005807227212,A,1316.914400000087,Correct,sub_013_day_04_data.csv,1,300,46.0,Training at home,,,,,,,,,,,,,
13,5,1171,A,62.0203695519877,72.54854924594353,3.1010184775993848,1.1395899466982675,A,948.3867999999802,Correct,sub_013_day_04_data.csv,1,300,46.0,Training at home,,,,,,,,,,,,,
13,5,1172,A,45.99954858237064,55.78651101023172,2.299977429118532,0.8762924657957503,A,838.4324000001016,Correct,sub_013_day_04_data.csv,1,300,46.0,Training at home,,,,,,,,,,,,,
13,5,1173,A,38.25138366554524,54.69525578799684,1.912569183277262,0.8591510688489273,A,575.456499999973,Correct,sub_013_day_04_data.csv,1,300,46.0,Training at home,,,,,,,,,,,,,
13,5,1174,B,57.91321526292329,38.76354565648903,2.8956607631461644,0.6088963513075923,B,510.3439999998045,Correct,sub_013_day_04_data.csv,1,300,46.0,Training at home,,,,,,,,,,,,,
13,5,1175,A,34.29544005647742,43.42016771602352,1.7147720028238709,0.6820423995714809,A,1354.3353000000025,Correct,sub_013_day_04_data.csv,1,300,47.0,Training at home,,,,,,,,,,,,,
13,5,1176,A,15.937110571428065,33.197839250954274,0.7968555285714032,0.5214704395292641,A,973.9360000000944,Correct,sub_013_day_04_data.csv,1,300,47.0,Training at home,,,,,,,,,,,,,
13,5,1177,B,39.36342930647242,29.118451528335974,1.968171465323621,0.4573915670266539,B,777.876200000037,Correct,sub_013_day_04_data.csv,1,300,47.0,Training at home,,,,,,,,,,,,,
13,5,1178,A,34.04278621404062,49.80871681427456,1.702139310702031,0.7823934941422969,A,869.9997000001076,Correct,sub_013_day_04_data.csv,1,300,47.0,Training at home,,,,,,,,,,,,,
13,5,1179,B,68.99594421808071,59.840505605996,3.4497972109040353,0.9399724639944792,B,629.3226000000232,Correct,sub_013_day_04_data.csv,1,300,47.0,Training at home,,,,,,,,,,,,,
13,5,1180,A,28.19508677333547,52.1526684878818,1.4097543386667737,0.8192122009331667,A,567.9870000001301,Correct,sub_013_day_04_data.csv,1,300,47.0,Training at home,,,,,,,,,,,,,
13,5,1181,A,29.07470977049573,40.26810039855136,1.4537354885247864,0.6325298419305259,A,774.0114000000631,Correct,sub_013_day_04_data.csv,1,300,47.0,Training at home,,,,,,,,,,,,,
13,5,1182,B,82.47358452369937,57.84653946062332,4.123679226184969,0.9086513170254314,B,1431.5051999999469,Correct,sub_013_day_04_data.csv,1,300,47.0,Training at home,,,,,,,,,,,,,
13,5,1183,A,59.41133177029929,83.30046481623376,2.9705665885149646,1.3084806415364747,A,1160.779100000127,Correct,sub_013_day_04_data.csv,1,300,47.0,Training at home,,,,,,,,,,,,,
13,5,1184,B,57.09470912695897,47.500775586225885,2.854735456347949,0.7461404381075231,B,1569.2432000000736,Correct,sub_013_day_04_data.csv,1,300,47.0,Training at home,,,,,,,,,,,,,
13,5,1185,A,12.118234798233733,32.24167276007661,0.6059117399116866,0.5064510114125141,A,1874.5768999999657,Correct,sub_013_day_04_data.csv,1,300,47.0,Training at home,,,,,,,,,,,,,
13,5,1186,A,27.374471216103963,49.97352362908577,1.368723560805198,0.7849822735356589,A,612.996899999871,Correct,sub_013_day_04_data.csv,1,300,47.0,Training at home,,,,,,,,,,,,,
13,5,1187,B,69.69031096130954,55.83090426036104,3.4845155480654766,0.8769897933381267,B,770.0139999999465,Correct,sub_013_day_04_data.csv,1,300,47.0,Training at home,,,,,,,,,,,,,
13,5,1188,B,80.4273255493587,55.25542177781159,4.021366277467934,0.8679501356408919,B,577.3066000001563,Correct,sub_013_day_04_data.csv,1,300,47.0,Training at home,,,,,,,,,,,,,
13,5,1189,B,70.05041315594077,42.490042671451214,3.5025206577970387,0.6674320295367397,B,490.8956000001581,Correct,sub_013_day_04_data.csv,1,300,47.0,Training at home,,,,,,,,,,,,,
13,5,1190,B,81.64591338958675,52.57666177972686,4.082295669479338,0.8258722719873259,B,845.5925999999181,Correct,sub_013_day_04_data.csv,1,300,47.0,Training at home,,,,,,,,,,,,,
13,5,1191,B,57.56534718710475,28.45747909495816,2.8782673593552373,0.4470090363220284,B,1021.8103000001976,Correct,sub_013_day_04_data.csv,1,300,47.0,Training at home,,,,,,,,,,,,,
13,5,1192,B,72.15012540885047,60.782627320125094,3.607506270442524,0.9547712772739562,B,638.7611000000106,Correct,sub_013_day_04_data.csv,1,300,47.0,Training at home,,,,,,,,,,,,,
13,5,1193,A,46.48909084697902,54.683404290401185,2.324454542348951,0.8589649059600246,B,1041.1440000000312,Incorrect,sub_013_day_04_data.csv,0,300,47.0,Training at home,,,,,,,,,,,,,
13,5,1194,A,17.084768222239052,38.39646102095526,0.8542384111119525,0.6031301993363994,A,531.1933999998928,Correct,sub_013_day_04_data.csv,1,300,47.0,Training at home,,,,,,,,,,,,,
13,5,1195,B,47.22034275540772,36.97227992235982,2.361017137770386,0.5807592149527551,B,925.8001000000604,Correct,sub_013_day_04_data.csv,1,300,47.0,Training at home,,,,,,,,,,,,,
13,5,1196,B,42.68775187802382,21.317315257576595,2.1343875939011907,0.3348516050373012,B,546.529499999906,Correct,sub_013_day_04_data.csv,1,300,47.0,Training at home,,,,,,,,,,,,,
13,5,1197,A,30.978158954442364,41.063357618370006,1.5489079477221182,0.6450217131280083,B,688.8664999999037,Incorrect,sub_013_day_04_data.csv,0,300,47.0,Training at home,,,,,,,,,,,,,
13,5,1198,A,57.92091388799744,85.41286254726548,2.8960456943998723,1.34166210750282,A,1272.4103999998988,Correct,sub_013_day_04_data.csv,1,300,47.0,Training at home,,,,,,,,,,,,,
13,5,1199,B,65.02640014241375,42.27898649020972,3.251320007120688,0.6641167667943247,B,758.6095000001478,Correct,sub_013_day_04_data.csv,1,300,47.0,Training at home,,,,,,,,,,,,,
