subject,day,trial,cat,x,y,xt,yt,resp,rt,fb,f_name,acc,n_trials,block,session_type,ns_left_digit,ns_right_digit,ns_left_size,ns_right_size,ns_congruent,ns_cue,ns_correct_side,ns_resp,ns_rt,ns_fb,acc_stroop,acc_stroop_mean,resp_key
13,23,0,B,56.03685127104421,34.832155795565065,2.801842563552211,0.5471422237802117,B,1482.1385000250302,Correct,sub_013_day_23_data.csv,1,600,,Button-Switch at home,,,,,,,,,,,,,d
13,23,1,B,59.78308138446083,38.90104398288863,2.9891540692230416,0.6110561699680818,B,408.81270001409575,Correct,sub_013_day_23_data.csv,1,600,,Button-Switch at home,,,,,,,,,,,,,d
13,23,2,A,44.1926430581137,68.5874576139533,2.209632152905685,1.077369264841985,A,628.8120000390336,Correct,sub_013_day_23_data.csv,1,600,,Button-Switch at home,,,,,,,,,,,,,k
13,23,3,A,13.386957647853318,34.604796682290726,0.669347882392666,0.5435708751802649,A,782.0751999970526,Correct,sub_013_day_23_data.csv,1,600,,Button-Switch at home,,,,,,,,,,,,,k
13,23,4,A,36.64229098387641,62.81060169324721,1.8321145491938204,0.9866266242353005,A,679.669399978593,Correct,sub_013_day_23_data.csv,1,600,,Button-Switch at home,,,,,,,,,,,,,k
13,23,5,B,76.81708265808263,58.93743173122657,3.840854132904131,0.9257870127413568,B,1374.7888000216335,Correct,sub_013_day_23_data.csv,1,600,,Button-Switch at home,,,,,,,,,,,,,d
13,23,6,A,68.0351608337164,82.69830643994747,3.40175804168582,1.299021959880282,A,1119.4650999968871,Correct,sub_013_day_23_data.csv,1,600,,Button-Switch at home,,,,,,,,,,,,,k
13,23,7,B,60.87052906596303,47.26280802892504,3.043526453298151,0.742402452458478,A,510.7278000214137,Incorrect,sub_013_day_23_data.csv,0,600,,Button-Switch at home,,,,,,,,,,,,,k
13,23,8,A,22.762440234609905,51.23804921304728,1.138122011730495,0.804845394959908,A,750.2361999941058,Correct,sub_013_day_23_data.csv,1,600,,Button-Switch at home,,,,,,,,,,,,,k
13,23,9,B,35.68105452632932,21.728866941516657,1.784052726316466,0.3413162437714943,A,624.2183999856934,Incorrect,sub_013_day_23_data.csv,0,600,,Button-Switch at home,,,,,,,,,,,,,k
13,23,10,B,39.10291253833134,20.94884346821396,1.955145626916567,0.3290636637047174,B,1682.7424999792129,Correct,sub_013_day_23_data.csv,1,600,,Button-Switch at home,,,,,,,,,,,,,d
13,23,11,A,20.41517319044555,51.30815107088062,1.0207586595222775,0.8059465523677692,B,504.26339998375624,Incorrect,sub_013_day_23_data.csv,0,600,,Button-Switch at home,,,,,,,,,,,,,d
13,23,12,A,52.71645876755774,76.86832596377165,2.635822938377887,1.2074448407076528,B,1025.5474000005051,Incorrect,sub_013_day_23_data.csv,0,600,,Button-Switch at home,,,,,,,,,,,,,d
13,23,13,B,85.97317174261983,67.1771553186168,4.298658587130991,1.055216288190135,A,2171.5048999758437,Incorrect,sub_013_day_23_data.csv,0,600,,Button-Switch at home,,,,,,,,,,,,,k
13,23,14,A,66.2880281449552,81.24618186946026,3.31440140724776,1.276212040466583,A,546.5383999980986,Correct,sub_013_day_23_data.csv,1,600,,Button-Switch at home,,,,,,,,,,,,,k
13,23,15,B,85.32644858025414,66.23963512267055,4.266322429012707,1.0404897553892511,B,803.5292999702506,Correct,sub_013_day_23_data.csv,1,600,,Button-Switch at home,,,,,,,,,,,,,d
13,23,16,A,23.134548578054986,37.74660090715981,1.1567274289027492,0.5929222205395954,A,1362.4446999747306,Correct,sub_013_day_23_data.csv,1,600,,Button-Switch at home,,,,,,,,,,,,,k
13,23,17,A,41.02318180098912,61.98569084100234,2.051159090049456,0.9736689548689054,A,435.33010000828654,Correct,sub_013_day_23_data.csv,1,600,,Button-Switch at home,,,,,,,,,,,,,k
13,23,18,B,45.444993463789345,37.01915471389924,2.2722496731894672,0.581495522456449,A,443.963999976404,Incorrect,sub_013_day_23_data.csv,0,600,,Button-Switch at home,,,,,,,,,,,,,k
13,23,19,B,42.52755841931986,23.846119472762336,2.126377920965993,0.3745739687612734,B,513.2406000047922,Correct,sub_013_day_23_data.csv,1,600,,Button-Switch at home,,,,,,,,,,,,,d
13,23,20,A,50.98876410141042,67.79727653734837,2.549438205070521,1.0649571295156464,B,449.4427000172436,Incorrect,sub_013_day_23_data.csv,0,600,,Button-Switch at home,,,,,,,,,,,,,d
13,23,21,A,11.568244956902172,36.734963201915875,0.5784122478451087,0.5770314526251514,A,1003.2808000105432,Correct,sub_013_day_23_data.csv,1,600,,Button-Switch at home,,,,,,,,,,,,,k
13,23,22,A,68.22232960539992,88.13021616666829,3.411116480269996,1.3843461983424274,B,436.9189999997616,Incorrect,sub_013_day_23_data.csv,0,600,,Button-Switch at home,,,,,,,,,,,,,d
13,23,23,A,33.597415992513376,61.18438788229631,1.679870799625669,0.9610821174270524,B,1132.4087999528274,Incorrect,sub_013_day_23_data.csv,0,600,,Button-Switch at home,,,,,,,,,,,,,d
13,23,24,A,34.59403822909687,51.10394517033588,1.7297019114548433,0.8027388935829141,A,981.8827999988572,Correct,sub_013_day_23_data.csv,1,600,,Button-Switch at home,,,,,,,,,,,,,k
13,23,25,B,88.92938284507632,65.55912814868766,4.446469142253815,1.029800376838345,B,637.095199956093,Correct,sub_013_day_23_data.csv,1,600,,Button-Switch at home,,,,,,,,,,,,,d
13,23,26,A,50.19412977605117,62.05670718086919,2.5097064888025584,0.974784476926958,A,475.8912000106648,Correct,sub_013_day_23_data.csv,1,600,,Button-Switch at home,,,,,,,,,,,,,k
13,23,27,B,49.59554479760198,35.26975922044373,2.479777239880099,0.5540160823041345,A,461.32920001400635,Incorrect,sub_013_day_23_data.csv,0,600,,Button-Switch at home,,,,,,,,,,,,,k
13,23,28,A,68.810011307083,83.98214276860699,3.4405005653541503,1.3191884137729244,B,1332.3775000171736,Incorrect,sub_013_day_23_data.csv,0,600,,Button-Switch at home,,,,,,,,,,,,,d
13,23,29,A,37.285185786078486,67.35507754624088,1.8642592893039245,1.0580110840062058,B,787.6213999697939,Incorrect,sub_013_day_23_data.csv,0,600,,Button-Switch at home,,,,,,,,,,,,,d
13,23,30,A,36.91652866737078,57.263406318899264,1.845826433368539,0.8994914830549063,A,394.12720000837,Correct,sub_013_day_23_data.csv,1,600,,Button-Switch at home,,,,,,,,,,,,,k
13,23,31,B,57.121002652290365,37.37223972013371,2.8560501326145182,0.5870417687648436,A,505.6349999504164,Incorrect,sub_013_day_23_data.csv,0,600,,Button-Switch at home,,,,,,,,,,,,,k
13,23,32,B,76.85522794512607,65.37833840065743,3.842761397256304,1.026960538117064,A,722.6326999953017,Incorrect,sub_013_day_23_data.csv,0,600,,Button-Switch at home,,,,,,,,,,,,,k
13,23,33,A,28.7054429469373,53.30351672378447,1.435272147346865,0.8372896827497098,A,1720.820599992294,Correct,sub_013_day_23_data.csv,1,600,,Button-Switch at home,,,,,,,,,,,,,k
13,23,34,B,43.16137948966359,31.105522329865316,2.1580689744831796,0.4886044021878907,A,661.1294000176713,Incorrect,sub_013_day_23_data.csv,0,600,,Button-Switch at home,,,,,,,,,,,,,k
13,23,35,B,85.8608311148878,58.51994371432028,4.29304155574439,0.9192291263069838,A,924.1746999905444,Incorrect,sub_013_day_23_data.csv,0,600,,Button-Switch at home,,,,,,,,,,,,,k
13,23,36,A,22.725049469957824,36.642179734570355,1.1362524734978912,0.5755740133282151,B,480.97919998690486,Incorrect,sub_013_day_23_data.csv,0,600,,Button-Switch at home,,,,,,,,,,,,,d
13,23,37,B,31.2207081109473,14.267285462312934,1.561035405547365,0.2241099959753539,B,1999.895600019954,Correct,sub_013_day_23_data.csv,1,600,,Button-Switch at home,,,,,,,,,,,,,d
13,23,38,A,26.5564272332265,50.942654447969325,1.3278213616613248,0.8002053448405192,B,834.1401999932714,Incorrect,sub_013_day_23_data.csv,0,600,,Button-Switch at home,,,,,,,,,,,,,d
13,23,39,A,28.918003999553093,50.92023736198048,1.4459001999776546,0.799853218077232,A,460.4140000301413,Correct,sub_013_day_23_data.csv,1,600,,Button-Switch at home,,,,,,,,,,,,,k
13,23,40,B,81.3642961682067,61.3945577589076,4.068214808410335,0.9643834581288916,B,542.9864000179805,Correct,sub_013_day_23_data.csv,1,600,,Button-Switch at home,,,,,,,,,,,,,d
13,23,41,A,45.24672851938621,61.81858153217792,2.2623364259693104,0.9710440079841588,B,472.4374000215903,Incorrect,sub_013_day_23_data.csv,0,600,,Button-Switch at home,,,,,,,,,,,,,d
13,23,42,B,62.47569898443216,46.31265786176413,3.123784949221608,0.7274775285336789,B,705.5281999637373,Correct,sub_013_day_23_data.csv,1,600,,Button-Switch at home,,,,,,,,,,,,,d
13,23,43,A,24.324882198261857,52.30147762117752,1.216244109913093,0.8215496893329114,B,739.5576999988407,Incorrect,sub_013_day_23_data.csv,0,600,,Button-Switch at home,,,,,,,,,,,,,d
13,23,44,B,54.315368502214945,39.862038476240805,2.7157684251107472,0.626151436170359,B,714.998800016474,Correct,sub_013_day_23_data.csv,1,600,,Button-Switch at home,,,,,,,,,,,,,d
13,23,45,A,50.71866872521043,59.811729170855074,2.5359334362605215,0.9395204448083032,B,698.9589000004344,Incorrect,sub_013_day_23_data.csv,0,600,,Button-Switch at home,,,,,,,,,,,,,d
13,23,46,B,59.35241734976851,44.41691224934301,2.9676208674884252,0.6976992260883924,A,471.6690999921411,Incorrect,sub_013_day_23_data.csv,0,600,,Button-Switch at home,,,,,,,,,,,,,k
13,23,47,B,76.49188581630457,64.9858061356158,3.824594290815229,1.0207946557163057,B,1269.3703000550158,Correct,sub_013_day_23_data.csv,1,600,,Button-Switch at home,,,,,,,,,,,,,d
13,23,48,B,41.963153308211915,21.95838657779708,2.098157665410596,0.3449215297874601,A,707.735900010448,Incorrect,sub_013_day_23_data.csv,0,600,,Button-Switch at home,,,,,,,,,,,,,k
13,23,49,B,35.75976690189305,22.44041914608859,1.7879883450946523,0.3524932796641383,B,615.0312999961898,Correct,sub_013_day_23_data.csv,1,600,,Button-Switch at home,,,,,,,,,,,,,d
13,23,50,A,39.28299049550498,72.36208954085245,1.964149524775249,1.1366610444997445,A,680.6143000139855,Correct,sub_013_day_23_data.csv,1,600,,Button-Switch at home,,,,,,,,,,,,,k
13,23,51,A,30.43030944341487,55.55353654327392,1.5215154721707436,0.8726329114264074,A,1189.242299995385,Correct,sub_013_day_23_data.csv,1,600,,Button-Switch at home,,,,,,,,,,,,,k
13,23,52,A,22.59830841320105,41.66956038639506,1.1299154206600526,0.654543923941075,A,356.5109000192024,Correct,sub_013_day_23_data.csv,1,600,,Button-Switch at home,,,,,,,,,,,,,k
13,23,53,A,28.638817600107572,52.03471001516741,1.4319408800053788,0.8173593135766258,A,387.703699991107,Correct,sub_013_day_23_data.csv,1,600,,Button-Switch at home,,,,,,,,,,,,,k
13,23,54,B,54.00964917358111,26.31140346176072,2.7004824586790557,0.4132985591055226,B,419.82489998918027,Correct,sub_013_day_23_data.csv,1,600,,Button-Switch at home,,,,,,,,,,,,,d
13,23,55,B,52.125189291277145,33.57416049089161,2.6062594645638573,0.5273816797431488,A,401.63820004090667,Incorrect,sub_013_day_23_data.csv,0,600,,Button-Switch at home,,,,,,,,,,,,,k
13,23,56,A,54.909431206106746,79.72885181621342,2.7454715603053375,1.2523778757248267,B,623.5613999888301,Incorrect,sub_013_day_23_data.csv,0,600,,Button-Switch at home,,,,,,,,,,,,,d
13,23,57,B,46.561392148338975,16.632966182830383,2.3280696074169485,0.261270021836937,A,444.7005999973044,Incorrect,sub_013_day_23_data.csv,0,600,,Button-Switch at home,,,,,,,,,,,,,k
13,23,58,A,31.7543617335237,44.43921678840037,1.587718086676185,0.698049584968614,A,1233.1749000004493,Correct,sub_013_day_23_data.csv,1,600,,Button-Switch at home,,,,,,,,,,,,,k
13,23,59,B,65.86492300485749,50.62267083634245,3.293246150242874,0.7951790540227385,A,448.53180000791326,Incorrect,sub_013_day_23_data.csv,0,600,,Button-Switch at home,,,,,,,,,,,,,k
13,23,60,B,80.47003823928314,66.26892269749662,4.023501911964157,1.0409498035388265,B,1218.0800000205636,Correct,sub_013_day_23_data.csv,1,600,,Button-Switch at home,,,,,,,,,,,,,d
13,23,61,A,60.679153444416315,74.56948341269002,3.033957672220816,1.1713347063564643,A,725.3455000463873,Correct,sub_013_day_23_data.csv,1,600,,Button-Switch at home,,,,,,,,,,,,,k
13,23,62,A,42.49671525082958,73.37985321939084,2.1248357625414793,1.152648038977678,A,1374.2747000069355,Correct,sub_013_day_23_data.csv,1,600,,Button-Switch at home,,,,,,,,,,,,,k
13,23,63,B,44.53795240905227,24.11237900264853,2.226897620452613,0.378756363676467,B,581.5335000515915,Correct,sub_013_day_23_data.csv,1,600,,Button-Switch at home,,,,,,,,,,,,,d
13,23,64,B,53.326828575782855,37.99778608509767,2.666341428789143,0.5968678280880966,A,697.2049999749288,Incorrect,sub_013_day_23_data.csv,0,600,,Button-Switch at home,,,,,,,,,,,,,k
13,23,65,A,30.856258322227298,61.94499039626812,1.5428129161113648,0.9730296337780312,A,719.581899989862,Correct,sub_013_day_23_data.csv,1,600,,Button-Switch at home,,,,,,,,,,,,,k
13,23,66,A,40.77642086541519,51.09473256682939,2.0388210432707594,0.8025941823454319,A,405.1119000068866,Correct,sub_013_day_23_data.csv,1,600,,Button-Switch at home,,,,,,,,,,,,,k
13,23,67,A,48.83508716598748,78.63599855573484,2.441754358299374,1.2352113768519708,B,497.56680004065856,Incorrect,sub_013_day_23_data.csv,0,600,,Button-Switch at home,,,,,,,,,,,,,d
13,23,68,B,48.38643795786403,19.8257541849868,2.4193218978932016,0.3114222184971581,A,1276.4785999897867,Incorrect,sub_013_day_23_data.csv,0,600,,Button-Switch at home,,,,,,,,,,,,,k
13,23,69,A,37.680949648646425,59.91561434747786,1.8840474824323212,0.9411522693467784,A,938.504500023555,Correct,sub_013_day_23_data.csv,1,600,,Button-Switch at home,,,,,,,,,,,,,k
13,23,70,B,86.12449965316472,59.109088352976855,4.306224982658236,0.9284833886505106,A,537.1504999930039,Incorrect,sub_013_day_23_data.csv,0,600,,Button-Switch at home,,,,,,,,,,,,,k
13,23,71,B,48.52003268858607,20.079403601936097,2.4260016344293036,0.3154065342215344,B,713.2360999821685,Correct,sub_013_day_23_data.csv,1,600,,Button-Switch at home,,,,,,,,,,,,,d
13,23,72,A,24.74841775009984,54.32713093285186,1.237420887504992,0.8533685771462912,B,1513.2090000552123,Incorrect,sub_013_day_23_data.csv,0,600,,Button-Switch at home,,,,,,,,,,,,,d
13,23,73,A,26.194095338992614,41.97815715033027,1.309704766949631,0.659391350573577,A,592.9109000135213,Correct,sub_013_day_23_data.csv,1,600,,Button-Switch at home,,,,,,,,,,,,,k
13,23,74,B,60.64740612368745,32.527873623337896,3.0323703061843723,0.5109466440598778,B,507.10359995719045,Correct,sub_013_day_23_data.csv,1,600,,Button-Switch at home,,,,,,,,,,,,,d
13,23,75,B,58.87985527725764,38.85913084852402,2.943992763862882,0.6103977999930378,A,673.8539999932982,Incorrect,sub_013_day_23_data.csv,0,600,,Button-Switch at home,,,,,,,,,,,,,k
13,23,76,A,51.99776242372764,59.88276385770216,2.5998881211863822,0.9406362550600476,A,766.1167999613099,Correct,sub_013_day_23_data.csv,1,600,,Button-Switch at home,,,,,,,,,,,,,k
13,23,77,A,23.878122486107596,36.87719633769821,1.19390612430538,0.5792656454975056,A,563.0826000124216,Correct,sub_013_day_23_data.csv,1,600,,Button-Switch at home,,,,,,,,,,,,,k
13,23,78,B,79.82658332255532,50.89710954198501,3.991329166127766,0.7994899271302753,B,454.5388999977149,Correct,sub_013_day_23_data.csv,1,600,,Button-Switch at home,,,,,,,,,,,,,d
13,23,79,A,40.04134659377288,68.54974329181557,2.002067329688644,1.0767768496551702,B,477.8120999690145,Incorrect,sub_013_day_23_data.csv,0,600,,Button-Switch at home,,,,,,,,,,,,,d
13,23,80,B,76.34762514822503,45.018618431345224,3.817381257411251,0.7071508046933811,B,2222.1427999902517,Correct,sub_013_day_23_data.csv,1,600,,Button-Switch at home,,,,,,,,,,,,,d
13,23,81,A,26.180746042365683,45.86492902882655,1.3090373021182842,0.7204446204718937,A,473.2735000434331,Correct,sub_013_day_23_data.csv,1,600,,Button-Switch at home,,,,,,,,,,,,,k
13,23,82,B,37.717809760020025,14.873026436396133,1.8858904880010012,0.2336249529461443,A,1131.0385999968275,Incorrect,sub_013_day_23_data.csv,0,600,,Button-Switch at home,,,,,,,,,,,,,k
13,23,83,B,82.77818423732865,55.33610244506423,4.138909211866433,0.8692174645985299,B,1013.474200037308,Correct,sub_013_day_23_data.csv,1,600,,Button-Switch at home,,,,,,,,,,,,,d
13,23,84,A,43.17133090996311,74.84608501397273,2.1585665454981555,1.175679554149269,A,637.2878999682143,Correct,sub_013_day_23_data.csv,1,600,,Button-Switch at home,,,,,,,,,,,,,k
13,23,85,B,60.74500396560146,47.0316929701934,3.037250198280073,0.7387721056052516,A,487.0686000213027,Incorrect,sub_013_day_23_data.csv,0,600,,Button-Switch at home,,,,,,,,,,,,,k
13,23,86,B,49.15123144730688,27.19514876616878,2.457561572365344,0.4271803978853868,B,1321.971700002905,Correct,sub_013_day_23_data.csv,1,600,,Button-Switch at home,,,,,,,,,,,,,d
13,23,87,A,49.35718595004223,64.33931140971056,2.4678592975021116,1.0106395403088633,B,490.4876999789849,Incorrect,sub_013_day_23_data.csv,0,600,,Button-Switch at home,,,,,,,,,,,,,d
13,23,88,B,48.742216907371585,33.44082207505887,2.4371108453685792,0.5252872048050417,A,583.2336000166833,Incorrect,sub_013_day_23_data.csv,0,600,,Button-Switch at home,,,,,,,,,,,,,k
13,23,89,B,86.24820750399043,60.491029866234285,4.312410375199522,0.950190875179212,A,396.82669995818287,Incorrect,sub_013_day_23_data.csv,0,600,,Button-Switch at home,,,,,,,,,,,,,k
13,23,90,B,41.40758331717956,33.208872683202195,2.070379165858978,0.5216437522777339,B,1196.7169999843463,Correct,sub_013_day_23_data.csv,1,600,,Button-Switch at home,,,,,,,,,,,,,d
13,23,91,B,57.12685815024969,41.91616187059197,2.8563429075124844,0.6584175309966617,B,613.3710999856703,Correct,sub_013_day_23_data.csv,1,600,,Button-Switch at home,,,,,,,,,,,,,d
13,23,92,B,61.09333746997011,40.491446255822275,3.054666873498505,0.636038150452586,B,472.2454999573529,Correct,sub_013_day_23_data.csv,1,600,,Button-Switch at home,,,,,,,,,,,,,d
13,23,93,A,54.73456041712979,77.54271535845236,2.7367280208564897,1.2180381245475915,A,581.4198000007309,Correct,sub_013_day_23_data.csv,1,600,,Button-Switch at home,,,,,,,,,,,,,k
13,23,94,B,73.50013746774636,45.32929833673985,3.675006873387318,0.7120309532354098,A,632.9999000299722,Incorrect,sub_013_day_23_data.csv,0,600,,Button-Switch at home,,,,,,,,,,,,,k
13,23,95,B,53.42922570549602,37.29793356786103,2.6714612852748014,0.5858745704543618,B,713.7141000130214,Correct,sub_013_day_23_data.csv,1,600,,Button-Switch at home,,,,,,,,,,,,,d
13,23,96,A,56.456328066736006,75.00221704357843,2.8228164033368,1.1781320703352658,B,773.264100018423,Incorrect,sub_013_day_23_data.csv,0,600,,Button-Switch at home,,,,,,,,,,,,,d
13,23,97,A,44.18061686833156,52.44798598849099,2.209030843416578,0.8238510373851184,B,2283.7734000058845,Incorrect,sub_013_day_23_data.csv,0,600,,Button-Switch at home,,,,,,,,,,,,,d
13,23,98,A,23.503503020805805,40.535758113213944,1.1751751510402904,0.6367341994808289,B,784.7277999971993,Incorrect,sub_013_day_23_data.csv,0,600,,Button-Switch at home,,,,,,,,,,,,,d
13,23,99,A,17.202466519645405,43.78252748884078,0.8601233259822704,0.6877343335726768,A,767.1015000087209,Correct,sub_013_day_23_data.csv,1,600,,Button-Switch at home,,,,,,,,,,,,,k
13,23,100,B,56.96127960825658,29.134138374161985,2.84806398041283,0.4576379754246789,B,610.0600999779999,Correct,sub_013_day_23_data.csv,1,600,,Button-Switch at home,,,,,,,,,,,,,d
13,23,101,B,57.304876610530386,41.31765854414782,2.8652438305265195,0.6490162627291317,B,517.9827999672852,Correct,sub_013_day_23_data.csv,1,600,,Button-Switch at home,,,,,,,,,,,,,d
13,23,102,A,53.520606136195134,75.0926541833418,2.6760303068097566,1.1795526536047274,A,1845.836299995426,Correct,sub_013_day_23_data.csv,1,600,,Button-Switch at home,,,,,,,,,,,,,k
13,23,103,A,63.01767241303085,81.36404318414125,3.1508836206515425,1.2780634016683043,B,681.5274999826215,Incorrect,sub_013_day_23_data.csv,0,600,,Button-Switch at home,,,,,,,,,,,,,d
13,23,104,B,63.28298887298968,46.71792961658333,3.164149443649484,0.7338435223719161,B,794.7937999852002,Correct,sub_013_day_23_data.csv,1,600,,Button-Switch at home,,,,,,,,,,,,,d
13,23,105,A,48.17225311514333,56.69518446169164,2.408612655757166,0.8905658749938433,B,496.19709997205064,Incorrect,sub_013_day_23_data.csv,0,600,,Button-Switch at home,,,,,,,,,,,,,d
13,23,106,B,42.89380450451779,22.83808721544293,2.1446902252258893,0.3587398350903923,B,1305.3597999969495,Correct,sub_013_day_23_data.csv,1,600,,Button-Switch at home,,,,,,,,,,,,,d
13,23,107,B,63.03435106617041,51.398580658665466,3.1517175533085204,0.8073670170110293,A,456.49789995513856,Incorrect,sub_013_day_23_data.csv,0,600,,Button-Switch at home,,,,,,,,,,,,,k
13,23,108,B,60.61855981717355,50.708707033935895,3.0309279908586775,0.7965305074542504,B,1212.8720000036992,Correct,sub_013_day_23_data.csv,1,600,,Button-Switch at home,,,,,,,,,,,,,d
13,23,109,A,66.15471460274185,86.44475496994929,3.307735730137092,1.3578710357748125,A,1875.1983999973163,Correct,sub_013_day_23_data.csv,1,600,,Button-Switch at home,,,,,,,,,,,,,k
13,23,110,A,48.12999478426257,67.42210525007502,2.4064997392131287,1.0590639527159675,A,844.0627999952994,Correct,sub_013_day_23_data.csv,1,600,,Button-Switch at home,,,,,,,,,,,,,k
13,23,111,B,42.93224764736971,27.423512590579307,2.1466123823684855,0.4307675284509558,B,500.79289998393506,Correct,sub_013_day_23_data.csv,1,600,,Button-Switch at home,,,,,,,,,,,,,d
13,23,112,B,69.79534873519744,50.896533259685,3.489767436759871,0.7994808749090748,B,684.0587999904528,Correct,sub_013_day_23_data.csv,1,600,,Button-Switch at home,,,,,,,,,,,,,d
13,23,113,B,49.95652566755869,24.959250113758827,2.4978262833779343,0.3920589839824747,B,422.4650000105612,Correct,sub_013_day_23_data.csv,1,600,,Button-Switch at home,,,,,,,,,,,,,d
13,23,114,A,63.62739635250004,76.10694551715946,3.1813698176250025,1.1954851046193338,A,522.1547000110149,Correct,sub_013_day_23_data.csv,1,600,,Button-Switch at home,,,,,,,,,,,,,k
13,23,115,A,58.65241808203563,76.60179896023828,2.9326209041017814,1.2032582443262343,A,468.18040002835914,Correct,sub_013_day_23_data.csv,1,600,,Button-Switch at home,,,,,,,,,,,,,k
13,23,116,A,19.304539676572578,43.15580801497854,0.9652269838286288,0.6778898470979405,A,595.3020000015385,Correct,sub_013_day_23_data.csv,1,600,,Button-Switch at home,,,,,,,,,,,,,k
13,23,117,B,40.15276016837183,17.06045995200017,2.007638008418591,0.267985078260333,A,452.55569997243583,Incorrect,sub_013_day_23_data.csv,0,600,,Button-Switch at home,,,,,,,,,,,,,k
13,23,118,B,72.09063303378788,46.63059644105634,3.6045316516893937,0.7324716960586648,B,470.4969999729656,Correct,sub_013_day_23_data.csv,1,600,,Button-Switch at home,,,,,,,,,,,,,d
13,23,119,A,46.48069842390491,65.3799554034871,2.3240349211952456,1.026985937938117,A,473.950200015679,Correct,sub_013_day_23_data.csv,1,600,,Button-Switch at home,,,,,,,,,,,,,k
13,23,120,A,45.191833454147755,55.42216981656219,2.2595916727073875,0.8705694077085888,A,407.53339999355376,Correct,sub_013_day_23_data.csv,1,600,,Button-Switch at home,,,,,,,,,,,,,k
13,23,121,B,71.55427749176086,40.883418495048495,3.5777138745880426,0.6421952359884071,A,425.9283000137657,Incorrect,sub_013_day_23_data.csv,0,600,,Button-Switch at home,,,,,,,,,,,,,k
13,23,122,B,69.30963284875814,47.874855648253686,3.4654816424379074,0.7520164739811278,B,477.0970999961719,Correct,sub_013_day_23_data.csv,1,600,,Button-Switch at home,,,,,,,,,,,,,d
13,23,123,A,51.12171689099361,61.15582379702158,2.5560858445496804,0.9606334338247742,B,510.44759998330846,Incorrect,sub_013_day_23_data.csv,0,600,,Button-Switch at home,,,,,,,,,,,,,d
13,23,124,B,76.75964950732813,51.33627082228208,3.837982475366407,0.8063882563898872,A,697.9826000169851,Incorrect,sub_013_day_23_data.csv,0,600,,Button-Switch at home,,,,,,,,,,,,,k
13,23,125,B,67.8382024375249,50.43476188012504,3.391910121876245,0.7922273870407568,B,587.7526000258513,Correct,sub_013_day_23_data.csv,1,600,,Button-Switch at home,,,,,,,,,,,,,d
13,23,126,A,39.84390666074252,49.62045079809404,1.9921953330371256,0.7794362184755302,B,486.66830000001937,Incorrect,sub_013_day_23_data.csv,0,600,,Button-Switch at home,,,,,,,,,,,,,d
13,23,127,A,31.90006158089978,59.11339186043882,1.595003079044989,0.9285509879876463,A,413.14020002027974,Correct,sub_013_day_23_data.csv,1,600,,Button-Switch at home,,,,,,,,,,,,,k
13,23,128,A,18.402799065845613,36.68128774020764,0.9201399532922808,0.5761883204442483,B,446.41500001307577,Incorrect,sub_013_day_23_data.csv,0,600,,Button-Switch at home,,,,,,,,,,,,,d
13,23,129,A,23.343789785378576,37.02868637582246,1.1671894892689287,0.5816452454518215,A,625.597000005655,Correct,sub_013_day_23_data.csv,1,600,,Button-Switch at home,,,,,,,,,,,,,k
13,23,130,A,26.050732679575994,51.40763277837319,1.3025366339787996,0.8075092073748953,A,425.2736999769695,Correct,sub_013_day_23_data.csv,1,600,,Button-Switch at home,,,,,,,,,,,,,k
13,23,131,B,76.4927092107326,49.20530162006591,3.82463546053663,0.7729150704363451,B,416.6843999992125,Correct,sub_013_day_23_data.csv,1,600,,Button-Switch at home,,,,,,,,,,,,,d
13,23,132,A,45.095333870855214,72.17184516614496,2.2547666935427606,1.1336726928499052,A,397.4837999558076,Correct,sub_013_day_23_data.csv,1,600,,Button-Switch at home,,,,,,,,,,,,,k
13,23,133,A,33.045443353314624,59.32038343094942,1.6522721676657313,0.931802403974002,A,477.9994999989867,Correct,sub_013_day_23_data.csv,1,600,,Button-Switch at home,,,,,,,,,,,,,k
13,23,134,A,33.2999108621612,60.732272089681175,1.66499554310806,0.953980299163794,A,456.1277999891899,Correct,sub_013_day_23_data.csv,1,600,,Button-Switch at home,,,,,,,,,,,,,k
13,23,135,A,39.95746361972822,63.182629609537095,1.9978731809864112,0.9924704250790334,A,430.4457000107504,Correct,sub_013_day_23_data.csv,1,600,,Button-Switch at home,,,,,,,,,,,,,k
13,23,136,A,39.09610935739583,69.16969732439887,1.9548054678697917,1.0865150648268054,A,375.9169999975711,Correct,sub_013_day_23_data.csv,1,600,,Button-Switch at home,,,,,,,,,,,,,k
13,23,137,A,38.8364658261948,53.43364625716367,1.9418232913097395,0.8393337526801058,A,365.6246999744326,Correct,sub_013_day_23_data.csv,1,600,,Button-Switch at home,,,,,,,,,,,,,k
13,23,138,A,30.513958982163544,57.917775659563375,1.5256979491081772,0.90977029262173,A,365.042400022503,Correct,sub_013_day_23_data.csv,1,600,,Button-Switch at home,,,,,,,,,,,,,k
13,23,139,B,50.26375554083586,31.706559565655,2.513187777041793,0.4980454730103447,B,444.1994999651797,Correct,sub_013_day_23_data.csv,1,600,,Button-Switch at home,,,,,,,,,,,,,d
13,23,140,A,21.824513074638375,34.92068741493558,1.0912256537319187,0.5485328752053358,A,1200.6228999816813,Correct,sub_013_day_23_data.csv,1,600,,Button-Switch at home,,,,,,,,,,,,,k
13,23,141,B,39.44942433963175,15.412958835205488,1.9724712169815872,0.2421061912338172,B,397.54129998618737,Correct,sub_013_day_23_data.csv,1,600,,Button-Switch at home,,,,,,,,,,,,,d
13,23,142,A,43.54099545518965,64.08447548520216,2.177049772759483,1.0066365869673315,A,361.5011000074446,Correct,sub_013_day_23_data.csv,1,600,,Button-Switch at home,,,,,,,,,,,,,k
13,23,143,B,33.3630410251436,15.145370093170914,1.66815205125718,0.2379029171030215,B,432.5126999756322,Correct,sub_013_day_23_data.csv,1,600,,Button-Switch at home,,,,,,,,,,,,,d
13,23,144,B,67.73821140649247,55.623606918827434,3.386910570324624,0.8737335743117733,B,455.9552000137046,Correct,sub_013_day_23_data.csv,1,600,,Button-Switch at home,,,,,,,,,,,,,d
13,23,145,A,39.23440759062899,65.66706982596239,1.9617203795314495,1.0314959207400571,A,434.9534999928437,Correct,sub_013_day_23_data.csv,1,600,,Button-Switch at home,,,,,,,,,,,,,k
13,23,146,A,49.70305939513192,61.59401794453613,2.4851529697565957,0.9675165713981628,A,421.5383999980986,Correct,sub_013_day_23_data.csv,1,600,,Button-Switch at home,,,,,,,,,,,,,k
13,23,147,B,56.205911200736224,33.974219375460784,2.8102955600368116,0.533665790006978,B,382.297899981495,Correct,sub_013_day_23_data.csv,1,600,,Button-Switch at home,,,,,,,,,,,,,d
13,23,148,A,39.538806813775025,67.27205530910739,1.9769403406887511,1.05670697375489,A,439.9942999589257,Correct,sub_013_day_23_data.csv,1,600,,Button-Switch at home,,,,,,,,,,,,,k
13,23,149,B,60.997639898545174,47.11208700225599,3.049881994927259,0.7400349321078529,A,354.8896999564022,Incorrect,sub_013_day_23_data.csv,0,600,,Button-Switch at home,,,,,,,,,,,,,k
13,23,150,A,65.5488395114052,80.40661491583454,3.2774419755702606,1.2630241535980464,A,769.2870000028051,Correct,sub_013_day_23_data.csv,1,600,,Button-Switch at home,,,,,,,,,,,,,k
13,23,151,B,56.99970575437053,26.940500694195144,2.8499852877185265,0.4231803953245709,B,405.4135999758728,Correct,sub_013_day_23_data.csv,1,600,,Button-Switch at home,,,,,,,,,,,,,d
13,23,152,B,70.06044979647643,54.544126787991694,3.5030224898238216,0.8567771400681248,B,382.11310002952814,Correct,sub_013_day_23_data.csv,1,600,,Button-Switch at home,,,,,,,,,,,,,d
13,23,153,A,21.37890583188196,45.2381824156856,1.0689452915940978,0.7105997076943642,A,561.6038999869488,Correct,sub_013_day_23_data.csv,1,600,,Button-Switch at home,,,,,,,,,,,,,k
13,23,154,B,37.843063728028255,11.521167442246217,1.8921531864014127,0.180974074986693,B,425.3945000236854,Correct,sub_013_day_23_data.csv,1,600,,Button-Switch at home,,,,,,,,,,,,,d
13,23,155,B,79.93092665449149,64.04901923054838,3.9965463327245745,1.0060796414216109,B,1117.8700999589637,Correct,sub_013_day_23_data.csv,1,600,,Button-Switch at home,,,,,,,,,,,,,d
13,23,156,A,30.673709930010737,51.385668591175246,1.5336854965005369,0.8071641947291794,A,439.1032999847084,Correct,sub_013_day_23_data.csv,1,600,,Button-Switch at home,,,,,,,,,,,,,k
13,23,157,B,75.10033508412369,58.79912203497088,3.755016754206184,0.9236144491129712,A,418.3947000419721,Incorrect,sub_013_day_23_data.csv,0,600,,Button-Switch at home,,,,,,,,,,,,,k
13,23,158,B,55.53400235019361,43.88753264541444,2.7767001175096806,0.6893837507150811,B,347.88770001614466,Correct,sub_013_day_23_data.csv,1,600,,Button-Switch at home,,,,,,,,,,,,,d
13,23,159,A,51.102723210265,80.08588674871291,2.55513616051325,1.257986167329903,A,405.33129998948425,Correct,sub_013_day_23_data.csv,1,600,,Button-Switch at home,,,,,,,,,,,,,k
13,23,160,B,77.04526772287085,52.52484487560085,3.8522633861435422,0.8250583339606554,B,347.6246000500396,Correct,sub_013_day_23_data.csv,1,600,,Button-Switch at home,,,,,,,,,,,,,d
13,23,161,B,51.90152302122576,24.58152179580594,2.595076151061288,0.3861256414388066,B,435.05889998050407,Correct,sub_013_day_23_data.csv,1,600,,Button-Switch at home,,,,,,,,,,,,,d
13,23,162,B,41.7658375328206,23.34920684750393,2.08829187664103,0.3667684834963342,B,423.1433999957517,Correct,sub_013_day_23_data.csv,1,600,,Button-Switch at home,,,,,,,,,,,,,d
13,23,163,B,63.38488197728159,43.83028554658957,3.1692440988640795,0.6884845153895435,B,383.5341000230983,Correct,sub_013_day_23_data.csv,1,600,,Button-Switch at home,,,,,,,,,,,,,d
13,23,164,A,34.870499434834514,46.97605205343921,1.7435249717417258,0.7378981001286817,B,430.5088999681175,Incorrect,sub_013_day_23_data.csv,0,600,,Button-Switch at home,,,,,,,,,,,,,d
13,23,165,A,47.63977697750197,68.70222577686862,2.3819888488750984,1.0791720389293888,A,567.4481999594718,Correct,sub_013_day_23_data.csv,1,600,,Button-Switch at home,,,,,,,,,,,,,k
13,23,166,A,42.82369862599457,65.91310142523143,2.141184931299728,1.03536057606413,A,338.4347000392154,Correct,sub_013_day_23_data.csv,1,600,,Button-Switch at home,,,,,,,,,,,,,k
13,23,167,B,53.201978413767335,39.95034146511901,2.660098920688367,0.6275384962761079,B,341.67340002022684,Correct,sub_013_day_23_data.csv,1,600,,Button-Switch at home,,,,,,,,,,,,,d
13,23,168,A,53.94419072611458,72.54076848072619,2.6972095363057287,1.1394677267240372,A,437.3617999954149,Correct,sub_013_day_23_data.csv,1,600,,Button-Switch at home,,,,,,,,,,,,,k
13,23,169,B,81.16558732611556,62.01963516723678,4.0582793663057775,0.9742021510985512,B,541.563100006897,Correct,sub_013_day_23_data.csv,1,600,,Button-Switch at home,,,,,,,,,,,,,d
13,23,170,A,59.22727463810419,85.25503472974667,2.9613637319052093,1.3391829539425737,A,694.6682000416331,Correct,sub_013_day_23_data.csv,1,600,,Button-Switch at home,,,,,,,,,,,,,k
13,23,171,B,64.20552225681257,32.97493025909948,3.2102761128406287,0.5179689932731134,B,849.6452999534085,Correct,sub_013_day_23_data.csv,1,600,,Button-Switch at home,,,,,,,,,,,,,d
13,23,172,B,78.84579956492371,55.33754514632962,3.9422899782461855,0.8692401264970133,B,410.76479997718707,Correct,sub_013_day_23_data.csv,1,600,,Button-Switch at home,,,,,,,,,,,,,d
13,23,173,A,57.06316013695215,67.91654216176663,2.8531580068476075,1.0668305495631374,A,442.1560000046156,Correct,sub_013_day_23_data.csv,1,600,,Button-Switch at home,,,,,,,,,,,,,k
13,23,174,B,51.454228260305925,28.33428278517427,2.572711413015296,0.4450738732131962,B,555.0718999584205,Correct,sub_013_day_23_data.csv,1,600,,Button-Switch at home,,,,,,,,,,,,,d
13,23,175,A,19.26501456856341,39.13435948103078,0.9632507284281704,0.6147210812427418,B,449.3654999532737,Incorrect,sub_013_day_23_data.csv,0,600,,Button-Switch at home,,,,,,,,,,,,,d
13,23,176,A,57.86210419081087,84.125724544083,2.893105209540544,1.3214437910280483,A,1166.566900035832,Correct,sub_013_day_23_data.csv,1,600,,Button-Switch at home,,,,,,,,,,,,,k
13,23,177,A,14.79045410010313,30.486461002979187,0.7395227050051565,0.4788802096045556,A,555.7084999745712,Correct,sub_013_day_23_data.csv,1,600,,Button-Switch at home,,,,,,,,,,,,,k
13,23,178,B,38.879764531895944,28.10841101757326,1.9439882265947972,0.4415258877844528,B,1562.656399968546,Correct,sub_013_day_23_data.csv,1,600,,Button-Switch at home,,,,,,,,,,,,,d
13,23,179,B,79.42903730685622,49.739739671857144,3.971451865342811,0.781310003722876,B,799.6536999708042,Correct,sub_013_day_23_data.csv,1,600,,Button-Switch at home,,,,,,,,,,,,,d
13,23,180,A,40.560501647876514,57.27601103467293,2.028025082393826,0.899689477467282,A,1121.964999998454,Correct,sub_013_day_23_data.csv,1,600,,Button-Switch at home,,,,,,,,,,,,,k
13,23,181,B,77.78630293083395,49.11256878551515,3.8893151465416977,0.771458426477489,B,557.2835999773815,Correct,sub_013_day_23_data.csv,1,600,,Button-Switch at home,,,,,,,,,,,,,d
13,23,182,A,44.17602066866099,51.22077222802608,2.20880103343305,0.8045740087138141,A,1741.4172999560833,Correct,sub_013_day_23_data.csv,1,600,,Button-Switch at home,,,,,,,,,,,,,k
13,23,183,A,20.841868850474587,52.01076711675553,1.0420934425237294,0.816983219407844,A,654.1538999881595,Correct,sub_013_day_23_data.csv,1,600,,Button-Switch at home,,,,,,,,,,,,,k
13,23,184,B,75.13056965988864,55.784452350725346,3.756528482994432,0.8762601284478431,B,569.8902999865822,Correct,sub_013_day_23_data.csv,1,600,,Button-Switch at home,,,,,,,,,,,,,d
13,23,185,B,77.19836519927566,50.20263591752455,3.859918259963783,0.788581160946691,B,490.04609999246895,Correct,sub_013_day_23_data.csv,1,600,,Button-Switch at home,,,,,,,,,,,,,d
13,23,186,A,47.2520109867543,72.69958934567785,2.362600549337715,1.1419624790368816,A,584.0983999660239,Correct,sub_013_day_23_data.csv,1,600,,Button-Switch at home,,,,,,,,,,,,,k
13,23,187,A,56.1717213101631,73.28458710782391,2.8085860655081554,1.1511516023965045,A,469.0324999974109,Correct,sub_013_day_23_data.csv,1,600,,Button-Switch at home,,,,,,,,,,,,,k
13,23,188,B,50.45850928938219,40.1409823015382,2.5229254644691097,0.6305330755319516,B,472.90310001699254,Correct,sub_013_day_23_data.csv,1,600,,Button-Switch at home,,,,,,,,,,,,,d
13,23,189,B,74.42950953446145,44.620828180558405,3.721475476723072,0.7009023300456735,A,702.4830000009388,Incorrect,sub_013_day_23_data.csv,0,600,,Button-Switch at home,,,,,,,,,,,,,k
13,23,190,B,52.59330093453501,44.06181822263039,2.6296650467267506,0.6921214221601225,B,848.8375999731943,Correct,sub_013_day_23_data.csv,1,600,,Button-Switch at home,,,,,,,,,,,,,d
13,23,191,B,58.37526604797634,40.3678484551323,2.918763302398817,0.6340966807393484,B,688.4206999675371,Correct,sub_013_day_23_data.csv,1,600,,Button-Switch at home,,,,,,,,,,,,,d
13,23,192,B,46.1695620588228,20.730841492731383,2.30847810294114,0.3256392966814969,B,630.0336999702267,Correct,sub_013_day_23_data.csv,1,600,,Button-Switch at home,,,,,,,,,,,,,d
13,23,193,A,24.797327436743178,42.362485286503755,1.2398663718371588,0.6654283628194294,A,663.7403999920934,Correct,sub_013_day_23_data.csv,1,600,,Button-Switch at home,,,,,,,,,,,,,k
13,23,194,A,29.83254078974564,45.229216681007,1.491627039487282,0.7104588742633626,A,391.6625999845565,Correct,sub_013_day_23_data.csv,1,600,,Button-Switch at home,,,,,,,,,,,,,k
13,23,195,B,53.73965637752703,42.6060237442483,2.686982818876351,0.6692538559680138,B,453.5353000392206,Correct,sub_013_day_23_data.csv,1,600,,Button-Switch at home,,,,,,,,,,,,,d
13,23,196,B,46.65038000792525,26.251934786840017,2.3325190003962626,0.4123644273442746,B,559.1461000149138,Correct,sub_013_day_23_data.csv,1,600,,Button-Switch at home,,,,,,,,,,,,,d
13,23,197,B,79.17931384241008,61.708273369691724,3.958965692120504,0.969311291419671,B,373.5428999643773,Correct,sub_013_day_23_data.csv,1,600,,Button-Switch at home,,,,,,,,,,,,,d
13,23,198,B,41.74812659246824,15.476558011440364,2.087406329623412,0.2431052047579865,B,662.0342999813147,Correct,sub_013_day_23_data.csv,1,600,,Button-Switch at home,,,,,,,,,,,,,d
13,23,199,A,14.689589517742178,40.307848234061936,0.7344794758871089,0.6331541994707065,B,522.343999997247,Incorrect,sub_013_day_23_data.csv,0,600,,Button-Switch at home,,,,,,,,,,,,,d
13,23,200,A,31.530663045915105,64.40175687649287,1.5765331522957553,1.0116204314073298,A,612.1349000022747,Correct,sub_013_day_23_data.csv,1,600,,Button-Switch at home,,,,,,,,,,,,,k
13,23,201,B,54.610188967627394,34.753118191306854,2.7305094483813694,0.5459007039957371,B,573.2017999980599,Correct,sub_013_day_23_data.csv,1,600,,Button-Switch at home,,,,,,,,,,,,,d
13,23,202,A,31.951462672801966,55.14426879210631,1.5975731336400982,0.8662041486243104,A,399.03179998509586,Correct,sub_013_day_23_data.csv,1,600,,Button-Switch at home,,,,,,,,,,,,,k
13,23,203,B,56.62552126803733,41.16317684465139,2.8312760634018668,0.6465896698678715,B,594.1248000017367,Correct,sub_013_day_23_data.csv,1,600,,Button-Switch at home,,,,,,,,,,,,,d
13,23,204,B,45.29718615003309,38.10968711963415,2.2648593075016548,0.5986255654282411,A,432.53439996624365,Incorrect,sub_013_day_23_data.csv,0,600,,Button-Switch at home,,,,,,,,,,,,,k
13,23,205,B,67.5531871428456,41.12201992695996,3.37765935714228,0.6459431785165525,B,900.4867000039667,Correct,sub_013_day_23_data.csv,1,600,,Button-Switch at home,,,,,,,,,,,,,d
13,23,206,B,37.65782341026738,25.50474437761847,1.882891170513369,0.4006275878420588,B,479.9324999912642,Correct,sub_013_day_23_data.csv,1,600,,Button-Switch at home,,,,,,,,,,,,,d
13,23,207,A,28.570713000617992,55.13583756758599,1.4285356500308994,0.8660717112592413,A,423.4408999909647,Correct,sub_013_day_23_data.csv,1,600,,Button-Switch at home,,,,,,,,,,,,,k
13,23,208,B,60.8113843090805,50.22109124067907,3.040569215454026,0.7888710564849005,B,788.3675000048243,Correct,sub_013_day_23_data.csv,1,600,,Button-Switch at home,,,,,,,,,,,,,d
13,23,209,B,77.48771103712753,54.39025724997934,3.874385551856376,0.8543601630169704,B,483.1037000403739,Correct,sub_013_day_23_data.csv,1,600,,Button-Switch at home,,,,,,,,,,,,,d
13,23,210,B,31.151491563235744,14.614987678388282,1.5575745781617871,0.2295716896136498,B,601.1804000008851,Correct,sub_013_day_23_data.csv,1,600,,Button-Switch at home,,,,,,,,,,,,,d
13,23,211,B,74.58727536034696,50.16877658300928,3.729363768017348,0.788049299763848,B,596.3873000000603,Correct,sub_013_day_23_data.csv,1,600,,Button-Switch at home,,,,,,,,,,,,,d
13,23,212,A,60.41615523639065,81.52864437925898,3.0208077618195324,1.2806489511950738,A,444.9336000252515,Correct,sub_013_day_23_data.csv,1,600,,Button-Switch at home,,,,,,,,,,,,,k
13,23,213,B,71.36129159184253,45.55659558451467,3.5680645795921264,0.7156013300543624,A,497.6718000252731,Incorrect,sub_013_day_23_data.csv,0,600,,Button-Switch at home,,,,,,,,,,,,,k
13,23,214,B,35.69559557943853,18.55399678001671,1.7847797789719266,0.2914454998941459,B,1214.107099978719,Correct,sub_013_day_23_data.csv,1,600,,Button-Switch at home,,,,,,,,,,,,,d
13,23,215,A,24.475398473659222,37.934323829817075,1.2237699236829611,0.5958709653132478,A,456.4481999841518,Correct,sub_013_day_23_data.csv,1,600,,Button-Switch at home,,,,,,,,,,,,,k
13,23,216,A,52.6896884967943,68.93073153343275,2.6344844248397146,1.082761398960013,A,510.8253000071272,Correct,sub_013_day_23_data.csv,1,600,,Button-Switch at home,,,,,,,,,,,,,k
13,23,217,B,42.63037852987745,17.90715355820208,2.1315189264938725,0.2812849103257598,B,415.3698000009172,Correct,sub_013_day_23_data.csv,1,600,,Button-Switch at home,,,,,,,,,,,,,d
13,23,218,A,49.43806342375185,67.80258933494129,2.4719031711875927,1.0650405827450862,A,481.3874999526888,Correct,sub_013_day_23_data.csv,1,600,,Button-Switch at home,,,,,,,,,,,,,k
13,23,219,A,43.34962478287105,58.66213211408336,2.1674812391435525,0.9214626164675908,A,389.5994999911636,Correct,sub_013_day_23_data.csv,1,600,,Button-Switch at home,,,,,,,,,,,,,k
13,23,220,A,39.73878727073629,61.73094600043943,1.9869393635368144,0.9696674322706436,A,479.3051999877207,Correct,sub_013_day_23_data.csv,1,600,,Button-Switch at home,,,,,,,,,,,,,k
13,23,221,B,68.4230628656593,58.003539452060025,3.421153143282965,0.9111174671239876,A,452.52310001524165,Incorrect,sub_013_day_23_data.csv,0,600,,Button-Switch at home,,,,,,,,,,,,,k
13,23,222,A,35.140810434987515,54.762417008385725,1.7570405217493756,0.8602060348318268,A,451.8946000025608,Correct,sub_013_day_23_data.csv,1,600,,Button-Switch at home,,,,,,,,,,,,,k
13,23,223,B,48.937938537710195,41.5394363656903,2.4468969268855094,0.6524999406035666,B,642.8018999868073,Correct,sub_013_day_23_data.csv,1,600,,Button-Switch at home,,,,,,,,,,,,,d
13,23,224,B,46.13214664493303,21.657033820550815,2.306607332246651,0.3401878917459406,B,506.82319997577,Correct,sub_013_day_23_data.csv,1,600,,Button-Switch at home,,,,,,,,,,,,,d
13,23,225,B,62.11023339055893,38.57230946776213,3.1055116695279468,0.6058924202795677,B,394.5743999793194,Correct,sub_013_day_23_data.csv,1,600,,Button-Switch at home,,,,,,,,,,,,,d
13,23,226,B,36.46685305361562,21.6604803613561,1.8233426526807812,0.3402420298823115,B,507.5266999774613,Correct,sub_013_day_23_data.csv,1,600,,Button-Switch at home,,,,,,,,,,,,,d
13,23,227,B,50.85618159759133,19.782014395256116,2.5428090798795666,0.3107351554867207,B,410.430499992799,Correct,sub_013_day_23_data.csv,1,600,,Button-Switch at home,,,,,,,,,,,,,d
13,23,228,A,44.178346529812174,64.59519728643865,2.208917326490609,1.014658986261295,A,495.9618000430055,Correct,sub_013_day_23_data.csv,1,600,,Button-Switch at home,,,,,,,,,,,,,k
13,23,229,A,40.78081170575149,50.13574258073779,2.0390405852875744,0.787530402869574,A,428.22780000278726,Correct,sub_013_day_23_data.csv,1,600,,Button-Switch at home,,,,,,,,,,,,,k
13,23,230,B,68.04408570625641,43.6052115844018,3.4022042853128203,0.6849490618589262,A,379.1605000151322,Incorrect,sub_013_day_23_data.csv,0,600,,Button-Switch at home,,,,,,,,,,,,,k
13,23,231,B,84.36370877119269,59.06605012541381,4.218185438559635,0.9278073457528324,B,674.0696000051685,Correct,sub_013_day_23_data.csv,1,600,,Button-Switch at home,,,,,,,,,,,,,d
13,23,232,A,52.16009485105485,64.44076563094094,2.6080047425527426,1.0122331794893284,A,479.6061999513768,Correct,sub_013_day_23_data.csv,1,600,,Button-Switch at home,,,,,,,,,,,,,k
13,23,233,A,45.62534936607756,73.69972581400884,2.281267468303878,1.1576725859443613,A,376.19829998584464,Correct,sub_013_day_23_data.csv,1,600,,Button-Switch at home,,,,,,,,,,,,,k
13,23,234,A,30.33615227304425,42.3754107702466,1.5168076136522126,0.6656313958432827,A,408.743100007996,Correct,sub_013_day_23_data.csv,1,600,,Button-Switch at home,,,,,,,,,,,,,k
13,23,235,A,32.42004306113423,52.00779973188333,1.6210021530567116,0.8169366078352692,A,422.597200027667,Correct,sub_013_day_23_data.csv,1,600,,Button-Switch at home,,,,,,,,,,,,,k
13,23,236,B,34.19514564335598,10.509104928484994,1.7097572821677989,0.1650766341956637,B,403.1613999977708,Correct,sub_013_day_23_data.csv,1,600,,Button-Switch at home,,,,,,,,,,,,,d
13,23,237,A,30.4188639245559,46.99692520418354,1.5209431962277948,0.73822597481386,A,361.728599993512,Correct,sub_013_day_23_data.csv,1,600,,Button-Switch at home,,,,,,,,,,,,,k
13,23,238,B,50.39069843541397,39.05671481404261,2.5195349217706986,0.6135014416657394,B,537.5408999971114,Correct,sub_013_day_23_data.csv,1,600,,Button-Switch at home,,,,,,,,,,,,,d
13,23,239,A,44.748720786883105,56.999854056757165,2.2374360393441552,0.8953516138019934,A,373.4213000279851,Correct,sub_013_day_23_data.csv,1,600,,Button-Switch at home,,,,,,,,,,,,,k
13,23,240,A,38.90422434510499,62.45633696693019,1.9452112172552496,0.9810618469271826,B,385.71340002818033,Incorrect,sub_013_day_23_data.csv,0,600,,Button-Switch at home,,,,,,,,,,,,,d
13,23,241,A,42.06708452825904,64.15442895864253,2.103354226412952,1.0077354135585983,A,361.7456000065431,Correct,sub_013_day_23_data.csv,1,600,,Button-Switch at home,,,,,,,,,,,,,k
13,23,242,A,24.32525024766086,38.7614302339622,1.216262512383043,0.6088631223282447,A,367.87270003696904,Correct,sub_013_day_23_data.csv,1,600,,Button-Switch at home,,,,,,,,,,,,,k
13,23,243,A,27.838696222477203,49.09206135834841,1.3919348111238603,0.7711362965648337,A,397.469200019259,Correct,sub_013_day_23_data.csv,1,600,,Button-Switch at home,,,,,,,,,,,,,k
13,23,244,A,27.885123482013107,60.06152147393675,1.3942561741006554,0.9434441731297266,A,370.38010003743693,Correct,sub_013_day_23_data.csv,1,600,,Button-Switch at home,,,,,,,,,,,,,k
13,23,245,A,25.01433829116454,52.74420340565789,1.250716914558227,0.8285040096933031,A,358.70230000000447,Correct,sub_013_day_23_data.csv,1,600,,Button-Switch at home,,,,,,,,,,,,,k
13,23,246,B,47.64122812527428,33.11395753521455,2.382061406263714,0.520152828619572,B,414.2616000026465,Correct,sub_013_day_23_data.csv,1,600,,Button-Switch at home,,,,,,,,,,,,,d
13,23,247,A,18.941643962591098,46.576170027724245,0.947082198129555,0.7316167679572382,A,352.88540000328794,Correct,sub_013_day_23_data.csv,1,600,,Button-Switch at home,,,,,,,,,,,,,k
13,23,248,B,57.91795575402648,34.911825152367896,2.895897787701324,0.5483936671104517,B,443.7332999659702,Correct,sub_013_day_23_data.csv,1,600,,Button-Switch at home,,,,,,,,,,,,,d
13,23,249,A,53.258620170054854,60.2582858373966,2.662931008502743,0.9465349405233952,A,397.1167000127025,Correct,sub_013_day_23_data.csv,1,600,,Button-Switch at home,,,,,,,,,,,,,k
13,23,250,B,70.04857524013612,54.5631247374394,3.502428762006806,0.8570755591602158,A,464.501999958884,Incorrect,sub_013_day_23_data.csv,0,600,,Button-Switch at home,,,,,,,,,,,,,k
13,23,251,A,60.4389477364666,86.04214181172541,3.02194738682333,1.3515468030742388,A,331.70999999856576,Correct,sub_013_day_23_data.csv,1,600,,Button-Switch at home,,,,,,,,,,,,,k
13,23,252,B,63.8143972767058,46.61463948289659,3.19071986383529,0.7322210447460233,B,569.7363999788649,Correct,sub_013_day_23_data.csv,1,600,,Button-Switch at home,,,,,,,,,,,,,d
13,23,253,B,70.4192069687252,41.75157167428378,3.5209603484362604,0.655832154238788,A,624.5952000026591,Incorrect,sub_013_day_23_data.csv,0,600,,Button-Switch at home,,,,,,,,,,,,,k
13,23,254,B,31.591352730181928,17.84616796382804,1.5795676365090965,0.2803269508494584,B,451.80129999062046,Correct,sub_013_day_23_data.csv,1,600,,Button-Switch at home,,,,,,,,,,,,,d
13,23,255,B,73.22768205678831,48.78951268649457,3.661384102839415,0.7663838731405866,B,706.8690999876708,Correct,sub_013_day_23_data.csv,1,600,,Button-Switch at home,,,,,,,,,,,,,d
13,23,256,A,65.09877022567133,78.7631484145663,3.2549385112835667,1.2372086421640205,A,457.18580001266673,Correct,sub_013_day_23_data.csv,1,600,,Button-Switch at home,,,,,,,,,,,,,k
13,23,257,A,52.09585008706149,61.964160846597565,2.604792504353074,0.973330762507636,A,468.7012000358663,Correct,sub_013_day_23_data.csv,1,600,,Button-Switch at home,,,,,,,,,,,,,k
13,23,258,A,35.50799795443915,66.74321262985751,1.7753998977219572,1.0483999323747093,A,380.2253000321798,Correct,sub_013_day_23_data.csv,1,600,,Button-Switch at home,,,,,,,,,,,,,k
13,23,259,A,63.150919900174344,78.17941827676356,3.1575459950087175,1.22803943060102,A,331.25719998497516,Correct,sub_013_day_23_data.csv,1,600,,Button-Switch at home,,,,,,,,,,,,,k
13,23,260,B,51.83621904243706,39.83309420745074,2.591810952121853,0.625696780659387,B,679.1661999886855,Correct,sub_013_day_23_data.csv,1,600,,Button-Switch at home,,,,,,,,,,,,,d
13,23,261,B,79.98151653881877,65.58184437796473,3.9990758269409383,1.0301572025334154,A,449.0671000094153,Incorrect,sub_013_day_23_data.csv,0,600,,Button-Switch at home,,,,,,,,,,,,,k
13,23,262,B,53.66501890681651,34.59710186558143,2.6832509453408253,0.5434500052820417,B,1250.3983000060543,Correct,sub_013_day_23_data.csv,1,600,,Button-Switch at home,,,,,,,,,,,,,d
13,23,263,A,26.814212166188245,54.65919940294102,1.3407106083094122,0.8585846964768955,A,525.5180000094697,Correct,sub_013_day_23_data.csv,1,600,,Button-Switch at home,,,,,,,,,,,,,k
13,23,264,A,34.392569265438624,57.86933368191604,1.7196284632719312,0.9090093678162188,A,484.5020999782719,Correct,sub_013_day_23_data.csv,1,600,,Button-Switch at home,,,,,,,,,,,,,k
13,23,265,B,72.2616864308431,57.38523263684292,3.613084321542155,0.9014051263822348,B,487.01780004194006,Correct,sub_013_day_23_data.csv,1,600,,Button-Switch at home,,,,,,,,,,,,,d
13,23,266,A,35.52036815704385,64.21615304825661,1.7760184078521923,1.008704973291004,A,409.2731000273489,Correct,sub_013_day_23_data.csv,1,600,,Button-Switch at home,,,,,,,,,,,,,k
13,23,267,B,61.781380417965146,46.57335251524661,3.089069020898257,0.7315725105747324,B,514.6636000135913,Correct,sub_013_day_23_data.csv,1,600,,Button-Switch at home,,,,,,,,,,,,,d
13,23,268,B,75.68456411178249,62.95735132591335,3.784228205589125,0.9889317620748052,A,546.9631999731064,Incorrect,sub_013_day_23_data.csv,0,600,,Button-Switch at home,,,,,,,,,,,,,k
13,23,269,A,38.99403118803496,61.03008948321852,1.949701559401748,0.958658403842035,A,416.38270003022626,Correct,sub_013_day_23_data.csv,1,600,,Button-Switch at home,,,,,,,,,,,,,k
13,23,270,B,56.87994520277475,30.667510737001656,2.8439972601387375,0.4817241321762526,B,437.812699994538,Correct,sub_013_day_23_data.csv,1,600,,Button-Switch at home,,,,,,,,,,,,,d
13,23,271,A,16.425845842560875,43.79010060430607,0.8212922921280438,0.6878532917922295,A,706.2377999536693,Correct,sub_013_day_23_data.csv,1,600,,Button-Switch at home,,,,,,,,,,,,,k
13,23,272,B,68.04863945753948,47.9560098226092,3.402431972876974,0.7532912407709449,B,402.1562999696471,Correct,sub_013_day_23_data.csv,1,600,,Button-Switch at home,,,,,,,,,,,,,d
13,23,273,A,17.02883342062036,42.86469532850333,0.851441671031018,0.6733170597119539,A,444.49470000108704,Correct,sub_013_day_23_data.csv,1,600,,Button-Switch at home,,,,,,,,,,,,,k
13,23,274,B,53.27579621270305,38.07847332554817,2.6637898106351527,0.5981352602972851,B,358.50989999016747,Correct,sub_013_day_23_data.csv,1,600,,Button-Switch at home,,,,,,,,,,,,,d
13,23,275,B,52.62101415963158,21.697836132019,2.631050707981579,0.3408288129557303,B,1461.0923000145704,Correct,sub_013_day_23_data.csv,1,600,,Button-Switch at home,,,,,,,,,,,,,d
13,23,276,A,31.72389677154412,40.59284673260845,1.5861948385772058,0.6376309454172957,A,455.8009000029415,Correct,sub_013_day_23_data.csv,1,600,,Button-Switch at home,,,,,,,,,,,,,k
13,23,277,B,62.52340910160315,49.651814262320755,3.1261704550801572,0.7799288746195591,B,482.0712999789976,Correct,sub_013_day_23_data.csv,1,600,,Button-Switch at home,,,,,,,,,,,,,d
13,23,278,B,59.53122502562244,27.035564980048413,2.976561251281122,0.4246736616348478,B,406.27600002335384,Correct,sub_013_day_23_data.csv,1,600,,Button-Switch at home,,,,,,,,,,,,,d
13,23,279,A,31.157636088598093,58.18010097437616,1.5578818044299048,0.9138908890310624,A,421.3662999682128,Correct,sub_013_day_23_data.csv,1,600,,Button-Switch at home,,,,,,,,,,,,,k
13,23,280,A,28.07238885838616,57.30940667059099,1.403619442919308,0.9002140548895926,A,396.24029997503385,Correct,sub_013_day_23_data.csv,1,600,,Button-Switch at home,,,,,,,,,,,,,k
13,23,281,A,11.77468546876215,34.887615806557015,0.5887342734381076,0.5480133875957134,B,449.7436999808997,Incorrect,sub_013_day_23_data.csv,0,600,,Button-Switch at home,,,,,,,,,,,,,d
13,23,282,B,80.29528670558165,51.52475808549955,4.014764335279082,0.8093490073969833,B,1035.8972999965772,Correct,sub_013_day_23_data.csv,1,600,,Button-Switch at home,,,,,,,,,,,,,d
13,23,283,A,56.70756320513575,69.84354738349496,2.8353781602567873,1.097099876803192,A,388.42299999669194,Correct,sub_013_day_23_data.csv,1,600,,Button-Switch at home,,,,,,,,,,,,,k
13,23,284,A,41.15272391152917,70.42957635315368,2.0576361955764586,1.1063051983325451,A,366.1544000497088,Correct,sub_013_day_23_data.csv,1,600,,Button-Switch at home,,,,,,,,,,,,,k
13,23,285,A,53.26334043278558,65.2864490171935,2.6631670216392793,1.0255171430568986,A,415.54429999087006,Correct,sub_013_day_23_data.csv,1,600,,Button-Switch at home,,,,,,,,,,,,,k
13,23,286,A,31.63675247737016,52.57188495037944,1.581837623868508,0.8257972377273993,A,378.4340000129305,Correct,sub_013_day_23_data.csv,1,600,,Button-Switch at home,,,,,,,,,,,,,k
13,23,287,A,45.84270377153532,53.88978539409624,2.2921351885767662,0.8464987694881164,A,373.8549000117928,Correct,sub_013_day_23_data.csv,1,600,,Button-Switch at home,,,,,,,,,,,,,k
13,23,288,B,61.99109944902923,47.26176327837116,3.0995549724514615,0.7423860415551535,B,424.7360000154003,Correct,sub_013_day_23_data.csv,1,600,,Button-Switch at home,,,,,,,,,,,,,d
13,23,289,B,74.90429209059445,60.01161994780809,3.745214604529723,0.9426603217902828,A,435.9155999845825,Incorrect,sub_013_day_23_data.csv,0,600,,Button-Switch at home,,,,,,,,,,,,,k
13,23,290,A,56.228498339108334,66.17176856901348,2.8114249169554166,1.0394237100572838,B,945.083099999465,Incorrect,sub_013_day_23_data.csv,0,600,,Button-Switch at home,,,,,,,,,,,,,d
13,23,291,B,74.59152337465223,46.59146201214008,3.729576168732612,0.7318569738867361,B,634.7208000370301,Correct,sub_013_day_23_data.csv,1,600,,Button-Switch at home,,,,,,,,,,,,,d
13,23,292,B,60.16841371061064,37.323555602250146,3.008420685530532,0.586277040429396,B,471.21660003904253,Correct,sub_013_day_23_data.csv,1,600,,Button-Switch at home,,,,,,,,,,,,,d
13,23,293,A,28.808679383608855,49.144121301601885,1.4404339691804426,0.7719540522411907,A,368.94309998024255,Correct,sub_013_day_23_data.csv,1,600,,Button-Switch at home,,,,,,,,,,,,,k
13,23,294,B,47.93281258913997,20.519778715499687,2.396640629456998,0.32232393032951,B,522.4720000405796,Correct,sub_013_day_23_data.csv,1,600,,Button-Switch at home,,,,,,,,,,,,,d
13,23,295,B,82.78106777148331,54.15119107926864,4.139053388574165,0.8506049203888376,B,723.3003000146709,Correct,sub_013_day_23_data.csv,1,600,,Button-Switch at home,,,,,,,,,,,,,d
13,23,296,B,45.03954869791355,26.625321037351966,2.251977434895678,0.4182295648520736,A,449.35910002095625,Incorrect,sub_013_day_23_data.csv,0,600,,Button-Switch at home,,,,,,,,,,,,,k
13,23,297,A,19.99119941723912,32.93376025292871,0.999559970861956,0.5173222963284417,A,448.88340000761673,Correct,sub_013_day_23_data.csv,1,600,,Button-Switch at home,,,,,,,,,,,,,k
13,23,298,B,63.598747814234166,55.948405752945874,3.179937390711708,0.8788355024675784,B,380.84879994858056,Correct,sub_013_day_23_data.csv,1,600,,Button-Switch at home,,,,,,,,,,,,,d
13,23,299,A,43.27592475476578,68.3129845373362,2.163796237738289,1.0730578518364429,B,380.73650002479553,Incorrect,sub_013_day_23_data.csv,0,600,,Button-Switch at home,,,,,,,,,,,,,d
13,23,300,A,21.721578468084175,52.35638572603114,1.0860789234042088,0.8224121838270648,A,558.7840999942273,Correct,sub_013_day_23_data.csv,1,600,,Button-Switch at home,,,,,,,,,,,,,k
13,23,301,A,11.111187457998426,32.358726375846516,0.5555593728999213,0.5082896853094085,B,414.9458999745548,Incorrect,sub_013_day_23_data.csv,0,600,,Button-Switch at home,,,,,,,,,,,,,d
13,23,302,A,29.496754713611473,51.302749996653986,1.4748377356805735,0.8058617124922097,A,1681.3665999798104,Correct,sub_013_day_23_data.csv,1,600,,Button-Switch at home,,,,,,,,,,,,,k
13,23,303,B,77.39657502786031,65.43144497603606,3.8698287513930154,1.0277947342523983,A,568.5131999780424,Incorrect,sub_013_day_23_data.csv,0,600,,Button-Switch at home,,,,,,,,,,,,,k
13,23,304,B,59.66002892621665,35.288905840010344,2.9830014463108325,0.5543168367009922,B,797.9401999618858,Correct,sub_013_day_23_data.csv,1,600,,Button-Switch at home,,,,,,,,,,,,,d
13,23,305,B,44.95718390079163,18.98741269059274,2.2478591950395814,0.2982535810972188,A,639.4646000117064,Incorrect,sub_013_day_23_data.csv,0,600,,Button-Switch at home,,,,,,,,,,,,,k
13,23,306,B,74.66895501443179,49.357667201068864,3.7334477507215897,0.775308423386039,B,454.1192000033334,Correct,sub_013_day_23_data.csv,1,600,,Button-Switch at home,,,,,,,,,,,,,d
13,23,307,A,29.643583343987217,44.02560287807224,1.482179167199361,0.691552552858067,A,566.1414999631234,Correct,sub_013_day_23_data.csv,1,600,,Button-Switch at home,,,,,,,,,,,,,k
13,23,308,B,88.19518702986385,61.96262969227016,4.409759351493192,0.9733067111917036,B,593.9185000024736,Correct,sub_013_day_23_data.csv,1,600,,Button-Switch at home,,,,,,,,,,,,,d
13,23,309,B,68.88126841234458,55.294221963826345,3.444063420617229,0.8685596075376012,A,391.6133999591693,Incorrect,sub_013_day_23_data.csv,0,600,,Button-Switch at home,,,,,,,,,,,,,k
13,23,310,A,35.10329539592453,48.26705700085034,1.7551647697962267,0.7581771584213561,B,433.79139999160543,Incorrect,sub_013_day_23_data.csv,0,600,,Button-Switch at home,,,,,,,,,,,,,d
13,23,311,A,43.52969245726447,66.85610844017543,2.1764846228632235,1.0501732956162886,B,942.987099988386,Incorrect,sub_013_day_23_data.csv,0,600,,Button-Switch at home,,,,,,,,,,,,,d
13,23,312,B,59.96335254584829,27.40195211835738,2.998167627292414,0.4304288573452541,B,955.878400010988,Correct,sub_013_day_23_data.csv,1,600,,Button-Switch at home,,,,,,,,,,,,,d
13,23,313,B,47.92650687820898,32.725746766471836,2.396325343910449,0.5140548281239392,B,440.7736000139266,Correct,sub_013_day_23_data.csv,1,600,,Button-Switch at home,,,,,,,,,,,,,d
13,23,314,A,58.51235425696555,71.60452840775056,2.925617712848277,1.124761302047754,A,684.6114000072703,Correct,sub_013_day_23_data.csv,1,600,,Button-Switch at home,,,,,,,,,,,,,k
13,23,315,A,38.12305514195011,46.649023591543205,1.9061527570975056,0.7327611490616455,A,448.30410002032295,Correct,sub_013_day_23_data.csv,1,600,,Button-Switch at home,,,,,,,,,,,,,k
13,23,316,A,32.541192310987476,50.20034412013605,1.6270596155493735,0.7885451614774951,A,420.9827999584377,Correct,sub_013_day_23_data.csv,1,600,,Button-Switch at home,,,,,,,,,,,,,k
13,23,317,B,48.01876260538626,40.58945190550752,2.4009381302693127,0.6375776195978933,B,444.64249996235594,Correct,sub_013_day_23_data.csv,1,600,,Button-Switch at home,,,,,,,,,,,,,d
13,23,318,B,37.52338094714528,19.33839828273325,1.8761690473572643,0.3037668498861413,B,691.2102000205778,Correct,sub_013_day_23_data.csv,1,600,,Button-Switch at home,,,,,,,,,,,,,d
13,23,319,B,49.67671489210808,34.06656041525754,2.483835744605404,0.5351162796682297,A,413.6609000270255,Incorrect,sub_013_day_23_data.csv,0,600,,Button-Switch at home,,,,,,,,,,,,,k
13,23,320,A,43.09978928961535,68.62005777666657,2.1549894644807677,1.0778813470004145,A,442.4682999961078,Correct,sub_013_day_23_data.csv,1,600,,Button-Switch at home,,,,,,,,,,,,,k
13,23,321,A,50.56267731850921,74.21040619144748,2.52813386592546,1.1656943345548294,A,446.0742000374012,Correct,sub_013_day_23_data.csv,1,600,,Button-Switch at home,,,,,,,,,,,,,k
13,23,322,B,63.371520719110514,35.187769658051614,3.168576035955526,0.5527281932697239,B,460.656100010965,Correct,sub_013_day_23_data.csv,1,600,,Button-Switch at home,,,,,,,,,,,,,d
13,23,323,B,50.66299650271415,33.76777762434304,2.5331498251357076,0.5304230105634494,A,426.7318000202067,Incorrect,sub_013_day_23_data.csv,0,600,,Button-Switch at home,,,,,,,,,,,,,k
13,23,324,B,52.22227242596687,22.128996332479513,2.6111136212983435,0.3476014615471656,B,861.0211000195704,Correct,sub_013_day_23_data.csv,1,600,,Button-Switch at home,,,,,,,,,,,,,d
13,23,325,B,54.723995053684256,34.074545814758615,2.736199752684213,0.5352417140302725,B,379.5164000475779,Correct,sub_013_day_23_data.csv,1,600,,Button-Switch at home,,,,,,,,,,,,,d
13,23,326,A,21.208604177767143,50.38481969829484,1.0604302088883573,0.7914428970830468,A,442.85549997584894,Correct,sub_013_day_23_data.csv,1,600,,Button-Switch at home,,,,,,,,,,,,,k
13,23,327,A,52.985619325040446,71.03948710386925,2.649280966252022,1.1158856540015123,A,402.175700000953,Correct,sub_013_day_23_data.csv,1,600,,Button-Switch at home,,,,,,,,,,,,,k
13,23,328,A,45.57423257868202,63.84221829407333,2.278711628934101,1.0028312199076834,B,545.2423999668099,Incorrect,sub_013_day_23_data.csv,0,600,,Button-Switch at home,,,,,,,,,,,,,d
13,23,329,A,45.449572047642235,54.67270483391837,2.2724786023821117,0.8587968392906056,A,808.2990999682806,Correct,sub_013_day_23_data.csv,1,600,,Button-Switch at home,,,,,,,,,,,,,k
13,23,330,A,39.72387986887671,65.22286437551597,1.9861939934438353,1.0245183578410215,A,338.32260000053793,Correct,sub_013_day_23_data.csv,1,600,,Button-Switch at home,,,,,,,,,,,,,k
13,23,331,B,62.533582273659725,41.172315250402065,3.1266791136829863,0.6467332156097307,B,578.8363000028767,Correct,sub_013_day_23_data.csv,1,600,,Button-Switch at home,,,,,,,,,,,,,d
13,23,332,A,50.50465454262323,57.29440257440353,2.525232727131162,0.8999783710978112,A,354.72459997981787,Correct,sub_013_day_23_data.csv,1,600,,Button-Switch at home,,,,,,,,,,,,,k
13,23,333,B,68.51968160838214,36.127490524695965,3.425984080419107,0.5674892941250985,B,400.7774000056088,Correct,sub_013_day_23_data.csv,1,600,,Button-Switch at home,,,,,,,,,,,,,d
13,23,334,B,51.39091370826882,43.06966414928921,2.569545685413441,0.6765367024199332,A,439.32579999091104,Incorrect,sub_013_day_23_data.csv,0,600,,Button-Switch at home,,,,,,,,,,,,,k
13,23,335,B,86.1109822297018,65.19985339766066,4.30554911148509,1.0241569022461112,B,608.6732000112534,Correct,sub_013_day_23_data.csv,1,600,,Button-Switch at home,,,,,,,,,,,,,d
13,23,336,B,53.43814694297383,28.708715369087564,2.6719073471486916,0.4509554464876293,A,641.0351999802515,Incorrect,sub_013_day_23_data.csv,0,600,,Button-Switch at home,,,,,,,,,,,,,k
13,23,337,A,57.140825884333424,74.60184544593862,2.857041294216671,1.1718430479860098,A,686.3656000350602,Correct,sub_013_day_23_data.csv,1,600,,Button-Switch at home,,,,,,,,,,,,,k
13,23,338,B,60.77739056672031,52.568388341616384,3.038869528336015,0.8257423131253868,B,526.8336999579333,Correct,sub_013_day_23_data.csv,1,600,,Button-Switch at home,,,,,,,,,,,,,d
13,23,339,B,59.867500306722505,40.20522952034174,2.993375015336125,0.6315422684849855,B,431.86510005034506,Correct,sub_013_day_23_data.csv,1,600,,Button-Switch at home,,,,,,,,,,,,,d
13,23,340,B,68.33543354011474,44.21795655413416,3.416771677005737,0.6945740373361026,B,469.38739996403456,Correct,sub_013_day_23_data.csv,1,600,,Button-Switch at home,,,,,,,,,,,,,d
13,23,341,A,30.402796440146577,43.54227669438968,1.5201398220073288,0.6839604829183433,A,405.62400000635535,Correct,sub_013_day_23_data.csv,1,600,,Button-Switch at home,,,,,,,,,,,,,k
13,23,342,B,63.21993517113265,52.00494845951799,3.1609967585566325,0.8168918201536878,A,369.90519997198135,Incorrect,sub_013_day_23_data.csv,0,600,,Button-Switch at home,,,,,,,,,,,,,k
13,23,343,A,38.555426594420425,58.67531869466676,1.9277713297210213,0.9216697507910246,A,535.8839000109583,Correct,sub_013_day_23_data.csv,1,600,,Button-Switch at home,,,,,,,,,,,,,k
13,23,344,A,21.84109026874305,37.26694346828205,1.0920545134371524,0.5853877791085051,A,457.86039996892214,Correct,sub_013_day_23_data.csv,1,600,,Button-Switch at home,,,,,,,,,,,,,k
13,23,345,B,69.53778522997386,37.22563542480456,3.476889261498693,0.5847389138788898,B,485.0264000124298,Correct,sub_013_day_23_data.csv,1,600,,Button-Switch at home,,,,,,,,,,,,,d
13,23,346,B,83.96079997556201,54.81793671940171,4.198039998778101,0.8610781364131129,B,544.6974000078626,Correct,sub_013_day_23_data.csv,1,600,,Button-Switch at home,,,,,,,,,,,,,d
13,23,347,B,68.12075373884518,50.350724159397416,3.406037686942259,0.7909073256104451,B,323.6200999817811,Correct,sub_013_day_23_data.csv,1,600,,Button-Switch at home,,,,,,,,,,,,,d
13,23,348,A,57.35407767935271,81.03837538812553,2.8677038839676356,1.2729478238909353,A,637.9760000272654,Correct,sub_013_day_23_data.csv,1,600,,Button-Switch at home,,,,,,,,,,,,,k
13,23,349,A,57.015802669714056,70.01391063264683,2.850790133485703,1.099775936463078,A,588.5267000412568,Correct,sub_013_day_23_data.csv,1,600,,Button-Switch at home,,,,,,,,,,,,,k
13,23,350,B,67.65543799005154,46.257792774330454,3.3827718995025773,0.7266157097555778,A,572.7274999953806,Incorrect,sub_013_day_23_data.csv,0,600,,Button-Switch at home,,,,,,,,,,,,,k
13,23,351,B,75.9592483267791,45.99481671942066,3.7979624163389554,0.7224848915447046,B,507.0453000371344,Correct,sub_013_day_23_data.csv,1,600,,Button-Switch at home,,,,,,,,,,,,,d
13,23,352,A,53.99067120169974,82.77766038245836,2.699533560084987,1.3002684486944105,A,433.40350000653416,Correct,sub_013_day_23_data.csv,1,600,,Button-Switch at home,,,,,,,,,,,,,k
13,23,353,B,44.261226879244546,24.194688671077483,2.2130613439622273,0.380049280924746,A,407.0967999869026,Incorrect,sub_013_day_23_data.csv,0,600,,Button-Switch at home,,,,,,,,,,,,,k
13,23,354,A,33.94956721457339,50.3583015604077,1.6974783607286696,0.7910263511471812,A,510.9424000256695,Correct,sub_013_day_23_data.csv,1,600,,Button-Switch at home,,,,,,,,,,,,,k
13,23,355,A,46.7268352940606,60.69109211300645,2.3363417647030302,0.9533334456028124,A,391.7885000118986,Correct,sub_013_day_23_data.csv,1,600,,Button-Switch at home,,,,,,,,,,,,,k
13,23,356,A,24.311717563336593,35.11296160097142,1.2155858781668298,0.5515531110569616,B,393.59230000991374,Incorrect,sub_013_day_23_data.csv,0,600,,Button-Switch at home,,,,,,,,,,,,,d
13,23,357,A,10.509306376518122,33.598638275836066,0.5254653188259062,0.5277661758899371,B,528.7334999884479,Incorrect,sub_013_day_23_data.csv,0,600,,Button-Switch at home,,,,,,,,,,,,,d
13,23,358,A,32.3104372527555,60.05949951457016,1.6155218626377748,0.9434124122662668,A,695.8371999789961,Correct,sub_013_day_23_data.csv,1,600,,Button-Switch at home,,,,,,,,,,,,,k
13,23,359,A,16.79527359253322,39.05556912288312,0.839763679626661,0.6134834451910899,A,483.08179999003187,Correct,sub_013_day_23_data.csv,1,600,,Button-Switch at home,,,,,,,,,,,,,k
13,23,360,B,59.312080916899376,36.74159777183398,2.965604045844969,0.5771356682057237,A,620.6094999797642,Incorrect,sub_013_day_23_data.csv,0,600,,Button-Switch at home,,,,,,,,,,,,,k
13,23,361,A,35.25445169877438,62.79889436317954,1.762722584938719,0.9864427259246316,A,390.302799991332,Correct,sub_013_day_23_data.csv,1,600,,Button-Switch at home,,,,,,,,,,,,,k
13,23,362,B,44.63100212801216,29.689304989216534,2.231550106400608,0.4663585122215473,B,509.0040999930352,Correct,sub_013_day_23_data.csv,1,600,,Button-Switch at home,,,,,,,,,,,,,d
13,23,363,B,45.96063158871612,33.25858469718865,2.298031579435806,0.522424626767409,B,456.02149999467656,Correct,sub_013_day_23_data.csv,1,600,,Button-Switch at home,,,,,,,,,,,,,d
13,23,364,B,81.15661548090281,59.82938218276253,4.057830774045141,0.939797737670914,A,471.71890002209693,Incorrect,sub_013_day_23_data.csv,0,600,,Button-Switch at home,,,,,,,,,,,,,k
13,23,365,A,41.03662780152483,60.544206248520176,2.0518313900762415,0.951026167838881,A,451.0620000073686,Correct,sub_013_day_23_data.csv,1,600,,Button-Switch at home,,,,,,,,,,,,,k
13,23,366,B,78.65173761256402,58.87091144918021,3.932586880628201,0.924742114594399,B,488.3503000019118,Correct,sub_013_day_23_data.csv,1,600,,Button-Switch at home,,,,,,,,,,,,,d
13,23,367,B,60.69899932606982,39.78632753749148,3.0349499663034907,0.6249621715255026,A,380.6378999724984,Incorrect,sub_013_day_23_data.csv,0,600,,Button-Switch at home,,,,,,,,,,,,,k
13,23,368,A,36.419125090051395,56.17994338370687,1.82095625450257,0.88247248706672,A,1269.2872999468818,Correct,sub_013_day_23_data.csv,1,600,,Button-Switch at home,,,,,,,,,,,,,k
13,23,369,A,30.47539620383802,58.18095036546416,1.523769810191901,0.9139042312350728,A,376.60660000983626,Correct,sub_013_day_23_data.csv,1,600,,Button-Switch at home,,,,,,,,,,,,,k
13,23,370,A,11.00071386116899,35.7788373077807,0.5500356930584495,0.5620126622005412,B,527.2452999488451,Incorrect,sub_013_day_23_data.csv,0,600,,Button-Switch at home,,,,,,,,,,,,,d
13,23,371,A,20.951478729810344,33.75355690842969,1.0475739364905172,0.5301996320802386,A,1786.029700015206,Correct,sub_013_day_23_data.csv,1,600,,Button-Switch at home,,,,,,,,,,,,,k
13,23,372,A,56.750801305612235,65.53590263100409,2.837540065280612,1.0294355512596924,A,564.2337999888696,Correct,sub_013_day_23_data.csv,1,600,,Button-Switch at home,,,,,,,,,,,,,k
13,23,373,B,57.5356315500394,44.086220247937895,2.87678157750197,0.6925047282773164,B,526.3789999880828,Correct,sub_013_day_23_data.csv,1,600,,Button-Switch at home,,,,,,,,,,,,,d
13,23,374,B,54.21313204476392,24.64729836811149,2.7106566022381964,0.3871588574204738,A,432.0719999959693,Incorrect,sub_013_day_23_data.csv,0,600,,Button-Switch at home,,,,,,,,,,,,,k
13,23,375,A,54.22759782683008,76.41447254456844,2.711379891341504,1.200315727869776,A,474.4670999934897,Correct,sub_013_day_23_data.csv,1,600,,Button-Switch at home,,,,,,,,,,,,,k
13,23,376,A,51.38027113022604,64.48913033119408,2.569013556511302,1.01299289042437,A,415.02630000468343,Correct,sub_013_day_23_data.csv,1,600,,Button-Switch at home,,,,,,,,,,,,,k
13,23,377,A,56.977347715870906,66.88189834248216,2.848867385793546,1.0505784024544065,A,510.46959997620434,Correct,sub_013_day_23_data.csv,1,600,,Button-Switch at home,,,,,,,,,,,,,k
13,23,378,B,65.46946212860286,50.23309437720185,3.273473106430143,0.7890596013125005,A,447.74420000612736,Incorrect,sub_013_day_23_data.csv,0,600,,Button-Switch at home,,,,,,,,,,,,,k
13,23,379,A,59.15664055150605,71.85898478063581,2.9578320275753027,1.1287582934063312,B,407.1092000231147,Incorrect,sub_013_day_23_data.csv,0,600,,Button-Switch at home,,,,,,,,,,,,,d
13,23,380,B,52.6152498109846,42.32861338727481,2.63076249054923,0.6648963042705255,B,945.9374999860302,Correct,sub_013_day_23_data.csv,1,600,,Button-Switch at home,,,,,,,,,,,,,d
13,23,381,A,15.495041924005989,42.6260449967696,0.7747520962002994,0.6695683490671966,B,521.7917000409216,Incorrect,sub_013_day_23_data.csv,0,600,,Button-Switch at home,,,,,,,,,,,,,d
13,23,382,B,76.2548679600777,58.55379370544635,3.812743398003885,0.9197608407242128,A,607.0005999645218,Incorrect,sub_013_day_23_data.csv,0,600,,Button-Switch at home,,,,,,,,,,,,,k
13,23,383,A,14.542458678526888,41.86662099423191,0.7271229339263443,0.6576393447305359,A,416.8031999724917,Correct,sub_013_day_23_data.csv,1,600,,Button-Switch at home,,,,,,,,,,,,,k
13,23,384,A,63.721208972111825,85.60725392117861,3.1860604486055912,1.3447156000638536,A,454.86400002846494,Correct,sub_013_day_23_data.csv,1,600,,Button-Switch at home,,,,,,,,,,,,,k
13,23,385,A,22.36400747861465,38.45243863823019,1.1182003739307325,0.6040094936923813,A,716.4204999571666,Correct,sub_013_day_23_data.csv,1,600,,Button-Switch at home,,,,,,,,,,,,,k
13,23,386,B,76.63217142728959,64.95429990525548,3.8316085713644794,1.020299757007094,A,964.8056000005454,Incorrect,sub_013_day_23_data.csv,0,600,,Button-Switch at home,,,,,,,,,,,,,k
13,23,387,A,55.17745652742559,81.31890374772733,2.7588728263712796,1.2773543530591784,A,393.370000005234,Correct,sub_013_day_23_data.csv,1,600,,Button-Switch at home,,,,,,,,,,,,,k
13,23,388,B,85.82287906248158,63.53440094316356,4.291143953124078,0.9979960362663554,A,528.9918000344187,Incorrect,sub_013_day_23_data.csv,0,600,,Button-Switch at home,,,,,,,,,,,,,k
13,23,389,A,40.5701186567781,73.29978565729306,2.0285059328389052,1.151390340653292,A,433.2556000445038,Correct,sub_013_day_23_data.csv,1,600,,Button-Switch at home,,,,,,,,,,,,,k
13,23,390,B,48.99088465983193,22.172146015423944,2.449544232991596,0.3482792551818803,B,637.5435999943875,Correct,sub_013_day_23_data.csv,1,600,,Button-Switch at home,,,,,,,,,,,,,d
13,23,391,A,25.912056937891386,56.41483682050178,1.2956028468945693,0.8861621845437767,A,605.1522999769077,Correct,sub_013_day_23_data.csv,1,600,,Button-Switch at home,,,,,,,,,,,,,k
13,23,392,A,62.65835346125683,85.32619530613152,3.1329176730628414,1.3403007416625536,A,455.6640000082552,Correct,sub_013_day_23_data.csv,1,600,,Button-Switch at home,,,,,,,,,,,,,k
13,23,393,A,23.27065967912057,54.55965666422598,1.1635329839560284,0.8570210827935688,A,385.94690000172704,Correct,sub_013_day_23_data.csv,1,600,,Button-Switch at home,,,,,,,,,,,,,k
13,23,394,A,38.385001869296026,50.30051893817988,1.9192500934648011,0.7901187038397007,A,582.1663999813609,Correct,sub_013_day_23_data.csv,1,600,,Button-Switch at home,,,,,,,,,,,,,k
13,23,395,B,75.3892724536264,46.84119646198019,3.76946362268132,0.735779793451566,B,435.4202999966219,Correct,sub_013_day_23_data.csv,1,600,,Button-Switch at home,,,,,,,,,,,,,d
13,23,396,A,33.34958359607964,65.04967644758632,1.667479179803982,1.0217979282306509,A,444.23120003193617,Correct,sub_013_day_23_data.csv,1,600,,Button-Switch at home,,,,,,,,,,,,,k
13,23,397,A,54.76676659396581,67.03979204713241,2.7383383296982906,1.053058590967293,A,514.3741999636404,Correct,sub_013_day_23_data.csv,1,600,,Button-Switch at home,,,,,,,,,,,,,k
13,23,398,B,40.29157105575209,28.954827521189337,2.0145785527876043,0.4548213671326399,B,440.1764999493025,Correct,sub_013_day_23_data.csv,1,600,,Button-Switch at home,,,,,,,,,,,,,d
13,23,399,A,53.92570606283518,66.94265390354757,2.6962853031417593,1.0515327485759456,B,375.7100999937393,Incorrect,sub_013_day_23_data.csv,0,600,,Button-Switch at home,,,,,,,,,,,,,d
13,23,400,B,37.40997475723216,17.89228814389006,1.8704987378616085,0.2810514049437838,B,462.98760001081973,Correct,sub_013_day_23_data.csv,1,600,,Button-Switch at home,,,,,,,,,,,,,d
13,23,401,B,88.02722950346183,66.43087830187304,4.401361475173092,1.0434937962234097,B,627.2790999501012,Correct,sub_013_day_23_data.csv,1,600,,Button-Switch at home,,,,,,,,,,,,,d
13,23,402,A,53.05713037541633,81.98443522662062,2.6528565187708164,1.287808497083298,A,367.8370999987237,Correct,sub_013_day_23_data.csv,1,600,,Button-Switch at home,,,,,,,,,,,,,k
13,23,403,B,71.5719744134745,55.62403785623936,3.578598720673725,0.8737403434608108,A,460.6311999959871,Incorrect,sub_013_day_23_data.csv,0,600,,Button-Switch at home,,,,,,,,,,,,,k
13,23,404,A,59.74638347937817,84.78057916576296,2.987319173968908,1.331730223371244,A,626.3258999679238,Correct,sub_013_day_23_data.csv,1,600,,Button-Switch at home,,,,,,,,,,,,,k
13,23,405,B,46.62508691430582,33.25769863231296,2.331254345715291,0.5224107084928886,B,605.5647000321187,Correct,sub_013_day_23_data.csv,1,600,,Button-Switch at home,,,,,,,,,,,,,d
13,23,406,B,56.324068482120225,47.48751545349231,2.816203424106011,0.7459321484296159,B,646.0276000434533,Correct,sub_013_day_23_data.csv,1,600,,Button-Switch at home,,,,,,,,,,,,,d
13,23,407,A,33.80860994593145,41.722184960572775,1.6904304972965725,0.6553705488192499,A,552.0358000067063,Correct,sub_013_day_23_data.csv,1,600,,Button-Switch at home,,,,,,,,,,,,,k
13,23,408,A,62.07673605767475,75.34833673534882,3.1038368028837375,1.183568905739909,A,1014.974699995946,Correct,sub_013_day_23_data.csv,1,600,,Button-Switch at home,,,,,,,,,,,,,k
13,23,409,A,44.65246394285327,72.69190858913487,2.2326231971426633,1.1418418299952344,A,499.6380999800749,Correct,sub_013_day_23_data.csv,1,600,,Button-Switch at home,,,,,,,,,,,,,k
13,23,410,B,58.86258457174695,34.055152413316144,2.943129228587347,0.5349370831927736,A,455.7478999486193,Incorrect,sub_013_day_23_data.csv,0,600,,Button-Switch at home,,,,,,,,,,,,,k
13,23,411,A,45.44006543459593,57.11197317457581,2.2720032717297967,0.8971127767863234,B,486.2649000133388,Incorrect,sub_013_day_23_data.csv,0,600,,Button-Switch at home,,,,,,,,,,,,,d
13,23,412,B,52.41328580253425,31.610875948928665,2.620664290126712,0.4965424782734629,B,506.56450004316866,Correct,sub_013_day_23_data.csv,1,600,,Button-Switch at home,,,,,,,,,,,,,d
13,23,413,B,42.031426764726675,14.260972793265172,2.101571338236334,0.2240108368018288,B,398.6835000105202,Correct,sub_013_day_23_data.csv,1,600,,Button-Switch at home,,,,,,,,,,,,,d
13,23,414,A,29.369664492318844,48.884606112087376,1.4684832246159425,0.7678775971768221,A,313.1654000026174,Correct,sub_013_day_23_data.csv,1,600,,Button-Switch at home,,,,,,,,,,,,,k
13,23,415,A,42.39015478349655,65.81711242022843,2.119507739174827,1.033852784299416,A,747.3984999815002,Correct,sub_013_day_23_data.csv,1,600,,Button-Switch at home,,,,,,,,,,,,,k
13,23,416,B,77.38387432096948,64.32032765615311,3.869193716048474,1.010341344205295,A,494.6561999968253,Incorrect,sub_013_day_23_data.csv,0,600,,Button-Switch at home,,,,,,,,,,,,,k
13,23,417,B,82.63494679701058,52.32323101127555,4.131747339850529,0.8218913907855246,B,500.087300024461,Correct,sub_013_day_23_data.csv,1,600,,Button-Switch at home,,,,,,,,,,,,,d
13,23,418,A,29.602740241204454,49.024238022750744,1.4801370120602226,0.7700709301005557,A,477.4226999725215,Correct,sub_013_day_23_data.csv,1,600,,Button-Switch at home,,,,,,,,,,,,,k
13,23,419,B,65.49767776532481,46.93504544830921,3.27488388826624,0.7372539698815562,B,726.9884999841452,Correct,sub_013_day_23_data.csv,1,600,,Button-Switch at home,,,,,,,,,,,,,d
13,23,420,B,31.519593770589974,17.357520627298918,1.575979688529499,0.2726512964362779,B,582.1563000208698,Correct,sub_013_day_23_data.csv,1,600,,Button-Switch at home,,,,,,,,,,,,,d
13,23,421,A,56.7915989321198,77.55981089066628,2.8395799466059897,1.2183066605396542,B,426.13759997766465,Incorrect,sub_013_day_23_data.csv,0,600,,Button-Switch at home,,,,,,,,,,,,,d
13,23,422,A,15.354117307696804,39.872168454049714,0.7677058653848402,0.6263105574896863,A,461.1175999743864,Correct,sub_013_day_23_data.csv,1,600,,Button-Switch at home,,,,,,,,,,,,,k
13,23,423,A,13.860002249174382,36.6152529491914,0.6930001124587192,0.5751510483725586,A,382.8906000126153,Correct,sub_013_day_23_data.csv,1,600,,Button-Switch at home,,,,,,,,,,,,,k
13,23,424,B,62.3619068802344,33.646719674205166,3.1180953440117203,0.5285214367293904,A,684.1994000133127,Incorrect,sub_013_day_23_data.csv,0,600,,Button-Switch at home,,,,,,,,,,,,,k
13,23,425,B,76.26353999027933,55.062276197610146,3.8131769995139666,0.8649162119617209,A,544.26329996204,Incorrect,sub_013_day_23_data.csv,0,600,,Button-Switch at home,,,,,,,,,,,,,k
13,23,426,B,60.329641957284544,34.37669178410427,3.0164820978642273,0.5399878118183128,B,566.3748999941163,Correct,sub_013_day_23_data.csv,1,600,,Button-Switch at home,,,,,,,,,,,,,d
13,23,427,A,52.648949285946664,62.42274793153805,2.632447464297333,0.980534231593037,A,500.1551999594085,Correct,sub_013_day_23_data.csv,1,600,,Button-Switch at home,,,,,,,,,,,,,k
13,23,428,A,15.453737938192573,35.11609227663463,0.7726868969096286,0.5516022875952832,B,437.4720999621786,Incorrect,sub_013_day_23_data.csv,0,600,,Button-Switch at home,,,,,,,,,,,,,d
13,23,429,A,27.817021260858542,44.11075109253902,1.3908510630429272,0.6928900578832426,A,498.58959997072816,Correct,sub_013_day_23_data.csv,1,600,,Button-Switch at home,,,,,,,,,,,,,k
13,23,430,A,21.67759869503844,50.96672231006525,1.083879934751922,0.80058340193426,A,479.5815999968909,Correct,sub_013_day_23_data.csv,1,600,,Button-Switch at home,,,,,,,,,,,,,k
13,23,431,B,34.418161832090846,14.967010240675233,1.7209080916045425,0.2351012470915425,B,451.2741999933496,Correct,sub_013_day_23_data.csv,1,600,,Button-Switch at home,,,,,,,,,,,,,d
13,23,432,A,17.081285589307214,34.36054349404897,0.8540642794653607,0.539734155071284,B,525.7655999739654,Incorrect,sub_013_day_23_data.csv,0,600,,Button-Switch at home,,,,,,,,,,,,,d
13,23,433,A,20.528738750757267,33.384692400728596,1.0264369375378637,0.5244055219424197,A,443.616300006397,Correct,sub_013_day_23_data.csv,1,600,,Button-Switch at home,,,,,,,,,,,,,k
13,23,434,B,50.3596798722016,43.41993691153594,2.51798399361008,0.6820387741030681,A,609.1687000007369,Incorrect,sub_013_day_23_data.csv,0,600,,Button-Switch at home,,,,,,,,,,,,,k
13,23,435,B,43.04518818398218,24.34337450369836,2.152259409199109,0.3823848325220192,B,802.542999968864,Correct,sub_013_day_23_data.csv,1,600,,Button-Switch at home,,,,,,,,,,,,,d
13,23,436,A,56.62241448343602,75.01115278979545,2.831120724171801,1.1782724327086145,A,491.3088000030257,Correct,sub_013_day_23_data.csv,1,600,,Button-Switch at home,,,,,,,,,,,,,k
13,23,437,B,80.53339592350616,54.328320228462026,4.026669796175309,0.8533872585580501,B,486.9792999816127,Correct,sub_013_day_23_data.csv,1,600,,Button-Switch at home,,,,,,,,,,,,,d
13,23,438,B,83.97168973651009,54.601985186614954,4.198584486825505,0.8576859776684412,B,702.5432999944314,Correct,sub_013_day_23_data.csv,1,600,,Button-Switch at home,,,,,,,,,,,,,d
13,23,439,B,69.9191032594528,56.91199800254361,3.49595516297264,0.89397157412954,B,481.1385999782942,Correct,sub_013_day_23_data.csv,1,600,,Button-Switch at home,,,,,,,,,,,,,d
13,23,440,B,66.27367638859654,42.99671836369527,3.313683819429827,0.6753908726992721,B,401.7968000262045,Correct,sub_013_day_23_data.csv,1,600,,Button-Switch at home,,,,,,,,,,,,,d
13,23,441,A,49.12724461217471,69.02294933906687,2.456362230608735,1.0842099528635647,A,414.37209997093305,Correct,sub_013_day_23_data.csv,1,600,,Button-Switch at home,,,,,,,,,,,,,k
13,23,442,A,55.7592969183976,76.28669347889728,2.78796484591988,1.1983085789998005,A,421.2628999957815,Correct,sub_013_day_23_data.csv,1,600,,Button-Switch at home,,,,,,,,,,,,,k
13,23,443,A,38.88006568607843,59.89852225086173,1.9440032843039217,0.9408837873209598,A,383.44070001039654,Correct,sub_013_day_23_data.csv,1,600,,Button-Switch at home,,,,,,,,,,,,,k
13,23,444,B,54.76479254466349,29.28638800012004,2.7382396272331744,0.4600295069567869,B,390.2649999945425,Correct,sub_013_day_23_data.csv,1,600,,Button-Switch at home,,,,,,,,,,,,,d
13,23,445,A,62.6887662321291,84.1778445423279,3.1344383116064547,1.3222624900460052,A,384.91080002859235,Correct,sub_013_day_23_data.csv,1,600,,Button-Switch at home,,,,,,,,,,,,,k
13,23,446,B,82.68057471031942,63.49295037726901,4.1340287355159715,0.997344932299848,A,414.5028000348248,Incorrect,sub_013_day_23_data.csv,0,600,,Button-Switch at home,,,,,,,,,,,,,k
13,23,447,A,60.20636180869056,78.78608778250918,3.0103180904345277,1.237568972913057,A,378.62350000068545,Correct,sub_013_day_23_data.csv,1,600,,Button-Switch at home,,,,,,,,,,,,,k
13,23,448,A,39.88206445239453,53.72043065704661,1.9941032226197264,0.8438385514992878,A,457.7061000163667,Correct,sub_013_day_23_data.csv,1,600,,Button-Switch at home,,,,,,,,,,,,,k
13,23,449,B,30.891792831356177,11.869880339847883,1.5445896415678086,0.1864516443732801,B,410.0151999737136,Correct,sub_013_day_23_data.csv,1,600,,Button-Switch at home,,,,,,,,,,,,,d
13,23,450,B,56.508236205507174,44.48821774344787,2.8254118102753587,0.6988192901705946,A,472.8979000356048,Incorrect,sub_013_day_23_data.csv,0,600,,Button-Switch at home,,,,,,,,,,,,,k
13,23,451,A,13.241393440899436,40.09793859409397,0.6620696720449718,0.6298569465565012,A,448.1937999953516,Correct,sub_013_day_23_data.csv,1,600,,Button-Switch at home,,,,,,,,,,,,,k
13,23,452,B,51.249484714707854,33.79079705202686,2.5624742357353925,0.5307845988879561,B,542.231300030835,Correct,sub_013_day_23_data.csv,1,600,,Button-Switch at home,,,,,,,,,,,,,d
13,23,453,A,31.60141624655037,64.82260397484106,1.580070812327519,1.018231082169606,A,357.7682999894023,Correct,sub_013_day_23_data.csv,1,600,,Button-Switch at home,,,,,,,,,,,,,k
13,23,454,A,42.95874913128066,61.535160693572514,2.147937456564033,0.966592043861974,A,451.3254999765195,Correct,sub_013_day_23_data.csv,1,600,,Button-Switch at home,,,,,,,,,,,,,k
13,23,455,A,57.130504841342976,66.3978625333215,2.8565252420671485,1.042975185743739,A,367.93110001599416,Correct,sub_013_day_23_data.csv,1,600,,Button-Switch at home,,,,,,,,,,,,,k
13,23,456,A,45.43120528494067,59.42908521590878,2.271560264247033,0.933509887619304,A,347.8305999888107,Correct,sub_013_day_23_data.csv,1,600,,Button-Switch at home,,,,,,,,,,,,,k
13,23,457,B,64.12520950928341,39.33127250711883,3.2062604754641706,0.6178141838235136,B,454.50749999145046,Correct,sub_013_day_23_data.csv,1,600,,Button-Switch at home,,,,,,,,,,,,,d
13,23,458,B,47.7116109273407,33.59503897137052,2.385580546367035,0.5277096381476022,A,444.2990000243298,Incorrect,sub_013_day_23_data.csv,0,600,,Button-Switch at home,,,,,,,,,,,,,k
13,23,459,A,30.462743495480588,42.03156337619805,1.5231371747740294,0.6602302536077879,A,609.2042000382207,Correct,sub_013_day_23_data.csv,1,600,,Button-Switch at home,,,,,,,,,,,,,k
13,23,460,B,54.79314763087163,40.66224762731512,2.739657381543582,0.6387210921221107,A,431.54479999793693,Incorrect,sub_013_day_23_data.csv,0,600,,Button-Switch at home,,,,,,,,,,,,,k
13,23,461,A,44.5148466794842,69.7848085657831,2.22574233397421,1.0961772096121711,A,484.7774999798275,Correct,sub_013_day_23_data.csv,1,600,,Button-Switch at home,,,,,,,,,,,,,k
13,23,462,B,68.17099125216195,55.12498323818012,3.4085495626080977,0.8659012118516358,A,346.2731000036001,Incorrect,sub_013_day_23_data.csv,0,600,,Button-Switch at home,,,,,,,,,,,,,k
13,23,463,B,50.375370770935234,27.714430085222983,2.5187685385467615,0.4353372497708224,B,356.9611000129953,Correct,sub_013_day_23_data.csv,1,600,,Button-Switch at home,,,,,,,,,,,,,d
13,23,464,A,16.649439934667388,33.52435205555115,0.8324719967333694,0.5265992906703869,B,522.9568000067957,Incorrect,sub_013_day_23_data.csv,0,600,,Button-Switch at home,,,,,,,,,,,,,d
13,23,465,B,37.60716741148764,18.60175829324586,1.8803583705743816,0.292195735989571,B,691.965900012292,Correct,sub_013_day_23_data.csv,1,600,,Button-Switch at home,,,,,,,,,,,,,d
13,23,466,A,25.433612906262397,58.03111400650073,1.2716806453131198,0.911550607212272,A,254.3579000048339,Correct,sub_013_day_23_data.csv,1,600,,Button-Switch at home,,,,,,,,,,,,,k
13,23,467,B,86.61768658199956,65.8449213978073,4.330884329099979,1.0342896066977438,B,815.1872999733314,Correct,sub_013_day_23_data.csv,1,600,,Button-Switch at home,,,,,,,,,,,,,d
13,23,468,B,44.74710699473428,21.66354434780551,2.2373553497367142,0.3402901588689123,B,610.2054999792017,Correct,sub_013_day_23_data.csv,1,600,,Button-Switch at home,,,,,,,,,,,,,d
13,23,469,B,37.95017910117666,26.74750739446303,1.897508955058833,0.4201488636614187,B,460.4703000513837,Correct,sub_013_day_23_data.csv,1,600,,Button-Switch at home,,,,,,,,,,,,,d
13,23,470,A,60.74676627123969,75.67422909838399,3.037338313561985,1.1886880110077704,A,411.7668999824673,Correct,sub_013_day_23_data.csv,1,600,,Button-Switch at home,,,,,,,,,,,,,k
13,23,471,A,31.787907925126753,56.09761263826927,1.5893953962563376,0.8811792387415633,A,442.14240001747385,Correct,sub_013_day_23_data.csv,1,600,,Button-Switch at home,,,,,,,,,,,,,k
13,23,472,A,25.665244878902655,47.343802042360196,1.2832622439451329,0.7436747034464412,A,412.1222000103444,Correct,sub_013_day_23_data.csv,1,600,,Button-Switch at home,,,,,,,,,,,,,k
13,23,473,A,42.23502528219839,72.68425781560256,2.1117512641099196,1.1417216519256177,B,397.29389996500686,Incorrect,sub_013_day_23_data.csv,0,600,,Button-Switch at home,,,,,,,,,,,,,d
13,23,474,B,51.16350950893879,32.49359819709183,2.558175475446939,0.5104082469234111,B,655.4672999773175,Correct,sub_013_day_23_data.csv,1,600,,Button-Switch at home,,,,,,,,,,,,,d
13,23,475,B,51.180784027565906,30.284224158297544,2.559039201378295,0.4757034806768704,B,390.2978000114672,Correct,sub_013_day_23_data.csv,1,600,,Button-Switch at home,,,,,,,,,,,,,d
13,23,476,A,48.59370117686882,55.62902502372064,2.429685058843441,0.8738186817044176,A,374.79370000073686,Correct,sub_013_day_23_data.csv,1,600,,Button-Switch at home,,,,,,,,,,,,,k
13,23,477,A,48.27834669748883,57.39502133067406,2.413917334874441,0.9015588868253754,A,448.75410001259297,Correct,sub_013_day_23_data.csv,1,600,,Button-Switch at home,,,,,,,,,,,,,k
13,23,478,A,17.123601966733474,37.70720646376025,0.8561800983366737,0.5923034140697139,A,521.8833000399172,Correct,sub_013_day_23_data.csv,1,600,,Button-Switch at home,,,,,,,,,,,,,k
13,23,479,B,65.59201595887188,50.596380620949645,3.2796007979435946,0.7947660882850419,B,428.6675000330433,Correct,sub_013_day_23_data.csv,1,600,,Button-Switch at home,,,,,,,,,,,,,d
13,23,480,A,42.73113874542555,64.71503021944685,2.136556937271277,1.0165413175712783,B,406.76059998804703,Incorrect,sub_013_day_23_data.csv,0,600,,Button-Switch at home,,,,,,,,,,,,,d
13,23,481,B,67.00581074299646,36.89479936398712,3.350290537149823,0.5795421531878565,B,523.1084999977611,Correct,sub_013_day_23_data.csv,1,600,,Button-Switch at home,,,,,,,,,,,,,d
13,23,482,B,54.66752532367824,44.11466225061008,2.733376266183912,0.6929514942105581,B,517.0185000170022,Correct,sub_013_day_23_data.csv,1,600,,Button-Switch at home,,,,,,,,,,,,,d
13,23,483,B,71.02814688570861,44.665647166776445,3.5514073442854306,0.7016063450348932,B,462.1735999826342,Correct,sub_013_day_23_data.csv,1,600,,Button-Switch at home,,,,,,,,,,,,,d
13,23,484,B,72.6507374486709,61.24958422146649,3.632536872433545,0.9621062191279424,B,453.8472999702208,Correct,sub_013_day_23_data.csv,1,600,,Button-Switch at home,,,,,,,,,,,,,d
13,23,485,B,72.10901828586705,55.99808206689084,3.605450914293352,0.8796158161823129,B,621.7712999787182,Correct,sub_013_day_23_data.csv,1,600,,Button-Switch at home,,,,,,,,,,,,,d
13,23,486,B,76.08899700538485,49.188534897355574,3.8044498502692425,0.7726516993718873,B,561.3512000418268,Correct,sub_013_day_23_data.csv,1,600,,Button-Switch at home,,,,,,,,,,,,,d
13,23,487,A,49.52097226716967,62.854776751145,2.4760486133584836,0.9873205244221184,A,417.1286999480799,Correct,sub_013_day_23_data.csv,1,600,,Button-Switch at home,,,,,,,,,,,,,k
13,23,488,B,80.74799146269805,59.56738041601234,4.037399573134903,0.9356822235426644,A,364.28099998738617,Incorrect,sub_013_day_23_data.csv,0,600,,Button-Switch at home,,,,,,,,,,,,,k
13,23,489,A,22.48948963993834,53.51060491168209,1.124474481996917,0.8405426163984316,A,387.4160000123083,Correct,sub_013_day_23_data.csv,1,600,,Button-Switch at home,,,,,,,,,,,,,k
13,23,490,B,57.43876695958018,45.40263624281596,2.871938347979009,0.7131829423702015,A,451.59379998221993,Incorrect,sub_013_day_23_data.csv,0,600,,Button-Switch at home,,,,,,,,,,,,,k
13,23,491,A,17.999404540250794,43.9698002960102,0.8999702270125397,0.6906760079487798,B,417.8191999671981,Incorrect,sub_013_day_23_data.csv,0,600,,Button-Switch at home,,,,,,,,,,,,,d
13,23,492,A,41.10430204901943,49.80095366435907,2.0552151024509713,0.7822715508685807,A,442.1738999662921,Correct,sub_013_day_23_data.csv,1,600,,Button-Switch at home,,,,,,,,,,,,,k
13,23,493,B,88.28328043431581,68.3123254696303,4.4141640217157905,1.073047499225127,B,563.7926000053994,Correct,sub_013_day_23_data.csv,1,600,,Button-Switch at home,,,,,,,,,,,,,d
13,23,494,B,38.5532056115396,21.344946442417804,1.92766028057698,0.3352856346738368,A,692.1864000032656,Incorrect,sub_013_day_23_data.csv,0,600,,Button-Switch at home,,,,,,,,,,,,,k
13,23,495,B,52.49414463873594,21.318818931834635,2.6247072319367972,0.3348752246973135,A,374.3665000074543,Incorrect,sub_013_day_23_data.csv,0,600,,Button-Switch at home,,,,,,,,,,,,,k
13,23,496,A,27.06259703705497,54.89419944935386,1.3531298518527484,0.8622760685739149,A,931.3735000323504,Correct,sub_013_day_23_data.csv,1,600,,Button-Switch at home,,,,,,,,,,,,,k
13,23,497,B,39.48003201453993,20.32033620919427,1.9740016007269965,0.3191910947663969,B,373.5603000386618,Correct,sub_013_day_23_data.csv,1,600,,Button-Switch at home,,,,,,,,,,,,,d
13,23,498,B,57.14446224390818,28.135074053847447,2.857223112195409,0.4419447097788597,B,509.55159997101873,Correct,sub_013_day_23_data.csv,1,600,,Button-Switch at home,,,,,,,,,,,,,d
13,23,499,B,54.99928039424736,42.51114286166278,2.749964019712368,0.6677634705495299,B,400.10570001322776,Correct,sub_013_day_23_data.csv,1,600,,Button-Switch at home,,,,,,,,,,,,,d
13,23,500,A,31.67762627460013,45.58603989762763,1.5838813137300063,0.7160638402431909,B,1276.309399981983,Incorrect,sub_013_day_23_data.csv,0,600,,Button-Switch at home,,,,,,,,,,,,,d
13,23,501,A,64.05367061442169,76.09129636988075,3.2026835307210844,1.1952392883887055,A,691.0247000050731,Correct,sub_013_day_23_data.csv,1,600,,Button-Switch at home,,,,,,,,,,,,,k
13,23,502,A,54.03475549276024,84.11930989662999,2.7017377746380125,1.32134302998148,A,726.272500003688,Correct,sub_013_day_23_data.csv,1,600,,Button-Switch at home,,,,,,,,,,,,,k
13,23,503,B,76.13995307825856,52.09196230400079,3.806997653912928,0.8182586304266265,B,469.1869000089355,Correct,sub_013_day_23_data.csv,1,600,,Button-Switch at home,,,,,,,,,,,,,d
13,23,504,B,45.4704007123294,20.86185607503281,2.2735200356164698,0.3276972689278533,A,523.1109999585897,Incorrect,sub_013_day_23_data.csv,0,600,,Button-Switch at home,,,,,,,,,,,,,k
13,23,505,B,78.37710072963203,49.85047461105887,3.918855036481602,0.7830494240803353,B,450.1609999570064,Correct,sub_013_day_23_data.csv,1,600,,Button-Switch at home,,,,,,,,,,,,,d
13,23,506,A,34.56263410016903,49.53263563672104,1.7281317050084513,0.778056821146314,A,500.0110999681055,Correct,sub_013_day_23_data.csv,1,600,,Button-Switch at home,,,,,,,,,,,,,k
13,23,507,A,68.26238458061977,82.86370118410429,3.4131192290309884,1.3016199744462094,A,569.9581999797374,Correct,sub_013_day_23_data.csv,1,600,,Button-Switch at home,,,,,,,,,,,,,k
13,23,508,B,75.18575083197746,52.12947161077259,3.759287541598873,0.8188478252396043,A,377.06540001090616,Incorrect,sub_013_day_23_data.csv,0,600,,Button-Switch at home,,,,,,,,,,,,,k
13,23,509,B,39.500482267699475,12.461105580826596,1.9750241133849735,0.195738588741658,B,517.1661999775097,Correct,sub_013_day_23_data.csv,1,600,,Button-Switch at home,,,,,,,,,,,,,d
13,23,510,B,34.63463499367449,12.241725859331346,1.7317317496837246,0.1922925801346777,B,494.21009997604415,Correct,sub_013_day_23_data.csv,1,600,,Button-Switch at home,,,,,,,,,,,,,d
13,23,511,A,60.90077515682495,84.49849567603317,3.045038757841247,1.327299266276074,A,415.2152999886312,Correct,sub_013_day_23_data.csv,1,600,,Button-Switch at home,,,,,,,,,,,,,k
13,23,512,A,21.146794310247927,41.334325200501624,1.0573397155123962,0.6492780619549368,A,514.9005000130273,Correct,sub_013_day_23_data.csv,1,600,,Button-Switch at home,,,,,,,,,,,,,k
13,23,513,B,50.80536428134949,21.307196718732374,2.5402682140674746,0.3346926634008109,A,756.9345000083558,Incorrect,sub_013_day_23_data.csv,0,600,,Button-Switch at home,,,,,,,,,,,,,k
13,23,514,A,47.199054891073075,66.26482428374874,2.3599527445536537,1.0408854258062177,A,559.6328000538051,Correct,sub_013_day_23_data.csv,1,600,,Button-Switch at home,,,,,,,,,,,,,k
13,23,515,A,56.568504813536094,77.56928622819443,2.828425240676805,1.2184554987934977,A,360.834099992644,Correct,sub_013_day_23_data.csv,1,600,,Button-Switch at home,,,,,,,,,,,,,k
13,23,516,B,33.64356159418105,17.88412502885365,1.6821780797090526,0.2809231790326398,B,440.9044000203721,Correct,sub_013_day_23_data.csv,1,600,,Button-Switch at home,,,,,,,,,,,,,d
13,23,517,B,72.93028309926171,42.4030110748399,3.6465141549630857,0.6660649404140184,A,566.6075000190176,Incorrect,sub_013_day_23_data.csv,0,600,,Button-Switch at home,,,,,,,,,,,,,k
13,23,518,B,55.59415187679335,43.9296944753373,2.779707593839668,0.6900460271908189,B,518.7100000330247,Correct,sub_013_day_23_data.csv,1,600,,Button-Switch at home,,,,,,,,,,,,,d
13,23,519,A,18.071612675231226,34.15340717896773,0.9035806337615612,0.5364804654425296,A,362.89300001226366,Correct,sub_013_day_23_data.csv,1,600,,Button-Switch at home,,,,,,,,,,,,,k
13,23,520,A,30.77103849484175,52.13986454053674,1.5385519247420876,0.819011076998586,A,439.3196000019088,Correct,sub_013_day_23_data.csv,1,600,,Button-Switch at home,,,,,,,,,,,,,k
13,23,521,B,51.81714751129296,32.3168313017711,2.5908573755646476,0.5076315990247238,B,540.2947000111453,Correct,sub_013_day_23_data.csv,1,600,,Button-Switch at home,,,,,,,,,,,,,d
13,23,522,A,60.01975260839686,77.90064674786228,3.000987630419843,1.2236604976648888,A,419.6172000374645,Correct,sub_013_day_23_data.csv,1,600,,Button-Switch at home,,,,,,,,,,,,,k
13,23,523,A,62.183186203189585,78.68215473288413,3.109159310159479,1.2359363963872207,A,342.27219998138025,Correct,sub_013_day_23_data.csv,1,600,,Button-Switch at home,,,,,,,,,,,,,k
13,23,524,A,65.59785860538189,79.6274986616612,3.279892930269094,1.2507858240960297,A,480.51729996223,Correct,sub_013_day_23_data.csv,1,600,,Button-Switch at home,,,,,,,,,,,,,k
13,23,525,B,81.84406026832164,52.43640073590084,4.092203013416082,0.8236690566629824,A,434.1375000076369,Incorrect,sub_013_day_23_data.csv,0,600,,Button-Switch at home,,,,,,,,,,,,,k
13,23,526,B,58.761898637346064,28.81937697995767,2.9380949318673033,0.452693715006349,A,371.470500016585,Incorrect,sub_013_day_23_data.csv,0,600,,Button-Switch at home,,,,,,,,,,,,,k
13,23,527,A,23.48677762072417,50.7764350006369,1.1743388810362083,0.7975943758674027,A,693.9811000484042,Correct,sub_013_day_23_data.csv,1,600,,Button-Switch at home,,,,,,,,,,,,,k
13,23,528,A,61.460315936256976,83.92859005060703,3.0730157968128484,1.3183472096456823,A,439.1677999519743,Correct,sub_013_day_23_data.csv,1,600,,Button-Switch at home,,,,,,,,,,,,,k
13,23,529,B,79.93424780458936,63.95229519423974,3.996712390229468,1.0045603038121471,B,728.4584000008181,Correct,sub_013_day_23_data.csv,1,600,,Button-Switch at home,,,,,,,,,,,,,d
13,23,530,B,54.99669426267542,42.92405355041091,2.749834713133771,0.674249456481329,B,518.872199987527,Correct,sub_013_day_23_data.csv,1,600,,Button-Switch at home,,,,,,,,,,,,,d
13,23,531,A,35.55863204956634,68.68338690876087,1.7779316024783172,1.0788761186811426,A,496.13959999987856,Correct,sub_013_day_23_data.csv,1,600,,Button-Switch at home,,,,,,,,,,,,,k
13,23,532,A,21.72158353778149,50.87287579925079,1.0860791768890747,0.7991092643895612,A,522.8892000159249,Correct,sub_013_day_23_data.csv,1,600,,Button-Switch at home,,,,,,,,,,,,,k
13,23,533,B,71.0787822801335,53.142583847454375,3.553939114006675,0.8347617550397113,B,485.4981999960728,Correct,sub_013_day_23_data.csv,1,600,,Button-Switch at home,,,,,,,,,,,,,d
13,23,534,A,46.61469854303439,77.06590968808739,2.3307349271517195,1.210548478591549,A,461.8249000050127,Correct,sub_013_day_23_data.csv,1,600,,Button-Switch at home,,,,,,,,,,,,,k
13,23,535,B,43.386681095529994,27.338418411804874,2.169334054776499,0.4294308722164506,B,709.9015000276268,Correct,sub_013_day_23_data.csv,1,600,,Button-Switch at home,,,,,,,,,,,,,d
13,23,536,B,66.0371714428828,45.94713404066159,3.30185857214414,0.7217358937782397,A,452.67500000773,Incorrect,sub_013_day_23_data.csv,0,600,,Button-Switch at home,,,,,,,,,,,,,k
13,23,537,A,43.50470080757141,50.91348046601506,2.1752350403785705,0.7997470810036017,A,543.812399962917,Correct,sub_013_day_23_data.csv,1,600,,Button-Switch at home,,,,,,,,,,,,,k
13,23,538,B,77.20479204313553,58.33072041467638,3.860239602156776,0.9162568136667376,B,590.8963999827392,Correct,sub_013_day_23_data.csv,1,600,,Button-Switch at home,,,,,,,,,,,,,d
13,23,539,A,57.144064804911494,70.74579975331638,2.857203240245575,1.1112724238867668,B,658.153600001242,Incorrect,sub_013_day_23_data.csv,0,600,,Button-Switch at home,,,,,,,,,,,,,d
13,23,540,A,54.79555183446492,63.5951905054384,2.739777591723246,0.9989509164776432,A,498.1944999890402,Correct,sub_013_day_23_data.csv,1,600,,Button-Switch at home,,,,,,,,,,,,,k
13,23,541,A,35.31573309135154,60.15335418398713,1.765786654567577,0.944886677965994,A,471.5245999977924,Correct,sub_013_day_23_data.csv,1,600,,Button-Switch at home,,,,,,,,,,,,,k
13,23,542,B,67.84550171160133,53.330037611157266,3.3922750855800667,0.8377062718743953,B,507.5451000011526,Correct,sub_013_day_23_data.csv,1,600,,Button-Switch at home,,,,,,,,,,,,,d
13,23,543,B,68.14530777210341,48.676374575483905,3.4072653886051705,0.7646067038486261,B,443.7462000059895,Correct,sub_013_day_23_data.csv,1,600,,Button-Switch at home,,,,,,,,,,,,,d
13,23,544,B,60.21725486807499,51.80891377253861,3.010862743403749,0.8138125144913718,B,484.64620002778247,Correct,sub_013_day_23_data.csv,1,600,,Button-Switch at home,,,,,,,,,,,,,d
13,23,545,B,55.84217950452992,41.27835339094858,2.792108975226496,0.648398858826437,B,572.759100003168,Correct,sub_013_day_23_data.csv,1,600,,Button-Switch at home,,,,,,,,,,,,,d
13,23,546,A,31.105531597893897,59.85627422408368,1.5552765798946948,0.940220156868187,A,464.2887000227347,Correct,sub_013_day_23_data.csv,1,600,,Button-Switch at home,,,,,,,,,,,,,k
13,23,547,B,60.51123080466499,31.090753736681183,3.0255615402332494,0.4883724176686351,B,543.5645999968983,Correct,sub_013_day_23_data.csv,1,600,,Button-Switch at home,,,,,,,,,,,,,d
13,23,548,A,46.59949690863648,64.52653928789769,2.329974845431824,1.0135805089421628,A,417.8383000544272,Correct,sub_013_day_23_data.csv,1,600,,Button-Switch at home,,,,,,,,,,,,,k
13,23,549,A,26.835289838628235,41.18688606066661,1.3417644919314116,0.6469620933621503,A,527.5466000312008,Correct,sub_013_day_23_data.csv,1,600,,Button-Switch at home,,,,,,,,,,,,,k
13,23,550,A,35.76913184345942,62.20422849575531,1.7884565921729711,0.9771017363224288,B,483.6270000087098,Incorrect,sub_013_day_23_data.csv,0,600,,Button-Switch at home,,,,,,,,,,,,,d
