subject,day,trial,cat,x,y,xt,yt,resp,rt,fb,f_name,acc,n_trials,block,session_type,ns_left_digit,ns_right_digit,ns_left_size,ns_right_size,ns_congruent,ns_cue,ns_correct_side,ns_resp,ns_rt,ns_fb,acc_stroop,acc_stroop_mean,resp_key
13,17,3600,B,48.929358356645714,24.51871118619592,2.4464679178322855,0.385139014690215,B,490.9540999215096,Correct,sub_013_day_13_data.csv,1,300,144.0,Training at home,,,,,,,,,,,,,
13,17,3601,B,70.9973630479659,50.87669013670624,3.5498681523982953,0.799169179862203,A,438.4993000421673,Incorrect,sub_013_day_13_data.csv,0,300,144.0,Training at home,,,,,,,,,,,,,
13,17,3602,A,50.46880158551917,79.24396018353494,2.5234400792759586,1.2447612157697774,A,465.777900069952,Correct,sub_013_day_13_data.csv,1,300,144.0,Training at home,,,,,,,,,,,,,
13,17,3603,B,49.273176684619415,37.24105214110688,2.4636588342309707,0.584981079092279,B,585.2497001178563,Correct,sub_013_day_13_data.csv,1,300,144.0,Training at home,,,,,,,,,,,,,
13,17,3604,A,52.64652708771962,60.198438646484874,2.632326354385981,0.9455948630468636,B,418.4880000539124,Incorrect,sub_013_day_13_data.csv,0,300,144.0,Training at home,,,,,,,,,,,,,
13,17,3605,B,69.9739132029545,49.031356180441854,3.4986956601477255,0.770182741860103,B,536.9337000884116,Correct,sub_013_day_13_data.csv,1,300,144.0,Training at home,,,,,,,,,,,,,
13,17,3606,A,58.75218968766277,81.74461782532467,2.937609484383138,1.284041454152726,A,414.73770001903176,Correct,sub_013_day_13_data.csv,1,300,144.0,Training at home,,,,,,,,,,,,,
13,17,3607,A,28.98263623465209,51.08526514764881,1.4491318117326046,0.802445468472701,B,417.62219998054206,Incorrect,sub_013_day_13_data.csv,0,300,144.0,Training at home,,,,,,,,,,,,,
13,17,3608,B,89.21083903424932,65.10649390829226,4.460541951712466,1.0226904148163978,B,528.2455000560731,Correct,sub_013_day_13_data.csv,1,300,144.0,Training at home,,,,,,,,,,,,,
13,17,3609,B,67.84665355754514,35.352937411733265,3.392332677877257,0.555322642277605,B,464.8011999670416,Correct,sub_013_day_13_data.csv,1,300,144.0,Training at home,,,,,,,,,,,,,
13,17,3610,A,61.06569667012631,71.25701743207846,3.053284833506315,1.1193026124066876,A,468.6424001120031,Correct,sub_013_day_13_data.csv,1,300,144.0,Training at home,,,,,,,,,,,,,
13,17,3611,A,57.310555862264195,85.74066419282221,2.86552779311321,1.3468112037103983,A,536.9156999513507,Correct,sub_013_day_13_data.csv,1,300,144.0,Training at home,,,,,,,,,,,,,
13,17,3612,A,51.138785056619305,74.72767973025967,2.5569392528309653,1.1738196483019734,A,405.0312000326812,Correct,sub_013_day_13_data.csv,1,300,144.0,Training at home,,,,,,,,,,,,,
13,17,3613,B,36.427230627838945,26.151564288307128,1.8213615313919471,0.4107878112401343,B,406.4569000620395,Correct,sub_013_day_13_data.csv,1,300,144.0,Training at home,,,,,,,,,,,,,
13,17,3614,A,53.91971034723438,80.79954534740554,2.6959855173617187,1.269196290384023,A,461.56860003247857,Correct,sub_013_day_13_data.csv,1,300,144.0,Training at home,,,,,,,,,,,,,
13,17,3615,B,53.206344934433815,42.77305389250669,2.6603172467216907,0.6718775594014965,A,396.5108001139015,Incorrect,sub_013_day_13_data.csv,0,300,144.0,Training at home,,,,,,,,,,,,,
13,17,3616,A,61.88806482408436,86.39564830265712,3.0944032412042177,1.3570996700487754,A,472.7193999569863,Correct,sub_013_day_13_data.csv,1,300,144.0,Training at home,,,,,,,,,,,,,
13,17,3617,B,43.184492092392176,17.930536772013063,2.159224604619609,0.2816522129893893,B,339.54319986514747,Correct,sub_013_day_13_data.csv,1,300,144.0,Training at home,,,,,,,,,,,,,
13,17,3618,B,50.659786488115685,43.39358851095251,2.532989324405784,0.6816248943945343,B,400.0283000059426,Correct,sub_013_day_13_data.csv,1,300,144.0,Training at home,,,,,,,,,,,,,
13,17,3619,A,24.166546655445583,40.793618950937834,1.2083273327722792,0.6407846680480384,A,512.9974998999387,Correct,sub_013_day_13_data.csv,1,300,144.0,Training at home,,,,,,,,,,,,,
13,17,3620,B,59.861767670596095,52.12043076166128,2.993088383529805,0.8187058119138528,B,496.2595000397414,Correct,sub_013_day_13_data.csv,1,300,144.0,Training at home,,,,,,,,,,,,,
13,17,3621,B,39.43178541737883,23.569326985713076,1.9715892708689415,0.3702261225418593,A,354.4407000299543,Incorrect,sub_013_day_13_data.csv,0,300,144.0,Training at home,,,,,,,,,,,,,
13,17,3622,A,41.51289946104177,65.84306739324151,2.0756449730520883,1.034260484062126,A,712.7257999964058,Correct,sub_013_day_13_data.csv,1,300,144.0,Training at home,,,,,,,,,,,,,
13,17,3623,A,19.29786851604133,38.791056633603816,0.9648934258020664,0.6093284927255768,A,554.4602998998016,Correct,sub_013_day_13_data.csv,1,300,144.0,Training at home,,,,,,,,,,,,,
13,17,3624,B,36.31038105145299,24.421207388880227,1.8155190525726497,0.3836074286234944,B,519.3714001215994,Correct,sub_013_day_13_data.csv,1,300,144.0,Training at home,,,,,,,,,,,,,
13,17,3625,A,60.39304722810627,79.71118020169958,3.019652361405314,1.2521002906531578,A,421.3946999516338,Correct,sub_013_day_13_data.csv,1,300,145.0,Training at home,,,,,,,,,,,,,
13,17,3626,A,11.821573756808544,39.061321336988755,0.5910786878404273,0.6135738007589705,A,427.6254998985678,Correct,sub_013_day_13_data.csv,1,300,145.0,Training at home,,,,,,,,,,,,,
13,17,3627,A,43.23978454513919,74.34482908814368,2.161989227256959,1.1678058444785049,A,425.9600001387298,Correct,sub_013_day_13_data.csv,1,300,145.0,Training at home,,,,,,,,,,,,,
13,17,3628,A,52.6254185749462,61.90279741146879,2.6312709287473104,0.9723668679226382,A,446.7626002151519,Correct,sub_013_day_13_data.csv,1,300,145.0,Training at home,,,,,,,,,,,,,
13,17,3629,A,43.29829322494555,63.5478447815182,2.164914661247278,0.9982072115854104,A,340.66929994150996,Correct,sub_013_day_13_data.csv,1,300,145.0,Training at home,,,,,,,,,,,,,
13,17,3630,B,51.55800257666634,41.95152526844776,2.577900128833317,0.6589730179512103,B,441.7367000132799,Correct,sub_013_day_13_data.csv,1,300,145.0,Training at home,,,,,,,,,,,,,
13,17,3631,A,14.98846682891553,30.844808192988143,0.7494233414457766,0.484509114102389,A,415.2751001529395,Correct,sub_013_day_13_data.csv,1,300,145.0,Training at home,,,,,,,,,,,,,
13,17,3632,A,18.91756451445869,48.22506290521727,0.9458782257229345,0.7575175167096811,A,395.14799998141825,Correct,sub_013_day_13_data.csv,1,300,145.0,Training at home,,,,,,,,,,,,,
13,17,3633,A,44.55930157385524,75.13767098961237,2.227965078692762,1.1802597759440656,A,324.1628999821842,Correct,sub_013_day_13_data.csv,1,300,145.0,Training at home,,,,,,,,,,,,,
13,17,3634,B,48.02457432044814,25.031113349531537,2.4012287160224073,0.3931878090503082,B,384.2017001006752,Correct,sub_013_day_13_data.csv,1,300,145.0,Training at home,,,,,,,,,,,,,
13,17,3635,B,42.74582855948614,25.436234240464614,2.137291427974307,0.3995514331241639,B,426.9971000030637,Correct,sub_013_day_13_data.csv,1,300,145.0,Training at home,,,,,,,,,,,,,
13,17,3636,B,57.06182600248533,25.999762695234136,2.8530913001242664,0.4084033173921276,B,416.84970003552735,Correct,sub_013_day_13_data.csv,1,300,145.0,Training at home,,,,,,,,,,,,,
13,17,3637,A,49.00948120042135,60.30185605332582,2.4504740600210675,0.947219339874788,B,402.0273999776691,Incorrect,sub_013_day_13_data.csv,0,300,145.0,Training at home,,,,,,,,,,,,,
13,17,3638,B,40.4003006407911,26.283401188299784,2.020015032039555,0.4128587004225791,B,447.99360004253685,Correct,sub_013_day_13_data.csv,1,300,145.0,Training at home,,,,,,,,,,,,,
13,17,3639,A,30.151174735950697,47.95838632648507,1.5075587367975347,0.7533285708065334,A,410.16170009970665,Correct,sub_013_day_13_data.csv,1,300,145.0,Training at home,,,,,,,,,,,,,
13,17,3640,B,73.90616462543986,41.91614023886025,3.695308231271993,0.6584171912062143,B,456.1078001279384,Correct,sub_013_day_13_data.csv,1,300,145.0,Training at home,,,,,,,,,,,,,
13,17,3641,A,52.37815682759608,74.63645785122232,2.618907841379804,1.1723867383768214,A,478.03350002504885,Correct,sub_013_day_13_data.csv,1,300,145.0,Training at home,,,,,,,,,,,,,
13,17,3642,B,47.075638523708456,29.27099049044931,2.3537819261854227,0.4597876434404613,B,418.9734000246972,Correct,sub_013_day_13_data.csv,1,300,145.0,Training at home,,,,,,,,,,,,,
13,17,3643,A,41.33553719700038,71.82890427582245,2.0667768598500187,1.1282857899416416,A,373.70850006118417,Correct,sub_013_day_13_data.csv,1,300,145.0,Training at home,,,,,,,,,,,,,
13,17,3644,B,65.07191831729929,43.57766590348492,3.2535959158649645,0.6845163753148933,B,392.43360003456473,Correct,sub_013_day_13_data.csv,1,300,145.0,Training at home,,,,,,,,,,,,,
13,17,3645,A,51.69693365324096,65.82765565034752,2.5848466826620484,1.034018396970852,A,428.95459989085793,Correct,sub_013_day_13_data.csv,1,300,145.0,Training at home,,,,,,,,,,,,,
13,17,3646,A,13.562189579414472,42.23930724005056,0.6781094789707237,0.663493486590325,A,367.1883998904377,Correct,sub_013_day_13_data.csv,1,300,145.0,Training at home,,,,,,,,,,,,,
13,17,3647,B,64.63581524620984,34.73589150675051,3.231790762310492,0.5456301078674974,B,404.2452999856323,Correct,sub_013_day_13_data.csv,1,300,145.0,Training at home,,,,,,,,,,,,,
13,17,3648,A,31.54515999270187,57.794164997414406,1.5772579996350935,0.9078286208811672,A,370.0306999962777,Correct,sub_013_day_13_data.csv,1,300,145.0,Training at home,,,,,,,,,,,,,
13,17,3649,B,45.10130692729615,23.146293376195977,2.2550653463648076,0.3635811261424568,B,374.64479985646904,Correct,sub_013_day_13_data.csv,1,300,145.0,Training at home,,,,,,,,,,,,,
13,17,3650,A,64.50207797294034,89.36687736115995,3.225103898647017,1.4037716269604006,A,305.0379001069814,Correct,sub_013_day_13_data.csv,1,300,146.0,Training at home,,,,,,,,,,,,,
13,17,3651,B,43.40988878598628,29.98897674673271,2.170494439299314,0.471065745181053,B,453.1759999226779,Correct,sub_013_day_13_data.csv,1,300,146.0,Training at home,,,,,,,,,,,,,
13,17,3652,B,61.58725595287543,42.85126092993589,3.0793627976437716,0.6731060326727296,B,474.82919995673,Correct,sub_013_day_13_data.csv,1,300,146.0,Training at home,,,,,,,,,,,,,
13,17,3653,B,36.19567971412597,12.745166569730078,1.8097839857062985,0.2002006083212111,B,505.0200000405312,Correct,sub_013_day_13_data.csv,1,300,146.0,Training at home,,,,,,,,,,,,,
13,17,3654,A,24.3207948058167,39.432421571890174,1.216039740290835,0.6194030296175292,A,537.3778000939637,Correct,sub_013_day_13_data.csv,1,300,146.0,Training at home,,,,,,,,,,,,,
13,17,3655,B,76.49435484443497,46.541130463678485,3.824717742221748,0.7310663677722823,B,430.00810011290014,Correct,sub_013_day_13_data.csv,1,300,146.0,Training at home,,,,,,,,,,,,,
13,17,3656,B,32.99268216971013,18.4732044959947,1.6496341084855064,0.2901764176643944,A,436.6675999481231,Incorrect,sub_013_day_13_data.csv,0,300,146.0,Training at home,,,,,,,,,,,,,
13,17,3657,B,70.5589285772755,48.86964548344909,3.5279464288637747,0.7676425961717064,B,452.2026998456567,Correct,sub_013_day_13_data.csv,1,300,146.0,Training at home,,,,,,,,,,,,,
13,17,3658,B,53.7366705173288,41.53593297761247,2.68683352586644,0.6524449095123267,B,450.9150998201221,Correct,sub_013_day_13_data.csv,1,300,146.0,Training at home,,,,,,,,,,,,,
13,17,3659,A,58.45405000684216,70.28815551838409,2.922702500342108,1.1040837650546615,A,390.8530999906361,Correct,sub_013_day_13_data.csv,1,300,146.0,Training at home,,,,,,,,,,,,,
13,17,3660,A,45.92247974532014,74.58935915101931,2.296123987266007,1.1716469137240644,A,449.76960006169975,Correct,sub_013_day_13_data.csv,1,300,146.0,Training at home,,,,,,,,,,,,,
13,17,3661,B,47.7517403891515,28.04203828234686,2.387587019457575,0.4404833072975231,B,372.7578001562506,Correct,sub_013_day_13_data.csv,1,300,146.0,Training at home,,,,,,,,,,,,,
13,17,3662,A,47.370235566560055,60.284356043341326,2.3685117783280027,0.9469444503607628,A,380.5652998853475,Correct,sub_013_day_13_data.csv,1,300,146.0,Training at home,,,,,,,,,,,,,
13,17,3663,B,55.76505372464106,25.50599599868543,2.7882526862320525,0.400647248259804,B,382.1058999747038,Correct,sub_013_day_13_data.csv,1,300,146.0,Training at home,,,,,,,,,,,,,
13,17,3664,B,54.40102512663787,47.47211093245519,2.7200512563318937,0.7456901747790045,B,451.8450999166817,Correct,sub_013_day_13_data.csv,1,300,146.0,Training at home,,,,,,,,,,,,,
13,17,3665,A,44.805388109473185,59.69823862769494,2.2402694054736596,0.9377377395250842,B,411.928900051862,Incorrect,sub_013_day_13_data.csv,0,300,146.0,Training at home,,,,,,,,,,,,,
13,17,3666,B,59.40058491239376,39.017681035913775,2.9700292456196884,0.6128883005126826,B,523.6802001018077,Correct,sub_013_day_13_data.csv,1,300,146.0,Training at home,,,,,,,,,,,,,
13,17,3667,A,60.60743680683374,85.94288021196365,3.030371840341687,1.3499876055112632,A,480.80590018071234,Correct,sub_013_day_13_data.csv,1,300,146.0,Training at home,,,,,,,,,,,,,
13,17,3668,A,50.93385608907762,59.81472193637545,2.546692804453881,0.9395674550591668,B,685.8383999206126,Incorrect,sub_013_day_13_data.csv,0,300,146.0,Training at home,,,,,,,,,,,,,
13,17,3669,A,23.79448368843672,47.92727352371354,1.189724184421836,0.7528398520434351,A,418.1123999878764,Correct,sub_013_day_13_data.csv,1,300,146.0,Training at home,,,,,,,,,,,,,
13,17,3670,A,27.622308826219065,58.052967269878046,1.3811154413109532,0.9118938774706878,A,421.6013001278043,Correct,sub_013_day_13_data.csv,1,300,146.0,Training at home,,,,,,,,,,,,,
13,17,3671,A,39.48294316784093,48.89000086858249,1.9741471583920465,0.7679623378136868,A,472.1210999414325,Correct,sub_013_day_13_data.csv,1,300,146.0,Training at home,,,,,,,,,,,,,
13,17,3672,A,41.89884757757461,49.773630479210894,2.0949423788787302,0.7818423592799099,A,556.7859997972846,Correct,sub_013_day_13_data.csv,1,300,146.0,Training at home,,,,,,,,,,,,,
13,17,3673,A,39.824234267742945,60.70157126557548,1.9912117133871472,0.9534980517464462,A,417.5236001610756,Correct,sub_013_day_13_data.csv,1,300,146.0,Training at home,,,,,,,,,,,,,
13,17,3674,B,45.536619141512816,29.683242303310305,2.2768309570756404,0.4662632797740271,B,420.3844000585377,Correct,sub_013_day_13_data.csv,1,300,146.0,Training at home,,,,,,,,,,,,,
13,17,3675,A,55.186732549249164,71.06215439287027,2.7593366274624582,1.1162417109445244,B,419.889000011608,Incorrect,sub_013_day_13_data.csv,0,300,147.0,Training at home,,,,,,,,,,,,,
13,17,3676,A,59.22217668741579,69.83459212334016,2.96110883437079,1.0969592079056254,A,478.7791999988258,Correct,sub_013_day_13_data.csv,1,300,147.0,Training at home,,,,,,,,,,,,,
13,17,3677,B,83.23679716813513,65.28937178431867,4.161839858406756,1.0255630537755414,B,463.816300034523,Correct,sub_013_day_13_data.csv,1,300,147.0,Training at home,,,,,,,,,,,,,
13,17,3678,A,52.79973750484581,70.41661664015686,2.63998687524229,1.1061016276368278,A,370.7405000459403,Correct,sub_013_day_13_data.csv,1,300,147.0,Training at home,,,,,,,,,,,,,
13,17,3679,B,38.71266104787035,26.786717688196077,1.9356330523935172,0.4207647775151028,B,432.58080002851784,Correct,sub_013_day_13_data.csv,1,300,147.0,Training at home,,,,,,,,,,,,,
13,17,3680,A,52.65944543966742,80.80866504653419,2.632972271983371,1.2693395422829503,A,421.1244999896735,Correct,sub_013_day_13_data.csv,1,300,147.0,Training at home,,,,,,,,,,,,,
13,17,3681,B,58.81615582463294,25.934712392536156,2.940807791231647,0.4073815096267787,B,473.85700000450015,Correct,sub_013_day_13_data.csv,1,300,147.0,Training at home,,,,,,,,,,,,,
13,17,3682,B,47.690193128638555,24.28015276144648,2.384509656431928,0.3813917477169909,B,503.6396000068635,Correct,sub_013_day_13_data.csv,1,300,147.0,Training at home,,,,,,,,,,,,,
13,17,3683,B,45.79644357146762,35.26288095153026,2.289822178573381,0.5539080387086946,B,410.9223000705242,Correct,sub_013_day_13_data.csv,1,300,147.0,Training at home,,,,,,,,,,,,,
13,17,3684,B,77.35577837293388,46.64081175386078,3.867788918646694,0.7326321578169674,B,395.58180002495646,Correct,sub_013_day_13_data.csv,1,300,147.0,Training at home,,,,,,,,,,,,,
13,17,3685,B,32.60244056252764,10.1441247496725,1.6301220281263822,0.1593435389533476,A,400.4363999702037,Incorrect,sub_013_day_13_data.csv,0,300,147.0,Training at home,,,,,,,,,,,,,
13,17,3686,A,43.596468514254326,64.68714491484042,2.1798234257127165,1.016103296230805,A,441.0961999092251,Correct,sub_013_day_13_data.csv,1,300,147.0,Training at home,,,,,,,,,,,,,
13,17,3687,A,47.82104874273219,65.70983447810849,2.3910524371366093,1.032167666325135,A,393.26689997687936,Correct,sub_013_day_13_data.csv,1,300,147.0,Training at home,,,,,,,,,,,,,
13,17,3688,B,62.31605628911397,30.36749619355303,3.115802814455699,0.477011514747911,B,460.9462998341769,Correct,sub_013_day_13_data.csv,1,300,147.0,Training at home,,,,,,,,,,,,,
13,17,3689,B,40.469967861859786,24.057222815126813,2.0234983930929893,0.3778899723088758,B,684.8220999818295,Correct,sub_013_day_13_data.csv,1,300,147.0,Training at home,,,,,,,,,,,,,
13,17,3690,A,14.439338138326836,32.14263142985956,0.7219669069163417,0.504895273835456,A,500.3921000752598,Correct,sub_013_day_13_data.csv,1,300,147.0,Training at home,,,,,,,,,,,,,
13,17,3691,B,56.26554195390122,38.907781022702096,2.813277097695061,0.6111619951420063,B,433.0577000509947,Correct,sub_013_day_13_data.csv,1,300,147.0,Training at home,,,,,,,,,,,,,
13,17,3692,A,30.84809918184896,40.06638371546548,1.542404959092448,0.6293612836820803,B,534.7907999530435,Incorrect,sub_013_day_13_data.csv,0,300,147.0,Training at home,,,,,,,,,,,,,
13,17,3693,B,84.9594031751203,56.68153968445162,4.247970158756015,0.8903515433341577,A,438.8200000394136,Incorrect,sub_013_day_13_data.csv,0,300,147.0,Training at home,,,,,,,,,,,,,
13,17,3694,B,67.94330416613137,45.41182121677179,3.3971652083065687,0.7133272196037167,B,671.7816998716444,Correct,sub_013_day_13_data.csv,1,300,147.0,Training at home,,,,,,,,,,,,,
13,17,3695,A,59.7522679837441,72.13035443865019,2.9876133991872047,1.1330209580264567,A,588.9471999835223,Correct,sub_013_day_13_data.csv,1,300,147.0,Training at home,,,,,,,,,,,,,
13,17,3696,B,35.867790808274904,21.692934493919314,1.793389540413745,0.3407518182045077,B,664.9379001464695,Correct,sub_013_day_13_data.csv,1,300,147.0,Training at home,,,,,,,,,,,,,
13,17,3697,A,26.471452600053873,42.81693060575527,1.3235726300026938,0.6725667732015236,B,445.5147001426667,Incorrect,sub_013_day_13_data.csv,0,300,147.0,Training at home,,,,,,,,,,,,,
13,17,3698,B,45.095533215357406,34.55634158041661,2.2547766607678703,0.5428097442198816,B,589.1074000392109,Correct,sub_013_day_13_data.csv,1,300,147.0,Training at home,,,,,,,,,,,,,
13,17,3699,B,58.16554620882128,46.35983970644124,2.9082773104410635,0.728218659216781,B,442.4737999215722,Correct,sub_013_day_13_data.csv,1,300,147.0,Training at home,,,,,,,,,,,,,
13,17,3700,A,21.428461343651794,42.05051177003622,1.0714230671825895,0.6605278942821847,A,381.9013999309391,Correct,sub_013_day_13_data.csv,1,300,148.0,Training at home,,,,,,,,,,,,,
13,17,3701,A,45.13548970634072,59.31933352048788,2.256774485317036,0.9317859120190374,A,413.21040014736354,Correct,sub_013_day_13_data.csv,1,300,148.0,Training at home,,,,,,,,,,,,,
13,17,3702,A,45.73579745670337,66.63231424745628,2.2867898728351683,1.0466579446574755,A,680.56849995628,Correct,sub_013_day_13_data.csv,1,300,148.0,Training at home,,,,,,,,,,,,,
13,17,3703,B,74.1776460567441,43.90837686009543,3.7088823028372047,0.6897111708736394,A,386.58439996652305,Incorrect,sub_013_day_13_data.csv,0,300,148.0,Training at home,,,,,,,,,,,,,
13,17,3704,B,60.26838831854091,40.809347768561025,3.013419415927045,0.6410317357375117,B,615.8390999771655,Correct,sub_013_day_13_data.csv,1,300,148.0,Training at home,,,,,,,,,,,,,
13,17,3705,A,39.460252500942225,55.61386446269126,1.9730126250471112,0.8735805401686466,A,536.9325999636203,Correct,sub_013_day_13_data.csv,1,300,148.0,Training at home,,,,,,,,,,,,,
13,17,3706,A,42.589758128640625,49.687511158838774,2.1294879064320313,0.7804896001588438,A,948.6404999624938,Correct,sub_013_day_13_data.csv,1,300,148.0,Training at home,,,,,,,,,,,,,
13,17,3707,A,42.9322355102,59.42036755852124,2.1466117755100003,0.933372950977278,A,637.9145001992583,Correct,sub_013_day_13_data.csv,1,300,148.0,Training at home,,,,,,,,,,,,,
13,17,3708,B,50.27888743185008,34.304408529942314,2.513944371592504,0.538852389117049,A,470.9964001085609,Incorrect,sub_013_day_13_data.csv,0,300,148.0,Training at home,,,,,,,,,,,,,
13,17,3709,B,56.4914886688023,37.54489563262326,2.824574433440115,0.5897538414962237,B,473.7575000617653,Correct,sub_013_day_13_data.csv,1,300,148.0,Training at home,,,,,,,,,,,,,
13,17,3710,A,45.082245211455,56.30567893137705,2.25411226057275,0.8844475364309987,B,460.2967998944223,Incorrect,sub_013_day_13_data.csv,0,300,148.0,Training at home,,,,,,,,,,,,,
13,17,3711,B,42.35284876205741,22.68185982187878,2.117642438102871,0.3562858209308393,B,451.6953001730144,Correct,sub_013_day_13_data.csv,1,300,148.0,Training at home,,,,,,,,,,,,,
13,17,3712,A,52.97996683884207,77.70968903956707,2.6489983419421033,1.2206609409972558,A,413.91279990784824,Correct,sub_013_day_13_data.csv,1,300,148.0,Training at home,,,,,,,,,,,,,
13,17,3713,A,68.3121394435317,84.79348216560007,3.415606972176585,1.3319329032187317,A,356.8922998383641,Correct,sub_013_day_13_data.csv,1,300,148.0,Training at home,,,,,,,,,,,,,
13,17,3714,A,33.57203714021896,66.26795551493308,1.678601857010948,1.0409346110706448,A,450.60570002533495,Correct,sub_013_day_13_data.csv,1,300,148.0,Training at home,,,,,,,,,,,,,
13,17,3715,A,30.25279089907712,62.81864415757656,1.512639544953856,0.9867529549695694,A,491.9721998739987,Correct,sub_013_day_13_data.csv,1,300,148.0,Training at home,,,,,,,,,,,,,
13,17,3716,B,61.723452221234695,29.813801021391587,3.086172611061735,0.4683140913219584,B,684.2800001613796,Correct,sub_013_day_13_data.csv,1,300,148.0,Training at home,,,,,,,,,,,,,
13,17,3717,B,49.68517849455749,39.05236460437117,2.4842589247278744,0.6134331087320126,B,469.002699945122,Correct,sub_013_day_13_data.csv,1,300,148.0,Training at home,,,,,,,,,,,,,
13,17,3718,A,14.255671684545746,40.19144728750364,0.7127835842272873,0.6313257776778142,A,399.1100999992341,Correct,sub_013_day_13_data.csv,1,300,148.0,Training at home,,,,,,,,,,,,,
13,17,3719,A,56.11350378010225,75.18637942610873,2.8056751890051124,1.18102488627539,A,538.2608999498188,Correct,sub_013_day_13_data.csv,1,300,148.0,Training at home,,,,,,,,,,,,,
13,17,3720,A,55.89515368886981,63.5177319974945,2.79475768444349,0.9977342010800702,A,415.15949997119606,Correct,sub_013_day_13_data.csv,1,300,148.0,Training at home,,,,,,,,,,,,,
13,17,3721,B,51.4965800960145,31.789745748494923,2.574829004800725,0.4993521585147951,B,342.1191999223083,Correct,sub_013_day_13_data.csv,1,300,148.0,Training at home,,,,,,,,,,,,,
13,17,3722,A,37.68878051038344,65.25860063093975,1.884439025519172,1.0250797016285529,A,546.9631999731064,Correct,sub_013_day_13_data.csv,1,300,148.0,Training at home,,,,,,,,,,,,,
13,17,3723,B,55.671942224299706,35.561683694820374,2.7835971112149855,0.5586016212246581,B,478.47119998186827,Correct,sub_013_day_13_data.csv,1,300,148.0,Training at home,,,,,,,,,,,,,
13,17,3724,A,47.80846352664963,62.16950112671584,2.3904231763324817,0.9765562400851642,A,409.1676000971347,Correct,sub_013_day_13_data.csv,1,300,148.0,Training at home,,,,,,,,,,,,,
13,17,3725,A,43.63674371334106,64.21434411118804,2.181837185667053,1.0086765585739768,A,537.6933999359608,Correct,sub_013_day_13_data.csv,1,300,149.0,Training at home,,,,,,,,,,,,,
13,17,3726,A,62.011124707887305,81.56113984014779,3.100556235394365,1.2811593887010904,A,506.9336998276413,Correct,sub_013_day_13_data.csv,1,300,149.0,Training at home,,,,,,,,,,,,,
13,17,3727,A,29.747724069384105,50.70636462354078,1.4873862034692054,0.7964937129578054,A,463.5511001106352,Correct,sub_013_day_13_data.csv,1,300,149.0,Training at home,,,,,,,,,,,,,
13,17,3728,B,63.28408530908398,35.17636609195236,3.164204265454199,0.5525490664723132,B,443.52400000207126,Correct,sub_013_day_13_data.csv,1,300,149.0,Training at home,,,,,,,,,,,,,
13,17,3729,B,56.5803264025517,43.362081480407106,2.829016320127585,0.681129983116045,B,443.659899989143,Correct,sub_013_day_13_data.csv,1,300,149.0,Training at home,,,,,,,,,,,,,
13,17,3730,A,30.523602625883743,42.35218693241181,1.5261801312941872,0.6652665966516329,B,670.7279998809099,Incorrect,sub_013_day_13_data.csv,0,300,149.0,Training at home,,,,,,,,,,,,,
13,17,3731,A,15.223077525999528,31.436616966925243,0.7611538762999764,0.4938052245850429,A,400.6450998131186,Correct,sub_013_day_13_data.csv,1,300,149.0,Training at home,,,,,,,,,,,,,
13,17,3732,B,62.28210322030101,52.347969325035706,3.1141051610150505,0.82227997930938,A,433.3552001044154,Incorrect,sub_013_day_13_data.csv,0,300,149.0,Training at home,,,,,,,,,,,,,
13,17,3733,B,54.707298122957134,33.21261582124659,2.735364906147857,0.521702549352642,B,357.1637000422925,Correct,sub_013_day_13_data.csv,1,300,149.0,Training at home,,,,,,,,,,,,,
13,17,3734,B,54.348321530858286,38.241723991006154,2.7174160765429143,0.6006995957537675,B,464.2316000536084,Correct,sub_013_day_13_data.csv,1,300,149.0,Training at home,,,,,,,,,,,,,
13,17,3735,B,55.32981538629206,38.509130021316246,2.766490769314603,0.6048999998555064,B,325.0897000543773,Correct,sub_013_day_13_data.csv,1,300,149.0,Training at home,,,,,,,,,,,,,
13,17,3736,A,34.35954109791359,46.30145514635416,1.7179770548956796,0.7273015566915177,A,567.4833999946713,Correct,sub_013_day_13_data.csv,1,300,149.0,Training at home,,,,,,,,,,,,,
13,17,3737,B,67.66178846748981,49.36381771065949,3.383089423374491,0.7754050353647679,A,379.0943000931293,Incorrect,sub_013_day_13_data.csv,0,300,149.0,Training at home,,,,,,,,,,,,,
13,17,3738,B,44.93881659519735,21.8813378030473,2.2469408297598674,0.34371125046385,B,405.1147000864148,Correct,sub_013_day_13_data.csv,1,300,149.0,Training at home,,,,,,,,,,,,,
13,17,3739,A,37.02915913517525,56.47255618173882,1.8514579567587623,0.8870688381499375,A,438.30769998021424,Correct,sub_013_day_13_data.csv,1,300,149.0,Training at home,,,,,,,,,,,,,
13,17,3740,A,41.67354541605952,48.89733994256105,2.083677270802976,0.7680776197181628,A,454.7816999256611,Correct,sub_013_day_13_data.csv,1,300,149.0,Training at home,,,,,,,,,,,,,
13,17,3741,A,36.531860225368256,67.23731220792551,1.8265930112684128,1.0561612303977104,A,380.7961000129581,Correct,sub_013_day_13_data.csv,1,300,149.0,Training at home,,,,,,,,,,,,,
13,17,3742,B,68.22981356000166,58.44780573286144,3.4114906780000833,0.9180959855440046,A,523.2426000293344,Incorrect,sub_013_day_13_data.csv,0,300,149.0,Training at home,,,,,,,,,,,,,
13,17,3743,A,48.63581947829599,66.08319917282661,2.4317909739147994,1.0380324652353157,B,664.3455000594258,Incorrect,sub_013_day_13_data.csv,0,300,149.0,Training at home,,,,,,,,,,,,,
13,17,3744,B,76.02320394339617,43.50011626368561,3.801160197169809,0.683298228421483,B,660.8915999531746,Correct,sub_013_day_13_data.csv,1,300,149.0,Training at home,,,,,,,,,,,,,
13,17,3745,B,63.34542599946465,50.4366121702623,3.1672712999732324,0.7922564513302679,B,581.0388999525458,Correct,sub_013_day_13_data.csv,1,300,149.0,Training at home,,,,,,,,,,,,,
13,17,3746,A,29.736143814958044,45.57307232931283,1.4868071907479024,0.7158601461564276,A,417.3850999213755,Correct,sub_013_day_13_data.csv,1,300,149.0,Training at home,,,,,,,,,,,,,
13,17,3747,B,84.61064151163002,57.76814664835555,4.230532075581501,0.907419925609858,A,484.7105999942869,Incorrect,sub_013_day_13_data.csv,0,300,149.0,Training at home,,,,,,,,,,,,,
13,17,3748,B,31.651291255079368,16.391334247497223,1.5825645627539684,0.2574744762723602,A,577.9032001737505,Incorrect,sub_013_day_13_data.csv,0,300,149.0,Training at home,,,,,,,,,,,,,
13,17,3749,A,48.13110170533055,75.36308387077092,2.406555085266527,1.1838005532014266,A,489.2561000306159,Correct,sub_013_day_13_data.csv,1,300,149.0,Training at home,,,,,,,,,,,,,
13,17,3750,A,52.56771611947901,64.14006738515306,2.6283858059739504,1.0075098224897556,B,691.8450999073684,Incorrect,sub_013_day_13_data.csv,0,300,150.0,Training at home,,,,,,,,,,,,,
13,17,3751,A,62.48355852455948,75.67018954435478,3.124177926227974,1.188624557841461,A,433.66790004074574,Correct,sub_013_day_13_data.csv,1,300,150.0,Training at home,,,,,,,,,,,,,
13,17,3752,A,22.90674348234199,36.23381516416968,1.1453371741170997,0.5691594376564295,A,513.7130001094192,Correct,sub_013_day_13_data.csv,1,300,150.0,Training at home,,,,,,,,,,,,,
13,17,3753,A,59.32038612253413,69.57860901703324,2.966019306126707,1.0929382346745409,A,698.4033000189811,Correct,sub_013_day_13_data.csv,1,300,150.0,Training at home,,,,,,,,,,,,,
13,17,3754,A,49.021121291294634,59.80204463864313,2.4510560645647317,0.9393683205320508,A,480.7163998484611,Correct,sub_013_day_13_data.csv,1,300,150.0,Training at home,,,,,,,,,,,,,
13,17,3755,B,60.22034216703393,51.09573550342949,3.0110171083516963,0.8026099364367062,A,552.0486999303102,Incorrect,sub_013_day_13_data.csv,0,300,150.0,Training at home,,,,,,,,,,,,,
13,17,3756,B,52.27408472099642,23.410949417805455,2.613704236049821,0.3677383335226993,B,559.950300026685,Correct,sub_013_day_13_data.csv,1,300,150.0,Training at home,,,,,,,,,,,,,
13,17,3757,A,33.48606285411957,47.576286279932205,1.6743031427059782,0.7473265573105994,A,478.87819982133806,Correct,sub_013_day_13_data.csv,1,300,150.0,Training at home,,,,,,,,,,,,,
13,17,3758,A,56.81082086841444,70.30510421016402,2.840541043420722,1.1043499944825803,A,419.3792999722063,Correct,sub_013_day_13_data.csv,1,300,150.0,Training at home,,,,,,,,,,,,,
13,17,3759,B,55.793061533406735,36.25074274814812,2.789653076670337,0.5694253355237779,B,519.2829999141395,Correct,sub_013_day_13_data.csv,1,300,150.0,Training at home,,,,,,,,,,,,,
13,17,3760,A,23.73636301827131,51.61534458567289,1.1868181509135654,0.8107719368142782,A,457.7330001629889,Correct,sub_013_day_13_data.csv,1,300,150.0,Training at home,,,,,,,,,,,,,
13,17,3761,B,63.141330341839414,51.972965772516474,3.1570665170919705,0.8163894372810576,B,1272.255999967456,Correct,sub_013_day_13_data.csv,1,300,150.0,Training at home,,,,,,,,,,,,,
13,17,3762,B,51.751969378174735,20.51967581054567,2.587598468908737,0.3223223139022723,B,443.8488001469522,Correct,sub_013_day_13_data.csv,1,300,150.0,Training at home,,,,,,,,,,,,,
13,17,3763,B,48.26725794832944,28.30496830809435,2.413362897416472,0.4446134024840056,A,514.2876000609249,Incorrect,sub_013_day_13_data.csv,0,300,150.0,Training at home,,,,,,,,,,,,,
13,17,3764,B,80.73122480793884,51.74032059880222,4.036561240396942,0.8127350554378885,A,644.8488000314683,Incorrect,sub_013_day_13_data.csv,0,300,150.0,Training at home,,,,,,,,,,,,,
13,17,3765,B,49.60152244490786,29.634673854487353,2.480076122245393,0.4655003683639349,B,596.4699999894947,Correct,sub_013_day_13_data.csv,1,300,150.0,Training at home,,,,,,,,,,,,,
13,17,3766,B,56.243031098617344,23.892896589100207,2.8121515549308675,0.3753087419864891,B,516.3767000194639,Correct,sub_013_day_13_data.csv,1,300,150.0,Training at home,,,,,,,,,,,,,
13,17,3767,A,17.718614753681944,40.11351786777391,0.8859307376840972,0.630101665215207,A,479.80870003812015,Correct,sub_013_day_13_data.csv,1,300,150.0,Training at home,,,,,,,,,,,,,
13,17,3768,A,62.27873116929468,75.9788609758211,3.113936558464734,1.1934731573487989,A,591.8862998951226,Correct,sub_013_day_13_data.csv,1,300,150.0,Training at home,,,,,,,,,,,,,
13,17,3769,B,42.06754459681899,17.411401184227085,2.10337722984095,0.2734976502453621,B,436.50420010089874,Correct,sub_013_day_13_data.csv,1,300,150.0,Training at home,,,,,,,,,,,,,
13,17,3770,A,59.371514207249064,81.76389966186092,2.968575710362453,1.284344332532776,A,335.1080999709666,Correct,sub_013_day_13_data.csv,1,300,150.0,Training at home,,,,,,,,,,,,,
13,17,3771,B,89.11375887732126,64.89815121327476,4.455687943866064,1.0194177754159175,B,458.0089000519365,Correct,sub_013_day_13_data.csv,1,300,150.0,Training at home,,,,,,,,,,,,,
13,17,3772,A,13.168788181994625,40.27841344473207,0.6584394090997313,0.632691838881113,A,361.0823000781238,Correct,sub_013_day_13_data.csv,1,300,150.0,Training at home,,,,,,,,,,,,,
13,17,3773,B,73.45270422488376,42.98867671819419,3.672635211244188,0.6752645548271272,B,523.2951999641955,Correct,sub_013_day_13_data.csv,1,300,150.0,Training at home,,,,,,,,,,,,,
13,17,3774,B,67.89245792057247,56.02414792434887,3.394622896028624,0.8800252577138113,A,540.9404998645186,Incorrect,sub_013_day_13_data.csv,0,300,150.0,Training at home,,,,,,,,,,,,,
13,17,3775,B,64.66000519011484,53.39140963044095,3.233000259505742,0.8386703012989831,B,731.2351998407394,Correct,sub_013_day_13_data.csv,1,300,151.0,Training at home,,,,,,,,,,,,,
13,17,3776,B,45.155976904039235,17.988135348119002,2.2577988452019615,0.2825569693071477,B,589.2342000734061,Correct,sub_013_day_13_data.csv,1,300,151.0,Training at home,,,,,,,,,,,,,
13,17,3777,B,37.86879144376831,25.174590232900684,1.8934395721884156,0.3954415386640707,B,422.38879995420575,Correct,sub_013_day_13_data.csv,1,300,151.0,Training at home,,,,,,,,,,,,,
13,17,3778,A,32.49057938236563,40.621905100493755,1.6245289691182816,0.6380873931926646,B,459.1046997811645,Incorrect,sub_013_day_13_data.csv,0,300,151.0,Training at home,,,,,,,,,,,,,
13,17,3779,B,66.53474044850154,53.16360986723511,3.326737022425077,0.8350920309860983,B,901.3088999781758,Correct,sub_013_day_13_data.csv,1,300,151.0,Training at home,,,,,,,,,,,,,
13,17,3780,A,43.720885015732904,73.07789068226504,2.186044250786645,1.1479048225362092,A,433.4513999056071,Correct,sub_013_day_13_data.csv,1,300,151.0,Training at home,,,,,,,,,,,,,
13,17,3781,A,24.148686504411735,56.73901230678967,1.2074343252205866,0.8912543211747562,A,485.5312001891434,Correct,sub_013_day_13_data.csv,1,300,151.0,Training at home,,,,,,,,,,,,,
13,17,3782,A,52.221567174152696,71.5160967250753,2.611078358707635,1.123372220424568,A,408.20459998212755,Correct,sub_013_day_13_data.csv,1,300,151.0,Training at home,,,,,,,,,,,,,
13,17,3783,A,14.359294058091702,31.34630422991602,0.7179647029045851,0.4923865954294741,A,512.4762000050396,Correct,sub_013_day_13_data.csv,1,300,151.0,Training at home,,,,,,,,,,,,,
13,17,3784,A,36.770701263105586,64.39606491007953,1.8385350631552797,1.0115310222079867,A,455.5555998813361,Correct,sub_013_day_13_data.csv,1,300,151.0,Training at home,,,,,,,,,,,,,
13,17,3785,B,59.25997346624214,49.107975611539175,2.9629986733121068,0.7713862770693909,A,648.8407999277115,Incorrect,sub_013_day_13_data.csv,0,300,151.0,Training at home,,,,,,,,,,,,,
13,17,3786,A,18.71649233849548,33.136852830367175,0.9358246169247738,0.5205124670748383,B,1522.3736001644284,Incorrect,sub_013_day_13_data.csv,0,300,151.0,Training at home,,,,,,,,,,,,,
13,17,3787,B,70.86425687449959,59.388396845433455,3.5432128437249792,0.932870756190445,A,419.5355998817831,Incorrect,sub_013_day_13_data.csv,0,300,151.0,Training at home,,,,,,,,,,,,,
13,17,3788,B,50.367533566937965,43.19567058343322,2.518376678346898,0.6785160068589927,A,610.5583999305964,Incorrect,sub_013_day_13_data.csv,0,300,151.0,Training at home,,,,,,,,,,,,,
13,17,3789,B,59.378159366263745,34.1993938149878,2.968907968313187,0.5372028218319495,B,646.7794000636786,Correct,sub_013_day_13_data.csv,1,300,151.0,Training at home,,,,,,,,,,,,,
13,17,3790,A,21.194861598681022,33.15796595944264,1.0597430799340513,0.5208441113308272,A,413.3111000992358,Correct,sub_013_day_13_data.csv,1,300,151.0,Training at home,,,,,,,,,,,,,
13,17,3791,B,57.50647185639539,35.36040983587662,2.8753235928197696,0.5554400188415711,A,504.86329989507794,Incorrect,sub_013_day_13_data.csv,0,300,151.0,Training at home,,,,,,,,,,,,,
13,17,3792,B,48.953109483200386,18.23386242977832,2.4476554741600194,0.2864168412797925,B,766.8359999079257,Correct,sub_013_day_13_data.csv,1,300,151.0,Training at home,,,,,,,,,,,,,
13,17,3793,A,21.634650111730377,46.07794805624245,1.0817325055865188,0.7237907155299167,A,477.2518000099808,Correct,sub_013_day_13_data.csv,1,300,151.0,Training at home,,,,,,,,,,,,,
13,17,3794,B,43.07104152310413,34.50679570684028,2.1535520761552065,0.5420314794576662,B,528.1495999079198,Correct,sub_013_day_13_data.csv,1,300,151.0,Training at home,,,,,,,,,,,,,
13,17,3795,A,63.0438020260896,74.94137014915968,3.15219010130448,1.177176289552767,A,521.2131999433041,Correct,sub_013_day_13_data.csv,1,300,151.0,Training at home,,,,,,,,,,,,,
13,17,3796,A,32.45480329448014,58.4940944549204,1.6227401647240072,0.918823087089827,A,473.7811998929829,Correct,sub_013_day_13_data.csv,1,300,151.0,Training at home,,,,,,,,,,,,,
13,17,3797,A,35.453697028291906,65.96809393486407,1.7726848514145954,1.0362243963854516,A,474.2045998573303,Correct,sub_013_day_13_data.csv,1,300,151.0,Training at home,,,,,,,,,,,,,
13,17,3798,B,66.30720747655748,50.178656515075474,3.315360373827874,0.7882044933738336,A,368.7263000756502,Incorrect,sub_013_day_13_data.csv,0,300,151.0,Training at home,,,,,,,,,,,,,
13,17,3799,B,43.55333212965114,20.749831319932166,2.177666606482557,0.3259375881896315,B,373.52490006014705,Correct,sub_013_day_13_data.csv,1,300,151.0,Training at home,,,,,,,,,,,,,
13,17,3800,A,45.98395709208853,64.56538194380961,2.2991978546044267,1.014190647954457,A,522.7053000126034,Correct,sub_013_day_13_data.csv,1,300,152.0,Training at home,,,,,,,,,,,,,
13,17,3801,B,63.70237527046764,51.11382652173543,3.1851187635233824,0.8028941094877359,B,339.24020011909306,Correct,sub_013_day_13_data.csv,1,300,152.0,Training at home,,,,,,,,,,,,,
13,17,3802,B,61.799693431015406,52.287492018159,3.0899846715507704,0.8213300039944164,B,401.6211999114603,Correct,sub_013_day_13_data.csv,1,300,152.0,Training at home,,,,,,,,,,,,,
13,17,3803,B,45.00864229244427,26.03258678066958,2.2504321146222135,0.4089189169204515,B,373.4604001510888,Correct,sub_013_day_13_data.csv,1,300,152.0,Training at home,,,,,,,,,,,,,
13,17,3804,A,15.079688499189782,30.576317461273742,0.7539844249594891,0.4802916715508344,A,383.105400018394,Correct,sub_013_day_13_data.csv,1,300,152.0,Training at home,,,,,,,,,,,,,
13,17,3805,A,41.97578569665587,67.5638970123774,2.098789284832794,1.0612912125099108,A,483.19850000552833,Correct,sub_013_day_13_data.csv,1,300,152.0,Training at home,,,,,,,,,,,,,
13,17,3806,B,58.09749212467579,37.13216673201427,2.90487460623379,0.5832707110858367,B,392.7201998885721,Correct,sub_013_day_13_data.csv,1,300,152.0,Training at home,,,,,,,,,,,,,
13,17,3807,A,60.48136551856432,77.10865154199436,3.0240682759282156,1.2112198660627238,A,321.8066000845283,Correct,sub_013_day_13_data.csv,1,300,152.0,Training at home,,,,,,,,,,,,,
13,17,3808,B,59.93379507402303,33.491871801046834,2.9966897537011516,0.5260890920256993,B,443.89330013655126,Correct,sub_013_day_13_data.csv,1,300,152.0,Training at home,,,,,,,,,,,,,
13,17,3809,B,69.23079893533453,46.01237158715311,3.4615399467667265,0.7227606427622196,A,463.5469999630004,Incorrect,sub_013_day_13_data.csv,0,300,152.0,Training at home,,,,,,,,,,,,,
13,17,3810,B,76.1956803239899,61.33662983225863,3.809784016199495,0.9634735283849012,B,353.3203999977559,Correct,sub_013_day_13_data.csv,1,300,152.0,Training at home,,,,,,,,,,,,,
13,17,3811,B,72.1974500784941,49.49367425245194,3.6098725039247057,0.7774448171533466,B,371.1145999841392,Correct,sub_013_day_13_data.csv,1,300,152.0,Training at home,,,,,,,,,,,,,
13,17,3812,B,65.99823151605133,42.97922910511344,3.2999115758025663,0.6751161520678851,B,333.09109997935593,Correct,sub_013_day_13_data.csv,1,300,152.0,Training at home,,,,,,,,,,,,,
13,17,3813,A,30.851214414961888,63.46013133203774,1.5425607207480942,0.996829411942866,A,434.51930000446737,Correct,sub_013_day_13_data.csv,1,300,152.0,Training at home,,,,,,,,,,,,,
13,17,3814,A,57.28506912224771,74.93147568960842,2.864253456112386,1.1770208677455798,A,421.8091000802815,Correct,sub_013_day_13_data.csv,1,300,152.0,Training at home,,,,,,,,,,,,,
13,17,3815,B,57.294044977294945,38.24070276798005,2.8647022488647473,0.600683554419985,B,471.1280998308211,Correct,sub_013_day_13_data.csv,1,300,152.0,Training at home,,,,,,,,,,,,,
13,17,3816,B,50.46856832787008,40.65051789865396,2.523428416393504,0.6385368419751584,B,372.77640006504953,Correct,sub_013_day_13_data.csv,1,300,152.0,Training at home,,,,,,,,,,,,,
13,17,3817,B,39.991620341170986,16.977345242031728,1.999581017058549,0.2666795154491225,A,438.57140000909567,Incorrect,sub_013_day_13_data.csv,0,300,152.0,Training at home,,,,,,,,,,,,,
13,17,3818,A,47.54226997154844,77.31829249757942,2.377113498577422,1.2145128984925115,A,472.5109999999404,Correct,sub_013_day_13_data.csv,1,300,152.0,Training at home,,,,,,,,,,,,,
13,17,3819,A,66.77245082484748,83.8587871717946,3.3386225412423745,1.3172507485892997,B,455.9156000614166,Incorrect,sub_013_day_13_data.csv,0,300,152.0,Training at home,,,,,,,,,,,,,
13,17,3820,B,56.75895444263299,27.003317654898975,2.83794772213165,0.4241671218359109,B,417.0562999788672,Correct,sub_013_day_13_data.csv,1,300,152.0,Training at home,,,,,,,,,,,,,
13,17,3821,B,61.88216226108735,39.13244896608948,3.0941081130543675,0.6146910709442209,B,416.67369985952973,Correct,sub_013_day_13_data.csv,1,300,152.0,Training at home,,,,,,,,,,,,,
13,17,3822,A,45.808050500330594,60.22708662002709,2.2904025250165296,0.946044864362966,A,386.2759000621736,Correct,sub_013_day_13_data.csv,1,300,152.0,Training at home,,,,,,,,,,,,,
13,17,3823,A,45.6405659484317,67.20886053555255,2.2820282974215846,1.0557143125731645,A,437.76739994063973,Correct,sub_013_day_13_data.csv,1,300,152.0,Training at home,,,,,,,,,,,,,
13,17,3824,A,27.94647943895051,55.82211870186832,1.3973239719475257,0.8768517901080347,A,421.7402001377195,Correct,sub_013_day_13_data.csv,1,300,152.0,Training at home,,,,,,,,,,,,,
13,17,3825,A,60.190627711635216,87.29457738014011,3.0095313855817607,1.3712200149783695,A,345.6961999181658,Correct,sub_013_day_13_data.csv,1,300,153.0,Training at home,,,,,,,,,,,,,
13,17,3826,A,13.27299019534373,38.5923051292708,0.6636495097671866,0.6062065113960642,B,378.1611998565495,Incorrect,sub_013_day_13_data.csv,0,300,153.0,Training at home,,,,,,,,,,,,,
13,17,3827,B,45.049236792264914,26.465153524273695,2.2524618396132454,0.4157136594399213,B,827.0272000227123,Correct,sub_013_day_13_data.csv,1,300,153.0,Training at home,,,,,,,,,,,,,
13,17,3828,A,48.88879086172983,72.31381556385668,2.4444395430864914,1.1359027586422967,A,470.4219999257475,Correct,sub_013_day_13_data.csv,1,300,153.0,Training at home,,,,,,,,,,,,,
13,17,3829,A,30.535854955079987,60.99231476198425,1.526792747753999,0.95806503990843,A,420.204299967736,Correct,sub_013_day_13_data.csv,1,300,153.0,Training at home,,,,,,,,,,,,,
13,17,3830,A,57.49956359284726,78.32381214603836,2.874978179642363,1.2303075641957055,A,611.9268999900669,Correct,sub_013_day_13_data.csv,1,300,153.0,Training at home,,,,,,,,,,,,,
13,17,3831,B,49.44061582805143,40.234697778521955,2.472030791402571,0.6320051548020507,B,509.1753001324832,Correct,sub_013_day_13_data.csv,1,300,153.0,Training at home,,,,,,,,,,,,,
13,17,3832,B,53.75136451157711,45.82940610850501,2.6875682255788553,0.7198866277443126,B,348.5790998674929,Correct,sub_013_day_13_data.csv,1,300,153.0,Training at home,,,,,,,,,,,,,
13,17,3833,B,59.92316536039598,50.46378063573396,2.996158268019799,0.7926832125879434,B,452.58310018107295,Correct,sub_013_day_13_data.csv,1,300,153.0,Training at home,,,,,,,,,,,,,
13,17,3834,A,47.359513711408056,71.82219118250173,2.3679756855704026,1.128180340918345,B,363.1362000014633,Incorrect,sub_013_day_13_data.csv,0,300,153.0,Training at home,,,,,,,,,,,,,
13,17,3835,A,54.43803329374679,65.02387729343111,2.7219016646873393,1.0213926760648369,A,440.37849991582334,Correct,sub_013_day_13_data.csv,1,300,153.0,Training at home,,,,,,,,,,,,,
13,17,3836,A,50.0291899207283,79.98374945257095,2.501459496036415,1.2563817984338177,A,506.87260017730296,Correct,sub_013_day_13_data.csv,1,300,153.0,Training at home,,,,,,,,,,,,,
13,17,3837,B,48.159795302702875,33.219478588335996,2.407989765135144,0.5218103494459989,A,409.9463000893593,Incorrect,sub_013_day_13_data.csv,0,300,153.0,Training at home,,,,,,,,,,,,,
13,17,3838,A,44.91179252666005,70.02645739827487,2.245589626333002,1.0999730205966949,A,432.44810006581247,Correct,sub_013_day_13_data.csv,1,300,153.0,Training at home,,,,,,,,,,,,,
13,17,3839,B,62.9360530079575,36.43870347801012,3.146802650397875,0.5723778157642672,B,534.1354000847787,Correct,sub_013_day_13_data.csv,1,300,153.0,Training at home,,,,,,,,,,,,,
13,17,3840,A,43.16763142156928,67.87869990822354,2.1583815710784644,1.0662361248345062,A,353.9007999934256,Correct,sub_013_day_13_data.csv,1,300,153.0,Training at home,,,,,,,,,,,,,
13,17,3841,B,49.20873605407348,34.62473029210131,2.4604368027036743,0.5438839915909672,B,471.6308999340981,Correct,sub_013_day_13_data.csv,1,300,153.0,Training at home,,,,,,,,,,,,,
13,17,3842,A,36.13672835215176,48.82953485417726,1.806836417607588,0.7670125398804502,A,550.6279000546783,Correct,sub_013_day_13_data.csv,1,300,153.0,Training at home,,,,,,,,,,,,,
13,17,3843,A,41.006020400052655,53.268163237813496,2.0503010200026326,0.8367343514906839,A,441.344799939543,Correct,sub_013_day_13_data.csv,1,300,153.0,Training at home,,,,,,,,,,,,,
13,17,3844,A,65.09344246639898,79.62059010843197,3.254672123319949,1.2506773047956703,B,498.0948001611978,Incorrect,sub_013_day_13_data.csv,0,300,153.0,Training at home,,,,,,,,,,,,,
13,17,3845,A,45.10399376584488,53.36669042057292,2.255199688292244,0.8382820128583633,A,460.8167998958379,Correct,sub_013_day_13_data.csv,1,300,153.0,Training at home,,,,,,,,,,,,,
13,17,3846,A,23.09600226342692,41.23999720122033,1.154800113171346,0.6477963612070872,A,460.5663998518139,Correct,sub_013_day_13_data.csv,1,300,153.0,Training at home,,,,,,,,,,,,,
13,17,3847,B,48.12419179608252,18.86314433191541,2.406209589804126,0.296301578283747,B,480.2656997926533,Correct,sub_013_day_13_data.csv,1,300,153.0,Training at home,,,,,,,,,,,,,
13,17,3848,A,20.527832093984024,37.58195642393139,1.0263916046992012,0.5903359910447729,A,384.16010001674294,Correct,sub_013_day_13_data.csv,1,300,153.0,Training at home,,,,,,,,,,,,,
13,17,3849,B,75.41860966301158,48.37101392402358,3.770930483150579,0.7598101099520103,A,439.4000999163836,Incorrect,sub_013_day_13_data.csv,0,300,153.0,Training at home,,,,,,,,,,,,,
13,17,3850,B,71.9510398348766,41.33721097560514,3.59755199174383,0.6493233916042622,B,598.4926999080926,Correct,sub_013_day_13_data.csv,1,300,154.0,Training at home,,,,,,,,,,,,,
13,17,3851,B,67.39842437431227,49.2466560778429,3.369921218715614,0.773564664740072,B,457.8197000082582,Correct,sub_013_day_13_data.csv,1,300,154.0,Training at home,,,,,,,,,,,,,
13,17,3852,B,36.91435775159468,15.73047809218384,1.845717887579734,0.2470937720592997,A,598.4700000844896,Incorrect,sub_013_day_13_data.csv,0,300,154.0,Training at home,,,,,,,,,,,,,
13,17,3853,A,64.25564519264788,81.4089689882887,3.2127822596323936,1.2787690945496355,A,391.74069999717176,Correct,sub_013_day_13_data.csv,1,300,154.0,Training at home,,,,,,,,,,,,,
13,17,3854,B,73.59275150965662,62.12759970113261,3.679637575482831,0.975898054031228,A,439.7547000553459,Incorrect,sub_013_day_13_data.csv,0,300,154.0,Training at home,,,,,,,,,,,,,
13,17,3855,B,65.00587495020072,56.06012502282127,3.250293747510036,0.8805903846551031,B,390.27810003608465,Correct,sub_013_day_13_data.csv,1,300,154.0,Training at home,,,,,,,,,,,,,
13,17,3856,B,47.981253208332795,28.43157304674592,2.39906266041664,0.4466021050682928,B,480.5952999740839,Correct,sub_013_day_13_data.csv,1,300,154.0,Training at home,,,,,,,,,,,,,
13,17,3857,B,32.524545236742696,16.817219170489114,1.626227261837135,0.2641642609990902,B,386.218500090763,Correct,sub_013_day_13_data.csv,1,300,154.0,Training at home,,,,,,,,,,,,,
13,17,3858,B,35.07678302873361,12.445418917801106,1.7538391514366805,0.1954921832150569,B,399.853799957782,Correct,sub_013_day_13_data.csv,1,300,154.0,Training at home,,,,,,,,,,,,,
13,17,3859,B,77.89444857386451,47.095316715624605,3.8947224286932256,0.7397715050614541,A,374.3406001012772,Incorrect,sub_013_day_13_data.csv,0,300,154.0,Training at home,,,,,,,,,,,,,
13,17,3860,A,45.068287207749535,59.36234242203508,2.253414360387477,0.9324614942647356,A,462.379900040105,Correct,sub_013_day_13_data.csv,1,300,154.0,Training at home,,,,,,,,,,,,,
13,17,3861,A,67.94850819996938,89.87362892011627,3.3974254099984695,1.4117316618344622,A,472.1207998227328,Correct,sub_013_day_13_data.csv,1,300,154.0,Training at home,,,,,,,,,,,,,
13,17,3862,A,55.72827556923716,81.53314808272465,2.786413778461858,1.2807196952036823,A,566.1987001076341,Correct,sub_013_day_13_data.csv,1,300,154.0,Training at home,,,,,,,,,,,,,
13,17,3863,B,48.134574148809946,26.0571404183507,2.4067287074404975,0.409304604559241,B,360.59920000843704,Correct,sub_013_day_13_data.csv,1,300,154.0,Training at home,,,,,,,,,,,,,
13,17,3864,A,51.6607468195461,79.52557789417001,2.583037340977305,1.2491848564240369,A,410.7522999402136,Correct,sub_013_day_13_data.csv,1,300,154.0,Training at home,,,,,,,,,,,,,
13,17,3865,A,46.85956880814882,64.2495044423497,2.342978440407441,1.0092288557643532,A,365.1984999887645,Correct,sub_013_day_13_data.csv,1,300,154.0,Training at home,,,,,,,,,,,,,
13,17,3866,A,31.076431320801532,59.84021909165649,1.5538215660400767,0.9399679634377583,A,564.089700113982,Correct,sub_013_day_13_data.csv,1,300,154.0,Training at home,,,,,,,,,,,,,
13,17,3867,B,83.57866327536438,68.91196018652373,4.178933163768218,1.0824665393322763,A,565.2604999486357,Incorrect,sub_013_day_13_data.csv,0,300,154.0,Training at home,,,,,,,,,,,,,
13,17,3868,A,16.983008662830326,38.168311786731024,0.8491504331415163,0.5995464395455946,A,493.4065998531878,Correct,sub_013_day_13_data.csv,1,300,154.0,Training at home,,,,,,,,,,,,,
13,17,3869,B,70.19218176737125,41.39811457834973,3.509609088368563,0.6502800631590601,B,381.51609990745783,Correct,sub_013_day_13_data.csv,1,300,154.0,Training at home,,,,,,,,,,,,,
13,17,3870,B,49.944672470877535,42.006956179063714,2.497233623543877,0.6598437246590747,B,600.5530999973416,Correct,sub_013_day_13_data.csv,1,300,154.0,Training at home,,,,,,,,,,,,,
13,17,3871,B,83.41098057516564,59.27057991782702,4.170549028758282,0.9310200922192604,B,459.7626000177115,Correct,sub_013_day_13_data.csv,1,300,154.0,Training at home,,,,,,,,,,,,,
13,17,3872,B,41.69882077443896,15.069670639619371,2.084941038721948,0.23671383286723,A,393.29799986444414,Incorrect,sub_013_day_13_data.csv,0,300,154.0,Training at home,,,,,,,,,,,,,
13,17,3873,A,21.51192069571977,49.68835578813398,1.0755960347859883,0.7805028675647878,A,401.4139000792056,Correct,sub_013_day_13_data.csv,1,300,154.0,Training at home,,,,,,,,,,,,,
13,17,3874,A,43.862045902845445,54.0674725019327,2.193102295142272,0.8492898720511997,A,456.6448999103158,Correct,sub_013_day_13_data.csv,1,300,154.0,Training at home,,,,,,,,,,,,,
13,17,3875,B,45.696994144148114,27.913932440447553,2.2848497072074054,0.4384710254385592,B,455.20210009999573,Correct,sub_013_day_13_data.csv,1,300,155.0,Training at home,,,,,,,,,,,,,
13,17,3876,B,45.14626762564339,22.09077095365977,2.2573133812821693,0.3470010187007616,B,484.5437000039965,Correct,sub_013_day_13_data.csv,1,300,155.0,Training at home,,,,,,,,,,,,,
13,17,3877,B,46.3635809553836,35.98080795177733,2.3181790477691804,0.5651852096576443,B,598.7576998304576,Correct,sub_013_day_13_data.csv,1,300,155.0,Training at home,,,,,,,,,,,,,
13,17,3878,A,26.628826978536004,38.83239061063398,1.3314413489268002,0.6099777653184848,B,417.21339989453554,Incorrect,sub_013_day_13_data.csv,0,300,155.0,Training at home,,,,,,,,,,,,,
13,17,3879,A,31.148611913995932,45.764956193646384,1.5574305956997967,0.7188742508490908,A,442.0166998170316,Correct,sub_013_day_13_data.csv,1,300,155.0,Training at home,,,,,,,,,,,,,
13,17,3880,B,82.52849425392598,56.640558712762,4.126424712696299,0.8897078157361722,B,566.757399821654,Correct,sub_013_day_13_data.csv,1,300,155.0,Training at home,,,,,,,,,,,,,
13,17,3881,B,41.323450337654535,14.278641051810698,2.0661725168827267,0.2242883691580706,B,471.09380015172064,Correct,sub_013_day_13_data.csv,1,300,155.0,Training at home,,,,,,,,,,,,,
13,17,3882,A,33.04617283367343,44.06785347501052,1.6523086416836716,0.6922162236828225,A,434.4480000436306,Correct,sub_013_day_13_data.csv,1,300,155.0,Training at home,,,,,,,,,,,,,
13,17,3883,B,46.49697154820253,33.42115759317901,2.324848577410126,0.5249783158459896,B,409.79369985871017,Correct,sub_013_day_13_data.csv,1,300,155.0,Training at home,,,,,,,,,,,,,
13,17,3884,A,69.33303645819348,88.8509268357363,3.466651822909674,1.395667095058967,A,378.3024000003934,Correct,sub_013_day_13_data.csv,1,300,155.0,Training at home,,,,,,,,,,,,,
13,17,3885,A,49.93523435408612,78.68252215592484,2.496761717704306,1.2359421678548483,A,396.77130011841655,Correct,sub_013_day_13_data.csv,1,300,155.0,Training at home,,,,,,,,,,,,,
13,17,3886,B,37.50869058478828,19.278678078942665,1.875434529239414,0.3028287671186443,B,352.6681999210268,Correct,sub_013_day_13_data.csv,1,300,155.0,Training at home,,,,,,,,,,,,,
13,17,3887,B,65.43816516574059,55.77604162303268,3.27190825828703,0.8761280130461898,A,355.045200092718,Incorrect,sub_013_day_13_data.csv,0,300,155.0,Training at home,,,,,,,,,,,,,
13,17,3888,B,66.55247528461697,39.50706347832497,3.327623764230849,0.6205755019420567,B,674.6398999821395,Correct,sub_013_day_13_data.csv,1,300,155.0,Training at home,,,,,,,,,,,,,
13,17,3889,B,56.55145061473901,28.342907596029356,2.8275725307369504,0.4452093514253009,B,338.72939995490015,Correct,sub_013_day_13_data.csv,1,300,155.0,Training at home,,,,,,,,,,,,,
13,17,3890,A,46.90618155505872,68.20907212907346,2.345309077752936,1.0714255995443676,B,864.230299834162,Incorrect,sub_013_day_13_data.csv,0,300,155.0,Training at home,,,,,,,,,,,,,
13,17,3891,B,76.38408736041653,47.734958597245274,3.8192043680208263,0.7498189762425934,B,632.740099914372,Correct,sub_013_day_13_data.csv,1,300,155.0,Training at home,,,,,,,,,,,,,
13,17,3892,B,58.976532116535815,39.14060516693497,2.948826605826791,0.6148191882475079,B,543.7161000445485,Correct,sub_013_day_13_data.csv,1,300,155.0,Training at home,,,,,,,,,,,,,
13,17,3893,B,73.70911205229291,49.544322641534656,3.685455602614645,0.7782404001886386,B,359.67799997888505,Correct,sub_013_day_13_data.csv,1,300,155.0,Training at home,,,,,,,,,,,,,
13,17,3894,A,62.714068404241736,81.78495126345348,3.135703420212087,1.2846750103173237,A,505.0127999857068,Correct,sub_013_day_13_data.csv,1,300,155.0,Training at home,,,,,,,,,,,,,
13,17,3895,A,50.93594680592119,78.78652586506233,2.5467973402960595,1.2375758542977102,A,423.7719001248479,Correct,sub_013_day_13_data.csv,1,300,155.0,Training at home,,,,,,,,,,,,,
13,17,3896,A,46.90786606344545,63.15693145673286,2.345393303172272,0.9920667594387302,A,709.0680999681354,Correct,sub_013_day_13_data.csv,1,300,155.0,Training at home,,,,,,,,,,,,,
13,17,3897,A,24.49590756089892,42.778658137724626,1.224795378044946,0.6719655906795244,A,532.4595000129193,Correct,sub_013_day_13_data.csv,1,300,155.0,Training at home,,,,,,,,,,,,,
13,17,3898,B,70.28846303916232,38.99535022485608,3.514423151958116,0.6125375289528447,B,343.2824001647532,Correct,sub_013_day_13_data.csv,1,300,155.0,Training at home,,,,,,,,,,,,,
13,17,3899,A,39.355581955576085,67.77625659624336,1.9677790977788043,1.0646269490528744,A,398.9312001504004,Correct,sub_013_day_13_data.csv,1,300,155.0,Training at home,,,,,,,,,,,,,
