subject,day,trial,cat,x,y,xt,yt,resp,rt,fb,f_name,acc,n_trials,block,session_type,ns_left_digit,ns_right_digit,ns_left_size,ns_right_size,ns_congruent,ns_cue,ns_correct_side,ns_resp,ns_rt,ns_fb,acc_stroop,acc_stroop_mean,resp_key
13,19,4200,B,60.60988694595021,49.761819229034074,3.0304943472975108,0.7816568285959838,A,714.1199000179768,Incorrect,sub_013_day_15_data.csv,0,300,168.0,Training at home,,,,,,,,,,,,,
13,19,4201,A,23.62059520113144,45.48657775628447,1.181029760056572,0.714501492580421,A,549.2997001856565,Correct,sub_013_day_15_data.csv,1,300,168.0,Training at home,,,,,,,,,,,,,
13,19,4202,B,56.514261161754455,25.139239291804657,2.8257130580877226,0.3948862473798469,B,402.1956999786198,Correct,sub_013_day_15_data.csv,1,300,168.0,Training at home,,,,,,,,,,,,,
13,19,4203,B,55.87605605556245,42.562875963718,2.7938028027781225,0.6685760922163503,B,460.51889983937144,Correct,sub_013_day_15_data.csv,1,300,168.0,Training at home,,,,,,,,,,,,,
13,19,4204,A,28.30549668150259,46.52662020287643,1.415274834075129,0.7308384411285952,A,416.155300103128,Correct,sub_013_day_15_data.csv,1,300,168.0,Training at home,,,,,,,,,,,,,
13,19,4205,B,31.57332713827625,15.073947671158802,1.5786663569138124,0.2367810163215473,B,583.67699990049,Correct,sub_013_day_15_data.csv,1,300,168.0,Training at home,,,,,,,,,,,,,
13,19,4206,A,53.50059387077082,79.22217250826039,2.675029693538541,1.2444189757668704,A,460.81179985776544,Correct,sub_013_day_15_data.csv,1,300,168.0,Training at home,,,,,,,,,,,,,
13,19,4207,B,46.1058083407461,16.857526746000737,2.305290417037305,0.2647974109146468,B,467.52080018632114,Correct,sub_013_day_15_data.csv,1,300,168.0,Training at home,,,,,,,,,,,,,
13,19,4208,A,10.982450670092,35.002807007986256,0.5491225335045999,0.5498228067565548,A,447.5725998636335,Correct,sub_013_day_15_data.csv,1,300,168.0,Training at home,,,,,,,,,,,,,
13,19,4209,A,40.33941441348482,59.53911342184979,2.016970720674241,0.9352382066366638,A,419.8896999005228,Correct,sub_013_day_15_data.csv,1,300,168.0,Training at home,,,,,,,,,,,,,
13,19,4210,B,51.98436577261182,26.504481816933968,2.599218288630591,0.41633142681642,B,713.8797999359667,Correct,sub_013_day_15_data.csv,1,300,168.0,Training at home,,,,,,,,,,,,,
13,19,4211,B,74.8181884283723,47.04253153476981,3.740909421418615,0.7389423573794951,B,373.5107001848519,Correct,sub_013_day_15_data.csv,1,300,168.0,Training at home,,,,,,,,,,,,,
13,19,4212,A,46.28329049647527,61.988956760840445,2.314164524823763,0.9737202558177582,A,325.79020014964044,Correct,sub_013_day_15_data.csv,1,300,168.0,Training at home,,,,,,,,,,,,,
13,19,4213,B,74.98899413473252,61.28555084452332,3.7494497067366264,0.962671181521791,B,425.8032999932766,Correct,sub_013_day_15_data.csv,1,300,168.0,Training at home,,,,,,,,,,,,,
13,19,4214,B,38.20940574950619,18.576225938765,1.9104702874753092,0.2917946747032414,A,438.2100999355316,Incorrect,sub_013_day_15_data.csv,0,300,168.0,Training at home,,,,,,,,,,,,,
13,19,4215,A,49.62907889339072,75.70938661996094,2.481453944669536,1.1892402640652933,B,450.3691999707371,Incorrect,sub_013_day_15_data.csv,0,300,168.0,Training at home,,,,,,,,,,,,,
13,19,4216,B,43.84064933056543,23.957879185637783,2.1920324665282713,0.3763294862259573,B,439.1359998844564,Correct,sub_013_day_15_data.csv,1,300,168.0,Training at home,,,,,,,,,,,,,
13,19,4217,A,52.16636563003662,70.17113762135173,2.6083182815018313,1.1022456522263846,B,416.9854000210762,Incorrect,sub_013_day_15_data.csv,0,300,168.0,Training at home,,,,,,,,,,,,,
13,19,4218,B,52.67227906098661,30.67854947597155,2.6336139530493305,0.4818975282825161,B,463.4066000580788,Correct,sub_013_day_15_data.csv,1,300,168.0,Training at home,,,,,,,,,,,,,
13,19,4219,A,44.17275274992194,71.95577459192391,2.2086376374960968,1.1302786642067562,A,457.6037998776883,Correct,sub_013_day_15_data.csv,1,300,168.0,Training at home,,,,,,,,,,,,,
13,19,4220,A,51.27506378853369,72.02543439283338,2.5637531894266847,1.1313728778006948,A,450.4881000611931,Correct,sub_013_day_15_data.csv,1,300,168.0,Training at home,,,,,,,,,,,,,
13,19,4221,B,60.195975864865616,43.158132347934355,3.009798793243281,0.6779263576346328,B,333.7145000696182,Correct,sub_013_day_15_data.csv,1,300,168.0,Training at home,,,,,,,,,,,,,
13,19,4222,A,66.29186890762898,88.36374016718814,3.3145934453814494,1.3880143847647777,A,486.4098001271486,Correct,sub_013_day_15_data.csv,1,300,168.0,Training at home,,,,,,,,,,,,,
13,19,4223,B,75.41766293195751,51.47784194511697,3.770883146597875,0.80861205038718,B,418.10590005479753,Correct,sub_013_day_15_data.csv,1,300,168.0,Training at home,,,,,,,,,,,,,
13,19,4224,B,59.39050860824503,48.57096000015025,2.969525430412251,0.7629508555713785,B,442.43220007047057,Correct,sub_013_day_15_data.csv,1,300,168.0,Training at home,,,,,,,,,,,,,
13,19,4225,B,59.78737385312663,34.86309803518549,2.9893686926563316,0.5476282633435973,B,423.87539986521006,Correct,sub_013_day_15_data.csv,1,300,169.0,Training at home,,,,,,,,,,,,,
13,19,4226,A,54.03452629088366,61.09160429996598,2.701726314544183,0.9596246763239388,B,428.01689985208213,Incorrect,sub_013_day_15_data.csv,0,300,169.0,Training at home,,,,,,,,,,,,,
13,19,4227,A,20.623922557172143,45.65292223893583,1.031196127858607,0.7171144256037345,A,489.54139999113977,Correct,sub_013_day_15_data.csv,1,300,169.0,Training at home,,,,,,,,,,,,,
13,19,4228,B,36.04748856295397,23.58220258929432,1.8023744281476983,0.3704283720499661,B,396.5571001172066,Correct,sub_013_day_15_data.csv,1,300,169.0,Training at home,,,,,,,,,,,,,
13,19,4229,A,25.23685872594201,52.326510332141055,1.2618429362971006,0.8219429022372235,B,457.3297998867929,Incorrect,sub_013_day_15_data.csv,0,300,169.0,Training at home,,,,,,,,,,,,,
13,19,4230,A,38.235632963916366,70.3746654459648,1.9117816481958183,1.1054426598194125,A,510.07500011473894,Correct,sub_013_day_15_data.csv,1,300,169.0,Training at home,,,,,,,,,,,,,
13,19,4231,A,55.49374293975123,73.35518557783794,2.774687146987562,1.152260560570258,A,441.9011001009494,Correct,sub_013_day_15_data.csv,1,300,169.0,Training at home,,,,,,,,,,,,,
13,19,4232,B,64.26995137081323,43.644425596215584,3.213497568540662,0.685565034116086,B,458.2356000319123,Correct,sub_013_day_15_data.csv,1,300,169.0,Training at home,,,,,,,,,,,,,
13,19,4233,A,47.3452753037851,62.83884385833909,2.3672637651892554,0.9870702511271708,A,384.14609991014,Correct,sub_013_day_15_data.csv,1,300,169.0,Training at home,,,,,,,,,,,,,
13,19,4234,B,51.29580693056843,42.00141939121231,2.564790346528422,0.6597567529988824,A,434.4440998975187,Incorrect,sub_013_day_15_data.csv,0,300,169.0,Training at home,,,,,,,,,,,,,
13,19,4235,B,86.74860915045528,66.94280938517772,4.337430457522764,1.0515351908756807,B,571.068599820137,Correct,sub_013_day_15_data.csv,1,300,169.0,Training at home,,,,,,,,,,,,,
13,19,4236,A,54.1038383527726,66.9470924771296,2.7051919176386297,1.0516024695267343,A,451.0375999379903,Correct,sub_013_day_15_data.csv,1,300,169.0,Training at home,,,,,,,,,,,,,
13,19,4237,B,56.59313936042443,28.515829449424864,2.829656968021222,0.4479256015466631,B,444.38409991562366,Correct,sub_013_day_15_data.csv,1,300,169.0,Training at home,,,,,,,,,,,,,
13,19,4238,A,50.81135718165285,57.98040822226268,2.5405678590826426,0.9107541226159884,A,445.36649994552135,Correct,sub_013_day_15_data.csv,1,300,169.0,Training at home,,,,,,,,,,,,,
13,19,4239,A,24.245250593993163,36.46854187444448,1.212262529699658,0.5728465161994326,A,515.2857000939548,Correct,sub_013_day_15_data.csv,1,300,169.0,Training at home,,,,,,,,,,,,,
13,19,4240,A,34.327087352718706,54.44944875683355,1.7163543676359354,0.8552899410324108,A,395.7189000211656,Correct,sub_013_day_15_data.csv,1,300,169.0,Training at home,,,,,,,,,,,,,
13,19,4241,B,77.619873768091,45.46515813952544,3.88099368840455,0.7141650340271566,B,360.7119000516832,Correct,sub_013_day_15_data.csv,1,300,169.0,Training at home,,,,,,,,,,,,,
13,19,4242,B,32.79653181590473,17.67271252967879,1.6398265907952363,0.2776023192612158,B,411.6012000013143,Correct,sub_013_day_15_data.csv,1,300,169.0,Training at home,,,,,,,,,,,,,
13,19,4243,A,52.10955905995667,73.47413136314718,2.605477952997834,1.154128956596773,A,427.6221999898553,Correct,sub_013_day_15_data.csv,1,300,169.0,Training at home,,,,,,,,,,,,,
13,19,4244,A,24.83500040365376,49.055341774582736,1.241750020182688,0.770559506691828,A,511.5690000820905,Correct,sub_013_day_15_data.csv,1,300,169.0,Training at home,,,,,,,,,,,,,
13,19,4245,A,45.965059297497426,53.03711607354704,2.2982529648748713,0.8331050711212225,B,488.3224000222981,Incorrect,sub_013_day_15_data.csv,0,300,169.0,Training at home,,,,,,,,,,,,,
13,19,4246,A,45.286307049976166,66.39813847925572,2.264315352498808,1.0429795202923378,A,644.4465999957174,Correct,sub_013_day_15_data.csv,1,300,169.0,Training at home,,,,,,,,,,,,,
13,19,4247,A,23.59318320740373,49.16018554717681,1.1796591603701865,0.7722063888206089,A,782.5376999098808,Correct,sub_013_day_15_data.csv,1,300,169.0,Training at home,,,,,,,,,,,,,
13,19,4248,B,58.471859079875216,35.235616520329714,2.923592953993761,0.5534797700248748,B,490.7314998563379,Correct,sub_013_day_15_data.csv,1,300,169.0,Training at home,,,,,,,,,,,,,
13,19,4249,A,26.522291684292057,50.04372763728096,1.3261145842146027,0.786085035517652,A,389.1044000629336,Correct,sub_013_day_15_data.csv,1,300,169.0,Training at home,,,,,,,,,,,,,
13,19,4250,B,32.15524160651083,15.863639636709426,1.6077620803255417,0.2491854687094109,A,326.10049983486533,Incorrect,sub_013_day_15_data.csv,0,300,170.0,Training at home,,,,,,,,,,,,,
13,19,4251,A,52.71647166970604,69.38587188922837,2.635823583485302,1.089910726950612,A,478.7401999346912,Correct,sub_013_day_15_data.csv,1,300,170.0,Training at home,,,,,,,,,,,,,
13,19,4252,A,40.32038874551252,54.02548272449351,2.0160194372756255,0.8486302981695554,B,357.5786000583321,Incorrect,sub_013_day_15_data.csv,0,300,170.0,Training at home,,,,,,,,,,,,,
13,19,4253,A,16.249923453463694,35.89024117843454,0.8124961726731847,0.5637625901086791,A,500.8294000290334,Correct,sub_013_day_15_data.csv,1,300,170.0,Training at home,,,,,,,,,,,,,
13,19,4254,A,36.1481951504846,65.14056612055656,1.8074097575242296,1.0232256198751033,A,417.8538999985903,Correct,sub_013_day_15_data.csv,1,300,170.0,Training at home,,,,,,,,,,,,,
13,19,4255,A,31.8217398570821,54.53155144079874,1.591086992854105,0.8565796069763361,B,455.84900001995265,Incorrect,sub_013_day_15_data.csv,0,300,170.0,Training at home,,,,,,,,,,,,,
13,19,4256,B,83.13806907787873,62.494442760610546,4.1569034538939365,0.9816604113346096,A,439.60419995710254,Incorrect,sub_013_day_15_data.csv,0,300,170.0,Training at home,,,,,,,,,,,,,
13,19,4257,A,42.92657084218007,54.292538891849695,2.1463285421090035,0.8528252066368656,A,642.9862000513822,Correct,sub_013_day_15_data.csv,1,300,170.0,Training at home,,,,,,,,,,,,,
13,19,4258,B,38.4874496357475,16.723511179873036,1.9243724817873753,0.2626922993245795,B,384.6297001000494,Correct,sub_013_day_15_data.csv,1,300,170.0,Training at home,,,,,,,,,,,,,
13,19,4259,B,34.83957069200801,19.033876512507884,1.7419785346004004,0.2989834331051504,B,348.28800009563565,Correct,sub_013_day_15_data.csv,1,300,170.0,Training at home,,,,,,,,,,,,,
13,19,4260,B,42.46353461105156,25.33028296791133,2.123176730552578,0.3978871544267045,B,354.70100003294647,Correct,sub_013_day_15_data.csv,1,300,170.0,Training at home,,,,,,,,,,,,,
13,19,4261,A,49.62256027877806,66.64232043366087,2.481128013938903,1.0468151214628296,A,377.8254999779165,Correct,sub_013_day_15_data.csv,1,300,170.0,Training at home,,,,,,,,,,,,,
13,19,4262,A,39.07568511254012,62.76313982800012,1.9537842556270064,0.9858810949993708,A,424.3467999622226,Correct,sub_013_day_15_data.csv,1,300,170.0,Training at home,,,,,,,,,,,,,
13,19,4263,A,33.05164263020032,63.98170404391213,1.652582131510016,1.005022256942553,A,320.5391999799758,Correct,sub_013_day_15_data.csv,1,300,170.0,Training at home,,,,,,,,,,,,,
13,19,4264,A,62.76952076097016,77.77386233057828,3.1384760380485077,1.2216689726952434,A,350.3341998439282,Correct,sub_013_day_15_data.csv,1,300,170.0,Training at home,,,,,,,,,,,,,
13,19,4265,B,66.40240940201615,43.469657419133135,3.3201204701008074,0.6828197820100684,B,469.18529993854463,Correct,sub_013_day_15_data.csv,1,300,170.0,Training at home,,,,,,,,,,,,,
13,19,4266,B,61.22699226202265,49.68323259747916,3.0613496131011324,0.7804223926741674,B,405.6343999691307,Correct,sub_013_day_15_data.csv,1,300,170.0,Training at home,,,,,,,,,,,,,
13,19,4267,B,82.46752187568012,64.72605380219233,4.123376093784006,1.0167144756041255,B,403.09179993346334,Correct,sub_013_day_15_data.csv,1,300,170.0,Training at home,,,,,,,,,,,,,
13,19,4268,B,39.751202910470205,14.245422684422437,1.98756014552351,0.2237665762633146,A,348.83260005153716,Incorrect,sub_013_day_15_data.csv,0,300,170.0,Training at home,,,,,,,,,,,,,
13,19,4269,B,63.200873462572154,44.760819672222134,3.160043673128608,0.7031013112545528,A,621.0666999686509,Incorrect,sub_013_day_15_data.csv,0,300,170.0,Training at home,,,,,,,,,,,,,
13,19,4270,B,59.039384472355245,37.772328185317754,2.951969223617762,0.5933263436798846,B,481.3190000131726,Correct,sub_013_day_15_data.csv,1,300,170.0,Training at home,,,,,,,,,,,,,
13,19,4271,A,52.58387571520157,63.3175327613899,2.6291937857600782,0.9945894788330676,A,510.3360998909921,Correct,sub_013_day_15_data.csv,1,300,170.0,Training at home,,,,,,,,,,,,,
13,19,4272,A,19.18834617443845,38.010574961512866,0.9594173087219224,0.5970687152890648,A,536.0801999922842,Correct,sub_013_day_15_data.csv,1,300,170.0,Training at home,,,,,,,,,,,,,
13,19,4273,B,66.18694024243328,33.31841855279098,3.309347012121664,0.52336449477339,B,399.7258997987956,Correct,sub_013_day_15_data.csv,1,300,170.0,Training at home,,,,,,,,,,,,,
13,19,4274,B,45.46085136813685,37.51828438832824,2.2730425684068423,0.5893358330483232,B,382.1874998975545,Correct,sub_013_day_15_data.csv,1,300,170.0,Training at home,,,,,,,,,,,,,
13,19,4275,A,55.12913359768346,70.53964925727229,2.756456679884173,1.1080342194672366,A,447.561000008136,Correct,sub_013_day_15_data.csv,1,300,171.0,Training at home,,,,,,,,,,,,,
13,19,4276,B,83.92943025819145,56.929051401673995,4.196471512909572,0.8942394482966737,A,517.7187998779118,Incorrect,sub_013_day_15_data.csv,0,300,171.0,Training at home,,,,,,,,,,,,,
13,19,4277,A,69.09759098008882,87.05893660606799,3.4548795490044415,1.3675185783548136,A,552.0268999971449,Correct,sub_013_day_15_data.csv,1,300,171.0,Training at home,,,,,,,,,,,,,
13,19,4278,A,19.73475430238767,42.30916811658915,0.9867377151193836,0.6645908586728599,A,484.2256000265479,Correct,sub_013_day_15_data.csv,1,300,171.0,Training at home,,,,,,,,,,,,,
13,19,4279,A,39.08280905583432,52.195504036318944,1.954140452791716,0.81988506015458,A,441.2529000546783,Correct,sub_013_day_15_data.csv,1,300,171.0,Training at home,,,,,,,,,,,,,
13,19,4280,A,42.86029697544879,62.76912222003357,2.1430148487724394,0.9859750661936866,A,688.3370999712497,Correct,sub_013_day_15_data.csv,1,300,171.0,Training at home,,,,,,,,,,,,,
13,19,4281,A,60.903124077610784,78.07182167705491,3.045156203880539,1.2263493071650404,A,486.5445999894291,Correct,sub_013_day_15_data.csv,1,300,171.0,Training at home,,,,,,,,,,,,,
13,19,4282,A,49.690521387581505,59.830740959667715,2.484526069379075,0.93981908128863,A,423.3083000872284,Correct,sub_013_day_15_data.csv,1,300,171.0,Training at home,,,,,,,,,,,,,
13,19,4283,A,16.843195342323302,46.090135589035015,0.842159767116165,0.7239821568473492,A,393.1152999866754,Correct,sub_013_day_15_data.csv,1,300,171.0,Training at home,,,,,,,,,,,,,
13,19,4284,A,51.20186594667119,61.046462299126816,2.5600932973335597,0.9589155874329154,A,376.89359998330474,Correct,sub_013_day_15_data.csv,1,300,171.0,Training at home,,,,,,,,,,,,,
13,19,4285,A,61.393165579663744,82.30306722299619,3.069658278983187,1.2928135567783587,A,388.8852999079973,Correct,sub_013_day_15_data.csv,1,300,171.0,Training at home,,,,,,,,,,,,,
13,19,4286,A,39.32403546090489,70.29922717959188,1.9662017730452448,1.1042576783022289,A,367.41099995560944,Correct,sub_013_day_15_data.csv,1,300,171.0,Training at home,,,,,,,,,,,,,
13,19,4287,B,85.16642850526921,64.03460399232519,4.2583214252634605,1.0058532073891022,B,433.36340016685426,Correct,sub_013_day_15_data.csv,1,300,171.0,Training at home,,,,,,,,,,,,,
13,19,4288,B,75.86389349356442,46.59569865046372,3.793194674678221,0.7319235228459035,B,441.19580020196736,Correct,sub_013_day_15_data.csv,1,300,171.0,Training at home,,,,,,,,,,,,,
13,19,4289,A,24.400607262220817,41.90785451992441,1.2200303631110407,0.6582870394375218,A,418.4471000917256,Correct,sub_013_day_15_data.csv,1,300,171.0,Training at home,,,,,,,,,,,,,
13,19,4290,B,36.50508005694084,26.579067823937315,1.825254002847042,0.4175030210747316,B,441.1259999033064,Correct,sub_013_day_15_data.csv,1,300,171.0,Training at home,,,,,,,,,,,,,
13,19,4291,A,26.360007856363133,42.95524136344338,1.3180003928181565,0.6747393535028506,B,608.3255000412464,Incorrect,sub_013_day_15_data.csv,0,300,171.0,Training at home,,,,,,,,,,,,,
13,19,4292,B,74.02033601770898,43.27659344165288,3.701016800885449,0.6797871401434444,A,431.19340017437935,Incorrect,sub_013_day_15_data.csv,0,300,171.0,Training at home,,,,,,,,,,,,,
13,19,4293,A,19.83110614641307,40.93017215485746,0.9915553073206538,0.6429296407593286,A,484.1177000198513,Correct,sub_013_day_15_data.csv,1,300,171.0,Training at home,,,,,,,,,,,,,
13,19,4294,B,73.89725076479735,60.34225680176144,3.694862538239868,0.9478539533472125,A,375.4708999767899,Incorrect,sub_013_day_15_data.csv,0,300,171.0,Training at home,,,,,,,,,,,,,
13,19,4295,A,24.095032979978093,45.59017429132773,1.2047516489989047,0.7161287831475672,A,434.612600132823,Correct,sub_013_day_15_data.csv,1,300,171.0,Training at home,,,,,,,,,,,,,
13,19,4296,A,32.43149650099805,47.62114351373442,1.6215748250499025,0.7480311730914664,A,522.2106999717653,Correct,sub_013_day_15_data.csv,1,300,171.0,Training at home,,,,,,,,,,,,,
13,19,4297,B,37.82521183217513,28.144252787511572,1.8912605916087564,0.442088888990102,B,337.89450000040233,Correct,sub_013_day_15_data.csv,1,300,171.0,Training at home,,,,,,,,,,,,,
13,19,4298,B,73.72035187946892,42.05600995720227,3.686017593973446,0.6606142596042293,B,386.9830998592078,Correct,sub_013_day_15_data.csv,1,300,171.0,Training at home,,,,,,,,,,,,,
13,19,4299,B,32.72741520085741,16.939876865975894,1.6363707600428703,0.2660909635743277,A,604.9726000055671,Incorrect,sub_013_day_15_data.csv,0,300,171.0,Training at home,,,,,,,,,,,,,
13,19,4300,B,57.59567163834583,41.06989018880956,2.879783581917291,0.6451243265045182,B,466.3690999150276,Correct,sub_013_day_15_data.csv,1,300,172.0,Training at home,,,,,,,,,,,,,
13,19,4301,B,53.399902032910816,22.672480717665625,2.6699951016455405,0.3561384943063728,B,365.1979998685419,Correct,sub_013_day_15_data.csv,1,300,172.0,Training at home,,,,,,,,,,,,,
13,19,4302,A,63.90485709729133,79.42695344497639,3.195242854864566,1.2476356671987818,A,411.94380004890263,Correct,sub_013_day_15_data.csv,1,300,172.0,Training at home,,,,,,,,,,,,,
13,19,4303,A,15.12988864347334,34.4470831706457,0.756494432173667,0.5410935171324857,A,428.9094000123441,Correct,sub_013_day_15_data.csv,1,300,172.0,Training at home,,,,,,,,,,,,,
13,19,4304,B,66.54235510254712,41.78919098697192,3.3271177551273556,0.6564230770206589,B,325.68720006383955,Correct,sub_013_day_15_data.csv,1,300,172.0,Training at home,,,,,,,,,,,,,
13,19,4305,B,54.80823899605612,30.34870188866661,2.7404119498028057,0.4767162944971085,B,348.943900084123,Correct,sub_013_day_15_data.csv,1,300,172.0,Training at home,,,,,,,,,,,,,
13,19,4306,B,72.83574958769684,40.566781832437954,3.641787479384842,0.6372215189228347,B,487.0331999845803,Correct,sub_013_day_15_data.csv,1,300,172.0,Training at home,,,,,,,,,,,,,
13,19,4307,B,81.79832631994027,54.717638690536056,4.089916315997013,0.8595026586598434,B,415.0136997923255,Correct,sub_013_day_15_data.csv,1,300,172.0,Training at home,,,,,,,,,,,,,
13,19,4308,B,63.70129691218816,30.499745920430257,3.185064845609408,0.4790888885998948,B,398.25500012375414,Correct,sub_013_day_15_data.csv,1,300,172.0,Training at home,,,,,,,,,,,,,
13,19,4309,A,50.3087667591784,74.68706616162612,2.51543833795892,1.1731816918576974,A,346.23730019666255,Correct,sub_013_day_15_data.csv,1,300,172.0,Training at home,,,,,,,,,,,,,
13,19,4310,B,86.49629523427731,67.63747788604839,4.324814761713866,1.0624470181707586,A,369.32529998011887,Incorrect,sub_013_day_15_data.csv,0,300,172.0,Training at home,,,,,,,,,,,,,
13,19,4311,A,52.24611915104914,72.29570496570318,2.612305957552457,1.1356182780317412,A,378.6077999975532,Correct,sub_013_day_15_data.csv,1,300,172.0,Training at home,,,,,,,,,,,,,
13,19,4312,B,71.53619448832872,53.7930374305681,3.5768097244164356,0.8449790560307674,B,353.6698999814689,Correct,sub_013_day_15_data.csv,1,300,172.0,Training at home,,,,,,,,,,,,,
13,19,4313,A,59.72876998447296,80.83105178223698,2.986438499223648,1.2696911923050591,A,429.5659000054002,Correct,sub_013_day_15_data.csv,1,300,172.0,Training at home,,,,,,,,,,,,,
13,19,4314,B,50.15144507002401,28.285708821975753,2.5075722535012006,0.4443108751834951,A,338.80560006946325,Incorrect,sub_013_day_15_data.csv,0,300,172.0,Training at home,,,,,,,,,,,,,
13,19,4315,B,70.02259808718952,53.07540815949911,3.501129904359476,0.8337065618008108,B,408.9003000408411,Correct,sub_013_day_15_data.csv,1,300,172.0,Training at home,,,,,,,,,,,,,
13,19,4316,B,78.141751429603,64.55681954314426,3.90708757148015,1.01405615007932,B,411.4090001676232,Correct,sub_013_day_15_data.csv,1,300,172.0,Training at home,,,,,,,,,,,,,
13,19,4317,B,47.86536669693635,35.90119427844702,2.3932683348468173,0.5639346410013455,B,459.5463001169264,Correct,sub_013_day_15_data.csv,1,300,172.0,Training at home,,,,,,,,,,,,,
13,19,4318,B,59.91394455239264,31.3615066239172,2.995697227619632,0.4926253940760295,B,348.8376000896096,Correct,sub_013_day_15_data.csv,1,300,172.0,Training at home,,,,,,,,,,,,,
13,19,4319,A,50.68633062364464,64.60759168272862,2.534316531182232,1.0148536769829464,B,396.48160012438893,Incorrect,sub_013_day_15_data.csv,0,300,172.0,Training at home,,,,,,,,,,,,,
13,19,4320,B,54.65810496207441,40.68534468884997,2.732905248103721,0.6390838999162979,B,440.9447000361979,Correct,sub_013_day_15_data.csv,1,300,172.0,Training at home,,,,,,,,,,,,,
13,19,4321,A,44.77093464456163,74.58420848861829,2.2385467322280816,1.1715660073082634,A,388.96479993127286,Correct,sub_013_day_15_data.csv,1,300,172.0,Training at home,,,,,,,,,,,,,
13,19,4322,B,73.85538271187673,61.58976622622839,3.692769135593836,0.9674497855631594,B,364.9518999736756,Correct,sub_013_day_15_data.csv,1,300,172.0,Training at home,,,,,,,,,,,,,
13,19,4323,A,41.28297159511573,55.21408853011048,2.0641485797557864,0.8673008745042579,A,384.9798999726772,Correct,sub_013_day_15_data.csv,1,300,172.0,Training at home,,,,,,,,,,,,,
13,19,4324,A,67.35652711931137,81.9054526561471,3.367826355965568,1.286567841767492,A,460.6334001291543,Correct,sub_013_day_15_data.csv,1,300,172.0,Training at home,,,,,,,,,,,,,
13,19,4325,B,71.26255493610519,49.68562443282396,3.563127746805259,0.7804599635359063,B,338.22889998555183,Correct,sub_013_day_15_data.csv,1,300,173.0,Training at home,,,,,,,,,,,,,
13,19,4326,A,11.0161447100386,32.94880266703187,0.55080723550193,0.5175585820166355,A,435.6625999789685,Correct,sub_013_day_15_data.csv,1,300,173.0,Training at home,,,,,,,,,,,,,
13,19,4327,B,77.49133375486103,52.27811294805809,3.874566687743051,0.8211826779057838,B,493.2518000714481,Correct,sub_013_day_15_data.csv,1,300,173.0,Training at home,,,,,,,,,,,,,
13,19,4328,A,48.254947209346646,54.96448952480149,2.4127473604673324,0.8633801824971475,B,406.5077998675406,Incorrect,sub_013_day_15_data.csv,0,300,173.0,Training at home,,,,,,,,,,,,,
13,19,4329,B,70.94837739091801,61.39116977476483,3.547418869545901,0.9643302397984248,B,570.9900998044759,Correct,sub_013_day_15_data.csv,1,300,173.0,Training at home,,,,,,,,,,,,,
13,19,4330,B,43.39510683689238,29.95154631261869,2.169755341844619,0.4704777892968865,B,405.32030002214015,Correct,sub_013_day_15_data.csv,1,300,173.0,Training at home,,,,,,,,,,,,,
13,19,4331,A,44.10960376196104,57.40975974707493,2.205480188098052,0.9017903973288282,A,505.4937999229878,Correct,sub_013_day_15_data.csv,1,300,173.0,Training at home,,,,,,,,,,,,,
13,19,4332,B,50.700578688013,37.789083382609334,2.5350289344006502,0.5935895337034881,B,636.024700012058,Correct,sub_013_day_15_data.csv,1,300,173.0,Training at home,,,,,,,,,,,,,
13,19,4333,A,62.75555563747018,79.45410315623946,3.1377777818735093,1.2480621338660374,A,412.50000009313226,Correct,sub_013_day_15_data.csv,1,300,173.0,Training at home,,,,,,,,,,,,,
13,19,4334,A,48.66754682094265,71.87177366259047,2.4333773410471324,1.128959180694313,A,365.2675000485033,Correct,sub_013_day_15_data.csv,1,300,173.0,Training at home,,,,,,,,,,,,,
13,19,4335,B,60.040891426017,33.3186194352708,3.0020445713008495,0.5233676502280042,B,347.77350001968443,Correct,sub_013_day_15_data.csv,1,300,173.0,Training at home,,,,,,,,,,,,,
13,19,4336,B,62.38076646118872,48.30173209245304,3.119038323059436,0.7587218334865641,B,385.05009980872273,Correct,sub_013_day_15_data.csv,1,300,173.0,Training at home,,,,,,,,,,,,,
13,19,4337,B,39.13411435846999,15.313777614803447,1.9567057179234997,0.2405482562668717,B,522.6903001312166,Correct,sub_013_day_15_data.csv,1,300,173.0,Training at home,,,,,,,,,,,,,
13,19,4338,B,80.01062284928534,59.896376570709194,4.0005311424642676,0.940850083055939,A,567.4143000505865,Incorrect,sub_013_day_15_data.csv,0,300,173.0,Training at home,,,,,,,,,,,,,
13,19,4339,A,63.60767533703003,83.9098003256836,3.180383766851502,1.31805206133677,A,456.252200063318,Correct,sub_013_day_15_data.csv,1,300,173.0,Training at home,,,,,,,,,,,,,
13,19,4340,B,74.95171425080186,63.07584288084552,3.7475857125400927,0.9907930230672416,B,406.4976000227034,Correct,sub_013_day_15_data.csv,1,300,173.0,Training at home,,,,,,,,,,,,,
13,19,4341,A,34.565588383239266,64.40244279820327,1.7282794191619633,1.0116312058403614,A,390.782400034368,Correct,sub_013_day_15_data.csv,1,300,173.0,Training at home,,,,,,,,,,,,,
13,19,4342,A,50.560992759512104,63.05927645116151,2.528049637975605,0.9905327981982842,A,408.8208999019116,Correct,sub_013_day_15_data.csv,1,300,173.0,Training at home,,,,,,,,,,,,,
13,19,4343,A,69.54623524790742,86.59636901609133,3.477311762395371,1.3602525836425166,A,510.3945001028478,Correct,sub_013_day_15_data.csv,1,300,173.0,Training at home,,,,,,,,,,,,,
13,19,4344,B,63.998786031286194,36.536517480153414,3.1999393015643096,0.573914274517025,B,476.4560000039637,Correct,sub_013_day_15_data.csv,1,300,173.0,Training at home,,,,,,,,,,,,,
13,19,4345,A,58.459172279860695,86.54071929445666,2.9229586139930346,1.3593784398592077,A,330.8153999969363,Correct,sub_013_day_15_data.csv,1,300,173.0,Training at home,,,,,,,,,,,,,
13,19,4346,A,41.23151789566278,49.07029354179523,2.061575894783139,0.7707943685019927,B,456.11660019494593,Incorrect,sub_013_day_15_data.csv,0,300,173.0,Training at home,,,,,,,,,,,,,
13,19,4347,A,62.37865091219929,88.45326629835566,3.118932545609965,1.3894206579446788,A,314.6744999103248,Correct,sub_013_day_15_data.csv,1,300,173.0,Training at home,,,,,,,,,,,,,
13,19,4348,A,21.041715496020252,47.62652896935781,1.0520857748010126,0.7481157676305797,A,549.6616000309587,Correct,sub_013_day_15_data.csv,1,300,173.0,Training at home,,,,,,,,,,,,,
13,19,4349,A,53.68836173661238,77.56092122171081,2.6844180868306187,1.218324101578917,A,391.8113000690937,Correct,sub_013_day_15_data.csv,1,300,173.0,Training at home,,,,,,,,,,,,,
13,19,4350,B,69.37151117577744,56.618753007949095,3.468575558788872,0.8893652925259394,A,449.6244001202286,Incorrect,sub_013_day_15_data.csv,0,300,174.0,Training at home,,,,,,,,,,,,,
13,19,4351,B,87.3557792534653,63.43735801729368,4.367788962673265,0.996471689551377,B,334.3803999014199,Correct,sub_013_day_15_data.csv,1,300,174.0,Training at home,,,,,,,,,,,,,
13,19,4352,A,56.84841675876696,64.72927338013866,2.842420837938348,1.016765048616245,A,431.8850999698043,Correct,sub_013_day_15_data.csv,1,300,174.0,Training at home,,,,,,,,,,,,,
13,19,4353,B,79.26712394168926,52.086789568041745,3.963356197084463,0.8181773772801871,B,375.9804000146687,Correct,sub_013_day_15_data.csv,1,300,174.0,Training at home,,,,,,,,,,,,,
13,19,4354,B,42.2730342592416,19.284339488703488,2.11365171296208,0.3029176963352121,B,381.9379000924528,Correct,sub_013_day_15_data.csv,1,300,174.0,Training at home,,,,,,,,,,,,,
13,19,4355,B,69.37301308801695,51.19675118547781,3.468650654400847,0.8041966870598082,B,926.0299000889064,Correct,sub_013_day_15_data.csv,1,300,174.0,Training at home,,,,,,,,,,,,,
13,19,4356,A,41.959394819551285,50.881001706581,2.097969740977564,0.7992369058434231,A,392.3398000188172,Correct,sub_013_day_15_data.csv,1,300,174.0,Training at home,,,,,,,,,,,,,
13,19,4357,A,60.08681128966606,75.59313418700238,3.0043405644833028,1.1874141751185705,A,404.6046999283135,Correct,sub_013_day_15_data.csv,1,300,174.0,Training at home,,,,,,,,,,,,,
13,19,4358,A,40.709246674470066,69.80621217813207,2.0354623337235034,1.0965134167687505,A,347.81519998796284,Correct,sub_013_day_15_data.csv,1,300,174.0,Training at home,,,,,,,,,,,,,
13,19,4359,B,51.77560365972541,24.423687417860457,2.588780182986271,0.3836463848276193,B,341.73749992623925,Correct,sub_013_day_15_data.csv,1,300,174.0,Training at home,,,,,,,,,,,,,
13,19,4360,A,64.5092533424898,76.88239631698737,3.2254626671244897,1.2076658572991326,B,469.677799846977,Incorrect,sub_013_day_15_data.csv,0,300,174.0,Training at home,,,,,,,,,,,,,
13,19,4361,A,41.68696657130667,51.3980584328312,2.0843483285653335,0.8073588139068071,A,488.1012998521328,Correct,sub_013_day_15_data.csv,1,300,174.0,Training at home,,,,,,,,,,,,,
13,19,4362,A,22.569339122110645,44.49309951097729,1.1284669561055325,0.6988959727956293,A,463.4965001605451,Correct,sub_013_day_15_data.csv,1,300,174.0,Training at home,,,,,,,,,,,,,
13,19,4363,A,37.67103304235608,70.23752421704317,1.883551652117804,1.10328845043299,A,369.5074999704957,Correct,sub_013_day_15_data.csv,1,300,174.0,Training at home,,,,,,,,,,,,,
13,19,4364,A,27.18087264694115,45.39989279062968,1.3590436323470576,0.713139848324032,A,341.81679994799197,Correct,sub_013_day_15_data.csv,1,300,174.0,Training at home,,,,,,,,,,,,,
13,19,4365,A,53.9048547645361,72.3503596809245,2.6952427382268045,1.136476792290858,A,412.30369987897575,Correct,sub_013_day_15_data.csv,1,300,174.0,Training at home,,,,,,,,,,,,,
13,19,4366,A,63.97682267024064,87.0437697603307,3.1988411335120315,1.3672803380990817,A,470.1696000993252,Correct,sub_013_day_15_data.csv,1,300,174.0,Training at home,,,,,,,,,,,,,
13,19,4367,A,25.056683262448292,48.4349109560622,1.2528341631224145,0.7608138021842039,A,399.4569999631494,Correct,sub_013_day_15_data.csv,1,300,174.0,Training at home,,,,,,,,,,,,,
13,19,4368,A,31.354254622663717,52.87438687961219,1.5677127311331858,0.8305489269202712,A,370.2557000797242,Correct,sub_013_day_15_data.csv,1,300,174.0,Training at home,,,,,,,,,,,,,
13,19,4369,B,76.32720913353842,57.43875845670193,3.8163604566769207,0.902245907994467,A,511.8563000578433,Incorrect,sub_013_day_15_data.csv,0,300,174.0,Training at home,,,,,,,,,,,,,
13,19,4370,B,74.21579799220243,47.28062737313182,3.710789899610121,0.742682358062737,A,404.2007001116872,Incorrect,sub_013_day_15_data.csv,0,300,174.0,Training at home,,,,,,,,,,,,,
13,19,4371,A,48.44392393007737,61.987384031094,2.4221961965038683,0.973695551436671,A,459.6510999836027,Correct,sub_013_day_15_data.csv,1,300,174.0,Training at home,,,,,,,,,,,,,
13,19,4372,B,51.470676953491434,30.320426728175576,2.5735338476745717,0.47627214931472,B,396.17040008306503,Correct,sub_013_day_15_data.csv,1,300,174.0,Training at home,,,,,,,,,,,,,
13,19,4373,A,18.77155561173748,40.666632856792006,0.938577780586874,0.6387899751456554,A,505.0362001638859,Correct,sub_013_day_15_data.csv,1,300,174.0,Training at home,,,,,,,,,,,,,
13,19,4374,A,36.09202395467,65.0729209701232,1.8046011977335,1.0221630523368412,A,421.2132000830025,Correct,sub_013_day_15_data.csv,1,300,174.0,Training at home,,,,,,,,,,,,,
13,19,4375,A,52.81048277333548,66.16393288753339,2.640524138666774,1.039300627460415,A,374.01920021511614,Correct,sub_013_day_15_data.csv,1,300,175.0,Training at home,,,,,,,,,,,,,
13,19,4376,A,18.93691417300641,44.84855701008492,0.9468457086503206,0.704479486134929,A,404.5937999617309,Correct,sub_013_day_15_data.csv,1,300,175.0,Training at home,,,,,,,,,,,,,
13,19,4377,B,34.63593010158137,16.79817463625811,1.731796505079069,0.2638651101549343,B,1037.4435000121591,Correct,sub_013_day_15_data.csv,1,300,175.0,Training at home,,,,,,,,,,,,,
13,19,4378,B,61.638838477356686,42.38033710575721,3.0819419238678343,0.6657087785405288,B,355.5587998125702,Correct,sub_013_day_15_data.csv,1,300,175.0,Training at home,,,,,,,,,,,,,
13,19,4379,A,35.140564391437024,58.41326993286086,1.7570282195718512,0.9175534984661662,A,408.6694000288844,Correct,sub_013_day_15_data.csv,1,300,175.0,Training at home,,,,,,,,,,,,,
13,19,4380,A,20.74723299291379,42.77212911581084,1.0373616496456897,0.6718630330431272,B,424.0280999802053,Incorrect,sub_013_day_15_data.csv,0,300,175.0,Training at home,,,,,,,,,,,,,
13,19,4381,A,17.57734178309203,32.294785847503405,0.8788670891546017,0.5072853098388616,A,716.9524999335408,Correct,sub_013_day_15_data.csv,1,300,175.0,Training at home,,,,,,,,,,,,,
13,19,4382,B,64.21408931115447,44.457236098568416,3.2107044655577233,0.6983326316308475,B,480.74909998103976,Correct,sub_013_day_15_data.csv,1,300,175.0,Training at home,,,,,,,,,,,,,
13,19,4383,B,66.17206013091773,33.212780118687746,3.3086030065458862,0.5217051301308128,B,404.4601998757571,Correct,sub_013_day_15_data.csv,1,300,175.0,Training at home,,,,,,,,,,,,,
13,19,4384,B,58.790144812219346,40.747172919554366,2.939507240610967,0.6400550954931248,B,397.49359991401434,Correct,sub_013_day_15_data.csv,1,300,175.0,Training at home,,,,,,,,,,,,,
13,19,4385,B,56.020238214564785,46.61806124833197,2.801011910728239,0.7322747937117938,B,357.35559999011457,Correct,sub_013_day_15_data.csv,1,300,175.0,Training at home,,,,,,,,,,,,,
13,19,4386,B,64.69988123453402,39.51140809009476,3.234994061726701,0.6206437469441501,B,408.4673000033945,Correct,sub_013_day_15_data.csv,1,300,175.0,Training at home,,,,,,,,,,,,,
13,19,4387,B,63.273603519081746,40.01606541550283,3.163680175954087,0.6285708856745614,B,402.7926998678595,Correct,sub_013_day_15_data.csv,1,300,175.0,Training at home,,,,,,,,,,,,,
13,19,4388,B,60.18775535444592,50.27019393119106,3.009387767722296,0.7896423597438202,B,422.9363000486046,Correct,sub_013_day_15_data.csv,1,300,175.0,Training at home,,,,,,,,,,,,,
13,19,4389,B,44.69702586723318,20.22365491188626,2.234851293361659,0.317672428499585,B,546.0158998612314,Correct,sub_013_day_15_data.csv,1,300,175.0,Training at home,,,,,,,,,,,,,
13,19,4390,B,77.19314205447463,46.90528222924973,3.859657102723731,0.736786450329834,B,420.2424001414329,Correct,sub_013_day_15_data.csv,1,300,175.0,Training at home,,,,,,,,,,,,,
13,19,4391,A,37.734682864526256,45.196273173803654,1.886734143226313,0.709941398862295,B,450.78059984371066,Incorrect,sub_013_day_15_data.csv,0,300,175.0,Training at home,,,,,,,,,,,,,
13,19,4392,B,71.49688906922404,58.07503128664102,3.574844453461202,0.9122404582355442,A,391.1071000620723,Incorrect,sub_013_day_15_data.csv,0,300,175.0,Training at home,,,,,,,,,,,,,
13,19,4393,B,51.94242843307978,39.80531223017848,2.597121421653989,0.6252603823808832,B,756.0382001101971,Correct,sub_013_day_15_data.csv,1,300,175.0,Training at home,,,,,,,,,,,,,
13,19,4394,A,59.691822420411405,68.26141188294852,2.98459112102057,1.0722477504756904,A,634.5493998378515,Correct,sub_013_day_15_data.csv,1,300,175.0,Training at home,,,,,,,,,,,,,
13,19,4395,B,73.7140030738926,60.297920418154234,3.68570015369463,0.9471575190620766,B,436.6943000350147,Correct,sub_013_day_15_data.csv,1,300,175.0,Training at home,,,,,,,,,,,,,
13,19,4396,A,48.44501596871674,69.71691353914554,2.422250798435837,1.095110717027672,A,442.61639984324574,Correct,sub_013_day_15_data.csv,1,300,175.0,Training at home,,,,,,,,,,,,,
13,19,4397,B,81.16300530442254,61.31230120859215,4.058150265221127,0.9630913752579884,A,438.5732999071479,Incorrect,sub_013_day_15_data.csv,0,300,175.0,Training at home,,,,,,,,,,,,,
13,19,4398,A,64.39005521952436,77.62922533243297,3.219502760976218,1.2193970200411903,A,393.93869997002184,Correct,sub_013_day_15_data.csv,1,300,175.0,Training at home,,,,,,,,,,,,,
13,19,4399,A,54.45427207292438,70.4108760729,2.722713603646219,1.1060114550172198,A,313.3602000307292,Correct,sub_013_day_15_data.csv,1,300,175.0,Training at home,,,,,,,,,,,,,
13,19,4400,B,85.11465089223101,58.75846121149229,4.255732544611551,0.922975750391325,B,443.9172998536378,Correct,sub_013_day_15_data.csv,1,300,176.0,Training at home,,,,,,,,,,,,,
13,19,4401,A,43.22784236195419,74.75551662133947,2.161392118097709,1.1742569091645487,A,417.3012000974268,Correct,sub_013_day_15_data.csv,1,300,176.0,Training at home,,,,,,,,,,,,,
13,19,4402,B,59.929367324864735,52.94140330130984,2.9964683662432368,0.8316016184106471,A,344.6339999791235,Incorrect,sub_013_day_15_data.csv,0,300,176.0,Training at home,,,,,,,,,,,,,
13,19,4403,B,53.95730433612647,46.565638040009134,2.6978652168063233,0.7314513318810705,B,441.0530000459403,Correct,sub_013_day_15_data.csv,1,300,176.0,Training at home,,,,,,,,,,,,,
13,19,4404,A,67.037314833474,86.2250684903105,3.3518657416737,1.354420208622181,A,393.9183000475168,Correct,sub_013_day_15_data.csv,1,300,176.0,Training at home,,,,,,,,,,,,,
13,19,4405,A,66.1431877587641,84.77904632365174,3.307159387938205,1.3317061455436652,A,454.37789987772703,Correct,sub_013_day_15_data.csv,1,300,176.0,Training at home,,,,,,,,,,,,,
13,19,4406,B,59.227274854478495,47.01151667340196,2.961363742723925,0.7384551770763683,B,587.2015999630094,Correct,sub_013_day_15_data.csv,1,300,176.0,Training at home,,,,,,,,,,,,,
13,19,4407,B,59.21950557961669,27.34102353029371,2.9609752789808343,0.4294717933219819,B,477.3017000406981,Correct,sub_013_day_15_data.csv,1,300,176.0,Training at home,,,,,,,,,,,,,
13,19,4408,A,15.441759049613792,41.81903370213536,0.7720879524806896,0.6568918452942621,A,494.15269983001053,Correct,sub_013_day_15_data.csv,1,300,176.0,Training at home,,,,,,,,,,,,,
13,19,4409,B,57.45972166530749,27.16160785407038,2.872986083265374,0.4266535384701716,B,369.3363999482244,Correct,sub_013_day_15_data.csv,1,300,176.0,Training at home,,,,,,,,,,,,,
13,19,4410,A,36.56798318632167,44.179411183216665,1.8283991593160835,0.6939685680655812,B,517.9620999842882,Incorrect,sub_013_day_15_data.csv,0,300,176.0,Training at home,,,,,,,,,,,,,
13,19,4411,B,44.540651392893494,33.17164857686821,2.227032569644675,0.5210590373827574,B,409.36600021086633,Correct,sub_013_day_15_data.csv,1,300,176.0,Training at home,,,,,,,,,,,,,
13,19,4412,A,17.312014470499527,42.06613520766151,0.8656007235249763,0.6607733066665218,A,488.6825999710709,Correct,sub_013_day_15_data.csv,1,300,176.0,Training at home,,,,,,,,,,,,,
13,19,4413,A,28.983761676480395,54.41076471083507,1.44918808382402,0.854682293458811,A,387.9448000807315,Correct,sub_013_day_15_data.csv,1,300,176.0,Training at home,,,,,,,,,,,,,
13,19,4414,A,68.511321132857,89.28591198904788,3.4255660566428503,1.4024998258692882,A,465.7447999343276,Correct,sub_013_day_15_data.csv,1,300,176.0,Training at home,,,,,,,,,,,,,
13,19,4415,B,50.34455998336466,40.70369044571468,2.517227999168233,0.6393720743912515,A,401.8970001488924,Incorrect,sub_013_day_15_data.csv,0,300,176.0,Training at home,,,,,,,,,,,,,
13,19,4416,B,64.28294587461033,37.57951899480756,3.214147293730517,0.5902977039976275,B,527.8712001163512,Correct,sub_013_day_15_data.csv,1,300,176.0,Training at home,,,,,,,,,,,,,
13,19,4417,A,20.96137754203589,48.03874543383562,1.0480688771017943,0.754590848713041,A,438.12600011006,Correct,sub_013_day_15_data.csv,1,300,176.0,Training at home,,,,,,,,,,,,,
13,19,4418,A,51.573708976585635,60.116750689827285,2.578685448829282,0.9443117116242524,A,426.58609990030527,Correct,sub_013_day_15_data.csv,1,300,176.0,Training at home,,,,,,,,,,,,,
13,19,4419,B,85.78713311475568,65.68914259425597,4.289356655737784,1.0318426389736346,A,444.47379978373647,Incorrect,sub_013_day_15_data.csv,0,300,176.0,Training at home,,,,,,,,,,,,,
13,19,4420,A,65.69152223567345,81.70412255553876,3.2845761117836725,1.2834053559424037,A,415.674899937585,Correct,sub_013_day_15_data.csv,1,300,176.0,Training at home,,,,,,,,,,,,,
13,19,4421,A,45.33495079306989,56.137948972006015,2.2667475396534944,0.8818128403902639,B,444.8148999363184,Incorrect,sub_013_day_15_data.csv,0,300,176.0,Training at home,,,,,,,,,,,,,
13,19,4422,B,73.2789578635373,41.63997051233998,3.663947893176865,0.6540791272863145,B,476.90810007043183,Correct,sub_013_day_15_data.csv,1,300,176.0,Training at home,,,,,,,,,,,,,
13,19,4423,A,52.972453024911296,66.63649584973001,2.6486226512455646,1.0467236291123927,A,553.8945998996496,Correct,sub_013_day_15_data.csv,1,300,176.0,Training at home,,,,,,,,,,,,,
13,19,4424,A,62.40256396472258,71.66854068899653,3.120128198236129,1.1257668046102631,A,395.0322000309825,Correct,sub_013_day_15_data.csv,1,300,176.0,Training at home,,,,,,,,,,,,,
13,19,4425,B,42.51954577375812,27.91817553276996,2.125977288687906,0.4385376757769021,B,325.53860009647906,Correct,sub_013_day_15_data.csv,1,300,177.0,Training at home,,,,,,,,,,,,,
13,19,4426,A,52.86356423091942,80.33812989855117,2.643178211545971,1.2619483934621545,A,448.6978999339044,Correct,sub_013_day_15_data.csv,1,300,177.0,Training at home,,,,,,,,,,,,,
13,19,4427,A,34.94633161287163,53.91100868769057,1.7473165806435815,0.846832144204321,B,431.64069997146726,Incorrect,sub_013_day_15_data.csv,0,300,177.0,Training at home,,,,,,,,,,,,,
13,19,4428,B,57.396119181024346,31.695308405532543,2.8698059590512175,0.4978687402004193,B,501.94820016622543,Correct,sub_013_day_15_data.csv,1,300,177.0,Training at home,,,,,,,,,,,,,
13,19,4429,B,60.76595554370975,49.55702774034767,3.0382977771854875,0.7784399714141091,B,336.8637999519706,Correct,sub_013_day_15_data.csv,1,300,177.0,Training at home,,,,,,,,,,,,,
13,19,4430,B,31.61052347950258,14.38467100403415,1.580526173975129,0.225953883752899,A,457.90029992349446,Incorrect,sub_013_day_15_data.csv,0,300,177.0,Training at home,,,,,,,,,,,,,
13,19,4431,B,78.55579927857268,48.2984279951983,3.927789963928634,0.7586699328482529,B,421.71770008280873,Correct,sub_013_day_15_data.csv,1,300,177.0,Training at home,,,,,,,,,,,,,
13,19,4432,A,65.05411451329263,77.6307117047694,3.2527057256646317,1.2194203679232536,A,391.1772998981178,Correct,sub_013_day_15_data.csv,1,300,177.0,Training at home,,,,,,,,,,,,,
13,19,4433,A,50.15128547573883,73.56043862538598,2.5075642737869415,1.1554846679017774,A,407.8534001018852,Correct,sub_013_day_15_data.csv,1,300,177.0,Training at home,,,,,,,,,,,,,
13,19,4434,A,59.92777404592253,77.07115910497981,2.996388702296126,1.210630936239273,A,411.41739999875426,Correct,sub_013_day_15_data.csv,1,300,177.0,Training at home,,,,,,,,,,,,,
13,19,4435,B,58.371912104372875,33.77800831990094,2.9185956052186435,0.5305837139534785,B,331.66630007326603,Correct,sub_013_day_15_data.csv,1,300,177.0,Training at home,,,,,,,,,,,,,
13,19,4436,A,34.65200920936098,45.76155931189602,1.7326004604680492,0.7188208927553307,B,402.3108999244869,Incorrect,sub_013_day_15_data.csv,0,300,177.0,Training at home,,,,,,,,,,,,,
13,19,4437,B,70.0548939488227,38.06350552787101,3.502744697441135,0.5979001466811702,B,440.6702001579106,Correct,sub_013_day_15_data.csv,1,300,177.0,Training at home,,,,,,,,,,,,,
13,19,4438,A,62.19643432559009,87.66241400968941,3.1098217162795043,1.3769979792439362,A,417.7411000709981,Correct,sub_013_day_15_data.csv,1,300,177.0,Training at home,,,,,,,,,,,,,
13,19,4439,A,47.106733004848,71.24784344421187,2.3553366502424,1.1191585077422586,A,400.15699993819,Correct,sub_013_day_15_data.csv,1,300,177.0,Training at home,,,,,,,,,,,,,
13,19,4440,A,47.44914711801805,75.73444783071182,2.3724573559009023,1.1896339246432184,A,379.2358001228422,Correct,sub_013_day_15_data.csv,1,300,177.0,Training at home,,,,,,,,,,,,,
13,19,4441,A,53.97107673503052,80.00997795395924,2.6985538367515263,1.256793794770198,A,328.80429993383586,Correct,sub_013_day_15_data.csv,1,300,177.0,Training at home,,,,,,,,,,,,,
13,19,4442,A,50.46696041267355,67.0613451171137,2.523348020633678,1.053397145798871,B,428.101500030607,Incorrect,sub_013_day_15_data.csv,0,300,177.0,Training at home,,,,,,,,,,,,,
13,19,4443,B,49.343975569578774,28.869249631544733,2.467198778478939,0.4534771127855539,B,474.47980009019375,Correct,sub_013_day_15_data.csv,1,300,177.0,Training at home,,,,,,,,,,,,,
13,19,4444,B,66.77717248171491,52.283557706039915,3.3388586240857454,0.8212682039641651,B,359.53249991871417,Correct,sub_013_day_15_data.csv,1,300,177.0,Training at home,,,,,,,,,,,,,
13,19,4445,A,12.103851219596404,35.65198614269026,0.6051925609798202,0.5600200887588043,A,397.6680999621749,Correct,sub_013_day_15_data.csv,1,300,177.0,Training at home,,,,,,,,,,,,,
13,19,4446,B,86.17942356439849,62.27876719618794,4.308971178219924,0.9782725874908652,B,323.56969988904893,Correct,sub_013_day_15_data.csv,1,300,177.0,Training at home,,,,,,,,,,,,,
13,19,4447,A,46.67437796346191,77.8911507232387,2.333718898173095,1.22351133445891,A,333.6557000875473,Correct,sub_013_day_15_data.csv,1,300,177.0,Training at home,,,,,,,,,,,,,
13,19,4448,A,55.13894328660283,75.98336993933819,2.7569471643301413,1.193543983982102,A,411.5194999612868,Correct,sub_013_day_15_data.csv,1,300,177.0,Training at home,,,,,,,,,,,,,
13,19,4449,B,32.03771918614291,16.595331570855546,1.6018859593071455,0.2606788587344327,B,391.9424000196159,Correct,sub_013_day_15_data.csv,1,300,177.0,Training at home,,,,,,,,,,,,,
13,19,4450,B,49.59656340754547,41.2946298650524,2.479828170377273,0.6486545290837914,B,427.4196999613196,Correct,sub_013_day_15_data.csv,1,300,178.0,Training at home,,,,,,,,,,,,,
13,19,4451,B,67.59264503089524,40.19362500701735,3.3796322515447623,0.6313599852159435,A,401.5705001074821,Incorrect,sub_013_day_15_data.csv,0,300,178.0,Training at home,,,,,,,,,,,,,
13,19,4452,A,53.207783668643174,78.69851111367748,2.6603891834321587,1.2361933218159191,A,426.44109996035695,Correct,sub_013_day_15_data.csv,1,300,178.0,Training at home,,,,,,,,,,,,,
13,19,4453,B,50.97762155578042,24.033633201446207,2.548881077789021,0.3775194275236757,B,346.451299963519,Correct,sub_013_day_15_data.csv,1,300,178.0,Training at home,,,,,,,,,,,,,
13,19,4454,A,34.3435237548606,54.87513617902997,1.7171761877430298,0.8619766234239001,A,383.70030000805855,Correct,sub_013_day_15_data.csv,1,300,178.0,Training at home,,,,,,,,,,,,,
13,19,4455,B,79.31196750923716,53.36795474992643,3.965598375461858,0.838301872897407,B,364.77490002289414,Correct,sub_013_day_15_data.csv,1,300,178.0,Training at home,,,,,,,,,,,,,
13,19,4456,B,56.21341891898365,33.213377116674934,2.810670945949182,0.5217145077532666,B,417.2248998656869,Correct,sub_013_day_15_data.csv,1,300,178.0,Training at home,,,,,,,,,,,,,
13,19,4457,B,35.374617725334296,11.673464600731393,1.7687308862667148,0.1833663531579912,B,427.43470007553697,Correct,sub_013_day_15_data.csv,1,300,178.0,Training at home,,,,,,,,,,,,,
13,19,4458,A,19.152750431736475,49.4453666416644,0.9576375215868238,0.7766860029775334,A,496.6070998925716,Correct,sub_013_day_15_data.csv,1,300,178.0,Training at home,,,,,,,,,,,,,
13,19,4459,A,14.448507647281634,36.72014388671204,0.7224253823640816,0.5767986713662735,A,470.279400004074,Correct,sub_013_day_15_data.csv,1,300,178.0,Training at home,,,,,,,,,,,,,
13,19,4460,B,41.49436056339641,23.24743163464251,2.0747180281698205,0.3651698021911193,B,347.4677000194788,Correct,sub_013_day_15_data.csv,1,300,178.0,Training at home,,,,,,,,,,,,,
13,19,4461,B,48.91305586378525,17.872403830911303,2.4456527931892627,0.2807390628859051,B,433.3769001532346,Correct,sub_013_day_15_data.csv,1,300,178.0,Training at home,,,,,,,,,,,,,
13,19,4462,B,62.53586386700666,48.676000085097,3.1267931933503332,0.7646008213673844,B,425.11770012788475,Correct,sub_013_day_15_data.csv,1,300,178.0,Training at home,,,,,,,,,,,,,
13,19,4463,A,37.33125640251661,70.155237586932,1.8665628201258304,1.1019958950697604,A,431.2950999010354,Correct,sub_013_day_15_data.csv,1,300,178.0,Training at home,,,,,,,,,,,,,
13,19,4464,B,40.82940970803202,21.91905164927765,2.041470485401601,0.3443036581751295,B,407.7318001072854,Correct,sub_013_day_15_data.csv,1,300,178.0,Training at home,,,,,,,,,,,,,
13,19,4465,A,37.26018679786682,52.38983594972609,1.8630093398933412,0.8229376187121696,B,468.76040007919073,Incorrect,sub_013_day_15_data.csv,0,300,178.0,Training at home,,,,,,,,,,,,,
13,19,4466,B,56.661229243549144,35.98004321298324,2.833061462177457,0.5651731971687571,B,433.1712999846786,Correct,sub_013_day_15_data.csv,1,300,178.0,Training at home,,,,,,,,,,,,,
13,19,4467,B,45.79739300308391,32.07196526857201,2.2898696501541957,0.503785252369664,B,357.6463998761028,Correct,sub_013_day_15_data.csv,1,300,178.0,Training at home,,,,,,,,,,,,,
13,19,4468,A,25.994252225134808,57.97199002169239,1.2997126112567403,0.9106218898306482,A,370.7469999790192,Correct,sub_013_day_15_data.csv,1,300,178.0,Training at home,,,,,,,,,,,,,
13,19,4469,B,75.89048793771873,57.78607751200042,3.794524396885937,0.9077015829573544,B,352.84460010007024,Correct,sub_013_day_15_data.csv,1,300,178.0,Training at home,,,,,,,,,,,,,
13,19,4470,B,39.251556065917704,28.49765638512445,1.9625778032958852,0.4476401397201662,A,483.4672999568283,Incorrect,sub_013_day_15_data.csv,0,300,178.0,Training at home,,,,,,,,,,,,,
13,19,4471,A,16.936717183061777,31.564454050323757,0.8468358591530888,0.4958132847953485,B,364.82209991663694,Incorrect,sub_013_day_15_data.csv,0,300,178.0,Training at home,,,,,,,,,,,,,
13,19,4472,B,76.37510507909448,59.68612543613075,3.818755253954724,0.9375474659569364,B,486.59899993799627,Correct,sub_013_day_15_data.csv,1,300,178.0,Training at home,,,,,,,,,,,,,
13,19,4473,A,18.515167516996545,36.596135675450086,0.9257583758498272,0.5748507549388466,A,460.3798999451101,Correct,sub_013_day_15_data.csv,1,300,178.0,Training at home,,,,,,,,,,,,,
13,19,4474,B,57.45402973459441,34.758710977297014,2.8727014867297203,0.545988555272636,B,442.0422001276165,Correct,sub_013_day_15_data.csv,1,300,178.0,Training at home,,,,,,,,,,,,,
13,19,4475,B,51.11439282873951,40.53778581011445,2.5557196414369754,0.6367660504692606,B,406.592900166288,Correct,sub_013_day_15_data.csv,1,300,179.0,Training at home,,,,,,,,,,,,,
13,19,4476,B,80.71301727713488,59.57063420120595,4.035650863856744,0.9357333338809676,A,341.4028000552207,Incorrect,sub_013_day_15_data.csv,0,300,179.0,Training at home,,,,,,,,,,,,,
13,19,4477,B,69.21523635744641,39.74852968696767,3.4607618178723207,0.6243684442778672,B,468.5282001737505,Correct,sub_013_day_15_data.csv,1,300,179.0,Training at home,,,,,,,,,,,,,
13,19,4478,B,85.6962283763196,67.31339941802955,4.28481141881598,1.0573564054991855,A,460.5614999309182,Incorrect,sub_013_day_15_data.csv,0,300,179.0,Training at home,,,,,,,,,,,,,
13,19,4479,B,41.84748713763766,18.245452134739644,2.0923743568818827,0.2865988919396113,B,428.97579981945455,Correct,sub_013_day_15_data.csv,1,300,179.0,Training at home,,,,,,,,,,,,,
13,19,4480,A,65.7875111945554,78.0404093604317,3.2893755597277705,1.2258558836493618,A,469.1876999568194,Correct,sub_013_day_15_data.csv,1,300,179.0,Training at home,,,,,,,,,,,,,
13,19,4481,B,41.827048485642074,29.09562546640467,2.091352424282104,0.457033016084285,B,347.1449001226574,Correct,sub_013_day_15_data.csv,1,300,179.0,Training at home,,,,,,,,,,,,,
13,19,4482,A,37.38479821971249,52.93396233741973,1.8692399109856248,0.8314847360231832,B,693.6280999798328,Incorrect,sub_013_day_15_data.csv,0,300,179.0,Training at home,,,,,,,,,,,,,
13,19,4483,B,45.80690178701253,16.575056570039592,2.2903450893506263,0.2603603797663581,B,455.9390000067651,Correct,sub_013_day_15_data.csv,1,300,179.0,Training at home,,,,,,,,,,,,,
13,19,4484,B,47.12779005677559,39.13131870400708,2.356389502838779,0.6146733168289474,A,393.6851001344621,Incorrect,sub_013_day_15_data.csv,0,300,179.0,Training at home,,,,,,,,,,,,,
13,19,4485,B,62.41397335834008,53.9532969981035,3.120698667917004,0.847496407430951,B,447.62759981676936,Correct,sub_013_day_15_data.csv,1,300,179.0,Training at home,,,,,,,,,,,,,
13,19,4486,B,43.40880782329911,14.47483737408934,2.1704403911649552,0.2273702137817302,B,363.1016002036631,Correct,sub_013_day_15_data.csv,1,300,179.0,Training at home,,,,,,,,,,,,,
13,19,4487,B,87.10613308559047,64.97889248407928,4.355306654279524,1.0206860563319224,B,457.11740013211966,Correct,sub_013_day_15_data.csv,1,300,179.0,Training at home,,,,,,,,,,,,,
13,19,4488,A,55.95205879755101,79.56770766611974,2.79760293987755,1.2498466293343102,B,322.2783000674099,Incorrect,sub_013_day_15_data.csv,0,300,179.0,Training at home,,,,,,,,,,,,,
13,19,4489,A,22.653806687393143,44.818259104149554,1.1326903343696573,0.7040035677414005,A,356.46499996073544,Correct,sub_013_day_15_data.csv,1,300,179.0,Training at home,,,,,,,,,,,,,
13,19,4490,A,46.63928534475269,61.44416994282014,2.331964267237635,0.9651627644914326,B,497.5177999585867,Incorrect,sub_013_day_15_data.csv,0,300,179.0,Training at home,,,,,,,,,,,,,
13,19,4491,A,32.433274198319715,46.80879835471197,1.6216637099159856,0.7352708851726455,A,357.73749998770654,Correct,sub_013_day_15_data.csv,1,300,179.0,Training at home,,,,,,,,,,,,,
13,19,4492,B,70.23671270904688,53.519735157955736,3.511835635452344,0.8406860339715256,B,517.7472000941634,Correct,sub_013_day_15_data.csv,1,300,179.0,Training at home,,,,,,,,,,,,,
13,19,4493,B,72.91577855163071,40.42324087527229,3.645788927581535,0.6349667828402304,B,381.7769999150187,Correct,sub_013_day_15_data.csv,1,300,179.0,Training at home,,,,,,,,,,,,,
13,19,4494,A,56.16462066584435,72.53594105085335,2.808231033292218,1.139391897632916,A,404.69100000336766,Correct,sub_013_day_15_data.csv,1,300,179.0,Training at home,,,,,,,,,,,,,
13,19,4495,B,56.52935714718643,33.067654873370444,2.8264678573593214,0.5194255081081166,B,397.1552001312375,Correct,sub_013_day_15_data.csv,1,300,179.0,Training at home,,,,,,,,,,,,,
13,19,4496,A,47.030668275907075,67.6112283249673,2.351533413795354,1.0620346910294969,A,390.0505001656711,Correct,sub_013_day_15_data.csv,1,300,179.0,Training at home,,,,,,,,,,,,,
13,19,4497,B,85.93128157597744,64.30423217265772,4.2965640787988715,1.0100885169417697,B,375.43269991874695,Correct,sub_013_day_15_data.csv,1,300,179.0,Training at home,,,,,,,,,,,,,
13,19,4498,B,71.56100007811213,38.59721489663358,3.5780500039056062,0.6062836338414529,B,408.6631000973284,Correct,sub_013_day_15_data.csv,1,300,179.0,Training at home,,,,,,,,,,,,,
13,19,4499,A,38.848486945757735,59.13297510074754,1.9424243472878868,0.928858600807083,A,411.0578999388963,Correct,sub_013_day_15_data.csv,1,300,179.0,Training at home,,,,,,,,,,,,,
