subject,day,trial,cat,x,y,xt,yt,resp,rt,fb,f_name,acc,n_trials,block,session_type,ns_left_digit,ns_right_digit,ns_left_size,ns_right_size,ns_congruent,ns_cue,ns_correct_side,ns_resp,ns_rt,ns_fb,acc_stroop,acc_stroop_mean,resp_key
5,14,3000,A,52.52285376443935,71.47112230599764,2.626142688221967,1.122665763901699,A,466.7904998641461,Correct,sub_005_day_11_data.csv,1,300,120.0,Training at home,,,,,,,,,,,,,
5,14,3001,B,83.99487385206486,65.20463990283692,4.199743692603243,1.0242320884936018,B,446.162800071761,Correct,sub_005_day_11_data.csv,1,300,120.0,Training at home,,,,,,,,,,,,,
5,14,3002,B,70.72150066747969,53.53557235690225,3.5360750333739843,0.8409348041108445,B,480.1485000643879,Correct,sub_005_day_11_data.csv,1,300,120.0,Training at home,,,,,,,,,,,,,
5,14,3003,B,42.80682950325394,17.96203744613504,2.140341475162697,0.282147024421413,A,442.63119995594025,Incorrect,sub_005_day_11_data.csv,0,300,120.0,Training at home,,,,,,,,,,,,,
5,14,3004,A,61.57150708786686,76.14380025096204,3.078575354393343,1.1960640174241552,A,574.0628000348806,Correct,sub_005_day_11_data.csv,1,300,120.0,Training at home,,,,,,,,,,,,,
5,14,3005,A,44.92047999982096,70.20187102937163,2.2460239999910483,1.1027284114706604,A,604.1441999841481,Correct,sub_005_day_11_data.csv,1,300,120.0,Training at home,,,,,,,,,,,,,
5,14,3006,B,67.16213740573276,34.89085874464855,3.3581068702866386,0.5480643275481353,B,500.6705999840051,Correct,sub_005_day_11_data.csv,1,300,120.0,Training at home,,,,,,,,,,,,,
5,14,3007,B,52.25784071069031,29.998372687306777,2.612892035534516,0.4712133362704583,B,404.155099997297,Correct,sub_005_day_11_data.csv,1,300,120.0,Training at home,,,,,,,,,,,,,
5,14,3008,A,26.714459583417323,54.13947011979566,1.3357229791708662,0.8504208079879708,A,518.8339999876916,Correct,sub_005_day_11_data.csv,1,300,120.0,Training at home,,,,,,,,,,,,,
5,14,3009,A,44.560217189697475,59.920552856234245,2.2280108594848738,0.941229843260922,A,929.0378000587224,Correct,sub_005_day_11_data.csv,1,300,120.0,Training at home,,,,,,,,,,,,,
5,14,3010,A,18.852542378014803,39.80010743378564,0.94262711890074,0.6251786256303274,A,1012.3837999999524,Correct,sub_005_day_11_data.csv,1,300,120.0,Training at home,,,,,,,,,,,,,
5,14,3011,A,38.13597503183069,51.856895725047714,1.9067987515915343,0.8145662132389093,A,465.51250014454126,Correct,sub_005_day_11_data.csv,1,300,120.0,Training at home,,,,,,,,,,,,,
5,14,3012,A,48.004955479882575,57.376299806422765,2.4002477739941286,0.9012648098101164,B,1582.1917001158,Incorrect,sub_005_day_11_data.csv,0,300,120.0,Training at home,,,,,,,,,,,,,
5,14,3013,A,66.54378388445409,89.13056386386691,3.3271891942227048,1.400059623225201,A,552.5764999911189,Correct,sub_005_day_11_data.csv,1,300,120.0,Training at home,,,,,,,,,,,,,
5,14,3014,B,50.370210636620065,36.46785009527612,2.5185105318310033,0.5728356497576664,B,524.9960001092404,Correct,sub_005_day_11_data.csv,1,300,120.0,Training at home,,,,,,,,,,,,,
5,14,3015,A,55.84536499156515,66.12303415272474,2.792268249578257,1.038658191636335,A,1596.1470999754963,Correct,sub_005_day_11_data.csv,1,300,120.0,Training at home,,,,,,,,,,,,,
5,14,3016,A,58.10362337866202,81.36843107511211,2.905181168933101,1.2781323264984985,A,738.7359000276774,Correct,sub_005_day_11_data.csv,1,300,120.0,Training at home,,,,,,,,,,,,,
5,14,3017,B,60.16781245087763,35.86780543095574,3.0083906225438817,0.5634101702113933,B,1421.1534999776632,Correct,sub_005_day_11_data.csv,1,300,120.0,Training at home,,,,,,,,,,,,,
5,14,3018,B,77.18954366349743,47.580274417891594,3.859477183174872,0.7473892028351731,B,541.3953999523073,Correct,sub_005_day_11_data.csv,1,300,120.0,Training at home,,,,,,,,,,,,,
5,14,3019,B,56.35668359276042,35.59282028086525,2.817834179638021,0.5590907135745402,B,691.1770000588149,Correct,sub_005_day_11_data.csv,1,300,120.0,Training at home,,,,,,,,,,,,,
5,14,3020,A,50.49198043877178,77.35083500954309,2.524599021938589,1.2150240750750838,A,450.63439989462495,Correct,sub_005_day_11_data.csv,1,300,120.0,Training at home,,,,,,,,,,,,,
5,14,3021,A,39.81626151821481,65.43041803183219,1.9908130759107403,1.0277786030505658,A,419.4028000347316,Correct,sub_005_day_11_data.csv,1,300,120.0,Training at home,,,,,,,,,,,,,
5,14,3022,B,52.252250117041726,44.95571890197011,2.6126125058520864,0.7061627811963854,B,394.16230004280806,Correct,sub_005_day_11_data.csv,1,300,120.0,Training at home,,,,,,,,,,,,,
5,14,3023,B,39.48018633960988,13.047933138290588,1.974009316980494,0.2049564544589226,B,507.6094998512417,Correct,sub_005_day_11_data.csv,1,300,120.0,Training at home,,,,,,,,,,,,,
5,14,3024,B,47.92776324531673,22.72360862649808,2.3963881622658367,0.3569416096202801,B,507.4606998823583,Correct,sub_005_day_11_data.csv,1,300,120.0,Training at home,,,,,,,,,,,,,
5,14,3025,B,38.24976502573352,24.48486986873284,1.912488251286676,0.3846074365185658,B,542.6815999671817,Correct,sub_005_day_11_data.csv,1,300,121.0,Training at home,,,,,,,,,,,,,
5,14,3026,A,27.6915396506538,42.89051530999252,1.38457698253269,0.6737226390327653,A,892.2563998494297,Correct,sub_005_day_11_data.csv,1,300,121.0,Training at home,,,,,,,,,,,,,
5,14,3027,B,74.98052727147397,59.76906908068261,3.749026363573699,0.9388503416788668,B,455.529399914667,Correct,sub_005_day_11_data.csv,1,300,121.0,Training at home,,,,,,,,,,,,,
5,14,3028,A,21.929671813104473,49.30594940959844,1.0964835906552235,0.7744960422173223,A,738.4442000184208,Correct,sub_005_day_11_data.csv,1,300,121.0,Training at home,,,,,,,,,,,,,
5,14,3029,A,42.697387636218295,63.66220454861793,2.134869381810915,1.000003570606344,A,656.6420998424292,Correct,sub_005_day_11_data.csv,1,300,121.0,Training at home,,,,,,,,,,,,,
5,14,3030,B,57.70786965104515,32.6102187827197,2.885393482552258,0.5122401187987404,B,593.1027000769973,Correct,sub_005_day_11_data.csv,1,300,121.0,Training at home,,,,,,,,,,,,,
5,14,3031,A,45.734609854977904,56.699257625973694,2.2867304927488954,0.8906298561087701,A,894.3254000041634,Correct,sub_005_day_11_data.csv,1,300,121.0,Training at home,,,,,,,,,,,,,
5,14,3032,B,49.325924383160064,33.293018477906166,2.466296219158003,0.5229655113300962,B,529.2686999309808,Correct,sub_005_day_11_data.csv,1,300,121.0,Training at home,,,,,,,,,,,,,
5,14,3033,B,81.95513169787948,68.6176640223828,4.0977565848939745,1.077843745996052,B,611.041700001806,Correct,sub_005_day_11_data.csv,1,300,121.0,Training at home,,,,,,,,,,,,,
5,14,3034,B,39.67109012747986,26.43124181683137,1.9835545063739928,0.4151809755850638,B,631.5578001085669,Correct,sub_005_day_11_data.csv,1,300,121.0,Training at home,,,,,,,,,,,,,
5,14,3035,A,43.70410673911948,75.74943783055741,2.185205336955974,1.1898693870101795,A,508.29969998449087,Correct,sub_005_day_11_data.csv,1,300,121.0,Training at home,,,,,,,,,,,,,
5,14,3036,A,15.934706820904545,37.54147772239599,0.7967353410452273,0.5897001530879206,A,474.2815000936389,Correct,sub_005_day_11_data.csv,1,300,121.0,Training at home,,,,,,,,,,,,,
5,14,3037,B,49.74549167205761,23.351528259976035,2.4872745836028805,0.3668049481581757,B,466.2858000956476,Correct,sub_005_day_11_data.csv,1,300,121.0,Training at home,,,,,,,,,,,,,
5,14,3038,B,36.72914113129883,16.949796199422554,1.8364570565649416,0.2662467760997504,B,556.5425001550466,Correct,sub_005_day_11_data.csv,1,300,121.0,Training at home,,,,,,,,,,,,,
5,14,3039,B,63.28584035126246,35.56728858051703,3.164292017563123,0.5586896625633023,B,516.6927999816835,Correct,sub_005_day_11_data.csv,1,300,121.0,Training at home,,,,,,,,,,,,,
5,14,3040,B,68.57543107005458,41.03329956163329,3.428771553502729,0.6445495622768822,B,434.77330007590353,Correct,sub_005_day_11_data.csv,1,300,121.0,Training at home,,,,,,,,,,,,,
5,14,3041,B,79.44737160742494,66.77512777086832,3.972368580371247,1.0489012542373986,B,514.873499982059,Correct,sub_005_day_11_data.csv,1,300,121.0,Training at home,,,,,,,,,,,,,
5,14,3042,B,85.74683801541556,61.89939247942444,4.2873419007707785,0.9723133833751556,B,514.9175000842661,Correct,sub_005_day_11_data.csv,1,300,121.0,Training at home,,,,,,,,,,,,,
5,14,3043,A,53.800874535490166,73.07104589569394,2.6900437267745083,1.1477973048801733,A,420.982199953869,Correct,sub_005_day_11_data.csv,1,300,121.0,Training at home,,,,,,,,,,,,,
5,14,3044,A,43.18398379225429,75.79394498338868,2.1591991896127145,1.1905685037320142,A,505.88329997844994,Correct,sub_005_day_11_data.csv,1,300,121.0,Training at home,,,,,,,,,,,,,
5,14,3045,B,46.36209727906998,37.16131602886398,2.318104863953499,0.5837285871700385,B,753.7767998874187,Correct,sub_005_day_11_data.csv,1,300,121.0,Training at home,,,,,,,,,,,,,
5,14,3046,B,58.31125436458355,33.545494092587965,2.915562718229177,0.5269313890115708,B,503.70260002091527,Correct,sub_005_day_11_data.csv,1,300,121.0,Training at home,,,,,,,,,,,,,
5,14,3047,B,40.59707169224704,29.674141948459948,2.029853584612352,0.4661203317343124,B,733.7968000210822,Correct,sub_005_day_11_data.csv,1,300,121.0,Training at home,,,,,,,,,,,,,
5,14,3048,B,52.59869860527929,26.600006445894977,2.6299349302639645,0.4178319241793239,B,1226.3260998297485,Correct,sub_005_day_11_data.csv,1,300,121.0,Training at home,,,,,,,,,,,,,
5,14,3049,B,30.154854306442157,12.592681523148396,1.5077427153221077,0.1978053788105946,B,555.4432000499219,Correct,sub_005_day_11_data.csv,1,300,121.0,Training at home,,,,,,,,,,,,,
5,14,3050,A,64.6224545843622,86.72748045242915,3.2311227292181104,1.3623120772685189,A,955.7579001411796,Correct,sub_005_day_11_data.csv,1,300,122.0,Training at home,,,,,,,,,,,,,
5,14,3051,A,24.471847499467177,48.797143786124536,1.2235923749733586,0.7665037421732683,A,928.0944999773056,Correct,sub_005_day_11_data.csv,1,300,122.0,Training at home,,,,,,,,,,,,,
5,14,3052,B,32.17787698238995,18.493213582216008,1.6088938491194973,0.2904907196557839,B,1301.482900045812,Correct,sub_005_day_11_data.csv,1,300,122.0,Training at home,,,,,,,,,,,,,
5,14,3053,B,59.70806552738254,46.64586995697165,2.985403276369127,0.7327116118856348,B,974.2258000187576,Correct,sub_005_day_11_data.csv,1,300,122.0,Training at home,,,,,,,,,,,,,
5,14,3054,A,65.9139189012694,89.10131025106585,3.29569594506347,1.399600108549867,A,694.4147998001426,Correct,sub_005_day_11_data.csv,1,300,122.0,Training at home,,,,,,,,,,,,,
5,14,3055,A,16.383988249251853,44.1447139530373,0.8191994124625928,0.6934235452484241,A,449.8471999540925,Correct,sub_005_day_11_data.csv,1,300,122.0,Training at home,,,,,,,,,,,,,
5,14,3056,A,47.190051493423624,68.46767830080712,2.3595025746711813,1.0754877757908248,A,647.477800026536,Correct,sub_005_day_11_data.csv,1,300,122.0,Training at home,,,,,,,,,,,,,
5,14,3057,A,12.730819177648698,35.81225672064151,0.6365409588824349,0.5625376131101952,A,453.4239999484271,Correct,sub_005_day_11_data.csv,1,300,122.0,Training at home,,,,,,,,,,,,,
5,14,3058,A,60.83261488466124,80.49088114463144,3.041630744233062,1.2643478044247167,A,514.855399960652,Correct,sub_005_day_11_data.csv,1,300,122.0,Training at home,,,,,,,,,,,,,
5,14,3059,A,54.50862887897544,72.5867597869623,2.7254314439487723,1.140190156473039,A,608.5652001202106,Correct,sub_005_day_11_data.csv,1,300,122.0,Training at home,,,,,,,,,,,,,
5,14,3060,A,44.637639465432855,51.68608523039546,2.231881973271643,0.8118831282631315,B,588.5123000480235,Incorrect,sub_005_day_11_data.csv,0,300,122.0,Training at home,,,,,,,,,,,,,
5,14,3061,A,35.05328605188188,48.97522130277963,1.752664302594094,0.769300977263734,A,698.8884001038969,Correct,sub_005_day_11_data.csv,1,300,122.0,Training at home,,,,,,,,,,,,,
5,14,3062,B,84.6929412226608,55.13487723138819,4.234647061133041,0.8660566263335214,B,723.7436999566853,Correct,sub_005_day_11_data.csv,1,300,122.0,Training at home,,,,,,,,,,,,,
5,14,3063,B,69.04257420818504,56.814846912763045,3.4521287104092524,0.8924455283798256,B,733.0922000110149,Correct,sub_005_day_11_data.csv,1,300,122.0,Training at home,,,,,,,,,,,,,
5,14,3064,A,38.168975588192666,50.98716964844902,1.9084487794096332,0.8009045879745197,A,1061.9703000411391,Correct,sub_005_day_11_data.csv,1,300,122.0,Training at home,,,,,,,,,,,,,
5,14,3065,A,37.77204302185015,70.96514356873968,1.8886021510925075,1.1147178684824877,A,613.1394000258297,Correct,sub_005_day_11_data.csv,1,300,122.0,Training at home,,,,,,,,,,,,,
5,14,3066,A,68.68701292764435,84.37408055837771,3.4343506463822173,1.325344958177964,A,587.5216999556869,Correct,sub_005_day_11_data.csv,1,300,122.0,Training at home,,,,,,,,,,,,,
5,14,3067,A,25.652906878839595,37.24063017355113,1.2826453439419796,0.5849744508414131,A,557.5129000935704,Correct,sub_005_day_11_data.csv,1,300,122.0,Training at home,,,,,,,,,,,,,
5,14,3068,A,47.035978499377464,67.67540089249374,2.351798924968873,1.0630427113630123,A,468.9609999768436,Correct,sub_005_day_11_data.csv,1,300,122.0,Training at home,,,,,,,,,,,,,
5,14,3069,B,53.47702863332974,32.054622758667485,2.6738514316664865,0.5035128368611097,B,528.2588999252766,Correct,sub_005_day_11_data.csv,1,300,122.0,Training at home,,,,,,,,,,,,,
5,14,3070,B,74.08040587434999,61.11721271093233,3.704020293717499,0.9600269323027488,B,590.3752001468092,Correct,sub_005_day_11_data.csv,1,300,122.0,Training at home,,,,,,,,,,,,,
5,14,3071,B,66.69891698615021,49.8640884972392,3.3349458493075104,0.7832632705043898,B,616.4644998498261,Correct,sub_005_day_11_data.csv,1,300,122.0,Training at home,,,,,,,,,,,,,
5,14,3072,A,18.196443699228084,37.63807095566589,0.9098221849614042,0.5912174360480565,A,849.7607000172138,Correct,sub_005_day_11_data.csv,1,300,122.0,Training at home,,,,,,,,,,,,,
5,14,3073,B,37.78053268978477,14.026698874647913,1.8890266344892384,0.2203308706935505,B,503.2638998236507,Correct,sub_005_day_11_data.csv,1,300,122.0,Training at home,,,,,,,,,,,,,
5,14,3074,A,60.74907407211264,79.00587987517868,3.0374537036056317,1.2410214590312951,A,517.1944000758231,Correct,sub_005_day_11_data.csv,1,300,122.0,Training at home,,,,,,,,,,,,,
5,14,3075,A,22.156771370082417,48.30519385818235,1.1078385685041203,0.7587762107754824,A,451.7549001611769,Correct,sub_005_day_11_data.csv,1,300,123.0,Training at home,,,,,,,,,,,,,
5,14,3076,A,19.446939989549612,47.37719984376641,0.9723469994774806,0.7441993148841602,A,449.4109000079334,Correct,sub_005_day_11_data.csv,1,300,123.0,Training at home,,,,,,,,,,,,,
5,14,3077,A,58.57182195255423,72.42075719157185,2.928591097627711,1.1375825938022617,A,780.4845999926329,Correct,sub_005_day_11_data.csv,1,300,123.0,Training at home,,,,,,,,,,,,,
5,14,3078,A,30.904032420693643,56.21309142145694,1.5452016210346822,0.8829931752261028,A,802.1019999869168,Correct,sub_005_day_11_data.csv,1,300,123.0,Training at home,,,,,,,,,,,,,
5,14,3079,B,47.088707216163584,23.137312008893,2.3544353608081794,0.3634400471547657,B,793.0058999918401,Correct,sub_005_day_11_data.csv,1,300,123.0,Training at home,,,,,,,,,,,,,
5,14,3080,A,56.646595054809055,80.8803801433193,2.8323297527404527,1.2704660403890085,A,998.2495999429376,Correct,sub_005_day_11_data.csv,1,300,123.0,Training at home,,,,,,,,,,,,,
5,14,3081,A,29.119179403493344,60.11177634361493,1.4559589701746671,0.9442335747766668,A,901.7451999243348,Correct,sub_005_day_11_data.csv,1,300,123.0,Training at home,,,,,,,,,,,,,
5,14,3082,A,60.77949117070621,72.93007430661469,3.03897455853531,1.145582928337092,A,524.3295999243855,Correct,sub_005_day_11_data.csv,1,300,123.0,Training at home,,,,,,,,,,,,,
5,14,3083,B,36.39284984438187,19.2214808334642,1.8196424922190937,0.3019303148876406,B,497.1598000265658,Correct,sub_005_day_11_data.csv,1,300,123.0,Training at home,,,,,,,,,,,,,
5,14,3084,B,42.746618420217466,32.74472059936914,2.1373309210108733,0.5143528683941422,B,784.5936000812799,Correct,sub_005_day_11_data.csv,1,300,123.0,Training at home,,,,,,,,,,,,,
5,14,3085,B,46.3182195779036,23.18393977667203,2.3159109788951797,0.3641724744183052,B,463.37709994986653,Correct,sub_005_day_11_data.csv,1,300,123.0,Training at home,,,,,,,,,,,,,
5,14,3086,B,74.27079723720767,44.36849202506026,3.713539861860383,0.6969386429839333,B,440.20770001225173,Correct,sub_005_day_11_data.csv,1,300,123.0,Training at home,,,,,,,,,,,,,
5,14,3087,A,56.54542070373596,68.34943831163731,2.8272710351867976,1.0736304663841427,A,477.2083999123424,Correct,sub_005_day_11_data.csv,1,300,123.0,Training at home,,,,,,,,,,,,,
5,14,3088,B,70.51602801031581,37.65384951120483,3.5258014005157907,0.5914652850188837,B,485.76589999720454,Correct,sub_005_day_11_data.csv,1,300,123.0,Training at home,,,,,,,,,,,,,
5,14,3089,B,44.361301328795726,17.904786604271344,2.2180650664397863,0.281247730300359,B,445.6111001782119,Correct,sub_005_day_11_data.csv,1,300,123.0,Training at home,,,,,,,,,,,,,
5,14,3090,A,21.36057997116247,37.57072711459445,1.0680289985581235,0.5901596014661838,A,420.8054000046104,Correct,sub_005_day_11_data.csv,1,300,123.0,Training at home,,,,,,,,,,,,,
5,14,3091,A,42.70920691231408,73.29421333712166,2.1354603456157037,1.1513028108527223,A,468.8835998531431,Correct,sub_005_day_11_data.csv,1,300,123.0,Training at home,,,,,,,,,,,,,
5,14,3092,A,64.77373577920514,85.85375758261324,3.238686788960257,1.348587670523084,A,474.6709999162704,Correct,sub_005_day_11_data.csv,1,300,123.0,Training at home,,,,,,,,,,,,,
5,14,3093,B,41.15558306547706,29.232589805170733,2.057779153273853,0.4591844468866413,B,539.5001000724733,Correct,sub_005_day_11_data.csv,1,300,123.0,Training at home,,,,,,,,,,,,,
5,14,3094,B,83.62950492695329,66.58745232590469,4.181475246347665,1.0459532552416138,B,493.68899990804493,Correct,sub_005_day_11_data.csv,1,300,123.0,Training at home,,,,,,,,,,,,,
5,14,3095,A,30.09187642643986,60.76615048293574,1.504593821321993,0.9545124597206138,A,438.5037000756711,Correct,sub_005_day_11_data.csv,1,300,123.0,Training at home,,,,,,,,,,,,,
5,14,3096,A,53.89598308761333,69.88200957432477,2.694799154380666,1.0977040394839517,A,394.1859998740256,Correct,sub_005_day_11_data.csv,1,300,123.0,Training at home,,,,,,,,,,,,,
5,14,3097,A,61.22257286215296,73.53408711915155,3.061128643107648,1.1550707394097917,A,389.73050005733967,Correct,sub_005_day_11_data.csv,1,300,123.0,Training at home,,,,,,,,,,,,,
5,14,3098,A,55.64696895291965,69.57863235287708,2.7823484476459828,1.0929386012331186,A,516.867300029844,Correct,sub_005_day_11_data.csv,1,300,123.0,Training at home,,,,,,,,,,,,,
5,14,3099,B,53.13721514230978,37.18054240596768,2.656860757115489,0.5840305943953591,B,528.3053000457585,Correct,sub_005_day_11_data.csv,1,300,123.0,Training at home,,,,,,,,,,,,,
5,14,3100,B,68.35710793984641,40.342399949368435,3.4178553969923207,0.6336969365455855,B,481.0526000801474,Correct,sub_005_day_11_data.csv,1,300,124.0,Training at home,,,,,,,,,,,,,
5,14,3101,A,47.49293026872513,71.47866444282656,2.3746465134362564,1.1227842355099693,A,467.6846000365913,Correct,sub_005_day_11_data.csv,1,300,124.0,Training at home,,,,,,,,,,,,,
5,14,3102,A,14.404333868738508,39.81706349092356,0.7202166934369254,0.6254449707530191,A,582.6834999024868,Correct,sub_005_day_11_data.csv,1,300,124.0,Training at home,,,,,,,,,,,,,
5,14,3103,A,38.930355684726734,53.935775831868035,1.9465177842363368,0.8472211855953126,B,1893.1539999321103,Incorrect,sub_005_day_11_data.csv,0,300,124.0,Training at home,,,,,,,,,,,,,
5,14,3104,A,53.88987966432694,62.326517857188776,2.694493983216347,0.9790226531198868,B,620.262100128457,Incorrect,sub_005_day_11_data.csv,0,300,124.0,Training at home,,,,,,,,,,,,,
5,14,3105,B,52.59435344773704,35.301233315825364,2.6297176723868523,0.5545104762382811,B,652.071800082922,Correct,sub_005_day_11_data.csv,1,300,124.0,Training at home,,,,,,,,,,,,,
5,14,3106,A,38.05324062490653,61.160467440901435,1.9026620312453264,0.9607063760122684,A,472.12609997950494,Correct,sub_005_day_11_data.csv,1,300,124.0,Training at home,,,,,,,,,,,,,
5,14,3107,A,31.49820998912885,52.936953170298025,1.5749104994564425,0.831531715916176,A,927.9871999751776,Correct,sub_005_day_11_data.csv,1,300,124.0,Training at home,,,,,,,,,,,,,
5,14,3108,B,70.70554224203028,44.15767765876593,3.5352771121015136,0.6936271786618258,B,439.68160008080304,Correct,sub_005_day_11_data.csv,1,300,124.0,Training at home,,,,,,,,,,,,,
5,14,3109,B,47.63875020712709,33.603975927599166,2.3819375103563543,0.527850019527769,B,511.74460002221167,Correct,sub_005_day_11_data.csv,1,300,124.0,Training at home,,,,,,,,,,,,,
5,14,3110,A,38.6661545880705,64.50309891453605,1.9333077294035248,1.0132123084184113,A,549.0198999177665,Correct,sub_005_day_11_data.csv,1,300,124.0,Training at home,,,,,,,,,,,,,
5,14,3111,B,73.74165139095751,42.42160801734329,3.6870825695478753,0.6663570605037578,B,422.41430003196,Correct,sub_005_day_11_data.csv,1,300,124.0,Training at home,,,,,,,,,,,,,
5,14,3112,B,76.9072970441363,57.325309213748696,3.845364852206815,0.9004638514533808,B,439.5154998637736,Correct,sub_005_day_11_data.csv,1,300,124.0,Training at home,,,,,,,,,,,,,
5,14,3113,B,77.64092374978416,63.21953243985325,3.882046187489209,0.9930500933821228,B,524.7086999006569,Correct,sub_005_day_11_data.csv,1,300,124.0,Training at home,,,,,,,,,,,,,
5,14,3114,B,83.48070235485564,62.06406675567898,4.174035117742782,0.974900080857738,B,428.85170015506446,Correct,sub_005_day_11_data.csv,1,300,124.0,Training at home,,,,,,,,,,,,,
5,14,3115,A,19.59895564112928,40.86235665596754,0.979947782056464,0.6418643973937681,A,404.2406000662595,Correct,sub_005_day_11_data.csv,1,300,124.0,Training at home,,,,,,,,,,,,,
5,14,3116,A,45.46976776814581,61.44487771067594,2.2734883884072903,0.965173882082914,A,576.3977998867631,Correct,sub_005_day_11_data.csv,1,300,124.0,Training at home,,,,,,,,,,,,,
5,14,3117,A,45.63439713844586,64.51201395110286,2.2817198569222934,1.0133523454853348,A,825.9708001278341,Correct,sub_005_day_11_data.csv,1,300,124.0,Training at home,,,,,,,,,,,,,
5,14,3118,B,42.41046346778113,18.821912979841994,2.1205231733890564,0.2956539177198899,B,582.9650999512523,Correct,sub_005_day_11_data.csv,1,300,124.0,Training at home,,,,,,,,,,,,,
5,14,3119,B,70.2888156617686,57.538868833250675,3.5144407830884297,0.903818438112035,B,735.8156000263989,Correct,sub_005_day_11_data.csv,1,300,124.0,Training at home,,,,,,,,,,,,,
5,14,3120,B,44.14589243944641,29.87065087549695,2.207294621972321,0.4692070867420337,B,464.1877000685781,Correct,sub_005_day_11_data.csv,1,300,124.0,Training at home,,,,,,,,,,,,,
5,14,3121,A,28.16299801768006,50.881621999345896,1.4081499008840028,0.7992466493793893,A,417.7696001715958,Correct,sub_005_day_11_data.csv,1,300,124.0,Training at home,,,,,,,,,,,,,
5,14,3122,B,63.20051191895246,48.26324997094923,3.1600255959476224,0.7581173577355096,B,363.3423000574112,Correct,sub_005_day_11_data.csv,1,300,124.0,Training at home,,,,,,,,,,,,,
5,14,3123,B,74.76150818110747,50.51904022946113,3.738075409055374,0.7935512282564116,B,452.16239988803864,Correct,sub_005_day_11_data.csv,1,300,124.0,Training at home,,,,,,,,,,,,,
5,14,3124,B,37.16834401142808,25.898128376607325,1.8584172005714037,0.4068068492483745,B,583.3256000187248,Correct,sub_005_day_11_data.csv,1,300,124.0,Training at home,,,,,,,,,,,,,
5,14,3125,A,29.205578449466188,41.036922135719074,1.4602789224733097,0.644606465537557,B,935.9780000522732,Incorrect,sub_005_day_11_data.csv,0,300,125.0,Training at home,,,,,,,,,,,,,
5,14,3126,A,41.67697774753818,55.96013585545809,2.083848887376909,0.8790197584869696,B,545.4637999646366,Incorrect,sub_005_day_11_data.csv,0,300,125.0,Training at home,,,,,,,,,,,,,
5,14,3127,A,37.5476168295116,68.86469859346846,1.8773808414755797,1.0817241559645794,A,665.6476999633014,Correct,sub_005_day_11_data.csv,1,300,125.0,Training at home,,,,,,,,,,,,,
5,14,3128,A,43.97349268382517,75.1049011696205,2.198674634191258,1.1797450288153364,A,711.5804001223296,Correct,sub_005_day_11_data.csv,1,300,125.0,Training at home,,,,,,,,,,,,,
5,14,3129,A,49.428620929948664,60.669746268623655,2.4714310464974334,0.9529981458633244,A,794.2462998908013,Correct,sub_005_day_11_data.csv,1,300,125.0,Training at home,,,,,,,,,,,,,
5,14,3130,B,53.86294310445254,38.831710440125875,2.693147155222627,0.6099670812251277,B,1397.9239000473171,Correct,sub_005_day_11_data.csv,1,300,125.0,Training at home,,,,,,,,,,,,,
5,14,3131,B,64.21285882175629,53.17513720473289,3.2106429410878143,0.8352731019800907,B,717.3355000559241,Correct,sub_005_day_11_data.csv,1,300,125.0,Training at home,,,,,,,,,,,,,
5,14,3132,A,30.33652981880863,61.44201875829698,1.5168264909404314,0.9651289737639605,A,473.7237999215722,Correct,sub_005_day_11_data.csv,1,300,125.0,Training at home,,,,,,,,,,,,,
5,14,3133,A,58.56200846350974,82.6975777127889,2.9281004231754872,1.299010513060843,A,743.407899979502,Correct,sub_005_day_11_data.csv,1,300,125.0,Training at home,,,,,,,,,,,,,
5,14,3134,B,65.50866933202403,34.43279581753334,3.2754334666012017,0.5408690919146004,B,508.6167000699788,Correct,sub_005_day_11_data.csv,1,300,125.0,Training at home,,,,,,,,,,,,,
5,14,3135,A,45.615106539886455,74.10535571104323,2.280755326994323,1.1640442054673592,A,451.2367001734674,Correct,sub_005_day_11_data.csv,1,300,125.0,Training at home,,,,,,,,,,,,,
5,14,3136,B,72.65844898876054,59.802425211220104,3.632922449438027,0.9393742985521104,B,422.8044000919908,Correct,sub_005_day_11_data.csv,1,300,125.0,Training at home,,,,,,,,,,,,,
5,14,3137,A,21.729500081593574,39.99616605689995,1.086475004079679,0.6282583072805716,A,359.11489999853075,Correct,sub_005_day_11_data.csv,1,300,125.0,Training at home,,,,,,,,,,,,,
5,14,3138,B,73.48488982860401,50.450032102420934,3.674244491430201,0.7924672511316742,B,526.1512000579387,Correct,sub_005_day_11_data.csv,1,300,125.0,Training at home,,,,,,,,,,,,,
5,14,3139,B,53.60617367562929,45.976890656542544,2.6803086837814645,0.7222033096074763,B,563.9694998972118,Correct,sub_005_day_11_data.csv,1,300,125.0,Training at home,,,,,,,,,,,,,
5,14,3140,A,49.15894152314227,69.65964776140005,2.4579470761571134,1.0942111882943355,A,480.1817999687046,Correct,sub_005_day_11_data.csv,1,300,125.0,Training at home,,,,,,,,,,,,,
5,14,3141,B,51.980639128577096,40.292708666491514,2.5990319564288544,0.6329163876994177,B,632.568100001663,Correct,sub_005_day_11_data.csv,1,300,125.0,Training at home,,,,,,,,,,,,,
5,14,3142,A,24.454167173731417,49.33760191788155,1.2227083586865708,0.7749932386547719,A,566.6053998284042,Correct,sub_005_day_11_data.csv,1,300,125.0,Training at home,,,,,,,,,,,,,
5,14,3143,B,49.493448969744314,35.06192015825196,2.474672448487216,0.5507513539495811,B,755.8237998746336,Correct,sub_005_day_11_data.csv,1,300,125.0,Training at home,,,,,,,,,,,,,
5,14,3144,A,39.839722863201146,60.041246981880526,1.9919861431600572,0.943125702153231,A,626.8474000971764,Correct,sub_005_day_11_data.csv,1,300,125.0,Training at home,,,,,,,,,,,,,
5,14,3145,A,20.92187709518371,43.47511295157238,1.0460938547591854,0.6829054773132313,A,555.2060999907553,Correct,sub_005_day_11_data.csv,1,300,125.0,Training at home,,,,,,,,,,,,,
5,14,3146,B,37.373627714636214,16.06443748839504,1.8686813857318103,0.2523395939879717,B,548.4959001187235,Correct,sub_005_day_11_data.csv,1,300,125.0,Training at home,,,,,,,,,,,,,
5,14,3147,A,36.15568397956379,63.36947648383666,1.807784198978189,0.995405408917262,A,671.222300035879,Correct,sub_005_day_11_data.csv,1,300,125.0,Training at home,,,,,,,,,,,,,
5,14,3148,A,61.53932446475569,73.16381488044252,3.0769662232377843,1.149254516685009,A,481.5169998910278,Correct,sub_005_day_11_data.csv,1,300,125.0,Training at home,,,,,,,,,,,,,
5,14,3149,B,53.60671775092011,23.19767907398182,2.6803358875460055,0.3643882907957748,B,441.13189983181655,Correct,sub_005_day_11_data.csv,1,300,125.0,Training at home,,,,,,,,,,,,,
5,14,3150,A,20.965187455442383,33.01759729147223,1.0482593727721192,0.518639205450377,A,417.74920001626015,Correct,sub_005_day_11_data.csv,1,300,126.0,Training at home,,,,,,,,,,,,,
5,14,3151,B,87.84476785232673,67.10721583081829,4.392238392616337,1.054117681284817,B,501.6732001677155,Correct,sub_005_day_11_data.csv,1,300,126.0,Training at home,,,,,,,,,,,,,
5,14,3152,B,44.81399945433856,20.81266596072626,2.240699972716928,0.3269245924191798,B,571.3173002004623,Correct,sub_005_day_11_data.csv,1,300,126.0,Training at home,,,,,,,,,,,,,
5,14,3153,B,72.47968773170157,51.95527116368172,3.6239843865850783,0.8161114910154407,B,555.5881001055241,Correct,sub_005_day_11_data.csv,1,300,126.0,Training at home,,,,,,,,,,,,,
5,14,3154,B,41.21950374019549,18.542380589643987,2.0609751870097743,0.2912630332024576,B,517.4851999618113,Correct,sub_005_day_11_data.csv,1,300,126.0,Training at home,,,,,,,,,,,,,
5,14,3155,A,18.377505426022665,48.00440395349419,0.9188752713011332,0.7540514140012708,A,420.0197998434305,Correct,sub_005_day_11_data.csv,1,300,126.0,Training at home,,,,,,,,,,,,,
5,14,3156,B,80.7494383687593,59.5113305230232,4.037471918437965,0.9348017938824188,B,481.6397000104189,Correct,sub_005_day_11_data.csv,1,300,126.0,Training at home,,,,,,,,,,,,,
5,14,3157,A,64.17675370759312,83.00995092992609,3.2088376853796556,1.3039172600815252,A,491.50680005550385,Correct,sub_005_day_11_data.csv,1,300,126.0,Training at home,,,,,,,,,,,,,
5,14,3158,A,67.34373792460131,79.89475844573874,3.367186896230066,1.2549839309673196,A,473.615099908784,Correct,sub_005_day_11_data.csv,1,300,126.0,Training at home,,,,,,,,,,,,,
5,14,3159,A,61.5881044386703,80.98180123169101,3.079405221933515,1.2720591591197463,A,501.22099998407066,Correct,sub_005_day_11_data.csv,1,300,126.0,Training at home,,,,,,,,,,,,,
5,14,3160,B,44.36863647349246,18.692470232481195,2.218431823674623,0.293620635799044,B,614.4163999706507,Correct,sub_005_day_11_data.csv,1,300,126.0,Training at home,,,,,,,,,,,,,
5,14,3161,B,38.586063702782795,27.636909652396906,1.9293031851391396,0.4341195616594747,B,490.3848001267761,Correct,sub_005_day_11_data.csv,1,300,126.0,Training at home,,,,,,,,,,,,,
5,14,3162,A,42.68657021780731,70.13858822585829,2.1343285108903656,1.1017343675175797,A,512.9215000197291,Correct,sub_005_day_11_data.csv,1,300,126.0,Training at home,,,,,,,,,,,,,
5,14,3163,B,86.08053092931799,69.27778940944228,4.3040265464658995,1.0882129713282231,B,550.7865999825299,Correct,sub_005_day_11_data.csv,1,300,126.0,Training at home,,,,,,,,,,,,,
5,14,3164,A,27.105891769342364,53.89788715095737,1.355294588467118,0.8466260315872968,A,392.6953999325633,Correct,sub_005_day_11_data.csv,1,300,126.0,Training at home,,,,,,,,,,,,,
5,14,3165,B,74.93706002268985,46.747408138808346,3.746853001134492,0.73430656991622,B,480.88239994831383,Correct,sub_005_day_11_data.csv,1,300,126.0,Training at home,,,,,,,,,,,,,
5,14,3166,A,59.489686032674896,83.5419406842317,2.974484301633745,1.312273735601083,A,442.0729000121355,Correct,sub_005_day_11_data.csv,1,300,126.0,Training at home,,,,,,,,,,,,,
5,14,3167,A,60.23856635735753,69.29032510354988,3.011928317867876,1.0884098815508034,A,472.54329989664257,Correct,sub_005_day_11_data.csv,1,300,126.0,Training at home,,,,,,,,,,,,,
5,14,3168,B,37.92217254345411,13.227448008152049,1.8961086271727057,0.207776267440757,B,529.336899984628,Correct,sub_005_day_11_data.csv,1,300,126.0,Training at home,,,,,,,,,,,,,
5,14,3169,B,61.70556457147525,45.09426511922546,3.0852782285737623,0.7083390600879458,B,890.0408998597413,Correct,sub_005_day_11_data.csv,1,300,126.0,Training at home,,,,,,,,,,,,,
5,14,3170,A,31.109015026065293,45.71894739648938,1.5554507513032647,0.7181515463533462,A,434.84630016610026,Correct,sub_005_day_11_data.csv,1,300,126.0,Training at home,,,,,,,,,,,,,
5,14,3171,A,35.73330391842895,51.57695114674579,1.7866651959214477,0.8101688540858812,A,504.29899990558624,Correct,sub_005_day_11_data.csv,1,300,126.0,Training at home,,,,,,,,,,,,,
5,14,3172,B,46.60816328784489,32.284852567677085,2.3304081643922445,0.5071292782442195,B,491.8102000374347,Correct,sub_005_day_11_data.csv,1,300,126.0,Training at home,,,,,,,,,,,,,
5,14,3173,A,67.60200405368722,81.43317788207644,3.380100202684361,1.2791493669640108,A,622.6874000858516,Correct,sub_005_day_11_data.csv,1,300,126.0,Training at home,,,,,,,,,,,,,
5,14,3174,A,15.902619600579747,39.97578531839417,0.7951309800289874,0.6279381673887492,A,456.4481000415981,Correct,sub_005_day_11_data.csv,1,300,126.0,Training at home,,,,,,,,,,,,,
5,14,3175,B,76.86858262241319,51.51524847377918,3.843429131120659,0.8091996307653874,B,495.3021998517215,Correct,sub_005_day_11_data.csv,1,300,127.0,Training at home,,,,,,,,,,,,,
5,14,3176,A,60.760447916948245,79.19108331219681,3.0380223958474124,1.243930627817074,A,563.0445999559015,Correct,sub_005_day_11_data.csv,1,300,127.0,Training at home,,,,,,,,,,,,,
5,14,3177,B,45.48305463416137,26.3797773987055,2.2741527317080683,0.4143725743955363,B,528.6234000232071,Correct,sub_005_day_11_data.csv,1,300,127.0,Training at home,,,,,,,,,,,,,
5,14,3178,B,63.40313242739134,39.30053694019113,3.1701566213695673,0.6173313906671937,B,531.6518000327051,Correct,sub_005_day_11_data.csv,1,300,127.0,Training at home,,,,,,,,,,,,,
5,14,3179,B,67.38429575285134,51.09029451174837,3.3692147876425675,0.802524469539238,B,475.81820003688335,Correct,sub_005_day_11_data.csv,1,300,127.0,Training at home,,,,,,,,,,,,,
5,14,3180,A,31.524769000723488,54.35136655918304,1.5762384500361746,0.8537492694744769,A,669.0309999976307,Correct,sub_005_day_11_data.csv,1,300,127.0,Training at home,,,,,,,,,,,,,
5,14,3181,B,58.68272293122639,48.16264970448457,2.934136146561319,0.7565371324451369,B,381.2051001004874,Correct,sub_005_day_11_data.csv,1,300,127.0,Training at home,,,,,,,,,,,,,
5,14,3182,A,56.27312152920494,80.77501833593838,2.8136560764602474,1.2688110209888244,A,471.5271999593824,Correct,sub_005_day_11_data.csv,1,300,127.0,Training at home,,,,,,,,,,,,,
5,14,3183,B,37.88337580769115,15.66562896577026,1.8941687903845577,0.2460751243636366,B,539.1436999198049,Correct,sub_005_day_11_data.csv,1,300,127.0,Training at home,,,,,,,,,,,,,
5,14,3184,A,29.286337376358254,61.96296001928033,1.464316868817913,0.9733118999562458,A,401.1975999455899,Correct,sub_005_day_11_data.csv,1,300,127.0,Training at home,,,,,,,,,,,,,
5,14,3185,A,59.26242480965223,84.26162763847846,2.9631212404826113,1.3235785518428131,A,512.8041000571102,Correct,sub_005_day_11_data.csv,1,300,127.0,Training at home,,,,,,,,,,,,,
5,14,3186,B,60.85166133199081,27.84687859068693,3.042583066599541,0.4374177460295447,B,443.6494999099523,Correct,sub_005_day_11_data.csv,1,300,127.0,Training at home,,,,,,,,,,,,,
5,14,3187,B,41.58124153168413,30.353040690145395,2.0790620765842065,0.4767844482313642,A,442.2897000331432,Incorrect,sub_005_day_11_data.csv,0,300,127.0,Training at home,,,,,,,,,,,,,
5,14,3188,B,50.39569616314446,31.52174499440124,2.519784808157223,0.4951424125137088,B,489.3137998878956,Correct,sub_005_day_11_data.csv,1,300,127.0,Training at home,,,,,,,,,,,,,
5,14,3189,B,72.19201823556966,49.344862502971765,3.6096009117784833,0.7751072876586728,B,541.0869000479579,Correct,sub_005_day_11_data.csv,1,300,127.0,Training at home,,,,,,,,,,,,,
5,14,3190,A,51.52224668397113,61.20090830291024,2.576112334198557,0.9613416195872267,A,532.9921999946237,Correct,sub_005_day_11_data.csv,1,300,127.0,Training at home,,,,,,,,,,,,,
5,14,3191,A,52.716507330814615,71.49395619627104,2.6358253665407307,1.1230244378113778,A,568.9725000411272,Correct,sub_005_day_11_data.csv,1,300,127.0,Training at home,,,,,,,,,,,,,
5,14,3192,B,48.80936602196883,18.297780948539565,2.440468301098442,0.2874208710246358,B,478.0910999979824,Correct,sub_005_day_11_data.csv,1,300,127.0,Training at home,,,,,,,,,,,,,
5,14,3193,B,87.07876579255522,63.591056586004214,4.35393828962776,0.9988859810230184,B,523.6488000955433,Correct,sub_005_day_11_data.csv,1,300,127.0,Training at home,,,,,,,,,,,,,
5,14,3194,A,38.76662345918869,71.32195568685943,1.9383311729594344,1.1203226601274716,A,499.79869998060167,Correct,sub_005_day_11_data.csv,1,300,127.0,Training at home,,,,,,,,,,,,,
5,14,3195,B,85.69247101296587,66.32547582311295,4.284623550648294,1.0418381379586954,B,549.7310000937432,Correct,sub_005_day_11_data.csv,1,300,127.0,Training at home,,,,,,,,,,,,,
5,14,3196,B,49.01055644637419,20.743634801699535,2.45052782231871,0.3258402535088441,B,453.41139985248446,Correct,sub_005_day_11_data.csv,1,300,127.0,Training at home,,,,,,,,,,,,,
5,14,3197,B,50.00844207701864,28.293591614700176,2.500422103850932,0.4444346978020592,B,435.82489993423223,Correct,sub_005_day_11_data.csv,1,300,127.0,Training at home,,,,,,,,,,,,,
5,14,3198,A,62.48893812485108,83.0776972071574,3.124446906242554,1.3049814161158149,A,411.75460000522435,Correct,sub_005_day_11_data.csv,1,300,127.0,Training at home,,,,,,,,,,,,,
5,14,3199,A,40.7370988780144,69.88094491615146,2.0368549439007197,1.0976873158724725,A,456.3134000636637,Correct,sub_005_day_11_data.csv,1,300,127.0,Training at home,,,,,,,,,,,,,
5,14,3200,B,74.50890972570768,59.553309755721926,3.725445486285384,0.9354612021276668,A,590.4339998960495,Incorrect,sub_005_day_11_data.csv,0,300,128.0,Training at home,,,,,,,,,,,,,
5,14,3201,B,82.74752966717406,57.565555888567744,4.137376483358703,0.9042376373966854,B,478.85309997946024,Correct,sub_005_day_11_data.csv,1,300,128.0,Training at home,,,,,,,,,,,,,
5,14,3202,A,45.517325608847266,67.27022413499064,2.2758662804423633,1.056678209739127,A,457.8841999173165,Correct,sub_005_day_11_data.csv,1,300,128.0,Training at home,,,,,,,,,,,,,
5,14,3203,A,26.73048017214481,59.07590165371711,1.3365240086072403,0.927962093197554,A,507.11559993214905,Correct,sub_005_day_11_data.csv,1,300,128.0,Training at home,,,,,,,,,,,,,
5,14,3204,B,38.091974232808454,11.975989371497068,1.9045987116404228,0.1881184011448231,B,515.2100999839604,Correct,sub_005_day_11_data.csv,1,300,128.0,Training at home,,,,,,,,,,,,,
5,14,3205,B,58.40436736042547,44.09410953797802,2.920218368021273,0.6926286529554768,B,593.0835001636297,Correct,sub_005_day_11_data.csv,1,300,128.0,Training at home,,,,,,,,,,,,,
5,14,3206,B,73.96387726455487,48.42618770468425,3.6981938632277433,0.760676777671982,B,486.13100009970367,Correct,sub_005_day_11_data.csv,1,300,128.0,Training at home,,,,,,,,,,,,,
5,14,3207,B,55.36666322688145,42.08777817217297,2.7683331613440725,0.6611132735580773,B,420.73470004834235,Correct,sub_005_day_11_data.csv,1,300,128.0,Training at home,,,,,,,,,,,,,
5,14,3208,A,36.34625829308454,63.48077056343947,1.8173129146542268,0.9971536122316031,A,476.15460003726184,Correct,sub_005_day_11_data.csv,1,300,128.0,Training at home,,,,,,,,,,,,,
5,14,3209,B,70.21712690211345,55.834860332276435,3.510856345105673,0.877051935170459,B,433.2122998312116,Correct,sub_005_day_11_data.csv,1,300,128.0,Training at home,,,,,,,,,,,,,
5,14,3210,B,42.92057256601137,18.96612150794636,2.1460286283005687,0.2979191399822782,B,575.2747000660747,Correct,sub_005_day_11_data.csv,1,300,128.0,Training at home,,,,,,,,,,,,,
5,14,3211,A,29.158730284118903,61.95608920730575,1.4579365142059453,0.973203973494128,A,667.8907999303192,Correct,sub_005_day_11_data.csv,1,300,128.0,Training at home,,,,,,,,,,,,,
5,14,3212,B,66.7291401263326,36.179283025842246,3.3364570063166297,0.5683028488306595,B,437.1631001122296,Correct,sub_005_day_11_data.csv,1,300,128.0,Training at home,,,,,,,,,,,,,
5,14,3213,B,76.53775126803757,56.65144639722881,3.826887563401878,0.8898788390838498,B,366.4448999334126,Correct,sub_005_day_11_data.csv,1,300,128.0,Training at home,,,,,,,,,,,,,
5,14,3214,A,64.20085856507389,86.0717309232662,3.210042928253694,1.3520115877514525,A,1325.7905000355097,Correct,sub_005_day_11_data.csv,1,300,128.0,Training at home,,,,,,,,,,,,,
5,14,3215,A,39.30172175194159,67.34641199411023,1.9650860875970797,1.057874965831641,A,527.597000123933,Correct,sub_005_day_11_data.csv,1,300,128.0,Training at home,,,,,,,,,,,,,
5,14,3216,A,15.993585669618348,41.28043455475533,0.7996792834809173,0.648431549671068,A,502.0502000115812,Correct,sub_005_day_11_data.csv,1,300,128.0,Training at home,,,,,,,,,,,,,
5,14,3217,A,18.202175088411124,40.550513297680915,0.9101087544205562,0.6369659733764479,A,486.6704000160098,Correct,sub_005_day_11_data.csv,1,300,128.0,Training at home,,,,,,,,,,,,,
5,14,3218,A,29.860892324962144,54.788132443614586,1.4930446162481072,0.860609971943821,A,458.7276999372989,Correct,sub_005_day_11_data.csv,1,300,128.0,Training at home,,,,,,,,,,,,,
5,14,3219,A,55.204704479849504,75.62250383270353,2.760235223992475,1.187875512434437,A,634.5475998241454,Correct,sub_005_day_11_data.csv,1,300,128.0,Training at home,,,,,,,,,,,,,
5,14,3220,B,84.32860137594142,56.9754849695897,4.21643006879707,0.8949688250758935,B,761.0675001051277,Correct,sub_005_day_11_data.csv,1,300,128.0,Training at home,,,,,,,,,,,,,
5,14,3221,A,48.598775298231274,79.54333807688919,2.4299387649115634,1.2494638327218217,A,499.7660999651998,Correct,sub_005_day_11_data.csv,1,300,128.0,Training at home,,,,,,,,,,,,,
5,14,3222,B,35.41265735071466,14.79994370309749,1.770632867535733,0.2324769720559679,B,882.5928999576718,Correct,sub_005_day_11_data.csv,1,300,128.0,Training at home,,,,,,,,,,,,,
5,14,3223,A,25.447367805775023,44.0549023863876,1.2723683902887513,0.6920127884584538,A,475.07379995658994,Correct,sub_005_day_11_data.csv,1,300,128.0,Training at home,,,,,,,,,,,,,
5,14,3224,B,74.16289302857778,45.79125196117894,3.7081446514288894,0.7192873037995948,B,524.0744000766426,Correct,sub_005_day_11_data.csv,1,300,128.0,Training at home,,,,,,,,,,,,,
5,14,3225,A,64.91430603562118,82.81472672527654,3.245715301781059,1.3008506854458757,A,472.97960007563233,Correct,sub_005_day_11_data.csv,1,300,129.0,Training at home,,,,,,,,,,,,,
5,14,3226,B,80.26544420929311,53.98100068557813,4.013272210464655,0.8479315759361891,B,386.7255998775363,Correct,sub_005_day_11_data.csv,1,300,129.0,Training at home,,,,,,,,,,,,,
5,14,3227,A,32.73280207464598,46.87852899394059,1.636640103732299,0.7363662114922994,A,440.4235000256449,Correct,sub_005_day_11_data.csv,1,300,129.0,Training at home,,,,,,,,,,,,,
5,14,3228,A,45.70353261944788,64.52708988881972,2.2851766309723938,1.013589157761221,A,388.913800008595,Correct,sub_005_day_11_data.csv,1,300,129.0,Training at home,,,,,,,,,,,,,
5,14,3229,A,28.473998527854988,39.009969901246755,1.4236999263927492,0.6127671742925788,A,443.88519995845854,Correct,sub_005_day_11_data.csv,1,300,129.0,Training at home,,,,,,,,,,,,,
5,14,3230,B,83.22477706481459,59.17357767089333,4.16123885324073,0.9294963844875176,B,351.8653998617083,Correct,sub_005_day_11_data.csv,1,300,129.0,Training at home,,,,,,,,,,,,,
5,14,3231,A,24.751378553385287,40.03071075878903,1.2375689276692643,0.6288009341889476,A,367.7723000291735,Correct,sub_005_day_11_data.csv,1,300,129.0,Training at home,,,,,,,,,,,,,
5,14,3232,B,60.494837297730385,53.38054484338092,3.0247418648865194,0.8384996376229299,B,367.0278999488801,Correct,sub_005_day_11_data.csv,1,300,129.0,Training at home,,,,,,,,,,,,,
5,14,3233,A,45.97872831465449,63.15342264443824,2.298936415732725,0.9920116431440924,A,465.9019000828266,Correct,sub_005_day_11_data.csv,1,300,129.0,Training at home,,,,,,,,,,,,,
5,14,3234,B,42.58882556698845,24.31642502491965,2.1294412783494225,0.3819615110992728,B,833.9084999170154,Correct,sub_005_day_11_data.csv,1,300,129.0,Training at home,,,,,,,,,,,,,
5,14,3235,B,44.49540754128881,24.3075120544688,2.2247703770644405,0.3818215064868226,B,368.173599941656,Correct,sub_005_day_11_data.csv,1,300,129.0,Training at home,,,,,,,,,,,,,
5,14,3236,A,56.6430462855112,67.7114546572155,2.8321523142755605,1.063609042574933,A,534.7559000365436,Correct,sub_005_day_11_data.csv,1,300,129.0,Training at home,,,,,,,,,,,,,
5,14,3237,B,55.98662663275128,36.7191421923301,2.799331331637564,0.5767829367877162,B,380.77100017108023,Correct,sub_005_day_11_data.csv,1,300,129.0,Training at home,,,,,,,,,,,,,
5,14,3238,B,71.02618378472255,46.946780013130166,3.5513091892361275,0.7374382959947293,B,454.6957002021372,Correct,sub_005_day_11_data.csv,1,300,129.0,Training at home,,,,,,,,,,,,,
5,14,3239,B,52.75288813212077,41.758133834106914,2.637644406606039,0.6559352324042483,B,325.14950004406273,Correct,sub_005_day_11_data.csv,1,300,129.0,Training at home,,,,,,,,,,,,,
5,14,3240,B,65.67502839464059,52.68707749851239,3.2837514197320297,0.827606678042213,B,415.682999882847,Correct,sub_005_day_11_data.csv,1,300,129.0,Training at home,,,,,,,,,,,,,
5,14,3241,B,56.59946544673512,45.60122637282078,2.829973272336756,0.7163023888376946,B,408.2573000341654,Correct,sub_005_day_11_data.csv,1,300,129.0,Training at home,,,,,,,,,,,,,
5,14,3242,B,33.148909867004015,14.904086596488897,1.6574454933502007,0.2341128447999781,B,616.5492001455277,Correct,sub_005_day_11_data.csv,1,300,129.0,Training at home,,,,,,,,,,,,,
5,14,3243,A,57.97713619872303,73.94081689749474,2.8988568099361514,1.1614596358279876,A,517.9414001759142,Correct,sub_005_day_11_data.csv,1,300,129.0,Training at home,,,,,,,,,,,,,
5,14,3244,A,46.1752101966218,77.84382806534717,2.30876050983109,1.222767991887008,A,399.6586999855936,Correct,sub_005_day_11_data.csv,1,300,129.0,Training at home,,,,,,,,,,,,,
5,14,3245,B,64.38630753330281,35.176597974824304,3.2193153766651403,0.5525527088799481,B,422.472900012508,Correct,sub_005_day_11_data.csv,1,300,129.0,Training at home,,,,,,,,,,,,,
5,14,3246,B,66.23889699661092,40.45831711256637,3.3119448498305464,0.6355177590872235,B,510.44910005293787,Correct,sub_005_day_11_data.csv,1,300,129.0,Training at home,,,,,,,,,,,,,
5,14,3247,A,13.004037726289926,30.85877989543432,0.6502018863144963,0.4847285810912043,A,402.6090998668224,Correct,sub_005_day_11_data.csv,1,300,129.0,Training at home,,,,,,,,,,,,,
5,14,3248,A,46.35131331365683,70.29969667114466,2.3175656656828414,1.1042650530582945,A,403.08750001713634,Correct,sub_005_day_11_data.csv,1,300,129.0,Training at home,,,,,,,,,,,,,
5,14,3249,B,64.03436637806544,37.1840138048407,3.2017183189032723,0.5840851230013451,B,372.3417001310736,Correct,sub_005_day_11_data.csv,1,300,129.0,Training at home,,,,,,,,,,,,,
5,14,3250,B,40.034493081928765,23.864061931744352,2.001724654096438,0.3748558082478995,B,469.6539998985827,Correct,sub_005_day_11_data.csv,1,300,130.0,Training at home,,,,,,,,,,,,,
5,14,3251,A,47.28491371829022,61.384025522808024,2.364245685914511,0.9642180181511102,A,446.49269990623,Correct,sub_005_day_11_data.csv,1,300,130.0,Training at home,,,,,,,,,,,,,
5,14,3252,B,36.13589401767132,25.237442898923685,1.806794700883566,0.3964288260332526,B,528.6096001509577,Correct,sub_005_day_11_data.csv,1,300,130.0,Training at home,,,,,,,,,,,,,
5,14,3253,B,63.0333640867875,36.330550324826554,3.151668204339375,0.5706789500067467,B,347.0163999591023,Correct,sub_005_day_11_data.csv,1,300,130.0,Training at home,,,,,,,,,,,,,
5,14,3254,B,34.74049005597118,13.414421232939247,1.737024502798559,0.2107132359878044,B,452.1745000965893,Correct,sub_005_day_11_data.csv,1,300,130.0,Training at home,,,,,,,,,,,,,
5,14,3255,B,71.7072064711156,47.64640502255467,3.5853603235557796,0.7484279799441078,B,350.4737999755889,Correct,sub_005_day_11_data.csv,1,300,130.0,Training at home,,,,,,,,,,,,,
5,14,3256,A,50.156567953498865,70.72203782148108,2.507828397674943,1.1108991723343222,A,465.7030999660492,Correct,sub_005_day_11_data.csv,1,300,130.0,Training at home,,,,,,,,,,,,,
5,14,3257,B,57.90654977908772,45.09474202343266,2.895327488954386,0.7083465512817148,B,380.00050000846386,Correct,sub_005_day_11_data.csv,1,300,130.0,Training at home,,,,,,,,,,,,,
5,14,3258,B,64.02171402123588,55.96192884239732,3.201085701061794,0.8790479226599509,B,416.6479001287371,Correct,sub_005_day_11_data.csv,1,300,130.0,Training at home,,,,,,,,,,,,,
5,14,3259,A,55.272123177948586,81.76446542488385,2.763606158897429,1.2843532195175589,A,726.6094000078738,Correct,sub_005_day_11_data.csv,1,300,130.0,Training at home,,,,,,,,,,,,,
5,14,3260,B,53.3620736193802,21.811868744933246,2.66810368096901,0.3426200330507356,B,543.7178001739085,Correct,sub_005_day_11_data.csv,1,300,130.0,Training at home,,,,,,,,,,,,,
5,14,3261,A,35.78953650172225,63.972906256077735,1.7894768250861126,1.0048840616144117,A,691.5210001170635,Correct,sub_005_day_11_data.csv,1,300,130.0,Training at home,,,,,,,,,,,,,
5,14,3262,A,24.449466129451583,50.73696976933242,1.2224733064725797,0.7969744574637108,A,412.8755999263376,Correct,sub_005_day_11_data.csv,1,300,130.0,Training at home,,,,,,,,,,,,,
5,14,3263,B,37.61621525934388,14.804965184834735,1.880810762967194,0.2325558493066472,B,489.2909000627697,Correct,sub_005_day_11_data.csv,1,300,130.0,Training at home,,,,,,,,,,,,,
5,14,3264,B,43.82861961041721,35.66757125611437,2.1914309805208605,0.5602648991479968,B,430.649199988693,Correct,sub_005_day_11_data.csv,1,300,130.0,Training at home,,,,,,,,,,,,,
5,14,3265,A,13.030356627312056,35.900623229920186,0.6515178313656028,0.5639256709920616,A,393.1462001055479,Correct,sub_005_day_11_data.csv,1,300,130.0,Training at home,,,,,,,,,,,,,
5,14,3266,A,29.214703404367064,59.99178179196392,1.4607351702183533,0.9423487047669789,A,733.2462000194937,Correct,sub_005_day_11_data.csv,1,300,130.0,Training at home,,,,,,,,,,,,,
5,14,3267,B,46.75251648661267,38.96855870752292,2.3376258243306336,0.6121166887826828,B,547.4352999590337,Correct,sub_005_day_11_data.csv,1,300,130.0,Training at home,,,,,,,,,,,,,
5,14,3268,B,71.66766110931339,52.30807526249742,3.583383055465669,0.8216533248404194,B,559.1818999964744,Correct,sub_005_day_11_data.csv,1,300,130.0,Training at home,,,,,,,,,,,,,
5,14,3269,B,40.0718906688947,31.74082397858701,2.003594533444735,0.4985836971500784,B,428.6302998661995,Correct,sub_005_day_11_data.csv,1,300,130.0,Training at home,,,,,,,,,,,,,
5,14,3270,A,61.46027314448703,82.28961371204392,3.0730136572243514,1.2926022295224953,A,600.5337999667972,Correct,sub_005_day_11_data.csv,1,300,130.0,Training at home,,,,,,,,,,,,,
5,14,3271,A,65.49555603537871,88.19979939415683,3.274777801768936,1.385439209123883,A,468.3129999320954,Correct,sub_005_day_11_data.csv,1,300,130.0,Training at home,,,,,,,,,,,,,
5,14,3272,B,60.18459629846196,30.905310638905156,3.0092298149230983,0.4854594843004746,B,438.5039999615401,Correct,sub_005_day_11_data.csv,1,300,130.0,Training at home,,,,,,,,,,,,,
5,14,3273,B,64.23068997909078,35.40931763458451,3.2115344989545394,0.5562082607471911,B,496.2636998388916,Correct,sub_005_day_11_data.csv,1,300,130.0,Training at home,,,,,,,,,,,,,
5,14,3274,B,62.40711608366305,52.06075103362058,3.1203558041831525,0.8177683649379485,B,339.9076999630779,Correct,sub_005_day_11_data.csv,1,300,130.0,Training at home,,,,,,,,,,,,,
5,14,3275,B,53.75317916553528,35.431012483850736,2.687658958276764,0.5565490426425685,B,370.9587999619544,Correct,sub_005_day_11_data.csv,1,300,131.0,Training at home,,,,,,,,,,,,,
5,14,3276,A,19.494729920154683,47.510755190852784,0.9747364960077342,0.7462971973704312,A,445.7409998867661,Correct,sub_005_day_11_data.csv,1,300,131.0,Training at home,,,,,,,,,,,,,
5,14,3277,B,53.484088007941715,27.016855690504343,2.6742044003970857,0.4243797768019201,B,371.3675001636147,Correct,sub_005_day_11_data.csv,1,300,131.0,Training at home,,,,,,,,,,,,,
5,14,3278,A,61.13740445272106,72.13122688753134,3.0568702226360527,1.1330346624214351,B,371.58220005221665,Incorrect,sub_005_day_11_data.csv,0,300,131.0,Training at home,,,,,,,,,,,,,
5,14,3279,A,22.85488891020501,45.60208456382087,1.1427444455102505,0.7163158692704007,A,405.3688000421971,Correct,sub_005_day_11_data.csv,1,300,131.0,Training at home,,,,,,,,,,,,,
5,14,3280,A,33.0104593940627,53.23399421580202,1.6505229697031352,0.8361976257480257,A,480.706499889493,Correct,sub_005_day_11_data.csv,1,300,131.0,Training at home,,,,,,,,,,,,,
5,14,3281,B,33.29126202611219,20.634238299082305,1.6645631013056097,0.3241218572640906,B,520.0486001558602,Correct,sub_005_day_11_data.csv,1,300,131.0,Training at home,,,,,,,,,,,,,
5,14,3282,A,55.1929084002788,73.43044264859837,2.7596454200139395,1.1534426958734163,A,466.1993000190705,Correct,sub_005_day_11_data.csv,1,300,131.0,Training at home,,,,,,,,,,,,,
5,14,3283,A,18.14050562281515,44.01401940430503,0.9070252811407576,0.6913706000776164,A,472.86780015565455,Correct,sub_005_day_11_data.csv,1,300,131.0,Training at home,,,,,,,,,,,,,
5,14,3284,A,38.31540745702464,51.10432889411006,1.915770372851232,0.8027449211018638,B,566.9631999917328,Incorrect,sub_005_day_11_data.csv,0,300,131.0,Training at home,,,,,,,,,,,,,
5,14,3285,B,48.91438301504546,23.00700660179862,2.4457191507522733,0.3613932146065121,B,500.4761000163853,Correct,sub_005_day_11_data.csv,1,300,131.0,Training at home,,,,,,,,,,,,,
5,14,3286,A,39.18828387835595,48.712451571356745,1.9594141939177976,0.7651733999746146,A,733.7780999951065,Correct,sub_005_day_11_data.csv,1,300,131.0,Training at home,,,,,,,,,,,,,
5,14,3287,B,65.3265679137424,44.52151897077808,3.2663283956871196,0.6993423846262752,B,543.6554001644254,Correct,sub_005_day_11_data.csv,1,300,131.0,Training at home,,,,,,,,,,,,,
5,14,3288,B,60.738466193850144,35.005408394882224,3.0369233096925075,0.5498636692463624,B,390.5815999023616,Correct,sub_005_day_11_data.csv,1,300,131.0,Training at home,,,,,,,,,,,,,
5,14,3289,A,60.13122283005369,80.41132008477743,3.0065611415026843,1.2630980622189707,A,483.39900001883507,Correct,sub_005_day_11_data.csv,1,300,131.0,Training at home,,,,,,,,,,,,,
5,14,3290,B,81.38833398596537,57.77713467898771,4.0694166992982685,0.9075611092648792,B,457.9022000543773,Correct,sub_005_day_11_data.csv,1,300,131.0,Training at home,,,,,,,,,,,,,
5,14,3291,A,47.44727546266313,57.43291518177091,2.3723637731331566,0.902154122046486,A,395.92489995993674,Correct,sub_005_day_11_data.csv,1,300,131.0,Training at home,,,,,,,,,,,,,
5,14,3292,A,28.294370826845608,45.98270301241895,1.4147185413422805,0.7222946098800833,A,416.3806999567896,Correct,sub_005_day_11_data.csv,1,300,131.0,Training at home,,,,,,,,,,,,,
5,14,3293,A,35.88003183337349,52.59312497454975,1.7940015916686745,0.8261308752468769,A,492.33170016668737,Correct,sub_005_day_11_data.csv,1,300,131.0,Training at home,,,,,,,,,,,,,
5,14,3294,B,36.496194267205624,25.836539010370533,1.8248097133602812,0.4058394057458309,B,565.1752001140267,Correct,sub_005_day_11_data.csv,1,300,131.0,Training at home,,,,,,,,,,,,,
5,14,3295,A,41.348369414375234,57.9597269777349,2.0674184707187617,0.9104292623866106,A,497.0179002266377,Correct,sub_005_day_11_data.csv,1,300,131.0,Training at home,,,,,,,,,,,,,
5,14,3296,A,62.48425922452424,83.01636443845068,3.124212961226212,1.304018003237848,A,559.814800042659,Correct,sub_005_day_11_data.csv,1,300,131.0,Training at home,,,,,,,,,,,,,
5,14,3297,B,43.16472880970285,20.58915590780275,2.158236440485142,0.32341370471784,B,451.1665999889374,Correct,sub_005_day_11_data.csv,1,300,131.0,Training at home,,,,,,,,,,,,,
5,14,3298,A,55.5926006981819,67.63656922660583,2.779630034909095,1.0624327449816118,A,534.2888999730349,Correct,sub_005_day_11_data.csv,1,300,131.0,Training at home,,,,,,,,,,,,,
5,14,3299,A,49.24788383433628,68.08952213882287,2.4623941917168137,1.0695477126888275,A,503.1436998397112,Correct,sub_005_day_11_data.csv,1,300,131.0,Training at home,,,,,,,,,,,,,
