subject,day,trial,cat,x,y,xt,yt,resp,rt,fb,f_name,acc,n_trials,block,session_type,ns_left_digit,ns_right_digit,ns_left_size,ns_right_size,ns_congruent,ns_cue,ns_correct_side,ns_resp,ns_rt,ns_fb,acc_stroop,acc_stroop_mean,resp_key
5,10,2100,A,55.16852189655875,74.69180983834728,2.7584260948279375,1.173256205357388,A,477.0470999646932,Correct,sub_005_day_08_data.csv,1,300,84.0,Training at home,,,,,,,,,,,,,
5,10,2101,A,31.88089527384062,50.0068470900845,1.5940447636920307,0.7855057172369879,A,548.2745999470353,Correct,sub_005_day_08_data.csv,1,300,84.0,Training at home,,,,,,,,,,,,,
5,10,2102,B,69.53945775606287,52.742306633200826,3.4769728878031434,0.8284742152612197,B,419.48130005039275,Correct,sub_005_day_08_data.csv,1,300,84.0,Training at home,,,,,,,,,,,,,
5,10,2103,B,56.30281121721875,33.64958297313659,2.8151405608609377,0.5285664133238305,B,487.854199949652,Correct,sub_005_day_08_data.csv,1,300,84.0,Training at home,,,,,,,,,,,,,
5,10,2104,A,33.57224436815734,47.13052322837801,1.678612218407867,0.7403245276705773,A,461.74579998478293,Correct,sub_005_day_08_data.csv,1,300,84.0,Training at home,,,,,,,,,,,,,
5,10,2105,A,21.919673665108736,45.46644946305905,1.0959836832554368,0.7141853180897896,A,508.4657999686897,Correct,sub_005_day_08_data.csv,1,300,84.0,Training at home,,,,,,,,,,,,,
5,10,2106,A,34.98524564752671,60.21855430985454,1.7492622823763355,0.945910839148185,A,527.8773999307305,Correct,sub_005_day_08_data.csv,1,300,84.0,Training at home,,,,,,,,,,,,,
5,10,2107,A,49.06503226754319,68.26859935873384,2.4532516133771596,1.0723606510813155,A,539.2650000285357,Correct,sub_005_day_08_data.csv,1,300,84.0,Training at home,,,,,,,,,,,,,
5,10,2108,B,86.7557855636741,59.2452617296686,4.337789278183704,0.930622395049657,B,529.4653000310063,Correct,sub_005_day_08_data.csv,1,300,84.0,Training at home,,,,,,,,,,,,,
5,10,2109,A,17.818234481553322,33.281555916448866,0.8909117240776661,0.5227854578357684,A,461.9642000179738,Correct,sub_005_day_08_data.csv,1,300,84.0,Training at home,,,,,,,,,,,,,
5,10,2110,A,22.74349532428654,41.934071966285714,1.137174766214327,0.6586988621219445,A,652.3617000784725,Correct,sub_005_day_08_data.csv,1,300,84.0,Training at home,,,,,,,,,,,,,
5,10,2111,B,32.164387839503846,18.359855265252666,1.608219391975192,0.2883959321114482,A,561.1941001843661,Incorrect,sub_005_day_08_data.csv,0,300,84.0,Training at home,,,,,,,,,,,,,
5,10,2112,A,67.06749586878092,82.73052529925756,3.3533747934390465,1.2995280525388604,A,696.4704000856727,Correct,sub_005_day_08_data.csv,1,300,84.0,Training at home,,,,,,,,,,,,,
5,10,2113,A,43.338732781368755,57.733250171535154,2.1669366390684375,0.9068717730337824,A,449.9103999696672,Correct,sub_005_day_08_data.csv,1,300,84.0,Training at home,,,,,,,,,,,,,
5,10,2114,A,36.70300967337302,62.51579300028342,1.8351504836686507,0.981995780115153,A,525.344799971208,Correct,sub_005_day_08_data.csv,1,300,84.0,Training at home,,,,,,,,,,,,,
5,10,2115,B,76.8907312658929,59.48390587460756,3.844536563294645,0.9343710085124692,B,533.0736998002976,Correct,sub_005_day_08_data.csv,1,300,84.0,Training at home,,,,,,,,,,,,,
5,10,2116,B,63.72450916113594,53.9472205315043,3.186225458056797,0.8474009585168119,B,560.1643999107182,Correct,sub_005_day_08_data.csv,1,300,84.0,Training at home,,,,,,,,,,,,,
5,10,2117,B,65.4571506606773,35.2917296243925,3.272857533033865,0.5543611926023438,B,405.5864000692963,Correct,sub_005_day_08_data.csv,1,300,84.0,Training at home,,,,,,,,,,,,,
5,10,2118,A,62.22550174108011,73.58250277000022,3.111275087054006,1.1558312506749164,A,447.16489990241826,Correct,sub_005_day_08_data.csv,1,300,84.0,Training at home,,,,,,,,,,,,,
5,10,2119,A,52.79743715831809,72.97387380773164,2.6398718579159044,1.1462709292917916,A,477.8561999555677,Correct,sub_005_day_08_data.csv,1,300,84.0,Training at home,,,,,,,,,,,,,
5,10,2120,A,44.89252726678655,69.67939267591986,2.2446263633393273,1.0945213406863414,A,457.80550013296306,Correct,sub_005_day_08_data.csv,1,300,84.0,Training at home,,,,,,,,,,,,,
5,10,2121,A,42.06267546160672,59.47183300102475,2.103133773080336,0.9341813682576918,A,458.3493999671191,Correct,sub_005_day_08_data.csv,1,300,84.0,Training at home,,,,,,,,,,,,,
5,10,2122,A,37.88533009783285,49.81545639188566,1.8942665048916425,0.7824993591798535,A,464.191900100559,Correct,sub_005_day_08_data.csv,1,300,84.0,Training at home,,,,,,,,,,,,,
5,10,2123,B,72.11508160237202,38.95954762139719,3.6057540801186008,0.6119751429728156,B,428.7628000602126,Correct,sub_005_day_08_data.csv,1,300,84.0,Training at home,,,,,,,,,,,,,
5,10,2124,A,46.553234288318635,55.73278179378672,2.3276617144159317,0.8754484892374167,A,408.4429000504315,Correct,sub_005_day_08_data.csv,1,300,84.0,Training at home,,,,,,,,,,,,,
5,10,2125,A,42.50605821086006,61.18768713617713,2.1253029105430032,0.9611339419858238,A,524.2191001307219,Correct,sub_005_day_08_data.csv,1,300,85.0,Training at home,,,,,,,,,,,,,
5,10,2126,A,44.815995856581395,58.106046825204075,2.24079979282907,0.9127276491760282,A,544.493000023067,Correct,sub_005_day_08_data.csv,1,300,85.0,Training at home,,,,,,,,,,,,,
5,10,2127,B,75.85777183990928,59.78284555156098,3.792888591995464,0.939066741977386,B,509.80710005387664,Correct,sub_005_day_08_data.csv,1,300,85.0,Training at home,,,,,,,,,,,,,
5,10,2128,B,66.79614523441049,39.423192120933656,3.3398072617205243,0.6192580537409209,B,590.5040998477489,Correct,sub_005_day_08_data.csv,1,300,85.0,Training at home,,,,,,,,,,,,,
5,10,2129,B,52.26900172422096,25.704875815185343,2.613450086211048,0.4037712451121212,B,528.7277000024915,Correct,sub_005_day_08_data.csv,1,300,85.0,Training at home,,,,,,,,,,,,,
5,10,2130,B,75.44402320397414,61.38333804863777,3.772201160198707,0.9642072193320964,A,577.6631999760866,Incorrect,sub_005_day_08_data.csv,0,300,85.0,Training at home,,,,,,,,,,,,,
5,10,2131,A,54.710840262073546,75.46708840293307,2.735542013103677,1.1854342525723305,A,751.9678000826389,Correct,sub_005_day_08_data.csv,1,300,85.0,Training at home,,,,,,,,,,,,,
5,10,2132,B,47.89029980707825,23.910235572142945,2.394514990353912,0.375581102095228,B,497.71120003424585,Correct,sub_005_day_08_data.csv,1,300,85.0,Training at home,,,,,,,,,,,,,
5,10,2133,A,49.633952099490166,57.71928208915294,2.4816976049745083,0.906652362908799,B,638.3718999568373,Incorrect,sub_005_day_08_data.csv,0,300,85.0,Training at home,,,,,,,,,,,,,
5,10,2134,A,38.374268504232184,68.59846244085597,1.9187134252116096,1.0775421282587423,A,538.8767998665571,Correct,sub_005_day_08_data.csv,1,300,85.0,Training at home,,,,,,,,,,,,,
5,10,2135,A,53.23010196376053,80.74762020403497,2.6615050981880266,1.268380652139275,A,568.3458000421524,Correct,sub_005_day_08_data.csv,1,300,85.0,Training at home,,,,,,,,,,,,,
5,10,2136,B,42.931080667156266,21.05790262900799,2.1465540333578135,0.3307767609965035,B,561.8650999385864,Correct,sub_005_day_08_data.csv,1,300,85.0,Training at home,,,,,,,,,,,,,
5,10,2137,A,28.27318668024999,59.425228186506025,1.4136593340124994,0.9334493015431222,A,458.13649985939264,Correct,sub_005_day_08_data.csv,1,300,85.0,Training at home,,,,,,,,,,,,,
5,10,2138,B,60.59395068539798,33.001850405204614,3.029697534269898,0.5183918539393008,B,491.51249998249114,Correct,sub_005_day_08_data.csv,1,300,85.0,Training at home,,,,,,,,,,,,,
5,10,2139,A,41.068386199324,56.59646298724175,2.0534193099662,0.8890151616994266,A,549.9340000096709,Correct,sub_005_day_08_data.csv,1,300,85.0,Training at home,,,,,,,,,,,,,
5,10,2140,B,60.91073821438652,51.43091705565131,3.045536910719326,0.8078749559471008,B,606.4532001037151,Correct,sub_005_day_08_data.csv,1,300,85.0,Training at home,,,,,,,,,,,,,
5,10,2141,A,49.09509577610626,76.3507472940426,2.454754788805313,1.199314733975275,A,591.7265999596566,Correct,sub_005_day_08_data.csv,1,300,85.0,Training at home,,,,,,,,,,,,,
5,10,2142,B,67.69021493619061,49.7186083277726,3.384510746809531,0.7809780733461935,B,700.3285998944193,Correct,sub_005_day_08_data.csv,1,300,85.0,Training at home,,,,,,,,,,,,,
5,10,2143,B,35.209200245974124,22.803116600039736,1.7604600122987062,0.3581905179481814,B,542.521100025624,Correct,sub_005_day_08_data.csv,1,300,85.0,Training at home,,,,,,,,,,,,,
5,10,2144,B,44.10174782700321,34.41259813590677,2.2050873913501605,0.5405518274735126,B,427.8787998482585,Correct,sub_005_day_08_data.csv,1,300,85.0,Training at home,,,,,,,,,,,,,
5,10,2145,A,49.47861094540409,79.19048888797705,2.4739305472702044,1.2439212906232644,A,559.2052999418229,Correct,sub_005_day_08_data.csv,1,300,85.0,Training at home,,,,,,,,,,,,,
5,10,2146,B,37.521051686617184,13.299910867157005,1.876052584330859,0.2089145113682974,B,543.0795000866055,Correct,sub_005_day_08_data.csv,1,300,85.0,Training at home,,,,,,,,,,,,,
5,10,2147,A,29.29760933167604,39.80363229885112,1.464880466583802,0.6252339940813005,A,529.2856998275965,Correct,sub_005_day_08_data.csv,1,300,85.0,Training at home,,,,,,,,,,,,,
5,10,2148,A,19.82367355759716,45.26695604042078,0.991183677879858,0.7110516827347902,A,410.83909990265965,Correct,sub_005_day_08_data.csv,1,300,85.0,Training at home,,,,,,,,,,,,,
5,10,2149,B,45.86163722765503,30.342386645441124,2.2930818613827513,0.4766170948884944,B,378.8759000599384,Correct,sub_005_day_08_data.csv,1,300,85.0,Training at home,,,,,,,,,,,,,
5,10,2150,A,58.23761763333238,70.24533955110273,2.911880881666619,1.1034112134133245,B,454.2864998802542,Incorrect,sub_005_day_08_data.csv,0,300,86.0,Training at home,,,,,,,,,,,,,
5,10,2151,B,57.81493879128779,47.861494034994365,2.890746939564389,0.75180659025085,B,554.4197000563145,Correct,sub_005_day_08_data.csv,1,300,86.0,Training at home,,,,,,,,,,,,,
5,10,2152,A,62.90827383379826,82.60709722796585,3.145413691689913,1.2975892489287766,A,649.0476001054049,Correct,sub_005_day_08_data.csv,1,300,86.0,Training at home,,,,,,,,,,,,,
5,10,2153,B,59.90052059922307,38.49095779050603,2.9950260299611533,0.6046145511214429,B,384.0440998319536,Correct,sub_005_day_08_data.csv,1,300,86.0,Training at home,,,,,,,,,,,,,
5,10,2154,B,64.30584631509369,39.905753435723646,3.2152923157546844,0.6268381091481753,B,402.8449999168515,Correct,sub_005_day_08_data.csv,1,300,86.0,Training at home,,,,,,,,,,,,,
5,10,2155,B,45.70661861621804,34.29867117886179,2.2853309308109018,0.5387622670170208,B,424.6362000703811,Correct,sub_005_day_08_data.csv,1,300,86.0,Training at home,,,,,,,,,,,,,
5,10,2156,B,80.57237955629557,64.94413621829631,4.028618977814778,1.0201401061856723,B,546.9031000975519,Correct,sub_005_day_08_data.csv,1,300,86.0,Training at home,,,,,,,,,,,,,
5,10,2157,B,48.10008104908424,33.96732796735476,2.4050040524542116,0.5335575400215842,B,459.6105001401156,Correct,sub_005_day_08_data.csv,1,300,86.0,Training at home,,,,,,,,,,,,,
5,10,2158,A,53.16267913390743,71.41530236302758,2.6581339566953717,1.1217889462879065,A,511.30870007909834,Correct,sub_005_day_08_data.csv,1,300,86.0,Training at home,,,,,,,,,,,,,
5,10,2159,B,53.82740058206037,27.626405110609067,2.6913700291030187,0.4339545567029247,B,487.5902000349015,Correct,sub_005_day_08_data.csv,1,300,86.0,Training at home,,,,,,,,,,,,,
5,10,2160,A,38.68263487201188,45.994927298943864,1.934131743600594,0.7224866285237934,A,580.165300052613,Correct,sub_005_day_08_data.csv,1,300,86.0,Training at home,,,,,,,,,,,,,
5,10,2161,A,55.97356235180753,78.03085752910788,2.7986781175903763,1.2257058438337856,A,457.4460000731051,Correct,sub_005_day_08_data.csv,1,300,86.0,Training at home,,,,,,,,,,,,,
5,10,2162,B,34.75908464896146,17.27650227018006,1.737954232448073,0.2713786630586253,B,456.52589993551373,Correct,sub_005_day_08_data.csv,1,300,86.0,Training at home,,,,,,,,,,,,,
5,10,2163,B,55.501172915428754,37.93860861205241,2.7750586457714377,0.5959382705152116,B,441.2340000271797,Correct,sub_005_day_08_data.csv,1,300,86.0,Training at home,,,,,,,,,,,,,
5,10,2164,B,54.84016195457504,34.355301288381774,2.7420080977287515,0.5396518106972207,B,454.27910005673766,Correct,sub_005_day_08_data.csv,1,300,86.0,Training at home,,,,,,,,,,,,,
5,10,2165,B,48.36547389039242,37.126102280825506,2.418273694519621,0.5831754509093233,B,549.1861999034882,Correct,sub_005_day_08_data.csv,1,300,86.0,Training at home,,,,,,,,,,,,,
5,10,2166,A,55.13874728578333,70.26719678123148,2.7569373642891666,1.1037545459813258,A,452.953000087291,Correct,sub_005_day_08_data.csv,1,300,86.0,Training at home,,,,,,,,,,,,,
5,10,2167,B,52.47023430814076,28.403316831750423,2.623511715407038,0.4461582574810521,B,451.2357001658529,Correct,sub_005_day_08_data.csv,1,300,86.0,Training at home,,,,,,,,,,,,,
5,10,2168,A,39.6854962847978,57.3890197941851,1.98427481423989,0.9014646149106555,A,386.3067999482155,Correct,sub_005_day_08_data.csv,1,300,86.0,Training at home,,,,,,,,,,,,,
5,10,2169,B,56.50839112320659,42.76108381219794,2.8254195561603295,0.6716895338196923,B,421.3782998267561,Correct,sub_005_day_08_data.csv,1,300,86.0,Training at home,,,,,,,,,,,,,
5,10,2170,A,38.265445395985374,67.75679463747981,1.9132722697992688,1.0643212413194942,A,449.82950016856194,Correct,sub_005_day_08_data.csv,1,300,86.0,Training at home,,,,,,,,,,,,,
5,10,2171,B,57.91913638040051,49.33190795136048,2.895956819020026,0.77490379803781,B,429.830800043419,Correct,sub_005_day_08_data.csv,1,300,86.0,Training at home,,,,,,,,,,,,,
5,10,2172,B,72.41095487080767,61.235795079838944,3.620547743540384,0.96188961979776,A,433.7987001053989,Incorrect,sub_005_day_08_data.csv,0,300,86.0,Training at home,,,,,,,,,,,,,
5,10,2173,B,66.88862606582654,45.53075789920715,3.3444313032913273,0.7151954726426231,A,485.8087000902742,Incorrect,sub_005_day_08_data.csv,0,300,86.0,Training at home,,,,,,,,,,,,,
5,10,2174,B,70.13006689813554,56.88540054250638,3.506503344906777,0.8935537822042545,B,380.2026000339538,Correct,sub_005_day_08_data.csv,1,300,86.0,Training at home,,,,,,,,,,,,,
5,10,2175,A,43.95597748671491,60.34158837930316,2.1977988743357453,0.9478434537917902,A,634.7330000717193,Correct,sub_005_day_08_data.csv,1,300,87.0,Training at home,,,,,,,,,,,,,
5,10,2176,A,36.06700003760664,51.35572103876317,1.803350001880332,0.8066937796759259,A,670.9733000025153,Correct,sub_005_day_08_data.csv,1,300,87.0,Training at home,,,,,,,,,,,,,
5,10,2177,A,43.83458678969619,56.48124756848286,2.19172933948481,0.8872053621336606,B,521.8797998968512,Incorrect,sub_005_day_08_data.csv,0,300,87.0,Training at home,,,,,,,,,,,,,
5,10,2178,B,65.93630060413098,53.66545370826179,3.296815030206549,0.8429749756071918,B,663.1640000268817,Correct,sub_005_day_08_data.csv,1,300,87.0,Training at home,,,,,,,,,,,,,
5,10,2179,A,27.425911841202097,56.75298986981917,1.3712955920601049,0.8914738802213993,A,462.34389999881387,Correct,sub_005_day_08_data.csv,1,300,87.0,Training at home,,,,,,,,,,,,,
5,10,2180,A,63.862613128862066,84.48264547944086,3.193130656443103,1.327050291970212,A,534.1520002111793,Correct,sub_005_day_08_data.csv,1,300,87.0,Training at home,,,,,,,,,,,,,
5,10,2181,A,26.152992777642165,37.68380109828479,1.3076496388821082,0.5919357634485523,A,411.2271999474615,Correct,sub_005_day_08_data.csv,1,300,87.0,Training at home,,,,,,,,,,,,,
5,10,2182,A,27.59163586221937,45.588709557839586,1.3795817931109684,0.7161057751677381,A,407.6296000275761,Correct,sub_005_day_08_data.csv,1,300,87.0,Training at home,,,,,,,,,,,,,
5,10,2183,A,54.595528136406465,72.92816921821631,2.729776406820323,1.145553003278508,A,556.0761000961065,Correct,sub_005_day_08_data.csv,1,300,87.0,Training at home,,,,,,,,,,,,,
5,10,2184,B,84.96954802417771,68.88172706358097,4.248477401208885,1.081991638547616,A,455.573899904266,Incorrect,sub_005_day_08_data.csv,0,300,87.0,Training at home,,,,,,,,,,,,,
5,10,2185,A,26.891878459406335,43.178770639643915,1.3445939229703168,0.6782505431627199,A,513.1473999936134,Correct,sub_005_day_08_data.csv,1,300,87.0,Training at home,,,,,,,,,,,,,
5,10,2186,A,47.73886749074557,57.28925302976068,2.3869433745372786,0.8998974822397147,A,462.8167001064867,Correct,sub_005_day_08_data.csv,1,300,87.0,Training at home,,,,,,,,,,,,,
5,10,2187,A,29.93368620863752,41.76090855511925,1.496684310431876,0.6559788176199888,A,456.6754000261426,Correct,sub_005_day_08_data.csv,1,300,87.0,Training at home,,,,,,,,,,,,,
5,10,2188,B,56.94189428647323,50.17734371473873,2.847094714323662,0.7881838719543658,B,574.724700069055,Correct,sub_005_day_08_data.csv,1,300,87.0,Training at home,,,,,,,,,,,,,
5,10,2189,A,27.194459387776135,41.738155018355,1.3597229693888069,0.6556214059002802,A,417.9352999199182,Correct,sub_005_day_08_data.csv,1,300,87.0,Training at home,,,,,,,,,,,,,
5,10,2190,B,57.00640470411707,28.127165450194195,2.850320235205853,0.4418204817231737,B,658.6708000395447,Correct,sub_005_day_08_data.csv,1,300,87.0,Training at home,,,,,,,,,,,,,
5,10,2191,B,51.87967301918803,23.12540911936223,2.5939836509594016,0.3632530770032339,B,552.7679000515491,Correct,sub_005_day_08_data.csv,1,300,87.0,Training at home,,,,,,,,,,,,,
5,10,2192,A,12.568962181038806,36.49609081384953,0.6284481090519403,0.5732792539276781,A,439.9311998859048,Correct,sub_005_day_08_data.csv,1,300,87.0,Training at home,,,,,,,,,,,,,
5,10,2193,A,48.78086906968453,70.8386857958395,2.439043453484226,1.1127314744308248,B,408.965399954468,Incorrect,sub_005_day_08_data.csv,0,300,87.0,Training at home,,,,,,,,,,,,,
5,10,2194,B,33.055982194475696,16.49549808239822,1.6527991097237846,0.2591106779648339,B,549.0963000338525,Correct,sub_005_day_08_data.csv,1,300,87.0,Training at home,,,,,,,,,,,,,
5,10,2195,A,42.00751522687614,73.60432251521783,2.1003757613438068,1.1561739944313107,A,462.62519992887974,Correct,sub_005_day_08_data.csv,1,300,87.0,Training at home,,,,,,,,,,,,,
5,10,2196,B,64.47427669772402,46.74365617690087,3.223713834886201,0.7342476342363947,B,433.67509986273944,Correct,sub_005_day_08_data.csv,1,300,87.0,Training at home,,,,,,,,,,,,,
5,10,2197,A,34.890789013464605,56.07705550081211,1.74453945067323,0.880856327981492,B,482.3666999582201,Incorrect,sub_005_day_08_data.csv,0,300,87.0,Training at home,,,,,,,,,,,,,
5,10,2198,B,58.63101678332864,29.261444787083633,2.931550839166432,0.4596376998826265,B,582.7599000185728,Correct,sub_005_day_08_data.csv,1,300,87.0,Training at home,,,,,,,,,,,,,
5,10,2199,A,66.31936663416286,80.7806292630188,3.315968331708143,1.2688991572253026,A,591.8617001734674,Correct,sub_005_day_08_data.csv,1,300,87.0,Training at home,,,,,,,,,,,,,
5,10,2200,A,58.892365305528145,82.36696276670155,2.9446182652764072,1.293817225631868,A,559.542000060901,Correct,sub_005_day_08_data.csv,1,300,88.0,Training at home,,,,,,,,,,,,,
5,10,2201,B,69.05220490893448,42.42472784858861,3.452610245446724,0.6664060666983614,B,544.3404000252485,Correct,sub_005_day_08_data.csv,1,300,88.0,Training at home,,,,,,,,,,,,,
5,10,2202,B,40.99055456576521,23.83052996496998,2.04952772828826,0.3743290893455056,A,480.5979998782277,Incorrect,sub_005_day_08_data.csv,0,300,88.0,Training at home,,,,,,,,,,,,,
5,10,2203,B,41.67024730391835,23.38352195932059,2.0835123651959178,0.3673075040122858,B,453.6220000591129,Correct,sub_005_day_08_data.csv,1,300,88.0,Training at home,,,,,,,,,,,,,
5,10,2204,B,87.40333635054073,67.27836152687667,4.3701668175270365,1.0568060315919696,B,498.92889987677336,Correct,sub_005_day_08_data.csv,1,300,88.0,Training at home,,,,,,,,,,,,,
5,10,2205,B,38.90391838677216,19.997622401675425,1.945195919338608,0.314121918131831,B,576.5786000993103,Correct,sub_005_day_08_data.csv,1,300,88.0,Training at home,,,,,,,,,,,,,
5,10,2206,A,37.99074775249295,57.92288252703332,1.8995373876246475,0.9098505111083623,A,493.2632001582533,Correct,sub_005_day_08_data.csv,1,300,88.0,Training at home,,,,,,,,,,,,,
5,10,2207,A,48.5298943675083,73.08838550417386,2.426494718375414,1.1480696748132564,B,736.7344000376761,Incorrect,sub_005_day_08_data.csv,0,300,88.0,Training at home,,,,,,,,,,,,,
5,10,2208,B,44.86971002276314,16.223745108084383,2.243485501138157,0.2548419922263562,B,464.6290000528097,Correct,sub_005_day_08_data.csv,1,300,88.0,Training at home,,,,,,,,,,,,,
5,10,2209,B,65.48409427555816,54.00381516823523,3.274204713777908,0.8482899449917441,B,469.8562999255955,Correct,sub_005_day_08_data.csv,1,300,88.0,Training at home,,,,,,,,,,,,,
5,10,2210,B,41.09254673039021,17.789361126135077,2.0546273365195105,0.279434631129609,B,564.2638998106122,Correct,sub_005_day_08_data.csv,1,300,88.0,Training at home,,,,,,,,,,,,,
5,10,2211,B,71.80468004614752,51.43911322980773,3.590234002307376,0.8080037011496877,B,590.3715998865664,Correct,sub_005_day_08_data.csv,1,300,88.0,Training at home,,,,,,,,,,,,,
5,10,2212,A,41.63865295080976,55.28604394897972,2.081932647540488,0.8684311475807857,A,468.20810018107295,Correct,sub_005_day_08_data.csv,1,300,88.0,Training at home,,,,,,,,,,,,,
5,10,2213,A,17.71417727806331,43.664276673715655,0.8857088639031656,0.6858768541122864,A,500.066600041464,Correct,sub_005_day_08_data.csv,1,300,88.0,Training at home,,,,,,,,,,,,,
5,10,2214,A,18.6149403654237,42.07676620843157,0.930747018271185,0.6609402980361193,A,419.08270004205406,Correct,sub_005_day_08_data.csv,1,300,88.0,Training at home,,,,,,,,,,,,,
5,10,2215,A,21.780028438389618,46.90194706538543,1.0890014219194808,0.7367340616983611,A,394.1168000455946,Correct,sub_005_day_08_data.csv,1,300,88.0,Training at home,,,,,,,,,,,,,
5,10,2216,B,59.10398276516213,34.4184185493859,2.9551991382581067,0.540643254314647,B,531.5701998770237,Correct,sub_005_day_08_data.csv,1,300,88.0,Training at home,,,,,,,,,,,,,
5,10,2217,B,44.93726845449397,28.487955801638208,2.246863422724698,0.4474877633110865,B,517.4233999568969,Correct,sub_005_day_08_data.csv,1,300,88.0,Training at home,,,,,,,,,,,,,
5,10,2218,A,65.81952305063109,88.54961252658389,3.2909761525315546,1.390934060958693,A,487.20329999923706,Correct,sub_005_day_08_data.csv,1,300,88.0,Training at home,,,,,,,,,,,,,
5,10,2219,B,60.030690044715435,29.31421369215863,3.001534502235772,0.4604665919052344,B,423.7216000910848,Correct,sub_005_day_08_data.csv,1,300,88.0,Training at home,,,,,,,,,,,,,
5,10,2220,B,74.27214013346625,63.7728974776347,3.713607006673312,1.001742331069361,A,481.99209989979863,Incorrect,sub_005_day_08_data.csv,0,300,88.0,Training at home,,,,,,,,,,,,,
5,10,2221,A,63.383825975510725,75.64425167563567,3.1691912987755364,1.1882171267523722,B,480.9383000247181,Incorrect,sub_005_day_08_data.csv,0,300,88.0,Training at home,,,,,,,,,,,,,
5,10,2222,A,25.393672919154188,36.63114879498458,1.2696836459577094,0.5754007397343908,A,540.3148999903351,Correct,sub_005_day_08_data.csv,1,300,88.0,Training at home,,,,,,,,,,,,,
5,10,2223,B,39.75401257370413,21.125488008665037,1.9877006286852064,0.3318383896576067,B,413.7003000359982,Correct,sub_005_day_08_data.csv,1,300,88.0,Training at home,,,,,,,,,,,,,
5,10,2224,A,15.83026330185396,32.02961475756466,0.7915131650926981,0.5031200120983818,A,415.0874000042677,Correct,sub_005_day_08_data.csv,1,300,88.0,Training at home,,,,,,,,,,,,,
5,10,2225,A,56.93429082389202,78.11122262787156,2.846714541194601,1.2269682158531905,A,509.9249999038875,Correct,sub_005_day_08_data.csv,1,300,89.0,Training at home,,,,,,,,,,,,,
5,10,2226,A,42.417817580862575,66.1472655559941,2.1208908790431287,1.0390388176288212,A,449.13319987244904,Correct,sub_005_day_08_data.csv,1,300,89.0,Training at home,,,,,,,,,,,,,
5,10,2227,B,57.7033053240838,50.77829437345722,2.8851652662041896,0.7976235828273657,B,931.7652999889106,Correct,sub_005_day_08_data.csv,1,300,89.0,Training at home,,,,,,,,,,,,,
5,10,2228,B,63.225135607879594,34.11703718557796,3.1612567803939795,0.5359091669223076,B,478.09879994019866,Correct,sub_005_day_08_data.csv,1,300,89.0,Training at home,,,,,,,,,,,,,
5,10,2229,B,80.15238289176965,53.48190815169602,4.007619144588483,0.8400918487466613,B,729.3026000261307,Correct,sub_005_day_08_data.csv,1,300,89.0,Training at home,,,,,,,,,,,,,
5,10,2230,A,33.295845603109456,48.556200976382314,1.6647922801554729,0.762719021368161,A,906.7102998960764,Correct,sub_005_day_08_data.csv,1,300,89.0,Training at home,,,,,,,,,,,,,
5,10,2231,B,85.21963836048343,63.52575421466432,4.2609819180241715,0.9978602137727012,B,478.584400145337,Correct,sub_005_day_08_data.csv,1,300,89.0,Training at home,,,,,,,,,,,,,
5,10,2232,B,61.3156642183222,32.51263875549066,3.0657832109161096,0.5107073353153413,B,437.3327000066638,Correct,sub_005_day_08_data.csv,1,300,89.0,Training at home,,,,,,,,,,,,,
5,10,2233,A,18.022659946924616,46.11238241203298,0.9011329973462308,0.72433160912583,A,417.0951000414789,Correct,sub_005_day_08_data.csv,1,300,89.0,Training at home,,,,,,,,,,,,,
5,10,2234,B,39.83139636507751,19.90282726563498,1.9915698182538757,0.3126328796169274,B,547.7272002026439,Correct,sub_005_day_08_data.csv,1,300,89.0,Training at home,,,,,,,,,,,,,
5,10,2235,A,19.038092288259744,47.58845324245315,0.9519046144129872,0.747517675510961,A,451.97149994783103,Correct,sub_005_day_08_data.csv,1,300,89.0,Training at home,,,,,,,,,,,,,
5,10,2236,A,22.948928720978657,36.910752079669805,1.147446436048933,0.5797927378598242,A,457.728800131008,Correct,sub_005_day_08_data.csv,1,300,89.0,Training at home,,,,,,,,,,,,,
5,10,2237,B,36.46000972173049,17.327761320400008,1.8230004860865248,0.2721838383366302,B,500.7049001287669,Correct,sub_005_day_08_data.csv,1,300,89.0,Training at home,,,,,,,,,,,,,
5,10,2238,A,52.9948630358249,72.63030463330304,2.6497431517912453,1.1408741573198675,A,500.87109999731183,Correct,sub_005_day_08_data.csv,1,300,89.0,Training at home,,,,,,,,,,,,,
5,10,2239,A,45.82926165558294,52.70287177054075,2.291463082779147,0.8278547738870786,A,700.642199954018,Correct,sub_005_day_08_data.csv,1,300,89.0,Training at home,,,,,,,,,,,,,
5,10,2240,B,84.69077650381172,68.6510471249475,4.234538825190586,1.0783681265449088,B,504.733300069347,Correct,sub_005_day_08_data.csv,1,300,89.0,Training at home,,,,,,,,,,,,,
5,10,2241,A,38.9098031384816,63.33511603438128,1.94549015692408,0.9948656762393469,A,441.9191000051797,Correct,sub_005_day_08_data.csv,1,300,89.0,Training at home,,,,,,,,,,,,,
5,10,2242,A,17.282206887872338,42.85684436748623,0.8641103443936169,0.6731937371046792,A,505.02589996904135,Correct,sub_005_day_08_data.csv,1,300,89.0,Training at home,,,,,,,,,,,,,
5,10,2243,A,39.30997393692597,61.09005146167251,1.9654986968462984,0.959600284397064,A,498.9816998131573,Correct,sub_005_day_08_data.csv,1,300,89.0,Training at home,,,,,,,,,,,,,
5,10,2244,A,28.20408784303576,44.14360825099599,1.4102043921517875,0.6934061769213739,A,996.284799883142,Correct,sub_005_day_08_data.csv,1,300,89.0,Training at home,,,,,,,,,,,,,
5,10,2245,B,72.53414162428045,42.83434229902464,3.6267070812140223,0.6728402754398318,B,424.49999996460974,Correct,sub_005_day_08_data.csv,1,300,89.0,Training at home,,,,,,,,,,,,,
5,10,2246,B,58.31978556988443,49.32553487065863,2.915989278494221,0.7748036899202416,B,530.930700013414,Correct,sub_005_day_08_data.csv,1,300,89.0,Training at home,,,,,,,,,,,,,
5,10,2247,A,27.451525209494314,46.468779521641494,1.3725762604747158,0.7299298818323636,A,543.3499999344349,Correct,sub_005_day_08_data.csv,1,300,89.0,Training at home,,,,,,,,,,,,,
5,10,2248,A,34.36445272405924,63.442469942396784,1.7182226362029622,0.996551987483125,A,439.8449999280274,Correct,sub_005_day_08_data.csv,1,300,89.0,Training at home,,,,,,,,,,,,,
5,10,2249,A,20.65704091878877,34.1653946301531,1.0328520459394384,0.5366687638854257,A,446.0811000317335,Correct,sub_005_day_08_data.csv,1,300,89.0,Training at home,,,,,,,,,,,,,
5,10,2250,A,55.60706839407052,84.43021955706772,2.780353419703526,1.326226787507286,A,650.7834000512958,Correct,sub_005_day_08_data.csv,1,300,90.0,Training at home,,,,,,,,,,,,,
5,10,2251,B,41.36035975091592,31.247488493676528,2.0680179875457956,0.4908344014743288,B,440.35020004957914,Correct,sub_005_day_08_data.csv,1,300,90.0,Training at home,,,,,,,,,,,,,
5,10,2252,A,57.51045121655881,77.18485161927259,2.8755225608279407,1.212416814077625,A,599.055300001055,Correct,sub_005_day_08_data.csv,1,300,90.0,Training at home,,,,,,,,,,,,,
5,10,2253,B,65.17155393440137,47.64007630579801,3.2585776967200686,0.7483285686937611,B,770.5152002163231,Correct,sub_005_day_08_data.csv,1,300,90.0,Training at home,,,,,,,,,,,,,
5,10,2254,A,41.364866238273216,65.8124985182726,2.0682433119136605,1.033780309296972,A,536.2851000390947,Correct,sub_005_day_08_data.csv,1,300,90.0,Training at home,,,,,,,,,,,,,
5,10,2255,B,32.96686284760054,18.21461606387744,1.648343142380027,0.28611452007118,B,624.6021999977529,Correct,sub_005_day_08_data.csv,1,300,90.0,Training at home,,,,,,,,,,,,,
5,10,2256,B,51.48629584891544,34.67052916841131,2.574314792445772,0.5446033986577581,A,611.4089000038803,Incorrect,sub_005_day_08_data.csv,0,300,90.0,Training at home,,,,,,,,,,,,,
5,10,2257,A,22.17344388899168,35.01903354964249,1.108672194449584,0.5500776926768567,A,437.37109983339906,Correct,sub_005_day_08_data.csv,1,300,90.0,Training at home,,,,,,,,,,,,,
5,10,2258,B,46.12797777966728,37.60780712147414,2.306398888983364,0.5907420528522255,B,215.63919982872903,Correct,sub_005_day_08_data.csv,1,300,90.0,Training at home,,,,,,,,,,,,,
5,10,2259,A,13.73624693702433,34.79468806370406,0.6868123468512165,0.5465536820244057,A,465.26800002902746,Correct,sub_005_day_08_data.csv,1,300,90.0,Training at home,,,,,,,,,,,,,
5,10,2260,B,33.74386604412983,17.052239378208323,1.6871933022064918,0.2678559497891692,B,454.3324999976903,Correct,sub_005_day_08_data.csv,1,300,90.0,Training at home,,,,,,,,,,,,,
5,10,2261,A,27.066436328863553,40.60398670375925,1.3533218164431775,0.6378059316749385,A,621.3366999290884,Correct,sub_005_day_08_data.csv,1,300,90.0,Training at home,,,,,,,,,,,,,
5,10,2262,B,41.38800430023216,14.51258153052568,2.069400215011608,0.2279630976046119,B,422.50790004618466,Correct,sub_005_day_08_data.csv,1,300,90.0,Training at home,,,,,,,,,,,,,
5,10,2263,B,64.82926130694449,39.99923421217488,3.2414630653472245,0.6283065017509307,B,438.2996999192983,Correct,sub_005_day_08_data.csv,1,300,90.0,Training at home,,,,,,,,,,,,,
5,10,2264,B,68.14071160770789,58.40275460801767,3.4070355803853944,0.9173883241297788,B,485.1381999906153,Correct,sub_005_day_08_data.csv,1,300,90.0,Training at home,,,,,,,,,,,,,
5,10,2265,A,46.5780380259026,55.222582950106144,2.32890190129513,0.867434304541532,B,579.8657000996172,Incorrect,sub_005_day_08_data.csv,0,300,90.0,Training at home,,,,,,,,,,,,,
5,10,2266,A,25.16060769343306,47.413499614728536,1.2580303846716532,0.7447695103530682,A,536.2094000447541,Correct,sub_005_day_08_data.csv,1,300,90.0,Training at home,,,,,,,,,,,,,
5,10,2267,A,60.32788946592389,69.25133736507324,3.0163944732961943,1.0877974635869123,A,637.9441998433322,Correct,sub_005_day_08_data.csv,1,300,90.0,Training at home,,,,,,,,,,,,,
5,10,2268,B,52.99827808095773,42.90520301574341,2.6499139040478865,0.6739533529751908,B,638.3817999158055,Correct,sub_005_day_08_data.csv,1,300,90.0,Training at home,,,,,,,,,,,,,
5,10,2269,B,50.6261103395091,29.682068261113848,2.531305516975455,0.4662448379623302,B,454.3127999641001,Correct,sub_005_day_08_data.csv,1,300,90.0,Training at home,,,,,,,,,,,,,
5,10,2270,B,48.93552509985581,25.348387948319463,2.4467762549927903,0.3981715467939224,B,552.3886999581009,Correct,sub_005_day_08_data.csv,1,300,90.0,Training at home,,,,,,,,,,,,,
5,10,2271,B,48.364728797922744,33.38901659520799,2.418236439896137,0.5244734462304657,B,545.6852000206709,Correct,sub_005_day_08_data.csv,1,300,90.0,Training at home,,,,,,,,,,,,,
5,10,2272,A,27.891382137046364,47.71460838415093,1.3945691068523185,0.7494993158428126,A,504.6361000277102,Correct,sub_005_day_08_data.csv,1,300,90.0,Training at home,,,,,,,,,,,,,
5,10,2273,B,41.41787141795295,19.052652858104484,2.0708935708976473,0.2992783712520881,B,450.41189994663,Correct,sub_005_day_08_data.csv,1,300,90.0,Training at home,,,,,,,,,,,,,
5,10,2274,A,33.70468619515723,50.41412391323601,1.6852343097578617,0.7919032066149387,A,457.6731999404728,Correct,sub_005_day_08_data.csv,1,300,90.0,Training at home,,,,,,,,,,,,,
5,10,2275,B,30.234590140548963,14.02925990400804,1.5117295070274483,0.2203710992486675,B,555.3184000309557,Correct,sub_005_day_08_data.csv,1,300,91.0,Training at home,,,,,,,,,,,,,
5,10,2276,B,44.36570537505055,32.774096308862866,2.2182852687525276,0.5148143009598397,B,512.4435999896377,Correct,sub_005_day_08_data.csv,1,300,91.0,Training at home,,,,,,,,,,,,,
5,10,2277,B,61.65736620041701,39.10464210622235,3.0828683100208503,0.6142542818108312,B,419.40080001950264,Correct,sub_005_day_08_data.csv,1,300,91.0,Training at home,,,,,,,,,,,,,
5,10,2278,B,81.9562523919685,66.66391373527802,4.097812619598425,1.0471543082514656,B,457.98889989964664,Correct,sub_005_day_08_data.csv,1,300,91.0,Training at home,,,,,,,,,,,,,
5,10,2279,A,62.5998104848685,85.83825812872189,3.129990524243425,1.3483442056706851,A,755.6956000626087,Correct,sub_005_day_08_data.csv,1,300,91.0,Training at home,,,,,,,,,,,,,
5,10,2280,A,33.16700073509454,42.62859490102733,1.658350036754727,0.6696084028696139,A,720.4303999897093,Correct,sub_005_day_08_data.csv,1,300,91.0,Training at home,,,,,,,,,,,,,
5,10,2281,B,49.6491808454275,20.426964289676963,2.4824590422713753,0.320866004737951,B,513.1654001306742,Correct,sub_005_day_08_data.csv,1,300,91.0,Training at home,,,,,,,,,,,,,
5,10,2282,B,59.57984490909364,36.63969610659305,2.978992245454682,0.5755350005911762,B,462.3778001405298,Correct,sub_005_day_08_data.csv,1,300,91.0,Training at home,,,,,,,,,,,,,
5,10,2283,B,67.27440640130871,51.000004381545665,3.363720320065436,0.8011061954905557,A,490.2431000955403,Incorrect,sub_005_day_08_data.csv,0,300,91.0,Training at home,,,,,,,,,,,,,
5,10,2284,A,34.69559215425383,64.84683979065446,1.7347796077126916,1.0186117774741716,A,461.91009995527565,Correct,sub_005_day_08_data.csv,1,300,91.0,Training at home,,,,,,,,,,,,,
5,10,2285,B,47.880827534215385,20.550347272961716,2.394041376710769,0.3228041001072778,B,495.6556998658926,Correct,sub_005_day_08_data.csv,1,300,91.0,Training at home,,,,,,,,,,,,,
5,10,2286,B,76.58877377650377,49.375321218244146,3.829438688825189,0.7755857320393602,B,512.7721999306232,Correct,sub_005_day_08_data.csv,1,300,91.0,Training at home,,,,,,,,,,,,,
5,10,2287,B,58.91463267440249,36.718496213527395,2.9457316337201247,0.5767727897764114,B,645.7052000332624,Correct,sub_005_day_08_data.csv,1,300,91.0,Training at home,,,,,,,,,,,,,
5,10,2288,B,49.4267385951148,41.46795990633484,2.47133692975574,0.6513771910054881,B,1117.0556999277323,Correct,sub_005_day_08_data.csv,1,300,91.0,Training at home,,,,,,,,,,,,,
5,10,2289,A,27.07753294531461,52.76851801736332,1.3538766472657304,0.8288859427208463,A,540.098899975419,Correct,sub_005_day_08_data.csv,1,300,91.0,Training at home,,,,,,,,,,,,,
5,10,2290,A,30.899017114235935,41.863126030142354,1.5449508557117968,0.6575844459629943,A,480.65109993331134,Correct,sub_005_day_08_data.csv,1,300,91.0,Training at home,,,,,,,,,,,,,
5,10,2291,B,65.13676175853794,48.39216560675528,3.256838087926897,0.7601423598074151,B,418.7720001209527,Correct,sub_005_day_08_data.csv,1,300,91.0,Training at home,,,,,,,,,,,,,
5,10,2292,B,69.1435246080883,37.405261491256,3.4571762304044147,0.5875604735326752,B,510.91829990036786,Correct,sub_005_day_08_data.csv,1,300,91.0,Training at home,,,,,,,,,,,,,
5,10,2293,A,26.10121875013309,41.846830394333296,1.3050609375066542,0.6573284747142777,A,516.6609999723732,Correct,sub_005_day_08_data.csv,1,300,91.0,Training at home,,,,,,,,,,,,,
5,10,2294,A,35.84175746574264,58.95125650775311,1.792087873287132,0.9260041718232233,A,513.4527001064271,Correct,sub_005_day_08_data.csv,1,300,91.0,Training at home,,,,,,,,,,,,,
5,10,2295,B,63.27416696335601,36.1363779973012,3.163708348167801,0.5676288982183265,B,424.4498999323696,Correct,sub_005_day_08_data.csv,1,300,91.0,Training at home,,,,,,,,,,,,,
5,10,2296,B,79.91697792868436,66.21882815436017,3.9958488964342176,1.0401629202953142,B,502.8829998336733,Correct,sub_005_day_08_data.csv,1,300,91.0,Training at home,,,,,,,,,,,,,
5,10,2297,A,43.164269568022505,68.19743325968997,2.1582134784011253,1.0712427766116113,A,534.4622998964041,Correct,sub_005_day_08_data.csv,1,300,91.0,Training at home,,,,,,,,,,,,,
5,10,2298,B,67.81947548943074,54.99159760170954,3.390973774471537,0.863805995173484,B,445.4542000312358,Correct,sub_005_day_08_data.csv,1,300,91.0,Training at home,,,,,,,,,,,,,
5,10,2299,B,67.23992056916754,36.78670698023245,3.361996028458377,0.5778442419942932,B,518.2019998319447,Correct,sub_005_day_08_data.csv,1,300,91.0,Training at home,,,,,,,,,,,,,
5,10,2300,A,40.009926074644206,69.23873470855862,2.00049630373221,1.087599501521302,A,515.8231998793781,Correct,sub_005_day_08_data.csv,1,300,92.0,Training at home,,,,,,,,,,,,,
5,10,2301,A,65.66343189184904,79.12059214132279,3.283171594592452,1.24282335509427,A,620.892700040713,Correct,sub_005_day_08_data.csv,1,300,92.0,Training at home,,,,,,,,,,,,,
5,10,2302,A,20.38310447102275,41.26471844576,1.019155223551138,0.6481846816082544,A,419.9214999098331,Correct,sub_005_day_08_data.csv,1,300,92.0,Training at home,,,,,,,,,,,,,
5,10,2303,A,15.17619341957156,32.856985791321925,0.7588096709785781,0.5161163259056059,A,465.77270003035665,Correct,sub_005_day_08_data.csv,1,300,92.0,Training at home,,,,,,,,,,,,,
5,10,2304,A,27.572225721131367,40.06633674416926,1.3786112860565682,0.6293605458586847,A,411.5743001457304,Correct,sub_005_day_08_data.csv,1,300,92.0,Training at home,,,,,,,,,,,,,
5,10,2305,A,45.97642177857293,58.50693836406697,2.2988210889286465,0.9190248387429182,A,422.44540015235543,Correct,sub_005_day_08_data.csv,1,300,92.0,Training at home,,,,,,,,,,,,,
5,10,2306,B,86.6881148200107,67.54869005400981,4.334405741000535,1.0610523421664555,A,466.1270999349654,Incorrect,sub_005_day_08_data.csv,0,300,92.0,Training at home,,,,,,,,,,,,,
5,10,2307,B,70.60276469789491,54.105155183440374,3.530138234894746,0.84988179022816,B,455.37880016490817,Correct,sub_005_day_08_data.csv,1,300,92.0,Training at home,,,,,,,,,,,,,
5,10,2308,A,43.237798233763755,54.62863856565339,2.1618899116881876,0.8581046479673439,B,445.7353998441249,Incorrect,sub_005_day_08_data.csv,0,300,92.0,Training at home,,,,,,,,,,,,,
5,10,2309,A,22.179117817795905,52.50744805167423,1.108955890889795,0.8247850652894373,A,466.3676000200212,Correct,sub_005_day_08_data.csv,1,300,92.0,Training at home,,,,,,,,,,,,,
5,10,2310,A,65.0408921730444,87.69313110366659,3.2520446086522203,1.3774804822278277,B,480.8863999787718,Incorrect,sub_005_day_08_data.csv,0,300,92.0,Training at home,,,,,,,,,,,,,
5,10,2311,B,49.305642272928374,34.37796585488239,2.4652821136464187,0.5400078248752963,B,424.14209991693497,Correct,sub_005_day_08_data.csv,1,300,92.0,Training at home,,,,,,,,,,,,,
5,10,2312,B,85.85571503542353,67.98674101172584,4.292785751771176,1.0679332305197489,B,556.2644000165164,Correct,sub_005_day_08_data.csv,1,300,92.0,Training at home,,,,,,,,,,,,,
5,10,2313,A,66.14992369273081,88.41945833147244,3.3074961846365403,1.3888896036427132,A,479.8810000065714,Correct,sub_005_day_08_data.csv,1,300,92.0,Training at home,,,,,,,,,,,,,
5,10,2314,A,38.55514786703862,58.027096520326545,1.927757393351931,0.9114875006870184,A,587.6645999960601,Correct,sub_005_day_08_data.csv,1,300,92.0,Training at home,,,,,,,,,,,,,
5,10,2315,A,20.04402038098863,41.18092838517447,1.0022010190494317,0.6468685104143574,A,480.2077999338508,Correct,sub_005_day_08_data.csv,1,300,92.0,Training at home,,,,,,,,,,,,,
5,10,2316,A,20.030726461027797,34.59930020067725,1.0015363230513898,0.5434845366489774,A,611.0855001024902,Correct,sub_005_day_08_data.csv,1,300,92.0,Training at home,,,,,,,,,,,,,
5,10,2317,A,29.421602958986657,54.37092850786016,1.4710801479493327,0.8540565478457467,A,473.50770002231,Correct,sub_005_day_08_data.csv,1,300,92.0,Training at home,,,,,,,,,,,,,
5,10,2318,B,75.54800101184635,44.920824282133,3.7774000505923175,0.7056146577897351,B,444.2090999800712,Correct,sub_005_day_08_data.csv,1,300,92.0,Training at home,,,,,,,,,,,,,
5,10,2319,A,42.09945738450292,53.732042884233415,2.104972869225146,0.8440209559373972,B,3506.8806998897344,Incorrect,sub_005_day_08_data.csv,0,300,92.0,Training at home,,,,,,,,,,,,,
5,10,2320,B,66.1572545951522,41.7151611039556,3.30786272975761,0.655260218337508,B,579.2729998938739,Correct,sub_005_day_08_data.csv,1,300,92.0,Training at home,,,,,,,,,,,,,
5,10,2321,A,39.59557084162361,57.06861516796282,1.9797785420811809,0.8964317108110751,A,562.544499989599,Correct,sub_005_day_08_data.csv,1,300,92.0,Training at home,,,,,,,,,,,,,
5,10,2322,B,77.95849745258178,46.29534720852678,3.897924872629089,0.7272056134284824,B,497.8479000274092,Correct,sub_005_day_08_data.csv,1,300,92.0,Training at home,,,,,,,,,,,,,
5,10,2323,B,36.044510955723936,24.124301727078425,1.8022255477861968,0.3789436453938656,A,786.9223998859525,Incorrect,sub_005_day_08_data.csv,0,300,92.0,Training at home,,,,,,,,,,,,,
5,10,2324,B,74.86499395029223,44.84163228488005,3.743249697514611,0.7043707128057702,B,441.1885999143123,Correct,sub_005_day_08_data.csv,1,300,92.0,Training at home,,,,,,,,,,,,,
5,10,2325,A,19.836003172755525,39.92419259196839,0.9918001586377764,0.6271277507371598,A,445.997100090608,Correct,sub_005_day_08_data.csv,1,300,93.0,Training at home,,,,,,,,,,,,,
5,10,2326,B,47.23166385633645,23.092481670589716,2.361583192816823,0.362735853847408,B,840.2347001247108,Correct,sub_005_day_08_data.csv,1,300,93.0,Training at home,,,,,,,,,,,,,
5,10,2327,A,25.476275351064658,57.71085698869306,1.2738137675532328,0.9065200217402464,A,567.7020999137312,Correct,sub_005_day_08_data.csv,1,300,93.0,Training at home,,,,,,,,,,,,,
5,10,2328,A,51.23769129847625,63.647917158053644,2.5618845649238127,0.9997791448001654,B,634.9450999405235,Incorrect,sub_005_day_08_data.csv,0,300,93.0,Training at home,,,,,,,,,,,,,
5,10,2329,A,28.250196080670335,60.50912832494316,1.412509804033517,0.9504751651038176,A,2367.7054001018405,Correct,sub_005_day_08_data.csv,1,300,93.0,Training at home,,,,,,,,,,,,,
5,10,2330,B,55.38031746095676,42.78283749644132,2.769015873047838,0.67203123989273,B,502.26270011626184,Correct,sub_005_day_08_data.csv,1,300,93.0,Training at home,,,,,,,,,,,,,
5,10,2331,B,88.43659405277025,66.13041565045316,4.4218297026385125,1.0387741399315156,B,459.9148998968303,Correct,sub_005_day_08_data.csv,1,300,93.0,Training at home,,,,,,,,,,,,,
5,10,2332,B,58.66345022146418,28.585888655602076,2.933172511073209,0.4490260889838764,B,603.8812999613583,Correct,sub_005_day_08_data.csv,1,300,93.0,Training at home,,,,,,,,,,,,,
5,10,2333,A,30.643689502715212,58.25004091260323,1.5321844751357605,0.914989503011696,A,381.62580016069114,Correct,sub_005_day_08_data.csv,1,300,93.0,Training at home,,,,,,,,,,,,,
5,10,2334,B,39.83385468283477,12.362955860498946,1.9916927341417383,0.1941968565399918,B,531.0412000399083,Correct,sub_005_day_08_data.csv,1,300,93.0,Training at home,,,,,,,,,,,,,
5,10,2335,B,51.28629980522534,24.47842160961065,2.5643149902612667,0.3845061475011322,B,451.7496000044048,Correct,sub_005_day_08_data.csv,1,300,93.0,Training at home,,,,,,,,,,,,,
5,10,2336,A,16.45572396344454,35.46096016095822,0.8227861981722271,0.5570194596545334,A,580.0920999608934,Correct,sub_005_day_08_data.csv,1,300,93.0,Training at home,,,,,,,,,,,,,
5,10,2337,B,79.33908594716493,58.048278534942966,3.9669542973582463,0.9118202269945545,B,438.63860005512834,Correct,sub_005_day_08_data.csv,1,300,93.0,Training at home,,,,,,,,,,,,,
5,10,2338,A,41.10130400172024,68.82845755426558,2.0550652000860117,1.081154883051988,A,402.2272999864072,Correct,sub_005_day_08_data.csv,1,300,93.0,Training at home,,,,,,,,,,,,,
5,10,2339,A,42.89749359563285,50.27883752994366,2.1448746797816427,0.7897781330755289,A,440.78720011748374,Correct,sub_005_day_08_data.csv,1,300,93.0,Training at home,,,,,,,,,,,,,
5,10,2340,A,52.48669861337808,67.5076756471866,2.624334930668904,1.0604080893706205,A,1442.3410999588668,Correct,sub_005_day_08_data.csv,1,300,93.0,Training at home,,,,,,,,,,,,,
5,10,2341,A,39.673029791370936,50.64523309196992,1.9836514895685469,0.7955334611053768,B,491.3746998645365,Incorrect,sub_005_day_08_data.csv,0,300,93.0,Training at home,,,,,,,,,,,,,
5,10,2342,B,48.1622394964997,37.678608837342125,2.408111974824985,0.5918542036043873,B,775.9225000627339,Correct,sub_005_day_08_data.csv,1,300,93.0,Training at home,,,,,,,,,,,,,
5,10,2343,A,50.28664363910808,62.39148554088223,2.514332181955404,0.980043163108947,A,595.7820999901742,Correct,sub_005_day_08_data.csv,1,300,93.0,Training at home,,,,,,,,,,,,,
5,10,2344,A,68.1794567567515,86.6562989113146,3.408972837837575,1.3611939602353356,A,546.2051001377404,Correct,sub_005_day_08_data.csv,1,300,93.0,Training at home,,,,,,,,,,,,,
5,10,2345,B,79.6417425483461,64.99795016243058,3.982087127417305,1.020985413643437,B,470.7431001588702,Correct,sub_005_day_08_data.csv,1,300,93.0,Training at home,,,,,,,,,,,,,
5,10,2346,B,54.048804048391304,34.93776516478916,2.702440202419565,0.548801131872735,B,541.4698999375105,Correct,sub_005_day_08_data.csv,1,300,93.0,Training at home,,,,,,,,,,,,,
5,10,2347,B,49.604159675937346,27.22634277569642,2.4802079837968676,0.4276703922412271,B,505.8516999706626,Correct,sub_005_day_08_data.csv,1,300,93.0,Training at home,,,,,,,,,,,,,
5,10,2348,A,38.61689566084472,47.34644827784276,1.9308447830422355,0.7437162704161996,A,478.10229985043406,Correct,sub_005_day_08_data.csv,1,300,93.0,Training at home,,,,,,,,,,,,,
5,10,2349,B,56.25678591087661,32.88747849786202,2.8128392955438306,0.516595304219878,B,502.2584001999349,Correct,sub_005_day_08_data.csv,1,300,93.0,Training at home,,,,,,,,,,,,,
5,10,2350,A,25.98171858092623,43.8192647468895,1.2990859290463117,0.6883114010726713,A,406.64169983938336,Correct,sub_005_day_08_data.csv,1,300,94.0,Training at home,,,,,,,,,,,,,
5,10,2351,A,42.26432260338551,66.89122711764367,2.1132161301692753,1.0507249385119783,A,504.5527999754995,Correct,sub_005_day_08_data.csv,1,300,94.0,Training at home,,,,,,,,,,,,,
5,10,2352,A,53.15384646492694,66.48885861682137,2.657692323246347,1.0444045488808822,A,620.8311000373214,Correct,sub_005_day_08_data.csv,1,300,94.0,Training at home,,,,,,,,,,,,,
5,10,2353,A,54.73564208510485,67.24306437897901,2.7367821042552425,1.05625158528933,A,518.4804999735206,Correct,sub_005_day_08_data.csv,1,300,94.0,Training at home,,,,,,,,,,,,,
5,10,2354,B,51.82573682882827,36.06847560942742,2.5912868414414136,0.5665622900037992,B,421.0986001417041,Correct,sub_005_day_08_data.csv,1,300,94.0,Training at home,,,,,,,,,,,,,
5,10,2355,A,22.73136590332751,50.50336295869164,1.1365682951663758,0.7933049702630227,A,492.043900070712,Correct,sub_005_day_08_data.csv,1,300,94.0,Training at home,,,,,,,,,,,,,
5,10,2356,B,61.40721942564909,44.40659047961784,3.0703609712824544,0.6975370921086892,B,513.2013000547886,Correct,sub_005_day_08_data.csv,1,300,94.0,Training at home,,,,,,,,,,,,,
5,10,2357,A,47.61128597430181,76.28166164620639,2.3805642987150906,1.1982295391567217,A,478.8204999640584,Correct,sub_005_day_08_data.csv,1,300,94.0,Training at home,,,,,,,,,,,,,
5,10,2358,B,54.04667076719221,42.69326999270506,2.70233353835961,0.670624316834039,B,436.9882000610232,Correct,sub_005_day_08_data.csv,1,300,94.0,Training at home,,,,,,,,,,,,,
5,10,2359,A,20.475813503108196,47.349592489135915,1.0237906751554098,0.743765659571699,A,462.2764999512583,Correct,sub_005_day_08_data.csv,1,300,94.0,Training at home,,,,,,,,,,,,,
5,10,2360,B,51.68037161066148,27.064493520712247,2.5840185805330744,0.4251280700889907,B,413.0030001979321,Correct,sub_005_day_08_data.csv,1,300,94.0,Training at home,,,,,,,,,,,,,
5,10,2361,B,48.19825890854534,18.20323297936997,2.409912945427267,0.2859357149978607,B,485.14040000736713,Correct,sub_005_day_08_data.csv,1,300,94.0,Training at home,,,,,,,,,,,,,
5,10,2362,B,58.01826363421152,33.39525104499731,2.900913181710576,0.524571376738752,B,405.9039999265224,Correct,sub_005_day_08_data.csv,1,300,94.0,Training at home,,,,,,,,,,,,,
5,10,2363,B,75.88599135957898,44.14279958280802,3.794299567978949,0.6933934743911813,B,419.4368999451399,Correct,sub_005_day_08_data.csv,1,300,94.0,Training at home,,,,,,,,,,,,,
5,10,2364,B,60.641016062867536,43.64586049423129,3.032050803143377,0.68558757344141,B,505.5269999429583,Correct,sub_005_day_08_data.csv,1,300,94.0,Training at home,,,,,,,,,,,,,
5,10,2365,B,75.64046738608258,56.04818346598291,3.782023369304129,0.8804028071189242,B,968.5312998481096,Correct,sub_005_day_08_data.csv,1,300,94.0,Training at home,,,,,,,,,,,,,
5,10,2366,B,48.05267088402278,26.286270490136815,2.402633544201139,0.4129037713104399,B,421.2916998658329,Correct,sub_005_day_08_data.csv,1,300,94.0,Training at home,,,,,,,,,,,,,
5,10,2367,A,15.4985090740886,43.22707122121638,0.77492545370443,0.6790092469238808,A,451.657900121063,Correct,sub_005_day_08_data.csv,1,300,94.0,Training at home,,,,,,,,,,,,,
5,10,2368,A,35.621294421130585,44.821133988503064,1.7810647210565294,0.7040487263192251,A,443.6814000364393,Correct,sub_005_day_08_data.csv,1,300,94.0,Training at home,,,,,,,,,,,,,
5,10,2369,A,37.35581065709182,49.80066166365428,1.867790532854591,0.7822669641322355,A,542.8774999454618,Correct,sub_005_day_08_data.csv,1,300,94.0,Training at home,,,,,,,,,,,,,
5,10,2370,B,77.41132448518793,64.71043771006072,3.870566224259397,1.0164691786025333,B,427.2392999846488,Correct,sub_005_day_08_data.csv,1,300,94.0,Training at home,,,,,,,,,,,,,
5,10,2371,B,62.173001371935655,43.75971155096395,3.1086500685967824,0.6873759416585838,B,455.2457998506725,Correct,sub_005_day_08_data.csv,1,300,94.0,Training at home,,,,,,,,,,,,,
5,10,2372,B,78.70585550646217,62.405798334439325,3.935292775323109,0.9802679879444036,B,494.79729984886944,Correct,sub_005_day_08_data.csv,1,300,94.0,Training at home,,,,,,,,,,,,,
5,10,2373,A,27.582117306483525,57.49629253680842,1.3791058653241763,0.9031496512114348,A,503.1152998562902,Correct,sub_005_day_08_data.csv,1,300,94.0,Training at home,,,,,,,,,,,,,
5,10,2374,A,43.61025261850578,72.95325642660003,2.180512630925289,1.1459470722262952,A,509.55340010114014,Correct,sub_005_day_08_data.csv,1,300,94.0,Training at home,,,,,,,,,,,,,
5,10,2375,B,64.12476504269935,40.334398319273035,3.2062382521349675,0.6335712472339634,B,471.0810000542551,Correct,sub_005_day_08_data.csv,1,300,95.0,Training at home,,,,,,,,,,,,,
5,10,2376,B,53.3993599087668,29.439369616015934,2.66996799543834,0.4624325365599512,B,463.9647000003606,Correct,sub_005_day_08_data.csv,1,300,95.0,Training at home,,,,,,,,,,,,,
5,10,2377,B,82.7819588798709,52.262930031508226,4.139097943993545,0.820944185210318,B,399.70789989456534,Correct,sub_005_day_08_data.csv,1,300,95.0,Training at home,,,,,,,,,,,,,
5,10,2378,B,69.78133602634296,53.75151244601031,3.489066801317148,0.8443267830986316,B,615.4208998195827,Correct,sub_005_day_08_data.csv,1,300,95.0,Training at home,,,,,,,,,,,,,
5,10,2379,B,30.4915391681502,11.194630022096486,1.52457695840751,0.1758448371853703,A,624.3299001362175,Incorrect,sub_005_day_08_data.csv,0,300,95.0,Training at home,,,,,,,,,,,,,
5,10,2380,A,44.53530111917696,63.54968141285041,2.2267650559588477,0.9982360613229132,A,721.7449999880046,Correct,sub_005_day_08_data.csv,1,300,95.0,Training at home,,,,,,,,,,,,,
5,10,2381,B,43.06855240046906,17.461725349642794,2.153427620023453,0.2742881403872023,B,472.1750000026077,Correct,sub_005_day_08_data.csv,1,300,95.0,Training at home,,,,,,,,,,,,,
5,10,2382,A,48.201343956130266,74.24657325770916,2.4100671978065136,1.1662624455031776,A,418.14350010827184,Correct,sub_005_day_08_data.csv,1,300,95.0,Training at home,,,,,,,,,,,,,
5,10,2383,B,51.783175091667445,45.14270277548951,2.589158754583372,0.7090999170133271,B,405.835899990052,Correct,sub_005_day_08_data.csv,1,300,95.0,Training at home,,,,,,,,,,,,,
5,10,2384,A,48.99707438798251,78.33267882373119,2.449853719399125,1.2304468416432133,A,553.746199933812,Correct,sub_005_day_08_data.csv,1,300,95.0,Training at home,,,,,,,,,,,,,
5,10,2385,A,25.772304017143917,54.07642720758943,1.2886152008571958,0.8494305322387308,A,395.93560015782714,Correct,sub_005_day_08_data.csv,1,300,95.0,Training at home,,,,,,,,,,,,,
5,10,2386,B,59.556430926015274,48.32591908456355,2.977821546300764,0.7591017618701982,B,467.5847999751568,Correct,sub_005_day_08_data.csv,1,300,95.0,Training at home,,,,,,,,,,,,,
5,10,2387,B,63.50150468317979,43.30726960262263,3.1750752341589896,0.6802690001531592,B,858.7996000424027,Correct,sub_005_day_08_data.csv,1,300,95.0,Training at home,,,,,,,,,,,,,
5,10,2388,B,67.06988967038978,58.94824828704624,3.3534944835194893,0.9259569188028578,B,464.5741998683661,Correct,sub_005_day_08_data.csv,1,300,95.0,Training at home,,,,,,,,,,,,,
5,10,2389,A,17.54542500220566,40.418949567909024,0.8772712501102831,0.6348993751417967,A,405.7776001282036,Correct,sub_005_day_08_data.csv,1,300,95.0,Training at home,,,,,,,,,,,,,
5,10,2390,B,42.72421283753201,34.62479403539125,2.1362106418766005,0.5438849928682241,B,568.7208001036197,Correct,sub_005_day_08_data.csv,1,300,95.0,Training at home,,,,,,,,,,,,,
5,10,2391,A,64.9799034489504,79.23720398865653,3.2489951724475197,1.244655089708796,A,573.6704000737518,Correct,sub_005_day_08_data.csv,1,300,95.0,Training at home,,,,,,,,,,,,,
5,10,2392,B,69.68892733924694,51.2729440046449,3.4844463669623473,0.8053935210645662,B,553.0909998342395,Correct,sub_005_day_08_data.csv,1,300,95.0,Training at home,,,,,,,,,,,,,
5,10,2393,B,88.59943027997429,63.68098301697627,4.429971513998714,1.000298542097545,B,440.0452999398112,Correct,sub_005_day_08_data.csv,1,300,95.0,Training at home,,,,,,,,,,,,,
5,10,2394,A,31.65858006649421,51.33219731901174,1.5829290033247103,0.8063242699501448,A,402.3076999001205,Correct,sub_005_day_08_data.csv,1,300,95.0,Training at home,,,,,,,,,,,,,
5,10,2395,B,75.0422434068444,61.71297709307947,3.7521121703422207,0.9693851773338682,B,506.3928000163287,Correct,sub_005_day_08_data.csv,1,300,95.0,Training at home,,,,,,,,,,,,,
5,10,2396,A,42.10116770373245,72.84288258361867,2.1050583851866222,1.1442133239550016,A,510.277200024575,Correct,sub_005_day_08_data.csv,1,300,95.0,Training at home,,,,,,,,,,,,,
5,10,2397,A,47.39705174499869,63.41919560738409,2.3698525872499343,0.9961863950836596,A,455.09669999592006,Correct,sub_005_day_08_data.csv,1,300,95.0,Training at home,,,,,,,,,,,,,
5,10,2398,B,37.92609912703837,17.839596090111293,1.8963049563519183,0.2802237200985142,B,761.4105001557618,Correct,sub_005_day_08_data.csv,1,300,95.0,Training at home,,,,,,,,,,,,,
5,10,2399,A,10.149267438422603,33.51127163355653,0.5074633719211302,0.5263938238821662,A,514.0130999498069,Correct,sub_005_day_08_data.csv,1,300,95.0,Training at home,,,,,,,,,,,,,
