subject,day,trial,cat,x,y,xt,yt,resp,rt,fb,f_name,acc,n_trials,block,session_type,ns_left_digit,ns_right_digit,ns_left_size,ns_right_size,ns_congruent,ns_cue,ns_correct_side,ns_resp,ns_rt,ns_fb,acc_stroop,acc_stroop_mean,resp_key
5,8,1500,B,66.9319164008694,58.91889299472597,3.34659582004347,0.9254958069493712,B,480.3645999636501,Correct,sub_005_day_06_data.csv,1,300,60.0,Training at home,,,,,,,,,,,,,
5,8,1501,A,29.12695740721132,49.08859610694185,1.456347870360566,0.7710818645230251,A,500.6303999107331,Correct,sub_005_day_06_data.csv,1,300,60.0,Training at home,,,,,,,,,,,,,
5,8,1502,A,62.69050081303003,84.77592627069701,3.1345250406515017,1.3316571358664584,A,687.4146999325603,Correct,sub_005_day_06_data.csv,1,300,60.0,Training at home,,,,,,,,,,,,,
5,8,1503,A,28.420852361436168,51.122643223823054,1.4210426180718083,0.8030326019202726,A,569.0233998466283,Correct,sub_005_day_06_data.csv,1,300,60.0,Training at home,,,,,,,,,,,,,
5,8,1504,B,61.9777140185313,36.91838941973596,3.098885700926565,0.5799127049170482,B,553.1188999302685,Correct,sub_005_day_06_data.csv,1,300,60.0,Training at home,,,,,,,,,,,,,
5,8,1505,A,14.4503946845035,38.74241629058574,0.7225197342251749,0.6085644520041084,A,577.1400001831353,Correct,sub_005_day_06_data.csv,1,300,60.0,Training at home,,,,,,,,,,,,,
5,8,1506,B,42.79177732948897,17.88285041492813,2.139588866474449,0.280903157443917,B,497.5482998415828,Correct,sub_005_day_06_data.csv,1,300,60.0,Training at home,,,,,,,,,,,,,
5,8,1507,B,71.89045948017645,57.82627037402092,3.5945229740088225,0.9083329309576064,B,442.07990006543696,Correct,sub_005_day_06_data.csv,1,300,60.0,Training at home,,,,,,,,,,,,,
5,8,1508,A,59.91824469137636,73.11858821281132,2.995912234568818,1.1485440978511263,A,452.9914997983724,Correct,sub_005_day_06_data.csv,1,300,60.0,Training at home,,,,,,,,,,,,,
5,8,1509,B,56.35293454432334,35.54629172089343,2.817646727216167,0.5583598446635923,B,480.18940002657473,Correct,sub_005_day_06_data.csv,1,300,60.0,Training at home,,,,,,,,,,,,,
5,8,1510,A,19.03047927911801,47.834366694616634,0.9515239639559004,0.7513804749846394,A,473.44679990783334,Correct,sub_005_day_06_data.csv,1,300,60.0,Training at home,,,,,,,,,,,,,
5,8,1511,A,33.32865320737447,46.010585456947354,1.6664326603687238,0.7227325862945558,A,545.0132000260055,Correct,sub_005_day_06_data.csv,1,300,60.0,Training at home,,,,,,,,,,,,,
5,8,1512,B,68.41226465433806,59.71994887028594,3.420613232716903,0.9380787632182418,B,421.94789997302,Correct,sub_005_day_06_data.csv,1,300,60.0,Training at home,,,,,,,,,,,,,
5,8,1513,B,33.73692329992136,10.497019654932169,1.686846164996068,0.1648867991626127,A,479.1938001289964,Incorrect,sub_005_day_06_data.csv,0,300,60.0,Training at home,,,,,,,,,,,,,
5,8,1514,B,57.62045142955938,45.61802055500424,2.8810225714779687,0.7165661912345475,B,650.8123998064548,Correct,sub_005_day_06_data.csv,1,300,60.0,Training at home,,,,,,,,,,,,,
5,8,1515,A,30.558666387140512,53.15673091183267,1.5279333193570257,0.8349839766073148,B,743.6857998836786,Incorrect,sub_005_day_06_data.csv,0,300,60.0,Training at home,,,,,,,,,,,,,
5,8,1516,B,40.078881864611375,27.925531842213328,2.0039440932305688,0.4386532284154261,B,984.061500057578,Correct,sub_005_day_06_data.csv,1,300,60.0,Training at home,,,,,,,,,,,,,
5,8,1517,A,31.256731053809126,47.99497953804552,1.5628365526904562,0.7539033756295813,A,1194.3779001012444,Correct,sub_005_day_06_data.csv,1,300,60.0,Training at home,,,,,,,,,,,,,
5,8,1518,B,47.46617116212602,36.5965833989633,2.373308558106301,0.5748577877633463,B,537.394099868834,Correct,sub_005_day_06_data.csv,1,300,60.0,Training at home,,,,,,,,,,,,,
5,8,1519,B,80.47486454426003,66.51039200764636,4.023743227213001,1.0447427945929957,B,1020.7475000061096,Correct,sub_005_day_06_data.csv,1,300,60.0,Training at home,,,,,,,,,,,,,
5,8,1520,B,36.18523152262422,24.60248985671507,1.8092615761312112,0.3864550069693674,B,519.9416999239475,Correct,sub_005_day_06_data.csv,1,300,60.0,Training at home,,,,,,,,,,,,,
5,8,1521,A,67.10444706445703,82.27281825001567,3.3552223532228513,1.2923384070218875,A,692.7017001435161,Correct,sub_005_day_06_data.csv,1,300,60.0,Training at home,,,,,,,,,,,,,
5,8,1522,B,61.767950604378946,54.13051493738366,3.0883975302189475,0.8502801403115854,B,587.3432999942452,Correct,sub_005_day_06_data.csv,1,300,60.0,Training at home,,,,,,,,,,,,,
5,8,1523,B,59.5284605058079,35.04581976510854,2.976423025290395,0.5504984495654848,B,489.13019988685846,Correct,sub_005_day_06_data.csv,1,300,60.0,Training at home,,,,,,,,,,,,,
5,8,1524,B,31.45082345733116,14.990897609659608,1.572541172866558,0.235476469006117,B,550.1081999391317,Correct,sub_005_day_06_data.csv,1,300,60.0,Training at home,,,,,,,,,,,,,
5,8,1525,B,45.76233153131305,32.43092204568162,2.2881165765656526,0.5094237322392833,B,471.905600046739,Correct,sub_005_day_06_data.csv,1,300,61.0,Training at home,,,,,,,,,,,,,
5,8,1526,A,34.50620526167169,43.36459757493367,1.7253102630835844,0.6811695058364469,A,602.6759999804199,Correct,sub_005_day_06_data.csv,1,300,61.0,Training at home,,,,,,,,,,,,,
5,8,1527,B,73.55850816696564,56.03943656234804,3.6779254083482815,0.8802654110779192,B,506.1029000207782,Correct,sub_005_day_06_data.csv,1,300,61.0,Training at home,,,,,,,,,,,,,
5,8,1528,A,13.54507395806943,40.094203110212455,0.6772536979034715,0.6297982697129024,A,781.225300161168,Correct,sub_005_day_06_data.csv,1,300,61.0,Training at home,,,,,,,,,,,,,
5,8,1529,A,61.11817411632671,83.59424541162807,3.0559087058163357,1.313095336337765,B,602.4532001465559,Incorrect,sub_005_day_06_data.csv,0,300,61.0,Training at home,,,,,,,,,,,,,
5,8,1530,A,32.3431227651363,42.77279079919731,1.617156138256815,0.6718734267414568,A,708.6987998336554,Correct,sub_005_day_06_data.csv,1,300,61.0,Training at home,,,,,,,,,,,,,
5,8,1531,A,45.72994994872835,52.41291611108216,2.286497497436417,0.8233001610389691,B,506.86510000377893,Incorrect,sub_005_day_06_data.csv,0,300,61.0,Training at home,,,,,,,,,,,,,
5,8,1532,A,25.98726105411363,58.07145619615484,1.2993630527056814,0.9121843008455076,A,547.5147999823093,Correct,sub_005_day_06_data.csv,1,300,61.0,Training at home,,,,,,,,,,,,,
5,8,1533,A,31.064257525286713,42.74387294393786,1.5532128762643356,0.6714191861332535,A,546.9482999760658,Correct,sub_005_day_06_data.csv,1,300,61.0,Training at home,,,,,,,,,,,,,
5,8,1534,B,42.87289835705238,15.444277095165308,2.143644917852619,0.2425981373108821,B,571.7627999838442,Correct,sub_005_day_06_data.csv,1,300,61.0,Training at home,,,,,,,,,,,,,
5,8,1535,B,42.569299081876906,29.824046649787647,2.1284649540938454,0.4684750292764608,B,629.1716999839991,Correct,sub_005_day_06_data.csv,1,300,61.0,Training at home,,,,,,,,,,,,,
5,8,1536,A,44.25314885994395,58.186026231859486,2.2126574429971977,0.9139839627579638,A,1102.1215000655502,Correct,sub_005_day_06_data.csv,1,300,61.0,Training at home,,,,,,,,,,,,,
5,8,1537,B,78.94641539836167,52.46556056661032,3.947320769918083,0.8241270982126667,B,511.58290007151663,Correct,sub_005_day_06_data.csv,1,300,61.0,Training at home,,,,,,,,,,,,,
5,8,1538,B,59.78505163882222,42.68282698528379,2.989252581941111,0.6704602784570586,B,587.7308000344783,Correct,sub_005_day_06_data.csv,1,300,61.0,Training at home,,,,,,,,,,,,,
5,8,1539,B,40.80579977340191,18.020272562277924,2.040289988670095,0.2830617794866902,B,591.9669000431895,Correct,sub_005_day_06_data.csv,1,300,61.0,Training at home,,,,,,,,,,,,,
5,8,1540,B,64.73725103540173,40.52164666637628,3.2368625517700864,0.6365125373922452,B,473.9614001009613,Correct,sub_005_day_06_data.csv,1,300,61.0,Training at home,,,,,,,,,,,,,
5,8,1541,A,24.049668831631784,53.053850068181816,1.202483441581589,0.8333679280942716,A,474.30219990201294,Correct,sub_005_day_06_data.csv,1,300,61.0,Training at home,,,,,,,,,,,,,
5,8,1542,A,40.744862157601155,62.30727651098617,2.0372431078800575,0.9787204107605102,A,601.5719000715762,Correct,sub_005_day_06_data.csv,1,300,61.0,Training at home,,,,,,,,,,,,,
5,8,1543,B,56.926627488293235,38.88728268371508,2.8463313744146617,0.6108400079861442,B,618.8164998311549,Correct,sub_005_day_06_data.csv,1,300,61.0,Training at home,,,,,,,,,,,,,
5,8,1544,A,67.18923873747795,89.02800026319541,3.359461936873897,1.3984485579532244,A,521.9537999946624,Correct,sub_005_day_06_data.csv,1,300,61.0,Training at home,,,,,,,,,,,,,
5,8,1545,A,51.88641097917434,63.98229374325315,2.5943205489587173,1.0050315199181414,B,1205.9520999900997,Incorrect,sub_005_day_06_data.csv,0,300,61.0,Training at home,,,,,,,,,,,,,
5,8,1546,B,68.21920610189018,35.99550104833228,3.410960305094509,0.5654160082786219,B,789.6095998585224,Correct,sub_005_day_06_data.csv,1,300,61.0,Training at home,,,,,,,,,,,,,
5,8,1547,A,12.806794601613325,36.72138051643108,0.6403397300806661,0.5768180963004763,A,700.5203999578953,Correct,sub_005_day_06_data.csv,1,300,61.0,Training at home,,,,,,,,,,,,,
5,8,1548,A,47.73143126610595,54.48628274361883,2.3865715633052975,0.8558685279438463,B,463.8783999253064,Incorrect,sub_005_day_06_data.csv,0,300,61.0,Training at home,,,,,,,,,,,,,
5,8,1549,A,44.42264660503012,62.32748800809091,2.2211323302515056,0.9790378922146216,A,550.4858000203967,Correct,sub_005_day_06_data.csv,1,300,61.0,Training at home,,,,,,,,,,,,,
5,8,1550,A,11.773216081667696,31.31636352679083,0.5886608040833847,0.4919162879645671,A,492.57560004480183,Correct,sub_005_day_06_data.csv,1,300,62.0,Training at home,,,,,,,,,,,,,
5,8,1551,B,64.11404385682896,45.97215825818608,3.205702192841448,0.7221289732679237,B,505.354099906981,Correct,sub_005_day_06_data.csv,1,300,62.0,Training at home,,,,,,,,,,,,,
5,8,1552,B,61.47779410269869,50.12820713415307,3.0738897051349348,0.7874120363514139,B,491.24010000377893,Correct,sub_005_day_06_data.csv,1,300,62.0,Training at home,,,,,,,,,,,,,
5,8,1553,A,50.95878367121864,73.89301086768036,2.547939183560932,1.1607087004676766,A,507.45309982448816,Correct,sub_005_day_06_data.csv,1,300,62.0,Training at home,,,,,,,,,,,,,
5,8,1554,B,46.26156888000695,25.09477024483146,2.3130784440003476,0.3941877292234312,B,461.1639999784529,Correct,sub_005_day_06_data.csv,1,300,62.0,Training at home,,,,,,,,,,,,,
5,8,1555,A,13.127374903782297,32.39758728166715,0.6563687451891148,0.5089001109905982,A,423.2648999895901,Correct,sub_005_day_06_data.csv,1,300,62.0,Training at home,,,,,,,,,,,,,
5,8,1556,A,64.22715865749507,87.03447615575885,3.2113579328747535,1.3671343544998402,B,408.72809989377856,Incorrect,sub_005_day_06_data.csv,0,300,62.0,Training at home,,,,,,,,,,,,,
5,8,1557,A,12.675959720726755,35.16006456283414,0.6337979860363377,0.5522930026517128,A,526.1603000108153,Correct,sub_005_day_06_data.csv,1,300,62.0,Training at home,,,,,,,,,,,,,
5,8,1558,B,35.689844722180716,19.193543123666593,1.7844922361090356,0.3014914703683493,B,550.6628998555243,Correct,sub_005_day_06_data.csv,1,300,62.0,Training at home,,,,,,,,,,,,,
5,8,1559,B,61.988307069424735,34.21277358560668,3.099415353471237,0.5374129907773644,B,513.4415000211447,Correct,sub_005_day_06_data.csv,1,300,62.0,Training at home,,,,,,,,,,,,,
5,8,1560,B,50.06420010958243,35.951585775524904,2.5032100054791213,0.5647261887864617,B,614.2263999208808,Correct,sub_005_day_06_data.csv,1,300,62.0,Training at home,,,,,,,,,,,,,
5,8,1561,B,53.02279267712103,44.76377941187425,2.651139633856052,0.703147802736291,B,646.2888000532985,Correct,sub_005_day_06_data.csv,1,300,62.0,Training at home,,,,,,,,,,,,,
5,8,1562,B,48.386094961139264,19.53894619465624,2.4193047480569634,0.3069170491200914,B,507.41640012711287,Correct,sub_005_day_06_data.csv,1,300,62.0,Training at home,,,,,,,,,,,,,
5,8,1563,B,45.03162310929655,36.10033736721454,2.2515811554648275,0.5670627733247715,B,477.043499937281,Correct,sub_005_day_06_data.csv,1,300,62.0,Training at home,,,,,,,,,,,,,
5,8,1564,A,49.96806326614416,79.4300359879234,2.498403163307208,1.2476840876701651,A,467.2123999334872,Correct,sub_005_day_06_data.csv,1,300,62.0,Training at home,,,,,,,,,,,,,
5,8,1565,A,26.388666048314768,58.56844012984688,1.3194333024157383,0.9199909062207028,A,476.88319999724627,Correct,sub_005_day_06_data.csv,1,300,62.0,Training at home,,,,,,,,,,,,,
5,8,1566,A,52.23883109708176,59.48540044081331,2.611941554854088,0.9343944851035308,A,851.6253000125289,Correct,sub_005_day_06_data.csv,1,300,62.0,Training at home,,,,,,,,,,,,,
5,8,1567,A,36.4855319610494,64.09068372718407,1.82427659805247,1.006734105804342,A,584.4496998470277,Correct,sub_005_day_06_data.csv,1,300,62.0,Training at home,,,,,,,,,,,,,
5,8,1568,A,23.266644855348595,53.26892992020272,1.1633322427674295,0.8367463945094921,A,459.946199785918,Correct,sub_005_day_06_data.csv,1,300,62.0,Training at home,,,,,,,,,,,,,
5,8,1569,A,26.26924929939102,48.50580481338892,1.313462464969551,0.7619274002910154,A,1103.41880004853,Correct,sub_005_day_06_data.csv,1,300,62.0,Training at home,,,,,,,,,,,,,
5,8,1570,A,66.4851659445398,81.56554276467087,3.32425829722699,1.2812285496777704,B,548.0706999078393,Incorrect,sub_005_day_06_data.csv,0,300,62.0,Training at home,,,,,,,,,,,,,
5,8,1571,B,33.007751351338406,14.151078499693291,1.6503875675669204,0.2222846212750445,B,649.692399892956,Correct,sub_005_day_06_data.csv,1,300,62.0,Training at home,,,,,,,,,,,,,
5,8,1572,A,38.79446038189509,64.63697049283692,1.9397230190947543,1.0153151582529836,A,693.4072999283671,Correct,sub_005_day_06_data.csv,1,300,62.0,Training at home,,,,,,,,,,,,,
5,8,1573,B,31.41574112695747,10.534012982630198,1.570787056347874,0.1654678889952526,B,561.5432001650333,Correct,sub_005_day_06_data.csv,1,300,62.0,Training at home,,,,,,,,,,,,,
5,8,1574,B,54.96975834167758,44.66218138557707,2.7484879170838794,0.7015519046711187,B,433.6798000149429,Correct,sub_005_day_06_data.csv,1,300,62.0,Training at home,,,,,,,,,,,,,
5,8,1575,A,44.676753095447474,57.76241051760837,2.233837654772374,0.9073298226787812,A,658.0719999037683,Correct,sub_005_day_06_data.csv,1,300,63.0,Training at home,,,,,,,,,,,,,
5,8,1576,B,42.917646042165245,23.765050370405408,2.1458823021082623,0.3733005382792851,B,658.8828000240028,Correct,sub_005_day_06_data.csv,1,300,63.0,Training at home,,,,,,,,,,,,,
5,8,1577,B,48.39956823866753,29.08998756881163,2.4199784119333767,0.456944456195985,B,566.7936000972986,Correct,sub_005_day_06_data.csv,1,300,63.0,Training at home,,,,,,,,,,,,,
5,8,1578,A,54.67346133454383,65.98200342044106,2.733673066727192,1.0364428860739712,A,494.7191998362541,Correct,sub_005_day_06_data.csv,1,300,63.0,Training at home,,,,,,,,,,,,,
5,8,1579,A,43.34995646709629,63.43616484712212,2.1674978233548146,0.9964529472781496,A,748.8529998809099,Correct,sub_005_day_06_data.csv,1,300,63.0,Training at home,,,,,,,,,,,,,
5,8,1580,A,25.21995412973095,44.52996177268409,1.2609977064865476,0.6994750038484933,A,522.6700000930578,Correct,sub_005_day_06_data.csv,1,300,63.0,Training at home,,,,,,,,,,,,,
5,8,1581,B,56.03087708875924,34.71146522086573,2.801543854437962,0.545246420666047,B,445.4256999306381,Correct,sub_005_day_06_data.csv,1,300,63.0,Training at home,,,,,,,,,,,,,
5,8,1582,B,61.510478965237255,48.46432519141613,3.075523948261863,0.7612758399126984,B,556.9599999580532,Correct,sub_005_day_06_data.csv,1,300,63.0,Training at home,,,,,,,,,,,,,
5,8,1583,B,74.77951535877858,43.50500182524352,3.738975767938929,0.6833749706429779,B,515.5152999795973,Correct,sub_005_day_06_data.csv,1,300,63.0,Training at home,,,,,,,,,,,,,
5,8,1584,A,59.17926239464568,84.77985148980427,2.958963119732283,1.331718793064014,A,437.29400006122887,Correct,sub_005_day_06_data.csv,1,300,63.0,Training at home,,,,,,,,,,,,,
5,8,1585,A,68.0024928578093,82.83941948550051,3.4001246428904652,1.301238558416458,A,541.3974998518825,Correct,sub_005_day_06_data.csv,1,300,63.0,Training at home,,,,,,,,,,,,,
5,8,1586,B,36.94073910009581,18.0013071832949,1.8470369550047905,0.2827638720102621,B,539.712900063023,Correct,sub_005_day_06_data.csv,1,300,63.0,Training at home,,,,,,,,,,,,,
5,8,1587,B,64.3243109549711,51.40561498586749,3.216215547748555,0.8074775119643334,B,563.5800000745803,Correct,sub_005_day_06_data.csv,1,300,63.0,Training at home,,,,,,,,,,,,,
5,8,1588,B,83.35267595760781,64.68576945338867,4.167633797880391,1.0160816905328445,B,672.638599993661,Correct,sub_005_day_06_data.csv,1,300,63.0,Training at home,,,,,,,,,,,,,
5,8,1589,A,38.78018168343334,66.77251739741746,1.939009084171667,1.0488602505871167,A,505.8290001470595,Correct,sub_005_day_06_data.csv,1,300,63.0,Training at home,,,,,,,,,,,,,
5,8,1590,B,64.31205823280558,36.902981310721906,3.2156029116402793,0.5796706749066268,A,460.6228000484407,Incorrect,sub_005_day_06_data.csv,0,300,63.0,Training at home,,,,,,,,,,,,,
5,8,1591,B,53.95224325542189,34.18719273067657,2.6976121627710943,0.5370111676477595,B,428.10550006106496,Correct,sub_005_day_06_data.csv,1,300,63.0,Training at home,,,,,,,,,,,,,
5,8,1592,A,39.9067223648303,66.63802353610834,1.995336118241515,1.0467476259539084,A,498.6744001507759,Correct,sub_005_day_06_data.csv,1,300,63.0,Training at home,,,,,,,,,,,,,
5,8,1593,B,46.903023929390066,39.51842529663937,2.3451511964695033,0.6207539729667965,B,456.8022000603378,Correct,sub_005_day_06_data.csv,1,300,63.0,Training at home,,,,,,,,,,,,,
5,8,1594,B,84.55644367221561,54.63789741708344,4.2278221836107805,0.8582500856655102,B,520.0483999215066,Correct,sub_005_day_06_data.csv,1,300,63.0,Training at home,,,,,,,,,,,,,
5,8,1595,A,20.70126688187039,50.4589393392144,1.0350633440935195,0.7926071656800449,A,624.5634998194873,Correct,sub_005_day_06_data.csv,1,300,63.0,Training at home,,,,,,,,,,,,,
5,8,1596,A,28.62607563572626,52.3492609725546,1.431303781786313,0.8223002684611621,A,534.257700201124,Correct,sub_005_day_06_data.csv,1,300,63.0,Training at home,,,,,,,,,,,,,
5,8,1597,A,53.26740768289405,78.39053046417035,2.6633703841447027,1.2313555730862222,A,567.3311999998987,Correct,sub_005_day_06_data.csv,1,300,63.0,Training at home,,,,,,,,,,,,,
5,8,1598,A,59.82621446674348,73.83756917714393,2.9913107233371736,1.1598378244292176,A,703.751299995929,Correct,sub_005_day_06_data.csv,1,300,63.0,Training at home,,,,,,,,,,,,,
5,8,1599,B,46.537534757845094,31.04370476211326,2.326876737892255,0.4876333741043274,B,536.6546998266131,Correct,sub_005_day_06_data.csv,1,300,63.0,Training at home,,,,,,,,,,,,,
5,8,1600,A,47.912774900243434,57.595464349534375,2.395638745012172,0.9047074384029502,A,787.737000035122,Correct,sub_005_day_06_data.csv,1,300,64.0,Training at home,,,,,,,,,,,,,
5,8,1601,A,13.556670375156958,41.1176348904319,0.6778335187578479,0.645874298523841,A,474.30789982900023,Correct,sub_005_day_06_data.csv,1,300,64.0,Training at home,,,,,,,,,,,,,
5,8,1602,A,28.753918578835428,45.72374970750544,1.4376959289417717,0.7182269808783877,A,766.5774999186397,Correct,sub_005_day_06_data.csv,1,300,64.0,Training at home,,,,,,,,,,,,,
5,8,1603,A,41.75687843637393,60.96193312539455,2.087843921818697,0.9575878062768588,A,646.051499992609,Correct,sub_005_day_06_data.csv,1,300,64.0,Training at home,,,,,,,,,,,,,
5,8,1604,A,30.31867800443324,40.67963578232052,1.515933900221662,0.638994224622233,A,504.0482999756932,Correct,sub_005_day_06_data.csv,1,300,64.0,Training at home,,,,,,,,,,,,,
5,8,1605,A,17.241620339720782,32.03310956130315,0.8620810169860391,0.5031749083471346,A,577.0713000092655,Correct,sub_005_day_06_data.csv,1,300,64.0,Training at home,,,,,,,,,,,,,
5,8,1606,A,15.01738347112784,37.86001687182349,0.750869173556392,0.5947037543465316,A,481.76910006441176,Correct,sub_005_day_06_data.csv,1,300,64.0,Training at home,,,,,,,,,,,,,
5,8,1607,A,34.15746562200114,57.020974696132576,1.7078732811000572,0.8956833760294979,A,833.4896001033485,Correct,sub_005_day_06_data.csv,1,300,64.0,Training at home,,,,,,,,,,,,,
5,8,1608,B,52.30979327836269,31.173503771778144,2.6154896639181344,0.4896722521803596,B,480.68200005218387,Correct,sub_005_day_06_data.csv,1,300,64.0,Training at home,,,,,,,,,,,,,
5,8,1609,A,58.92737147028264,68.79399088964837,2.946368573514132,1.0806134819502122,B,754.6133999712765,Incorrect,sub_005_day_06_data.csv,0,300,64.0,Training at home,,,,,,,,,,,,,
5,8,1610,B,64.81363107861522,36.45999114980489,3.240681553930761,0.5727122017308797,B,687.7596001140773,Correct,sub_005_day_06_data.csv,1,300,64.0,Training at home,,,,,,,,,,,,,
5,8,1611,B,70.1330994062555,44.079322441230886,3.5066549703127747,0.6923963777829333,B,644.0435000695288,Correct,sub_005_day_06_data.csv,1,300,64.0,Training at home,,,,,,,,,,,,,
5,8,1612,A,51.206170955438154,70.74630005708879,2.560308547771908,1.1112802826400463,A,481.1094000469893,Correct,sub_005_day_06_data.csv,1,300,64.0,Training at home,,,,,,,,,,,,,
5,8,1613,A,26.245346571749725,57.308440822516424,1.3122673285874862,0.9001988833835151,A,488.0190000403673,Correct,sub_005_day_06_data.csv,1,300,64.0,Training at home,,,,,,,,,,,,,
5,8,1614,B,82.10852831221399,53.81195610532963,4.105426415610699,0.8452762298789998,B,759.2905999626964,Correct,sub_005_day_06_data.csv,1,300,64.0,Training at home,,,,,,,,,,,,,
5,8,1615,B,33.086316428336275,12.318289540318968,1.6543158214168137,0.1934952396232902,B,641.2447998300195,Correct,sub_005_day_06_data.csv,1,300,64.0,Training at home,,,,,,,,,,,,,
5,8,1616,A,53.848049421664655,74.97633760971974,2.692402471083233,1.1777255571388183,A,764.7931999526918,Correct,sub_005_day_06_data.csv,1,300,64.0,Training at home,,,,,,,,,,,,,
5,8,1617,A,18.885923542412357,48.944957294493705,0.944296177120618,0.7688255913332379,A,444.6201999671757,Correct,sub_005_day_06_data.csv,1,300,64.0,Training at home,,,,,,,,,,,,,
5,8,1618,B,68.04861780581025,59.5545503767228,3.4024308902905123,0.935480689756778,B,629.872800083831,Correct,sub_005_day_06_data.csv,1,300,64.0,Training at home,,,,,,,,,,,,,
5,8,1619,A,37.80675243846967,70.19573738476528,1.890337621923484,1.102632064406485,A,487.8171000164002,Correct,sub_005_day_06_data.csv,1,300,64.0,Training at home,,,,,,,,,,,,,
5,8,1620,A,61.96750935737079,87.45036658770096,3.0983754678685393,1.373667146128278,A,737.3522000852972,Correct,sub_005_day_06_data.csv,1,300,64.0,Training at home,,,,,,,,,,,,,
5,8,1621,B,34.29086159658634,22.157695101151017,1.714543079829317,0.3480522607512929,B,606.8245000205934,Correct,sub_005_day_06_data.csv,1,300,64.0,Training at home,,,,,,,,,,,,,
5,8,1622,B,73.0521426490437,54.40164183025507,3.6526071324521854,0.8545389915857626,A,635.2061999496073,Incorrect,sub_005_day_06_data.csv,0,300,64.0,Training at home,,,,,,,,,,,,,
5,8,1623,A,23.092819469361103,34.59687258403917,1.1546409734680552,0.5434464037359978,A,520.0682000722736,Correct,sub_005_day_06_data.csv,1,300,64.0,Training at home,,,,,,,,,,,,,
5,8,1624,B,86.66847578200407,67.91756707536969,4.333423789100204,1.066846648868367,B,593.8722998835146,Correct,sub_005_day_06_data.csv,1,300,64.0,Training at home,,,,,,,,,,,,,
5,8,1625,A,51.35753025284377,79.37876042104648,2.5678765126421887,1.2468786529491191,A,570.8763001020998,Correct,sub_005_day_06_data.csv,1,300,65.0,Training at home,,,,,,,,,,,,,
5,8,1626,A,21.119016052509753,37.42432377761865,1.0559508026254876,0.5878599032266629,A,639.3543998710811,Correct,sub_005_day_06_data.csv,1,300,65.0,Training at home,,,,,,,,,,,,,
5,8,1627,A,56.675112844900994,82.20265391656886,2.8337556422450496,1.291236268249385,A,586.2349001690745,Correct,sub_005_day_06_data.csv,1,300,65.0,Training at home,,,,,,,,,,,,,
5,8,1628,B,46.236757944762935,21.579125935506013,2.3118378972381466,0.3389641175493733,B,994.076499948278,Correct,sub_005_day_06_data.csv,1,300,65.0,Training at home,,,,,,,,,,,,,
5,8,1629,B,40.90826031628045,20.741774224055536,2.0454130158140225,0.325811027623555,B,637.6365998294204,Correct,sub_005_day_06_data.csv,1,300,65.0,Training at home,,,,,,,,,,,,,
5,8,1630,B,46.994739700104496,30.08353493483265,2.349736985005225,0.4725510617264107,B,2840.3352999594063,Correct,sub_005_day_06_data.csv,1,300,65.0,Training at home,,,,,,,,,,,,,
5,8,1631,A,28.2274454018068,56.97590159628797,1.4113722700903402,0.8949753694327662,A,467.4311999697238,Correct,sub_005_day_06_data.csv,1,300,65.0,Training at home,,,,,,,,,,,,,
5,8,1632,B,65.46825522495801,38.13012220290167,3.2734127612479007,0.5989465589655847,B,385.43929997831583,Correct,sub_005_day_06_data.csv,1,300,65.0,Training at home,,,,,,,,,,,,,
5,8,1633,B,61.34508869023606,42.538852647010785,3.067254434511803,0.668198734839939,A,649.2758998647332,Incorrect,sub_005_day_06_data.csv,0,300,65.0,Training at home,,,,,,,,,,,,,
5,8,1634,B,80.91054123151952,62.69122064293981,4.045527061575976,0.9847513910821826,B,639.5238998811692,Correct,sub_005_day_06_data.csv,1,300,65.0,Training at home,,,,,,,,,,,,,
5,8,1635,A,54.28013790985782,81.61884627704282,2.714006895492891,1.2820658392921618,A,573.488200083375,Correct,sub_005_day_06_data.csv,1,300,65.0,Training at home,,,,,,,,,,,,,
5,8,1636,A,48.659644411696426,62.96452857996475,2.4329822205848215,0.989044502117809,B,651.9687999971211,Incorrect,sub_005_day_06_data.csv,0,300,65.0,Training at home,,,,,,,,,,,,,
5,8,1637,A,28.403551108110825,53.52698646899258,1.4201775554055411,0.8407999372989368,A,813.1365000735968,Correct,sub_005_day_06_data.csv,1,300,65.0,Training at home,,,,,,,,,,,,,
5,8,1638,A,24.433978910577594,36.46685242366593,1.2216989455288796,0.57281997836866,A,769.9988000094891,Correct,sub_005_day_06_data.csv,1,300,65.0,Training at home,,,,,,,,,,,,,
5,8,1639,A,25.15238081041838,39.37483999510577,1.2576190405209189,0.6184985403244894,A,505.5402999278158,Correct,sub_005_day_06_data.csv,1,300,65.0,Training at home,,,,,,,,,,,,,
5,8,1640,B,62.29763976858533,41.103131963490874,3.1148819884292664,0.6456464870801736,A,527.9031998943537,Incorrect,sub_005_day_06_data.csv,0,300,65.0,Training at home,,,,,,,,,,,,,
5,8,1641,B,76.61720615124821,44.7369405135838,3.83086030756241,0.7027262183077922,B,644.5762999355793,Correct,sub_005_day_06_data.csv,1,300,65.0,Training at home,,,,,,,,,,,,,
5,8,1642,A,37.84388268696249,64.6927398818479,1.8921941343481248,1.016191181767044,A,437.0007000397891,Correct,sub_005_day_06_data.csv,1,300,65.0,Training at home,,,,,,,,,,,,,
5,8,1643,B,63.29858563073376,48.64214151735921,3.164929281536688,0.7640689722290538,B,612.2489001136273,Correct,sub_005_day_06_data.csv,1,300,65.0,Training at home,,,,,,,,,,,,,
5,8,1644,A,60.70776752637822,87.51730418507684,3.0353883763189113,1.3747185994491031,A,915.1488000061364,Correct,sub_005_day_06_data.csv,1,300,65.0,Training at home,,,,,,,,,,,,,
5,8,1645,B,31.036300081369244,14.795801020330009,1.5518150040684622,0.2324118989472255,A,609.3955999240279,Incorrect,sub_005_day_06_data.csv,0,300,65.0,Training at home,,,,,,,,,,,,,
5,8,1646,A,67.21263765775763,88.79446875285763,3.360631882887881,1.3947802535669296,A,550.6259000394493,Correct,sub_005_day_06_data.csv,1,300,65.0,Training at home,,,,,,,,,,,,,
5,8,1647,A,27.37655994421863,48.98487134426519,1.3688279972109316,0.7694525597609234,A,445.7052000798285,Correct,sub_005_day_06_data.csv,1,300,65.0,Training at home,,,,,,,,,,,,,
5,8,1648,A,59.04997637505012,79.83020487261946,2.952498818752506,1.253969925811947,A,767.1251001302153,Correct,sub_005_day_06_data.csv,1,300,65.0,Training at home,,,,,,,,,,,,,
5,8,1649,B,55.63684406728318,23.572792332479384,2.7818422033641586,0.3702805560815752,B,837.5810999423265,Correct,sub_005_day_06_data.csv,1,300,65.0,Training at home,,,,,,,,,,,,,
5,8,1650,B,74.85176504864641,52.31668701692004,3.742588252432321,0.8217885979625625,B,669.3462000694126,Correct,sub_005_day_06_data.csv,1,300,66.0,Training at home,,,,,,,,,,,,,
5,8,1651,B,67.57155469276235,56.50157683592798,3.3785777346381174,0.8875246935199529,B,522.5639001000673,Correct,sub_005_day_06_data.csv,1,300,66.0,Training at home,,,,,,,,,,,,,
5,8,1652,B,57.586721113646746,44.78773338763942,2.879336055682337,0.7035240709077315,A,720.3079001046717,Incorrect,sub_005_day_06_data.csv,0,300,66.0,Training at home,,,,,,,,,,,,,
5,8,1653,A,46.38952168354758,71.16659690250356,2.3194760841773787,1.1178822900494565,A,1113.5068000294268,Correct,sub_005_day_06_data.csv,1,300,66.0,Training at home,,,,,,,,,,,,,
5,8,1654,A,31.575075316834297,45.17502023206927,1.5787537658417148,0.7096075584341954,A,681.6414000932127,Correct,sub_005_day_06_data.csv,1,300,66.0,Training at home,,,,,,,,,,,,,
5,8,1655,A,25.975337317833304,36.48448530926464,1.2987668658916651,0.5730969550879527,A,692.409300012514,Correct,sub_005_day_06_data.csv,1,300,66.0,Training at home,,,,,,,,,,,,,
5,8,1656,A,31.046289466486108,58.63441092429711,1.5523144733243055,0.9210271730366846,A,513.7631001416594,Correct,sub_005_day_06_data.csv,1,300,66.0,Training at home,,,,,,,,,,,,,
5,8,1657,A,17.846113577779416,46.95068721712268,0.8923056788889708,0.737499670211524,A,940.584799973294,Correct,sub_005_day_06_data.csv,1,300,66.0,Training at home,,,,,,,,,,,,,
5,8,1658,B,55.57002944872541,39.04275741499277,2.77850147243627,0.6132821993541484,A,707.1936000138521,Incorrect,sub_005_day_06_data.csv,0,300,66.0,Training at home,,,,,,,,,,,,,
5,8,1659,B,70.07125151860258,46.860834097091974,3.503562575930129,0.7360882607025712,B,464.8042998742312,Correct,sub_005_day_06_data.csv,1,300,66.0,Training at home,,,,,,,,,,,,,
5,8,1660,B,42.796027162806425,30.797377042527845,2.1398013581403212,0.4837640673332022,A,623.2018999289721,Incorrect,sub_005_day_06_data.csv,0,300,66.0,Training at home,,,,,,,,,,,,,
5,8,1661,A,35.07466139218254,67.50722247139517,1.7537330696091271,1.0604009709019344,A,447.5666000507772,Correct,sub_005_day_06_data.csv,1,300,66.0,Training at home,,,,,,,,,,,,,
5,8,1662,B,64.8234885450881,37.6138086388836,3.2411744272544047,0.5908363244672451,B,478.96129987202585,Correct,sub_005_day_06_data.csv,1,300,66.0,Training at home,,,,,,,,,,,,,
5,8,1663,A,14.767484747442836,33.66697304350168,0.7383742373721418,0.5288395759103525,A,507.0605999790132,Correct,sub_005_day_06_data.csv,1,300,66.0,Training at home,,,,,,,,,,,,,
5,8,1664,B,48.79299694691855,33.96941926280571,2.4396498473459274,0.5335903900137101,B,383.65350011736155,Correct,sub_005_day_06_data.csv,1,300,66.0,Training at home,,,,,,,,,,,,,
5,8,1665,A,35.65477488724045,54.78309654334587,1.7827387443620224,0.8605308682073788,A,471.859899815172,Correct,sub_005_day_06_data.csv,1,300,66.0,Training at home,,,,,,,,,,,,,
5,8,1666,B,82.26701186358667,53.132025989001534,4.113350593179334,0.8345959125869459,B,529.2932000011206,Correct,sub_005_day_06_data.csv,1,300,66.0,Training at home,,,,,,,,,,,,,
5,8,1667,A,49.751794086670174,57.02308825252285,2.4875897043335087,0.8957165756956411,A,882.719699991867,Correct,sub_005_day_06_data.csv,1,300,66.0,Training at home,,,,,,,,,,,,,
5,8,1668,B,53.55169089019568,43.641970050082286,2.677584544509784,0.6855264624876214,B,529.9329000990838,Correct,sub_005_day_06_data.csv,1,300,66.0,Training at home,,,,,,,,,,,,,
5,8,1669,A,49.30253716809442,60.985332332671994,2.4651268584047212,0.957955360165272,A,632.7198999933898,Correct,sub_005_day_06_data.csv,1,300,66.0,Training at home,,,,,,,,,,,,,
5,8,1670,A,57.48730839692519,76.66764511228146,2.874365419846259,1.2042925532638642,A,553.9517998695374,Correct,sub_005_day_06_data.csv,1,300,66.0,Training at home,,,,,,,,,,,,,
5,8,1671,B,58.23758546538461,29.417136349605126,2.9118792732692302,0.4620832972278436,B,636.5791000425816,Correct,sub_005_day_06_data.csv,1,300,66.0,Training at home,,,,,,,,,,,,,
5,8,1672,A,18.80169402910313,44.75216705283725,0.9400847014551564,0.7029653962270834,A,530.3752000909299,Correct,sub_005_day_06_data.csv,1,300,66.0,Training at home,,,,,,,,,,,,,
5,8,1673,A,15.605113763451996,41.938350535700984,0.7802556881725998,0.6587660697331589,A,538.7885998934507,Correct,sub_005_day_06_data.csv,1,300,66.0,Training at home,,,,,,,,,,,,,
5,8,1674,B,62.2331536889771,42.806885089477966,3.111657684448855,0.6724089786008322,A,537.4736997764558,Incorrect,sub_005_day_06_data.csv,0,300,66.0,Training at home,,,,,,,,,,,,,
5,8,1675,B,36.4952446771,18.89858094596037,1.824762233855,0.2968582153155056,B,655.825300142169,Correct,sub_005_day_06_data.csv,1,300,67.0,Training at home,,,,,,,,,,,,,
5,8,1676,A,49.9108445194549,72.61360476005669,2.495542225972745,1.1406118363243347,A,1062.3746998608112,Correct,sub_005_day_06_data.csv,1,300,67.0,Training at home,,,,,,,,,,,,,
5,8,1677,A,23.552974382681544,50.22558989039118,1.1776487191340772,0.7889417211093335,A,635.3291999548674,Correct,sub_005_day_06_data.csv,1,300,67.0,Training at home,,,,,,,,,,,,,
5,8,1678,B,58.12860268558,50.344782848854095,2.906430134279,0.7908139997226673,B,550.3582998644561,Correct,sub_005_day_06_data.csv,1,300,67.0,Training at home,,,,,,,,,,,,,
5,8,1679,A,25.01345765491188,36.71594244228409,1.2506728827455942,0.5767326752315268,A,845.0163998641074,Correct,sub_005_day_06_data.csv,1,300,67.0,Training at home,,,,,,,,,,,,,
5,8,1680,A,46.38120125904049,56.085681908421506,2.3190600629520244,0.880991831275355,A,716.4740001317114,Correct,sub_005_day_06_data.csv,1,300,67.0,Training at home,,,,,,,,,,,,,
5,8,1681,B,65.37138571165787,48.96004582956392,3.268569285582893,0.7690626014878881,B,1002.665099920705,Correct,sub_005_day_06_data.csv,1,300,67.0,Training at home,,,,,,,,,,,,,
5,8,1682,A,13.009136141374558,32.79994339235829,0.6504568070687279,0.5152203059979694,A,476.9770000129938,Correct,sub_005_day_06_data.csv,1,300,67.0,Training at home,,,,,,,,,,,,,
5,8,1683,B,81.37133927010332,67.8076463770313,4.068566963505166,1.0651200185764806,B,629.6021000016481,Correct,sub_005_day_06_data.csv,1,300,67.0,Training at home,,,,,,,,,,,,,
5,8,1684,A,41.50401417655644,60.607236852625434,2.075200708827822,0.9520162502529232,A,551.6111999750137,Correct,sub_005_day_06_data.csv,1,300,67.0,Training at home,,,,,,,,,,,,,
5,8,1685,B,33.92555295302419,13.182553887939108,1.6962776476512094,0.2070710722495053,B,589.1811000183225,Correct,sub_005_day_06_data.csv,1,300,67.0,Training at home,,,,,,,,,,,,,
5,8,1686,A,48.210820122420984,60.83325694796128,2.4105410061210493,0.9555665656082768,A,812.6201000995934,Correct,sub_005_day_06_data.csv,1,300,67.0,Training at home,,,,,,,,,,,,,
5,8,1687,B,75.85173334498586,51.0014149416523,3.792586667249293,0.8011283525168978,B,564.0892998781055,Correct,sub_005_day_06_data.csv,1,300,67.0,Training at home,,,,,,,,,,,,,
5,8,1688,B,62.03893527650885,30.21686600026212,3.1019467638254423,0.4746454212046534,B,558.3460999187082,Correct,sub_005_day_06_data.csv,1,300,67.0,Training at home,,,,,,,,,,,,,
5,8,1689,B,88.65286521403355,67.53972156979079,4.432643260701678,1.060911465545774,B,504.17599990032613,Correct,sub_005_day_06_data.csv,1,300,67.0,Training at home,,,,,,,,,,,,,
5,8,1690,A,52.55398240981216,66.24048174409079,2.6276991204906084,1.040503054087422,A,622.4604998715222,Correct,sub_005_day_06_data.csv,1,300,67.0,Training at home,,,,,,,,,,,,,
5,8,1691,B,46.50746925485743,18.43803118625815,2.3253734627428715,0.2896239166070406,B,506.7871999926865,Correct,sub_005_day_06_data.csv,1,300,67.0,Training at home,,,,,,,,,,,,,
5,8,1692,A,50.42295583783575,62.31841580700299,2.5211477918917877,0.9788953864131732,A,594.5220999419689,Correct,sub_005_day_06_data.csv,1,300,67.0,Training at home,,,,,,,,,,,,,
5,8,1693,B,82.37587936576305,66.09051143816112,4.118793968288153,1.0381473260305958,B,460.2676001377404,Correct,sub_005_day_06_data.csv,1,300,67.0,Training at home,,,,,,,,,,,,,
5,8,1694,A,60.18801689722695,78.21151980279738,3.009400844861348,1.2285436801928045,A,533.6847000289708,Correct,sub_005_day_06_data.csv,1,300,67.0,Training at home,,,,,,,,,,,,,
5,8,1695,A,33.03948569756213,56.371432354540545,1.6519742848781065,0.8854803887867928,A,740.7674000132829,Correct,sub_005_day_06_data.csv,1,300,67.0,Training at home,,,,,,,,,,,,,
5,8,1696,A,14.43157620120896,34.32568910423343,0.7215788100604479,0.5391866635963348,A,638.5630001313984,Correct,sub_005_day_06_data.csv,1,300,67.0,Training at home,,,,,,,,,,,,,
5,8,1697,A,40.276821104958394,72.21020463407712,2.01384105524792,1.1342752419631614,A,579.0305999107659,Correct,sub_005_day_06_data.csv,1,300,67.0,Training at home,,,,,,,,,,,,,
5,8,1698,A,51.55491321630501,63.406280415046446,2.5777456608152507,0.9959835237168212,A,1180.5435998830944,Correct,sub_005_day_06_data.csv,1,300,67.0,Training at home,,,,,,,,,,,,,
5,8,1699,B,53.63469897347492,37.604207780233835,2.681734948673746,0.5906855145322338,B,498.1158999726176,Correct,sub_005_day_06_data.csv,1,300,67.0,Training at home,,,,,,,,,,,,,
5,8,1700,A,39.61559687961386,47.88006404309655,1.980779843980693,0.7520982872560047,B,405.8970999903977,Incorrect,sub_005_day_06_data.csv,0,300,68.0,Training at home,,,,,,,,,,,,,
5,8,1701,A,53.13104650865107,73.29899982005472,2.656552325432554,1.151377996750817,B,703.0692999251187,Incorrect,sub_005_day_06_data.csv,0,300,68.0,Training at home,,,,,,,,,,,,,
5,8,1702,A,50.331828573150155,81.48072075928097,2.5165914286575077,1.2798961687327923,A,692.7817000541836,Correct,sub_005_day_06_data.csv,1,300,68.0,Training at home,,,,,,,,,,,,,
5,8,1703,B,58.355900139971254,50.7680904975014,2.9177950069985625,0.797463300718661,A,1038.5225000791252,Incorrect,sub_005_day_06_data.csv,0,300,68.0,Training at home,,,,,,,,,,,,,
5,8,1704,B,56.004150728260655,30.718548244217033,2.8002075364130325,0.4825258274648794,B,556.1271999031305,Correct,sub_005_day_06_data.csv,1,300,68.0,Training at home,,,,,,,,,,,,,
5,8,1705,A,33.5719190355415,54.9588762382988,1.678595951777075,0.8632920091989508,A,469.1655000206083,Correct,sub_005_day_06_data.csv,1,300,68.0,Training at home,,,,,,,,,,,,,
5,8,1706,B,38.37264487851887,22.344373573970504,1.9186322439259436,0.3509845993452582,B,570.2251999173313,Correct,sub_005_day_06_data.csv,1,300,68.0,Training at home,,,,,,,,,,,,,
5,8,1707,A,17.962429766364476,38.81156028699161,0.8981214883182238,0.609650563359851,A,539.8881000000983,Correct,sub_005_day_06_data.csv,1,300,68.0,Training at home,,,,,,,,,,,,,
5,8,1708,A,47.7609455175761,69.28328765237833,2.388047275878805,1.088299337526301,A,652.150799985975,Correct,sub_005_day_06_data.csv,1,300,68.0,Training at home,,,,,,,,,,,,,
5,8,1709,B,74.73127612810053,56.57532104176963,3.7365638064050266,0.8886830647965376,A,554.2377999518067,Incorrect,sub_005_day_06_data.csv,0,300,68.0,Training at home,,,,,,,,,,,,,
5,8,1710,B,81.63374844820162,53.56300085640011,4.081687422410081,0.841365649973452,B,704.0212999563664,Correct,sub_005_day_06_data.csv,1,300,68.0,Training at home,,,,,,,,,,,,,
5,8,1711,B,69.99612689266773,36.741256076389675,3.4998063446333867,0.5771303008662356,B,485.0956001318991,Correct,sub_005_day_06_data.csv,1,300,68.0,Training at home,,,,,,,,,,,,,
5,8,1712,A,35.43967413460219,49.75198579563191,1.7719837067301096,0.7815023653853046,A,486.56099988147616,Correct,sub_005_day_06_data.csv,1,300,68.0,Training at home,,,,,,,,,,,,,
5,8,1713,A,51.157478393046915,66.97407413073438,2.5578739196523457,1.0520262963504667,A,548.7060002051294,Correct,sub_005_day_06_data.csv,1,300,68.0,Training at home,,,,,,,,,,,,,
5,8,1714,A,46.76311686899715,69.97308075228727,2.3381558434498575,1.0991345822021552,A,549.2590998765081,Correct,sub_005_day_06_data.csv,1,300,68.0,Training at home,,,,,,,,,,,,,
5,8,1715,A,57.95324824815695,71.179348040938,2.897662412407848,1.118082584463609,A,558.4163998719305,Correct,sub_005_day_06_data.csv,1,300,68.0,Training at home,,,,,,,,,,,,,
5,8,1716,B,66.11540642686785,57.521747918075974,3.305770321343392,0.9035495034053572,A,591.8331001885235,Incorrect,sub_005_day_06_data.csv,0,300,68.0,Training at home,,,,,,,,,,,,,
5,8,1717,A,56.019605139708126,69.9729027394452,2.8009802569854063,1.0991317859829708,A,624.9359000939876,Correct,sub_005_day_06_data.csv,1,300,68.0,Training at home,,,,,,,,,,,,,
5,8,1718,A,62.94264694571165,73.47166050663364,3.1471323472855826,1.154090144473418,A,693.0448000784963,Correct,sub_005_day_06_data.csv,1,300,68.0,Training at home,,,,,,,,,,,,,
5,8,1719,B,42.57631969626195,21.65800167151112,2.128815984813097,0.340203094713274,A,485.3409000206738,Incorrect,sub_005_day_06_data.csv,0,300,68.0,Training at home,,,,,,,,,,,,,
5,8,1720,B,35.643198181527325,17.465681118250032,1.7821599090763665,0.2743502774551813,B,684.1377001255751,Correct,sub_005_day_06_data.csv,1,300,68.0,Training at home,,,,,,,,,,,,,
5,8,1721,A,47.49445316247524,57.30686012388354,2.374722658123762,0.900174053827452,B,1289.1343999654057,Incorrect,sub_005_day_06_data.csv,0,300,68.0,Training at home,,,,,,,,,,,,,
5,8,1722,B,77.98076112093236,60.34588995448083,3.899038056046618,0.9479110227766754,B,666.367500089109,Correct,sub_005_day_06_data.csv,1,300,68.0,Training at home,,,,,,,,,,,,,
5,8,1723,A,50.89433714363918,67.68399405044671,2.544716857181959,1.0631776923724934,A,476.27780004404485,Correct,sub_005_day_06_data.csv,1,300,68.0,Training at home,,,,,,,,,,,,,
5,8,1724,A,18.01053982866314,34.594370965098726,0.9005269914331571,0.543407108397571,A,624.0289001725614,Correct,sub_005_day_06_data.csv,1,300,68.0,Training at home,,,,,,,,,,,,,
5,8,1725,B,77.42123083580009,55.80090710300696,3.871061541790005,0.8765185990922658,B,598.6069000791758,Correct,sub_005_day_06_data.csv,1,300,69.0,Training at home,,,,,,,,,,,,,
5,8,1726,A,56.26738058043692,68.84113950934247,2.813369029021846,1.0813540907365018,A,1170.096900081262,Correct,sub_005_day_06_data.csv,1,300,69.0,Training at home,,,,,,,,,,,,,
5,8,1727,A,43.45732117124821,60.532297206645616,2.172866058562411,0.9508391010465592,A,549.7334999963641,Correct,sub_005_day_06_data.csv,1,300,69.0,Training at home,,,,,,,,,,,,,
5,8,1728,A,52.24846387225256,61.00371149165035,2.612423193612628,0.9582440593193998,A,837.480999995023,Correct,sub_005_day_06_data.csv,1,300,69.0,Training at home,,,,,,,,,,,,,
5,8,1729,B,75.18990469818733,55.00384601238024,3.7594952349093664,0.86399839275839,B,516.7529999744147,Correct,sub_005_day_06_data.csv,1,300,69.0,Training at home,,,,,,,,,,,,,
5,8,1730,B,88.82124065602078,64.10512467753296,4.441062032801039,1.0069609437219764,B,422.2655000630766,Correct,sub_005_day_06_data.csv,1,300,69.0,Training at home,,,,,,,,,,,,,
5,8,1731,B,39.449603581027446,28.60925416801857,1.9724801790513724,0.4493931135946515,A,524.7307000681758,Incorrect,sub_005_day_06_data.csv,0,300,69.0,Training at home,,,,,,,,,,,,,
5,8,1732,A,42.87988304874966,53.63881253880535,2.1439941524374833,0.8425564970959548,A,813.4743999689817,Correct,sub_005_day_06_data.csv,1,300,69.0,Training at home,,,,,,,,,,,,,
5,8,1733,B,65.67151520201432,36.8261701715624,3.283575760100716,0.5784641283541401,B,496.8516998924315,Correct,sub_005_day_06_data.csv,1,300,69.0,Training at home,,,,,,,,,,,,,
5,8,1734,A,54.01242316913395,61.97885354608809,2.700621158456698,0.9735615548915402,B,1383.05709999986,Incorrect,sub_005_day_06_data.csv,0,300,69.0,Training at home,,,,,,,,,,,,,
5,8,1735,A,41.34492940369237,60.437215044140366,2.0672464701846183,0.9493455539304896,A,737.7834001090378,Correct,sub_005_day_06_data.csv,1,300,69.0,Training at home,,,,,,,,,,,,,
5,8,1736,B,71.26415210667216,41.46734227038824,3.563207605333608,0.6513674892027261,B,551.2470998801291,Correct,sub_005_day_06_data.csv,1,300,69.0,Training at home,,,,,,,,,,,,,
5,8,1737,B,34.67008023163808,11.15928903027476,1.733504011581904,0.1752897021839817,B,632.4096999596804,Correct,sub_005_day_06_data.csv,1,300,69.0,Training at home,,,,,,,,,,,,,
5,8,1738,B,52.7317948716344,26.23300734748389,2.6365897435817196,0.4120671158221123,B,536.6813000291586,Correct,sub_005_day_06_data.csv,1,300,69.0,Training at home,,,,,,,,,,,,,
5,8,1739,B,62.26814662935767,46.36753510808682,3.1134073314678834,0.7283395383031619,B,439.7693001665175,Correct,sub_005_day_06_data.csv,1,300,69.0,Training at home,,,,,,,,,,,,,
5,8,1740,B,66.25380671299506,55.56476478262502,3.3126903356497532,0.872809284197698,B,451.79100008681417,Correct,sub_005_day_06_data.csv,1,300,69.0,Training at home,,,,,,,,,,,,,
5,8,1741,A,61.815431457951334,84.60969715697526,3.0907715728975664,1.3290460150540533,A,691.3414001464844,Correct,sub_005_day_06_data.csv,1,300,69.0,Training at home,,,,,,,,,,,,,
5,8,1742,A,42.60403106000331,50.73768187613731,2.1302015530001652,0.7969856432112448,B,459.68440012075007,Incorrect,sub_005_day_06_data.csv,0,300,69.0,Training at home,,,,,,,,,,,,,
5,8,1743,B,50.47721899125776,42.71515399830418,2.523860949562888,0.6709680699901455,B,464.37739999964833,Correct,sub_005_day_06_data.csv,1,300,69.0,Training at home,,,,,,,,,,,,,
5,8,1744,A,50.39733553782457,65.39394903178408,2.5198667768912286,1.027205749337391,A,646.986500127241,Correct,sub_005_day_06_data.csv,1,300,69.0,Training at home,,,,,,,,,,,,,
5,8,1745,A,55.839443307280746,78.3525045542411,2.7919721653640375,1.2307582634898229,A,653.8221000228077,Correct,sub_005_day_06_data.csv,1,300,69.0,Training at home,,,,,,,,,,,,,
5,8,1746,B,79.81143721403257,61.69299762577643,3.9905718607016287,0.9690713405953588,B,552.5217999238521,Correct,sub_005_day_06_data.csv,1,300,69.0,Training at home,,,,,,,,,,,,,
5,8,1747,B,69.21427986839822,40.84871940534011,3.460713993419911,0.6416501839618366,B,565.724000101909,Correct,sub_005_day_06_data.csv,1,300,69.0,Training at home,,,,,,,,,,,,,
5,8,1748,B,46.2346035147089,23.813854314571763,2.311730175735445,0.3740671488415812,B,504.6814999077469,Correct,sub_005_day_06_data.csv,1,300,69.0,Training at home,,,,,,,,,,,,,
5,8,1749,A,37.9637648789882,68.3146430344655,1.89818824394941,1.07308390344843,A,470.1135999057442,Correct,sub_005_day_06_data.csv,1,300,69.0,Training at home,,,,,,,,,,,,,
5,8,1750,B,46.876338162701025,20.26195979786647,2.343816908135051,0.3182741202415453,B,604.18889997527,Correct,sub_005_day_06_data.csv,1,300,70.0,Training at home,,,,,,,,,,,,,
5,8,1751,B,46.043563262296416,37.30523055580706,2.302178163114821,0.5859891912729847,B,486.8324000854045,Correct,sub_005_day_06_data.csv,1,300,70.0,Training at home,,,,,,,,,,,,,
5,8,1752,A,38.335140578782855,56.80586765531042,1.916757028939143,0.8923044825335863,A,650.6298000458628,Correct,sub_005_day_06_data.csv,1,300,70.0,Training at home,,,,,,,,,,,,,
5,8,1753,B,63.606008998144496,55.1977938616791,3.180300449907225,0.8670449184510742,B,547.9605000000447,Correct,sub_005_day_06_data.csv,1,300,70.0,Training at home,,,,,,,,,,,,,
5,8,1754,A,32.831904834580584,42.09363086157622,1.6415952417290294,0.6612052073882423,A,588.697399944067,Correct,sub_005_day_06_data.csv,1,300,70.0,Training at home,,,,,,,,,,,,,
5,8,1755,B,46.62439520158975,27.72143051605942,2.3312197600794873,0.4354472122812609,B,549.9331001192331,Correct,sub_005_day_06_data.csv,1,300,70.0,Training at home,,,,,,,,,,,,,
5,8,1756,A,50.29558444981444,72.08277527622201,2.514779222490722,1.1322735862907152,A,541.6865998413414,Correct,sub_005_day_06_data.csv,1,300,70.0,Training at home,,,,,,,,,,,,,
5,8,1757,B,75.17557570777943,45.45122198167474,3.758778785388971,0.7139461253715413,B,593.8536999747157,Correct,sub_005_day_06_data.csv,1,300,70.0,Training at home,,,,,,,,,,,,,
5,8,1758,A,54.97678106452359,72.7716365389507,2.7488390532261797,1.1430941937023704,A,612.8964000381529,Correct,sub_005_day_06_data.csv,1,300,70.0,Training at home,,,,,,,,,,,,,
5,8,1759,B,61.13673799544347,42.38981740611331,3.0568368997721733,0.6658576947502917,B,1261.8722000624985,Correct,sub_005_day_06_data.csv,1,300,70.0,Training at home,,,,,,,,,,,,,
5,8,1760,B,34.12870753670212,14.594863911856413,1.706435376835106,0.2292555862281544,B,803.946599829942,Correct,sub_005_day_06_data.csv,1,300,70.0,Training at home,,,,,,,,,,,,,
5,8,1761,B,75.22404803820965,50.817979147887534,3.761202401910482,0.7982469498064138,B,601.1164002120495,Correct,sub_005_day_06_data.csv,1,300,70.0,Training at home,,,,,,,,,,,,,
5,8,1762,B,83.45844376816653,53.3072176598443,4.172922188408327,0.8373478169173946,B,807.6618001796305,Correct,sub_005_day_06_data.csv,1,300,70.0,Training at home,,,,,,,,,,,,,
5,8,1763,B,80.70935113329342,51.79773364232459,4.035467556664671,0.813636897416639,B,418.14769990742207,Correct,sub_005_day_06_data.csv,1,300,70.0,Training at home,,,,,,,,,,,,,
5,8,1764,A,48.60485407856834,68.6581311334443,2.4302427039284167,1.0784794018901664,A,532.5307999737561,Correct,sub_005_day_06_data.csv,1,300,70.0,Training at home,,,,,,,,,,,,,
5,8,1765,B,69.60820095937211,59.166506708473754,3.4804100479686055,0.9293853140695616,B,429.505999898538,Correct,sub_005_day_06_data.csv,1,300,70.0,Training at home,,,,,,,,,,,,,
5,8,1766,A,48.34140735592015,76.14152504740103,2.4170703677960073,1.1960282786101917,A,440.0108000263572,Correct,sub_005_day_06_data.csv,1,300,70.0,Training at home,,,,,,,,,,,,,
5,8,1767,A,45.93707023138028,72.03311779829193,2.2968535115690143,1.1314935684514105,A,572.2814998589456,Correct,sub_005_day_06_data.csv,1,300,70.0,Training at home,,,,,,,,,,,,,
5,8,1768,B,65.95958554786597,52.34596601824556,3.2979792773932983,0.8222485114399061,B,835.3983000852168,Correct,sub_005_day_06_data.csv,1,300,70.0,Training at home,,,,,,,,,,,,,
5,8,1769,A,35.674094263777455,65.88619106361287,1.7837047131888726,1.0349378690922983,A,1019.934399984777,Correct,sub_005_day_06_data.csv,1,300,70.0,Training at home,,,,,,,,,,,,,
5,8,1770,B,56.578151601999295,46.52487256352754,2.828907580099965,0.7308109892738972,B,485.8936998061836,Correct,sub_005_day_06_data.csv,1,300,70.0,Training at home,,,,,,,,,,,,,
5,8,1771,A,52.67797437948127,71.78934746976937,2.6338987189740637,1.1276644330851622,A,752.5971999857575,Correct,sub_005_day_06_data.csv,1,300,70.0,Training at home,,,,,,,,,,,,,
5,8,1772,B,34.35304761252628,15.999932999988715,1.717652380626314,0.2513263598534672,B,694.9616000056267,Correct,sub_005_day_06_data.csv,1,300,70.0,Training at home,,,,,,,,,,,,,
5,8,1773,A,62.18525694451902,84.40671323539962,3.109262847225951,1.325857551069959,A,734.0245000086725,Correct,sub_005_day_06_data.csv,1,300,70.0,Training at home,,,,,,,,,,,,,
5,8,1774,B,41.048934842264536,23.767015786028864,2.052446742113227,0.3733314109557045,B,701.8367999698967,Correct,sub_005_day_06_data.csv,1,300,70.0,Training at home,,,,,,,,,,,,,
5,8,1775,B,78.11168020414769,65.4406472394782,3.905584010207384,1.0279392830685292,B,511.5168001502752,Correct,sub_005_day_06_data.csv,1,300,71.0,Training at home,,,,,,,,,,,,,
5,8,1776,B,65.43719705559283,48.85466442939583,3.2718598527796416,0.7674072743249225,B,657.5587999541312,Correct,sub_005_day_06_data.csv,1,300,71.0,Training at home,,,,,,,,,,,,,
5,8,1777,B,42.88009388377388,34.58479029024834,2.1440046941886943,0.5432566155089391,B,504.4192001223564,Correct,sub_005_day_06_data.csv,1,300,71.0,Training at home,,,,,,,,,,,,,
5,8,1778,A,61.76662923543057,78.20254123409809,3.0883314617715287,1.2284026451654773,A,750.4340000450611,Correct,sub_005_day_06_data.csv,1,300,71.0,Training at home,,,,,,,,,,,,,
5,8,1779,B,77.5626022458755,48.369926056226646,3.878130112293775,0.7597930217646156,B,716.8587001506239,Correct,sub_005_day_06_data.csv,1,300,71.0,Training at home,,,,,,,,,,,,,
5,8,1780,B,81.38016199461042,55.6437937236581,4.069008099730521,0.8740506679005506,B,660.0941999349743,Correct,sub_005_day_06_data.csv,1,300,71.0,Training at home,,,,,,,,,,,,,
5,8,1781,A,65.6882136825387,88.76604219722932,3.2844106841269354,1.394333730275286,A,511.7520000785589,Correct,sub_005_day_06_data.csv,1,300,71.0,Training at home,,,,,,,,,,,,,
5,8,1782,B,84.32882316704911,55.93637735930554,4.216441158352455,0.8786465609021035,B,581.4853000920266,Correct,sub_005_day_06_data.csv,1,300,71.0,Training at home,,,,,,,,,,,,,
5,8,1783,B,85.04068709406744,57.45505346443721,4.252034354703372,0.9025018693774236,B,520.1492998749018,Correct,sub_005_day_06_data.csv,1,300,71.0,Training at home,,,,,,,,,,,,,
5,8,1784,B,61.08541919569531,31.391315490963127,3.0542709597847657,0.4930936306646462,B,512.2227999381721,Correct,sub_005_day_06_data.csv,1,300,71.0,Training at home,,,,,,,,,,,,,
5,8,1785,B,67.15568937154399,46.372406480729694,3.3577844685771994,0.7284160576457006,B,619.5094999857247,Correct,sub_005_day_06_data.csv,1,300,71.0,Training at home,,,,,,,,,,,,,
5,8,1786,A,33.20233490934705,55.39538044528396,1.6601167454673529,0.870148601248579,A,621.1091999430209,Correct,sub_005_day_06_data.csv,1,300,71.0,Training at home,,,,,,,,,,,,,
5,8,1787,B,71.42683604963678,43.361663283758105,3.571341802481839,0.6811234140984437,B,888.6450999416411,Correct,sub_005_day_06_data.csv,1,300,71.0,Training at home,,,,,,,,,,,,,
5,8,1788,B,70.81063084284145,46.067848484553494,3.540531542142072,0.7236320718288047,A,827.8900999575853,Incorrect,sub_005_day_06_data.csv,0,300,71.0,Training at home,,,,,,,,,,,,,
5,8,1789,A,56.662281901308745,81.2959649474885,2.8331140950654374,1.276994031227616,A,785.6004000641406,Correct,sub_005_day_06_data.csv,1,300,71.0,Training at home,,,,,,,,,,,,,
5,8,1790,B,62.42558631722844,33.93897098381601,3.1212793158614223,0.5331121095657677,B,604.397299932316,Correct,sub_005_day_06_data.csv,1,300,71.0,Training at home,,,,,,,,,,,,,
5,8,1791,A,56.05566562875515,81.65565011692593,2.8027832814377573,1.2826439526571651,A,584.9532000720501,Correct,sub_005_day_06_data.csv,1,300,71.0,Training at home,,,,,,,,,,,,,
5,8,1792,B,68.99490235838505,45.65091309880242,3.449745117919252,0.7170828661043187,B,440.85839996114373,Correct,sub_005_day_06_data.csv,1,300,71.0,Training at home,,,,,,,,,,,,,
5,8,1793,A,54.54335314878837,81.98509970992414,2.727167657439418,1.2878189347626217,A,1004.026300041005,Correct,sub_005_day_06_data.csv,1,300,71.0,Training at home,,,,,,,,,,,,,
5,8,1794,B,37.00575521745485,19.183603318476912,1.8502877608727424,0.3013353362735392,B,611.4403000101447,Correct,sub_005_day_06_data.csv,1,300,71.0,Training at home,,,,,,,,,,,,,
5,8,1795,B,82.17110070906799,55.71615885331235,4.108555035453399,0.87518737669904,B,632.2276999708265,Correct,sub_005_day_06_data.csv,1,300,71.0,Training at home,,,,,,,,,,,,,
5,8,1796,B,64.28660668525717,50.94089415051057,3.214330334262858,0.8001776941526965,B,611.3114000763744,Correct,sub_005_day_06_data.csv,1,300,71.0,Training at home,,,,,,,,,,,,,
5,8,1797,B,78.42682693959495,51.757245283861536,3.921341346979747,0.8130009077691219,B,709.2716998886317,Correct,sub_005_day_06_data.csv,1,300,71.0,Training at home,,,,,,,,,,,,,
5,8,1798,A,48.046712773269405,72.42599335794415,2.4023356386634704,1.1376648433113024,A,667.8870001342148,Correct,sub_005_day_06_data.csv,1,300,71.0,Training at home,,,,,,,,,,,,,
5,8,1799,B,54.60660216776307,36.530320922969814,2.7303301083881535,0.5738169392243974,B,647.1341999713331,Correct,sub_005_day_06_data.csv,1,300,71.0,Training at home,,,,,,,,,,,,,
