subject,day,trial,cat,x,y,xt,yt,resp,rt,fb,f_name,acc,n_trials,block,session_type,ns_left_digit,ns_right_digit,ns_left_size,ns_right_size,ns_congruent,ns_cue,ns_correct_side,ns_resp,ns_rt,ns_fb,acc_stroop,acc_stroop_mean,resp_key
5,15,3300,A,67.51550899609751,88.77960033249607,3.3757754498048755,1.3945467009660382,A,547.8963998612016,Correct,sub_005_day_12_data.csv,1,300,132.0,Training at home,,,,,,,,,,,,,
5,15,3301,B,63.3972688867593,45.823780415809736,3.169863444337965,0.7197982595700986,B,400.24579991586506,Correct,sub_005_day_12_data.csv,1,300,132.0,Training at home,,,,,,,,,,,,,
5,15,3302,B,76.92695091908062,63.94592652580103,3.846347545954031,1.004460265002246,B,423.12059993855655,Correct,sub_005_day_12_data.csv,1,300,132.0,Training at home,,,,,,,,,,,,,
5,15,3303,B,58.78510063821609,45.29547408346254,2.9392550319108044,0.7114996431073638,B,405.1555001642555,Correct,sub_005_day_12_data.csv,1,300,132.0,Training at home,,,,,,,,,,,,,
5,15,3304,A,42.34361553130896,75.08685090034282,2.117180776565448,1.179461495848546,A,476.5790000092238,Correct,sub_005_day_12_data.csv,1,300,132.0,Training at home,,,,,,,,,,,,,
5,15,3305,A,17.350601837096328,47.7833297757342,0.8675300918548163,0.7505787889375249,A,448.9508999977261,Correct,sub_005_day_12_data.csv,1,300,132.0,Training at home,,,,,,,,,,,,,
5,15,3306,B,69.04683102841346,37.71571968682257,3.4523415514206732,0.5924371394648686,B,380.98190003074706,Correct,sub_005_day_12_data.csv,1,300,132.0,Training at home,,,,,,,,,,,,,
5,15,3307,B,60.08831195632534,35.284451800132075,3.004415597816267,0.5542468728061903,B,350.1324001699686,Correct,sub_005_day_12_data.csv,1,300,132.0,Training at home,,,,,,,,,,,,,
5,15,3308,B,50.11124278291557,34.059050643668456,2.5055621391457783,0.5349983164519576,B,419.5690001361072,Correct,sub_005_day_12_data.csv,1,300,132.0,Training at home,,,,,,,,,,,,,
5,15,3309,A,44.37563300751338,71.9403003347358,2.218781650375669,1.1300355951432466,A,491.1138999741525,Correct,sub_005_day_12_data.csv,1,300,132.0,Training at home,,,,,,,,,,,,,
5,15,3310,B,62.466424842551,50.515218679004434,3.12332124212755,0.7934911994822111,B,400.532899890095,Correct,sub_005_day_12_data.csv,1,300,132.0,Training at home,,,,,,,,,,,,,
5,15,3311,A,21.71853847401314,43.977412570731914,1.085926923700657,0.690795581280494,A,443.87660012580454,Correct,sub_005_day_12_data.csv,1,300,132.0,Training at home,,,,,,,,,,,,,
5,15,3312,B,49.16507616841975,26.81455122879641,2.4582538084209875,0.4212019857484698,B,472.996799973771,Correct,sub_005_day_12_data.csv,1,300,132.0,Training at home,,,,,,,,,,,,,
5,15,3313,B,48.085708154767175,19.69961146952981,2.404285407738359,0.3094407733562404,B,489.8926999885589,Correct,sub_005_day_12_data.csv,1,300,132.0,Training at home,,,,,,,,,,,,,
5,15,3314,B,46.057030975179146,23.421338079298273,2.302851548758958,0.3679015182358316,B,469.58330017514527,Correct,sub_005_day_12_data.csv,1,300,132.0,Training at home,,,,,,,,,,,,,
5,15,3315,A,54.17791396178507,79.16153477167047,2.708895698089254,1.2434664804278646,A,453.1417998950928,Correct,sub_005_day_12_data.csv,1,300,132.0,Training at home,,,,,,,,,,,,,
5,15,3316,A,34.138267901803424,55.11703572550589,1.7069133950901714,0.8657763726144775,A,931.2301999889314,Correct,sub_005_day_12_data.csv,1,300,132.0,Training at home,,,,,,,,,,,,,
5,15,3317,A,21.33566802030707,44.91385302005578,1.0667834010153536,0.7055051534610949,A,471.939800074324,Correct,sub_005_day_12_data.csv,1,300,132.0,Training at home,,,,,,,,,,,,,
5,15,3318,A,63.49344502969732,87.97920673544706,3.174672251484866,1.3819741477436909,A,454.3545001652092,Correct,sub_005_day_12_data.csv,1,300,132.0,Training at home,,,,,,,,,,,,,
5,15,3319,B,69.37981184347436,46.12652216807728,3.4689905921737183,0.7245537158943917,B,450.46199997887015,Correct,sub_005_day_12_data.csv,1,300,132.0,Training at home,,,,,,,,,,,,,
5,15,3320,B,68.88626717045474,58.455413519633936,3.444313358522737,0.9182154883791772,B,588.1733000278473,Correct,sub_005_day_12_data.csv,1,300,132.0,Training at home,,,,,,,,,,,,,
5,15,3321,B,65.9803526359105,45.401150792465614,3.2990176317955253,0.7131596089706619,B,622.0177998766303,Correct,sub_005_day_12_data.csv,1,300,132.0,Training at home,,,,,,,,,,,,,
5,15,3322,A,55.95179946991159,79.00378109628525,2.7975899734955796,1.2409884914895295,A,517.4569999799132,Correct,sub_005_day_12_data.csv,1,300,132.0,Training at home,,,,,,,,,,,,,
5,15,3323,B,43.557723729990805,33.56969433302609,2.17788618649954,0.5273115254994484,B,599.0951000712812,Correct,sub_005_day_12_data.csv,1,300,132.0,Training at home,,,,,,,,,,,,,
5,15,3324,B,45.31540642617272,18.62987508258353,2.265770321308636,0.2926373934836998,B,502.9039001092315,Correct,sub_005_day_12_data.csv,1,300,132.0,Training at home,,,,,,,,,,,,,
5,15,3325,B,38.70632833736818,21.65105806139296,1.935316416868409,0.3400940247405909,B,518.7945999205112,Correct,sub_005_day_12_data.csv,1,300,133.0,Training at home,,,,,,,,,,,,,
5,15,3326,B,78.82936076764867,54.805988219681765,3.941468038382433,0.8608904498184049,B,474.19729991815984,Correct,sub_005_day_12_data.csv,1,300,133.0,Training at home,,,,,,,,,,,,,
5,15,3327,B,55.88747827347042,38.08447953487648,2.794373913673521,0.5982296056127938,B,353.36220008321106,Correct,sub_005_day_12_data.csv,1,300,133.0,Training at home,,,,,,,,,,,,,
5,15,3328,A,54.743464714313475,77.78811864380731,2.7371732357156735,1.221892910339781,A,517.6855998579413,Correct,sub_005_day_12_data.csv,1,300,133.0,Training at home,,,,,,,,,,,,,
5,15,3329,A,38.561532710441455,55.91060900755957,1.9280766355220729,0.8782417925794023,B,573.4820999205112,Incorrect,sub_005_day_12_data.csv,0,300,133.0,Training at home,,,,,,,,,,,,,
5,15,3330,B,44.579771166063466,30.71561999689235,2.228988558303173,0.4824798306634638,B,406.5535000991076,Correct,sub_005_day_12_data.csv,1,300,133.0,Training at home,,,,,,,,,,,,,
5,15,3331,A,27.516770847296524,56.20686414606227,1.375838542364826,0.882895357412944,A,537.360800197348,Correct,sub_005_day_12_data.csv,1,300,133.0,Training at home,,,,,,,,,,,,,
5,15,3332,A,35.928994020727195,63.783889078640634,1.7964497010363598,1.0019149867342183,A,536.8925000075251,Correct,sub_005_day_12_data.csv,1,300,133.0,Training at home,,,,,,,,,,,,,
5,15,3333,A,50.04182305164374,68.94322619927286,2.502091152582187,1.0829576647120749,A,553.7040999624878,Correct,sub_005_day_12_data.csv,1,300,133.0,Training at home,,,,,,,,,,,,,
5,15,3334,A,62.501993817396794,81.92873469342555,3.1250996908698396,1.2869335551538643,A,701.590099837631,Correct,sub_005_day_12_data.csv,1,300,133.0,Training at home,,,,,,,,,,,,,
5,15,3335,B,57.069470771807374,49.77868118853027,2.8534735385903685,0.7819216956363756,B,510.5436001904309,Correct,sub_005_day_12_data.csv,1,300,133.0,Training at home,,,,,,,,,,,,,
5,15,3336,B,64.49256704666146,44.78667694097694,3.224628352333073,0.7035074762823628,B,443.0493998806923,Correct,sub_005_day_12_data.csv,1,300,133.0,Training at home,,,,,,,,,,,,,
5,15,3337,B,31.57683077334437,11.11397659681174,1.5788415386672183,0.1745779361435632,B,551.0648000054061,Correct,sub_005_day_12_data.csv,1,300,133.0,Training at home,,,,,,,,,,,,,
5,15,3338,B,50.472972070386696,30.89744248096754,2.523648603519335,0.4853358915646041,B,419.9141999706626,Correct,sub_005_day_12_data.csv,1,300,133.0,Training at home,,,,,,,,,,,,,
5,15,3339,B,61.9884086633421,46.30764621449607,3.099420433167105,0.7273988057624803,B,572.7335999254137,Correct,sub_005_day_12_data.csv,1,300,133.0,Training at home,,,,,,,,,,,,,
5,15,3340,A,26.384099751127117,41.30746861893973,1.3192049875563558,0.6488561997582598,A,437.8527000080794,Correct,sub_005_day_12_data.csv,1,300,133.0,Training at home,,,,,,,,,,,,,
5,15,3341,A,39.76913717428001,62.06566969699677,1.9884568587140008,0.9749252598010784,A,463.7068000156432,Correct,sub_005_day_12_data.csv,1,300,133.0,Training at home,,,,,,,,,,,,,
5,15,3342,B,66.6965125388799,51.57609185972711,3.3348256269439953,0.8101553564369551,B,386.7898001335561,Correct,sub_005_day_12_data.csv,1,300,133.0,Training at home,,,,,,,,,,,,,
5,15,3343,A,44.98311766767784,69.15021589782151,2.249155883383892,1.0862090512937208,A,443.80919984541833,Correct,sub_005_day_12_data.csv,1,300,133.0,Training at home,,,,,,,,,,,,,
5,15,3344,B,62.774725703665666,32.61761189477281,3.1387362851832834,0.5123562495313064,B,454.0593000128865,Correct,sub_005_day_12_data.csv,1,300,133.0,Training at home,,,,,,,,,,,,,
5,15,3345,B,46.52944960715668,19.45378414826427,2.326472480357834,0.3055793268235429,B,432.6079001184553,Correct,sub_005_day_12_data.csv,1,300,133.0,Training at home,,,,,,,,,,,,,
5,15,3346,B,68.215632322029,50.655256887974645,3.41078161610145,0.7956909145248245,B,569.6531999856234,Correct,sub_005_day_12_data.csv,1,300,133.0,Training at home,,,,,,,,,,,,,
5,15,3347,A,12.246791879999464,32.47709612347426,0.6123395939999732,0.5101490329571815,A,452.0719998981804,Correct,sub_005_day_12_data.csv,1,300,133.0,Training at home,,,,,,,,,,,,,
5,15,3348,A,62.88662736646958,85.95605963750981,3.1443313683234795,1.3501946274436347,A,553.1109001021832,Correct,sub_005_day_12_data.csv,1,300,133.0,Training at home,,,,,,,,,,,,,
5,15,3349,A,23.625868569630235,43.02070470261212,1.1812934284815118,0.6757676492299105,A,449.83549998141825,Correct,sub_005_day_12_data.csv,1,300,133.0,Training at home,,,,,,,,,,,,,
5,15,3350,A,40.12881402564482,58.745201089905365,2.006440701282241,0.9227674608885092,A,471.1397001519799,Correct,sub_005_day_12_data.csv,1,300,134.0,Training at home,,,,,,,,,,,,,
5,15,3351,A,19.347189130252723,33.30005392919792,0.9673594565126362,0.5230760239405606,A,441.4577998686582,Correct,sub_005_day_12_data.csv,1,300,134.0,Training at home,,,,,,,,,,,,,
5,15,3352,B,82.77459620247218,67.82811045554872,4.13872981012361,1.065441467570145,B,521.4190001133829,Correct,sub_005_day_12_data.csv,1,300,134.0,Training at home,,,,,,,,,,,,,
5,15,3353,A,56.24239107885053,78.6484094356949,2.8121195539425266,1.2354063264985065,A,467.7029000595212,Correct,sub_005_day_12_data.csv,1,300,134.0,Training at home,,,,,,,,,,,,,
5,15,3354,B,54.80141500707972,47.79276828626108,2.740070750353986,0.7507270487141853,A,489.0399998985231,Incorrect,sub_005_day_12_data.csv,0,300,134.0,Training at home,,,,,,,,,,,,,
5,15,3355,B,76.67061451499202,48.823809524984966,3.8335307257496014,0.7669226066198006,B,608.6545998696238,Correct,sub_005_day_12_data.csv,1,300,134.0,Training at home,,,,,,,,,,,,,
5,15,3356,B,64.35990472091791,53.80156571207177,3.217995236045896,0.8451130179633659,B,405.1622999832034,Correct,sub_005_day_12_data.csv,1,300,134.0,Training at home,,,,,,,,,,,,,
5,15,3357,B,71.92034517125788,48.74160526289839,3.5960172585628936,0.7656313450904758,B,586.3825001288205,Correct,sub_005_day_12_data.csv,1,300,134.0,Training at home,,,,,,,,,,,,,
5,15,3358,A,28.94496197412785,51.23430249259496,1.4472480987063927,0.8047865416126678,A,450.3949999343604,Correct,sub_005_day_12_data.csv,1,300,134.0,Training at home,,,,,,,,,,,,,
5,15,3359,B,72.6968214463106,55.02275529437877,3.6348410723155298,0.8642954190654463,B,404.66740005649626,Correct,sub_005_day_12_data.csv,1,300,134.0,Training at home,,,,,,,,,,,,,
5,15,3360,B,78.02869642168372,64.82058244995636,3.901434821084186,1.0181993281309718,B,401.407599914819,Correct,sub_005_day_12_data.csv,1,300,134.0,Training at home,,,,,,,,,,,,,
5,15,3361,A,25.606683414053204,40.72082365512445,1.28033417070266,0.6396412022153222,A,494.2427000496537,Correct,sub_005_day_12_data.csv,1,300,134.0,Training at home,,,,,,,,,,,,,
5,15,3362,A,37.78039214816505,54.0072744869604,1.8890196074082524,0.8483442838432113,A,533.8570000603795,Correct,sub_005_day_12_data.csv,1,300,134.0,Training at home,,,,,,,,,,,,,
5,15,3363,B,56.102628237909386,27.356475780259316,2.805131411895469,0.4297145166968488,B,371.9350998289883,Correct,sub_005_day_12_data.csv,1,300,134.0,Training at home,,,,,,,,,,,,,
5,15,3364,B,39.9190568944473,26.89337953967098,1.995952844722365,0.422440217960162,B,377.7273001614958,Correct,sub_005_day_12_data.csv,1,300,134.0,Training at home,,,,,,,,,,,,,
5,15,3365,A,63.12740528122763,80.68567894073965,3.1563702640613815,1.2674076810506618,A,900.5332000087947,Correct,sub_005_day_12_data.csv,1,300,134.0,Training at home,,,,,,,,,,,,,
5,15,3366,A,51.33912436510237,61.87583148150162,2.5669562182551187,0.9719432880852276,B,577.1516000386328,Incorrect,sub_005_day_12_data.csv,0,300,134.0,Training at home,,,,,,,,,,,,,
5,15,3367,A,38.628374534899535,48.04421306166076,1.9314187267449767,0.7546767340100811,A,536.0572000499815,Correct,sub_005_day_12_data.csv,1,300,134.0,Training at home,,,,,,,,,,,,,
5,15,3368,B,35.15143569172182,16.143419481148605,1.757571784586091,0.253580240228974,B,718.2218998204917,Correct,sub_005_day_12_data.csv,1,300,134.0,Training at home,,,,,,,,,,,,,
5,15,3369,A,53.9196007922188,72.96254603908794,2.6959800396109403,1.1460929931180286,A,583.8669999502599,Correct,sub_005_day_12_data.csv,1,300,134.0,Training at home,,,,,,,,,,,,,
5,15,3370,B,81.42762430471336,61.09938047674656,4.071381215235668,0.9597468242231731,B,518.8923000823706,Correct,sub_005_day_12_data.csv,1,300,134.0,Training at home,,,,,,,,,,,,,
5,15,3371,B,52.93464009061868,28.415744723550976,2.646732004530934,0.4463534743489533,B,694.5774999912828,Correct,sub_005_day_12_data.csv,1,300,134.0,Training at home,,,,,,,,,,,,,
5,15,3372,B,51.137916841685595,27.822413066276752,2.5568958420842796,0.4370334424707787,B,505.1535000093281,Correct,sub_005_day_12_data.csv,1,300,134.0,Training at home,,,,,,,,,,,,,
5,15,3373,A,37.410730659738434,57.837726695613824,1.8705365329869217,0.9085128864363732,A,445.7611001562327,Correct,sub_005_day_12_data.csv,1,300,134.0,Training at home,,,,,,,,,,,,,
5,15,3374,A,12.308010636870955,33.10549194616161,0.6154005318435479,0.5200198514576868,A,518.9532998483628,Correct,sub_005_day_12_data.csv,1,300,134.0,Training at home,,,,,,,,,,,,,
5,15,3375,A,28.557978811495687,50.35369479797112,1.4278989405747842,0.7909539882920433,A,461.01959981024265,Correct,sub_005_day_12_data.csv,1,300,135.0,Training at home,,,,,,,,,,,,,
5,15,3376,A,28.898667480863686,54.054371802719466,1.4449333740431842,0.8490840867491737,A,654.175499919802,Correct,sub_005_day_12_data.csv,1,300,135.0,Training at home,,,,,,,,,,,,,
5,15,3377,B,58.83587669848977,28.18209578463942,2.9417938349244883,0.4426833253989354,B,404.83430004678667,Correct,sub_005_day_12_data.csv,1,300,135.0,Training at home,,,,,,,,,,,,,
5,15,3378,A,37.65988847494132,50.18043607436272,1.882994423747066,0.7882324466257509,A,602.8346999082714,Correct,sub_005_day_12_data.csv,1,300,135.0,Training at home,,,,,,,,,,,,,
5,15,3379,B,34.97492306119629,14.651688442232558,1.7487461530598147,0.2301481838640214,B,513.7158997822553,Correct,sub_005_day_12_data.csv,1,300,135.0,Training at home,,,,,,,,,,,,,
5,15,3380,A,31.443889874077627,44.43739246580993,1.5721944937038814,0.6980209285763745,A,438.6052000336349,Correct,sub_005_day_12_data.csv,1,300,135.0,Training at home,,,,,,,,,,,,,
5,15,3381,A,16.44721833701949,37.28075016246767,0.8223609168509745,0.5856046541536247,A,664.0810000244528,Correct,sub_005_day_12_data.csv,1,300,135.0,Training at home,,,,,,,,,,,,,
5,15,3382,A,37.635819903379584,46.25930784784279,1.881790995168979,0.726639508474658,B,558.5111000109464,Incorrect,sub_005_day_12_data.csv,0,300,135.0,Training at home,,,,,,,,,,,,,
5,15,3383,B,79.40918571792606,48.923224470884406,3.970459285896303,0.7684842129382743,B,497.6923000067473,Correct,sub_005_day_12_data.csv,1,300,135.0,Training at home,,,,,,,,,,,,,
5,15,3384,A,41.940888833181745,59.73594144439882,2.097044441659087,0.938329973984967,A,467.7519998513162,Correct,sub_005_day_12_data.csv,1,300,135.0,Training at home,,,,,,,,,,,,,
5,15,3385,A,49.9228135274297,80.36082892286515,2.496140676371485,1.2623049489022966,A,575.9395000059158,Correct,sub_005_day_12_data.csv,1,300,135.0,Training at home,,,,,,,,,,,,,
5,15,3386,A,30.944186207390768,41.063826573350966,1.5472093103695383,0.6450290794556236,A,507.0485000032931,Correct,sub_005_day_12_data.csv,1,300,135.0,Training at home,,,,,,,,,,,,,
5,15,3387,B,57.88616886854707,45.297968282801605,2.894308443427353,0.7115388218989649,B,562.9678000696003,Correct,sub_005_day_12_data.csv,1,300,135.0,Training at home,,,,,,,,,,,,,
5,15,3388,B,47.0063536383875,36.22057167739746,2.350317681919375,0.5689514094526719,B,458.5901000536978,Correct,sub_005_day_12_data.csv,1,300,135.0,Training at home,,,,,,,,,,,,,
5,15,3389,A,42.685364530452574,54.87329439623595,2.1342682265226287,0.8619476927674242,A,548.0697001330554,Correct,sub_005_day_12_data.csv,1,300,135.0,Training at home,,,,,,,,,,,,,
5,15,3390,B,68.12189258483357,54.32116632829253,3.4060946292416787,0.8532748853569652,B,407.5162000954151,Correct,sub_005_day_12_data.csv,1,300,135.0,Training at home,,,,,,,,,,,,,
5,15,3391,A,26.26520483044666,54.596882309378,1.313260241522333,0.8576058218602421,A,415.7449998892844,Correct,sub_005_day_12_data.csv,1,300,135.0,Training at home,,,,,,,,,,,,,
5,15,3392,A,61.20859169786972,76.35386120762422,3.060429584893486,1.1993636472154348,A,436.55059998854995,Correct,sub_005_day_12_data.csv,1,300,135.0,Training at home,,,,,,,,,,,,,
5,15,3393,B,50.66675914203697,34.26035303914429,2.5333379571018484,0.5381603670858421,B,433.9437000453472,Correct,sub_005_day_12_data.csv,1,300,135.0,Training at home,,,,,,,,,,,,,
5,15,3394,A,44.22558984408206,73.21098592100834,2.211279492204103,1.149995477657528,A,453.6268999800086,Correct,sub_005_day_12_data.csv,1,300,135.0,Training at home,,,,,,,,,,,,,
5,15,3395,A,23.627386380758487,38.756723219408094,1.1813693190379242,0.6087891847165271,A,463.99070019833744,Correct,sub_005_day_12_data.csv,1,300,135.0,Training at home,,,,,,,,,,,,,
5,15,3396,A,24.43712131667339,39.82101150251815,1.2218560658336697,0.6255069859741283,A,416.0499998833984,Correct,sub_005_day_12_data.csv,1,300,135.0,Training at home,,,,,,,,,,,,,
5,15,3397,B,54.33520436019165,25.15946262005758,2.7167602180095827,0.3952039146771996,B,436.2472000066191,Correct,sub_005_day_12_data.csv,1,300,135.0,Training at home,,,,,,,,,,,,,
5,15,3398,A,29.637473501703237,40.45479369463456,1.481873675085162,0.6354624133677731,A,435.8540000393986,Correct,sub_005_day_12_data.csv,1,300,135.0,Training at home,,,,,,,,,,,,,
5,15,3399,B,85.81739401222679,58.32485008149506,4.290869700611339,0.9161646026887548,B,459.56630003638566,Correct,sub_005_day_12_data.csv,1,300,135.0,Training at home,,,,,,,,,,,,,
5,15,3400,B,77.09151624891304,45.44159166878887,3.854575812445652,0.7137948527704713,B,386.56040001660585,Correct,sub_005_day_12_data.csv,1,300,136.0,Training at home,,,,,,,,,,,,,
5,15,3401,B,80.63810914277207,49.86958679541598,4.0319054571386035,0.7833496375701868,B,402.6144000235945,Correct,sub_005_day_12_data.csv,1,300,136.0,Training at home,,,,,,,,,,,,,
5,15,3402,A,62.65744120708797,85.58963123693663,3.1328720603543987,1.344438783587098,A,506.6455998457968,Correct,sub_005_day_12_data.csv,1,300,136.0,Training at home,,,,,,,,,,,,,
5,15,3403,A,20.918176820628368,43.75060483472576,1.0459088410314183,0.6872328936944226,A,446.90570002421737,Correct,sub_005_day_12_data.csv,1,300,136.0,Training at home,,,,,,,,,,,,,
5,15,3404,B,49.37271149440745,19.054794735551308,2.468635574720372,0.2993120157843473,B,414.61510001681745,Correct,sub_005_day_12_data.csv,1,300,136.0,Training at home,,,,,,,,,,,,,
5,15,3405,A,55.049852678329174,71.49558658465146,2.7524926339164586,1.12305004789217,A,465.0979998987168,Correct,sub_005_day_12_data.csv,1,300,136.0,Training at home,,,,,,,,,,,,,
5,15,3406,A,27.008528370656755,46.61082351030282,1.3504264185328378,0.7321611035886889,A,459.8974999971688,Correct,sub_005_day_12_data.csv,1,300,136.0,Training at home,,,,,,,,,,,,,
5,15,3407,B,72.71276173959824,50.87553668575103,3.635638086979912,0.7991510614969672,B,391.1707999650389,Correct,sub_005_day_12_data.csv,1,300,136.0,Training at home,,,,,,,,,,,,,
5,15,3408,B,65.5926588898909,36.31182332244045,3.279632944494545,0.5703847869411471,B,362.7921000588685,Correct,sub_005_day_12_data.csv,1,300,136.0,Training at home,,,,,,,,,,,,,
5,15,3409,B,86.46504092079599,59.42466861946025,4.3232520460398,0.9334405118845212,B,354.2481998447329,Correct,sub_005_day_12_data.csv,1,300,136.0,Training at home,,,,,,,,,,,,,
5,15,3410,A,19.373379386335436,47.10805619236275,0.968668969316772,0.7399716162941099,A,432.22690001130104,Correct,sub_005_day_12_data.csv,1,300,136.0,Training at home,,,,,,,,,,,,,
5,15,3411,B,76.94074886273873,54.437680228024504,3.847037443136936,0.8551050814141605,B,669.0865999553353,Correct,sub_005_day_12_data.csv,1,300,136.0,Training at home,,,,,,,,,,,,,
5,15,3412,A,30.35606445690431,53.292572470908766,1.5178032228452156,0.8371177708275431,A,433.208400150761,Correct,sub_005_day_12_data.csv,1,300,136.0,Training at home,,,,,,,,,,,,,
5,15,3413,B,50.121949330930775,24.88873055115352,2.5060974665465388,0.3909512652833987,B,316.2872998509556,Correct,sub_005_day_12_data.csv,1,300,136.0,Training at home,,,,,,,,,,,,,
5,15,3414,A,29.240600534307607,47.08453321345982,1.4620300267153803,0.73960211820555,A,453.3614001702517,Correct,sub_005_day_12_data.csv,1,300,136.0,Training at home,,,,,,,,,,,,,
5,15,3415,A,18.219040949125674,31.965688659723707,0.9109520474562836,0.5021158633016328,A,393.8162000849843,Correct,sub_005_day_12_data.csv,1,300,136.0,Training at home,,,,,,,,,,,,,
5,15,3416,B,74.45065855706139,47.32629645569451,3.722532927853069,0.7433997263341127,B,371.27220002003014,Correct,sub_005_day_12_data.csv,1,300,136.0,Training at home,,,,,,,,,,,,,
5,15,3417,A,68.00242471856444,82.31510145972453,3.4001212359282222,1.2930025901268452,A,439.7096000611782,Correct,sub_005_day_12_data.csv,1,300,136.0,Training at home,,,,,,,,,,,,,
5,15,3418,B,67.5647104700184,50.70329463601088,3.3782355235009196,0.7964454897064528,B,1581.7032000049949,Correct,sub_005_day_12_data.csv,1,300,136.0,Training at home,,,,,,,,,,,,,
5,15,3419,A,14.546918160921134,31.438599247042145,0.7273459080460567,0.493836362168306,A,413.0981999915093,Correct,sub_005_day_12_data.csv,1,300,136.0,Training at home,,,,,,,,,,,,,
5,15,3420,B,57.71782785679609,41.150600290376865,2.885891392839804,0.6463921178152898,B,402.4296998977661,Correct,sub_005_day_12_data.csv,1,300,136.0,Training at home,,,,,,,,,,,,,
5,15,3421,B,85.60219724615807,64.75606619386974,4.280109862307904,1.0171859091501776,B,436.7796001024544,Correct,sub_005_day_12_data.csv,1,300,136.0,Training at home,,,,,,,,,,,,,
5,15,3422,B,71.91062926120993,41.77967899783432,3.5955314630604964,0.6562736630446805,B,444.86699998378754,Correct,sub_005_day_12_data.csv,1,300,136.0,Training at home,,,,,,,,,,,,,
5,15,3423,B,36.417910280045575,19.025855128749697,1.820895514002279,0.2988574335037186,B,430.4806999862194,Correct,sub_005_day_12_data.csv,1,300,136.0,Training at home,,,,,,,,,,,,,
5,15,3424,B,74.71080077609693,44.3844017767955,3.7355400388048463,0.6971885527797924,B,387.6500001642853,Correct,sub_005_day_12_data.csv,1,300,136.0,Training at home,,,,,,,,,,,,,
5,15,3425,A,50.14047229857336,58.98114740519688,2.507023614928668,0.926473696942316,A,501.8611999694258,Correct,sub_005_day_12_data.csv,1,300,137.0,Training at home,,,,,,,,,,,,,
5,15,3426,B,41.27060920202277,15.159731884063849,2.0635304601011386,0.2381285115868297,B,368.11879999004304,Correct,sub_005_day_12_data.csv,1,300,137.0,Training at home,,,,,,,,,,,,,
5,15,3427,A,53.7513949364275,72.91250491820479,2.6875697468213753,1.1453069490293093,A,405.9796999208629,Correct,sub_005_day_12_data.csv,1,300,137.0,Training at home,,,,,,,,,,,,,
5,15,3428,A,52.397851711371686,80.92290515826011,2.6198925855685844,1.2711340217616678,A,455.18589997664094,Correct,sub_005_day_12_data.csv,1,300,137.0,Training at home,,,,,,,,,,,,,
5,15,3429,A,48.717806520650115,71.61155445739783,2.435890326032506,1.124871666977532,A,470.570300007239,Correct,sub_005_day_12_data.csv,1,300,137.0,Training at home,,,,,,,,,,,,,
5,15,3430,A,15.578048213145046,32.134222566192726,0.7789024106572523,0.504763187713852,A,427.12350003421307,Correct,sub_005_day_12_data.csv,1,300,137.0,Training at home,,,,,,,,,,,,,
5,15,3431,B,37.58723112926731,22.060331097229717,1.8793615564633657,0.3465228705540766,B,415.6697001308203,Correct,sub_005_day_12_data.csv,1,300,137.0,Training at home,,,,,,,,,,,,,
5,15,3432,A,50.71013056964251,77.88292321004985,2.5355065284821254,1.2233820969839528,A,412.0690999552607,Correct,sub_005_day_12_data.csv,1,300,137.0,Training at home,,,,,,,,,,,,,
5,15,3433,B,78.00095835810538,50.89108196430871,3.900047917905269,0.7993952461615413,B,433.28270013444126,Correct,sub_005_day_12_data.csv,1,300,137.0,Training at home,,,,,,,,,,,,,
5,15,3434,A,43.68147853515901,54.627528070176055,2.1840739267579505,0.8580872043451766,A,502.6085998397321,Correct,sub_005_day_12_data.csv,1,300,137.0,Training at home,,,,,,,,,,,,,
5,15,3435,B,83.26928157776693,62.40375828296981,4.163464078888347,0.9802359428908558,B,457.89470011368394,Correct,sub_005_day_12_data.csv,1,300,137.0,Training at home,,,,,,,,,,,,,
5,15,3436,A,26.052896809278455,43.51521291711745,1.3026448404639228,0.6835353660990594,A,472.6343001239002,Correct,sub_005_day_12_data.csv,1,300,137.0,Training at home,,,,,,,,,,,,,
5,15,3437,A,25.130294509868666,45.421501757993866,1.256514725493433,0.713479281189647,A,471.45400010049343,Correct,sub_005_day_12_data.csv,1,300,137.0,Training at home,,,,,,,,,,,,,
5,15,3438,B,73.49379138552993,62.84901038946817,3.674689569276497,0.9872299466247088,B,568.8219000585377,Correct,sub_005_day_12_data.csv,1,300,137.0,Training at home,,,,,,,,,,,,,
5,15,3439,B,49.126686949011926,37.91014544836013,2.4563343474505963,0.5954911721854436,A,430.5534998420626,Incorrect,sub_005_day_12_data.csv,0,300,137.0,Training at home,,,,,,,,,,,,,
5,15,3440,A,37.037848009788064,56.962597492795375,1.8518924004894033,0.8947663890637917,A,735.3511999826878,Correct,sub_005_day_12_data.csv,1,300,137.0,Training at home,,,,,,,,,,,,,
5,15,3441,B,52.74683310710111,42.04669982522202,2.6373416553550557,0.6604680163930636,B,414.8990001995117,Correct,sub_005_day_12_data.csv,1,300,137.0,Training at home,,,,,,,,,,,,,
5,15,3442,A,39.92801001300096,71.07068089638499,1.9964005006500485,1.1163756449485376,A,526.5633999370039,Correct,sub_005_day_12_data.csv,1,300,137.0,Training at home,,,,,,,,,,,,,
5,15,3443,A,65.55507594214018,77.38840633787987,3.277753797107009,1.215614244120526,A,544.1884000319988,Correct,sub_005_day_12_data.csv,1,300,137.0,Training at home,,,,,,,,,,,,,
5,15,3444,A,21.27638899011578,36.00425023920964,1.0638194495057889,0.5655534402475477,A,498.58979997225106,Correct,sub_005_day_12_data.csv,1,300,137.0,Training at home,,,,,,,,,,,,,
5,15,3445,B,82.27452903084367,68.32055293416056,4.113726451542183,1.073176735935757,B,495.45380007475615,Correct,sub_005_day_12_data.csv,1,300,137.0,Training at home,,,,,,,,,,,,,
5,15,3446,B,54.62733172839568,31.260044773895473,2.731366586419784,0.4910316350627901,B,472.1768000163138,Correct,sub_005_day_12_data.csv,1,300,137.0,Training at home,,,,,,,,,,,,,
5,15,3447,B,65.43263062069384,54.68059558555433,3.271631531034692,0.8589207869274598,B,400.24190000258386,Correct,sub_005_day_12_data.csv,1,300,137.0,Training at home,,,,,,,,,,,,,
5,15,3448,A,19.182225411694365,49.31182531169418,0.9591112705847182,0.7745883406716081,A,543.9544999971986,Correct,sub_005_day_12_data.csv,1,300,137.0,Training at home,,,,,,,,,,,,,
5,15,3449,A,43.29031189125145,61.74797217481609,2.1645155945625727,0.969934878792346,A,501.51879992336035,Correct,sub_005_day_12_data.csv,1,300,137.0,Training at home,,,,,,,,,,,,,
5,15,3450,B,79.55372665113875,56.61023190403915,3.977686332556937,0.8892314433387196,B,508.2884000148624,Correct,sub_005_day_12_data.csv,1,300,138.0,Training at home,,,,,,,,,,,,,
5,15,3451,B,65.35398088022927,45.18425419121205,3.2676990440114637,0.709752605125228,B,500.8929001633078,Correct,sub_005_day_12_data.csv,1,300,138.0,Training at home,,,,,,,,,,,,,
5,15,3452,B,64.41314845066036,41.40244655995903,3.2206574225330176,0.6503481097670565,B,637.3276000376791,Correct,sub_005_day_12_data.csv,1,300,138.0,Training at home,,,,,,,,,,,,,
5,15,3453,A,35.31838426874649,46.6074230019333,1.7659192134373245,0.732107688528128,A,432.1399000473321,Correct,sub_005_day_12_data.csv,1,300,138.0,Training at home,,,,,,,,,,,,,
5,15,3454,B,62.932906888762965,40.57586946756075,3.146645344438148,0.6373642671615362,B,603.6906000226736,Correct,sub_005_day_12_data.csv,1,300,138.0,Training at home,,,,,,,,,,,,,
5,15,3455,B,62.14459550572904,45.11640815878114,3.1072297752864517,0.7086868821399273,B,661.2660000100732,Correct,sub_005_day_12_data.csv,1,300,138.0,Training at home,,,,,,,,,,,,,
5,15,3456,A,19.514978083841736,49.793721672270536,0.9757489041920868,0.7821579510024999,A,660.9475000295788,Correct,sub_005_day_12_data.csv,1,300,138.0,Training at home,,,,,,,,,,,,,
5,15,3457,B,86.1362764684965,61.35446650555458,4.306813823424825,0.9637537061938566,B,461.36340009979904,Correct,sub_005_day_12_data.csv,1,300,138.0,Training at home,,,,,,,,,,,,,
5,15,3458,B,38.07753582036497,21.99434555530304,1.9038767910182488,0.3454863720852767,B,704.5042999088764,Correct,sub_005_day_12_data.csv,1,300,138.0,Training at home,,,,,,,,,,,,,
5,15,3459,B,55.83850442075455,32.47218100171238,2.7919252210377277,0.5100718264050883,B,440.4261999297887,Correct,sub_005_day_12_data.csv,1,300,138.0,Training at home,,,,,,,,,,,,,
5,15,3460,A,39.53762835467018,69.68865550874,1.976881417733509,1.0946668409240372,A,636.1077998299152,Correct,sub_005_day_12_data.csv,1,300,138.0,Training at home,,,,,,,,,,,,,
5,15,3461,B,78.64114815988616,48.59530773068386,3.932057407994307,0.7633333088282584,B,540.4870000202209,Correct,sub_005_day_12_data.csv,1,300,138.0,Training at home,,,,,,,,,,,,,
5,15,3462,B,59.61505969881952,50.96878651101111,2.980752984940976,0.8006158263268952,B,376.4344002120197,Correct,sub_005_day_12_data.csv,1,300,138.0,Training at home,,,,,,,,,,,,,
5,15,3463,B,76.92789606512522,49.262808423283886,3.846394803256261,0.7738183851889502,B,920.4835998825728,Correct,sub_005_day_12_data.csv,1,300,138.0,Training at home,,,,,,,,,,,,,
5,15,3464,B,35.545481170685434,14.85954028294189,1.7772740585342717,0.2334131129430591,B,1002.6591001078486,Correct,sub_005_day_12_data.csv,1,300,138.0,Training at home,,,,,,,,,,,,,
5,15,3465,A,47.92115163752908,60.65088592041066,2.396057581876454,0.9527018882063736,A,445.83930005319417,Correct,sub_005_day_12_data.csv,1,300,138.0,Training at home,,,,,,,,,,,,,
5,15,3466,A,50.37500584374533,72.97769906302705,2.518750292187266,1.1463310162614624,B,369.444299954921,Incorrect,sub_005_day_12_data.csv,0,300,138.0,Training at home,,,,,,,,,,,,,
5,15,3467,B,34.31370739823441,15.343451396492217,1.7156853699117207,0.24101437093966,B,581.1054999940097,Correct,sub_005_day_12_data.csv,1,300,138.0,Training at home,,,,,,,,,,,,,
5,15,3468,A,68.93504433402435,85.90886567205659,3.446752216701218,1.349453306367827,A,503.584599820897,Correct,sub_005_day_12_data.csv,1,300,138.0,Training at home,,,,,,,,,,,,,
5,15,3469,B,68.0511866058859,53.177734172782856,3.402559330294295,0.8353138950588276,B,453.9340001065284,Correct,sub_005_day_12_data.csv,1,300,138.0,Training at home,,,,,,,,,,,,,
5,15,3470,A,56.46985412920233,67.06298567663165,2.8234927064601165,1.0534229156475177,A,513.9009999111295,Correct,sub_005_day_12_data.csv,1,300,138.0,Training at home,,,,,,,,,,,,,
5,15,3471,B,66.93285880366875,38.53187394022294,3.3466429401834374,0.6052572604982619,B,373.87290014885366,Correct,sub_005_day_12_data.csv,1,300,138.0,Training at home,,,,,,,,,,,,,
5,15,3472,A,34.585654153806324,52.71761883723935,1.7292827076903163,0.8280864202690901,A,447.27179990150034,Correct,sub_005_day_12_data.csv,1,300,138.0,Training at home,,,,,,,,,,,,,
5,15,3473,B,55.43773143258544,33.14384309082214,2.771886571629272,0.5206222698292982,B,363.9277999754995,Correct,sub_005_day_12_data.csv,1,300,138.0,Training at home,,,,,,,,,,,,,
5,15,3474,B,58.04243530616685,30.036310600388745,2.902121765308342,0.4718092636156126,B,371.41350004822016,Correct,sub_005_day_12_data.csv,1,300,138.0,Training at home,,,,,,,,,,,,,
5,15,3475,B,50.68520235694732,28.160275801644467,2.534260117847366,0.4423405779075434,B,391.814999980852,Correct,sub_005_day_12_data.csv,1,300,139.0,Training at home,,,,,,,,,,,,,
5,15,3476,B,70.7432744616924,58.52639198449833,3.53716372308462,0.9193304154980826,B,453.953699907288,Correct,sub_005_day_12_data.csv,1,300,139.0,Training at home,,,,,,,,,,,,,
5,15,3477,A,37.36396630365815,56.127091635741195,1.8681983151829076,0.8816422937510282,A,697.4696000106633,Correct,sub_005_day_12_data.csv,1,300,139.0,Training at home,,,,,,,,,,,,,
5,15,3478,A,42.473390440935454,52.735724304651605,2.1236695220467725,0.8283708202861509,B,457.5907001271844,Incorrect,sub_005_day_12_data.csv,0,300,139.0,Training at home,,,,,,,,,,,,,
5,15,3479,A,35.25970466056627,65.69629052729542,1.7629852330283138,1.03195491844326,A,874.7634999454021,Correct,sub_005_day_12_data.csv,1,300,139.0,Training at home,,,,,,,,,,,,,
5,15,3480,A,35.75340763766193,43.914241687571426,1.7876703818830963,0.6898032953682051,A,666.1405998747796,Correct,sub_005_day_12_data.csv,1,300,139.0,Training at home,,,,,,,,,,,,,
5,15,3481,A,44.824999066481595,65.93965805244383,2.24124995332408,1.035777726588903,A,579.6556000132114,Correct,sub_005_day_12_data.csv,1,300,139.0,Training at home,,,,,,,,,,,,,
5,15,3482,B,68.8897468217461,56.43963248418032,3.4444873410873047,0.8865516739180437,B,414.8246999830008,Correct,sub_005_day_12_data.csv,1,300,139.0,Training at home,,,,,,,,,,,,,
5,15,3483,A,46.27461499127844,64.4545759734109,2.313730749563922,1.0124501118415643,A,496.10230000689626,Correct,sub_005_day_12_data.csv,1,300,139.0,Training at home,,,,,,,,,,,,,
5,15,3484,A,20.056234159664314,44.71296595802319,1.0028117079832155,0.7023496268696808,A,438.92079987563193,Correct,sub_005_day_12_data.csv,1,300,139.0,Training at home,,,,,,,,,,,,,
5,15,3485,A,58.57825968045668,82.83163122741746,2.928912984022834,1.3011162207445677,A,489.10959996283054,Correct,sub_005_day_12_data.csv,1,300,139.0,Training at home,,,,,,,,,,,,,
5,15,3486,A,67.341326930608,87.35674746192115,3.3670663465304007,1.3721965803393512,A,470.606500050053,Correct,sub_005_day_12_data.csv,1,300,139.0,Training at home,,,,,,,,,,,,,
5,15,3487,A,40.5903151342148,60.83769180822094,2.02951575671074,0.955636228230334,A,520.4590000212193,Correct,sub_005_day_12_data.csv,1,300,139.0,Training at home,,,,,,,,,,,,,
5,15,3488,B,50.57438658814715,31.16243249601265,2.5287193294073576,0.4894983449873058,B,418.8329998869449,Correct,sub_005_day_12_data.csv,1,300,139.0,Training at home,,,,,,,,,,,,,
5,15,3489,A,31.44442463236747,50.06797202782974,1.5722212316183737,0.7864658655138458,A,583.4093000739813,Correct,sub_005_day_12_data.csv,1,300,139.0,Training at home,,,,,,,,,,,,,
5,15,3490,A,33.146615956102295,54.70272868006068,1.6573307978051148,0.8592684527629716,A,493.167000124231,Correct,sub_005_day_12_data.csv,1,300,139.0,Training at home,,,,,,,,,,,,,
5,15,3491,A,46.26526929794244,53.458930062827896,2.3132634648971218,0.8397309097707533,B,671.0907998494804,Incorrect,sub_005_day_12_data.csv,0,300,139.0,Training at home,,,,,,,,,,,,,
5,15,3492,B,42.52136268973635,20.791465596091474,2.1260681344868173,0.3265915778702295,B,463.36860000155866,Correct,sub_005_day_12_data.csv,1,300,139.0,Training at home,,,,,,,,,,,,,
5,15,3493,B,62.37248274906026,51.29002142628636,3.118624137453013,0.8056617725764216,B,446.6305999085307,Correct,sub_005_day_12_data.csv,1,300,139.0,Training at home,,,,,,,,,,,,,
5,15,3494,B,63.05229907288511,54.593393335823826,3.152614953644256,0.8575510171918107,B,415.9178000409156,Correct,sub_005_day_12_data.csv,1,300,139.0,Training at home,,,,,,,,,,,,,
5,15,3495,A,45.78885253927391,61.95547615500359,2.2894426269636954,0.9731943436910844,A,635.5784998741001,Correct,sub_005_day_12_data.csv,1,300,139.0,Training at home,,,,,,,,,,,,,
5,15,3496,A,53.66262528730343,66.60793868133165,2.683131264365171,1.0462750541601546,A,488.0886999890208,Correct,sub_005_day_12_data.csv,1,300,139.0,Training at home,,,,,,,,,,,,,
5,15,3497,A,24.58964759327211,51.175950926799416,1.2294823796636054,0.8038699573605241,A,452.5968001689762,Correct,sub_005_day_12_data.csv,1,300,139.0,Training at home,,,,,,,,,,,,,
5,15,3498,A,47.80928482840371,55.90053610856841,2.3904642414201858,0.8780835678520476,A,470.5589001532644,Correct,sub_005_day_12_data.csv,1,300,139.0,Training at home,,,,,,,,,,,,,
5,15,3499,B,72.04166613258236,44.53321222097665,3.602083306629118,0.6995260617708772,B,418.04079990834,Correct,sub_005_day_12_data.csv,1,300,139.0,Training at home,,,,,,,,,,,,,
5,15,3500,B,55.34631460924796,47.78767193633252,2.767315730462398,0.7506469954367069,A,620.9922998677939,Incorrect,sub_005_day_12_data.csv,0,300,140.0,Training at home,,,,,,,,,,,,,
5,15,3501,A,24.50543127805156,41.06047245435357,1.225271563902578,0.6449763930776162,A,466.58560005016625,Correct,sub_005_day_12_data.csv,1,300,140.0,Training at home,,,,,,,,,,,,,
5,15,3502,A,44.51136983427625,51.87249120556848,2.2255684917138128,0.8148111864740754,B,862.6929998863488,Incorrect,sub_005_day_12_data.csv,0,300,140.0,Training at home,,,,,,,,,,,,,
5,15,3503,A,25.79778759405308,53.771728644663995,1.289889379702654,0.8446443384045013,A,457.56200002506375,Correct,sub_005_day_12_data.csv,1,300,140.0,Training at home,,,,,,,,,,,,,
5,15,3504,A,45.17264422653157,52.69050698719901,2.2586322113265784,0.8276605483245304,A,1033.8415999431163,Correct,sub_005_day_12_data.csv,1,300,140.0,Training at home,,,,,,,,,,,,,
5,15,3505,B,49.68129098816388,33.088357574302925,2.484064549408194,0.5197507053739113,B,490.33350008539855,Correct,sub_005_day_12_data.csv,1,300,140.0,Training at home,,,,,,,,,,,,,
5,15,3506,A,33.56533244929649,47.566923786920135,1.6782666224648244,0.7471794916142694,A,930.0824000965804,Correct,sub_005_day_12_data.csv,1,300,140.0,Training at home,,,,,,,,,,,,,
5,15,3507,A,26.063372496915512,50.90849008078941,1.3031686248457757,0.7996686922157844,A,564.7174001205713,Correct,sub_005_day_12_data.csv,1,300,140.0,Training at home,,,,,,,,,,,,,
5,15,3508,B,35.22356450118296,22.374435146685517,1.7611782250591483,0.3514568054252424,B,519.7884000372142,Correct,sub_005_day_12_data.csv,1,300,140.0,Training at home,,,,,,,,,,,,,
5,15,3509,A,60.272750473984345,69.57058442271779,3.013637523699217,1.0928121846417935,B,535.670799901709,Incorrect,sub_005_day_12_data.csv,0,300,140.0,Training at home,,,,,,,,,,,,,
5,15,3510,B,64.69900887902763,35.593022746664055,3.234950443951382,0.559093893899871,B,515.5273999553174,Correct,sub_005_day_12_data.csv,1,300,140.0,Training at home,,,,,,,,,,,,,
5,15,3511,B,66.34913269915971,36.313064292117375,3.3174566349579857,0.570404280047249,B,409.4577000942081,Correct,sub_005_day_12_data.csv,1,300,140.0,Training at home,,,,,,,,,,,,,
5,15,3512,A,14.387505406520187,39.699391857546814,0.7193752703260095,0.6235965890582575,A,472.3692999687046,Correct,sub_005_day_12_data.csv,1,300,140.0,Training at home,,,,,,,,,,,,,
5,15,3513,B,37.772501374452666,15.32727996361242,1.8886250687226336,0.240760350665994,B,481.6990001127124,Correct,sub_005_day_12_data.csv,1,300,140.0,Training at home,,,,,,,,,,,,,
5,15,3514,B,74.40365096285123,41.68324606583902,3.7201825481425614,0.6547588980910776,B,527.8940999414772,Correct,sub_005_day_12_data.csv,1,300,140.0,Training at home,,,,,,,,,,,,,
5,15,3515,B,49.36171002893436,20.92889854921768,2.4680855014467182,0.3287503696497417,B,388.66840000264347,Correct,sub_005_day_12_data.csv,1,300,140.0,Training at home,,,,,,,,,,,,,
5,15,3516,B,68.51298431431726,37.53559208651952,3.425649215715863,0.5896077017357645,B,519.4280000869185,Correct,sub_005_day_12_data.csv,1,300,140.0,Training at home,,,,,,,,,,,,,
5,15,3517,A,32.135740887412865,57.74921457063808,1.6067870443706431,0.9071225412284862,A,435.0521999876946,Correct,sub_005_day_12_data.csv,1,300,140.0,Training at home,,,,,,,,,,,,,
5,15,3518,A,51.009131797542615,68.07845856404118,2.5504565898771308,1.0693739264625446,B,496.19629979133606,Incorrect,sub_005_day_12_data.csv,0,300,140.0,Training at home,,,,,,,,,,,,,
5,15,3519,B,70.40430628006702,50.147082725343445,3.520215314003351,0.787708533444493,B,485.3842998854816,Correct,sub_005_day_12_data.csv,1,300,140.0,Training at home,,,,,,,,,,,,,
5,15,3520,B,86.82651137622477,60.93639497845744,4.341325568811238,0.9571866540028392,B,534.4338999129832,Correct,sub_005_day_12_data.csv,1,300,140.0,Training at home,,,,,,,,,,,,,
5,15,3521,B,33.23475778061048,11.243815230896065,1.661737889030524,0.1766174366385205,B,641.9329000636935,Correct,sub_005_day_12_data.csv,1,300,140.0,Training at home,,,,,,,,,,,,,
5,15,3522,B,53.85015256664771,42.73046650584646,2.692507628332385,0.6712085982961598,B,378.7089998368174,Correct,sub_005_day_12_data.csv,1,300,140.0,Training at home,,,,,,,,,,,,,
5,15,3523,A,48.13149510083069,70.53422343352555,2.4065747550415346,1.1079489908271247,A,501.8192999996245,Correct,sub_005_day_12_data.csv,1,300,140.0,Training at home,,,,,,,,,,,,,
5,15,3524,B,48.102271401521485,27.46806034092791,2.405113570076074,0.4314672828771013,B,384.85029991716146,Correct,sub_005_day_12_data.csv,1,300,140.0,Training at home,,,,,,,,,,,,,
5,15,3525,B,45.173881324006715,19.942940528971658,2.2586940662003356,0.3132629772839775,B,411.02869994938374,Correct,sub_005_day_12_data.csv,1,300,141.0,Training at home,,,,,,,,,,,,,
5,15,3526,B,63.829612737359525,48.4119136264129,3.1914806368679765,0.7604525609748118,B,403.16680003888905,Correct,sub_005_day_12_data.csv,1,300,141.0,Training at home,,,,,,,,,,,,,
5,15,3527,B,58.16800329708696,38.881026257174646,2.9084001648543483,0.6107417322678586,B,438.9210001099854,Correct,sub_005_day_12_data.csv,1,300,141.0,Training at home,,,,,,,,,,,,,
5,15,3528,B,43.73601720378514,27.493847295517178,2.186800860189257,0.4318723434125818,B,445.854099933058,Correct,sub_005_day_12_data.csv,1,300,141.0,Training at home,,,,,,,,,,,,,
5,15,3529,B,49.865267857688735,39.081493722622355,2.4932633928844368,0.61389066785153,B,591.7326000053436,Correct,sub_005_day_12_data.csv,1,300,141.0,Training at home,,,,,,,,,,,,,
5,15,3530,A,67.57943151823386,83.22980461373568,3.378971575911693,1.3073707136711294,A,590.0981000158936,Correct,sub_005_day_12_data.csv,1,300,141.0,Training at home,,,,,,,,,,,,,
5,15,3531,A,29.79535921673367,58.928819335134754,1.4897679608366834,0.9256517295398974,A,585.0543999113142,Correct,sub_005_day_12_data.csv,1,300,141.0,Training at home,,,,,,,,,,,,,
5,15,3532,A,54.890514510118955,69.49000537001166,2.7445257255059476,1.0915464518417193,A,597.7611998096108,Correct,sub_005_day_12_data.csv,1,300,141.0,Training at home,,,,,,,,,,,,,
5,15,3533,A,27.182203077559663,46.693237952210616,1.3591101538779833,0.7334556666149249,A,544.2713000811636,Correct,sub_005_day_12_data.csv,1,300,141.0,Training at home,,,,,,,,,,,,,
5,15,3534,A,53.32282904135299,62.72356795233118,2.666141452067649,0.9852595014299188,A,680.1754001062363,Correct,sub_005_day_12_data.csv,1,300,141.0,Training at home,,,,,,,,,,,,,
5,15,3535,B,77.86834961682645,51.905274513876144,3.893417480841322,0.8153261454767741,B,471.715799998492,Correct,sub_005_day_12_data.csv,1,300,141.0,Training at home,,,,,,,,,,,,,
5,15,3536,B,49.34345058243774,39.08088903277513,2.4671725291218873,0.6138811694056213,B,545.7226999569684,Correct,sub_005_day_12_data.csv,1,300,141.0,Training at home,,,,,,,,,,,,,
5,15,3537,A,14.942800276447624,43.67078560820664,0.7471400138223813,0.6859790962161842,A,544.921400025487,Correct,sub_005_day_12_data.csv,1,300,141.0,Training at home,,,,,,,,,,,,,
5,15,3538,A,47.680398121771375,77.12120669714074,2.3840199060885685,1.2114170819785866,A,539.7423999384046,Correct,sub_005_day_12_data.csv,1,300,141.0,Training at home,,,,,,,,,,,,,
5,15,3539,A,64.48013413883334,79.47864626996672,3.224006706941667,1.2484476561949462,A,765.9157000016421,Correct,sub_005_day_12_data.csv,1,300,141.0,Training at home,,,,,,,,,,,,,
5,15,3540,B,36.13011468039046,11.391635353363938,1.8065057340195232,0.1789393896925095,B,546.170299872756,Correct,sub_005_day_12_data.csv,1,300,141.0,Training at home,,,,,,,,,,,,,
5,15,3541,B,63.58726631151439,44.6638934363106,3.1793633155757197,0.7015787975011539,B,531.4172999933362,Correct,sub_005_day_12_data.csv,1,300,141.0,Training at home,,,,,,,,,,,,,
5,15,3542,A,54.42591844495248,68.57116593644474,2.721295922247624,1.0771133557701074,B,551.6546000726521,Incorrect,sub_005_day_12_data.csv,0,300,141.0,Training at home,,,,,,,,,,,,,
5,15,3543,A,53.58650104058092,74.874285454931,2.6793250520290464,1.1761225256399817,A,705.549799837172,Correct,sub_005_day_12_data.csv,1,300,141.0,Training at home,,,,,,,,,,,,,
5,15,3544,A,25.79046177455685,46.00240387200222,1.2895230887278422,0.722604070258764,A,468.0600999854505,Correct,sub_005_day_12_data.csv,1,300,141.0,Training at home,,,,,,,,,,,,,
5,15,3545,B,82.75959206436964,61.749880585141014,4.137979603218482,0.96996485603163,B,489.7751999087632,Correct,sub_005_day_12_data.csv,1,300,141.0,Training at home,,,,,,,,,,,,,
5,15,3546,B,46.08877809816984,20.88958539234184,2.304438904908492,0.3281328400255889,B,543.0766001809388,Correct,sub_005_day_12_data.csv,1,300,141.0,Training at home,,,,,,,,,,,,,
5,15,3547,A,31.55577832463699,45.70042326257925,1.5777889162318497,0.7178605699383152,A,521.8134999740869,Correct,sub_005_day_12_data.csv,1,300,141.0,Training at home,,,,,,,,,,,,,
5,15,3548,B,72.09554168129402,48.27829250752371,3.6047770840647018,0.7583536453474783,B,452.00829999521375,Correct,sub_005_day_12_data.csv,1,300,141.0,Training at home,,,,,,,,,,,,,
5,15,3549,A,18.516881748797687,44.57546622408116,0.9258440874398844,0.7001897860995666,A,393.0273000150919,Correct,sub_005_day_12_data.csv,1,300,141.0,Training at home,,,,,,,,,,,,,
5,15,3550,B,65.6270923847367,49.46957490239418,3.2813546192368346,0.7770662654478577,B,471.47849993780255,Correct,sub_005_day_12_data.csv,1,300,142.0,Training at home,,,,,,,,,,,,,
5,15,3551,A,57.13311439237043,81.18632918972554,2.8566557196185216,1.275271876771822,A,522.9657001327723,Correct,sub_005_day_12_data.csv,1,300,142.0,Training at home,,,,,,,,,,,,,
5,15,3552,B,63.86915332201655,40.64180132537636,3.193457666100828,0.6383999223622915,B,354.5901000034064,Correct,sub_005_day_12_data.csv,1,300,142.0,Training at home,,,,,,,,,,,,,
5,15,3553,B,65.53782129028028,41.55123136735626,3.2768910645140137,0.652685216056481,B,370.34790008328855,Correct,sub_005_day_12_data.csv,1,300,142.0,Training at home,,,,,,,,,,,,,
5,15,3554,B,45.563911094515525,18.96060750104337,2.278195554725776,0.2978325261643869,B,441.31659995764494,Correct,sub_005_day_12_data.csv,1,300,142.0,Training at home,,,,,,,,,,,,,
5,15,3555,A,17.231763349208208,44.980860217465406,0.8615881674604104,0.7065577000566936,A,432.5035000219941,Correct,sub_005_day_12_data.csv,1,300,142.0,Training at home,,,,,,,,,,,,,
5,15,3556,A,20.915609734031296,41.64612298940264,1.0457804867015648,0.6541757701700217,A,470.0299000833183,Correct,sub_005_day_12_data.csv,1,300,142.0,Training at home,,,,,,,,,,,,,
5,15,3557,B,68.33857802859066,58.21811965278067,3.4169289014295328,0.9144880850349366,B,476.174300070852,Correct,sub_005_day_12_data.csv,1,300,142.0,Training at home,,,,,,,,,,,,,
5,15,3558,A,21.687259521882957,36.39682588054141,1.084362976094148,0.5717200040014786,A,834.4332999549806,Correct,sub_005_day_12_data.csv,1,300,142.0,Training at home,,,,,,,,,,,,,
5,15,3559,A,22.53023764482015,43.37629316076963,1.1265118822410076,0.6813532196691553,A,1148.281899979338,Correct,sub_005_day_12_data.csv,1,300,142.0,Training at home,,,,,,,,,,,,,
5,15,3560,A,17.41062693243976,39.04264600866668,0.8705313466219881,0.6132804493876705,A,472.0433000475168,Correct,sub_005_day_12_data.csv,1,300,142.0,Training at home,,,,,,,,,,,,,
5,15,3561,B,66.01713725338566,54.55604771220053,3.300856862669283,0.856964393507717,B,556.3369998708367,Correct,sub_005_day_12_data.csv,1,300,142.0,Training at home,,,,,,,,,,,,,
5,15,3562,B,63.84830523272404,36.641874281367485,3.1924152616362016,0.5755692152805243,B,527.4834001902491,Correct,sub_005_day_12_data.csv,1,300,142.0,Training at home,,,,,,,,,,,,,
5,15,3563,A,37.696501064062325,45.80146292651132,1.884825053203116,0.7194476972679662,B,572.3507001530379,Incorrect,sub_005_day_12_data.csv,0,300,142.0,Training at home,,,,,,,,,,,,,
5,15,3564,A,15.296712828324914,30.464933315273484,0.7648356414162457,0.4785420534768305,A,466.88259998336434,Correct,sub_005_day_12_data.csv,1,300,142.0,Training at home,,,,,,,,,,,,,
5,15,3565,A,25.938291290594897,39.5384358969104,1.2969145645297449,0.6210682987408234,A,447.2946999594569,Correct,sub_005_day_12_data.csv,1,300,142.0,Training at home,,,,,,,,,,,,,
5,15,3566,B,53.09395699297865,33.03473432191232,2.654697849648932,0.5189083932950516,B,504.80699981562793,Correct,sub_005_day_12_data.csv,1,300,142.0,Training at home,,,,,,,,,,,,,
5,15,3567,A,34.92394216057709,45.87143720577898,1.7461971080288547,0.720546850676404,A,859.8775998689234,Correct,sub_005_day_12_data.csv,1,300,142.0,Training at home,,,,,,,,,,,,,
5,15,3568,B,46.633882446731086,29.58057535518337,2.3316941223365544,0.4646505911240167,B,470.2920999843627,Correct,sub_005_day_12_data.csv,1,300,142.0,Training at home,,,,,,,,,,,,,
5,15,3569,A,57.781453506340725,67.53668294165755,2.889072675317036,1.0608637348866723,A,681.4729999750853,Correct,sub_005_day_12_data.csv,1,300,142.0,Training at home,,,,,,,,,,,,,
5,15,3570,A,28.048346046099507,47.98058895149306,1.4024173023049753,0.753677328824611,A,438.0032999906689,Correct,sub_005_day_12_data.csv,1,300,142.0,Training at home,,,,,,,,,,,,,
5,15,3571,A,63.180437337195706,78.04133511682406,3.159021866859785,1.2258704253967678,A,1053.6203000228852,Correct,sub_005_day_12_data.csv,1,300,142.0,Training at home,,,,,,,,,,,,,
5,15,3572,B,83.93166699676783,66.75498163938154,4.1965833498383915,1.0485847995440127,B,552.465399960056,Correct,sub_005_day_12_data.csv,1,300,142.0,Training at home,,,,,,,,,,,,,
5,15,3573,B,56.86746859023615,43.94518889209351,2.8433734295118076,0.6902894129200837,A,493.77089994959533,Incorrect,sub_005_day_12_data.csv,0,300,142.0,Training at home,,,,,,,,,,,,,
5,15,3574,A,29.15872259876793,56.036618493384246,1.4579361299383964,0.8802211449541495,A,720.643499866128,Correct,sub_005_day_12_data.csv,1,300,142.0,Training at home,,,,,,,,,,,,,
5,15,3575,B,30.794444940160904,14.660996480843613,1.5397222470080454,0.2302943941926205,B,892.6276999991387,Correct,sub_005_day_12_data.csv,1,300,143.0,Training at home,,,,,,,,,,,,,
5,15,3576,B,74.42152290686904,63.22022314497336,3.721076145343452,0.9930609429527788,B,784.3891999218613,Correct,sub_005_day_12_data.csv,1,300,143.0,Training at home,,,,,,,,,,,,,
5,15,3577,A,42.79280430329889,55.52765778744662,2.139640215164944,0.8722264088804519,A,1019.671200076118,Correct,sub_005_day_12_data.csv,1,300,143.0,Training at home,,,,,,,,,,,,,
5,15,3578,A,41.87385588839333,60.228468096983754,2.0936927944196664,0.9460665645522568,A,522.4600001238286,Correct,sub_005_day_12_data.csv,1,300,143.0,Training at home,,,,,,,,,,,,,
5,15,3579,B,43.92465384222055,27.701857518560235,2.1962326921110273,0.4351397603555001,B,461.86410007067025,Correct,sub_005_day_12_data.csv,1,300,143.0,Training at home,,,,,,,,,,,,,
5,15,3580,A,21.147597054840617,44.73313095407229,1.0573798527420308,0.7026663778869183,A,421.4139999821782,Correct,sub_005_day_12_data.csv,1,300,143.0,Training at home,,,,,,,,,,,,,
5,15,3581,B,33.732901764352036,14.823388100738718,1.6866450882176018,0.2328452357929555,B,483.8775999378413,Correct,sub_005_day_12_data.csv,1,300,143.0,Training at home,,,,,,,,,,,,,
5,15,3582,A,63.09001595845511,84.3288057401996,3.154500797922756,1.3246337829970591,A,653.3918001223356,Correct,sub_005_day_12_data.csv,1,300,143.0,Training at home,,,,,,,,,,,,,
5,15,3583,B,79.65924132817415,55.95598060692097,3.982962066408707,0.8789544879955791,B,432.7215999364853,Correct,sub_005_day_12_data.csv,1,300,143.0,Training at home,,,,,,,,,,,,,
5,15,3584,B,55.734903380021976,30.310237641817327,2.786745169001099,0.4761120995204706,B,569.906200049445,Correct,sub_005_day_12_data.csv,1,300,143.0,Training at home,,,,,,,,,,,,,
5,15,3585,A,43.43940604103625,75.58021411471411,2.1719703020518124,1.1872112270976471,A,1278.485900023952,Correct,sub_005_day_12_data.csv,1,300,143.0,Training at home,,,,,,,,,,,,,
5,15,3586,B,45.597893671174894,28.277367189177884,2.279894683558745,0.4441798451219115,B,429.2200000490993,Correct,sub_005_day_12_data.csv,1,300,143.0,Training at home,,,,,,,,,,,,,
5,15,3587,A,27.359754763472218,51.972306403058056,1.3679877381736107,0.8163790799298248,A,403.4500999841839,Correct,sub_005_day_12_data.csv,1,300,143.0,Training at home,,,,,,,,,,,,,
5,15,3588,A,58.15775221625505,83.1206873134098,2.9078876108127525,1.3056567031257127,A,458.51279981434345,Correct,sub_005_day_12_data.csv,1,300,143.0,Training at home,,,,,,,,,,,,,
5,15,3589,A,50.30831803910037,81.1065457305058,2.515415901955018,1.274018641125008,A,505.42509998194873,Correct,sub_005_day_12_data.csv,1,300,143.0,Training at home,,,,,,,,,,,,,
5,15,3590,A,13.982982716853986,35.763010621735674,0.6991491358426992,0.5617640571974927,A,487.7003999426961,Correct,sub_005_day_12_data.csv,1,300,143.0,Training at home,,,,,,,,,,,,,
5,15,3591,A,56.96776105964809,82.62178045906487,2.8483880529824046,1.2978198925835347,A,402.7924998663366,Correct,sub_005_day_12_data.csv,1,300,143.0,Training at home,,,,,,,,,,,,,
5,15,3592,A,62.292955772128835,86.97601690471744,3.1146477886064416,1.3662160787318098,A,385.6929999310523,Correct,sub_005_day_12_data.csv,1,300,143.0,Training at home,,,,,,,,,,,,,
5,15,3593,B,73.47480575748322,57.747950553140754,3.6737402878741614,0.9071026860880682,B,587.0904999319464,Correct,sub_005_day_12_data.csv,1,300,143.0,Training at home,,,,,,,,,,,,,
5,15,3594,B,37.91203534080371,26.23647389466848,1.8956017670401857,0.4121215682179543,A,450.3313999157399,Incorrect,sub_005_day_12_data.csv,0,300,143.0,Training at home,,,,,,,,,,,,,
5,15,3595,B,73.17100848507734,55.910790501939616,3.6585504242538662,0.8782446434864574,B,487.0534997899085,Correct,sub_005_day_12_data.csv,1,300,143.0,Training at home,,,,,,,,,,,,,
5,15,3596,A,41.74814801369289,64.29470571651915,2.0874074006846444,1.009938875718671,A,809.9287999793887,Correct,sub_005_day_12_data.csv,1,300,143.0,Training at home,,,,,,,,,,,,,
5,15,3597,B,49.595727582565,33.10715385576624,2.47978637912825,0.5200459566727111,B,719.2781998310238,Correct,sub_005_day_12_data.csv,1,300,143.0,Training at home,,,,,,,,,,,,,
5,15,3598,B,68.42653340551239,37.93620220148203,3.421326670275619,0.5959004707063644,B,459.07049998641014,Correct,sub_005_day_12_data.csv,1,300,143.0,Training at home,,,,,,,,,,,,,
5,15,3599,B,61.53267629983161,38.225228087228544,3.0766338149915806,0.6004404787031571,B,387.7626999747008,Correct,sub_005_day_12_data.csv,1,300,143.0,Training at home,,,,,,,,,,,,,
