subject,day,trial,cat,x,y,xt,yt,resp,rt,fb,f_name,acc,n_trials,block,session_type,ns_left_digit,ns_right_digit,ns_left_size,ns_right_size,ns_congruent,ns_cue,ns_correct_side,ns_resp,ns_rt,ns_fb,acc_stroop,acc_stroop_mean,resp_key
5,7,1200,B,80.47523391725855,60.12821765785374,4.023761695862928,0.9444918343368068,B,577.9946998227388,Correct,sub_005_day_05_data.csv,1,300,48.0,Training at home,,,,,,,,,,,,,
5,7,1201,B,85.29154796274301,68.73537105406012,4.264577398137151,1.079692683726019,B,852.7889000251889,Correct,sub_005_day_05_data.csv,1,300,48.0,Training at home,,,,,,,,,,,,,
5,7,1202,A,43.51165880139079,75.09701708510653,2.1755829400695395,1.1796211859053891,A,797.4178001750261,Correct,sub_005_day_05_data.csv,1,300,48.0,Training at home,,,,,,,,,,,,,
5,7,1203,A,63.9315787952786,82.60761947155407,3.19657893976393,1.2975974523118774,A,719.113300088793,Correct,sub_005_day_05_data.csv,1,300,48.0,Training at home,,,,,,,,,,,,,
5,7,1204,B,41.78477926635151,18.354179301866136,2.0892389633175754,0.2883067742870625,B,834.7561000846326,Correct,sub_005_day_05_data.csv,1,300,48.0,Training at home,,,,,,,,,,,,,
5,7,1205,A,21.071821359612688,37.64656487310209,1.0535910679806344,0.5913508581911455,A,530.7275999803096,Correct,sub_005_day_05_data.csv,1,300,48.0,Training at home,,,,,,,,,,,,,
5,7,1206,A,47.016997787869535,56.03281470428354,2.350849889393477,0.8801613951746764,B,587.1669000480324,Incorrect,sub_005_day_05_data.csv,0,300,48.0,Training at home,,,,,,,,,,,,,
5,7,1207,A,58.433775750613705,71.36860687548793,2.921688787530685,1.1210554552848544,A,1069.1209000069648,Correct,sub_005_day_05_data.csv,1,300,48.0,Training at home,,,,,,,,,,,,,
5,7,1208,B,56.383086945603,24.767228437858563,2.8191543472801497,0.3890427145507834,B,609.8973001353443,Correct,sub_005_day_05_data.csv,1,300,48.0,Training at home,,,,,,,,,,,,,
5,7,1209,A,68.55130063680288,88.41285051477622,3.427565031840144,1.3887858083007676,A,677.517700009048,Correct,sub_005_day_05_data.csv,1,300,48.0,Training at home,,,,,,,,,,,,,
5,7,1210,A,56.16245705163206,68.09978943709937,2.8081228525816027,1.069708991033016,A,993.7394999433308,Correct,sub_005_day_05_data.csv,1,300,48.0,Training at home,,,,,,,,,,,,,
5,7,1211,A,53.81962261805526,65.41678038421283,2.6909811309027636,1.0275643833826995,B,760.9775001183152,Incorrect,sub_005_day_05_data.csv,0,300,48.0,Training at home,,,,,,,,,,,,,
5,7,1212,B,45.13250635432622,36.92238621883521,2.2566253177163107,0.5799754864904886,B,791.299199918285,Correct,sub_005_day_05_data.csv,1,300,48.0,Training at home,,,,,,,,,,,,,
5,7,1213,B,55.143869689846696,25.51922008761808,2.757193484492335,0.4008549717630102,B,617.9060998838395,Correct,sub_005_day_05_data.csv,1,300,48.0,Training at home,,,,,,,,,,,,,
5,7,1214,A,51.00648593344155,71.9267887453106,2.550324296672078,1.1298233555928638,A,646.5886000078171,Correct,sub_005_day_05_data.csv,1,300,48.0,Training at home,,,,,,,,,,,,,
5,7,1215,A,12.910149182063131,33.75705415831125,0.6455074591031567,0.5302545667529169,A,526.5271000098437,Correct,sub_005_day_05_data.csv,1,300,48.0,Training at home,,,,,,,,,,,,,
5,7,1216,B,64.49200448554959,50.34420199643132,3.2246002242774794,0.7908048757141463,B,620.2565999701619,Correct,sub_005_day_05_data.csv,1,300,48.0,Training at home,,,,,,,,,,,,,
5,7,1217,A,34.09453511682525,55.31305601455716,1.7047267558412624,0.8688554521146674,A,537.3172000981867,Correct,sub_005_day_05_data.csv,1,300,48.0,Training at home,,,,,,,,,,,,,
5,7,1218,B,47.63883835065468,26.04205280424044,2.381941917532734,0.4090676088709961,B,693.1264000013471,Correct,sub_005_day_05_data.csv,1,300,48.0,Training at home,,,,,,,,,,,,,
5,7,1219,A,41.30439685762599,53.82898653341585,2.0652198428812993,0.8455437432178157,A,602.673500077799,Correct,sub_005_day_05_data.csv,1,300,48.0,Training at home,,,,,,,,,,,,,
5,7,1220,B,47.27749514908672,25.442098482953284,2.3638747574543357,0.3996435484297703,B,724.8247000388801,Correct,sub_005_day_05_data.csv,1,300,48.0,Training at home,,,,,,,,,,,,,
5,7,1221,A,42.819487094842025,70.56208498616957,2.1409743547421014,1.108386639072645,A,574.7322000097483,Correct,sub_005_day_05_data.csv,1,300,48.0,Training at home,,,,,,,,,,,,,
5,7,1222,B,70.40645526508457,50.99271705045305,3.5203227632542284,0.8009917263614313,B,584.278300171718,Correct,sub_005_day_05_data.csv,1,300,48.0,Training at home,,,,,,,,,,,,,
5,7,1223,B,80.25045976872411,62.05434310660621,4.0125229884362055,0.9747473421352724,B,427.0426000002771,Correct,sub_005_day_05_data.csv,1,300,48.0,Training at home,,,,,,,,,,,,,
5,7,1224,B,65.8069345192454,32.613581143225375,3.29034672596227,0.5122929346340572,B,426.6072998289019,Correct,sub_005_day_05_data.csv,1,300,48.0,Training at home,,,,,,,,,,,,,
5,7,1225,A,17.798901424083425,39.825682856677965,0.8899450712041712,0.6255803634336823,A,463.4028000291437,Correct,sub_005_day_05_data.csv,1,300,49.0,Training at home,,,,,,,,,,,,,
5,7,1226,A,57.79047601768089,69.96687781598081,2.889523800884044,1.0990371467065,A,500.66720019094646,Correct,sub_005_day_05_data.csv,1,300,49.0,Training at home,,,,,,,,,,,,,
5,7,1227,A,49.80257198266404,72.01855707169784,2.490128599133202,1.1312648490929158,A,866.5561999659985,Correct,sub_005_day_05_data.csv,1,300,49.0,Training at home,,,,,,,,,,,,,
5,7,1228,B,45.40202369017665,27.588156226978228,2.270101184508832,0.4333537446438115,B,516.7178998235613,Correct,sub_005_day_05_data.csv,1,300,49.0,Training at home,,,,,,,,,,,,,
5,7,1229,B,45.56189424092385,15.596296653078074,2.278094712046192,0.2449860549425857,B,563.7197000905871,Correct,sub_005_day_05_data.csv,1,300,49.0,Training at home,,,,,,,,,,,,,
5,7,1230,B,86.39880733898453,61.1786340319842,4.3199403669492265,0.9609917361577004,B,606.6393000073731,Correct,sub_005_day_05_data.csv,1,300,49.0,Training at home,,,,,,,,,,,,,
5,7,1231,B,35.38658904303082,23.48709368665389,1.769329452151541,0.3689344049008352,A,635.3834997862577,Incorrect,sub_005_day_05_data.csv,0,300,49.0,Training at home,,,,,,,,,,,,,
5,7,1232,B,47.39285739057408,19.47993260158831,2.369642869528704,0.3059900657678707,B,693.9159999601543,Correct,sub_005_day_05_data.csv,1,300,49.0,Training at home,,,,,,,,,,,,,
5,7,1233,B,73.9038014771001,56.8966257754482,3.695190073855005,0.8937301077509787,A,553.2404000405222,Incorrect,sub_005_day_05_data.csv,0,300,49.0,Training at home,,,,,,,,,,,,,
5,7,1234,B,54.36432419934448,30.202292423012693,2.718216209967224,0.4744164999885367,B,683.2715999335051,Correct,sub_005_day_05_data.csv,1,300,49.0,Training at home,,,,,,,,,,,,,
5,7,1235,A,39.08056435896279,72.08843010495798,1.9540282179481392,1.1323624121327862,A,1443.6745999846607,Correct,sub_005_day_05_data.csv,1,300,49.0,Training at home,,,,,,,,,,,,,
5,7,1236,A,43.01265070696391,71.59341446275464,2.150632535348195,1.124586724607996,B,710.903299972415,Incorrect,sub_005_day_05_data.csv,0,300,49.0,Training at home,,,,,,,,,,,,,
5,7,1237,A,51.593656770002376,61.22877990264434,2.5796828385001187,0.9617794256520692,B,583.4243001881987,Incorrect,sub_005_day_05_data.csv,0,300,49.0,Training at home,,,,,,,,,,,,,
5,7,1238,B,71.11771859306559,50.4276765137882,3.5558859296532797,0.7921160903665978,B,634.8401999566704,Correct,sub_005_day_05_data.csv,1,300,49.0,Training at home,,,,,,,,,,,,,
5,7,1239,B,81.40184835034512,67.01336902647051,4.070092417517256,1.0526435391293076,B,581.6198999527842,Correct,sub_005_day_05_data.csv,1,300,49.0,Training at home,,,,,,,,,,,,,
5,7,1240,B,33.87917373118435,14.381918625893508,1.6939586865592176,0.2259106494981662,B,728.4274001140147,Correct,sub_005_day_05_data.csv,1,300,49.0,Training at home,,,,,,,,,,,,,
5,7,1241,B,74.72635235821905,54.94120144179958,3.736317617910952,0.8630143741447724,B,806.3578999135643,Correct,sub_005_day_05_data.csv,1,300,49.0,Training at home,,,,,,,,,,,,,
5,7,1242,B,62.348106921311064,51.28172159884812,3.1174053460655533,0.8055313991918914,B,434.5551000442356,Correct,sub_005_day_05_data.csv,1,300,49.0,Training at home,,,,,,,,,,,,,
5,7,1243,A,68.00709913417282,85.17313253121455,3.400354956708641,1.3378964372164672,A,734.9115998949856,Correct,sub_005_day_05_data.csv,1,300,49.0,Training at home,,,,,,,,,,,,,
5,7,1244,A,53.35855927924531,67.67081345293312,2.6679279639622653,1.0629706520309,A,1788.6402001604438,Correct,sub_005_day_05_data.csv,1,300,49.0,Training at home,,,,,,,,,,,,,
5,7,1245,A,35.36484847231043,46.02824821396938,1.7682424236155214,0.7230100322330685,B,541.1421000026166,Incorrect,sub_005_day_05_data.csv,0,300,49.0,Training at home,,,,,,,,,,,,,
5,7,1246,B,82.43840799797024,61.871289367650014,4.121920399898512,0.971871940727688,B,552.4338001850992,Correct,sub_005_day_05_data.csv,1,300,49.0,Training at home,,,,,,,,,,,,,
5,7,1247,B,80.68875703894852,63.45887466708937,4.034437851947427,0.9968096722960168,A,1411.545200040564,Incorrect,sub_005_day_05_data.csv,0,300,49.0,Training at home,,,,,,,,,,,,,
5,7,1248,A,52.803282310059174,77.94199053368689,2.6401641155029587,1.2243099243339797,A,712.8220000304282,Correct,sub_005_day_05_data.csv,1,300,49.0,Training at home,,,,,,,,,,,,,
5,7,1249,A,44.77055831437695,77.11786686111668,2.2385279157188473,1.2113646199569994,A,723.9942001178861,Correct,sub_005_day_05_data.csv,1,300,49.0,Training at home,,,,,,,,,,,,,
5,7,1250,B,67.45038371591819,55.72965373456713,3.37251918579591,0.8753993537980954,B,694.4856999907643,Correct,sub_005_day_05_data.csv,1,300,50.0,Training at home,,,,,,,,,,,,,
5,7,1251,B,48.019988421124,20.960546401223866,2.4009994210562,0.3292474929465643,B,485.3252000175417,Correct,sub_005_day_05_data.csv,1,300,50.0,Training at home,,,,,,,,,,,,,
5,7,1252,A,38.87763543859981,69.65105128436296,1.9438817719299903,1.094076155148803,A,584.4578000251204,Correct,sub_005_day_05_data.csv,1,300,50.0,Training at home,,,,,,,,,,,,,
5,7,1253,B,55.17324660810905,29.16452410968866,2.7586623304054525,0.4581152734422015,B,535.3586000856012,Correct,sub_005_day_05_data.csv,1,300,50.0,Training at home,,,,,,,,,,,,,
5,7,1254,B,88.05878860727758,60.92497849504235,4.402939430363879,0.957007324300706,B,493.9645000267774,Correct,sub_005_day_05_data.csv,1,300,50.0,Training at home,,,,,,,,,,,,,
5,7,1255,A,42.22463460491426,74.94066776096578,2.111231730245713,1.1771652564648178,A,680.2014999557287,Correct,sub_005_day_05_data.csv,1,300,50.0,Training at home,,,,,,,,,,,,,
5,7,1256,B,56.71710052573109,39.909806551268986,2.8358550262865543,0.6269017753382822,B,502.68070003949106,Correct,sub_005_day_05_data.csv,1,300,50.0,Training at home,,,,,,,,,,,,,
5,7,1257,B,53.732374837821226,31.60676285291173,2.686618741891061,0.4964778699123112,B,455.6428999640048,Correct,sub_005_day_05_data.csv,1,300,50.0,Training at home,,,,,,,,,,,,,
5,7,1258,A,37.35231570894685,49.392953865539454,1.8676157854473423,0.7758627050153916,A,460.04300005733967,Correct,sub_005_day_05_data.csv,1,300,50.0,Training at home,,,,,,,,,,,,,
5,7,1259,A,19.532660032197366,45.01729743033637,0.9766330016098684,0.7071300544580571,A,554.1954000946134,Correct,sub_005_day_05_data.csv,1,300,50.0,Training at home,,,,,,,,,,,,,
5,7,1260,B,69.98773204576315,37.03384445104112,3.4993866022881575,0.5817262683078895,B,438.13939997926354,Correct,sub_005_day_05_data.csv,1,300,50.0,Training at home,,,,,,,,,,,,,
5,7,1261,A,37.56441351273894,64.59311762427359,1.878220675636947,1.0146263190043965,A,581.7689001560211,Correct,sub_005_day_05_data.csv,1,300,50.0,Training at home,,,,,,,,,,,,,
5,7,1262,B,41.89005399915066,29.109119930645544,2.094502699957533,0.4572449866329014,B,526.0586000513285,Correct,sub_005_day_05_data.csv,1,300,50.0,Training at home,,,,,,,,,,,,,
5,7,1263,B,80.72333003436268,62.4763352532025,4.036166501718133,0.98137597927337,A,699.8902000486851,Incorrect,sub_005_day_05_data.csv,0,300,50.0,Training at home,,,,,,,,,,,,,
5,7,1264,A,41.19486071823709,49.8470185218298,2.0597430359118545,0.7829951359576742,A,1355.7724999263885,Correct,sub_005_day_05_data.csv,1,300,50.0,Training at home,,,,,,,,,,,,,
5,7,1265,A,44.46221356391196,69.45856432082265,2.223110678195598,1.0910525769959527,A,741.6634000837803,Correct,sub_005_day_05_data.csv,1,300,50.0,Training at home,,,,,,,,,,,,,
5,7,1266,B,81.7523686362015,58.054519762183006,4.087618431810075,0.911918263962788,B,517.8576000034809,Correct,sub_005_day_05_data.csv,1,300,50.0,Training at home,,,,,,,,,,,,,
5,7,1267,A,52.85832906251197,80.75379334058454,2.642916453125599,1.2684776195414438,A,457.53860007971525,Correct,sub_005_day_05_data.csv,1,300,50.0,Training at home,,,,,,,,,,,,,
5,7,1268,A,37.97993574645938,70.02335124677072,1.898996787322969,1.0999242292829627,A,531.896699918434,Correct,sub_005_day_05_data.csv,1,300,50.0,Training at home,,,,,,,,,,,,,
5,7,1269,A,12.106638771808406,33.87598939300687,0.6053319385904203,0.5321227970507807,A,709.0823999606073,Correct,sub_005_day_05_data.csv,1,300,50.0,Training at home,,,,,,,,,,,,,
5,7,1270,A,42.85890778367681,74.23586534199072,2.142945389183841,1.166094245956396,A,1020.8163999486716,Correct,sub_005_day_05_data.csv,1,300,50.0,Training at home,,,,,,,,,,,,,
5,7,1271,B,88.95470214402877,67.43871242770521,4.447735107201439,1.059324817652167,B,660.9912000130862,Correct,sub_005_day_05_data.csv,1,300,50.0,Training at home,,,,,,,,,,,,,
5,7,1272,A,25.203576466328336,51.090254654567765,1.2601788233164168,0.8025238434641092,A,532.7793001197278,Correct,sub_005_day_05_data.csv,1,300,50.0,Training at home,,,,,,,,,,,,,
5,7,1273,B,45.23870847790206,31.596257399523004,2.261935423895103,0.4963128506363681,B,686.1178001854569,Correct,sub_005_day_05_data.csv,1,300,50.0,Training at home,,,,,,,,,,,,,
5,7,1274,B,84.64118012753303,60.96442941438754,4.232059006376652,0.9576270178926668,B,580.7933998294175,Correct,sub_005_day_05_data.csv,1,300,50.0,Training at home,,,,,,,,,,,,,
5,7,1275,A,28.661697974180093,40.01174577464498,1.4330848987090048,0.6285030329146356,A,825.8322000037879,Correct,sub_005_day_05_data.csv,1,300,51.0,Training at home,,,,,,,,,,,,,
5,7,1276,A,40.21107819314768,55.038635526412506,2.010553909657384,0.8645448651669186,A,683.9461999479681,Correct,sub_005_day_05_data.csv,1,300,51.0,Training at home,,,,,,,,,,,,,
5,7,1277,A,67.29973460932229,80.51230879816967,3.3649867304661143,1.2646843892194135,A,773.5206000506878,Correct,sub_005_day_05_data.csv,1,300,51.0,Training at home,,,,,,,,,,,,,
5,7,1278,A,43.546664464237736,51.35529060735449,2.1773332232118867,0.8066870184751688,A,1252.6454001199454,Correct,sub_005_day_05_data.csv,1,300,51.0,Training at home,,,,,,,,,,,,,
5,7,1279,B,73.70404773643523,63.67889918877135,3.685202386821761,1.0002658094006456,B,616.6640999726951,Correct,sub_005_day_05_data.csv,1,300,51.0,Training at home,,,,,,,,,,,,,
5,7,1280,B,42.24239475793654,32.839848490007334,2.112119737896827,0.5158471338060445,B,817.6609000656754,Correct,sub_005_day_05_data.csv,1,300,51.0,Training at home,,,,,,,,,,,,,
5,7,1281,B,40.77997909358245,29.93158564000935,2.0389989546791223,0.4701642477847356,B,591.277499916032,Correct,sub_005_day_05_data.csv,1,300,51.0,Training at home,,,,,,,,,,,,,
5,7,1282,B,81.59433661707861,56.9994038865926,4.079716830853931,0.8953445425455839,B,623.5982999205589,Correct,sub_005_day_05_data.csv,1,300,51.0,Training at home,,,,,,,,,,,,,
5,7,1283,A,16.38462315613741,31.022114229588993,0.8192311578068704,0.4872942308125009,A,588.6656001675874,Correct,sub_005_day_05_data.csv,1,300,51.0,Training at home,,,,,,,,,,,,,
5,7,1284,B,33.16772078814834,17.24255295313914,1.6583860394074168,0.2708453884335746,A,550.6118999328464,Incorrect,sub_005_day_05_data.csv,0,300,51.0,Training at home,,,,,,,,,,,,,
5,7,1285,B,87.52259076107578,66.46454338183335,4.376129538053789,1.0440226060628388,B,439.65520011261106,Correct,sub_005_day_05_data.csv,1,300,51.0,Training at home,,,,,,,,,,,,,
5,7,1286,B,51.66750634525668,32.44022748228917,2.5833753172628344,0.5095699016957068,B,545.1149998698384,Correct,sub_005_day_05_data.csv,1,300,51.0,Training at home,,,,,,,,,,,,,
5,7,1287,B,58.04599225473001,26.382957137220195,2.9022996127365004,0.4144225216113269,B,629.8876998480409,Correct,sub_005_day_05_data.csv,1,300,51.0,Training at home,,,,,,,,,,,,,
5,7,1288,B,49.48673736059302,38.4664667234302,2.474336868029651,0.6042298463394228,B,605.0100000575185,Correct,sub_005_day_05_data.csv,1,300,51.0,Training at home,,,,,,,,,,,,,
5,7,1289,A,35.40755661028608,52.5088295738597,1.770377830514304,0.8248067661891805,B,1705.030299955979,Incorrect,sub_005_day_05_data.csv,0,300,51.0,Training at home,,,,,,,,,,,,,
5,7,1290,B,35.44502029816124,19.765559973852387,1.772251014908062,0.3104766900397155,B,539.453900186345,Correct,sub_005_day_05_data.csv,1,300,51.0,Training at home,,,,,,,,,,,,,
5,7,1291,B,73.89968095668861,50.38672442202067,3.6949840478344305,0.7914728164133678,B,632.4553000740707,Correct,sub_005_day_05_data.csv,1,300,51.0,Training at home,,,,,,,,,,,,,
5,7,1292,A,61.217637643086825,84.04657188603981,3.0608818821543413,1.3202004639829457,A,642.7706000395119,Correct,sub_005_day_05_data.csv,1,300,51.0,Training at home,,,,,,,,,,,,,
5,7,1293,A,37.10363094998221,70.254228929451,1.8551815474991105,1.1035508474418938,A,537.7262001857162,Correct,sub_005_day_05_data.csv,1,300,51.0,Training at home,,,,,,,,,,,,,
5,7,1294,A,45.95038180162237,64.93180002044315,2.2975190900811184,1.019946329642929,A,525.9614998940378,Correct,sub_005_day_05_data.csv,1,300,51.0,Training at home,,,,,,,,,,,,,
5,7,1295,A,57.571195708309695,75.66664826798454,2.8785597854154847,1.1885689316023154,A,639.0883999411017,Correct,sub_005_day_05_data.csv,1,300,51.0,Training at home,,,,,,,,,,,,,
5,7,1296,A,35.026445400381995,67.90515242378774,1.7513222700190996,1.0666516399773334,A,489.6410000510514,Correct,sub_005_day_05_data.csv,1,300,51.0,Training at home,,,,,,,,,,,,,
5,7,1297,A,14.514560241646269,39.41776778898315,0.7257280120823134,0.6191728485338893,A,590.1670001912862,Correct,sub_005_day_05_data.csv,1,300,51.0,Training at home,,,,,,,,,,,,,
5,7,1298,B,69.99313666171999,41.327560681737125,3.499656833085999,0.6491718051426586,B,552.2503000684083,Correct,sub_005_day_05_data.csv,1,300,51.0,Training at home,,,,,,,,,,,,,
5,7,1299,B,40.032247584512675,12.653611073010577,2.0016123792256337,0.1987624579417624,B,799.0927000064403,Correct,sub_005_day_05_data.csv,1,300,51.0,Training at home,,,,,,,,,,,,,
5,7,1300,A,65.30453775415616,86.0622811598984,3.265226887707808,1.35186315121558,A,723.3964998740703,Correct,sub_005_day_05_data.csv,1,300,52.0,Training at home,,,,,,,,,,,,,
5,7,1301,A,45.599885304523546,54.85131196410829,2.2799942652261773,0.8616023935310224,B,539.1507998574525,Incorrect,sub_005_day_05_data.csv,0,300,52.0,Training at home,,,,,,,,,,,,,
5,7,1302,B,42.896181524229966,22.460250786201975,2.1448090762114984,0.3528047943385825,B,561.5550000220537,Correct,sub_005_day_05_data.csv,1,300,52.0,Training at home,,,,,,,,,,,,,
5,7,1303,B,75.48570881362107,61.14404367550576,3.7742854406810538,0.9604483921087116,B,502.4472998920828,Correct,sub_005_day_05_data.csv,1,300,52.0,Training at home,,,,,,,,,,,,,
5,7,1304,A,49.12475161357033,57.550593925937854,2.4562375806785166,0.9040026154372788,A,616.9199000578374,Correct,sub_005_day_05_data.csv,1,300,52.0,Training at home,,,,,,,,,,,,,
5,7,1305,B,82.98810057356054,66.54972374755262,4.149405028678027,1.0453606161187077,B,580.1031000446528,Correct,sub_005_day_05_data.csv,1,300,52.0,Training at home,,,,,,,,,,,,,
5,7,1306,B,84.62523120975979,56.220893109593334,4.23126156048799,0.8831157238567773,B,378.7407998461276,Correct,sub_005_day_05_data.csv,1,300,52.0,Training at home,,,,,,,,,,,,,
5,7,1307,A,39.74962294556831,51.90593449317165,1.9874811472784155,0.8153365124073055,A,630.1933000795543,Correct,sub_005_day_05_data.csv,1,300,52.0,Training at home,,,,,,,,,,,,,
5,7,1308,A,23.130409397847004,45.24957199379754,1.15652046989235,0.710778614768984,A,505.67819993011653,Correct,sub_005_day_05_data.csv,1,300,52.0,Training at home,,,,,,,,,,,,,
5,7,1309,A,59.02474382004107,73.83975167513779,2.951237191002053,1.1598721070275375,A,985.5813002213836,Correct,sub_005_day_05_data.csv,1,300,52.0,Training at home,,,,,,,,,,,,,
5,7,1310,B,70.33913404911222,46.88715077911454,3.5169567024556105,0.7365016421771159,B,420.1672999188304,Correct,sub_005_day_05_data.csv,1,300,52.0,Training at home,,,,,,,,,,,,,
5,7,1311,B,79.45214916038236,50.29799902885558,3.972607458019118,0.7900791211965962,B,484.0371001046151,Correct,sub_005_day_05_data.csv,1,300,52.0,Training at home,,,,,,,,,,,,,
5,7,1312,B,48.21754251917979,24.31174667858665,2.4108771259589896,0.3818880238069194,B,517.8968000691384,Correct,sub_005_day_05_data.csv,1,300,52.0,Training at home,,,,,,,,,,,,,
5,7,1313,A,55.36765591340556,79.8570036965011,2.7683827956702776,1.2543908807531037,B,686.3339999690652,Incorrect,sub_005_day_05_data.csv,0,300,52.0,Training at home,,,,,,,,,,,,,
5,7,1314,B,86.632163411817,58.58542923769342,4.331608170590851,0.9202577705027116,B,482.6561999507248,Correct,sub_005_day_05_data.csv,1,300,52.0,Training at home,,,,,,,,,,,,,
5,7,1315,A,66.28009153172604,89.06211170122242,3.314004576586302,1.3989843791687695,A,720.9344001021236,Correct,sub_005_day_05_data.csv,1,300,52.0,Training at home,,,,,,,,,,,,,
5,7,1316,B,75.07808091736784,56.95901039288438,3.753904045868392,0.8947100430301513,B,566.764899995178,Correct,sub_005_day_05_data.csv,1,300,52.0,Training at home,,,,,,,,,,,,,
5,7,1317,A,44.63912556684401,57.42829388221541,2.2319562783422,0.902081530842818,A,548.9634999539703,Correct,sub_005_day_05_data.csv,1,300,52.0,Training at home,,,,,,,,,,,,,
5,7,1318,A,57.36920689660201,66.00300588693452,2.8684603448301003,1.0367727920461869,A,628.024899866432,Correct,sub_005_day_05_data.csv,1,300,52.0,Training at home,,,,,,,,,,,,,
5,7,1319,A,14.461546253633813,40.29885621973179,0.7230773126816906,0.6330129532399038,A,669.9620999861509,Correct,sub_005_day_05_data.csv,1,300,52.0,Training at home,,,,,,,,,,,,,
5,7,1320,B,65.81122744269204,36.094248829468754,3.290561372134602,0.5669671347975052,B,791.2850000429899,Correct,sub_005_day_05_data.csv,1,300,52.0,Training at home,,,,,,,,,,,,,
5,7,1321,A,64.78928247318922,79.85053865081156,3.2394641236594612,1.254289328052887,A,608.6850999854505,Correct,sub_005_day_05_data.csv,1,300,52.0,Training at home,,,,,,,,,,,,,
5,7,1322,B,83.13292038146542,64.13666871166862,4.156646019073271,1.0074564362515024,B,546.2034000083804,Correct,sub_005_day_05_data.csv,1,300,52.0,Training at home,,,,,,,,,,,,,
5,7,1323,B,70.31498655795703,50.36397803842283,3.515749327897851,0.7911155170553343,B,606.6012000665069,Correct,sub_005_day_05_data.csv,1,300,52.0,Training at home,,,,,,,,,,,,,
5,7,1324,A,27.45705592110034,54.641356623981025,1.372852796055017,0.858304422760394,A,744.6610999759287,Correct,sub_005_day_05_data.csv,1,300,52.0,Training at home,,,,,,,,,,,,,
5,7,1325,B,48.9938859363704,18.164326933554875,2.4496942968185196,0.2853245802592961,B,647.2695001866668,Correct,sub_005_day_05_data.csv,1,300,53.0,Training at home,,,,,,,,,,,,,
5,7,1326,A,52.6744775608555,75.27867702930678,2.6337238780427747,1.1824746936361443,A,767.7309999708086,Correct,sub_005_day_05_data.csv,1,300,53.0,Training at home,,,,,,,,,,,,,
5,7,1327,B,30.668186356276543,15.322318591338377,1.5334093178138273,0.2406824176125547,B,838.5089999064803,Correct,sub_005_day_05_data.csv,1,300,53.0,Training at home,,,,,,,,,,,,,
5,7,1328,A,32.448411159162646,58.20388847909871,1.6224205579581323,0.9142645422814804,A,841.7299001011997,Correct,sub_005_day_05_data.csv,1,300,53.0,Training at home,,,,,,,,,,,,,
5,7,1329,B,63.14328627545193,36.15670058344979,3.1571643137725967,0.5679481246550582,B,601.1527001392096,Correct,sub_005_day_05_data.csv,1,300,53.0,Training at home,,,,,,,,,,,,,
5,7,1330,B,45.73816360690683,23.359186316976064,2.2869081803453413,0.3669252406362361,B,487.1425000019371,Correct,sub_005_day_05_data.csv,1,300,53.0,Training at home,,,,,,,,,,,,,
5,7,1331,B,48.50561526332038,18.450953280850374,2.425280763166019,0.2898268963942401,B,504.4833000283688,Correct,sub_005_day_05_data.csv,1,300,53.0,Training at home,,,,,,,,,,,,,
5,7,1332,A,34.71760353133156,58.40163009142557,1.7358801765665783,0.9173706602644558,A,559.0236999560148,Correct,sub_005_day_05_data.csv,1,300,53.0,Training at home,,,,,,,,,,,,,
5,7,1333,A,34.838806170988896,66.11386839970466,1.741940308549445,1.0385142163245726,A,605.154599994421,Correct,sub_005_day_05_data.csv,1,300,53.0,Training at home,,,,,,,,,,,,,
5,7,1334,A,15.9404280831151,33.842896729328515,0.7970214041557552,0.5316029787052825,A,468.69660005904734,Correct,sub_005_day_05_data.csv,1,300,53.0,Training at home,,,,,,,,,,,,,
5,7,1335,B,82.17662753254028,52.98297874962906,4.108831376627014,0.8322546840256939,B,591.9949999079108,Correct,sub_005_day_05_data.csv,1,300,53.0,Training at home,,,,,,,,,,,,,
5,7,1336,B,60.45720520905571,47.60499285392494,3.0228602604527857,0.7477774791204259,B,486.8035998661071,Correct,sub_005_day_05_data.csv,1,300,53.0,Training at home,,,,,,,,,,,,,
5,7,1337,A,59.129580439339264,67.34025184983656,2.9564790219669637,1.057778202511665,A,585.5439000297338,Correct,sub_005_day_05_data.csv,1,300,53.0,Training at home,,,,,,,,,,,,,
5,7,1338,B,61.19102130735209,45.54383444848668,3.059551065367605,0.7154008785983774,B,467.89950015954673,Correct,sub_005_day_05_data.csv,1,300,53.0,Training at home,,,,,,,,,,,,,
5,7,1339,B,80.45723582794005,58.50027626677253,4.022861791397003,0.9189201907633294,B,613.1648998707533,Correct,sub_005_day_05_data.csv,1,300,53.0,Training at home,,,,,,,,,,,,,
5,7,1340,A,49.29496645202163,60.231212069099385,2.4647483226010816,0.9461096667654576,A,613.8645000755787,Correct,sub_005_day_05_data.csv,1,300,53.0,Training at home,,,,,,,,,,,,,
5,7,1341,A,55.1437969199006,64.97342682315423,2.7571898459950304,1.0206002019308766,A,623.8973999861628,Correct,sub_005_day_05_data.csv,1,300,53.0,Training at home,,,,,,,,,,,,,
5,7,1342,A,19.23394005420528,35.26243272945442,0.961697002710264,0.5539009980527914,A,517.0909001026303,Correct,sub_005_day_05_data.csv,1,300,53.0,Training at home,,,,,,,,,,,,,
5,7,1343,A,65.64710699784533,79.9078589087515,3.282355349892266,1.2551897125591174,A,587.2557000257075,Correct,sub_005_day_05_data.csv,1,300,53.0,Training at home,,,,,,,,,,,,,
5,7,1344,B,61.05537934480378,50.52790226211936,3.052768967240189,0.7936904327398864,A,847.1041999291629,Incorrect,sub_005_day_05_data.csv,0,300,53.0,Training at home,,,,,,,,,,,,,
5,7,1345,A,52.4522666169228,61.53048423535406,2.6226133308461397,0.9665185862280544,B,686.5780998487025,Incorrect,sub_005_day_05_data.csv,0,300,53.0,Training at home,,,,,,,,,,,,,
5,7,1346,A,32.07452595790118,64.86377970221027,1.603726297895059,1.0188778689826523,A,721.7532999347895,Correct,sub_005_day_05_data.csv,1,300,53.0,Training at home,,,,,,,,,,,,,
5,7,1347,A,46.92126550916131,64.55250152541915,2.3460632754580657,1.0139883228155036,B,1266.909800004214,Incorrect,sub_005_day_05_data.csv,0,300,53.0,Training at home,,,,,,,,,,,,,
5,7,1348,A,42.90401842137524,52.50807867104094,2.145200921068762,0.8247949710352855,A,605.8104999829084,Correct,sub_005_day_05_data.csv,1,300,53.0,Training at home,,,,,,,,,,,,,
5,7,1349,A,49.26315191780484,72.79411696064963,2.463157595890242,1.1434473153406657,A,633.3673000335693,Correct,sub_005_day_05_data.csv,1,300,53.0,Training at home,,,,,,,,,,,,,
5,7,1350,A,23.375243371302176,35.35814719016914,1.1687621685651088,0.5554044772859098,A,1192.502000136301,Correct,sub_005_day_05_data.csv,1,300,54.0,Training at home,,,,,,,,,,,,,
5,7,1351,A,32.982456373235095,53.541121137519134,1.6491228186617548,0.8410219641529565,A,671.4149001054466,Correct,sub_005_day_05_data.csv,1,300,54.0,Training at home,,,,,,,,,,,,,
5,7,1352,A,47.32103989397423,54.23549583881832,2.3660519946987115,0.8519291764551571,A,901.7092001158744,Correct,sub_005_day_05_data.csv,1,300,54.0,Training at home,,,,,,,,,,,,,
5,7,1353,A,23.49329777076065,50.83717919731931,1.1746648885380324,0.7985485434776309,A,558.287600055337,Correct,sub_005_day_05_data.csv,1,300,54.0,Training at home,,,,,,,,,,,,,
5,7,1354,B,48.980729733981235,36.52736032951984,2.449036486699062,0.5737704343312339,B,553.7563001271337,Correct,sub_005_day_05_data.csv,1,300,54.0,Training at home,,,,,,,,,,,,,
5,7,1355,B,61.37029103366163,41.80074100636689,3.0685145516830814,0.6566045043010592,B,491.7069000657648,Correct,sub_005_day_05_data.csv,1,300,54.0,Training at home,,,,,,,,,,,,,
5,7,1356,A,32.286456352336174,56.36772860461899,1.6143228176168087,0.8854222104190713,A,531.2708001583815,Correct,sub_005_day_05_data.csv,1,300,54.0,Training at home,,,,,,,,,,,,,
5,7,1357,A,40.58932604207886,66.9798661243369,2.029466302103943,1.0521172767732232,A,1170.7663999404758,Correct,sub_005_day_05_data.csv,1,300,54.0,Training at home,,,,,,,,,,,,,
5,7,1358,B,76.7446344773745,57.44335382198871,3.8372317238687255,0.9023180918235943,B,510.37229993380606,Correct,sub_005_day_05_data.csv,1,300,54.0,Training at home,,,,,,,,,,,,,
5,7,1359,A,58.369852526968536,77.21948623096742,2.9184926263484265,1.212960853285927,A,726.6476000659168,Correct,sub_005_day_05_data.csv,1,300,54.0,Training at home,,,,,,,,,,,,,
5,7,1360,A,58.16389916472424,69.85992711935172,2.908194958236212,1.097357169092369,A,630.5764000862837,Correct,sub_005_day_05_data.csv,1,300,54.0,Training at home,,,,,,,,,,,,,
5,7,1361,A,48.282096946610935,64.09778372015724,2.414104847330546,1.0068456322331671,A,811.6983000654727,Correct,sub_005_day_05_data.csv,1,300,54.0,Training at home,,,,,,,,,,,,,
5,7,1362,A,51.724869925357694,59.59552043895022,2.5862434962678846,0.9361242459893316,A,729.7388000879437,Correct,sub_005_day_05_data.csv,1,300,54.0,Training at home,,,,,,,,,,,,,
5,7,1363,A,26.797987830254257,47.002272215561256,1.339899391512713,0.7383099654721745,A,672.799700172618,Correct,sub_005_day_05_data.csv,1,300,54.0,Training at home,,,,,,,,,,,,,
5,7,1364,A,24.08310138824042,51.6854288619969,1.2041550694120209,0.8118728180524365,A,499.7241001110524,Correct,sub_005_day_05_data.csv,1,300,54.0,Training at home,,,,,,,,,,,,,
5,7,1365,B,67.12981862638452,45.66486904569928,3.356490931319226,0.7173020856055441,B,626.5117998700589,Correct,sub_005_day_05_data.csv,1,300,54.0,Training at home,,,,,,,,,,,,,
5,7,1366,B,82.49559206290476,51.97607186058167,4.124779603145238,0.8164382275982928,B,714.9867999833077,Correct,sub_005_day_05_data.csv,1,300,54.0,Training at home,,,,,,,,,,,,,
5,7,1367,A,37.42063602007147,44.90078961228625,1.8710318010035736,0.7052999539316969,A,490.5824998859316,Correct,sub_005_day_05_data.csv,1,300,54.0,Training at home,,,,,,,,,,,,,
5,7,1368,A,67.34467768334638,81.56235228674606,3.367233884167319,1.2811784337677206,A,885.9912999905646,Correct,sub_005_day_05_data.csv,1,300,54.0,Training at home,,,,,,,,,,,,,
5,7,1369,B,71.43546044159659,57.84445602417155,3.57177302207983,0.908618590482176,B,1402.245600009337,Correct,sub_005_day_05_data.csv,1,300,54.0,Training at home,,,,,,,,,,,,,
5,7,1370,A,44.477231966582615,57.945221500534416,2.223861598329131,0.9102014108835612,A,656.6630001179874,Correct,sub_005_day_05_data.csv,1,300,54.0,Training at home,,,,,,,,,,,,,
5,7,1371,A,41.427128609892264,61.00654457643453,2.071356430494613,0.9582885613111248,A,505.2249999716878,Correct,sub_005_day_05_data.csv,1,300,54.0,Training at home,,,,,,,,,,,,,
5,7,1372,A,48.174467194915735,66.80449429874766,2.4087233597457867,1.049362542578634,A,566.370900021866,Correct,sub_005_day_05_data.csv,1,300,54.0,Training at home,,,,,,,,,,,,,
5,7,1373,B,78.00277383404955,48.1715138140621,3.9001386917024776,0.7566763695527836,B,596.4519998524338,Correct,sub_005_day_05_data.csv,1,300,54.0,Training at home,,,,,,,,,,,,,
5,7,1374,B,85.03514264734987,69.63863522823772,4.251757132367493,1.093881124195255,A,1199.5058997999877,Incorrect,sub_005_day_05_data.csv,0,300,54.0,Training at home,,,,,,,,,,,,,
5,7,1375,A,48.80579261914065,59.83370826697179,2.4402896309570323,0.9398656916427672,A,588.3940001949668,Correct,sub_005_day_05_data.csv,1,300,55.0,Training at home,,,,,,,,,,,,,
5,7,1376,A,51.12479661475214,69.48846417578444,2.5562398307376073,1.0915222428194096,A,679.2868999764323,Correct,sub_005_day_05_data.csv,1,300,55.0,Training at home,,,,,,,,,,,,,
5,7,1377,B,41.33093718844161,15.826434462768702,2.066546859422081,0.2486010512037723,A,617.9136999417096,Incorrect,sub_005_day_05_data.csv,0,300,55.0,Training at home,,,,,,,,,,,,,
5,7,1378,B,48.19101993869252,23.432475457607453,2.4095509969346263,0.3680764637652135,B,600.4361000377685,Correct,sub_005_day_05_data.csv,1,300,55.0,Training at home,,,,,,,,,,,,,
5,7,1379,B,82.11779103234531,57.04214652500866,4.105889551617265,0.8960159423397988,B,622.4298998713493,Correct,sub_005_day_05_data.csv,1,300,55.0,Training at home,,,,,,,,,,,,,
5,7,1380,B,87.37992899743334,69.38174137970752,4.368996449871667,1.0898458450587805,B,943.2526999153196,Correct,sub_005_day_05_data.csv,1,300,55.0,Training at home,,,,,,,,,,,,,
5,7,1381,B,76.06457443226222,55.64826851857533,3.8032287216131113,0.8741209578147421,B,711.3805999979377,Correct,sub_005_day_05_data.csv,1,300,55.0,Training at home,,,,,,,,,,,,,
5,7,1382,B,34.383908062611454,23.599191056208763,1.7191954031305727,0.3706952262642369,A,540.5220000538975,Incorrect,sub_005_day_05_data.csv,0,300,55.0,Training at home,,,,,,,,,,,,,
5,7,1383,A,37.16901903365206,68.24898120853481,1.858450951682603,1.072052489898604,A,774.3292998056859,Correct,sub_005_day_05_data.csv,1,300,55.0,Training at home,,,,,,,,,,,,,
5,7,1384,B,65.21602739321703,45.44461713682164,3.2608013696608515,0.7138423767111983,B,464.6157999522984,Correct,sub_005_day_05_data.csv,1,300,55.0,Training at home,,,,,,,,,,,,,
5,7,1385,A,54.870810001679416,66.44201013766111,2.7435405000839705,1.0436686546910736,A,556.808500085026,Correct,sub_005_day_05_data.csv,1,300,55.0,Training at home,,,,,,,,,,,,,
5,7,1386,B,79.49368979669208,59.02380326231797,3.974684489834604,0.9271437335791372,B,561.8954999372363,Correct,sub_005_day_05_data.csv,1,300,55.0,Training at home,,,,,,,,,,,,,
5,7,1387,A,42.51976305215088,73.95335918938629,2.125988152607544,1.161656649688316,A,546.8067999463528,Correct,sub_005_day_05_data.csv,1,300,55.0,Training at home,,,,,,,,,,,,,
5,7,1388,B,76.94997373193411,47.86685111837742,3.8474986865967056,0.7518907391198544,B,559.9120000842959,Correct,sub_005_day_05_data.csv,1,300,55.0,Training at home,,,,,,,,,,,,,
5,7,1389,A,21.100178950426457,38.2596237205721,1.055008947521323,0.6009807640482956,A,552.0766000263393,Correct,sub_005_day_05_data.csv,1,300,55.0,Training at home,,,,,,,,,,,,,
5,7,1390,B,61.898254489043936,29.21809896354503,3.094912724452197,0.4589568252786631,B,484.1235000640154,Correct,sub_005_day_05_data.csv,1,300,55.0,Training at home,,,,,,,,,,,,,
5,7,1391,B,70.91680577656196,38.20284103927708,3.5458402888280975,0.6000888237762578,B,511.5980999544263,Correct,sub_005_day_05_data.csv,1,300,55.0,Training at home,,,,,,,,,,,,,
5,7,1392,B,38.54316257170141,12.73809587780545,1.9271581285850703,0.2000895421521801,A,534.3182999640703,Incorrect,sub_005_day_05_data.csv,0,300,55.0,Training at home,,,,,,,,,,,,,
5,7,1393,B,34.36116194008344,14.156727024330491,1.718058097004172,0.2223733480925638,B,441.9095001649111,Correct,sub_005_day_05_data.csv,1,300,55.0,Training at home,,,,,,,,,,,,,
5,7,1394,B,42.640341250457894,33.46359450626815,2.1320170625228947,0.5256449133179989,B,692.2170000616461,Correct,sub_005_day_05_data.csv,1,300,55.0,Training at home,,,,,,,,,,,,,
5,7,1395,B,63.09032629296405,33.244662564159796,3.1545163146482027,0.5222059384131802,B,1457.581400172785,Correct,sub_005_day_05_data.csv,1,300,55.0,Training at home,,,,,,,,,,,,,
5,7,1396,A,31.118607541814143,47.972119049443776,1.555930377090707,0.7535442839143378,A,727.986300131306,Correct,sub_005_day_05_data.csv,1,300,55.0,Training at home,,,,,,,,,,,,,
5,7,1397,B,58.51604846678131,46.19472424937268,2.9258024233390656,0.7256250316821776,B,478.4596001263708,Correct,sub_005_day_05_data.csv,1,300,55.0,Training at home,,,,,,,,,,,,,
5,7,1398,A,56.79368429169169,79.47205649466765,2.839684214584585,1.2483441442466046,A,864.0028000809252,Correct,sub_005_day_05_data.csv,1,300,55.0,Training at home,,,,,,,,,,,,,
5,7,1399,A,41.019959502454064,65.02349406246383,2.050997975122703,1.0213866562868794,A,603.6773999221623,Correct,sub_005_day_05_data.csv,1,300,55.0,Training at home,,,,,,,,,,,,,
5,7,1400,B,58.08769052315293,48.56612505662751,2.904384526157646,0.762874908456121,B,801.9631998613477,Correct,sub_005_day_05_data.csv,1,300,56.0,Training at home,,,,,,,,,,,,,
5,7,1401,A,45.0891746630736,70.49693067230486,2.25445873315368,1.1073631975037097,A,529.5215002261102,Correct,sub_005_day_05_data.csv,1,300,56.0,Training at home,,,,,,,,,,,,,
5,7,1402,A,55.20969926185451,81.34530209880941,2.7604849630927255,1.2777690173883105,A,511.37419999577105,Correct,sub_005_day_05_data.csv,1,300,56.0,Training at home,,,,,,,,,,,,,
5,7,1403,B,35.61840115688814,11.831903706236377,1.7809200578444069,0.1858551088074702,B,500.8787999395281,Correct,sub_005_day_05_data.csv,1,300,56.0,Training at home,,,,,,,,,,,,,
5,7,1404,A,57.714206238211105,67.40973719704034,2.885710311910555,1.0588696757932028,B,683.1771000288427,Incorrect,sub_005_day_05_data.csv,0,300,56.0,Training at home,,,,,,,,,,,,,
5,7,1405,B,81.7833078621631,54.56111912877103,4.089165393108155,0.857044055132923,B,475.1136000268162,Correct,sub_005_day_05_data.csv,1,300,56.0,Training at home,,,,,,,,,,,,,
5,7,1406,A,37.31248114688814,68.31351418716193,1.865624057344407,1.07306617155645,A,524.5258000213653,Correct,sub_005_day_05_data.csv,1,300,56.0,Training at home,,,,,,,,,,,,,
5,7,1407,A,46.063938337629104,56.718940815929784,2.303196916881455,0.8909390389335965,A,536.5840001031756,Correct,sub_005_day_05_data.csv,1,300,56.0,Training at home,,,,,,,,,,,,,
5,7,1408,B,52.31818213255302,45.64662518203668,2.615909106627651,0.7170155116652664,B,412.6411001197994,Correct,sub_005_day_05_data.csv,1,300,56.0,Training at home,,,,,,,,,,,,,
5,7,1409,B,40.682060787843085,31.71277934092883,2.0341030393921544,0.4981431730118808,B,560.8973999042064,Correct,sub_005_day_05_data.csv,1,300,56.0,Training at home,,,,,,,,,,,,,
5,7,1410,B,68.73460010334703,59.445044005852914,3.4367300051673517,0.9337605677055474,B,429.1205999907106,Correct,sub_005_day_05_data.csv,1,300,56.0,Training at home,,,,,,,,,,,,,
5,7,1411,B,81.4712372263623,63.06995775705733,4.073561861318115,0.9907005797589497,B,537.1683000121266,Correct,sub_005_day_05_data.csv,1,300,56.0,Training at home,,,,,,,,,,,,,
5,7,1412,B,37.90427533364374,26.292722636852915,1.8952137666821869,0.4130051213940559,B,498.2168001588434,Correct,sub_005_day_05_data.csv,1,300,56.0,Training at home,,,,,,,,,,,,,
5,7,1413,A,31.105778245038497,47.377648395720534,1.555288912251925,0.7442063607217793,A,631.8071999121457,Correct,sub_005_day_05_data.csv,1,300,56.0,Training at home,,,,,,,,,,,,,
5,7,1414,A,45.69363288487621,77.67200103568507,2.2846816442438103,1.220068939216635,A,630.3667998872697,Correct,sub_005_day_05_data.csv,1,300,56.0,Training at home,,,,,,,,,,,,,
5,7,1415,A,60.696771006021976,77.00645908025683,3.034838550301099,1.2096146306274893,A,714.8927999660373,Correct,sub_005_day_05_data.csv,1,300,56.0,Training at home,,,,,,,,,,,,,
5,7,1416,B,46.91753794077158,39.91063470743176,2.345876897038579,0.6269147839848672,B,610.5747998226434,Correct,sub_005_day_05_data.csv,1,300,56.0,Training at home,,,,,,,,,,,,,
5,7,1417,B,73.96365552429607,63.246124193201865,3.698182776214803,0.9934677956669532,B,475.58640013448894,Correct,sub_005_day_05_data.csv,1,300,56.0,Training at home,,,,,,,,,,,,,
5,7,1418,B,49.99688125251075,32.10947114784428,2.499844062625537,0.5043743933436051,B,462.0762001723051,Correct,sub_005_day_05_data.csv,1,300,56.0,Training at home,,,,,,,,,,,,,
5,7,1419,B,75.11928782956582,61.08391911307454,3.755964391478291,0.9595039576905406,B,605.3037999663502,Correct,sub_005_day_05_data.csv,1,300,56.0,Training at home,,,,,,,,,,,,,
5,7,1420,A,45.7025607247126,54.81412181683055,2.28512803623563,0.8610182120636544,A,782.9689998179674,Correct,sub_005_day_05_data.csv,1,300,56.0,Training at home,,,,,,,,,,,,,
5,7,1421,B,83.84938118687815,62.288800444691574,4.192469059343908,0.9784301893898184,B,687.3027000110596,Correct,sub_005_day_05_data.csv,1,300,56.0,Training at home,,,,,,,,,,,,,
5,7,1422,B,76.77524807627792,50.90892729335767,3.838762403813896,0.7996755599347468,B,1051.919599995017,Correct,sub_005_day_05_data.csv,1,300,56.0,Training at home,,,,,,,,,,,,,
5,7,1423,A,21.054235682984224,46.03861252453588,1.0527117841492113,0.7231728344427449,A,510.9124998562038,Correct,sub_005_day_05_data.csv,1,300,56.0,Training at home,,,,,,,,,,,,,
5,7,1424,A,45.69872881390447,77.15626432522416,2.2849364406952235,1.2119677659127823,A,556.0866999439895,Correct,sub_005_day_05_data.csv,1,300,56.0,Training at home,,,,,,,,,,,,,
5,7,1425,B,86.66160048890646,67.85534175769851,4.333080024445323,1.0658692158640517,B,599.6236000210047,Correct,sub_005_day_05_data.csv,1,300,57.0,Training at home,,,,,,,,,,,,,
5,7,1426,B,38.820378910716656,18.37419856270361,1.9410189455358329,0.288621236100949,B,787.6813998445868,Correct,sub_005_day_05_data.csv,1,300,57.0,Training at home,,,,,,,,,,,,,
5,7,1427,A,50.21509867559498,76.45132618144218,2.510754933779749,1.200894623444079,A,793.4115000534803,Correct,sub_005_day_05_data.csv,1,300,57.0,Training at home,,,,,,,,,,,,,
5,7,1428,A,30.60107542595584,61.08725999949488,1.5300537712977922,0.9595564362117136,A,543.3124001137912,Correct,sub_005_day_05_data.csv,1,300,57.0,Training at home,,,,,,,,,,,,,
5,7,1429,B,78.80221708452729,54.90198067077165,3.940110854226364,0.8623982957141252,B,567.5371999386698,Correct,sub_005_day_05_data.csv,1,300,57.0,Training at home,,,,,,,,,,,,,
5,7,1430,A,31.371113387235937,45.27825016251968,1.5685556693617968,0.7112290903898633,A,518.5150001198053,Correct,sub_005_day_05_data.csv,1,300,57.0,Training at home,,,,,,,,,,,,,
5,7,1431,A,29.808996099840904,51.43822044711618,1.4904498049920452,0.8079896773519623,A,538.4980000089854,Correct,sub_005_day_05_data.csv,1,300,57.0,Training at home,,,,,,,,,,,,,
5,7,1432,B,71.65966271060618,59.50915850125946,3.5829831355303092,0.9347676758443364,B,495.2358000446111,Correct,sub_005_day_05_data.csv,1,300,57.0,Training at home,,,,,,,,,,,,,
5,7,1433,A,19.398396938619488,42.27792395548812,0.9699198469309744,0.664100076537947,A,700.3774999175221,Correct,sub_005_day_05_data.csv,1,300,57.0,Training at home,,,,,,,,,,,,,
5,7,1434,B,81.66981914149386,58.610314379324954,4.083490957074693,0.9206486653933776,B,484.1503000352532,Correct,sub_005_day_05_data.csv,1,300,57.0,Training at home,,,,,,,,,,,,,
5,7,1435,A,33.09403825597775,52.96349877812706,1.6547019127988876,0.8319486933488798,A,619.3172999192029,Correct,sub_005_day_05_data.csv,1,300,57.0,Training at home,,,,,,,,,,,,,
5,7,1436,B,55.95128196627196,25.217311762105226,2.797564098313598,0.3961126068755663,B,714.3186000175774,Correct,sub_005_day_05_data.csv,1,300,57.0,Training at home,,,,,,,,,,,,,
5,7,1437,B,35.74431700432767,23.0065645848407,1.7872158502163835,0.3613862714203733,B,720.2498000115156,Correct,sub_005_day_05_data.csv,1,300,57.0,Training at home,,,,,,,,,,,,,
5,7,1438,A,27.345068670134957,52.10235386527963,1.367253433506748,0.8184218606894913,A,609.7542999777943,Correct,sub_005_day_05_data.csv,1,300,57.0,Training at home,,,,,,,,,,,,,
5,7,1439,A,64.17513074266996,87.11947643327855,3.2087565371334983,1.368469535736885,A,939.74049994722,Correct,sub_005_day_05_data.csv,1,300,57.0,Training at home,,,,,,,,,,,,,
5,7,1440,B,89.60245989885048,67.76012226889122,4.4801229949425245,1.064373511631474,B,542.7467999979854,Correct,sub_005_day_05_data.csv,1,300,57.0,Training at home,,,,,,,,,,,,,
5,7,1441,B,79.85369705737949,48.71139918712661,3.9926848528689742,0.7651568691617838,B,605.0751998554915,Correct,sub_005_day_05_data.csv,1,300,57.0,Training at home,,,,,,,,,,,,,
5,7,1442,B,46.16127536838203,20.532529365129204,2.308063768419102,0.3225242170655331,B,467.86929992958903,Correct,sub_005_day_05_data.csv,1,300,57.0,Training at home,,,,,,,,,,,,,
5,7,1443,B,65.84137810271427,42.230593656553935,3.2920689051357135,0.6633566139408278,B,887.8252001013607,Correct,sub_005_day_05_data.csv,1,300,57.0,Training at home,,,,,,,,,,,,,
5,7,1444,A,58.37867932596646,70.40854391592012,2.918933966298323,1.105974821581045,A,484.18379994109273,Correct,sub_005_day_05_data.csv,1,300,57.0,Training at home,,,,,,,,,,,,,
5,7,1445,A,54.58697200420759,80.36854660624884,2.7293486002103795,1.2624261779894013,A,601.3581999577582,Correct,sub_005_day_05_data.csv,1,300,57.0,Training at home,,,,,,,,,,,,,
5,7,1446,B,40.44882985549842,25.969588407280177,2.022441492774921,0.4079293407853103,B,562.1215999126434,Correct,sub_005_day_05_data.csv,1,300,57.0,Training at home,,,,,,,,,,,,,
5,7,1447,B,75.26326230009613,52.05560689775723,3.7631631150048066,0.8176875610407615,B,889.9206998758018,Correct,sub_005_day_05_data.csv,1,300,57.0,Training at home,,,,,,,,,,,,,
5,7,1448,B,45.468557057991106,19.522644569270028,2.2734278528995553,0.3066609837873169,B,505.97550021484494,Correct,sub_005_day_05_data.csv,1,300,57.0,Training at home,,,,,,,,,,,,,
5,7,1449,B,73.3803930449611,52.773483244059726,3.669019652248055,0.8289639363194102,B,533.6854001507163,Correct,sub_005_day_05_data.csv,1,300,57.0,Training at home,,,,,,,,,,,,,
5,7,1450,A,39.68807846226989,65.0023226367879,1.9844039231134945,1.0210540963100316,A,445.9187001921237,Correct,sub_005_day_05_data.csv,1,300,58.0,Training at home,,,,,,,,,,,,,
5,7,1451,B,56.85159219466747,27.184762398902222,2.8425796097333733,0.4270172492098763,B,534.8399002104998,Correct,sub_005_day_05_data.csv,1,300,58.0,Training at home,,,,,,,,,,,,,
5,7,1452,B,51.00779953888255,36.25268511445053,2.5503899769441274,0.5694558461423092,A,431.6273999866098,Incorrect,sub_005_day_05_data.csv,0,300,58.0,Training at home,,,,,,,,,,,,,
5,7,1453,B,74.84076844198025,62.05584389009509,3.742038422099012,0.9747709163871888,B,498.98150004446507,Correct,sub_005_day_05_data.csv,1,300,58.0,Training at home,,,,,,,,,,,,,
5,7,1454,A,44.06677633953392,64.75602994384938,2.203338816976696,1.0171853397361894,A,504.6066001523286,Correct,sub_005_day_05_data.csv,1,300,58.0,Training at home,,,,,,,,,,,,,
5,7,1455,A,37.199072265822934,66.47519521819879,1.8599536132911467,1.0441899247172033,A,751.4903000555933,Correct,sub_005_day_05_data.csv,1,300,58.0,Training at home,,,,,,,,,,,,,
5,7,1456,B,49.74380756892702,24.823016139441854,2.487190378446351,0.389919025718057,B,569.7381999343634,Correct,sub_005_day_05_data.csv,1,300,58.0,Training at home,,,,,,,,,,,,,
5,7,1457,A,22.10885215342006,41.458292409687004,1.1054426076710029,0.6512253343232508,A,457.92990014888346,Correct,sub_005_day_05_data.csv,1,300,58.0,Training at home,,,,,,,,,,,,,
5,7,1458,B,68.77012590053437,44.94041588561997,3.4385062950267185,0.7059224019776686,B,534.8002999089658,Correct,sub_005_day_05_data.csv,1,300,58.0,Training at home,,,,,,,,,,,,,
5,7,1459,A,18.005838706760873,46.588358657907776,0.9002919353380436,0.7318082265124476,A,476.1860000435263,Correct,sub_005_day_05_data.csv,1,300,58.0,Training at home,,,,,,,,,,,,,
5,7,1460,B,36.17305500602393,16.89580051827979,1.8086527503011964,0.265398613923732,B,635.9470000024885,Correct,sub_005_day_05_data.csv,1,300,58.0,Training at home,,,,,,,,,,,,,
5,7,1461,B,54.442015802909594,39.96025969934231,2.72210079014548,0.6276942915349704,B,555.699700023979,Correct,sub_005_day_05_data.csv,1,300,58.0,Training at home,,,,,,,,,,,,,
5,7,1462,B,76.79581063941473,49.6850379400773,3.8397905319707366,0.780450750929385,B,548.1805000454187,Correct,sub_005_day_05_data.csv,1,300,58.0,Training at home,,,,,,,,,,,,,
5,7,1463,A,62.39932656492843,77.4663348226571,3.1199663282464214,1.2168383418969335,A,653.6130998283625,Correct,sub_005_day_05_data.csv,1,300,58.0,Training at home,,,,,,,,,,,,,
5,7,1464,A,27.39315140190753,56.75034628160594,1.3696575700953764,0.8914323548348504,A,534.4670999329537,Correct,sub_005_day_05_data.csv,1,300,58.0,Training at home,,,,,,,,,,,,,
5,7,1465,A,64.11910209441125,79.26986880397905,3.2059551047205623,1.2451681874280365,A,589.576399885118,Correct,sub_005_day_05_data.csv,1,300,58.0,Training at home,,,,,,,,,,,,,
5,7,1466,A,44.33100453325252,72.52165110784719,2.216550226662626,1.1391674317330742,A,537.171799922362,Correct,sub_005_day_05_data.csv,1,300,58.0,Training at home,,,,,,,,,,,,,
5,7,1467,A,23.80290919993766,42.52095814360311,1.190145459996883,0.6679176486377132,A,505.07019995711744,Correct,sub_005_day_05_data.csv,1,300,58.0,Training at home,,,,,,,,,,,,,
5,7,1468,B,64.81552975940275,36.66898756176875,3.2407764879701375,0.575995109693141,B,446.979200001806,Correct,sub_005_day_05_data.csv,1,300,58.0,Training at home,,,,,,,,,,,,,
5,7,1469,A,15.504669779910015,38.33009201536779,0.7752334889955008,0.6020876774345012,A,592.4798001069576,Correct,sub_005_day_05_data.csv,1,300,58.0,Training at home,,,,,,,,,,,,,
5,7,1470,B,55.91923898281057,27.442553993905953,2.795961949140528,0.4310666301149808,B,533.6551000364125,Correct,sub_005_day_05_data.csv,1,300,58.0,Training at home,,,,,,,,,,,,,
5,7,1471,B,79.24909827786217,62.97406018185046,3.962454913893109,0.9891942241701146,B,569.3888999521732,Correct,sub_005_day_05_data.csv,1,300,58.0,Training at home,,,,,,,,,,,,,
5,7,1472,B,32.67704267676606,20.506464806539284,1.633852133838303,0.3221147959366073,A,621.3074000552297,Incorrect,sub_005_day_05_data.csv,0,300,58.0,Training at home,,,,,,,,,,,,,
5,7,1473,B,66.31403585751187,56.4412366928637,3.315701792875593,0.8865768727691163,B,637.2887999750674,Correct,sub_005_day_05_data.csv,1,300,58.0,Training at home,,,,,,,,,,,,,
5,7,1474,B,39.126296722980186,17.067015038559138,1.9563148361490093,0.2680880453192195,B,550.0527999829501,Correct,sub_005_day_05_data.csv,1,300,58.0,Training at home,,,,,,,,,,,,,
5,7,1475,A,67.27417973952335,81.84879011401637,3.3637089869761674,1.2856777886370334,A,574.8988999985158,Correct,sub_005_day_05_data.csv,1,300,59.0,Training at home,,,,,,,,,,,,,
5,7,1476,B,85.21419255900813,64.72642430272353,4.260709627950406,1.0167202954128602,B,565.7605999149382,Correct,sub_005_day_05_data.csv,1,300,59.0,Training at home,,,,,,,,,,,,,
5,7,1477,A,42.09459810543317,72.59860918657063,2.1047299052716584,1.1403762864068336,A,726.9995999522507,Correct,sub_005_day_05_data.csv,1,300,59.0,Training at home,,,,,,,,,,,,,
5,7,1478,A,53.144917032815485,77.07827920218932,2.6572458516407744,1.2107427784647045,A,551.0099998209625,Correct,sub_005_day_05_data.csv,1,300,59.0,Training at home,,,,,,,,,,,,,
5,7,1479,B,72.90034501304694,54.4944933525502,3.645017250652347,0.8559974998873476,B,616.6318999603391,Correct,sub_005_day_05_data.csv,1,300,59.0,Training at home,,,,,,,,,,,,,
5,7,1480,B,71.34353246730419,51.74385739178409,3.567176623365209,0.812790611252134,B,557.122299913317,Correct,sub_005_day_05_data.csv,1,300,59.0,Training at home,,,,,,,,,,,,,
5,7,1481,B,74.0056091318116,55.91534723496782,3.70028045659058,0.8783162204814862,B,686.0877999570221,Correct,sub_005_day_05_data.csv,1,300,59.0,Training at home,,,,,,,,,,,,,
5,7,1482,B,43.87895063126926,32.275400797789096,2.193947531563463,0.5069808101900019,A,493.2731001172215,Incorrect,sub_005_day_05_data.csv,0,300,59.0,Training at home,,,,,,,,,,,,,
5,7,1483,A,24.16218897295373,42.28230097724852,1.2081094486476864,0.6641688306349823,A,618.1263001635671,Correct,sub_005_day_05_data.csv,1,300,59.0,Training at home,,,,,,,,,,,,,
5,7,1484,B,79.98564860463566,54.44121332478922,3.999282430231783,0.8551605791683627,B,539.6718999836594,Correct,sub_005_day_05_data.csv,1,300,59.0,Training at home,,,,,,,,,,,,,
5,7,1485,A,57.26948463709128,77.49449007204753,2.863474231854564,1.2172806035201582,A,542.2044999431819,Correct,sub_005_day_05_data.csv,1,300,59.0,Training at home,,,,,,,,,,,,,
5,7,1486,A,45.31718293458348,71.82375699343231,2.265859146729174,1.1282049366189273,A,864.3203999381512,Correct,sub_005_day_05_data.csv,1,300,59.0,Training at home,,,,,,,,,,,,,
5,7,1487,A,48.30531239621769,61.328282211965686,2.415265619810884,0.9633424042719648,A,517.0094999484718,Correct,sub_005_day_05_data.csv,1,300,59.0,Training at home,,,,,,,,,,,,,
5,7,1488,A,50.42425435096927,59.101782019847455,2.5212127175484635,0.9283686210380904,A,539.2019001301378,Correct,sub_005_day_05_data.csv,1,300,59.0,Training at home,,,,,,,,,,,,,
5,7,1489,A,31.25282177211151,53.382827807107866,1.5626410886055755,0.838535498333295,A,456.6514999605715,Correct,sub_005_day_05_data.csv,1,300,59.0,Training at home,,,,,,,,,,,,,
5,7,1490,A,65.4008423819934,83.08062772601161,3.2700421190996702,1.3050274485983329,A,615.5395000241697,Correct,sub_005_day_05_data.csv,1,300,59.0,Training at home,,,,,,,,,,,,,
5,7,1491,B,62.16857309135646,40.31397675757265,3.108428654567823,0.6332504660928996,B,391.0447000525892,Correct,sub_005_day_05_data.csv,1,300,59.0,Training at home,,,,,,,,,,,,,
5,7,1492,B,48.96072563368692,36.37506162142291,2.448036281684346,0.5713781318186911,B,510.6986998580396,Correct,sub_005_day_05_data.csv,1,300,59.0,Training at home,,,,,,,,,,,,,
5,7,1493,A,39.981035143364224,52.79086780244889,1.9990517571682112,0.8292370123240169,A,464.6817001048475,Correct,sub_005_day_05_data.csv,1,300,59.0,Training at home,,,,,,,,,,,,,
5,7,1494,A,41.07052424471032,51.72746407397901,2.053526212235516,0.8125331056182121,A,647.4379000719637,Correct,sub_005_day_05_data.csv,1,300,59.0,Training at home,,,,,,,,,,,,,
5,7,1495,A,41.38542763365281,60.17356256725312,2.06927138168264,0.9452041105080408,A,484.63919991627336,Correct,sub_005_day_05_data.csv,1,300,59.0,Training at home,,,,,,,,,,,,,
5,7,1496,A,26.53144506088458,57.53676421463896,1.326572253044229,0.9037853788401892,A,566.5741001721472,Correct,sub_005_day_05_data.csv,1,300,59.0,Training at home,,,,,,,,,,,,,
5,7,1497,A,30.148116510157507,39.84007971353414,1.5074058255078753,0.625806508732353,A,675.5536999553442,Correct,sub_005_day_05_data.csv,1,300,59.0,Training at home,,,,,,,,,,,,,
5,7,1498,B,73.26231038616224,63.561904261143255,3.663115519308112,0.9984280573749272,B,497.452300041914,Correct,sub_005_day_05_data.csv,1,300,59.0,Training at home,,,,,,,,,,,,,
5,7,1499,A,28.546878266063818,38.20450204485551,1.4273439133031909,0.6001149147908714,A,1006.0242998879404,Correct,sub_005_day_05_data.csv,1,300,59.0,Training at home,,,,,,,,,,,,,
