subject,day,trial,cat,x,y,xt,yt,resp,rt,fb,f_name,acc,n_trials,block,session_type,ns_left_digit,ns_right_digit,ns_left_size,ns_right_size,ns_congruent,ns_cue,ns_correct_side,ns_resp,ns_rt,ns_fb,acc_stroop,acc_stroop_mean,resp_key
5,12,2400,B,74.76945740481693,44.114514949161254,3.7384728702408463,0.6929491804048106,B,474.7440000064671,Correct,sub_005_day_09_data.csv,1,300,96.0,Training at home,,,,,,,,,,,,,
5,12,2401,A,60.56605533206239,76.67963075457362,3.0283027666031193,1.2044808232927322,A,736.0078000929207,Correct,sub_005_day_09_data.csv,1,300,96.0,Training at home,,,,,,,,,,,,,
5,12,2402,B,43.11465533357779,21.37113631380102,2.1557327666788892,0.3356970242115166,B,445.4230999108404,Correct,sub_005_day_09_data.csv,1,300,96.0,Training at home,,,,,,,,,,,,,
5,12,2403,A,55.20907700645239,66.70814512511099,2.7604538503226195,1.0478490932982525,A,1252.612299984321,Correct,sub_005_day_09_data.csv,1,300,96.0,Training at home,,,,,,,,,,,,,
5,12,2404,A,48.279891324670125,64.42537952495479,2.4139945662335065,1.011991495101661,B,1449.704699916765,Incorrect,sub_005_day_09_data.csv,0,300,96.0,Training at home,,,,,,,,,,,,,
5,12,2405,B,72.8061278138201,47.89839786149686,3.640306390691005,0.752386274201998,B,1072.8386999107895,Correct,sub_005_day_09_data.csv,1,300,96.0,Training at home,,,,,,,,,,,,,
5,12,2406,B,80.01391561272979,59.13469641881398,4.000695780636489,0.9288856392080432,B,414.0214999206364,Correct,sub_005_day_09_data.csv,1,300,96.0,Training at home,,,,,,,,,,,,,
5,12,2407,B,79.74879939397125,53.070136427418674,3.9874399696985625,0.8336237536269329,B,411.33789997547865,Correct,sub_005_day_09_data.csv,1,300,96.0,Training at home,,,,,,,,,,,,,
5,12,2408,A,55.386087782247344,76.21098702919879,2.769304389112367,1.1971193848687895,A,477.3697000928223,Correct,sub_005_day_09_data.csv,1,300,96.0,Training at home,,,,,,,,,,,,,
5,12,2409,B,84.18457939844211,55.47962000510393,4.209228969922106,0.8714718331599391,B,422.17490007169545,Correct,sub_005_day_09_data.csv,1,300,96.0,Training at home,,,,,,,,,,,,,
5,12,2410,B,48.52877322314043,22.93711590995082,2.4264386611570217,0.3602953741861953,B,544.3903000559658,Correct,sub_005_day_09_data.csv,1,300,96.0,Training at home,,,,,,,,,,,,,
5,12,2411,A,41.58378250461397,62.52931731671348,2.0791891252306987,0.9822082195808608,A,467.6632999908179,Correct,sub_005_day_09_data.csv,1,300,96.0,Training at home,,,,,,,,,,,,,
5,12,2412,A,21.431653377543288,43.18075590856756,1.0715826688771644,0.6782817276940495,A,538.2793999742717,Correct,sub_005_day_09_data.csv,1,300,96.0,Training at home,,,,,,,,,,,,,
5,12,2413,A,21.1956136398075,51.88593665251092,1.059780681990375,0.8150223870607683,A,571.985200047493,Correct,sub_005_day_09_data.csv,1,300,96.0,Training at home,,,,,,,,,,,,,
5,12,2414,A,63.01070907911428,82.5514094912245,3.150535453955714,1.2967145080055682,A,556.4711999613792,Correct,sub_005_day_09_data.csv,1,300,96.0,Training at home,,,,,,,,,,,,,
5,12,2415,B,64.88960256110785,34.49756698732585,3.2444801280553923,0.5418865150705233,B,623.9907999988645,Correct,sub_005_day_09_data.csv,1,300,96.0,Training at home,,,,,,,,,,,,,
5,12,2416,A,31.49861721070605,54.71625194730532,1.5749308605353023,0.859480875748113,A,635.6242999900132,Correct,sub_005_day_09_data.csv,1,300,96.0,Training at home,,,,,,,,,,,,,
5,12,2417,B,63.47566740884362,36.864171942656704,3.1737833704421807,0.5790610587786064,B,524.6889998670667,Correct,sub_005_day_09_data.csv,1,300,96.0,Training at home,,,,,,,,,,,,,
5,12,2418,B,64.1095656743779,51.763579564211625,3.2054782837188953,0.81310040641219,B,340.35270009189844,Correct,sub_005_day_09_data.csv,1,300,96.0,Training at home,,,,,,,,,,,,,
5,12,2419,A,24.82789513036571,45.68354798188171,1.2413947565182857,0.7175954936489821,A,472.0300000626594,Correct,sub_005_day_09_data.csv,1,300,96.0,Training at home,,,,,,,,,,,,,
5,12,2420,A,26.226739732703393,46.05515205136267,1.3113369866351696,0.7234326367226094,A,425.3648000303656,Correct,sub_005_day_09_data.csv,1,300,96.0,Training at home,,,,,,,,,,,,,
5,12,2421,B,56.78655313327066,38.42124553185811,2.8393276566635333,0.6035195135232756,B,466.141700046137,Correct,sub_005_day_09_data.csv,1,300,96.0,Training at home,,,,,,,,,,,,,
5,12,2422,A,40.08188995874617,69.25806939307256,2.004094497937308,1.0879032100354444,A,441.8824000749737,Correct,sub_005_day_09_data.csv,1,300,96.0,Training at home,,,,,,,,,,,,,
5,12,2423,B,80.80055683170568,53.03104689555755,4.0400278415852835,0.8330097366962971,B,431.30060005933046,Correct,sub_005_day_09_data.csv,1,300,96.0,Training at home,,,,,,,,,,,,,
5,12,2424,A,14.658847783870392,41.67718299715482,0.7329423891935195,0.6546636596308951,A,397.4343999288976,Correct,sub_005_day_09_data.csv,1,300,96.0,Training at home,,,,,,,,,,,,,
5,12,2425,A,28.17832688204089,58.541063721212744,1.4089163441020442,0.9195608785994696,A,446.01499987766147,Correct,sub_005_day_09_data.csv,1,300,97.0,Training at home,,,,,,,,,,,,,
5,12,2426,B,53.535128120635505,26.339082505302105,2.676756406031775,0.4137333405047627,B,448.1873998884112,Correct,sub_005_day_09_data.csv,1,300,97.0,Training at home,,,,,,,,,,,,,
5,12,2427,A,40.47484549805748,58.94563269829583,2.023742274902874,0.9259158332308424,A,634.4810000155121,Correct,sub_005_day_09_data.csv,1,300,97.0,Training at home,,,,,,,,,,,,,
5,12,2428,A,58.23943163416507,71.28615685034306,2.9119715817082534,1.1197603333184374,A,745.6102001015097,Correct,sub_005_day_09_data.csv,1,300,97.0,Training at home,,,,,,,,,,,,,
5,12,2429,B,52.929944914165475,32.761245580484356,2.646497245708274,0.5146124421905036,B,1234.4535999000072,Correct,sub_005_day_09_data.csv,1,300,97.0,Training at home,,,,,,,,,,,,,
5,12,2430,A,18.8869911539191,33.27040850111432,0.9443495576959552,0.5226103546451607,A,615.644000004977,Correct,sub_005_day_09_data.csv,1,300,97.0,Training at home,,,,,,,,,,,,,
5,12,2431,A,41.4760844951692,72.02047156722749,2.07380422475846,1.1312949219183723,A,460.0587000604719,Correct,sub_005_day_09_data.csv,1,300,97.0,Training at home,,,,,,,,,,,,,
5,12,2432,A,27.74406196440001,49.03162180785555,1.3872030982200003,0.7701869143257605,A,1017.0104999560864,Correct,sub_005_day_09_data.csv,1,300,97.0,Training at home,,,,,,,,,,,,,
5,12,2433,A,23.787840217779777,36.76771328006028,1.1893920108889886,0.5775458896496662,A,466.1875001620501,Correct,sub_005_day_09_data.csv,1,300,97.0,Training at home,,,,,,,,,,,,,
5,12,2434,A,56.70253372413414,82.77818380910091,2.835126686206707,1.300276670660885,A,611.6634998470545,Correct,sub_005_day_09_data.csv,1,300,97.0,Training at home,,,,,,,,,,,,,
5,12,2435,A,55.7700084146136,74.85321079271954,2.7885004207306796,1.1757914856200795,B,550.5085999611765,Incorrect,sub_005_day_09_data.csv,0,300,97.0,Training at home,,,,,,,,,,,,,
5,12,2436,A,29.874397536204597,46.254753685253995,1.4937198768102298,0.7265679718559968,A,768.908099969849,Correct,sub_005_day_09_data.csv,1,300,97.0,Training at home,,,,,,,,,,,,,
5,12,2437,B,69.0689009408938,57.019121899225965,3.45344504704469,0.895654272363746,B,692.9021999239922,Correct,sub_005_day_09_data.csv,1,300,97.0,Training at home,,,,,,,,,,,,,
5,12,2438,A,22.70993753475078,35.001851676885174,1.1354968767375389,0.5498078004507102,A,458.94649997353554,Correct,sub_005_day_09_data.csv,1,300,97.0,Training at home,,,,,,,,,,,,,
5,12,2439,A,18.681955457586568,47.940658563442454,0.9340977728793284,0.7530501037558371,A,599.2791999597102,Correct,sub_005_day_09_data.csv,1,300,97.0,Training at home,,,,,,,,,,,,,
5,12,2440,A,34.2774825857442,54.375571588348976,1.71387412928721,0.854129481183515,A,428.80880017764866,Correct,sub_005_day_09_data.csv,1,300,97.0,Training at home,,,,,,,,,,,,,
5,12,2441,A,61.17725901422661,80.80240525968794,3.05886295071133,1.2692412137811044,A,590.9342002123594,Correct,sub_005_day_09_data.csv,1,300,97.0,Training at home,,,,,,,,,,,,,
5,12,2442,A,43.562147377085765,54.91232988885759,2.178107368854288,0.8625608608516713,A,1979.8718001693487,Correct,sub_005_day_09_data.csv,1,300,97.0,Training at home,,,,,,,,,,,,,
5,12,2443,A,55.88755374764391,83.7699406155961,2.794377687382196,1.3158551501480495,A,479.18709996156394,Correct,sub_005_day_09_data.csv,1,300,97.0,Training at home,,,,,,,,,,,,,
5,12,2444,B,83.00550275798453,62.69519939571896,4.150275137899226,0.9848138891846896,B,611.0149999149144,Correct,sub_005_day_09_data.csv,1,300,97.0,Training at home,,,,,,,,,,,,,
5,12,2445,A,43.98684448255911,54.10569834059788,2.199342224127955,0.8498903221208389,B,652.7201000135392,Incorrect,sub_005_day_09_data.csv,0,300,97.0,Training at home,,,,,,,,,,,,,
5,12,2446,B,87.53101844608986,59.899466229919256,4.376550922304493,0.9408986153093212,B,450.4426000639796,Correct,sub_005_day_09_data.csv,1,300,97.0,Training at home,,,,,,,,,,,,,
5,12,2447,A,32.97019887377927,42.05877325081495,1.6485099436889634,0.6606576653187958,A,464.5930000115186,Correct,sub_005_day_09_data.csv,1,300,97.0,Training at home,,,,,,,,,,,,,
5,12,2448,A,24.119045665410447,39.97238901609606,1.2059522832705225,0.6278848183970036,A,718.9068000297993,Correct,sub_005_day_09_data.csv,1,300,97.0,Training at home,,,,,,,,,,,,,
5,12,2449,B,79.86258874411271,49.779136625873576,3.993129437205636,0.7819288496294351,B,528.1282998621464,Correct,sub_005_day_09_data.csv,1,300,97.0,Training at home,,,,,,,,,,,,,
5,12,2450,A,38.95363190133476,53.35816817499832,1.947681595066738,0.838148145737917,A,1557.36570013687,Correct,sub_005_day_09_data.csv,1,300,98.0,Training at home,,,,,,,,,,,,,
5,12,2451,A,26.869828504885888,50.28232523117706,1.3434914252442944,0.7898329177583927,A,1903.95940002054,Correct,sub_005_day_09_data.csv,1,300,98.0,Training at home,,,,,,,,,,,,,
5,12,2452,A,41.70521520302151,64.89719096484333,2.0852607601510753,1.0194026918688286,A,1120.4578999895602,Correct,sub_005_day_09_data.csv,1,300,98.0,Training at home,,,,,,,,,,,,,
5,12,2453,A,42.4288547327201,56.35280861567426,2.1214427366360047,0.8851878477807694,A,536.9650998618454,Correct,sub_005_day_09_data.csv,1,300,98.0,Training at home,,,,,,,,,,,,,
5,12,2454,A,28.29223201523143,50.736885596443216,1.4146116007615714,0.7969731352790589,A,857.0984001271427,Correct,sub_005_day_09_data.csv,1,300,98.0,Training at home,,,,,,,,,,,,,
5,12,2455,B,51.798781911190986,22.24211161081145,2.58993909555955,0.3493782721842474,B,826.3950000982732,Correct,sub_005_day_09_data.csv,1,300,98.0,Training at home,,,,,,,,,,,,,
5,12,2456,A,45.2622490961443,63.62703358037202,2.263112454807215,0.9994511063290392,A,462.0514002162963,Correct,sub_005_day_09_data.csv,1,300,98.0,Training at home,,,,,,,,,,,,,
5,12,2457,B,63.58281746566895,41.88840300164049,3.1791408732834476,0.6579814957028121,B,715.998699888587,Correct,sub_005_day_09_data.csv,1,300,98.0,Training at home,,,,,,,,,,,,,
5,12,2458,A,59.6222589845801,70.51915035902454,2.9811129492290047,1.1077122235265275,B,595.5346000846475,Incorrect,sub_005_day_09_data.csv,0,300,98.0,Training at home,,,,,,,,,,,,,
5,12,2459,B,49.38781129908642,27.976008588343717,2.4693905649543213,0.4394461152895278,B,618.9800999127328,Correct,sub_005_day_09_data.csv,1,300,98.0,Training at home,,,,,,,,,,,,,
5,12,2460,A,35.57137974071638,54.98962461930528,1.7785689870358192,0.8637750036383496,A,808.9324000757188,Correct,sub_005_day_09_data.csv,1,300,98.0,Training at home,,,,,,,,,,,,,
5,12,2461,B,85.47933832646974,68.22088926968894,4.273966916323487,1.0716112227550876,B,432.4837999884039,Correct,sub_005_day_09_data.csv,1,300,98.0,Training at home,,,,,,,,,,,,,
5,12,2462,A,15.41088152830678,30.72416025786961,0.7705440764153392,0.4826139807691932,A,496.7652000486851,Correct,sub_005_day_09_data.csv,1,300,98.0,Training at home,,,,,,,,,,,,,
5,12,2463,A,44.61727402779249,62.37054861274798,2.2308637013896244,0.9797142866108705,A,475.5054002162069,Correct,sub_005_day_09_data.csv,1,300,98.0,Training at home,,,,,,,,,,,,,
5,12,2464,B,74.02900256753776,52.0266803151983,3.701450128376888,0.8172331833444583,B,482.2930998634547,Correct,sub_005_day_09_data.csv,1,300,98.0,Training at home,,,,,,,,,,,,,
5,12,2465,A,52.17467856817037,78.84316241734476,2.608733928408518,1.2384654991805857,A,641.9576001353562,Correct,sub_005_day_09_data.csv,1,300,98.0,Training at home,,,,,,,,,,,,,
5,12,2466,A,49.433977742897625,72.48570027730707,2.4716988871448815,1.1386027174074975,A,436.1499999649822,Correct,sub_005_day_09_data.csv,1,300,98.0,Training at home,,,,,,,,,,,,,
5,12,2467,A,61.56401568318134,71.0777340778605,3.078200784159067,1.1164864360640772,A,480.7633999735117,Correct,sub_005_day_09_data.csv,1,300,98.0,Training at home,,,,,,,,,,,,,
5,12,2468,B,78.20605918043076,64.33399990373631,3.910302959021538,1.0105561073681224,B,968.0721000768244,Correct,sub_005_day_09_data.csv,1,300,98.0,Training at home,,,,,,,,,,,,,
5,12,2469,B,67.02662057419445,36.2244806170858,3.3513310287097227,0.569012810933713,B,430.8170999865979,Correct,sub_005_day_09_data.csv,1,300,98.0,Training at home,,,,,,,,,,,,,
5,12,2470,B,46.86381361885807,36.15337534605965,2.3431906809429033,0.5678958919482767,B,947.5535000674428,Correct,sub_005_day_09_data.csv,1,300,98.0,Training at home,,,,,,,,,,,,,
5,12,2471,B,43.273003697662645,17.97662105594114,2.1636501848831324,0.2823761032285614,B,471.0577998775989,Correct,sub_005_day_09_data.csv,1,300,98.0,Training at home,,,,,,,,,,,,,
5,12,2472,B,49.09764556149547,39.38786298109757,2.4548822780747734,0.6187031049100874,B,632.7301000710577,Correct,sub_005_day_09_data.csv,1,300,98.0,Training at home,,,,,,,,,,,,,
5,12,2473,A,35.58244755775166,55.35284194417391,1.7791223778875829,0.8694804080356685,A,458.78249988891184,Correct,sub_005_day_09_data.csv,1,300,98.0,Training at home,,,,,,,,,,,,,
5,12,2474,B,73.17884779536185,60.67485403865273,3.658942389768092,0.953078378527322,B,601.4153999276459,Correct,sub_005_day_09_data.csv,1,300,98.0,Training at home,,,,,,,,,,,,,
5,12,2475,B,69.6872058441077,54.62273857338433,3.4843602922053845,0.8580119711055002,A,472.3988000769168,Incorrect,sub_005_day_09_data.csv,0,300,99.0,Training at home,,,,,,,,,,,,,
5,12,2476,A,24.65705654415344,55.75855605348217,1.2328528272076722,0.8758533503619712,A,2359.4487998634577,Correct,sub_005_day_09_data.csv,1,300,99.0,Training at home,,,,,,,,,,,,,
5,12,2477,A,48.099252852674255,58.09781241308226,2.4049626426337127,0.9125983033328856,A,1961.827299790457,Correct,sub_005_day_09_data.csv,1,300,99.0,Training at home,,,,,,,,,,,,,
5,12,2478,A,51.62145738204861,59.424524783840475,2.5810728691024303,0.9334382525198892,A,2967.649199999869,Correct,sub_005_day_09_data.csv,1,300,99.0,Training at home,,,,,,,,,,,,,
5,12,2479,A,48.582182481519,76.5927472534673,2.42910912407595,1.2031160604487632,A,2045.6999999005347,Correct,sub_005_day_09_data.csv,1,300,99.0,Training at home,,,,,,,,,,,,,
5,12,2480,A,54.76628838032079,82.59055930380907,2.7383144190160396,1.2973294718235937,A,878.2329999376088,Correct,sub_005_day_09_data.csv,1,300,99.0,Training at home,,,,,,,,,,,,,
5,12,2481,B,64.24573648287868,55.774696537775185,3.212286824143934,0.876106884496373,B,1388.3605999872088,Correct,sub_005_day_09_data.csv,1,300,99.0,Training at home,,,,,,,,,,,,,
5,12,2482,A,67.00779708795024,85.31962502353873,3.3503898543975117,1.340197535904926,A,577.766900183633,Correct,sub_005_day_09_data.csv,1,300,99.0,Training at home,,,,,,,,,,,,,
5,12,2483,B,64.26166289815217,50.857971417019975,3.2130831449076083,0.7988751469009482,B,423.8917001057416,Correct,sub_005_day_09_data.csv,1,300,99.0,Training at home,,,,,,,,,,,,,
5,12,2484,A,20.033469128707186,49.530157780686736,1.001673456435359,0.778017899074744,A,603.4533001948148,Correct,sub_005_day_09_data.csv,1,300,99.0,Training at home,,,,,,,,,,,,,
5,12,2485,B,30.80090353213331,16.26481328559214,1.5400451766066654,0.2554870896501297,B,677.6153000537306,Correct,sub_005_day_09_data.csv,1,300,99.0,Training at home,,,,,,,,,,,,,
5,12,2486,A,42.30374253173822,53.24387812540998,2.1151871265869113,0.8363528818370914,A,1259.2362000141293,Correct,sub_005_day_09_data.csv,1,300,99.0,Training at home,,,,,,,,,,,,,
5,12,2487,A,60.65508922112213,72.68529129016741,3.032754461056107,1.141737885706121,A,725.814700126648,Correct,sub_005_day_09_data.csv,1,300,99.0,Training at home,,,,,,,,,,,,,
5,12,2488,B,50.407154467020064,40.40924310587614,2.5203577233510033,0.6347469063927225,B,606.0426998883486,Correct,sub_005_day_09_data.csv,1,300,99.0,Training at home,,,,,,,,,,,,,
5,12,2489,A,49.00472439067293,67.18854676066752,2.4502362195336467,1.0553952245434368,A,988.894100068137,Correct,sub_005_day_09_data.csv,1,300,99.0,Training at home,,,,,,,,,,,,,
5,12,2490,B,85.62141347927914,58.9444272364291,4.281070673963956,0.9258968978801188,B,495.61730003915727,Correct,sub_005_day_09_data.csv,1,300,99.0,Training at home,,,,,,,,,,,,,
5,12,2491,A,58.28980821759974,70.54567613768093,2.9144904108799867,1.108128889483316,A,599.0041999612004,Correct,sub_005_day_09_data.csv,1,300,99.0,Training at home,,,,,,,,,,,,,
5,12,2492,B,49.41548869830936,35.379275995317414,2.470774434915468,0.5557363677810745,B,463.20090000517666,Correct,sub_005_day_09_data.csv,1,300,99.0,Training at home,,,,,,,,,,,,,
5,12,2493,B,47.17783965138023,30.437947562827176,2.3588919825690113,0.478118162268646,B,399.2278000805527,Correct,sub_005_day_09_data.csv,1,300,99.0,Training at home,,,,,,,,,,,,,
5,12,2494,A,47.1360551697158,64.09766852786335,2.3568027584857902,1.006843822796846,A,552.9670000541955,Correct,sub_005_day_09_data.csv,1,300,99.0,Training at home,,,,,,,,,,,,,
5,12,2495,B,36.481260858050426,21.64738842084728,1.8240630429025213,0.3400363821616928,B,700.4869000520557,Correct,sub_005_day_09_data.csv,1,300,99.0,Training at home,,,,,,,,,,,,,
5,12,2496,A,46.59965564275125,57.80086598825309,2.3299827821375625,0.90793387979912,A,790.0319001637399,Correct,sub_005_day_09_data.csv,1,300,99.0,Training at home,,,,,,,,,,,,,
5,12,2497,B,85.84226555968024,63.25192742624983,4.292113277984012,0.993558952638506,B,455.80919994972646,Correct,sub_005_day_09_data.csv,1,300,99.0,Training at home,,,,,,,,,,,,,
5,12,2498,B,61.92106374609568,35.744967486561556,3.0960531873047836,0.5614806362929391,B,406.1389998532832,Correct,sub_005_day_09_data.csv,1,300,99.0,Training at home,,,,,,,,,,,,,
5,12,2499,A,40.443386253879694,68.87464757998772,2.0221693126939844,1.0818804342793773,A,450.7482000626624,Correct,sub_005_day_09_data.csv,1,300,99.0,Training at home,,,,,,,,,,,,,
5,12,2500,B,72.78221880424576,46.33485249733461,3.639110940212288,0.7278261610539654,B,412.337499903515,Correct,sub_005_day_09_data.csv,1,300,100.0,Training at home,,,,,,,,,,,,,
5,12,2501,A,54.17355161200048,80.17803332375577,2.7086775806000243,1.2594336023459436,A,479.3562998529523,Correct,sub_005_day_09_data.csv,1,300,100.0,Training at home,,,,,,,,,,,,,
5,12,2502,B,67.10574211257833,45.16422433177827,3.3552871056289164,0.7094379768289801,B,408.74979994259775,Correct,sub_005_day_09_data.csv,1,300,100.0,Training at home,,,,,,,,,,,,,
5,12,2503,B,55.59048712644464,46.34139460572787,2.7795243563222316,0.7279289242523017,B,580.8995999395847,Correct,sub_005_day_09_data.csv,1,300,100.0,Training at home,,,,,,,,,,,,,
5,12,2504,A,31.971749543917134,64.93845736938519,1.598587477195857,1.0200509030355722,A,502.7509001083672,Correct,sub_005_day_09_data.csv,1,300,100.0,Training at home,,,,,,,,,,,,,
5,12,2505,B,55.408093541491866,31.57861669508403,2.770404677074594,0.4960357510990199,B,483.1604999490082,Correct,sub_005_day_09_data.csv,1,300,100.0,Training at home,,,,,,,,,,,,,
5,12,2506,B,81.3512338707565,65.93858280911736,4.067561693537825,1.0357608367062263,A,512.2862998396158,Incorrect,sub_005_day_09_data.csv,0,300,100.0,Training at home,,,,,,,,,,,,,
5,12,2507,B,37.74462391766982,17.346567983618165,1.887231195883491,0.2724792527116537,B,614.5101001020521,Correct,sub_005_day_09_data.csv,1,300,100.0,Training at home,,,,,,,,,,,,,
5,12,2508,B,53.21700368007046,42.3795310038664,2.660850184003523,0.6656961163216378,B,520.5671999137849,Correct,sub_005_day_09_data.csv,1,300,100.0,Training at home,,,,,,,,,,,,,
5,12,2509,B,64.54836790027143,51.83658888501009,3.227418395013572,0.81424723414151,B,492.8772998973727,Correct,sub_005_day_09_data.csv,1,300,100.0,Training at home,,,,,,,,,,,,,
5,12,2510,B,44.52493532796653,16.749220075225004,2.2262467663983267,0.2630961337084278,B,692.607699893415,Correct,sub_005_day_09_data.csv,1,300,100.0,Training at home,,,,,,,,,,,,,
5,12,2511,A,58.52953849814911,67.15690742582697,2.9264769249074556,1.054898235033939,A,519.0336001105607,Correct,sub_005_day_09_data.csv,1,300,100.0,Training at home,,,,,,,,,,,,,
5,12,2512,B,48.11040179226147,36.42438589847152,2.4055200896130735,0.5721529157507889,B,608.5332999937236,Correct,sub_005_day_09_data.csv,1,300,100.0,Training at home,,,,,,,,,,,,,
5,12,2513,B,77.8965106183321,65.55739824872799,3.8948255309166058,1.0297732036333211,B,610.3741999249905,Correct,sub_005_day_09_data.csv,1,300,100.0,Training at home,,,,,,,,,,,,,
5,12,2514,A,38.021125472776575,61.1669390929166,1.9010562736388288,0.9608080324844056,A,425.7766001392156,Correct,sub_005_day_09_data.csv,1,300,100.0,Training at home,,,,,,,,,,,,,
5,12,2515,A,52.35113897595953,76.11414542505224,2.6175569487979766,1.1955982005080463,A,495.7065999042243,Correct,sub_005_day_09_data.csv,1,300,100.0,Training at home,,,,,,,,,,,,,
5,12,2516,B,79.41066154399705,55.324570878055795,3.970533077199853,0.8690363271675394,B,501.4081001281738,Correct,sub_005_day_09_data.csv,1,300,100.0,Training at home,,,,,,,,,,,,,
5,12,2517,B,73.88628184908696,51.21779473306522,3.694314092454348,0.8045272383323384,B,791.2650001235306,Correct,sub_005_day_09_data.csv,1,300,100.0,Training at home,,,,,,,,,,,,,
5,12,2518,A,25.25846034976541,56.73528342926866,1.2629230174882706,0.8911957481036258,A,467.80529990792274,Correct,sub_005_day_09_data.csv,1,300,100.0,Training at home,,,,,,,,,,,,,
5,12,2519,A,28.66820398263749,52.24741826315074,1.4334101991318744,0.8207005269227378,A,637.7630999777466,Correct,sub_005_day_09_data.csv,1,300,100.0,Training at home,,,,,,,,,,,,,
5,12,2520,B,77.58134812305167,54.856545236973886,3.879067406152584,0.8616845975889665,B,497.1891001332551,Correct,sub_005_day_09_data.csv,1,300,100.0,Training at home,,,,,,,,,,,,,
5,12,2521,B,60.769477056913736,40.38413133210316,3.038473852845687,0.6343524515727033,B,490.4670000541955,Correct,sub_005_day_09_data.csv,1,300,100.0,Training at home,,,,,,,,,,,,,
5,12,2522,B,48.86659517656737,22.575494169789344,2.443329758828369,0.3546150331748471,B,498.03460016846657,Correct,sub_005_day_09_data.csv,1,300,100.0,Training at home,,,,,,,,,,,,,
5,12,2523,A,48.36568012437927,57.04735842157928,2.418284006218963,0.8960978106196865,A,743.6295000370592,Correct,sub_005_day_09_data.csv,1,300,100.0,Training at home,,,,,,,,,,,,,
5,12,2524,B,56.36859919541068,47.32437654966659,2.8184299597705342,0.7433695685207483,B,1103.3441999461502,Correct,sub_005_day_09_data.csv,1,300,100.0,Training at home,,,,,,,,,,,,,
5,12,2525,B,78.31159379523129,60.97515612691629,3.915579689761564,0.9577955126990544,B,469.5789001416415,Correct,sub_005_day_09_data.csv,1,300,101.0,Training at home,,,,,,,,,,,,,
5,12,2526,A,52.05914969907504,72.09258246284158,2.602957484953752,1.1324276372178974,A,901.9817998632788,Correct,sub_005_day_09_data.csv,1,300,101.0,Training at home,,,,,,,,,,,,,
5,12,2527,B,38.271371365821174,12.607559388781524,1.9135685682910588,0.1980390797774653,B,509.1031000483781,Correct,sub_005_day_09_data.csv,1,300,101.0,Training at home,,,,,,,,,,,,,
5,12,2528,B,64.21844393467165,45.735142797230395,3.210922196733583,0.7184059431132958,B,504.6322999987751,Correct,sub_005_day_09_data.csv,1,300,101.0,Training at home,,,,,,,,,,,,,
5,12,2529,A,57.83167866804415,84.04703381263192,2.891583933402208,1.320207719908887,A,570.9962998516858,Correct,sub_005_day_09_data.csv,1,300,101.0,Training at home,,,,,,,,,,,,,
5,12,2530,A,40.49023728613799,52.29808126035853,2.0245118643068993,0.821496339421922,A,928.842999972403,Correct,sub_005_day_09_data.csv,1,300,101.0,Training at home,,,,,,,,,,,,,
5,12,2531,B,48.03930527749016,25.210400222977217,2.4019652638745077,0.3960040406728185,B,402.8747999109328,Correct,sub_005_day_09_data.csv,1,300,101.0,Training at home,,,,,,,,,,,,,
5,12,2532,B,85.57261378522516,59.36029610737857,4.278630689261258,0.9324293508292766,B,506.5062001813203,Correct,sub_005_day_09_data.csv,1,300,101.0,Training at home,,,,,,,,,,,,,
5,12,2533,B,41.19415283058754,28.425991591799686,2.059707641529377,0.4465144317790156,A,812.8893999382854,Incorrect,sub_005_day_09_data.csv,0,300,101.0,Training at home,,,,,,,,,,,,,
5,12,2534,B,65.1642999699401,48.81646675669558,3.258214998497005,0.766807266685226,B,380.9758999850601,Correct,sub_005_day_09_data.csv,1,300,101.0,Training at home,,,,,,,,,,,,,
5,12,2535,A,27.293068538735653,59.2832977813143,1.3646534269367827,0.9312198639517656,A,502.5483998470008,Correct,sub_005_day_09_data.csv,1,300,101.0,Training at home,,,,,,,,,,,,,
5,12,2536,B,41.64152446528345,21.316850704675257,2.0820762232641727,0.3348443078573909,B,540.939699858427,Correct,sub_005_day_09_data.csv,1,300,101.0,Training at home,,,,,,,,,,,,,
5,12,2537,B,50.57586951803604,20.98158883090872,2.528793475901802,0.3295780266591224,B,1336.7463001050055,Correct,sub_005_day_09_data.csv,1,300,101.0,Training at home,,,,,,,,,,,,,
5,12,2538,A,52.246287052202746,66.1920061885914,2.6123143526101376,1.0397416018422443,A,944.2427000030876,Correct,sub_005_day_09_data.csv,1,300,101.0,Training at home,,,,,,,,,,,,,
5,12,2539,A,49.64437621270654,74.92270382628284,2.482218810635327,1.17688307963867,A,461.59190009348094,Correct,sub_005_day_09_data.csv,1,300,101.0,Training at home,,,,,,,,,,,,,
5,12,2540,A,17.627792971177104,32.34505365050403,0.8813896485588552,0.5080749146419559,A,485.95419991761446,Correct,sub_005_day_09_data.csv,1,300,101.0,Training at home,,,,,,,,,,,,,
5,12,2541,A,46.64098333090652,57.37530986703891,2.332049166545326,0.9012492598786372,A,474.02599989436567,Correct,sub_005_day_09_data.csv,1,300,101.0,Training at home,,,,,,,,,,,,,
5,12,2542,B,53.605337548544384,34.665719626774575,2.6802668774272194,0.5445278505543926,B,498.279299819842,Correct,sub_005_day_09_data.csv,1,300,101.0,Training at home,,,,,,,,,,,,,
5,12,2543,B,66.94484620424629,57.87744152689199,3.3472423102123146,0.9091367255472836,A,1323.7445999402553,Incorrect,sub_005_day_09_data.csv,0,300,101.0,Training at home,,,,,,,,,,,,,
5,12,2544,A,64.92644074183376,84.35132907349373,3.2463220370916877,1.3249875786891152,A,1213.0566001869738,Correct,sub_005_day_09_data.csv,1,300,101.0,Training at home,,,,,,,,,,,,,
5,12,2545,B,49.72959749053546,24.975484848988103,2.4864798745267733,0.392313998607121,B,1080.4819001350552,Correct,sub_005_day_09_data.csv,1,300,101.0,Training at home,,,,,,,,,,,,,
5,12,2546,B,66.75542291250666,54.04901790980232,3.337771145625333,0.8489999879958906,B,718.344199936837,Correct,sub_005_day_09_data.csv,1,300,101.0,Training at home,,,,,,,,,,,,,
5,12,2547,A,27.345382162659966,47.39969738379908,1.3672691081329984,0.7445527054166126,A,540.4629001859576,Correct,sub_005_day_09_data.csv,1,300,101.0,Training at home,,,,,,,,,,,,,
5,12,2548,A,67.96176725358475,80.82492041816188,3.3980883626792378,1.2695948810633852,A,625.1654999796301,Correct,sub_005_day_09_data.csv,1,300,101.0,Training at home,,,,,,,,,,,,,
5,12,2549,B,61.6494645910909,48.58828056198836,3.082473229554545,0.7632229263205119,B,428.9122999180108,Correct,sub_005_day_09_data.csv,1,300,101.0,Training at home,,,,,,,,,,,,,
5,12,2550,B,61.77062814832842,52.31326889179304,3.088531407416421,0.8217349061786224,B,474.6785999741405,Correct,sub_005_day_09_data.csv,1,300,102.0,Training at home,,,,,,,,,,,,,
5,12,2551,A,61.15364939220031,78.60441091519793,3.057682469610015,1.2347151993546956,A,678.6989001557231,Correct,sub_005_day_09_data.csv,1,300,102.0,Training at home,,,,,,,,,,,,,
5,12,2552,A,34.93691027910809,54.650561445326176,1.7468455139554044,0.8584490117559714,A,639.8052000440657,Correct,sub_005_day_09_data.csv,1,300,102.0,Training at home,,,,,,,,,,,,,
5,12,2553,B,40.32705656926616,27.87048946755344,2.016352828463308,0.4377886248160879,B,533.4228998981416,Correct,sub_005_day_09_data.csv,1,300,102.0,Training at home,,,,,,,,,,,,,
5,12,2554,A,40.527583001452,58.21807852507265,2.0263791500726,0.9144874390024096,A,583.1462999340147,Correct,sub_005_day_09_data.csv,1,300,102.0,Training at home,,,,,,,,,,,,,
5,12,2555,B,64.60195406048207,32.66703230706249,3.2300977030241036,0.5131325435522398,B,829.8133998177946,Correct,sub_005_day_09_data.csv,1,300,102.0,Training at home,,,,,,,,,,,,,
5,12,2556,B,51.48680547441502,31.884388015283605,2.574340273720751,0.500838795765107,B,453.2733999658376,Correct,sub_005_day_09_data.csv,1,300,102.0,Training at home,,,,,,,,,,,,,
5,12,2557,B,72.99494022988875,48.798796126622975,3.649747011494438,0.7665296970771239,B,1313.8859998434782,Correct,sub_005_day_09_data.csv,1,300,102.0,Training at home,,,,,,,,,,,,,
5,12,2558,A,54.59802565453889,75.88425293718466,2.7299012827269444,1.1919870577530451,A,476.3227000366896,Correct,sub_005_day_09_data.csv,1,300,102.0,Training at home,,,,,,,,,,,,,
5,12,2559,B,56.20994011137685,36.43949484139147,2.8104970055688425,0.5723902464711931,B,476.95389995351434,Correct,sub_005_day_09_data.csv,1,300,102.0,Training at home,,,,,,,,,,,,,
5,12,2560,A,26.706516387191336,53.85743525107417,1.3353258193595667,0.8459906146298128,A,451.81920006871223,Correct,sub_005_day_09_data.csv,1,300,102.0,Training at home,,,,,,,,,,,,,
5,12,2561,B,50.6982696525731,26.94875126354213,2.5349134826286552,0.4233099949648131,B,520.5909998621792,Correct,sub_005_day_09_data.csv,1,300,102.0,Training at home,,,,,,,,,,,,,
5,12,2562,A,27.303631626492265,51.915219189983645,1.365181581324613,0.8154823560837825,A,511.66650000959635,Correct,sub_005_day_09_data.csv,1,300,102.0,Training at home,,,,,,,,,,,,,
5,12,2563,B,55.77487322905632,32.59713860458082,2.7887436614528163,0.5120346558409966,B,401.4461000915617,Correct,sub_005_day_09_data.csv,1,300,102.0,Training at home,,,,,,,,,,,,,
5,12,2564,A,17.377977825969165,36.34134958182803,0.8688988912984583,0.5708485843390471,A,389.50180006213486,Correct,sub_005_day_09_data.csv,1,300,102.0,Training at home,,,,,,,,,,,,,
5,12,2565,A,32.94037311761886,65.39902045794899,1.647018655880943,1.0272854111133056,A,736.2875998951495,Correct,sub_005_day_09_data.csv,1,300,102.0,Training at home,,,,,,,,,,,,,
5,12,2566,B,55.86589009024385,27.449147281278037,2.7932945045121924,0.4311701972308366,B,439.043499995023,Correct,sub_005_day_09_data.csv,1,300,102.0,Training at home,,,,,,,,,,,,,
5,12,2567,A,26.190307329945156,44.167584827303,1.3095153664972576,0.6937828001012956,A,438.7481000740081,Correct,sub_005_day_09_data.csv,1,300,102.0,Training at home,,,,,,,,,,,,,
5,12,2568,A,15.726779890072468,41.50850305034323,0.7863389945036233,0.6520140412223391,A,535.6972001027316,Correct,sub_005_day_09_data.csv,1,300,102.0,Training at home,,,,,,,,,,,,,
5,12,2569,B,81.26376293590529,56.89018884549159,4.063188146795264,0.893628996691662,B,954.1740999557078,Correct,sub_005_day_09_data.csv,1,300,102.0,Training at home,,,,,,,,,,,,,
5,12,2570,B,74.77540673999428,51.86080778152061,3.7387703369997145,0.8146276636782877,B,791.1796001717448,Correct,sub_005_day_09_data.csv,1,300,102.0,Training at home,,,,,,,,,,,,,
5,12,2571,A,25.150510354752583,55.98823568406045,1.2575255177376292,0.8794611495624911,A,782.1444000583142,Correct,sub_005_day_09_data.csv,1,300,102.0,Training at home,,,,,,,,,,,,,
5,12,2572,A,31.94558904011707,62.40435343040027,1.5972794520058533,0.9802452914448324,A,1784.091099863872,Correct,sub_005_day_09_data.csv,1,300,102.0,Training at home,,,,,,,,,,,,,
5,12,2573,A,15.999904032385658,45.904708717014174,0.7999952016192828,0.7210694783527553,A,440.03599998541176,Correct,sub_005_day_09_data.csv,1,300,102.0,Training at home,,,,,,,,,,,,,
5,12,2574,A,50.145070929369005,57.89394119152427,2.5072535464684504,0.9093959016732608,A,600.5492000840604,Correct,sub_005_day_09_data.csv,1,300,102.0,Training at home,,,,,,,,,,,,,
5,12,2575,B,72.52831821046915,43.25778876433617,3.6264159105234577,0.679491756962888,B,749.307399848476,Correct,sub_005_day_09_data.csv,1,300,103.0,Training at home,,,,,,,,,,,,,
5,12,2576,A,18.157087823710224,44.98083853750347,0.9078543911855111,0.706557359508648,A,450.98849991336465,Correct,sub_005_day_09_data.csv,1,300,103.0,Training at home,,,,,,,,,,,,,
5,12,2577,B,41.53072029949324,26.532818297111064,2.076536014974662,0.4167765352061848,B,693.8859999645501,Correct,sub_005_day_09_data.csv,1,300,103.0,Training at home,,,,,,,,,,,,,
5,12,2578,A,23.98360053561192,49.89501536027375,1.199180026780596,0.7837490685329297,A,611.7046000435948,Correct,sub_005_day_09_data.csv,1,300,103.0,Training at home,,,,,,,,,,,,,
5,12,2579,B,62.143140130775194,34.59931808422323,3.1071570065387597,0.5434848175630608,B,478.38860005140305,Correct,sub_005_day_09_data.csv,1,300,103.0,Training at home,,,,,,,,,,,,,
5,12,2580,A,14.429804120938282,38.21514450526445,0.7214902060469142,0.6002820861680558,A,431.3185000792146,Correct,sub_005_day_09_data.csv,1,300,103.0,Training at home,,,,,,,,,,,,,
5,12,2581,A,47.52241720556437,73.67441445954438,2.3761208602782187,1.1572749961181712,A,492.7556999027729,Correct,sub_005_day_09_data.csv,1,300,103.0,Training at home,,,,,,,,,,,,,
5,12,2582,A,30.55661959594127,45.562410491470374,1.5278309797970635,0.7156926703992291,A,708.3493999671191,Correct,sub_005_day_09_data.csv,1,300,103.0,Training at home,,,,,,,,,,,,,
5,12,2583,A,63.102285272687595,80.70218259298191,3.15511426363438,1.26766691981387,A,556.3833999913186,Correct,sub_005_day_09_data.csv,1,300,103.0,Training at home,,,,,,,,,,,,,
5,12,2584,A,40.17547777691078,52.972534973209974,2.008773888845539,0.8320906335693242,A,460.03830013796687,Correct,sub_005_day_09_data.csv,1,300,103.0,Training at home,,,,,,,,,,,,,
5,12,2585,B,70.70636083204968,37.57524654093999,3.535318041602484,0.5902305924492118,B,521.3838000781834,Correct,sub_005_day_09_data.csv,1,300,103.0,Training at home,,,,,,,,,,,,,
5,12,2586,A,19.42746651231569,43.676343166479114,0.9713733256157844,0.6860663941373877,A,379.8076000530273,Correct,sub_005_day_09_data.csv,1,300,103.0,Training at home,,,,,,,,,,,,,
5,12,2587,B,68.51573773066265,59.34728603220422,3.425786886533132,0.9322249890463244,B,729.0928000584245,Correct,sub_005_day_09_data.csv,1,300,103.0,Training at home,,,,,,,,,,,,,
5,12,2588,B,68.40246995340696,57.18963614643427,3.4201234976703483,0.8983327038955559,B,491.84489995241165,Correct,sub_005_day_09_data.csv,1,300,103.0,Training at home,,,,,,,,,,,,,
5,12,2589,A,58.4498415238837,85.14056196838374,2.922492076194185,1.3373848200119045,A,536.5488999523222,Correct,sub_005_day_09_data.csv,1,300,103.0,Training at home,,,,,,,,,,,,,
5,12,2590,B,84.61996466911597,64.4771270628618,4.230998233455798,1.0128043435263112,B,640.4972998425364,Correct,sub_005_day_09_data.csv,1,300,103.0,Training at home,,,,,,,,,,,,,
5,12,2591,A,58.12971338625078,78.04470857460896,2.9064856693125387,1.2259234155477392,A,536.7266000248492,Correct,sub_005_day_09_data.csv,1,300,103.0,Training at home,,,,,,,,,,,,,
5,12,2592,A,43.34733871879815,70.61348919999854,2.1673669359399073,1.109194094575288,A,684.8338998388499,Correct,sub_005_day_09_data.csv,1,300,103.0,Training at home,,,,,,,,,,,,,
5,12,2593,B,66.53990019838523,35.331552900903105,3.326995009919261,0.5549867351669817,B,1532.5536001473663,Correct,sub_005_day_09_data.csv,1,300,103.0,Training at home,,,,,,,,,,,,,
5,12,2594,B,39.042469522778354,28.654238016964257,1.952123476138918,0.4500997182415413,B,617.977200075984,Correct,sub_005_day_09_data.csv,1,300,103.0,Training at home,,,,,,,,,,,,,
5,12,2595,B,75.29546444660163,52.7414877941698,3.7647732223300814,0.8284613529677979,B,1021.1070999503136,Correct,sub_005_day_09_data.csv,1,300,103.0,Training at home,,,,,,,,,,,,,
5,12,2596,A,52.23103431177033,65.51204457432439,2.6115517155885164,1.0290607897817228,A,909.9711999297142,Correct,sub_005_day_09_data.csv,1,300,103.0,Training at home,,,,,,,,,,,,,
5,12,2597,A,52.866241779713654,82.97514755032748,2.6433120889856827,1.3033705698731897,A,839.6174998488277,Correct,sub_005_day_09_data.csv,1,300,103.0,Training at home,,,,,,,,,,,,,
5,12,2598,A,27.780159989623556,55.39666974903701,1.3890079994811777,0.870168853584573,A,492.2389001585543,Correct,sub_005_day_09_data.csv,1,300,103.0,Training at home,,,,,,,,,,,,,
5,12,2599,B,38.83436385544037,12.179865616519567,1.9417181927720184,0.1913208817128439,B,562.7467001322657,Correct,sub_005_day_09_data.csv,1,300,103.0,Training at home,,,,,,,,,,,,,
5,12,2600,A,12.94700015986341,35.05261034211884,0.6473500079931704,0.5506051156997307,A,515.6824998557568,Correct,sub_005_day_09_data.csv,1,300,104.0,Training at home,,,,,,,,,,,,,
5,12,2601,B,62.4036279765627,43.888670039247216,3.120181398828135,0.6894016168556275,B,534.4967001583427,Correct,sub_005_day_09_data.csv,1,300,104.0,Training at home,,,,,,,,,,,,,
5,12,2602,B,48.3210330827297,27.651485631171916,2.416051654136485,0.434348520598667,B,647.0164000056684,Correct,sub_005_day_09_data.csv,1,300,104.0,Training at home,,,,,,,,,,,,,
5,12,2603,B,72.185484512309,50.31710155808473,3.6092742256154504,0.7903791830240525,B,481.88099986873567,Correct,sub_005_day_09_data.csv,1,300,104.0,Training at home,,,,,,,,,,,,,
5,12,2604,B,37.1135058678491,18.975268702004705,1.8556752933924547,0.2980628237705515,B,2205.086200032383,Correct,sub_005_day_09_data.csv,1,300,104.0,Training at home,,,,,,,,,,,,,
5,12,2605,B,72.08477637290657,49.358028494181426,3.604238818645329,0.7753140985649802,B,550.7800001651049,Correct,sub_005_day_09_data.csv,1,300,104.0,Training at home,,,,,,,,,,,,,
5,12,2606,A,43.31704291974994,54.42865875954929,2.165852145987497,0.8549633725187291,A,560.6859000399709,Correct,sub_005_day_09_data.csv,1,300,104.0,Training at home,,,,,,,,,,,,,
5,12,2607,B,58.719113303464006,48.25963404975725,2.9359556651732004,0.758060558978246,B,858.5032999981195,Correct,sub_005_day_09_data.csv,1,300,104.0,Training at home,,,,,,,,,,,,,
5,12,2608,B,36.62316254788041,23.198941880836628,1.8311581273940205,0.3644081269194646,B,686.0726000741124,Correct,sub_005_day_09_data.csv,1,300,104.0,Training at home,,,,,,,,,,,,,
5,12,2609,A,32.68324222197011,50.722997231115066,1.6341621110985056,0.7967549773466326,B,592.7808999549598,Incorrect,sub_005_day_09_data.csv,0,300,104.0,Training at home,,,,,,,,,,,,,
5,12,2610,B,39.18639989671745,22.15670799387581,1.959319994835872,0.3480367553064724,B,463.20779994130135,Correct,sub_005_day_09_data.csv,1,300,104.0,Training at home,,,,,,,,,,,,,
5,12,2611,A,28.36061648047942,53.6744467325825,1.4180308240239707,0.8431162377028892,A,489.0509000979364,Correct,sub_005_day_09_data.csv,1,300,104.0,Training at home,,,,,,,,,,,,,
5,12,2612,B,36.28376891823548,24.881863117721647,1.814188445911774,0.3908433918913058,B,499.4714001659304,Correct,sub_005_day_09_data.csv,1,300,104.0,Training at home,,,,,,,,,,,,,
5,12,2613,B,65.36760789715112,52.130703827108434,3.268380394857556,0.8188671808485458,B,512.9631999880075,Correct,sub_005_day_09_data.csv,1,300,104.0,Training at home,,,,,,,,,,,,,
5,12,2614,A,31.60314135071971,59.69015472966294,1.5801570675359855,0.9376107579517358,A,491.7250999715179,Correct,sub_005_day_09_data.csv,1,300,104.0,Training at home,,,,,,,,,,,,,
5,12,2615,B,80.13289372363491,55.339113156585725,4.006644686181745,0.8692647567445199,B,471.99490014463663,Correct,sub_005_day_09_data.csv,1,300,104.0,Training at home,,,,,,,,,,,,,
5,12,2616,A,28.984672205688305,39.61752817847436,1.4492336102844152,0.6223106773944083,A,403.6446001846343,Correct,sub_005_day_09_data.csv,1,300,104.0,Training at home,,,,,,,,,,,,,
5,12,2617,B,50.69849821624918,39.804725980702486,2.5349249108124585,0.6252511735956485,B,540.353000164032,Correct,sub_005_day_09_data.csv,1,300,104.0,Training at home,,,,,,,,,,,,,
5,12,2618,B,71.07123609552349,60.84706826374475,3.5535618047761743,0.9557835132492858,A,641.8023000005633,Incorrect,sub_005_day_09_data.csv,0,300,104.0,Training at home,,,,,,,,,,,,,
5,12,2619,A,50.09668870814866,76.85552532378422,2.504834435407433,1.207243768724924,A,463.51290005259216,Correct,sub_005_day_09_data.csv,1,300,104.0,Training at home,,,,,,,,,,,,,
5,12,2620,B,82.34800954405608,63.30140420863431,4.117400477202804,0.9943361321188178,B,634.8569998517632,Correct,sub_005_day_09_data.csv,1,300,104.0,Training at home,,,,,,,,,,,,,
5,12,2621,A,23.61483254470008,34.32127942498662,1.180741627235004,0.5391173965167025,A,439.2410998698324,Correct,sub_005_day_09_data.csv,1,300,104.0,Training at home,,,,,,,,,,,,,
5,12,2622,B,56.77147583969463,48.7335486918028,2.8385737919847314,0.7655047927676408,B,408.62070000730455,Correct,sub_005_day_09_data.csv,1,300,104.0,Training at home,,,,,,,,,,,,,
5,12,2623,A,18.603711809766256,38.78806138221444,0.9301855904883128,0.6092814434267741,A,457.6558000408113,Correct,sub_005_day_09_data.csv,1,300,104.0,Training at home,,,,,,,,,,,,,
5,12,2624,B,40.52967605371243,19.65320763720142,2.026483802685622,0.3087118636625339,B,668.699299916625,Correct,sub_005_day_09_data.csv,1,300,104.0,Training at home,,,,,,,,,,,,,
5,12,2625,B,68.24874020977612,47.74086292487216,3.4124370104888055,0.7499117212040786,B,424.5545999146998,Correct,sub_005_day_09_data.csv,1,300,105.0,Training at home,,,,,,,,,,,,,
5,12,2626,A,43.22600853778752,69.74245793081224,2.161300426889376,1.0955119673936746,A,593.8458000309765,Correct,sub_005_day_09_data.csv,1,300,105.0,Training at home,,,,,,,,,,,,,
5,12,2627,B,83.53809434079201,54.88453327877449,4.1769047170396005,0.8621242327215122,B,496.06689997017384,Correct,sub_005_day_09_data.csv,1,300,105.0,Training at home,,,,,,,,,,,,,
5,12,2628,A,58.85133919236222,86.85774492541113,2.942566959618111,1.3643582668252383,A,516.3723998703063,Correct,sub_005_day_09_data.csv,1,300,105.0,Training at home,,,,,,,,,,,,,
5,12,2629,B,50.29176980896223,29.34942069682721,2.5145884904481113,0.4610196222413429,B,368.9588000997901,Correct,sub_005_day_09_data.csv,1,300,105.0,Training at home,,,,,,,,,,,,,
5,12,2630,A,43.54831475469978,70.38578296551378,2.177415737734989,1.1056172934081183,A,485.3350000921637,Correct,sub_005_day_09_data.csv,1,300,105.0,Training at home,,,,,,,,,,,,,
5,12,2631,A,47.08960182065878,59.510709038286805,2.354480091032938,0.9347920316230076,A,709.1925998684019,Correct,sub_005_day_09_data.csv,1,300,105.0,Training at home,,,,,,,,,,,,,
5,12,2632,B,85.71107023971629,59.242765513945145,4.285553511985814,0.930583184584764,B,422.9067999403924,Correct,sub_005_day_09_data.csv,1,300,105.0,Training at home,,,,,,,,,,,,,
5,12,2633,B,44.94867751616412,30.064140039483384,2.247433875808206,0.4722464074226788,B,452.2879000287503,Correct,sub_005_day_09_data.csv,1,300,105.0,Training at home,,,,,,,,,,,,,
5,12,2634,A,58.010541018206126,70.04868064794697,2.9005270509103065,1.1003221025862384,A,489.4755999557674,Correct,sub_005_day_09_data.csv,1,300,105.0,Training at home,,,,,,,,,,,,,
5,12,2635,B,38.18339577399591,17.868117421922452,1.909169788699796,0.2806717321309568,B,475.32600001432,Correct,sub_005_day_09_data.csv,1,300,105.0,Training at home,,,,,,,,,,,,,
5,12,2636,A,40.93039144929206,61.57255471227988,2.0465195724646033,0.9671794277342703,A,1003.2824999652804,Correct,sub_005_day_09_data.csv,1,300,105.0,Training at home,,,,,,,,,,,,,
5,12,2637,A,12.62767998595795,37.58939798321555,0.6313839992978976,0.5904528827846647,A,484.2284999322146,Correct,sub_005_day_09_data.csv,1,300,105.0,Training at home,,,,,,,,,,,,,
5,12,2638,B,54.263244798593725,31.647941950737184,2.713162239929686,0.4971247096683608,B,511.3776000216603,Correct,sub_005_day_09_data.csv,1,300,105.0,Training at home,,,,,,,,,,,,,
5,12,2639,A,33.46779562360588,54.0454491460047,1.6733897811802938,0.8489439299852456,A,467.4806999973953,Correct,sub_005_day_09_data.csv,1,300,105.0,Training at home,,,,,,,,,,,,,
5,12,2640,A,58.53173652794594,79.44890132462208,2.926586826397297,1.2479804236860657,A,576.0881998576224,Correct,sub_005_day_09_data.csv,1,300,105.0,Training at home,,,,,,,,,,,,,
5,12,2641,A,63.16373239175734,73.99925940049434,3.1581866195878674,1.1623776485183923,B,388.3533000480384,Incorrect,sub_005_day_09_data.csv,0,300,105.0,Training at home,,,,,,,,,,,,,
5,12,2642,B,80.71995667052789,67.95384959677008,4.035997833526395,1.067416573381793,B,421.3521999772638,Correct,sub_005_day_09_data.csv,1,300,105.0,Training at home,,,,,,,,,,,,,
5,12,2643,B,80.57986110433245,60.08193960662912,4.028993055216622,0.9437649004080584,B,466.8968999758363,Correct,sub_005_day_09_data.csv,1,300,105.0,Training at home,,,,,,,,,,,,,
5,12,2644,B,78.6320992053071,62.549726583640336,3.931604960265355,0.9825288075960732,B,455.5969999637455,Correct,sub_005_day_09_data.csv,1,300,105.0,Training at home,,,,,,,,,,,,,
5,12,2645,B,49.104007512347366,41.245467344035205,2.4552003756173684,0.6478822860094935,A,531.0394999105483,Incorrect,sub_005_day_09_data.csv,0,300,105.0,Training at home,,,,,,,,,,,,,
5,12,2646,B,76.8858123887113,47.748163558471255,3.844290619435565,0.7500263992884858,B,420.884600142017,Correct,sub_005_day_09_data.csv,1,300,105.0,Training at home,,,,,,,,,,,,,
5,12,2647,B,50.39842614569274,41.770043403037704,2.519921307284637,0.6561223074755503,B,430.2261001430452,Correct,sub_005_day_09_data.csv,1,300,105.0,Training at home,,,,,,,,,,,,,
5,12,2648,B,61.92746307029153,40.382668200401355,3.0963731535145764,0.6343294687536752,B,408.9381999801845,Correct,sub_005_day_09_data.csv,1,300,105.0,Training at home,,,,,,,,,,,,,
5,12,2649,B,36.38001986921468,21.56706371035754,1.819000993460734,0.3387746445598113,B,636.0129998065531,Correct,sub_005_day_09_data.csv,1,300,105.0,Training at home,,,,,,,,,,,,,
5,12,2650,A,64.64215171499595,78.64407598250888,3.2321075857497976,1.2353382567750368,A,505.3506998810917,Correct,sub_005_day_09_data.csv,1,300,106.0,Training at home,,,,,,,,,,,,,
5,12,2651,A,37.440510724693965,61.79910366886287,1.8720255362346985,0.970738050422668,A,729.4746001716703,Correct,sub_005_day_09_data.csv,1,300,106.0,Training at home,,,,,,,,,,,,,
5,12,2652,B,45.900063518402625,31.395712798799053,2.2950031759201313,0.4931627034146107,B,433.14759992063046,Correct,sub_005_day_09_data.csv,1,300,106.0,Training at home,,,,,,,,,,,,,
5,12,2653,B,62.22019619218618,46.74060931897441,3.1110098096093086,0.734199774304003,B,568.2359000202268,Correct,sub_005_day_09_data.csv,1,300,106.0,Training at home,,,,,,,,,,,,,
5,12,2654,A,17.6561897258831,45.53219225216479,0.8828094862941549,0.7152180034061951,A,447.47320003807545,Correct,sub_005_day_09_data.csv,1,300,106.0,Training at home,,,,,,,,,,,,,
5,12,2655,B,32.195766453679475,11.016000116416087,1.6097883226839738,0.1730389251883854,B,721.2776001542807,Correct,sub_005_day_09_data.csv,1,300,106.0,Training at home,,,,,,,,,,,,,
5,12,2656,B,46.25589779930676,16.30087538005867,2.3127948899653377,0.2560535517053752,B,562.3214999213815,Correct,sub_005_day_09_data.csv,1,300,106.0,Training at home,,,,,,,,,,,,,
5,12,2657,A,23.140533787424744,54.50593617466733,1.157026689371237,0.8561772433168452,A,625.4284998867661,Correct,sub_005_day_09_data.csv,1,300,106.0,Training at home,,,,,,,,,,,,,
5,12,2658,A,53.86290638501544,70.91546435327028,2.6931453192507724,1.113937509190714,A,666.2232000380754,Correct,sub_005_day_09_data.csv,1,300,106.0,Training at home,,,,,,,,,,,,,
5,12,2659,A,33.02094009366348,43.921594662456386,1.651047004683174,0.6899187956276083,A,644.6420000866055,Correct,sub_005_day_09_data.csv,1,300,106.0,Training at home,,,,,,,,,,,,,
5,12,2660,A,38.661011920683585,48.712283577064895,1.9330505960341793,0.7651707611264489,B,505.038799950853,Incorrect,sub_005_day_09_data.csv,0,300,106.0,Training at home,,,,,,,,,,,,,
5,12,2661,B,80.23945896851534,62.01177323718484,4.011972948425767,0.9740786561900802,B,492.8914001211524,Correct,sub_005_day_09_data.csv,1,300,106.0,Training at home,,,,,,,,,,,,,
5,12,2662,A,52.90284460901867,73.98407403488464,2.6451422304509333,1.1621391173531848,A,444.2922999151051,Correct,sub_005_day_09_data.csv,1,300,106.0,Training at home,,,,,,,,,,,,,
5,12,2663,A,38.63873077607005,51.693977972460175,1.9319365388035024,0.8120071071655675,B,548.6600000876933,Incorrect,sub_005_day_09_data.csv,0,300,106.0,Training at home,,,,,,,,,,,,,
5,12,2664,A,21.075349359499825,35.841402498040765,1.053767467974991,0.5629954339109986,A,482.6556001789868,Correct,sub_005_day_09_data.csv,1,300,106.0,Training at home,,,,,,,,,,,,,
5,12,2665,B,79.67510552759757,51.180347701462104,3.9837552763798785,0.8039390217354231,B,468.5617999639362,Correct,sub_005_day_09_data.csv,1,300,106.0,Training at home,,,,,,,,,,,,,
5,12,2666,B,40.772422007390546,13.800977240377922,2.0386211003695274,0.2167852435536561,B,532.589599955827,Correct,sub_005_day_09_data.csv,1,300,106.0,Training at home,,,,,,,,,,,,,
5,12,2667,B,89.08212874554927,68.08098492568831,4.4541064372774635,1.0694136104584993,B,491.17269995622337,Correct,sub_005_day_09_data.csv,1,300,106.0,Training at home,,,,,,,,,,,,,
5,12,2668,B,65.89945798773519,42.04508368854703,3.2949728993867597,0.6604426301775369,B,722.1037999261171,Correct,sub_005_day_09_data.csv,1,300,106.0,Training at home,,,,,,,,,,,,,
5,12,2669,B,44.14447551452116,24.088329386355493,2.207223775726058,0.3783785931871277,B,800.267199985683,Correct,sub_005_day_09_data.csv,1,300,106.0,Training at home,,,,,,,,,,,,,
5,12,2670,B,89.91263325941672,67.66840956947853,4.495631662970836,1.062932891917895,B,626.5969998203218,Correct,sub_005_day_09_data.csv,1,300,106.0,Training at home,,,,,,,,,,,,,
5,12,2671,A,46.97495095150228,69.6445040945398,2.348747547575114,1.0939733121315525,A,499.9174000695348,Correct,sub_005_day_09_data.csv,1,300,106.0,Training at home,,,,,,,,,,,,,
5,12,2672,B,60.873819624771734,51.48146184469194,3.043690981238587,0.8086689116367374,A,623.3054001349956,Incorrect,sub_005_day_09_data.csv,0,300,106.0,Training at home,,,,,,,,,,,,,
5,12,2673,B,57.17786284668809,31.21704149192221,2.858893142334405,0.4903561410891528,B,445.8400998264551,Correct,sub_005_day_09_data.csv,1,300,106.0,Training at home,,,,,,,,,,,,,
5,12,2674,B,42.09814466446002,18.573199435254647,2.104907233223001,0.2917471344972704,B,419.6943000424654,Correct,sub_005_day_09_data.csv,1,300,106.0,Training at home,,,,,,,,,,,,,
5,12,2675,B,34.003310203087096,16.4170751204269,1.700165510154355,0.2578788129588246,A,455.9806000906974,Incorrect,sub_005_day_09_data.csv,0,300,107.0,Training at home,,,,,,,,,,,,,
5,12,2676,A,15.402041626152757,42.30685421776242,0.7701020813076377,0.6645545120350839,A,522.4389000795782,Correct,sub_005_day_09_data.csv,1,300,107.0,Training at home,,,,,,,,,,,,,
5,12,2677,B,37.24517262849781,22.655403055974684,1.8622586314248903,0.355870239023829,B,504.8704999499023,Correct,sub_005_day_09_data.csv,1,300,107.0,Training at home,,,,,,,,,,,,,
5,12,2678,B,43.20763373630612,18.386363965771704,2.160381686815306,0.2888123298054823,B,443.0258001666516,Correct,sub_005_day_09_data.csv,1,300,107.0,Training at home,,,,,,,,,,,,,
5,12,2679,A,66.60823553304265,82.29141276499473,3.3304117766521326,1.2926304889801636,A,586.1426000483334,Correct,sub_005_day_09_data.csv,1,300,107.0,Training at home,,,,,,,,,,,,,
5,12,2680,B,67.42712613757459,38.045988984809654,3.3713563068787296,0.5976249974661809,B,656.880300026387,Correct,sub_005_day_09_data.csv,1,300,107.0,Training at home,,,,,,,,,,,,,
5,12,2681,A,60.68453423935196,72.78676602859666,3.0342267119675976,1.1433318471699918,B,1096.9200001563877,Incorrect,sub_005_day_09_data.csv,0,300,107.0,Training at home,,,,,,,,,,,,,
5,12,2682,B,37.78759316341696,21.921391278629887,1.8893796581708475,0.3443404089870551,B,667.1647001057863,Correct,sub_005_day_09_data.csv,1,300,107.0,Training at home,,,,,,,,,,,,,
5,12,2683,A,62.518393263336705,78.46238292345792,3.125919663166835,1.2324842288774234,A,421.4072001632303,Correct,sub_005_day_09_data.csv,1,300,107.0,Training at home,,,,,,,,,,,,,
5,12,2684,B,63.896531346510294,35.91420989294212,3.1948265673255145,0.5641390897957441,B,572.3129999823868,Correct,sub_005_day_09_data.csv,1,300,107.0,Training at home,,,,,,,,,,,,,
5,12,2685,B,66.57374056801036,37.22972109981809,3.328687028400518,0.5848030915119272,B,471.59720002673566,Correct,sub_005_day_09_data.csv,1,300,107.0,Training at home,,,,,,,,,,,,,
5,12,2686,B,67.76570727560338,38.09846323680183,3.388285363780169,0.5984492610889872,B,528.5622000228614,Correct,sub_005_day_09_data.csv,1,300,107.0,Training at home,,,,,,,,,,,,,
5,12,2687,A,45.83984512431487,74.0013853184818,2.291992256215744,1.16241104236005,A,620.6835000775754,Correct,sub_005_day_09_data.csv,1,300,107.0,Training at home,,,,,,,,,,,,,
5,12,2688,B,53.36131124254653,34.03859657292504,2.6680655621273264,0.53467702466004,B,432.2297000326216,Correct,sub_005_day_09_data.csv,1,300,107.0,Training at home,,,,,,,,,,,,,
5,12,2689,A,52.41042382880458,62.267998905023575,2.620521191440229,0.9781034395687968,B,471.7395999468863,Incorrect,sub_005_day_09_data.csv,0,300,107.0,Training at home,,,,,,,,,,,,,
5,12,2690,A,43.259791235433546,67.53655800652493,2.1629895617716772,1.060861772410198,A,439.05539996922016,Correct,sub_005_day_09_data.csv,1,300,107.0,Training at home,,,,,,,,,,,,,
5,12,2691,A,48.44290243456912,79.02989381601228,2.422145121728456,1.241398669131828,A,604.1923000011593,Correct,sub_005_day_09_data.csv,1,300,107.0,Training at home,,,,,,,,,,,,,
5,12,2692,B,45.35656207498067,36.4164493795132,2.2678281037490335,0.5720282492025162,B,594.5765001233667,Correct,sub_005_day_09_data.csv,1,300,107.0,Training at home,,,,,,,,,,,,,
5,12,2693,A,12.661526876893896,33.891002483654766,0.6330763438446947,0.5323586221272163,A,550.6442000623792,Correct,sub_005_day_09_data.csv,1,300,107.0,Training at home,,,,,,,,,,,,,
5,12,2694,A,49.8867386045418,68.28930772919475,2.4943369302270897,1.0726859374038544,B,390.05209994502366,Incorrect,sub_005_day_09_data.csv,0,300,107.0,Training at home,,,,,,,,,,,,,
5,12,2695,B,60.693541822086274,40.680732810461485,3.0346770911043137,0.6390114566999754,B,425.57470011524856,Correct,sub_005_day_09_data.csv,1,300,107.0,Training at home,,,,,,,,,,,,,
5,12,2696,A,57.29478413816108,66.61697553628156,2.8647392069080535,1.0464170047457657,A,460.5152001604438,Correct,sub_005_day_09_data.csv,1,300,107.0,Training at home,,,,,,,,,,,,,
5,12,2697,A,31.76559423157557,62.65061131008837,1.5882797115787783,0.9841135011734162,A,536.9312998373061,Correct,sub_005_day_09_data.csv,1,300,107.0,Training at home,,,,,,,,,,,,,
5,12,2698,A,35.313000194554355,49.78519580598015,1.7656500097277177,0.7820240270079831,A,568.5525999870151,Correct,sub_005_day_09_data.csv,1,300,107.0,Training at home,,,,,,,,,,,,,
5,12,2699,B,49.43645628819148,23.41819577966759,2.471822814409574,0.367852159108656,B,527.1705999039114,Correct,sub_005_day_09_data.csv,1,300,107.0,Training at home,,,,,,,,,,,,,
