subject,day,trial,cat,x,y,xt,yt,resp,rt,fb,f_name,acc,n_trials,block,session_type,ns_left_digit,ns_right_digit,ns_left_size,ns_right_size,ns_congruent,ns_cue,ns_correct_side,ns_resp,ns_rt,ns_fb,acc_stroop,acc_stroop_mean,resp_key
5,20,4500,B,43.94591308691204,28.414583791245192,2.197295654345602,0.4463352384669375,B,494.7440000250936,Correct,sub_005_day_16_data.csv,1,300,180.0,Training at home,,,,,,,,,,,,,
5,20,4501,B,44.48164853779552,34.09873674502532,2.224082426889776,0.5356217042743194,B,400.5646998994053,Correct,sub_005_day_16_data.csv,1,300,180.0,Training at home,,,,,,,,,,,,,
5,20,4502,A,50.077778221605826,77.04232076679648,2.503888911080291,1.2101779446823808,A,466.6542001068592,Correct,sub_005_day_16_data.csv,1,300,180.0,Training at home,,,,,,,,,,,,,
5,20,4503,A,18.363699758040084,34.08067418554824,0.9181849879020042,0.5353379782535284,A,437.0098998770118,Correct,sub_005_day_16_data.csv,1,300,180.0,Training at home,,,,,,,,,,,,,
5,20,4504,A,57.41662601992069,79.0362059287882,2.8708313009960347,1.2414978195674553,B,369.9336000718176,Incorrect,sub_005_day_16_data.csv,0,300,180.0,Training at home,,,,,,,,,,,,,
5,20,4505,B,46.544768567667795,27.960691623267095,2.32723842838339,0.4392055169647278,B,486.2108998931944,Correct,sub_005_day_16_data.csv,1,300,180.0,Training at home,,,,,,,,,,,,,
5,20,4506,B,81.76351237632676,61.78261715572429,4.088175618816337,0.9704790808798708,B,429.70050033181906,Correct,sub_005_day_16_data.csv,1,300,180.0,Training at home,,,,,,,,,,,,,
5,20,4507,B,55.43620143591462,36.3888661312838,2.771810071795731,0.5715949725525181,B,401.0722003877163,Correct,sub_005_day_16_data.csv,1,300,180.0,Training at home,,,,,,,,,,,,,
5,20,4508,A,53.31882081500932,78.22121376256332,2.665941040750466,1.228695952556729,A,411.1800999380648,Correct,sub_005_day_16_data.csv,1,300,180.0,Training at home,,,,,,,,,,,,,
5,20,4509,B,47.17628780908018,30.76613496181242,2.358814390454009,0.4832733178769099,B,538.2184996269643,Correct,sub_005_day_16_data.csv,1,300,180.0,Training at home,,,,,,,,,,,,,
5,20,4510,A,51.61082967546058,75.77635457674236,2.580541483773029,1.1902921942705456,A,443.2668997906149,Correct,sub_005_day_16_data.csv,1,300,180.0,Training at home,,,,,,,,,,,,,
5,20,4511,B,34.42229199417436,22.37297836257239,1.721114599708718,0.3514339223139041,B,534.8661001771688,Correct,sub_005_day_16_data.csv,1,300,180.0,Training at home,,,,,,,,,,,,,
5,20,4512,B,53.45698824114909,45.8440568219643,2.672849412057454,0.7201167606131805,B,450.48650028184056,Correct,sub_005_day_16_data.csv,1,300,180.0,Training at home,,,,,,,,,,,,,
5,20,4513,B,47.30215477597503,22.761762452183245,2.3651077387987516,0.3575409285126744,B,406.5642999485135,Correct,sub_005_day_16_data.csv,1,300,180.0,Training at home,,,,,,,,,,,,,
5,20,4514,A,15.917687150138136,45.34492494428341,0.7958843575069068,0.7122764154127067,A,407.5082000344992,Correct,sub_005_day_16_data.csv,1,300,180.0,Training at home,,,,,,,,,,,,,
5,20,4515,A,17.203901494040764,33.98275021151542,0.8601950747020382,0.5337997920663692,A,402.6380996219814,Correct,sub_005_day_16_data.csv,1,300,180.0,Training at home,,,,,,,,,,,,,
5,20,4516,B,70.21756738318761,37.2136644658193,3.5108783691593803,0.5845508744948672,B,402.5016999803483,Correct,sub_005_day_16_data.csv,1,300,180.0,Training at home,,,,,,,,,,,,,
5,20,4517,B,81.27750077258365,55.59324993536168,4.063875038629183,0.8732567279305674,B,402.26690005511045,Correct,sub_005_day_16_data.csv,1,300,180.0,Training at home,,,,,,,,,,,,,
5,20,4518,B,44.46113066951441,22.75577764333086,2.2230565334757206,0.3574469193550554,B,960.3722002357244,Correct,sub_005_day_16_data.csv,1,300,180.0,Training at home,,,,,,,,,,,,,
5,20,4519,A,23.712175532399144,41.6760311721546,1.1856087766199572,0.6546455668061005,A,409.6415997482836,Correct,sub_005_day_16_data.csv,1,300,180.0,Training at home,,,,,,,,,,,,,
5,20,4520,B,39.170182817045685,25.3683958192844,1.9585091408522843,0.3984858296961094,B,367.5898001529277,Correct,sub_005_day_16_data.csv,1,300,180.0,Training at home,,,,,,,,,,,,,
5,20,4521,B,58.49491742140542,27.60062742014538,2.924745871070271,0.4335496416879886,B,858.4316000342369,Correct,sub_005_day_16_data.csv,1,300,180.0,Training at home,,,,,,,,,,,,,
5,20,4522,B,33.797044774006,11.840775586812384,1.6898522387003,0.1859944679816758,B,569.0660998225212,Correct,sub_005_day_16_data.csv,1,300,180.0,Training at home,,,,,,,,,,,,,
5,20,4523,B,40.17011534637315,18.000040253648795,2.008505767318658,0.2827439711259181,B,1273.465400096029,Correct,sub_005_day_16_data.csv,1,300,180.0,Training at home,,,,,,,,,,,,,
5,20,4524,B,47.77740062828313,29.22545376375433,2.388870031414157,0.4590723542101939,B,412.08479972556233,Correct,sub_005_day_16_data.csv,1,300,180.0,Training at home,,,,,,,,,,,,,
5,20,4525,B,50.143560569277355,37.72993860387864,2.507178028463868,0.5926604896916955,B,383.4782000631094,Correct,sub_005_day_16_data.csv,1,300,181.0,Training at home,,,,,,,,,,,,,
5,20,4526,B,52.25358228325865,25.35708365788452,2.6126791141629324,0.398308138680359,B,315.28039975091815,Correct,sub_005_day_16_data.csv,1,300,181.0,Training at home,,,,,,,,,,,,,
5,20,4527,B,53.28412105465585,28.40198852249044,2.6642060527327924,0.4461373924479879,B,401.0026999749243,Correct,sub_005_day_16_data.csv,1,300,181.0,Training at home,,,,,,,,,,,,,
5,20,4528,A,28.332301409688327,45.00162660252479,1.4166150704844165,0.7068838976704144,A,568.7052002176642,Correct,sub_005_day_16_data.csv,1,300,181.0,Training at home,,,,,,,,,,,,,
5,20,4529,A,65.23230305649682,87.6285367136254,3.2616151528248407,1.3764658359217452,A,515.9791000187397,Correct,sub_005_day_16_data.csv,1,300,181.0,Training at home,,,,,,,,,,,,,
5,20,4530,B,53.77011997765335,31.858013212436177,2.6885059988826674,0.5004245013307803,B,522.8475998155773,Correct,sub_005_day_16_data.csv,1,300,181.0,Training at home,,,,,,,,,,,,,
5,20,4531,A,23.46096592107868,53.131662919860965,1.173048296053934,0.834590209510222,A,454.0665000677109,Correct,sub_005_day_16_data.csv,1,300,181.0,Training at home,,,,,,,,,,,,,
5,20,4532,A,34.03957152393617,47.88698358196767,1.7019785761968085,0.7522069791184234,A,434.0440998785198,Correct,sub_005_day_16_data.csv,1,300,181.0,Training at home,,,,,,,,,,,,,
5,20,4533,B,59.80127625084365,52.05350414127106,2.9900638125421826,0.8176545310191151,B,502.96400021761656,Correct,sub_005_day_16_data.csv,1,300,181.0,Training at home,,,,,,,,,,,,,
5,20,4534,A,25.545618666597186,51.44289851585215,1.2772809333298594,0.8080631602838318,A,416.4852001704275,Correct,sub_005_day_16_data.csv,1,300,181.0,Training at home,,,,,,,,,,,,,
5,20,4535,A,60.640748804023275,85.19572914925942,3.0320374402011634,1.338251384062696,A,436.3291999325156,Correct,sub_005_day_16_data.csv,1,300,181.0,Training at home,,,,,,,,,,,,,
5,20,4536,A,29.34808344910816,42.74227791671209,1.467404172455408,0.6713941315041798,A,458.7739002890885,Correct,sub_005_day_16_data.csv,1,300,181.0,Training at home,,,,,,,,,,,,,
5,20,4537,A,37.15812018054623,69.7969558960412,1.8579060090273112,1.0963680194296692,A,471.4240999892354,Correct,sub_005_day_16_data.csv,1,300,181.0,Training at home,,,,,,,,,,,,,
5,20,4538,B,41.74726718329397,13.989613209665915,2.0873633591646983,0.2197483304302458,B,433.1338000483811,Correct,sub_005_day_16_data.csv,1,300,181.0,Training at home,,,,,,,,,,,,,
5,20,4539,B,33.231795438959566,13.533023616938944,1.6615897719479784,0.2125762378791627,B,482.04579995945096,Correct,sub_005_day_16_data.csv,1,300,181.0,Training at home,,,,,,,,,,,,,
5,20,4540,A,68.44517830918097,82.244952284878,3.4222589154590484,1.2919006894650789,A,463.04709976539016,Correct,sub_005_day_16_data.csv,1,300,181.0,Training at home,,,,,,,,,,,,,
5,20,4541,B,37.63694081377379,20.11071104592341,1.8818470406886896,0.3158983104017004,B,445.67220006138086,Correct,sub_005_day_16_data.csv,1,300,181.0,Training at home,,,,,,,,,,,,,
5,20,4542,B,76.31261637391512,57.72686034303788,3.815630818695756,0.9067714018424587,A,405.5908997543156,Incorrect,sub_005_day_16_data.csv,0,300,181.0,Training at home,,,,,,,,,,,,,
5,20,4543,A,19.461696808761943,50.89818446145472,0.9730848404380972,0.7995068119258215,A,780.8018997311592,Correct,sub_005_day_16_data.csv,1,300,181.0,Training at home,,,,,,,,,,,,,
5,20,4544,A,20.913442234535765,46.27708375528883,1.0456721117267882,0.7269187317758748,A,870.2063001692295,Correct,sub_005_day_16_data.csv,1,300,181.0,Training at home,,,,,,,,,,,,,
5,20,4545,A,67.01896225996904,81.68054838834887,3.350948112998452,1.283035053790112,A,464.91579990834,Correct,sub_005_day_16_data.csv,1,300,181.0,Training at home,,,,,,,,,,,,,
5,20,4546,B,57.34389864909527,30.19322622170879,2.8671949324547636,0.4742740884314752,B,397.81680004671216,Correct,sub_005_day_16_data.csv,1,300,181.0,Training at home,,,,,,,,,,,,,
5,20,4547,B,88.12176986806267,63.261940887752694,4.406088493403133,0.993716243723978,B,746.6478999704123,Correct,sub_005_day_16_data.csv,1,300,181.0,Training at home,,,,,,,,,,,,,
5,20,4548,A,34.568552541689705,54.56820136883704,1.7284276270844854,0.8571553026997347,A,420.1412000693381,Correct,sub_005_day_16_data.csv,1,300,181.0,Training at home,,,,,,,,,,,,,
5,20,4549,B,47.74038431547109,40.01362075062479,2.3870192157735546,0.6285324849684548,B,394.5624004118145,Correct,sub_005_day_16_data.csv,1,300,181.0,Training at home,,,,,,,,,,,,,
5,20,4550,A,34.74404295820649,64.00987872601613,1.7372021479103246,1.0054648238141293,A,410.9437996521592,Correct,sub_005_day_16_data.csv,1,300,182.0,Training at home,,,,,,,,,,,,,
5,20,4551,B,65.69791812321655,48.15905188404785,3.2848959061608274,0.756480618013872,B,365.66919973120093,Correct,sub_005_day_16_data.csv,1,300,182.0,Training at home,,,,,,,,,,,,,
5,20,4552,A,35.54089969227288,43.79620524972524,1.777044984613644,0.6879491833382377,B,765.7281998544931,Incorrect,sub_005_day_16_data.csv,0,300,182.0,Training at home,,,,,,,,,,,,,
5,20,4553,A,26.428294578874876,52.19101010243761,1.3214147289437437,0.8198144696062433,A,462.2030002065003,Correct,sub_005_day_16_data.csv,1,300,182.0,Training at home,,,,,,,,,,,,,
5,20,4554,B,80.40725351514524,59.78923286056078,4.020362675757262,0.939167073592536,B,370.2035001479089,Correct,sub_005_day_16_data.csv,1,300,182.0,Training at home,,,,,,,,,,,,,
5,20,4555,B,61.31220877054136,41.90453142661807,3.065610438527068,0.6582348404099297,B,757.1660997346044,Correct,sub_005_day_16_data.csv,1,300,182.0,Training at home,,,,,,,,,,,,,
5,20,4556,A,50.918568795953455,77.29510596693638,2.545928439797673,1.2141486853208594,A,497.93400010094047,Correct,sub_005_day_16_data.csv,1,300,182.0,Training at home,,,,,,,,,,,,,
5,20,4557,A,46.06984761902475,54.88389145624532,2.303492380951238,0.8621141509967996,A,552.9279001057148,Correct,sub_005_day_16_data.csv,1,300,182.0,Training at home,,,,,,,,,,,,,
5,20,4558,B,70.75676087352497,53.97345978218376,3.537838043676248,0.8478131237026633,B,435.38489984348416,Correct,sub_005_day_16_data.csv,1,300,182.0,Training at home,,,,,,,,,,,,,
5,20,4559,B,74.91158930595206,43.8287118767373,3.7455794652976033,0.6884597962413082,B,379.1066999547183,Correct,sub_005_day_16_data.csv,1,300,182.0,Training at home,,,,,,,,,,,,,
5,20,4560,B,61.50626971014571,49.93753789371809,3.075313485507286,0.7844170109263332,B,408.4151000715792,Correct,sub_005_day_16_data.csv,1,300,182.0,Training at home,,,,,,,,,,,,,
5,20,4561,B,39.05618772994819,22.595257810852612,1.9528093864974096,0.3549254797227097,B,493.5836000367999,Correct,sub_005_day_16_data.csv,1,300,182.0,Training at home,,,,,,,,,,,,,
5,20,4562,B,87.98387019660161,60.92544109419295,4.399193509830081,0.9570145907911712,B,864.0155997127295,Correct,sub_005_day_16_data.csv,1,300,182.0,Training at home,,,,,,,,,,,,,
5,20,4563,A,53.48745271577417,66.30953104897829,2.6743726357887083,1.0415876780322724,A,546.498800162226,Correct,sub_005_day_16_data.csv,1,300,182.0,Training at home,,,,,,,,,,,,,
5,20,4564,A,61.82013522223188,85.14133920159757,3.0910067611115943,1.3373970287626782,B,565.3498000465333,Incorrect,sub_005_day_16_data.csv,0,300,182.0,Training at home,,,,,,,,,,,,,
5,20,4565,A,33.04920371104102,60.65468936236436,1.6524601855520509,0.9527616325328744,A,615.2961002662778,Correct,sub_005_day_16_data.csv,1,300,182.0,Training at home,,,,,,,,,,,,,
5,20,4566,A,31.33210700146042,57.22551250541545,1.5666053500730213,0.8988962484246201,A,438.1107003428042,Correct,sub_005_day_16_data.csv,1,300,182.0,Training at home,,,,,,,,,,,,,
5,20,4567,B,54.482108152764056,36.36799171538659,2.724105407638203,0.5712670779943647,B,388.1924003362656,Correct,sub_005_day_16_data.csv,1,300,182.0,Training at home,,,,,,,,,,,,,
5,20,4568,B,38.66902938141908,15.600659628948105,1.933451469070954,0.2450545884072911,B,549.7916000895202,Correct,sub_005_day_16_data.csv,1,300,182.0,Training at home,,,,,,,,,,,,,
5,20,4569,B,75.80936451254853,51.965249446250205,3.7904682256274262,0.8162682295115036,B,593.0547001771629,Correct,sub_005_day_16_data.csv,1,300,182.0,Training at home,,,,,,,,,,,,,
5,20,4570,A,30.83767522531463,51.70707794345248,1.5418837612657317,0.8122128810287257,A,614.0143997035921,Correct,sub_005_day_16_data.csv,1,300,182.0,Training at home,,,,,,,,,,,,,
5,20,4571,A,45.520044061881535,61.81179053060903,2.2760022030940767,0.9709373351809624,A,902.8780004009604,Correct,sub_005_day_16_data.csv,1,300,182.0,Training at home,,,,,,,,,,,,,
5,20,4572,A,37.02938863766109,59.38650823685639,1.851469431883055,0.9328410899962888,A,868.5212000273168,Correct,sub_005_day_16_data.csv,1,300,182.0,Training at home,,,,,,,,,,,,,
5,20,4573,B,76.96394985077517,53.4154911759184,3.8481974925387585,0.8390485733307783,B,498.07320022955537,Correct,sub_005_day_16_data.csv,1,300,182.0,Training at home,,,,,,,,,,,,,
5,20,4574,A,53.04822538300516,62.197062012459355,2.652411269150258,0.9769891654660556,B,511.1880996264518,Incorrect,sub_005_day_16_data.csv,0,300,182.0,Training at home,,,,,,,,,,,,,
5,20,4575,A,62.47168170970181,72.01410991315647,3.1235840854850903,1.1311949932899017,A,642.8397996351123,Correct,sub_005_day_16_data.csv,1,300,183.0,Training at home,,,,,,,,,,,,,
5,20,4576,B,50.834979517974105,38.31213506152228,2.541748975898705,0.6018056102630917,B,524.0814001299441,Correct,sub_005_day_16_data.csv,1,300,183.0,Training at home,,,,,,,,,,,,,
5,20,4577,A,62.9230905291543,88.6025605848713,3.146154526457715,1.3917657671133814,A,475.2038000151515,Correct,sub_005_day_16_data.csv,1,300,183.0,Training at home,,,,,,,,,,,,,
5,20,4578,B,79.51571494445851,47.7254508218091,3.9757857472229254,0.7496696284552821,B,462.8443000838161,Correct,sub_005_day_16_data.csv,1,300,183.0,Training at home,,,,,,,,,,,,,
5,20,4579,A,43.7445870796657,61.503403841111535,2.187229353983285,0.9660932083900112,A,481.6760998219251,Correct,sub_005_day_16_data.csv,1,300,183.0,Training at home,,,,,,,,,,,,,
5,20,4580,B,81.21689220990808,63.133373416490045,4.060844610495405,0.9916967106079312,B,558.0131001770496,Correct,sub_005_day_16_data.csv,1,300,183.0,Training at home,,,,,,,,,,,,,
5,20,4581,B,87.53875177480997,69.92349017621852,4.376937588740498,1.0983556152548308,B,520.3900001943111,Correct,sub_005_day_16_data.csv,1,300,183.0,Training at home,,,,,,,,,,,,,
5,20,4582,B,40.11086363763226,18.000574527704657,2.0055431818816127,0.2827523634831625,B,524.6023996733129,Correct,sub_005_day_16_data.csv,1,300,183.0,Training at home,,,,,,,,,,,,,
5,20,4583,B,32.39166525586424,17.042590165915282,1.619583262793212,0.2677043803169055,B,477.65030013397336,Correct,sub_005_day_16_data.csv,1,300,183.0,Training at home,,,,,,,,,,,,,
5,20,4584,B,43.518373581831824,23.66615357705297,2.175918679091591,0.371747071081987,B,288.5348000563681,Correct,sub_005_day_16_data.csv,1,300,183.0,Training at home,,,,,,,,,,,,,
5,20,4585,A,18.14893454652192,34.98748524662704,0.907446727326096,0.5495821330919238,A,430.47040002420545,Correct,sub_005_day_16_data.csv,1,300,183.0,Training at home,,,,,,,,,,,,,
5,20,4586,A,45.890242006652315,65.79056113351257,2.294512100332616,1.0334357176629665,A,452.92870001867414,Correct,sub_005_day_16_data.csv,1,300,183.0,Training at home,,,,,,,,,,,,,
5,20,4587,A,50.67358274359606,76.8554015992273,2.533679137179803,1.2072418252641288,A,413.06830011308193,Correct,sub_005_day_16_data.csv,1,300,183.0,Training at home,,,,,,,,,,,,,
5,20,4588,B,77.78476995202575,53.11344642746514,3.889238497601287,0.8343040655167976,B,433.3524000830949,Correct,sub_005_day_16_data.csv,1,300,183.0,Training at home,,,,,,,,,,,,,
5,20,4589,B,62.335088626745936,45.12173641995262,3.116754431337297,0.7087705782706908,B,415.04149977117777,Correct,sub_005_day_16_data.csv,1,300,183.0,Training at home,,,,,,,,,,,,,
5,20,4590,B,49.28440505806659,19.091610372923466,2.46422025290333,0.2998903144638752,B,513.069000095129,Correct,sub_005_day_16_data.csv,1,300,183.0,Training at home,,,,,,,,,,,,,
5,20,4591,B,52.66154896279297,30.001033293454505,2.6330774481396486,0.4712551289740974,B,490.8825997263193,Correct,sub_005_day_16_data.csv,1,300,183.0,Training at home,,,,,,,,,,,,,
5,20,4592,B,55.54105862661173,32.17742449926653,2.7770529313305867,0.5054418020916798,B,392.4030000343919,Correct,sub_005_day_16_data.csv,1,300,183.0,Training at home,,,,,,,,,,,,,
5,20,4593,B,72.59793669207944,44.2517610066816,3.629896834603972,0.6951050364350109,B,407.97279961407185,Correct,sub_005_day_16_data.csv,1,300,183.0,Training at home,,,,,,,,,,,,,
5,20,4594,B,47.564382859175545,26.32590629652255,2.3782191429587773,0.4135263691012427,B,591.8209003284574,Correct,sub_005_day_16_data.csv,1,300,183.0,Training at home,,,,,,,,,,,,,
5,20,4595,B,53.39530754372356,29.533016306556625,2.6697653771861782,0.4639035353351293,B,485.19890010356903,Correct,sub_005_day_16_data.csv,1,300,183.0,Training at home,,,,,,,,,,,,,
5,20,4596,A,59.48827882558193,79.29682098314206,2.974413941279096,1.2455915512683202,A,467.1753002330661,Correct,sub_005_day_16_data.csv,1,300,183.0,Training at home,,,,,,,,,,,,,
5,20,4597,B,37.032032113740655,19.519368526371952,1.8516016056870328,0.3066095238258097,B,487.8203999251127,Correct,sub_005_day_16_data.csv,1,300,183.0,Training at home,,,,,,,,,,,,,
5,20,4598,A,23.763005994747047,49.37484614884241,1.1881502997373523,0.775578269666648,A,435.0037998519838,Correct,sub_005_day_16_data.csv,1,300,183.0,Training at home,,,,,,,,,,,,,
5,20,4599,B,80.24736099423203,55.46222774640964,4.012368049711601,0.8711986361992226,B,393.2556002400815,Correct,sub_005_day_16_data.csv,1,300,183.0,Training at home,,,,,,,,,,,,,
5,20,4600,B,58.53763890041661,48.04672989867402,2.9268819450208303,0.7547162683934368,A,551.5274000354111,Incorrect,sub_005_day_16_data.csv,0,300,184.0,Training at home,,,,,,,,,,,,,
5,20,4601,A,21.995375509151945,52.306035406349906,1.099768775457597,0.8216212828549824,A,435.47420017421246,Correct,sub_005_day_16_data.csv,1,300,184.0,Training at home,,,,,,,,,,,,,
5,20,4602,B,41.19419710904338,18.28972215806833,2.059709855452169,0.2872942838399296,B,456.1665002256632,Correct,sub_005_day_16_data.csv,1,300,184.0,Training at home,,,,,,,,,,,,,
5,20,4603,A,34.981278559003485,63.551003366219796,1.7490639279501743,0.9982568265178816,A,483.8465000502765,Correct,sub_005_day_16_data.csv,1,300,184.0,Training at home,,,,,,,,,,,,,
5,20,4604,B,55.89464434798279,36.800168071597035,2.7947322173991394,0.5780556883229946,B,379.8930998891592,Correct,sub_005_day_16_data.csv,1,300,184.0,Training at home,,,,,,,,,,,,,
5,20,4605,A,23.348723201269436,44.61929640373068,1.1674361600634715,0.7008782689515289,A,1831.037000287324,Correct,sub_005_day_16_data.csv,1,300,184.0,Training at home,,,,,,,,,,,,,
5,20,4606,B,82.45769202337289,52.69444577123676,4.122884601168645,0.8277224185995158,B,340.31719993799925,Correct,sub_005_day_16_data.csv,1,300,184.0,Training at home,,,,,,,,,,,,,
5,20,4607,B,75.81656310054537,43.625093293979695,3.790828155027268,0.6852613630226798,B,363.7609998695552,Correct,sub_005_day_16_data.csv,1,300,184.0,Training at home,,,,,,,,,,,,,
5,20,4608,B,33.13754615115618,19.329701391828827,1.6568773075578092,0.3036302394432692,B,515.0914001278579,Correct,sub_005_day_16_data.csv,1,300,184.0,Training at home,,,,,,,,,,,,,
5,20,4609,B,65.70565864187628,40.27077755243795,3.2852829320938146,0.632571894565439,B,2323.9544997923076,Correct,sub_005_day_16_data.csv,1,300,184.0,Training at home,,,,,,,,,,,,,
5,20,4610,B,87.45527352305768,62.35559152086766,4.372763676152885,0.9794793411610192,B,347.66800003126264,Correct,sub_005_day_16_data.csv,1,300,184.0,Training at home,,,,,,,,,,,,,
5,20,4611,A,51.88830100625248,72.45019640537693,2.594415050312624,1.138045023891349,B,372.8222995996475,Incorrect,sub_005_day_16_data.csv,0,300,184.0,Training at home,,,,,,,,,,,,,
5,20,4612,B,43.25989783630288,23.241166103804513,2.1629948918151443,0.3650713834628618,B,381.2299999408424,Correct,sub_005_day_16_data.csv,1,300,184.0,Training at home,,,,,,,,,,,,,
5,20,4613,B,53.987406793622704,35.76321985624285,2.699370339681135,0.5617673438454458,B,342.1117998659611,Correct,sub_005_day_16_data.csv,1,300,184.0,Training at home,,,,,,,,,,,,,
5,20,4614,B,65.12789688899217,52.80904156708713,3.2563948444496083,0.8295224851513947,B,506.3239000737667,Correct,sub_005_day_16_data.csv,1,300,184.0,Training at home,,,,,,,,,,,,,
5,20,4615,B,70.71200197677157,52.9373010737274,3.535600098838579,0.8315371807704652,B,339.2309001646936,Correct,sub_005_day_16_data.csv,1,300,184.0,Training at home,,,,,,,,,,,,,
5,20,4616,A,34.432111923321315,64.94993829537565,1.7216055961660657,1.0202312449993125,A,467.6510998979211,Correct,sub_005_day_16_data.csv,1,300,184.0,Training at home,,,,,,,,,,,,,
5,20,4617,A,65.37480469591694,84.76049975728387,3.268740234795847,1.331414816760412,A,851.1864999309182,Correct,sub_005_day_16_data.csv,1,300,184.0,Training at home,,,,,,,,,,,,,
5,20,4618,B,71.91498888194923,44.18733675800608,3.5957494440974616,0.6940930627032507,B,403.10110012069345,Correct,sub_005_day_16_data.csv,1,300,184.0,Training at home,,,,,,,,,,,,,
5,20,4619,A,60.63791080553153,74.3032021149898,3.031895540276577,1.1671519695132475,A,464.0529998578131,Correct,sub_005_day_16_data.csv,1,300,184.0,Training at home,,,,,,,,,,,,,
5,20,4620,A,55.45177958811136,70.9269165468289,2.7725889794055676,1.11411739982647,A,415.7302002422512,Correct,sub_005_day_16_data.csv,1,300,184.0,Training at home,,,,,,,,,,,,,
5,20,4621,A,35.00910327370091,63.55489128998119,1.7504551636850454,0.9983178978815144,A,553.823500405997,Correct,sub_005_day_16_data.csv,1,300,184.0,Training at home,,,,,,,,,,,,,
5,20,4622,A,29.156333808392283,50.09646019734953,1.457816690419614,0.7869133566342339,A,454.97089996933937,Correct,sub_005_day_16_data.csv,1,300,184.0,Training at home,,,,,,,,,,,,,
5,20,4623,A,30.22884513006505,43.15406844666903,1.5114422565032524,0.6778625220228326,B,826.8106998875737,Incorrect,sub_005_day_16_data.csv,0,300,184.0,Training at home,,,,,,,,,,,,,
5,20,4624,A,29.61652032685531,53.01874528131149,1.4808260163427656,0.8328165033915834,A,431.549500208348,Correct,sub_005_day_16_data.csv,1,300,184.0,Training at home,,,,,,,,,,,,,
5,20,4625,A,40.99400032908364,59.5329830412174,2.049700016454182,0.9351419108428716,A,505.16200019046664,Correct,sub_005_day_16_data.csv,1,300,185.0,Training at home,,,,,,,,,,,,,
5,20,4626,A,26.763064156451183,52.28015458769065,1.3381532078225593,0.8212147479061385,A,442.1198000200093,Correct,sub_005_day_16_data.csv,1,300,185.0,Training at home,,,,,,,,,,,,,
5,20,4627,B,55.78916434644223,30.543858629004156,2.789458217322111,0.4797818094058234,B,502.265399787575,Correct,sub_005_day_16_data.csv,1,300,185.0,Training at home,,,,,,,,,,,,,
5,20,4628,B,70.38928157633325,41.326279428249386,3.5194640788166622,0.6491516792599363,B,383.4960996173322,Correct,sub_005_day_16_data.csv,1,300,185.0,Training at home,,,,,,,,,,,,,
5,20,4629,A,49.40972002900172,57.840012909260416,2.470486001450086,0.9085487981963568,B,407.1388999000192,Incorrect,sub_005_day_16_data.csv,0,300,185.0,Training at home,,,,,,,,,,,,,
5,20,4630,B,74.66977812946305,54.68014495882828,3.733488906473153,0.8589137084993995,B,436.784400139004,Correct,sub_005_day_16_data.csv,1,300,185.0,Training at home,,,,,,,,,,,,,
5,20,4631,B,56.54785886519696,36.068470780596805,2.827392943259848,0.5665622141527051,B,472.02999982982874,Correct,sub_005_day_16_data.csv,1,300,185.0,Training at home,,,,,,,,,,,,,
5,20,4632,A,32.7195572768297,42.92108453292545,1.635977863841485,0.6742028192637254,A,691.4868000894785,Correct,sub_005_day_16_data.csv,1,300,185.0,Training at home,,,,,,,,,,,,,
5,20,4633,B,79.80725530256895,50.961444143457506,3.990362765128447,0.8005004926870634,B,456.6609999164939,Correct,sub_005_day_16_data.csv,1,300,185.0,Training at home,,,,,,,,,,,,,
5,20,4634,A,12.51814155320162,30.458018135347896,0.6259070776600809,0.4784334300845682,A,1316.3891001604495,Correct,sub_005_day_16_data.csv,1,300,185.0,Training at home,,,,,,,,,,,,,
5,20,4635,A,32.36448197468995,64.69314650483471,1.6182240987344978,1.0161975689859848,A,1576.6615997999909,Correct,sub_005_day_16_data.csv,1,300,185.0,Training at home,,,,,,,,,,,,,
5,20,4636,B,62.72896146803215,40.07831299074509,3.1364480734016076,0.6295486682999857,B,398.2927999459207,Correct,sub_005_day_16_data.csv,1,300,185.0,Training at home,,,,,,,,,,,,,
5,20,4637,B,76.50716772183317,54.86466554385403,3.8253583860916582,0.8618121510711644,B,371.3715998455882,Correct,sub_005_day_16_data.csv,1,300,185.0,Training at home,,,,,,,,,,,,,
5,20,4638,A,55.59017719049426,80.66445764764532,2.779508859524713,1.267074337758238,A,454.5648000203073,Correct,sub_005_day_16_data.csv,1,300,185.0,Training at home,,,,,,,,,,,,,
5,20,4639,B,46.43764080102464,35.2456459578187,2.321882040051232,0.5536373120605501,B,488.8964998535812,Correct,sub_005_day_16_data.csv,1,300,185.0,Training at home,,,,,,,,,,,,,
5,20,4640,A,38.35595180282069,70.41975136355671,1.9177975901410345,1.106150867756848,A,443.9425002783537,Correct,sub_005_day_16_data.csv,1,300,185.0,Training at home,,,,,,,,,,,,,
5,20,4641,B,58.551942518067165,25.918364856505193,2.9275971259033584,0.4071247231312829,B,561.2328997813165,Correct,sub_005_day_16_data.csv,1,300,185.0,Training at home,,,,,,,,,,,,,
5,20,4642,A,41.541168823922895,56.17372402561448,2.077058441196145,0.8823747936182545,A,478.0327002517879,Correct,sub_005_day_16_data.csv,1,300,185.0,Training at home,,,,,,,,,,,,,
5,20,4643,B,54.67743917717749,24.220082386107265,2.7338719588588742,0.3804481644676706,B,391.669100150466,Correct,sub_005_day_16_data.csv,1,300,185.0,Training at home,,,,,,,,,,,,,
5,20,4644,B,62.25158883000737,45.19494944064069,3.1125794415003685,0.7099206057103946,B,392.8954997099936,Correct,sub_005_day_16_data.csv,1,300,185.0,Training at home,,,,,,,,,,,,,
5,20,4645,B,74.13894360078517,53.90696007546081,3.7069471800392586,0.8467685487521297,B,387.1619999408722,Correct,sub_005_day_16_data.csv,1,300,185.0,Training at home,,,,,,,,,,,,,
5,20,4646,B,72.96251433910672,46.951060606165186,3.648125716955336,0.7375055353928884,B,389.89390013739467,Correct,sub_005_day_16_data.csv,1,300,185.0,Training at home,,,,,,,,,,,,,
5,20,4647,A,13.03536607873109,31.116827704273373,0.6517683039365545,0.4887819865938229,A,451.3061996549368,Correct,sub_005_day_16_data.csv,1,300,185.0,Training at home,,,,,,,,,,,,,
5,20,4648,A,61.47851342783396,83.96693538329602,3.073925671391698,1.318949536723058,A,646.5896000154316,Correct,sub_005_day_16_data.csv,1,300,185.0,Training at home,,,,,,,,,,,,,
5,20,4649,A,60.15282966356324,74.20566122819307,3.007641483178162,1.1656198008463212,A,956.5396001562476,Correct,sub_005_day_16_data.csv,1,300,185.0,Training at home,,,,,,,,,,,,,
5,20,4650,A,69.07260727131269,84.31599729574499,3.4536303635656345,1.3244325884220467,A,775.9475996717811,Correct,sub_005_day_16_data.csv,1,300,186.0,Training at home,,,,,,,,,,,,,
5,20,4651,B,67.19227320452949,35.403854075909535,3.3596136602264743,0.5561224393682123,B,589.298399630934,Correct,sub_005_day_16_data.csv,1,300,186.0,Training at home,,,,,,,,,,,,,
5,20,4652,A,38.87842927743454,58.15514435761504,1.9439214638717273,0.9134988714116866,A,471.89030004665256,Correct,sub_005_day_16_data.csv,1,300,186.0,Training at home,,,,,,,,,,,,,
5,20,4653,A,32.586532251167824,48.42083328022257,1.6293266125583912,0.760592670569217,A,446.4893997646868,Correct,sub_005_day_16_data.csv,1,300,186.0,Training at home,,,,,,,,,,,,,
5,20,4654,B,77.68844828981828,60.49910198179049,3.884422414490914,0.9503176716738636,B,403.6574000492692,Correct,sub_005_day_16_data.csv,1,300,186.0,Training at home,,,,,,,,,,,,,
5,20,4655,A,27.478646473994154,42.257070600728895,1.373932323699708,0.6637725128073757,A,531.9372001104057,Correct,sub_005_day_16_data.csv,1,300,186.0,Training at home,,,,,,,,,,,,,
5,20,4656,B,51.24440193143147,27.60887904502952,2.5622200965715733,0.4336792579085695,B,373.2684999704361,Correct,sub_005_day_16_data.csv,1,300,186.0,Training at home,,,,,,,,,,,,,
5,20,4657,A,22.14077727674698,36.57418478063077,1.107038863837349,0.5745059510893262,A,516.8435000814497,Correct,sub_005_day_16_data.csv,1,300,186.0,Training at home,,,,,,,,,,,,,
5,20,4658,B,56.63144396267591,26.76312681586428,2.831572198133795,0.420394212959056,B,630.7331998832524,Correct,sub_005_day_16_data.csv,1,300,186.0,Training at home,,,,,,,,,,,,,
5,20,4659,A,18.135190590976062,37.129359711920415,0.9067595295488032,0.5832266185173101,A,439.3990002572537,Correct,sub_005_day_16_data.csv,1,300,186.0,Training at home,,,,,,,,,,,,,
5,20,4660,A,66.67869007200363,89.59409641242237,3.3339345036001817,1.407340775471409,A,459.2998996376991,Correct,sub_005_day_16_data.csv,1,300,186.0,Training at home,,,,,,,,,,,,,
5,20,4661,B,72.75015381936562,51.399386192887064,3.637507690968281,0.8073796703129931,B,375.89590018615127,Correct,sub_005_day_16_data.csv,1,300,186.0,Training at home,,,,,,,,,,,,,
5,20,4662,B,65.95491042842887,44.94924027686506,3.2977455214214437,0.7060610151912086,B,436.8921997956931,Correct,sub_005_day_16_data.csv,1,300,186.0,Training at home,,,,,,,,,,,,,
5,20,4663,A,66.58297721477018,86.10902026795226,3.329148860738509,1.352597327408067,A,415.2238997630775,Correct,sub_005_day_16_data.csv,1,300,186.0,Training at home,,,,,,,,,,,,,
5,20,4664,B,57.5883894015227,33.1667033122657,2.879419470076135,0.520981357348031,B,545.6837001256645,Correct,sub_005_day_16_data.csv,1,300,186.0,Training at home,,,,,,,,,,,,,
5,20,4665,B,47.36624082477237,37.502264900287514,2.3683120412386187,0.589084199518608,A,403.79799995571375,Incorrect,sub_005_day_16_data.csv,0,300,186.0,Training at home,,,,,,,,,,,,,
5,20,4666,B,37.27037265185717,11.79308574881495,1.8635186325928583,0.1852453577581576,B,506.6607999615371,Correct,sub_005_day_16_data.csv,1,300,186.0,Training at home,,,,,,,,,,,,,
5,20,4667,B,70.10003945982947,40.50841753896086,3.5050019729914736,0.6363047347447369,B,424.8930001631379,Correct,sub_005_day_16_data.csv,1,300,186.0,Training at home,,,,,,,,,,,,,
5,20,4668,B,52.54214120072332,42.53603192557874,2.6271070600361663,0.6681544270512954,B,606.3979002647102,Correct,sub_005_day_16_data.csv,1,300,186.0,Training at home,,,,,,,,,,,,,
5,20,4669,A,62.69648787665152,86.36195037682128,3.134824393832576,1.35657034426754,A,481.80959979072213,Correct,sub_005_day_16_data.csv,1,300,186.0,Training at home,,,,,,,,,,,,,
5,20,4670,A,40.92535862759191,70.13295550760566,2.0462679313795955,1.1016458889861689,A,395.8016000688076,Correct,sub_005_day_16_data.csv,1,300,186.0,Training at home,,,,,,,,,,,,,
5,20,4671,B,48.03160099573195,24.466372046440497,2.401580049786597,0.3843168734054606,B,407.8991999849677,Correct,sub_005_day_16_data.csv,1,300,186.0,Training at home,,,,,,,,,,,,,
5,20,4672,A,46.391618963249805,69.10928514523954,2.3195809481624905,1.0855661125356335,A,423.97050000727177,Correct,sub_005_day_16_data.csv,1,300,186.0,Training at home,,,,,,,,,,,,,
5,20,4673,A,55.82888792044257,81.90640520197528,2.7914443960221287,1.2865828043223717,A,445.65320014953613,Correct,sub_005_day_16_data.csv,1,300,186.0,Training at home,,,,,,,,,,,,,
5,20,4674,A,45.31116248253897,61.45933874105627,2.2655581241269487,0.9654010354169448,A,736.9455001316965,Correct,sub_005_day_16_data.csv,1,300,186.0,Training at home,,,,,,,,,,,,,
5,20,4675,A,12.305043608715124,31.84902346551536,0.6152521804357562,0.5002832907163598,A,441.8385000899434,Correct,sub_005_day_16_data.csv,1,300,187.0,Training at home,,,,,,,,,,,,,
5,20,4676,A,54.7661786326609,81.86452830799283,2.738308931633045,1.2859250036099197,A,570.3920996747911,Correct,sub_005_day_16_data.csv,1,300,187.0,Training at home,,,,,,,,,,,,,
5,20,4677,A,69.58572949123331,86.40815169131696,3.4792864745616656,1.357296072818569,A,425.82640005275607,Correct,sub_005_day_16_data.csv,1,300,187.0,Training at home,,,,,,,,,,,,,
5,20,4678,B,35.05297885248672,14.299937518157332,1.752648942624336,0.2246228932691806,B,994.0895000472664,Correct,sub_005_day_16_data.csv,1,300,187.0,Training at home,,,,,,,,,,,,,
5,20,4679,A,40.73679371973401,72.01221272027038,2.0368396859867004,1.1311651922537345,A,410.1142999716103,Correct,sub_005_day_16_data.csv,1,300,187.0,Training at home,,,,,,,,,,,,,
5,20,4680,B,73.73374448666095,42.59751271457746,3.686687224333048,0.6691201650265718,B,375.75169978663325,Correct,sub_005_day_16_data.csv,1,300,187.0,Training at home,,,,,,,,,,,,,
5,20,4681,B,50.621026724065835,35.145202295491806,2.531051336203292,0.5520595467022209,B,505.2513000555337,Correct,sub_005_day_16_data.csv,1,300,187.0,Training at home,,,,,,,,,,,,,
5,20,4682,A,60.82103432460426,82.99269524083238,3.041051716230213,1.3036462083510778,A,462.1296003460884,Correct,sub_005_day_16_data.csv,1,300,187.0,Training at home,,,,,,,,,,,,,
5,20,4683,A,26.842825571059947,49.68238860250729,1.3421412785529976,0.7804091352321508,A,1051.7910001799464,Correct,sub_005_day_16_data.csv,1,300,187.0,Training at home,,,,,,,,,,,,,
5,20,4684,B,58.182009592331504,30.616582581117576,2.9091004796165754,0.4809241545743211,B,784.1444998048246,Correct,sub_005_day_16_data.csv,1,300,187.0,Training at home,,,,,,,,,,,,,
5,20,4685,B,85.84967259090678,57.04979322965249,4.292483629545339,0.8961360564954649,B,457.6379996724427,Correct,sub_005_day_16_data.csv,1,300,187.0,Training at home,,,,,,,,,,,,,
5,20,4686,B,85.73537837566954,66.19553352908568,4.286768918783477,1.039797009177162,B,464.6354997530579,Correct,sub_005_day_16_data.csv,1,300,187.0,Training at home,,,,,,,,,,,,,
5,20,4687,A,50.75642011859348,67.6335794953318,2.537821005929674,1.0623857823925782,A,422.5734998472035,Correct,sub_005_day_16_data.csv,1,300,187.0,Training at home,,,,,,,,,,,,,
5,20,4688,A,56.616459039123335,78.61599166773942,2.8308229519561667,1.2348971093902328,A,442.890299949795,Correct,sub_005_day_16_data.csv,1,300,187.0,Training at home,,,,,,,,,,,,,
5,20,4689,A,49.27426871010711,70.09546102039589,2.463713435505355,1.1010569269583272,B,386.9626000523567,Incorrect,sub_005_day_16_data.csv,0,300,187.0,Training at home,,,,,,,,,,,,,
5,20,4690,B,46.706879006734184,19.205482554687553,2.3353439503367093,0.3016790145122667,B,637.3689002357423,Correct,sub_005_day_16_data.csv,1,300,187.0,Training at home,,,,,,,,,,,,,
5,20,4691,B,74.81231465317528,55.28569485505965,3.740615732658764,0.8684256640263122,B,495.9454000927508,Correct,sub_005_day_16_data.csv,1,300,187.0,Training at home,,,,,,,,,,,,,
5,20,4692,B,35.99877487639114,16.51030327736296,1.7999387438195569,0.2593432374235148,B,913.9915998093784,Correct,sub_005_day_16_data.csv,1,300,187.0,Training at home,,,,,,,,,,,,,
5,20,4693,A,29.785422571267915,43.04137586573375,1.489271128563396,0.6760923511009308,A,1033.1441001035273,Correct,sub_005_day_16_data.csv,1,300,187.0,Training at home,,,,,,,,,,,,,
5,20,4694,A,28.78136454837432,42.57761400552135,1.439068227418716,0.6688075968356387,A,511.5629001520574,Correct,sub_005_day_16_data.csv,1,300,187.0,Training at home,,,,,,,,,,,,,
5,20,4695,B,55.27530020537266,48.22992955809126,2.7637650102686333,0.7575939619142635,B,461.56790014356375,Correct,sub_005_day_16_data.csv,1,300,187.0,Training at home,,,,,,,,,,,,,
5,20,4696,A,20.418800461700673,35.29691469228089,1.0209400230850336,0.5544426394582765,A,417.3572999425232,Correct,sub_005_day_16_data.csv,1,300,187.0,Training at home,,,,,,,,,,,,,
5,20,4697,A,40.86253059224417,60.58001611394077,2.0431265296122088,0.951588667889538,B,423.902400303632,Incorrect,sub_005_day_16_data.csv,0,300,187.0,Training at home,,,,,,,,,,,,,
5,20,4698,A,56.760611269454586,73.01162936348955,2.838030563472729,1.1468639921747978,A,650.3131999634206,Correct,sub_005_day_16_data.csv,1,300,187.0,Training at home,,,,,,,,,,,,,
5,20,4699,B,37.94445778703138,21.750978220895092,1.897222889351569,0.341663566935778,B,516.4663000032306,Correct,sub_005_day_16_data.csv,1,300,187.0,Training at home,,,,,,,,,,,,,
5,20,4700,A,49.911995803742315,81.03993260337575,2.4955997901871156,1.272972284570886,A,399.5551997795701,Correct,sub_005_day_16_data.csv,1,300,188.0,Training at home,,,,,,,,,,,,,
5,20,4701,A,17.11363434982905,39.98601578962437,0.8556817174914525,0.6280988672550469,A,373.5587000846863,Correct,sub_005_day_16_data.csv,1,300,188.0,Training at home,,,,,,,,,,,,,
5,20,4702,A,23.12993384420516,46.62496799900656,1.1564966922102582,0.7323832846976911,A,467.57639991119504,Correct,sub_005_day_16_data.csv,1,300,188.0,Training at home,,,,,,,,,,,,,
5,20,4703,A,36.74969350155476,69.34084302682228,1.837484675077738,1.0892034152339396,A,432.56100034341216,Correct,sub_005_day_16_data.csv,1,300,188.0,Training at home,,,,,,,,,,,,,
5,20,4704,A,12.810559339593748,34.69609935940264,0.6405279669796875,0.5450050542786042,A,404.2020998895168,Correct,sub_005_day_16_data.csv,1,300,188.0,Training at home,,,,,,,,,,,,,
5,20,4705,A,21.92445779053848,39.61104231191351,1.096222889526924,0.6222087976407097,A,402.3294998332858,Correct,sub_005_day_16_data.csv,1,300,188.0,Training at home,,,,,,,,,,,,,
5,20,4706,A,13.020330317982342,37.80619873147028,0.6510165158991171,0.5938583809747139,A,382.8690000809729,Correct,sub_005_day_16_data.csv,1,300,188.0,Training at home,,,,,,,,,,,,,
5,20,4707,A,62.96713088779754,87.19676102608489,3.1483565443898773,1.3696835192818653,A,474.9900000169873,Correct,sub_005_day_16_data.csv,1,300,188.0,Training at home,,,,,,,,,,,,,
5,20,4708,B,78.99824826355189,63.57521681070973,3.9499124131775942,0.99863717041452,B,509.61589999496937,Correct,sub_005_day_16_data.csv,1,300,188.0,Training at home,,,,,,,,,,,,,
5,20,4709,A,43.81864469035362,50.89026159924172,2.190932234517681,0.7993823598972026,B,419.3833000026643,Incorrect,sub_005_day_16_data.csv,0,300,188.0,Training at home,,,,,,,,,,,,,
5,20,4710,B,77.32204671344441,53.4768890295215,3.866102335672221,0.8400130085599067,B,447.28249963372946,Correct,sub_005_day_16_data.csv,1,300,188.0,Training at home,,,,,,,,,,,,,
5,20,4711,A,53.498208896574624,74.00942689876078,2.6749104448287313,1.1625373592076884,A,713.2406998425722,Correct,sub_005_day_16_data.csv,1,300,188.0,Training at home,,,,,,,,,,,,,
5,20,4712,A,65.23838393645114,80.89577378302073,3.261919196822557,1.2707078431159986,A,530.9407003223896,Correct,sub_005_day_16_data.csv,1,300,188.0,Training at home,,,,,,,,,,,,,
5,20,4713,A,24.78701105991843,51.56003673285132,1.2393505529959217,0.8099031630937279,A,432.62539990246296,Correct,sub_005_day_16_data.csv,1,300,188.0,Training at home,,,,,,,,,,,,,
5,20,4714,A,31.247399516681856,61.161677821588505,1.5623699758340928,0.9607253886276412,A,459.4248002395034,Correct,sub_005_day_16_data.csv,1,300,188.0,Training at home,,,,,,,,,,,,,
5,20,4715,A,25.43819150618034,57.50813353271729,1.271909575309017,0.9033356491402272,A,957.0232001133264,Correct,sub_005_day_16_data.csv,1,300,188.0,Training at home,,,,,,,,,,,,,
5,20,4716,B,70.27751382128454,42.42165034081967,3.513875691064227,0.6663577253193701,B,491.93580029532313,Correct,sub_005_day_16_data.csv,1,300,188.0,Training at home,,,,,,,,,,,,,
5,20,4717,A,49.18593166384396,66.92613044788246,2.4592965831921982,1.0512731987412984,A,503.8986997678876,Correct,sub_005_day_16_data.csv,1,300,188.0,Training at home,,,,,,,,,,,,,
5,20,4718,A,45.50806261451187,55.87209099999989,2.2754031307255933,0.8776367531315004,A,509.2687997967005,Correct,sub_005_day_16_data.csv,1,300,188.0,Training at home,,,,,,,,,,,,,
5,20,4719,A,31.398844058854728,56.76567399213006,1.5699422029427366,0.8916731219487448,A,458.1128000281751,Correct,sub_005_day_16_data.csv,1,300,188.0,Training at home,,,,,,,,,,,,,
5,20,4720,B,35.538878224309386,20.850376154269657,1.7769439112154692,0.3275169427541867,B,516.284600365907,Correct,sub_005_day_16_data.csv,1,300,188.0,Training at home,,,,,,,,,,,,,
5,20,4721,A,30.846364142276265,47.183892988926814,1.542318207113813,0.741162857908897,A,616.3824000395834,Correct,sub_005_day_16_data.csv,1,300,188.0,Training at home,,,,,,,,,,,,,
5,20,4722,B,81.17557943282316,56.90982928004997,4.058778971641158,0.8939375079162716,B,421.7006000690162,Correct,sub_005_day_16_data.csv,1,300,188.0,Training at home,,,,,,,,,,,,,
5,20,4723,A,27.149143029651967,52.470856705144314,1.3574571514825982,0.8242102897622207,A,438.24120005592704,Correct,sub_005_day_16_data.csv,1,300,188.0,Training at home,,,,,,,,,,,,,
5,20,4724,A,55.235630412389845,78.51532931491093,2.761781520619492,1.2333159088495376,A,600.5027000792325,Correct,sub_005_day_16_data.csv,1,300,188.0,Training at home,,,,,,,,,,,,,
5,20,4725,B,60.63440565314586,40.621285515320906,3.031720282657293,0.6380776607715282,A,452.9351997189224,Incorrect,sub_005_day_16_data.csv,0,300,189.0,Training at home,,,,,,,,,,,,,
5,20,4726,B,82.50387830756824,66.84213769284885,4.1251939153784125,1.0499538436304567,B,432.72559996694326,Correct,sub_005_day_16_data.csv,1,300,189.0,Training at home,,,,,,,,,,,,,
5,20,4727,B,55.66088658723439,42.51898990323579,2.783044329361719,0.6678867315903206,A,522.1708002500236,Incorrect,sub_005_day_16_data.csv,0,300,189.0,Training at home,,,,,,,,,,,,,
5,20,4728,A,22.02258716188984,35.759489930471915,1.101129358094492,0.5617087543084438,A,516.6931999847293,Correct,sub_005_day_16_data.csv,1,300,189.0,Training at home,,,,,,,,,,,,,
5,20,4729,B,73.46087359548736,44.25150174682657,3.673043679774368,0.6951009639907313,B,1424.86899998039,Correct,sub_005_day_16_data.csv,1,300,189.0,Training at home,,,,,,,,,,,,,
5,20,4730,B,74.98305507389503,45.006828177787334,3.749152753694751,0.706965603823574,B,827.7533003129065,Correct,sub_005_day_16_data.csv,1,300,189.0,Training at home,,,,,,,,,,,,,
5,20,4731,B,69.2901229684086,58.61751754522293,3.46450614842043,0.9207618124587158,B,535.0708002224565,Correct,sub_005_day_16_data.csv,1,300,189.0,Training at home,,,,,,,,,,,,,
5,20,4732,B,40.61943503695818,24.64878690467418,2.030971751847909,0.3871822392981235,B,836.0391003079712,Correct,sub_005_day_16_data.csv,1,300,189.0,Training at home,,,,,,,,,,,,,
5,20,4733,B,72.42786671097022,45.070799501412175,3.6213933355485106,0.707970463025275,B,435.7571001164615,Correct,sub_005_day_16_data.csv,1,300,189.0,Training at home,,,,,,,,,,,,,
5,20,4734,B,78.04530889234978,56.20914490348581,3.90226544461749,0.8829311834667758,B,404.2151002213359,Correct,sub_005_day_16_data.csv,1,300,189.0,Training at home,,,,,,,,,,,,,
5,20,4735,A,39.847991224677486,69.04223489876208,1.9923995612338743,1.0845128897268588,A,401.35329961776733,Correct,sub_005_day_16_data.csv,1,300,189.0,Training at home,,,,,,,,,,,,,
5,20,4736,B,42.87789054742869,23.09831044396171,2.143894527371435,0.3628274120054325,B,446.0678999312222,Correct,sub_005_day_16_data.csv,1,300,189.0,Training at home,,,,,,,,,,,,,
5,20,4737,B,61.129586617690656,52.0382233776737,3.0564793308845326,0.8174145013458217,B,327.239700127393,Correct,sub_005_day_16_data.csv,1,300,189.0,Training at home,,,,,,,,,,,,,
5,20,4738,B,60.28460001600296,52.45506459646748,3.014230000800148,0.8239622278992015,B,387.9441004246474,Correct,sub_005_day_16_data.csv,1,300,189.0,Training at home,,,,,,,,,,,,,
5,20,4739,A,11.203558779227528,32.654703454494665,0.5601779389613764,0.5129388823889685,A,386.94570027291775,Correct,sub_005_day_16_data.csv,1,300,189.0,Training at home,,,,,,,,,,,,,
5,20,4740,B,61.63572275360075,28.903629492082395,3.0817861376800373,0.4540171503720366,B,412.07259986549616,Correct,sub_005_day_16_data.csv,1,300,189.0,Training at home,,,,,,,,,,,,,
5,20,4741,A,46.68046879898418,69.68339033342507,2.334023439949209,1.094584135743591,B,381.2462002970278,Incorrect,sub_005_day_16_data.csv,0,300,189.0,Training at home,,,,,,,,,,,,,
5,20,4742,B,36.39088722285073,19.68645224483012,1.8195443611425364,0.309234068738023,B,466.4997002109885,Correct,sub_005_day_16_data.csv,1,300,189.0,Training at home,,,,,,,,,,,,,
5,20,4743,B,72.61561403024658,52.38807550283776,3.630780701512328,0.8229099656771126,B,612.2456002049148,Correct,sub_005_day_16_data.csv,1,300,189.0,Training at home,,,,,,,,,,,,,
5,20,4744,A,40.86531952673415,71.27828519234333,2.0432659763367074,1.11963668560372,A,869.9022000655532,Correct,sub_005_day_16_data.csv,1,300,189.0,Training at home,,,,,,,,,,,,,
5,20,4745,A,49.413888585431906,71.94389463205428,2.470694429271595,1.1300920542334991,A,519.6393001824617,Correct,sub_005_day_16_data.csv,1,300,189.0,Training at home,,,,,,,,,,,,,
5,20,4746,A,45.08642762209845,63.57324988908324,2.2543213811049223,0.9986062740818604,A,787.3844001442194,Correct,sub_005_day_16_data.csv,1,300,189.0,Training at home,,,,,,,,,,,,,
5,20,4747,B,31.064915172422772,14.50953066161717,1.5532457586211388,0.2279151746678618,A,451.9771002233029,Incorrect,sub_005_day_16_data.csv,0,300,189.0,Training at home,,,,,,,,,,,,,
5,20,4748,B,79.71751921539965,65.76809340363064,3.9858759607699823,1.0330827953872668,B,431.8846999667585,Correct,sub_005_day_16_data.csv,1,300,189.0,Training at home,,,,,,,,,,,,,
5,20,4749,B,50.99619897137769,40.311750549205705,2.549809948568884,0.6332154968936448,B,366.8492999859154,Correct,sub_005_day_16_data.csv,1,300,189.0,Training at home,,,,,,,,,,,,,
5,20,4750,B,70.66225771800957,58.13163404535765,3.533112885900479,0.9131295722903296,B,470.1740997843444,Correct,sub_005_day_16_data.csv,1,300,190.0,Training at home,,,,,,,,,,,,,
5,20,4751,A,63.2139507430947,83.75070153338224,3.160697537154735,1.315552943351325,A,426.50890024378896,Correct,sub_005_day_16_data.csv,1,300,190.0,Training at home,,,,,,,,,,,,,
5,20,4752,A,28.821772115276215,43.18971204713001,1.4410886057638106,0.678422410389611,A,453.8520001806319,Correct,sub_005_day_16_data.csv,1,300,190.0,Training at home,,,,,,,,,,,,,
5,20,4753,B,58.45997025616699,42.54487664258802,2.9229985128083498,0.6682933595411925,B,388.19869980216026,Correct,sub_005_day_16_data.csv,1,300,190.0,Training at home,,,,,,,,,,,,,
5,20,4754,B,74.07435612844546,63.18151867434566,3.703717806422273,0.9924529745498534,B,402.66469959169626,Correct,sub_005_day_16_data.csv,1,300,190.0,Training at home,,,,,,,,,,,,,
5,20,4755,A,41.7813494916744,68.03999576555654,2.08906747458372,1.0687697542367651,A,413.56829972937703,Correct,sub_005_day_16_data.csv,1,300,190.0,Training at home,,,,,,,,,,,,,
5,20,4756,A,16.288850748262895,33.19333018725744,0.8144425374131447,0.5213996113223414,A,417.5254995934665,Correct,sub_005_day_16_data.csv,1,300,190.0,Training at home,,,,,,,,,,,,,
5,20,4757,B,50.52890784884277,37.59259306567283,2.5264453924421386,0.5905030710225418,B,574.5676001533866,Correct,sub_005_day_16_data.csv,1,300,190.0,Training at home,,,,,,,,,,,,,
5,20,4758,A,21.4101611546065,35.46174926630376,1.070508057730325,0.5570318548923157,A,435.705800075084,Correct,sub_005_day_16_data.csv,1,300,190.0,Training at home,,,,,,,,,,,,,
5,20,4759,A,34.352434265559346,45.68283447454901,1.7176217132779672,0.7175842859020084,A,410.73729982599616,Correct,sub_005_day_16_data.csv,1,300,190.0,Training at home,,,,,,,,,,,,,
5,20,4760,B,83.48295603108922,57.727172420857656,4.174147801554461,0.9067763039493886,B,458.5553999058902,Correct,sub_005_day_16_data.csv,1,300,190.0,Training at home,,,,,,,,,,,,,
5,20,4761,A,25.034726259091084,41.461252231223,1.2517363129545542,0.6512718270912179,A,478.532399982214,Correct,sub_005_day_16_data.csv,1,300,190.0,Training at home,,,,,,,,,,,,,
5,20,4762,B,35.16924190735163,10.7924200891089,1.7584620953675818,0.1695269383319971,B,552.6700001209974,Correct,sub_005_day_16_data.csv,1,300,190.0,Training at home,,,,,,,,,,,,,
5,20,4763,A,40.024558204322226,70.68721172357202,2.0012279102161115,1.1103521252676007,A,452.05230033025146,Correct,sub_005_day_16_data.csv,1,300,190.0,Training at home,,,,,,,,,,,,,
5,20,4764,B,66.86501513305302,39.90266249758652,3.343250756652651,0.6267895568054538,B,422.50029975548387,Correct,sub_005_day_16_data.csv,1,300,190.0,Training at home,,,,,,,,,,,,,
5,20,4765,A,44.74122233644192,67.82505727124996,2.237061116822096,1.0653935082633292,A,444.7387997061014,Correct,sub_005_day_16_data.csv,1,300,190.0,Training at home,,,,,,,,,,,,,
5,20,4766,A,39.64598982030086,62.951949937578554,1.982299491015043,0.988846917265246,A,460.4180003516376,Correct,sub_005_day_16_data.csv,1,300,190.0,Training at home,,,,,,,,,,,,,
5,20,4767,A,31.593795991469797,54.17963402421754,1.5796897995734898,0.8510517011233271,A,461.0385997220874,Correct,sub_005_day_16_data.csv,1,300,190.0,Training at home,,,,,,,,,,,,,
5,20,4768,B,53.58522259387916,34.17107675187699,2.6792611296939577,0.5367580184447487,B,387.9899000748992,Correct,sub_005_day_16_data.csv,1,300,190.0,Training at home,,,,,,,,,,,,,
5,20,4769,A,16.26797029494765,41.44065624748091,0.8133985147473823,0.65094830613513,A,404.8386998474598,Correct,sub_005_day_16_data.csv,1,300,190.0,Training at home,,,,,,,,,,,,,
5,20,4770,B,63.21534291117605,39.527148579277046,3.1607671455588022,0.620890997970045,B,375.77669974416494,Correct,sub_005_day_16_data.csv,1,300,190.0,Training at home,,,,,,,,,,,,,
5,20,4771,A,30.877816633282684,46.947372706730626,1.5438908316641342,0.7374476060040345,A,507.6635000295937,Correct,sub_005_day_16_data.csv,1,300,190.0,Training at home,,,,,,,,,,,,,
5,20,4772,A,22.7151498697472,41.52581196649156,1.13575749348736,0.6522859290414049,A,469.67090014368296,Correct,sub_005_day_16_data.csv,1,300,190.0,Training at home,,,,,,,,,,,,,
5,20,4773,A,26.914248283545863,54.98277811394936,1.3457124141772931,0.8636674589837049,A,512.1924998238683,Correct,sub_005_day_16_data.csv,1,300,190.0,Training at home,,,,,,,,,,,,,
5,20,4774,B,70.95032542763292,51.97869593810323,3.5475162713816464,0.8164794465116137,B,589.1630998812616,Correct,sub_005_day_16_data.csv,1,300,190.0,Training at home,,,,,,,,,,,,,
5,20,4775,B,71.21150365819697,56.558914558370034,3.560575182909849,0.8884253523579405,B,437.0121001265943,Correct,sub_005_day_16_data.csv,1,300,191.0,Training at home,,,,,,,,,,,,,
5,20,4776,A,55.56778350026938,69.85673325178418,2.778389175013469,1.097306999937935,B,360.8385999687016,Incorrect,sub_005_day_16_data.csv,0,300,191.0,Training at home,,,,,,,,,,,,,
5,20,4777,A,16.779374787552857,31.303811172574516,0.8389687393776428,0.4917191160456109,A,443.71140003204346,Correct,sub_005_day_16_data.csv,1,300,191.0,Training at home,,,,,,,,,,,,,
5,20,4778,A,50.99443394617209,70.69288730517889,2.549721697308604,1.1104412770950058,A,438.4095002897084,Correct,sub_005_day_16_data.csv,1,300,191.0,Training at home,,,,,,,,,,,,,
5,20,4779,B,62.56258784350374,45.357753138389626,3.128129392175187,0.7124779202145212,B,551.4201000332832,Correct,sub_005_day_16_data.csv,1,300,191.0,Training at home,,,,,,,,,,,,,
5,20,4780,A,62.922398892390135,73.44625814009473,3.1461199446195063,1.1536911250329056,B,308.76930011436343,Incorrect,sub_005_day_16_data.csv,0,300,191.0,Training at home,,,,,,,,,,,,,
5,20,4781,A,19.28827295497956,32.05835415379947,0.964413647748978,0.5035714494787812,A,483.6928001604974,Correct,sub_005_day_16_data.csv,1,300,191.0,Training at home,,,,,,,,,,,,,
5,20,4782,A,55.163180152787845,69.64197177554976,2.7581590076393923,1.0939335345578742,A,533.8726998306811,Correct,sub_005_day_16_data.csv,1,300,191.0,Training at home,,,,,,,,,,,,,
5,20,4783,A,57.033667580815035,79.59880814276548,2.851683379040752,1.250335154479077,A,625.0114999711514,Correct,sub_005_day_16_data.csv,1,300,191.0,Training at home,,,,,,,,,,,,,
5,20,4784,A,36.42010198424235,50.60596878019865,1.8210050992121176,0.7949166987383325,B,616.9039998203516,Incorrect,sub_005_day_16_data.csv,0,300,191.0,Training at home,,,,,,,,,,,,,
5,20,4785,B,43.50674436951418,35.50389502191777,2.17533721847571,0.5576938788734005,A,428.78639977425337,Incorrect,sub_005_day_16_data.csv,0,300,191.0,Training at home,,,,,,,,,,,,,
5,20,4786,B,33.986192604282095,10.960748868083574,1.6993096302141049,0.1721710406090699,B,439.2003999091685,Correct,sub_005_day_16_data.csv,1,300,191.0,Training at home,,,,,,,,,,,,,
5,20,4787,A,31.03131359590681,46.51868239475394,1.5515656797953403,0.7307137543301792,A,496.89360009506345,Correct,sub_005_day_16_data.csv,1,300,191.0,Training at home,,,,,,,,,,,,,
5,20,4788,A,51.84853681271201,63.754077828466194,2.592426840635601,1.0014467127115063,A,952.437199652195,Correct,sub_005_day_16_data.csv,1,300,191.0,Training at home,,,,,,,,,,,,,
5,20,4789,B,46.078784314520874,32.82343634557192,2.303939215726044,0.5155893324441048,B,530.0242002122104,Correct,sub_005_day_16_data.csv,1,300,191.0,Training at home,,,,,,,,,,,,,
5,20,4790,B,47.72984060232122,25.202292749182355,2.386492030116061,0.3958766887722529,B,549.3391002528369,Correct,sub_005_day_16_data.csv,1,300,191.0,Training at home,,,,,,,,,,,,,
5,20,4791,A,32.784176274093554,49.55685736247936,1.639208813704678,0.778437295124812,A,495.8194000646472,Correct,sub_005_day_16_data.csv,1,300,191.0,Training at home,,,,,,,,,,,,,
5,20,4792,A,24.237215547178657,54.68801744244748,1.211860777358933,0.8590373691829173,A,410.3908003307879,Correct,sub_005_day_16_data.csv,1,300,191.0,Training at home,,,,,,,,,,,,,
5,20,4793,B,47.553770192786,17.799664394128573,2.3776885096393,0.2795964744847907,B,454.5718003064394,Correct,sub_005_day_16_data.csv,1,300,191.0,Training at home,,,,,,,,,,,,,
5,20,4794,A,38.14605893466538,65.57470361336972,1.9073029467332692,1.0300450356654518,A,709.8519001156092,Correct,sub_005_day_16_data.csv,1,300,191.0,Training at home,,,,,,,,,,,,,
5,20,4795,B,86.1056677828401,59.08783968904216,4.305283389142005,0.9281496154179312,B,394.1399003379047,Correct,sub_005_day_16_data.csv,1,300,191.0,Training at home,,,,,,,,,,,,,
5,20,4796,A,23.56608551364131,56.097579315024035,1.1783042756820654,0.8811787153012512,A,394.0030001103878,Correct,sub_005_day_16_data.csv,1,300,191.0,Training at home,,,,,,,,,,,,,
5,20,4797,A,27.68305542687036,42.42444832060752,1.3841527713435182,0.6664016758831021,A,470.2628003433347,Correct,sub_005_day_16_data.csv,1,300,191.0,Training at home,,,,,,,,,,,,,
5,20,4798,B,54.72043998794569,47.409649445472,2.7360219993972845,0.7447090320358112,B,372.83819960430264,Correct,sub_005_day_16_data.csv,1,300,191.0,Training at home,,,,,,,,,,,,,
5,20,4799,B,37.83801544088537,12.78110797416683,1.8919007720442689,0.2007651745819021,B,537.9359000362456,Correct,sub_005_day_16_data.csv,1,300,191.0,Training at home,,,,,,,,,,,,,
