subject,day,trial,cat,x,y,xt,yt,resp,rt,fb,f_name,acc,n_trials,block,session_type,ns_left_digit,ns_right_digit,ns_left_size,ns_right_size,ns_congruent,ns_cue,ns_correct_side,ns_resp,ns_rt,ns_fb,acc_stroop,acc_stroop_mean,resp_key
5,3,300,B,37.59800246816624,20.26775962455538,1.879900123408312,0.318365223706135,A,1112.6937000080943,Incorrect,sub_005_day_02_data.csv,0,300,12.0,Training at home,,,,,,,,,,,,,
5,3,301,B,61.55983981689213,52.149251797485334,3.0779919908446067,0.819158531685921,B,641.0927000106312,Correct,sub_005_day_02_data.csv,1,300,12.0,Training at home,,,,,,,,,,,,,
5,3,302,A,44.863715164033735,64.55081813611066,2.2431857582016868,1.0139618801980803,A,598.8571000052616,Correct,sub_005_day_02_data.csv,1,300,12.0,Training at home,,,,,,,,,,,,,
5,3,303,A,25.70263304953854,42.11755321583752,1.2851316524769272,0.6615809788502616,A,1027.168000000529,Correct,sub_005_day_02_data.csv,1,300,12.0,Training at home,,,,,,,,,,,,,
5,3,304,B,52.45801597427391,31.049349311155773,2.6229007987136956,0.4877220384733514,B,539.1930000041611,Correct,sub_005_day_02_data.csv,1,300,12.0,Training at home,,,,,,,,,,,,,
5,3,305,B,38.93516545747919,21.402050961852463,1.9467582728739592,0.3361826303675502,B,477.96610003570095,Correct,sub_005_day_02_data.csv,1,300,12.0,Training at home,,,,,,,,,,,,,
5,3,306,B,62.723970552129,38.834908073888144,3.1361985276064503,0.6100173095388096,B,587.0016999542713,Correct,sub_005_day_02_data.csv,1,300,12.0,Training at home,,,,,,,,,,,,,
5,3,307,A,14.881569136909754,32.81946774676436,0.7440784568454876,0.5155269938398104,A,613.6400999967009,Correct,sub_005_day_02_data.csv,1,300,12.0,Training at home,,,,,,,,,,,,,
5,3,308,A,54.20178185082817,72.33792322268779,2.7100890925414087,1.136281440861692,B,614.2783000250347,Incorrect,sub_005_day_02_data.csv,0,300,12.0,Training at home,,,,,,,,,,,,,
5,3,309,A,15.737357000616589,40.87898600406186,0.7868678500308293,0.6421256105828036,A,769.0629999851808,Correct,sub_005_day_02_data.csv,1,300,12.0,Training at home,,,,,,,,,,,,,
5,3,310,A,65.52567623596725,85.88960081288621,3.2762838117983626,1.3491506946676164,A,764.8089000140317,Correct,sub_005_day_02_data.csv,1,300,12.0,Training at home,,,,,,,,,,,,,
5,3,311,A,42.2332970263451,60.88410902170045,2.111664851317255,0.956365348114671,A,732.2590000112541,Correct,sub_005_day_02_data.csv,1,300,12.0,Training at home,,,,,,,,,,,,,
5,3,312,A,40.969073441199384,57.3240159380759,2.0484536720599693,0.9004435367266174,A,778.4375000046566,Correct,sub_005_day_02_data.csv,1,300,12.0,Training at home,,,,,,,,,,,,,
5,3,313,B,51.7758840590252,34.489285911265014,2.5887942029512603,0.5417564362319407,B,668.5442000161856,Correct,sub_005_day_02_data.csv,1,300,12.0,Training at home,,,,,,,,,,,,,
5,3,314,A,59.005983591508794,67.52957759219686,2.9502991795754396,1.0607521243183378,A,671.6375999967568,Correct,sub_005_day_02_data.csv,1,300,12.0,Training at home,,,,,,,,,,,,,
5,3,315,A,19.902313943511658,39.70347071055852,0.9951156971755828,0.6236606595315409,A,589.3190000206232,Correct,sub_005_day_02_data.csv,1,300,12.0,Training at home,,,,,,,,,,,,,
5,3,316,A,26.02090478240191,37.80500562733499,1.3010452391200955,0.593839639738782,B,732.0888999965973,Incorrect,sub_005_day_02_data.csv,0,300,12.0,Training at home,,,,,,,,,,,,,
5,3,317,B,78.83856623165155,52.740547755869024,3.941928311582578,0.8284465868806988,B,715.7440999872051,Correct,sub_005_day_02_data.csv,1,300,12.0,Training at home,,,,,,,,,,,,,
5,3,318,A,51.48499280453841,74.60600411779926,2.5742496402269204,1.17190837225084,A,801.6358999884687,Correct,sub_005_day_02_data.csv,1,300,12.0,Training at home,,,,,,,,,,,,,
5,3,319,B,66.22549267606493,48.74721622314495,3.311274633803247,0.7657194818479269,B,911.1829999601468,Correct,sub_005_day_02_data.csv,1,300,12.0,Training at home,,,,,,,,,,,,,
5,3,320,B,40.5686234183285,24.190724636739688,2.0284311709164253,0.3799870140189751,B,570.7594000268728,Correct,sub_005_day_02_data.csv,1,300,12.0,Training at home,,,,,,,,,,,,,
5,3,321,A,33.216163806492716,56.87891239546589,1.660808190324636,0.8934518666288652,A,615.4222000041045,Correct,sub_005_day_02_data.csv,1,300,12.0,Training at home,,,,,,,,,,,,,
5,3,322,B,71.03696980508539,40.11084433569089,3.5518484902542697,0.6300596694714514,B,580.6401000008918,Correct,sub_005_day_02_data.csv,1,300,12.0,Training at home,,,,,,,,,,,,,
5,3,323,B,62.88476892322799,34.944901703480966,3.1442384461613995,0.5489132323603663,B,503.21359996451065,Correct,sub_005_day_02_data.csv,1,300,12.0,Training at home,,,,,,,,,,,,,
5,3,324,B,77.70782165154067,57.39785523161589,3.8853910825770335,0.9016034016372748,A,686.6145000094548,Incorrect,sub_005_day_02_data.csv,0,300,12.0,Training at home,,,,,,,,,,,,,
5,3,325,B,81.38452417858274,53.90914764790725,4.069226208929137,0.8468029110597644,B,752.3129999754019,Correct,sub_005_day_02_data.csv,1,300,13.0,Training at home,,,,,,,,,,,,,
5,3,326,A,54.90839688913055,67.6152084644071,2.745419844456527,1.0620972109136189,A,683.0606999574229,Correct,sub_005_day_02_data.csv,1,300,13.0,Training at home,,,,,,,,,,,,,
5,3,327,B,60.1695941022532,48.160653152558346,3.00847970511266,0.7565057706808171,B,846.0154999629594,Correct,sub_005_day_02_data.csv,1,300,13.0,Training at home,,,,,,,,,,,,,
5,3,328,A,56.41351791060141,78.90999355185649,2.8206758955300706,1.2395152801866514,A,602.3210999555886,Correct,sub_005_day_02_data.csv,1,300,13.0,Training at home,,,,,,,,,,,,,
5,3,329,A,57.313798505082495,83.24045843248294,2.8656899252541246,1.3075380634646747,A,673.7536999862641,Correct,sub_005_day_02_data.csv,1,300,13.0,Training at home,,,,,,,,,,,,,
5,3,330,B,61.245839160921456,54.05084360512009,3.062291958046073,0.8490286659508807,A,473.2435999903828,Incorrect,sub_005_day_02_data.csv,0,300,13.0,Training at home,,,,,,,,,,,,,
5,3,331,A,63.06182273512205,72.71116100702508,3.1530911367561028,1.1421442462682732,A,583.2612999947742,Correct,sub_005_day_02_data.csv,1,300,13.0,Training at home,,,,,,,,,,,,,
5,3,332,B,56.95210502463445,37.60803364774881,2.8476052512317223,0.5907456111186271,B,613.1046000518836,Correct,sub_005_day_02_data.csv,1,300,13.0,Training at home,,,,,,,,,,,,,
5,3,333,A,10.956088995872754,33.17373127199207,0.5478044497936377,0.5210917522812614,A,597.108100017067,Correct,sub_005_day_02_data.csv,1,300,13.0,Training at home,,,,,,,,,,,,,
5,3,334,A,67.28209928270607,81.47187212078202,3.364104964135304,1.2797571746442793,A,674.598099954892,Correct,sub_005_day_02_data.csv,1,300,13.0,Training at home,,,,,,,,,,,,,
5,3,335,B,72.26827107747548,53.62763120649531,3.6134135538737735,0.8423808611387421,B,510.2664000005461,Correct,sub_005_day_02_data.csv,1,300,13.0,Training at home,,,,,,,,,,,,,
5,3,336,A,34.39509891281073,52.78495664649051,1.7197549456405363,0.8291441601033515,B,583.1563000101596,Incorrect,sub_005_day_02_data.csv,0,300,13.0,Training at home,,,,,,,,,,,,,
5,3,337,A,44.29552964122527,55.37653536142693,2.214776482061263,0.8698525833635712,A,667.2247999813408,Correct,sub_005_day_02_data.csv,1,300,13.0,Training at home,,,,,,,,,,,,,
5,3,338,B,73.30208344146605,40.36303126686107,3.665104172073302,0.6340210125229293,B,445.50180004443973,Correct,sub_005_day_02_data.csv,1,300,13.0,Training at home,,,,,,,,,,,,,
5,3,339,A,44.73636256050012,54.059072030506194,2.2368181280250057,0.8491579177545987,B,546.9983000075445,Incorrect,sub_005_day_02_data.csv,0,300,13.0,Training at home,,,,,,,,,,,,,
5,3,340,A,63.38337856877389,77.92925365760486,3.1691689284386944,1.2241098539523347,B,485.2104000165127,Incorrect,sub_005_day_02_data.csv,0,300,13.0,Training at home,,,,,,,,,,,,,
5,3,341,A,30.185724081830728,62.37829596234317,1.5092862040915365,0.9798359816937358,A,816.9736000127159,Correct,sub_005_day_02_data.csv,1,300,13.0,Training at home,,,,,,,,,,,,,
5,3,342,B,35.53676566698128,13.62500220737947,1.776838283349064,0.2140210341992402,B,667.3744000145234,Correct,sub_005_day_02_data.csv,1,300,13.0,Training at home,,,,,,,,,,,,,
5,3,343,A,39.58887374638916,53.65243715729968,1.979443687319458,0.8427705121028036,B,553.8888000301085,Incorrect,sub_005_day_02_data.csv,0,300,13.0,Training at home,,,,,,,,,,,,,
5,3,344,B,87.70229118191827,61.15541160673162,4.385114559095913,0.9606269591548402,B,604.1297999909148,Correct,sub_005_day_02_data.csv,1,300,13.0,Training at home,,,,,,,,,,,,,
5,3,345,A,43.521778218140085,61.23630538965394,2.176088910907004,0.9618976357255894,A,753.6811999743804,Correct,sub_005_day_02_data.csv,1,300,13.0,Training at home,,,,,,,,,,,,,
5,3,346,B,81.95175749196527,56.068513723517015,4.097587874598264,0.8807221540574978,A,717.8567000082694,Incorrect,sub_005_day_02_data.csv,0,300,13.0,Training at home,,,,,,,,,,,,,
5,3,347,A,50.777222884127575,79.40660076642892,2.5388611442063787,1.2473159680717536,B,913.9149999828078,Incorrect,sub_005_day_02_data.csv,0,300,13.0,Training at home,,,,,,,,,,,,,
5,3,348,B,45.69271664216277,23.425736154229973,2.2846358321081386,0.3679706030353085,B,567.0308000408113,Correct,sub_005_day_02_data.csv,1,300,13.0,Training at home,,,,,,,,,,,,,
5,3,349,A,17.98034752268817,33.99473750236772,0.8990173761344085,0.5339880879907594,B,983.7015999946744,Incorrect,sub_005_day_02_data.csv,0,300,13.0,Training at home,,,,,,,,,,,,,
5,3,350,A,17.39030402731655,34.57964727904796,0.8695152013658274,0.5431758292779167,A,586.5846999804489,Correct,sub_005_day_02_data.csv,1,300,14.0,Training at home,,,,,,,,,,,,,
5,3,351,B,56.62331510046012,48.22073909973311,2.831165755023006,0.7574495985319581,B,520.8834999939427,Correct,sub_005_day_02_data.csv,1,300,14.0,Training at home,,,,,,,,,,,,,
5,3,352,B,61.30915192089474,28.72093540590738,3.065457596044737,0.451147398377128,B,483.4585999487899,Correct,sub_005_day_02_data.csv,1,300,14.0,Training at home,,,,,,,,,,,,,
5,3,353,B,45.354825311447414,23.042134303387815,2.2677412655723708,0.3619449992527627,B,421.29069997463375,Correct,sub_005_day_02_data.csv,1,300,14.0,Training at home,,,,,,,,,,,,,
5,3,354,A,18.783095669384057,40.812602817174465,0.9391547834692028,0.6410828659215669,A,783.127999980934,Correct,sub_005_day_02_data.csv,1,300,14.0,Training at home,,,,,,,,,,,,,
5,3,355,A,63.757365017711386,86.92786306869576,3.1878682508855696,1.3654596800443703,A,524.9119999934919,Correct,sub_005_day_02_data.csv,1,300,14.0,Training at home,,,,,,,,,,,,,
5,3,356,B,48.24387008457183,26.39825056456245,2.4121935042285916,0.41466275020626,B,539.9443000205792,Correct,sub_005_day_02_data.csv,1,300,14.0,Training at home,,,,,,,,,,,,,
5,3,357,B,81.96135809961388,56.8192212220014,4.098067904980694,0.8925142398686644,B,574.6038000215776,Correct,sub_005_day_02_data.csv,1,300,14.0,Training at home,,,,,,,,,,,,,
5,3,358,B,47.50297780026686,21.35769096508887,2.3751488900133433,0.3354858251678214,B,443.4711000067182,Correct,sub_005_day_02_data.csv,1,300,14.0,Training at home,,,,,,,,,,,,,
5,3,359,B,89.0825442365988,68.10824656950639,4.45412721182994,1.0698418353582175,A,542.1806999947876,Incorrect,sub_005_day_02_data.csv,0,300,14.0,Training at home,,,,,,,,,,,,,
5,3,360,A,55.64589943851024,63.6565831626577,2.782294971925512,0.9999152700821656,B,616.3650999660604,Incorrect,sub_005_day_02_data.csv,0,300,14.0,Training at home,,,,,,,,,,,,,
5,3,361,B,66.82890520376259,42.78753626643698,3.3414452601881295,0.6721050479992263,B,574.4727000128478,Correct,sub_005_day_02_data.csv,1,300,14.0,Training at home,,,,,,,,,,,,,
5,3,362,B,36.92419700273969,20.250302309394133,1.8462098501369844,0.3180910048408252,B,546.8888000468723,Correct,sub_005_day_02_data.csv,1,300,14.0,Training at home,,,,,,,,,,,,,
5,3,363,A,29.05641599264319,59.959375035090325,1.4528207996321596,0.941839660620375,A,508.1669000210241,Correct,sub_005_day_02_data.csv,1,300,14.0,Training at home,,,,,,,,,,,,,
5,3,364,B,32.187677123778094,14.290634292695522,1.609383856188905,0.2244767585453531,B,652.0959000336006,Correct,sub_005_day_02_data.csv,1,300,14.0,Training at home,,,,,,,,,,,,,
5,3,365,B,36.38450286465792,18.73309924124015,1.819225143232896,0.2942588347762429,B,600.9748000069521,Correct,sub_005_day_02_data.csv,1,300,14.0,Training at home,,,,,,,,,,,,,
5,3,366,A,34.24393889377262,47.71075194586802,1.7121969446886312,0.7494387390519194,A,564.468799973838,Correct,sub_005_day_02_data.csv,1,300,14.0,Training at home,,,,,,,,,,,,,
5,3,367,A,49.54280876072442,57.57990182296817,2.477140438036221,0.9044629828072916,A,592.2557999729179,Correct,sub_005_day_02_data.csv,1,300,14.0,Training at home,,,,,,,,,,,,,
5,3,368,B,47.7697000148963,29.201540504973813,2.388485000744815,0.4586967256196525,B,471.0188999888487,Correct,sub_005_day_02_data.csv,1,300,14.0,Training at home,,,,,,,,,,,,,
5,3,369,B,44.79272549566267,25.478164851291325,2.2396362747831335,0.4002100776188326,B,501.22759997611865,Correct,sub_005_day_02_data.csv,1,300,14.0,Training at home,,,,,,,,,,,,,
5,3,370,B,44.01501774883159,20.946201079723693,2.2007508874415795,0.3290221571633727,B,552.7818000409752,Correct,sub_005_day_02_data.csv,1,300,14.0,Training at home,,,,,,,,,,,,,
5,3,371,A,13.766079064057152,36.65535502176067,0.6883039532028576,0.5757809702554452,A,694.221000012476,Correct,sub_005_day_02_data.csv,1,300,14.0,Training at home,,,,,,,,,,,,,
5,3,372,B,66.80434895987098,49.35641190928422,3.340217447993549,0.7752887053087953,B,423.2942999806255,Correct,sub_005_day_02_data.csv,1,300,14.0,Training at home,,,,,,,,,,,,,
5,3,373,A,42.97026862528016,57.20550839738196,2.1485134312640084,0.8985820246304219,A,501.8292000168003,Correct,sub_005_day_02_data.csv,1,300,14.0,Training at home,,,,,,,,,,,,,
5,3,374,B,79.57410352795009,53.04831772118952,3.9787051763975048,0.8332810261909309,B,566.0353999701329,Correct,sub_005_day_02_data.csv,1,300,14.0,Training at home,,,,,,,,,,,,,
5,3,375,A,27.903813016532663,60.634669510443686,1.3951906508266334,0.9524471614342744,A,573.5109000233933,Correct,sub_005_day_02_data.csv,1,300,15.0,Training at home,,,,,,,,,,,,,
5,3,376,B,68.66006689878064,46.77510955419954,3.4330033449390323,0.7347417027316551,B,826.6274000052363,Correct,sub_005_day_02_data.csv,1,300,15.0,Training at home,,,,,,,,,,,,,
5,3,377,A,60.736458749081635,84.01952372613005,3.036822937454082,1.3197755924806172,A,646.4173999847844,Correct,sub_005_day_02_data.csv,1,300,15.0,Training at home,,,,,,,,,,,,,
5,3,378,A,46.60362781616158,70.1079250040265,2.330181390808079,1.1012527107553691,A,512.3372999951243,Correct,sub_005_day_02_data.csv,1,300,15.0,Training at home,,,,,,,,,,,,,
5,3,379,A,39.422457552925344,67.85978725247492,1.9711228776462673,1.0659390455327076,A,571.2266999762505,Correct,sub_005_day_02_data.csv,1,300,15.0,Training at home,,,,,,,,,,,,,
5,3,380,A,28.560462198602583,55.89284015033726,1.4280231099301293,0.8779626800228407,A,593.6381000210531,Correct,sub_005_day_02_data.csv,1,300,15.0,Training at home,,,,,,,,,,,,,
5,3,381,A,49.65369693959343,67.17947861974986,2.4826848469796716,1.0552527825189937,A,556.5036999760196,Correct,sub_005_day_02_data.csv,1,300,15.0,Training at home,,,,,,,,,,,,,
5,3,382,B,31.34314584416219,16.376450960891034,1.5671572922081096,0.2572406901530439,B,738.0120999878272,Correct,sub_005_day_02_data.csv,1,300,15.0,Training at home,,,,,,,,,,,,,
5,3,383,A,20.694425764098483,43.041034669959544,1.0347212882049242,0.6760869916102424,A,544.8747999616899,Correct,sub_005_day_02_data.csv,1,300,15.0,Training at home,,,,,,,,,,,,,
5,3,384,B,52.29993864322161,38.199789274217814,2.6149969321610804,0.6000408867628043,B,434.9810999701731,Correct,sub_005_day_02_data.csv,1,300,15.0,Training at home,,,,,,,,,,,,,
5,3,385,B,72.34439351501331,60.15979419836157,3.617219675750665,0.9449878374752329,B,575.749600015115,Correct,sub_005_day_02_data.csv,1,300,15.0,Training at home,,,,,,,,,,,,,
5,3,386,A,31.63719372794956,44.512383057684616,1.581859686397478,0.6991988780389837,B,701.2094999663532,Incorrect,sub_005_day_02_data.csv,0,300,15.0,Training at home,,,,,,,,,,,,,
5,3,387,A,14.64528395160573,32.73012106462055,0.7322641975802866,0.5141235394385822,A,756.2133999890648,Correct,sub_005_day_02_data.csv,1,300,15.0,Training at home,,,,,,,,,,,,,
5,3,388,A,43.96352632918291,59.54864417179246,2.1981763164591457,0.9353879153066792,B,607.5386000447907,Incorrect,sub_005_day_02_data.csv,0,300,15.0,Training at home,,,,,,,,,,,,,
5,3,389,A,47.49171538905152,62.03135414199651,2.374585769452576,0.9743862323236152,A,631.1682999948971,Correct,sub_005_day_02_data.csv,1,300,15.0,Training at home,,,,,,,,,,,,,
5,3,390,A,59.634885614810145,84.75279299714416,2.9817442807405077,1.3312937592552223,A,787.1839000144973,Correct,sub_005_day_02_data.csv,1,300,15.0,Training at home,,,,,,,,,,,,,
5,3,391,B,34.29499628231207,10.790321584968815,1.7147498141156037,0.169493975106047,B,585.7490999624133,Correct,sub_005_day_02_data.csv,1,300,15.0,Training at home,,,,,,,,,,,,,
5,3,392,A,20.493309281762784,49.9450284753541,1.0246654640881392,0.7845346727075273,A,793.9143999828957,Correct,sub_005_day_02_data.csv,1,300,15.0,Training at home,,,,,,,,,,,,,
5,3,393,B,56.61716509604069,34.35453263987989,2.8308582548020342,0.5396397367947872,B,552.1669000154361,Correct,sub_005_day_02_data.csv,1,300,15.0,Training at home,,,,,,,,,,,,,
5,3,394,A,32.07837522914945,57.9542985767675,1.6039187614574726,0.9103439932636108,A,861.1787999980152,Correct,sub_005_day_02_data.csv,1,300,15.0,Training at home,,,,,,,,,,,,,
5,3,395,B,70.81005071708111,40.374421696994894,3.540502535854056,0.6341999329810776,B,475.6129999877885,Correct,sub_005_day_02_data.csv,1,300,15.0,Training at home,,,,,,,,,,,,,
5,3,396,A,25.760899280165084,35.94302442617339,1.2880449640082543,0.5645917074253239,A,584.2307999846525,Correct,sub_005_day_02_data.csv,1,300,15.0,Training at home,,,,,,,,,,,,,
5,3,397,A,29.10215503302082,54.713117867199415,1.4551077516510411,0.8594316457329307,A,596.3948999997228,Correct,sub_005_day_02_data.csv,1,300,15.0,Training at home,,,,,,,,,,,,,
5,3,398,A,55.96004611212581,80.8468990110452,2.798002305606291,1.269940119993077,A,551.2891999678686,Correct,sub_005_day_02_data.csv,1,300,15.0,Training at home,,,,,,,,,,,,,
5,3,399,B,78.92892798694544,56.302661522024565,3.946446399347272,0.8844001390757255,A,712.9131000256166,Incorrect,sub_005_day_02_data.csv,0,300,15.0,Training at home,,,,,,,,,,,,,
5,3,400,A,45.02422782073898,56.36071748701321,2.251211391036949,0.8853120800412525,A,596.0540999658406,Correct,sub_005_day_02_data.csv,1,300,16.0,Training at home,,,,,,,,,,,,,
5,3,401,B,75.07944261626639,63.891816345897865,3.75397213081332,1.003610304283905,B,616.280399961397,Correct,sub_005_day_02_data.csv,1,300,16.0,Training at home,,,,,,,,,,,,,
5,3,402,A,15.269716311891491,32.81655550487434,0.7634858155945747,0.5154812484511745,A,577.9799000010826,Correct,sub_005_day_02_data.csv,1,300,16.0,Training at home,,,,,,,,,,,,,
5,3,403,B,58.85917820610647,39.42701424084501,2.9429589103053235,0.6193180914600943,B,834.7481999662705,Correct,sub_005_day_02_data.csv,1,300,16.0,Training at home,,,,,,,,,,,,,
5,3,404,B,80.7033100216517,62.8385807085734,4.035165501082585,0.9870661175803176,A,819.0104000386782,Incorrect,sub_005_day_02_data.csv,0,300,16.0,Training at home,,,,,,,,,,,,,
5,3,405,A,53.59919516877503,68.5592006520252,2.6799597584387516,1.0769254055219546,A,625.1648999750614,Correct,sub_005_day_02_data.csv,1,300,16.0,Training at home,,,,,,,,,,,,,
5,3,406,A,63.95178749640399,85.40608627252635,3.197589374820199,1.3415556660281245,A,909.4524999964052,Correct,sub_005_day_02_data.csv,1,300,16.0,Training at home,,,,,,,,,,,,,
5,3,407,A,24.88106418202039,35.922088104305615,1.2440532091010197,0.564262840450459,A,569.3154000327922,Correct,sub_005_day_02_data.csv,1,300,16.0,Training at home,,,,,,,,,,,,,
5,3,408,A,17.84012880489857,40.50996648981684,0.8920064402449285,0.6363290656078865,A,650.9662999887951,Correct,sub_005_day_02_data.csv,1,300,16.0,Training at home,,,,,,,,,,,,,
5,3,409,A,35.37800654418045,52.75157299824641,1.7689003272090225,0.8286197709829831,A,739.9540999904275,Correct,sub_005_day_02_data.csv,1,300,16.0,Training at home,,,,,,,,,,,,,
5,3,410,A,10.707804965695576,32.241217838526126,0.5353902482847788,0.5064438655215093,A,579.8855000175536,Correct,sub_005_day_02_data.csv,1,300,16.0,Training at home,,,,,,,,,,,,,
5,3,411,A,43.73182825485328,65.66180412921352,2.1865914127426636,1.0314132073689457,A,702.4237000150606,Correct,sub_005_day_02_data.csv,1,300,16.0,Training at home,,,,,,,,,,,,,
5,3,412,A,20.731221969832713,46.885106060402066,1.0365610984916358,0.7364695238106871,A,749.7711000032723,Correct,sub_005_day_02_data.csv,1,300,16.0,Training at home,,,,,,,,,,,,,
5,3,413,A,63.628878906205514,77.27588821347146,3.1814439453102756,1.2138468135553402,A,1400.079499988351,Correct,sub_005_day_02_data.csv,1,300,16.0,Training at home,,,,,,,,,,,,,
5,3,414,A,43.3723864750985,69.19428559701221,2.168619323754925,1.086901296509838,A,660.0650000036694,Correct,sub_005_day_02_data.csv,1,300,16.0,Training at home,,,,,,,,,,,,,
5,3,415,B,54.51495513606932,24.414762332540555,2.725747756803466,0.383506189915251,B,637.962399981916,Correct,sub_005_day_02_data.csv,1,300,16.0,Training at home,,,,,,,,,,,,,
5,3,416,A,62.043092727996594,84.25158533560813,3.10215463639983,1.3234208077182004,A,919.4939999724738,Correct,sub_005_day_02_data.csv,1,300,16.0,Training at home,,,,,,,,,,,,,
5,3,417,A,64.69654154130583,87.94124288370583,3.2348270770652916,1.3813778129550294,A,554.4925999711268,Correct,sub_005_day_02_data.csv,1,300,16.0,Training at home,,,,,,,,,,,,,
5,3,418,B,60.03342606117266,45.64376810545373,3.0016713030586333,0.7169706328112476,B,595.1770999818109,Correct,sub_005_day_02_data.csv,1,300,16.0,Training at home,,,,,,,,,,,,,
5,3,419,A,39.42910877706004,53.362093660733024,1.971455438853002,0.8382098071236467,B,604.5965000521392,Incorrect,sub_005_day_02_data.csv,0,300,16.0,Training at home,,,,,,,,,,,,,
5,3,420,A,49.093438083603544,73.8798913501454,2.4546719041801772,1.1605026195681445,A,897.4562999792397,Correct,sub_005_day_02_data.csv,1,300,16.0,Training at home,,,,,,,,,,,,,
5,3,421,A,27.759978727464983,46.12705532009612,1.3879989363732492,0.7245620906267198,A,620.9205000195652,Correct,sub_005_day_02_data.csv,1,300,16.0,Training at home,,,,,,,,,,,,,
5,3,422,B,55.861898062937875,33.82743224115647,2.7930949031468937,0.5313600630931183,B,628.4369999775663,Correct,sub_005_day_02_data.csv,1,300,16.0,Training at home,,,,,,,,,,,,,
5,3,423,A,54.90602423187584,75.93601887682694,2.745301211593792,1.1928001952314768,A,507.1553000016138,Correct,sub_005_day_02_data.csv,1,300,16.0,Training at home,,,,,,,,,,,,,
5,3,424,B,54.92141736614103,29.01459961697923,2.7460708683070516,0.4557602650177558,B,542.532299994491,Correct,sub_005_day_02_data.csv,1,300,16.0,Training at home,,,,,,,,,,,,,
5,3,425,A,51.07137776995275,75.82142620387398,2.553568888497637,1.1910001777339556,A,567.9906000150368,Correct,sub_005_day_02_data.csv,1,300,17.0,Training at home,,,,,,,,,,,,,
5,3,426,B,33.7389082566267,19.741666189434415,1.686945412831335,0.3101013673517458,B,532.0412000291981,Correct,sub_005_day_02_data.csv,1,300,17.0,Training at home,,,,,,,,,,,,,
5,3,427,B,61.94627770277032,34.99113455285098,3.0973138851385165,0.5496394562600431,A,1026.369399973191,Incorrect,sub_005_day_02_data.csv,0,300,17.0,Training at home,,,,,,,,,,,,,
5,3,428,B,35.80276889046683,17.58163397353411,1.7901384445233417,0.2761716606467974,B,692.056700005196,Correct,sub_005_day_02_data.csv,1,300,17.0,Training at home,,,,,,,,,,,,,
5,3,429,A,38.03717568629646,54.45596740002204,1.9018587843148227,0.8553923356401725,A,634.3614999786951,Correct,sub_005_day_02_data.csv,1,300,17.0,Training at home,,,,,,,,,,,,,
5,3,430,B,60.207255120257955,32.405378507778856,3.010362756012898,0.5090224952841731,B,534.5708000240847,Correct,sub_005_day_02_data.csv,1,300,17.0,Training at home,,,,,,,,,,,,,
5,3,431,A,56.20217716211847,70.68759404911789,2.8101088581059237,1.1103581308232318,A,565.61370001873,Correct,sub_005_day_02_data.csv,1,300,17.0,Training at home,,,,,,,,,,,,,
5,3,432,A,61.70736274436014,75.79932737505577,3.085368137218006,1.1906530501426145,A,558.1114999949932,Correct,sub_005_day_02_data.csv,1,300,17.0,Training at home,,,,,,,,,,,,,
5,3,433,B,72.5818413949768,61.949474820009605,3.62909206974884,0.9731000749414402,B,669.3945999722928,Correct,sub_005_day_02_data.csv,1,300,17.0,Training at home,,,,,,,,,,,,,
5,3,434,A,15.339589924070609,33.02991687272869,0.7669794962035305,0.5188327209802299,A,581.2004000181332,Correct,sub_005_day_02_data.csv,1,300,17.0,Training at home,,,,,,,,,,,,,
5,3,435,B,52.11257012923709,21.932236866259487,2.6056285064618545,0.3445107710791601,B,415.1007999898866,Correct,sub_005_day_02_data.csv,1,300,17.0,Training at home,,,,,,,,,,,,,
5,3,436,B,68.5106120992323,35.735071382622536,3.4255306049616148,0.5613251886557691,B,371.861599967815,Correct,sub_005_day_02_data.csv,1,300,17.0,Training at home,,,,,,,,,,,,,
5,3,437,B,66.26345451128513,53.62848166870349,3.313172725564257,0.8423942201678689,B,442.5972999888472,Correct,sub_005_day_02_data.csv,1,300,17.0,Training at home,,,,,,,,,,,,,
5,3,438,B,56.24216716101898,33.17239080361576,2.812108358050949,0.5210706962532444,B,371.4761000010185,Correct,sub_005_day_02_data.csv,1,300,17.0,Training at home,,,,,,,,,,,,,
5,3,439,B,43.718129003873784,29.84855091872928,2.1859064501936896,0.4688599414329039,B,577.497599995695,Correct,sub_005_day_02_data.csv,1,300,17.0,Training at home,,,,,,,,,,,,,
5,3,440,B,32.59343509181619,15.846839231763518,1.6296717545908097,0.2489215685656339,B,551.3020000071265,Correct,sub_005_day_02_data.csv,1,300,17.0,Training at home,,,,,,,,,,,,,
5,3,441,A,20.48568764814111,38.34100366412182,1.0242843824070555,0.6022590772123223,A,562.8656999906525,Correct,sub_005_day_02_data.csv,1,300,17.0,Training at home,,,,,,,,,,,,,
5,3,442,A,32.10890020447443,54.38269667987239,1.6054450102237214,0.8542414018594456,A,624.3761999648996,Correct,sub_005_day_02_data.csv,1,300,17.0,Training at home,,,,,,,,,,,,,
5,3,443,B,63.11194104774384,53.308570632274474,3.1555970523871917,0.8373690693586304,B,434.415599971544,Correct,sub_005_day_02_data.csv,1,300,17.0,Training at home,,,,,,,,,,,,,
5,3,444,A,31.91076648709751,61.2333922843892,1.5955383243548755,0.9618518767750952,A,564.0505999908783,Correct,sub_005_day_02_data.csv,1,300,17.0,Training at home,,,,,,,,,,,,,
5,3,445,B,88.4875000697298,65.88739307447004,4.42437500348649,1.0349567502346904,A,739.593899983447,Incorrect,sub_005_day_02_data.csv,0,300,17.0,Training at home,,,,,,,,,,,,,
5,3,446,A,61.93779201457102,71.88187176674765,3.0968896007285514,1.12911780134349,A,730.381200031843,Correct,sub_005_day_02_data.csv,1,300,17.0,Training at home,,,,,,,,,,,,,
5,3,447,B,51.49218400628784,41.4569112297103,2.5746092003143923,0.6512036387989103,B,706.7417000071146,Correct,sub_005_day_02_data.csv,1,300,17.0,Training at home,,,,,,,,,,,,,
5,3,448,B,70.39498482495043,53.943449424617,3.5197492412475215,0.8473417221083466,B,720.6872000242583,Correct,sub_005_day_02_data.csv,1,300,17.0,Training at home,,,,,,,,,,,,,
5,3,449,B,63.25536437810757,34.47532457337502,3.1627682189053785,0.5415371320491932,B,462.9553999984637,Correct,sub_005_day_02_data.csv,1,300,17.0,Training at home,,,,,,,,,,,,,
5,3,450,A,49.07744308353263,74.04905361768292,2.453872154176631,1.163159814252947,A,680.9979000245221,Correct,sub_005_day_02_data.csv,1,300,18.0,Training at home,,,,,,,,,,,,,
5,3,451,A,55.03257180828348,81.08669020484543,2.7516285904141737,1.273706751257269,A,544.7119000018574,Correct,sub_005_day_02_data.csv,1,300,18.0,Training at home,,,,,,,,,,,,,
5,3,452,A,29.31138145939559,39.466842680727105,1.4655690729697797,0.6199437151307818,B,666.4980999776162,Incorrect,sub_005_day_02_data.csv,0,300,18.0,Training at home,,,,,,,,,,,,,
5,3,453,A,47.3445330930503,57.743262679874235,2.367226654652515,0.9070290491469928,A,748.4869000036269,Correct,sub_005_day_02_data.csv,1,300,18.0,Training at home,,,,,,,,,,,,,
5,3,454,B,86.35527911053593,62.22332778184633,4.317763955526797,0.9774017472067904,A,641.4084000280127,Incorrect,sub_005_day_02_data.csv,0,300,18.0,Training at home,,,,,,,,,,,,,
5,3,455,A,43.07069606868168,58.543404504450976,2.153534803434084,0.919597647536594,B,539.4729999825358,Incorrect,sub_005_day_02_data.csv,0,300,18.0,Training at home,,,,,,,,,,,,,
5,3,456,A,42.28059466084683,53.65863463236617,2.1140297330423414,0.8428678618135023,A,542.7545999991708,Correct,sub_005_day_02_data.csv,1,300,18.0,Training at home,,,,,,,,,,,,,
5,3,457,B,53.27883913927825,46.216143248292305,2.6639419569639124,0.7259614805304431,B,447.0492000109516,Correct,sub_005_day_02_data.csv,1,300,18.0,Training at home,,,,,,,,,,,,,
5,3,458,B,83.30092984955397,57.40476532157348,4.165046492477699,0.9017119450765068,B,533.8451000279747,Correct,sub_005_day_02_data.csv,1,300,18.0,Training at home,,,,,,,,,,,,,
5,3,459,A,14.119429862769344,42.38071960350452,0.7059714931384673,0.6657147868010935,A,510.7318999944255,Correct,sub_005_day_02_data.csv,1,300,18.0,Training at home,,,,,,,,,,,,,
5,3,460,A,32.87982114219377,45.415254646184266,1.6439910571096883,0.713381151786811,B,507.4625000124797,Incorrect,sub_005_day_02_data.csv,0,300,18.0,Training at home,,,,,,,,,,,,,
5,3,461,A,51.0619471889717,63.945057683523494,2.5530973594485853,1.0044466172596649,A,902.1132999914698,Correct,sub_005_day_02_data.csv,1,300,18.0,Training at home,,,,,,,,,,,,,
5,3,462,A,45.04193784720436,68.5252606694533,2.252096892360218,1.0763922775224004,A,574.0290000103414,Correct,sub_005_day_02_data.csv,1,300,18.0,Training at home,,,,,,,,,,,,,
5,3,463,A,46.70638227940242,74.14337856912906,2.335319113970121,1.1646414671255136,A,600.9081000229344,Correct,sub_005_day_02_data.csv,1,300,18.0,Training at home,,,,,,,,,,,,,
5,3,464,B,62.43467502170605,48.6293086296518,3.1217337510853027,0.7638673937003241,B,683.8299999944866,Correct,sub_005_day_02_data.csv,1,300,18.0,Training at home,,,,,,,,,,,,,
5,3,465,A,38.06471048216197,65.70877995389577,1.9032355241080985,1.032151101897536,B,512.9672000184655,Incorrect,sub_005_day_02_data.csv,0,300,18.0,Training at home,,,,,,,,,,,,,
5,3,466,A,39.49711673756603,66.04461709033579,1.9748558368783016,1.0374264193007492,A,724.5655999868177,Correct,sub_005_day_02_data.csv,1,300,18.0,Training at home,,,,,,,,,,,,,
5,3,467,A,41.358382402701515,51.18004518294109,2.067919120135076,0.8039342697856071,A,514.078599982895,Correct,sub_005_day_02_data.csv,1,300,18.0,Training at home,,,,,,,,,,,,,
5,3,468,A,29.881602073088324,41.33562927934257,1.494080103654416,0.6492985463774689,A,490.8069000230171,Correct,sub_005_day_02_data.csv,1,300,18.0,Training at home,,,,,,,,,,,,,
5,3,469,B,46.95694806612235,39.7059481253573,2.3478474033061176,0.6236995746721996,B,380.0816999864765,Correct,sub_005_day_02_data.csv,1,300,18.0,Training at home,,,,,,,,,,,,,
5,3,470,B,42.284354894862545,18.190803087015812,2.114217744743127,0.285740466705337,B,417.5477999961004,Correct,sub_005_day_02_data.csv,1,300,18.0,Training at home,,,,,,,,,,,,,
5,3,471,B,82.44831293369514,57.31232861513166,4.122415646684757,0.9002599526871085,B,762.3109999694861,Correct,sub_005_day_02_data.csv,1,300,18.0,Training at home,,,,,,,,,,,,,
5,3,472,B,56.39719399528802,47.58453160702123,2.819859699764401,0.747456074605646,B,461.26060001552105,Correct,sub_005_day_02_data.csv,1,300,18.0,Training at home,,,,,,,,,,,,,
5,3,473,B,80.05024041718814,58.60158861120989,4.002512020859407,0.9205116013483412,B,567.0400999952108,Correct,sub_005_day_02_data.csv,1,300,18.0,Training at home,,,,,,,,,,,,,
5,3,474,B,48.47029541453125,38.741118672113096,2.4235147707265625,0.6085440690608043,B,476.240299991332,Correct,sub_005_day_02_data.csv,1,300,18.0,Training at home,,,,,,,,,,,,,
5,3,475,A,36.63527051086789,67.10261025428908,1.8317635255433944,1.0540453370578684,A,657.5589000131004,Correct,sub_005_day_02_data.csv,1,300,19.0,Training at home,,,,,,,,,,,,,
5,3,476,A,59.79744545615178,75.379715369585,2.9898722728075886,1.1840618001738892,A,556.5154000069015,Correct,sub_005_day_02_data.csv,1,300,19.0,Training at home,,,,,,,,,,,,,
5,3,477,B,79.05934189269387,48.74560592691133,3.952967094634693,0.7656941873738385,B,376.4089000178501,Correct,sub_005_day_02_data.csv,1,300,19.0,Training at home,,,,,,,,,,,,,
5,3,478,B,45.68647170498125,17.894587908696913,2.284323585249062,0.2810875295648948,B,513.2612999877892,Correct,sub_005_day_02_data.csv,1,300,19.0,Training at home,,,,,,,,,,,,,
5,3,479,A,47.83529199457491,68.5180112103115,2.3917645997287456,1.0762784032844883,A,496.9035000540316,Correct,sub_005_day_02_data.csv,1,300,19.0,Training at home,,,,,,,,,,,,,
5,3,480,A,46.20288754981783,66.32740264664147,2.3101443774908916,1.041868404431905,A,474.437799945008,Correct,sub_005_day_02_data.csv,1,300,19.0,Training at home,,,,,,,,,,,,,
5,3,481,B,70.10711624201764,48.736197329179085,3.505355812100882,0.7655463974662576,B,584.7465000115335,Correct,sub_005_day_02_data.csv,1,300,19.0,Training at home,,,,,,,,,,,,,
5,3,482,B,74.58145195467374,52.049742971213064,3.729072597733687,0.8175954506979995,B,529.1491000098176,Correct,sub_005_day_02_data.csv,1,300,19.0,Training at home,,,,,,,,,,,,,
5,3,483,B,86.82432249860781,59.646375882112835,4.341216124930391,0.9369230814225056,B,403.7021000403911,Correct,sub_005_day_02_data.csv,1,300,19.0,Training at home,,,,,,,,,,,,,
5,3,484,B,88.06636180960035,65.66482319616733,4.403318090480018,1.0314606307617598,B,555.2667999872938,Correct,sub_005_day_02_data.csv,1,300,19.0,Training at home,,,,,,,,,,,,,
5,3,485,A,36.77339589328308,66.92469546950184,1.838669794664154,1.0512506581536056,A,553.0331000336446,Correct,sub_005_day_02_data.csv,1,300,19.0,Training at home,,,,,,,,,,,,,
5,3,486,A,50.89764301479134,59.95792261007433,2.5448821507395674,0.9418168459815744,B,624.1964000510052,Incorrect,sub_005_day_02_data.csv,0,300,19.0,Training at home,,,,,,,,,,,,,
5,3,487,A,42.38571579606159,69.32954282587559,2.1192857898030795,1.0890259120925485,A,589.0663999598473,Correct,sub_005_day_02_data.csv,1,300,19.0,Training at home,,,,,,,,,,,,,
5,3,488,B,58.96885248702425,33.002901567550225,2.9484426243512125,0.5184083655588143,B,477.0797000383027,Correct,sub_005_day_02_data.csv,1,300,19.0,Training at home,,,,,,,,,,,,,
5,3,489,A,48.47435548952544,74.00507292108063,2.423717774476272,1.1624689670862192,A,491.9893000042066,Correct,sub_005_day_02_data.csv,1,300,19.0,Training at home,,,,,,,,,,,,,
5,3,490,B,86.93209660492384,69.63547549748459,4.346604830246192,1.0938314912606482,B,687.545399996452,Correct,sub_005_day_02_data.csv,1,300,19.0,Training at home,,,,,,,,,,,,,
5,3,491,B,83.12489432271998,60.66231006498076,4.1562447161359986,0.9528813382496484,B,421.9954999862239,Correct,sub_005_day_02_data.csv,1,300,19.0,Training at home,,,,,,,,,,,,,
5,3,492,A,20.374619585733218,42.50899286433891,1.0187309792866608,0.6677296984705402,A,466.5940999984741,Correct,sub_005_day_02_data.csv,1,300,19.0,Training at home,,,,,,,,,,,,,
5,3,493,A,43.267261543362224,61.10834291383839,2.1633630771681114,0.9598876058558028,B,581.3539000228047,Incorrect,sub_005_day_02_data.csv,0,300,19.0,Training at home,,,,,,,,,,,,,
5,3,494,A,38.414286351660664,64.97002678998582,1.9207143175830332,1.0205467943347577,A,603.5432999487966,Correct,sub_005_day_02_data.csv,1,300,19.0,Training at home,,,,,,,,,,,,,
5,3,495,A,14.355418359918527,43.02687277542084,0.7177709179959264,0.675864537091024,A,650.5373999825679,Correct,sub_005_day_02_data.csv,1,300,19.0,Training at home,,,,,,,,,,,,,
5,3,496,A,57.25436415147175,70.16189724124453,2.8627182075735873,1.102100504675079,B,494.0169000183232,Incorrect,sub_005_day_02_data.csv,0,300,19.0,Training at home,,,,,,,,,,,,,
5,3,497,A,33.85140071470463,50.55561037829854,1.6925700357352316,0.7941256708110529,B,680.1950999652036,Incorrect,sub_005_day_02_data.csv,0,300,19.0,Training at home,,,,,,,,,,,,,
5,3,498,A,31.97034326063824,60.52984327079757,1.5985171630319115,0.950800554712396,A,599.1992999915965,Correct,sub_005_day_02_data.csv,1,300,19.0,Training at home,,,,,,,,,,,,,
5,3,499,B,80.6781573851537,64.27258182575551,4.033907869257685,1.0095913544552118,B,583.2262000185438,Correct,sub_005_day_02_data.csv,1,300,19.0,Training at home,,,,,,,,,,,,,
5,3,500,A,45.43942487665481,53.74730167552996,2.2719712438327404,0.8442606404705965,B,542.4598000245169,Incorrect,sub_005_day_02_data.csv,0,300,20.0,Training at home,,,,,,,,,,,,,
5,3,501,B,31.431899345346984,18.216450347658956,1.571594967267349,0.2861433329334431,B,515.8762999926694,Correct,sub_005_day_02_data.csv,1,300,20.0,Training at home,,,,,,,,,,,,,
5,3,502,B,77.63858861333522,60.98959903026774,3.881929430666761,0.9580223812943816,B,538.0161000066437,Correct,sub_005_day_02_data.csv,1,300,20.0,Training at home,,,,,,,,,,,,,
5,3,503,A,41.757416104960924,64.78459542952194,2.087870805248046,1.0176340453358652,A,644.3473000545055,Correct,sub_005_day_02_data.csv,1,300,20.0,Training at home,,,,,,,,,,,,,
5,3,504,B,76.35747295934559,47.89524009322279,3.817873647967279,0.7523366720939401,B,412.24679996958,Correct,sub_005_day_02_data.csv,1,300,20.0,Training at home,,,,,,,,,,,,,
5,3,505,A,32.92780833229324,63.92403165402847,1.646390416614662,1.0041163411606862,A,533.608199970331,Correct,sub_005_day_02_data.csv,1,300,20.0,Training at home,,,,,,,,,,,,,
5,3,506,B,70.7412901476462,47.49371369524701,3.5370645073823095,0.7460295101834248,B,369.3720999872312,Correct,sub_005_day_02_data.csv,1,300,20.0,Training at home,,,,,,,,,,,,,
5,3,507,B,65.52674802011029,46.77634788795112,3.2763374010055144,0.7347611544327383,B,529.6219000010751,Correct,sub_005_day_02_data.csv,1,300,20.0,Training at home,,,,,,,,,,,,,
5,3,508,B,84.06546732552744,67.44291892944322,4.203273366276372,1.059390893226954,B,525.9869000292383,Correct,sub_005_day_02_data.csv,1,300,20.0,Training at home,,,,,,,,,,,,,
5,3,509,B,57.641324889381046,38.4784922125806,2.882066244469052,0.6044187422812763,B,391.0738999838941,Correct,sub_005_day_02_data.csv,1,300,20.0,Training at home,,,,,,,,,,,,,
5,3,510,B,54.34723638929311,38.76985893198253,2.717361819464655,0.6089955200071447,B,405.0697999773547,Correct,sub_005_day_02_data.csv,1,300,20.0,Training at home,,,,,,,,,,,,,
5,3,511,A,48.162585186158346,58.34046754533696,2.408129259307917,0.9164099212371218,B,365.8259999938309,Incorrect,sub_005_day_02_data.csv,0,300,20.0,Training at home,,,,,,,,,,,,,
5,3,512,B,62.15637859882358,32.842639909745195,3.107818929941179,0.5158909813247523,B,403.31780002452433,Correct,sub_005_day_02_data.csv,1,300,20.0,Training at home,,,,,,,,,,,,,
5,3,513,B,42.09630028077328,25.72750048451355,2.104815014038664,0.404126632586878,A,533.279700030107,Incorrect,sub_005_day_02_data.csv,0,300,20.0,Training at home,,,,,,,,,,,,,
5,3,514,B,84.7878746471392,60.02881508452987,4.239393732356961,0.942930422366296,B,351.11579997465014,Correct,sub_005_day_02_data.csv,1,300,20.0,Training at home,,,,,,,,,,,,,
5,3,515,A,61.83583527999515,74.61347800274851,3.0917917639997574,1.1720257717610918,A,580.712000024505,Correct,sub_005_day_02_data.csv,1,300,20.0,Training at home,,,,,,,,,,,,,
5,3,516,B,58.88977254731674,50.95914293124722,2.944488627365837,0.8004643453301925,B,499.98219998087734,Correct,sub_005_day_02_data.csv,1,300,20.0,Training at home,,,,,,,,,,,,,
5,3,517,B,68.44571923060626,45.906677721625414,3.4222859615303127,0.7211004074048629,B,508.25400004396215,Correct,sub_005_day_02_data.csv,1,300,20.0,Training at home,,,,,,,,,,,,,
5,3,518,B,80.2525865855222,49.76583961975046,4.01262932927611,0.7817199807456796,B,397.7072999696247,Correct,sub_005_day_02_data.csv,1,300,20.0,Training at home,,,,,,,,,,,,,
5,3,519,A,25.869283057029605,55.71356662224451,1.2934641528514803,0.8751466580286442,A,502.01100000413135,Correct,sub_005_day_02_data.csv,1,300,20.0,Training at home,,,,,,,,,,,,,
5,3,520,B,39.68379564675024,24.992298294602527,1.984189782337512,0.39257810359324,B,464.86150001874194,Correct,sub_005_day_02_data.csv,1,300,20.0,Training at home,,,,,,,,,,,,,
5,3,521,B,49.4015493693195,41.89768722708146,2.4700774684659748,0.6581273319750102,B,468.2583000394516,Correct,sub_005_day_02_data.csv,1,300,20.0,Training at home,,,,,,,,,,,,,
5,3,522,B,47.16165638414659,37.22054812292579,2.35808281920733,0.5846590027278452,B,387.53969996469095,Correct,sub_005_day_02_data.csv,1,300,20.0,Training at home,,,,,,,,,,,,,
5,3,523,A,44.023511045448686,66.18914691480387,2.201175552272434,1.0396966884746166,A,671.2781999958679,Correct,sub_005_day_02_data.csv,1,300,20.0,Training at home,,,,,,,,,,,,,
5,3,524,A,21.595480302335577,48.75278029630936,1.0797740151167787,0.7658068821048134,A,595.3203000244685,Correct,sub_005_day_02_data.csv,1,300,20.0,Training at home,,,,,,,,,,,,,
5,3,525,B,61.84830484445911,50.03954916022767,3.0924152422229554,0.7860194001535827,B,568.0493999971077,Correct,sub_005_day_02_data.csv,1,300,21.0,Training at home,,,,,,,,,,,,,
5,3,526,A,53.43838868203318,73.50803951439525,2.671919434101659,1.1546615845910615,A,504.6747999731451,Correct,sub_005_day_02_data.csv,1,300,21.0,Training at home,,,,,,,,,,,,,
5,3,527,B,70.90399681045366,46.157227519103905,3.545199840522683,0.7250360344204473,B,410.5265000252985,Correct,sub_005_day_02_data.csv,1,300,21.0,Training at home,,,,,,,,,,,,,
5,3,528,B,78.95781773132077,66.49505275119049,3.947890886566039,1.0445018461160287,B,465.3663999633864,Correct,sub_005_day_02_data.csv,1,300,21.0,Training at home,,,,,,,,,,,,,
5,3,529,A,37.25307964310784,56.201284044870214,1.862653982155392,0.8828077053883877,A,583.2251999527216,Correct,sub_005_day_02_data.csv,1,300,21.0,Training at home,,,,,,,,,,,,,
5,3,530,B,50.645092876311466,25.988531683910377,2.5322546438155733,0.408226901078792,B,314.6540999878198,Correct,sub_005_day_02_data.csv,1,300,21.0,Training at home,,,,,,,,,,,,,
5,3,531,B,82.3303904577932,51.65124979620397,4.11651952288966,0.8113359345424284,A,533.6328000412323,Incorrect,sub_005_day_02_data.csv,0,300,21.0,Training at home,,,,,,,,,,,,,
5,3,532,B,37.552492739943474,22.800071229742738,1.877624636997174,0.3581426813834189,B,517.8712999913841,Correct,sub_005_day_02_data.csv,1,300,21.0,Training at home,,,,,,,,,,,,,
5,3,533,A,58.9580929897114,72.66806197975596,2.9479046494855705,1.1414672483310455,B,403.73990003718063,Incorrect,sub_005_day_02_data.csv,0,300,21.0,Training at home,,,,,,,,,,,,,
5,3,534,A,13.595586762563588,36.95890162854219,0.6797793381281794,0.5805490692048799,A,541.7336000245996,Correct,sub_005_day_02_data.csv,1,300,21.0,Training at home,,,,,,,,,,,,,
5,3,535,B,47.23385912629814,35.341970415190794,2.361692956314907,0.555150373098756,B,482.3217000230215,Correct,sub_005_day_02_data.csv,1,300,21.0,Training at home,,,,,,,,,,,,,
5,3,536,B,70.89000256905412,53.13617465163425,3.5445001284527056,0.8346610796271918,B,418.3997999643907,Correct,sub_005_day_02_data.csv,1,300,21.0,Training at home,,,,,,,,,,,,,
5,3,537,A,21.385846679506827,47.808282944752065,1.0692923339753413,0.7509707523998764,A,534.475399996154,Correct,sub_005_day_02_data.csv,1,300,21.0,Training at home,,,,,,,,,,,,,
5,3,538,B,64.8339741712832,57.07711286540124,3.24169870856416,0.8965651923303,B,455.7580000255257,Correct,sub_005_day_02_data.csv,1,300,21.0,Training at home,,,,,,,,,,,,,
5,3,539,B,49.910606920557875,26.789520092840185,2.495530346027894,0.4208087975843144,B,436.9205000111833,Correct,sub_005_day_02_data.csv,1,300,21.0,Training at home,,,,,,,,,,,,,
5,3,540,A,48.006220210556734,73.37347060772967,2.4003110105278367,1.1525477811481506,A,418.6073999735527,Correct,sub_005_day_02_data.csv,1,300,21.0,Training at home,,,,,,,,,,,,,
5,3,541,B,60.607927098269386,44.8623399030112,3.03039635491347,0.704695987310741,B,418.3666000026278,Correct,sub_005_day_02_data.csv,1,300,21.0,Training at home,,,,,,,,,,,,,
5,3,542,B,68.87121633411111,47.04125643581803,3.443560816705556,0.7389223281719973,B,376.0712000075728,Correct,sub_005_day_02_data.csv,1,300,21.0,Training at home,,,,,,,,,,,,,
5,3,543,B,37.25409718619307,21.709845600966084,1.8627048593096536,0.3410174572528187,B,495.5171000328846,Correct,sub_005_day_02_data.csv,1,300,21.0,Training at home,,,,,,,,,,,,,
5,3,544,B,65.63405007526516,53.28513826910225,3.2817025037632583,0.8370009946586398,B,363.1495999870822,Correct,sub_005_day_02_data.csv,1,300,21.0,Training at home,,,,,,,,,,,,,
5,3,545,A,55.14545508669257,71.70083415028095,2.7572727543346285,1.126274069113914,A,454.6173000126146,Correct,sub_005_day_02_data.csv,1,300,21.0,Training at home,,,,,,,,,,,,,
5,3,546,B,75.12802263642806,47.4616265787614,3.756401131821403,0.7455254869362943,B,387.5711999717169,Correct,sub_005_day_02_data.csv,1,300,21.0,Training at home,,,,,,,,,,,,,
5,3,547,B,73.5956181531834,55.638061257359055,3.67978090765917,0.8739606225304904,B,434.1116999858059,Correct,sub_005_day_02_data.csv,1,300,21.0,Training at home,,,,,,,,,,,,,
5,3,548,B,36.93192045582623,12.328506300631975,1.8465960227913112,0.1936557241190044,B,593.6929000308737,Correct,sub_005_day_02_data.csv,1,300,21.0,Training at home,,,,,,,,,,,,,
5,3,549,A,53.925163780437614,78.46722518760713,2.696258189021881,1.2325602909848126,A,528.2347000320442,Correct,sub_005_day_02_data.csv,1,300,21.0,Training at home,,,,,,,,,,,,,
5,3,550,A,27.752531478163412,57.99436868812949,1.3876265739081706,0.9109734131010276,A,505.695800005924,Correct,sub_005_day_02_data.csv,1,300,22.0,Training at home,,,,,,,,,,,,,
5,3,551,B,81.63968257926817,58.81052607137356,4.081984128963409,0.9237935832978912,B,472.14119997806847,Correct,sub_005_day_02_data.csv,1,300,22.0,Training at home,,,,,,,,,,,,,
5,3,552,A,11.40159497431969,35.55500312928014,0.5700797487159845,0.558496683146543,A,457.11029996164143,Correct,sub_005_day_02_data.csv,1,300,22.0,Training at home,,,,,,,,,,,,,
5,3,553,A,49.06348921650897,78.282699524315,2.4531744608254487,1.229661768643826,A,661.4212999702431,Correct,sub_005_day_02_data.csv,1,300,22.0,Training at home,,,,,,,,,,,,,
5,3,554,B,68.4553293323411,37.86414609731038,3.4227664666170545,0.5947686160688046,B,487.0562999858521,Correct,sub_005_day_02_data.csv,1,300,22.0,Training at home,,,,,,,,,,,,,
5,3,555,A,30.85835655249228,40.0320764670919,1.5429178276246145,0.6288223866848038,A,679.5441000140272,Correct,sub_005_day_02_data.csv,1,300,22.0,Training at home,,,,,,,,,,,,,
5,3,556,A,59.79007211079502,72.8681599697879,2.989503605539751,1.1446103802084575,A,762.6932999701239,Correct,sub_005_day_02_data.csv,1,300,22.0,Training at home,,,,,,,,,,,,,
5,3,557,A,41.65816995535674,61.91371115621644,2.082908497767838,0.97253830062425,A,584.0242000413127,Correct,sub_005_day_02_data.csv,1,300,22.0,Training at home,,,,,,,,,,,,,
5,3,558,A,47.65702144063068,78.63240510450247,2.3828510720315337,1.2351549310520074,A,565.5575999990106,Correct,sub_005_day_02_data.csv,1,300,22.0,Training at home,,,,,,,,,,,,,
5,3,559,B,76.70524711108418,65.63810729233448,3.835262355554209,1.031040978325683,B,659.0539999888279,Correct,sub_005_day_02_data.csv,1,300,22.0,Training at home,,,,,,,,,,,,,
5,3,560,A,55.12425714274339,76.8620529111628,2.7562128571371693,1.2073463038276953,A,563.1736000068486,Correct,sub_005_day_02_data.csv,1,300,22.0,Training at home,,,,,,,,,,,,,
5,3,561,A,40.827460743969965,60.44297899492212,2.041373037198498,0.9494360938576476,B,615.1144999894314,Incorrect,sub_005_day_02_data.csv,0,300,22.0,Training at home,,,,,,,,,,,,,
5,3,562,B,81.42072882410815,64.43357239627812,4.071036441205408,1.0121201884234672,B,618.404200009536,Correct,sub_005_day_02_data.csv,1,300,22.0,Training at home,,,,,,,,,,,,,
5,3,563,B,50.81819038947235,21.330893838903147,2.540909519473618,0.3350648968940095,B,512.6057000015862,Correct,sub_005_day_02_data.csv,1,300,22.0,Training at home,,,,,,,,,,,,,
5,3,564,A,44.311383040966774,72.6337175780776,2.2155691520483387,1.140927767731022,A,583.7000000174157,Correct,sub_005_day_02_data.csv,1,300,22.0,Training at home,,,,,,,,,,,,,
5,3,565,A,22.86911509461722,34.76918209210457,1.1434557547308613,0.5461530351594076,A,708.8382000220008,Correct,sub_005_day_02_data.csv,1,300,22.0,Training at home,,,,,,,,,,,,,
5,3,566,A,24.549119851042533,37.6940334426526,1.227455992552127,0.5920964927380269,A,557.0825000177138,Correct,sub_005_day_02_data.csv,1,300,22.0,Training at home,,,,,,,,,,,,,
5,3,567,B,34.681323865052406,14.349861815981331,1.7340661932526202,0.2254071023055781,B,492.0173999853432,Correct,sub_005_day_02_data.csv,1,300,22.0,Training at home,,,,,,,,,,,,,
5,3,568,B,39.37784862008166,28.927392882333425,1.968892431004083,0.4543904248332217,B,534.8406999837607,Correct,sub_005_day_02_data.csv,1,300,22.0,Training at home,,,,,,,,,,,,,
5,3,569,B,63.86679862968394,32.46618277601016,3.1933399314841973,0.5099776064960849,B,586.4373999647796,Correct,sub_005_day_02_data.csv,1,300,22.0,Training at home,,,,,,,,,,,,,
5,3,570,B,71.66830584598809,46.49855794466728,3.5834152922994043,0.7303976402074301,B,528.4986000042409,Correct,sub_005_day_02_data.csv,1,300,22.0,Training at home,,,,,,,,,,,,,
5,3,571,B,63.88403344729931,33.531163061178745,3.194201672364966,0.5267062776966029,B,418.9804999623448,Correct,sub_005_day_02_data.csv,1,300,22.0,Training at home,,,,,,,,,,,,,
5,3,572,A,40.82415256417669,67.01341827274501,2.0412076282088347,1.0526443126879788,A,525.8393999538384,Correct,sub_005_day_02_data.csv,1,300,22.0,Training at home,,,,,,,,,,,,,
5,3,573,B,87.8781904719752,61.455154802333496,4.39390952359876,0.965335314261172,B,536.2734000082128,Correct,sub_005_day_02_data.csv,1,300,22.0,Training at home,,,,,,,,,,,,,
5,3,574,B,37.19836122171328,27.918586902384124,1.8599180610856645,0.438544137555691,A,483.4799999953248,Incorrect,sub_005_day_02_data.csv,0,300,22.0,Training at home,,,,,,,,,,,,,
5,3,575,B,57.87003037606472,32.520406771062326,2.893501518803236,0.5108293550186058,B,410.0815000128932,Correct,sub_005_day_02_data.csv,1,300,23.0,Training at home,,,,,,,,,,,,,
5,3,576,A,19.07015399461715,35.62006883746109,0.9535076997308578,0.5595187329006525,A,568.2553000515327,Correct,sub_005_day_02_data.csv,1,300,23.0,Training at home,,,,,,,,,,,,,
5,3,577,A,22.78950441852494,47.083469632707086,1.1394752209262469,0.7395854115181535,A,470.1253999955952,Correct,sub_005_day_02_data.csv,1,300,23.0,Training at home,,,,,,,,,,,,,
5,3,578,B,32.755355494343256,19.180926220040384,1.6377677747171628,0.3012932845096335,B,411.15240001818165,Correct,sub_005_day_02_data.csv,1,300,23.0,Training at home,,,,,,,,,,,,,
5,3,579,B,74.87672133922601,56.03305711963353,3.743836066961301,0.8801652030260898,B,567.3425999702886,Correct,sub_005_day_02_data.csv,1,300,23.0,Training at home,,,,,,,,,,,,,
5,3,580,A,29.31715208689141,42.60425043408717,1.4658576043445706,0.66922600087714,A,515.7326000044122,Correct,sub_005_day_02_data.csv,1,300,23.0,Training at home,,,,,,,,,,,,,
5,3,581,B,44.106969175954085,30.114096168339607,2.205348458797704,0.4730311164597612,B,720.9607000113465,Correct,sub_005_day_02_data.csv,1,300,23.0,Training at home,,,,,,,,,,,,,
5,3,582,B,52.77404821735797,32.34080513770447,2.6387024108678987,0.508008179158957,B,427.8254000237211,Correct,sub_005_day_02_data.csv,1,300,23.0,Training at home,,,,,,,,,,,,,
5,3,583,A,50.96750113397929,61.24215207590985,2.548375056698964,0.9619894752585364,A,692.621499998495,Correct,sub_005_day_02_data.csv,1,300,23.0,Training at home,,,,,,,,,,,,,
5,3,584,B,61.453148632014155,53.33626001136695,3.0726574316007076,0.8378040131083273,B,369.5292000193149,Correct,sub_005_day_02_data.csv,1,300,23.0,Training at home,,,,,,,,,,,,,
5,3,585,B,79.45766542034511,59.23301501444989,3.9728832710172552,0.9304300240968484,B,557.3207000270486,Correct,sub_005_day_02_data.csv,1,300,23.0,Training at home,,,,,,,,,,,,,
5,3,586,B,44.27608145683676,32.20415959109855,2.2138040728418384,0.5058617559321424,B,581.7653000121936,Correct,sub_005_day_02_data.csv,1,300,23.0,Training at home,,,,,,,,,,,,,
5,3,587,B,58.3900446227642,44.941250754073025,2.91950223113821,0.7059355160606627,B,386.1382000031881,Correct,sub_005_day_02_data.csv,1,300,23.0,Training at home,,,,,,,,,,,,,
5,3,588,B,69.14194304645298,37.063150413077246,3.457097152322649,0.5821866052830849,B,379.2993000242859,Correct,sub_005_day_02_data.csv,1,300,23.0,Training at home,,,,,,,,,,,,,
5,3,589,B,41.71607289217784,21.175882337457267,2.085803644608892,0.332629981923188,B,450.34949999535456,Correct,sub_005_day_02_data.csv,1,300,23.0,Training at home,,,,,,,,,,,,,
5,3,590,B,63.63011129999188,34.179250544396055,3.1815055649995942,0.5368864120773978,B,378.74790001660585,Correct,sub_005_day_02_data.csv,1,300,23.0,Training at home,,,,,,,,,,,,,
5,3,591,A,57.813090365742205,66.81253696447344,2.8906545182871106,1.0494888764764312,A,532.1417999803089,Correct,sub_005_day_02_data.csv,1,300,23.0,Training at home,,,,,,,,,,,,,
5,3,592,A,38.61606789647322,51.642924350793024,1.930803394823661,0.8112051587517239,A,483.278900035657,Correct,sub_005_day_02_data.csv,1,300,23.0,Training at home,,,,,,,,,,,,,
5,3,593,A,17.944470335362112,31.697381338957463,0.8972235167681056,0.4979013017625148,A,449.8697000090033,Correct,sub_005_day_02_data.csv,1,300,23.0,Training at home,,,,,,,,,,,,,
5,3,594,B,35.967034346859336,24.799158961708173,1.7983517173429668,0.3895442780465394,B,554.3113999883644,Correct,sub_005_day_02_data.csv,1,300,23.0,Training at home,,,,,,,,,,,,,
5,3,595,A,57.23559408877409,83.73884856644668,2.861779704438705,1.3153667573820853,A,462.976599985268,Correct,sub_005_day_02_data.csv,1,300,23.0,Training at home,,,,,,,,,,,,,
5,3,596,B,45.5178333216483,23.838272950766267,2.275891666082415,0.374450715881978,B,418.3221000130288,Correct,sub_005_day_02_data.csv,1,300,23.0,Training at home,,,,,,,,,,,,,
5,3,597,B,71.51343189620945,39.22212988100906,3.5756715948104727,0.6160997754616139,B,461.2759000156075,Correct,sub_005_day_02_data.csv,1,300,23.0,Training at home,,,,,,,,,,,,,
5,3,598,A,50.11195551339528,81.33885365116953,2.5055977756697643,1.2776677254096476,A,459.85680003650486,Correct,sub_005_day_02_data.csv,1,300,23.0,Training at home,,,,,,,,,,,,,
5,3,599,A,20.032535528466735,40.47398029108628,1.0016267764233369,0.6357637957200736,A,522.0577000291087,Correct,sub_005_day_02_data.csv,1,300,23.0,Training at home,,,,,,,,,,,,,
