subject,day,trial,cat,x,y,xt,yt,resp,rt,fb,f_name,acc,n_trials,block,session_type,ns_left_digit,ns_right_digit,ns_left_size,ns_right_size,ns_congruent,ns_cue,ns_correct_side,ns_resp,ns_rt,ns_fb,acc_stroop,acc_stroop_mean,resp_key
5,24,600,A,25.5691921945308,50.76178942442239,1.27845960972654,0.7973643236941871,A,526.5193999512121,Correct,sub_005_day_24_data.csv,1,600,,Button-Switch at home,,,,,,,,,,,,,k
5,24,601,A,47.037707065069846,72.70990244993446,2.351885353253492,1.1421244768997232,A,500.2833000035025,Correct,sub_005_day_24_data.csv,1,600,,Button-Switch at home,,,,,,,,,,,,,k
5,24,602,A,25.264308526113325,55.19656946270683,1.2632154263056663,0.8670256856369926,A,437.5022000167519,Correct,sub_005_day_24_data.csv,1,600,,Button-Switch at home,,,,,,,,,,,,,k
5,24,603,A,11.203376255606628,34.575269151760544,0.5601688127803314,0.5431070578153037,A,450.6398999947123,Correct,sub_005_day_24_data.csv,1,600,,Button-Switch at home,,,,,,,,,,,,,k
5,24,604,A,60.85189967776641,72.3464166238968,3.042594983888321,1.1364148548959034,B,515.2376999612898,Incorrect,sub_005_day_24_data.csv,0,600,,Button-Switch at home,,,,,,,,,,,,,d
5,24,605,A,19.223072773438236,46.631053025163354,0.9611536386719116,0.7324788680650466,A,415.7339999801479,Correct,sub_005_day_24_data.csv,1,600,,Button-Switch at home,,,,,,,,,,,,,k
5,24,606,B,70.93376003130152,39.80693484576026,3.5466880015650757,0.6252858703668398,B,604.7548000351526,Correct,sub_005_day_24_data.csv,1,600,,Button-Switch at home,,,,,,,,,,,,,d
5,24,607,A,50.377136661905645,58.53593664929122,2.518856833095282,0.919480342742054,A,846.4958000113256,Correct,sub_005_day_24_data.csv,1,600,,Button-Switch at home,,,,,,,,,,,,,k
5,24,608,A,42.988401894011545,57.939178129573136,2.1494200947005773,0.910106481834487,A,538.7077999766916,Correct,sub_005_day_24_data.csv,1,600,,Button-Switch at home,,,,,,,,,,,,,k
5,24,609,A,24.91346010737824,38.00190737091104,1.245673005368912,0.5969325650942696,A,448.15459998790175,Correct,sub_005_day_24_data.csv,1,600,,Button-Switch at home,,,,,,,,,,,,,k
5,24,610,B,72.06787278320269,46.6180373278297,3.603393639160134,0.7322744179694226,B,528.5361999995075,Correct,sub_005_day_24_data.csv,1,600,,Button-Switch at home,,,,,,,,,,,,,d
5,24,611,A,20.06022228592585,51.46367897815426,1.0030111142962923,0.8083895790223645,A,469.9784000404179,Correct,sub_005_day_24_data.csv,1,600,,Button-Switch at home,,,,,,,,,,,,,k
5,24,612,A,59.80018974022026,87.13031654640926,2.9900094870110134,1.3686398118357626,A,737.8716999664903,Correct,sub_005_day_24_data.csv,1,600,,Button-Switch at home,,,,,,,,,,,,,k
5,24,613,A,29.775529802267563,44.393811854962024,1.488776490113378,0.6973363659419808,A,461.0698000178672,Correct,sub_005_day_24_data.csv,1,600,,Button-Switch at home,,,,,,,,,,,,,k
5,24,614,B,44.0987787299707,19.308918832853458,2.2049389364985346,0.30330378777027,A,1093.4169999673031,Incorrect,sub_005_day_24_data.csv,0,600,,Button-Switch at home,,,,,,,,,,,,,k
5,24,615,B,52.262745484837154,37.49168803390757,2.613137274241858,0.5889180584900219,B,1077.03169999877,Correct,sub_005_day_24_data.csv,1,600,,Button-Switch at home,,,,,,,,,,,,,d
5,24,616,A,63.106309954953645,79.59970592516679,3.155315497747682,1.2503492568120596,A,820.932799950242,Correct,sub_005_day_24_data.csv,1,600,,Button-Switch at home,,,,,,,,,,,,,k
5,24,617,A,20.32758938417968,36.94649805342055,1.016379469208984,0.5803542343024779,A,466.96829999564216,Correct,sub_005_day_24_data.csv,1,600,,Button-Switch at home,,,,,,,,,,,,,k
5,24,618,A,21.46874731783635,44.96141483157403,1.0734373658918177,0.7062522526493807,A,425.42330001015216,Correct,sub_005_day_24_data.csv,1,600,,Button-Switch at home,,,,,,,,,,,,,k
5,24,619,B,43.98418872415993,24.381210340151476,2.1992094362079966,0.3829791564512368,B,634.9408999667503,Correct,sub_005_day_24_data.csv,1,600,,Button-Switch at home,,,,,,,,,,,,,d
5,24,620,A,30.227449914698063,46.49594953771586,1.5113724957349033,0.7303566674468495,A,816.8417999986559,Correct,sub_005_day_24_data.csv,1,600,,Button-Switch at home,,,,,,,,,,,,,k
5,24,621,B,73.95119635131405,45.35324548235214,3.6975598175657023,0.7124071141190598,B,700.53159998497,Correct,sub_005_day_24_data.csv,1,600,,Button-Switch at home,,,,,,,,,,,,,d
5,24,622,A,23.436450553794646,41.25868913753662,1.1718225276897325,0.6480899734561502,A,639.1998999752104,Correct,sub_005_day_24_data.csv,1,600,,Button-Switch at home,,,,,,,,,,,,,k
5,24,623,B,41.1280907998119,27.333267852484916,2.056404539990595,0.4293499674198433,B,677.3094999953173,Correct,sub_005_day_24_data.csv,1,600,,Button-Switch at home,,,,,,,,,,,,,d
5,24,624,B,73.54323560540094,46.896041790350544,3.6771617802700463,0.736641301855026,B,653.2562999636866,Correct,sub_005_day_24_data.csv,1,600,,Button-Switch at home,,,,,,,,,,,,,d
5,24,625,B,63.52022052632806,37.05324093400726,3.1760110263164028,0.5820309475498491,B,616.533900029026,Correct,sub_005_day_24_data.csv,1,600,,Button-Switch at home,,,,,,,,,,,,,d
5,24,626,A,34.299740935569524,43.24278735821565,1.7149870467784762,0.6792561154265794,A,536.416899994947,Correct,sub_005_day_24_data.csv,1,600,,Button-Switch at home,,,,,,,,,,,,,k
5,24,627,B,34.14363185791025,10.706456178445006,1.7071815928955123,0.1681766203809194,B,633.7626000167802,Correct,sub_005_day_24_data.csv,1,600,,Button-Switch at home,,,,,,,,,,,,,d
5,24,628,B,45.77217097296605,18.14987100304911,2.2886085486483028,0.2850975070339075,B,534.4145999988541,Correct,sub_005_day_24_data.csv,1,600,,Button-Switch at home,,,,,,,,,,,,,d
5,24,629,B,87.93124604551318,61.04495513290536,4.396562302275658,0.95889191292127,B,622.077599982731,Correct,sub_005_day_24_data.csv,1,600,,Button-Switch at home,,,,,,,,,,,,,d
5,24,630,B,48.60920021478696,38.14605390937764,2.430460010739348,0.599196813625705,B,795.1787000056356,Correct,sub_005_day_24_data.csv,1,600,,Button-Switch at home,,,,,,,,,,,,,d
5,24,631,B,47.9743425258137,39.276116758063786,2.398717126290685,0.6169477993433407,A,1293.4548999764957,Incorrect,sub_005_day_24_data.csv,0,600,,Button-Switch at home,,,,,,,,,,,,,k
5,24,632,A,25.226016433038524,43.64276538421878,1.261300821651926,0.6855389555670232,A,676.0123999556527,Correct,sub_005_day_24_data.csv,1,600,,Button-Switch at home,,,,,,,,,,,,,k
5,24,633,B,44.00617421872498,16.232521337969164,2.200308710936249,0.2549798489230174,B,761.4582999958657,Correct,sub_005_day_24_data.csv,1,600,,Button-Switch at home,,,,,,,,,,,,,d
5,24,634,B,65.54929293892603,49.196156793207265,3.2774646469463016,0.7727714238319578,B,567.5178000237793,Correct,sub_005_day_24_data.csv,1,600,,Button-Switch at home,,,,,,,,,,,,,d
5,24,635,A,50.67689858415132,61.48064100037288,2.533844929207566,0.9657356505238144,A,758.7876000325195,Correct,sub_005_day_24_data.csv,1,600,,Button-Switch at home,,,,,,,,,,,,,k
5,24,636,A,11.10774110717692,31.285326012877498,0.555387055358846,0.4914287518360879,A,502.56210000952706,Correct,sub_005_day_24_data.csv,1,600,,Button-Switch at home,,,,,,,,,,,,,k
5,24,637,A,55.208556980902415,75.64611166450578,2.760427849045121,1.1882463433892227,A,715.9851000178605,Correct,sub_005_day_24_data.csv,1,600,,Button-Switch at home,,,,,,,,,,,,,k
5,24,638,A,23.918864208156094,51.05261215043105,1.1959432104078047,0.8019325563918162,A,468.7284000101499,Correct,sub_005_day_24_data.csv,1,600,,Button-Switch at home,,,,,,,,,,,,,k
5,24,639,A,39.92164899963628,52.58567118047856,1.9960824499818144,0.8260137913233996,A,520.8681999938563,Correct,sub_005_day_24_data.csv,1,600,,Button-Switch at home,,,,,,,,,,,,,k
5,24,640,A,66.05218259417948,79.73460280894386,3.3026091297089746,1.2524682121073905,B,486.9652999914251,Incorrect,sub_005_day_24_data.csv,0,600,,Button-Switch at home,,,,,,,,,,,,,d
5,24,641,A,49.41898345672672,74.66678549300207,2.470949172836336,1.172863123859901,A,506.9253999972716,Correct,sub_005_day_24_data.csv,1,600,,Button-Switch at home,,,,,,,,,,,,,k
5,24,642,B,74.88024602232394,54.024520636425464,3.7440123011161974,0.8486151857255221,B,477.87860000971705,Correct,sub_005_day_24_data.csv,1,600,,Button-Switch at home,,,,,,,,,,,,,d
5,24,643,A,29.588496695597676,59.69245299676529,1.479424834779884,0.9376468590469594,A,463.34269997896627,Correct,sub_005_day_24_data.csv,1,600,,Button-Switch at home,,,,,,,,,,,,,k
5,24,644,B,65.53538144039328,47.65253290263104,3.276769072019664,0.7485242364592577,A,595.1755000278354,Incorrect,sub_005_day_24_data.csv,0,600,,Button-Switch at home,,,,,,,,,,,,,k
5,24,645,B,37.291810775283224,13.775182112685943,1.8645905387641613,0.2163800546353784,B,821.373000042513,Correct,sub_005_day_24_data.csv,1,600,,Button-Switch at home,,,,,,,,,,,,,d
5,24,646,A,29.527860004778745,48.74659740300389,1.4763930002389372,0.7657097614438816,A,487.6995000522584,Correct,sub_005_day_24_data.csv,1,600,,Button-Switch at home,,,,,,,,,,,,,k
5,24,647,A,27.83738457779785,48.571891960872016,1.3918692288898924,0.7629654947761634,A,622.4404000095092,Correct,sub_005_day_24_data.csv,1,600,,Button-Switch at home,,,,,,,,,,,,,k
5,24,648,B,73.68471262237793,63.28845905074975,3.684235631118896,0.9941327900542694,B,547.371499997098,Correct,sub_005_day_24_data.csv,1,600,,Button-Switch at home,,,,,,,,,,,,,d
5,24,649,B,55.98272053395445,42.721858887425824,2.799136026697722,0.6710733901421839,B,555.811400001403,Correct,sub_005_day_24_data.csv,1,600,,Button-Switch at home,,,,,,,,,,,,,d
5,24,650,B,41.44841275459487,33.3704526990323,2.0724206377297434,0.5241818452312278,B,602.4431999539956,Correct,sub_005_day_24_data.csv,1,600,,Button-Switch at home,,,,,,,,,,,,,d
5,24,651,A,46.74943341995788,58.61655282925541,2.337471670997894,0.920746658735734,B,584.779399971012,Incorrect,sub_005_day_24_data.csv,0,600,,Button-Switch at home,,,,,,,,,,,,,d
5,24,652,B,77.30061340784087,52.411559785600446,3.865030670392043,0.8232788559281229,B,700.387499993667,Correct,sub_005_day_24_data.csv,1,600,,Button-Switch at home,,,,,,,,,,,,,d
5,24,653,B,69.53833855685636,47.680082585153066,3.4769169278428183,0.7489569858603575,B,531.025399977807,Correct,sub_005_day_24_data.csv,1,600,,Button-Switch at home,,,,,,,,,,,,,d
5,24,654,B,58.59642480925208,31.550546358549372,2.9298212404626036,0.4955948232838145,B,468.6352999997325,Correct,sub_005_day_24_data.csv,1,600,,Button-Switch at home,,,,,,,,,,,,,d
5,24,655,A,26.55780945563247,51.2267913240734,1.3278904727816234,0.8046685564534317,A,455.5596000282094,Correct,sub_005_day_24_data.csv,1,600,,Button-Switch at home,,,,,,,,,,,,,k
5,24,656,A,64.87351588785991,77.40182819934095,3.2436757943929955,1.215825074227344,B,719.191700045485,Incorrect,sub_005_day_24_data.csv,0,600,,Button-Switch at home,,,,,,,,,,,,,d
5,24,657,B,72.93063194030718,62.779188629328864,3.6465315970153593,0.9861331889811372,B,513.13300000038,Correct,sub_005_day_24_data.csv,1,600,,Button-Switch at home,,,,,,,,,,,,,d
5,24,658,A,48.50265119653919,74.56923607301681,2.4251325598269595,1.171330821153963,A,658.0348000279628,Correct,sub_005_day_24_data.csv,1,600,,Button-Switch at home,,,,,,,,,,,,,k
5,24,659,A,20.45293896507245,36.99638030890328,1.0226469482536225,0.581137782939323,A,564.9860000121407,Correct,sub_005_day_24_data.csv,1,600,,Button-Switch at home,,,,,,,,,,,,,k
5,24,660,A,31.130109903852222,49.1690024978329,1.5565054951926112,0.77234488515765,A,433.43360000289977,Correct,sub_005_day_24_data.csv,1,600,,Button-Switch at home,,,,,,,,,,,,,k
5,24,661,A,44.61841384087056,72.48299586401306,2.230920692043528,1.138560236582814,A,524.219999962952,Correct,sub_005_day_24_data.csv,1,600,,Button-Switch at home,,,,,,,,,,,,,k
5,24,662,B,34.865503382666134,10.667723408175217,1.7432751691333066,0.1675682074482556,A,495.8236999809742,Incorrect,sub_005_day_24_data.csv,0,600,,Button-Switch at home,,,,,,,,,,,,,k
5,24,663,B,67.89860817342516,53.59609269417195,3.3949304086712577,0.8418854553456409,A,1079.0756000205874,Incorrect,sub_005_day_24_data.csv,0,600,,Button-Switch at home,,,,,,,,,,,,,k
5,24,664,B,32.643515321705536,16.63940696448132,1.6321757660852767,0.2613711933985267,B,763.6806999798864,Correct,sub_005_day_24_data.csv,1,600,,Button-Switch at home,,,,,,,,,,,,,d
5,24,665,A,32.54601757020891,41.42493320469107,1.6273008785104457,0.6507013291565268,B,772.7421000017785,Incorrect,sub_005_day_24_data.csv,0,600,,Button-Switch at home,,,,,,,,,,,,,d
5,24,666,B,54.22769461330594,33.99751111253128,2.7113847306652974,0.5340316557573281,B,563.2920000352897,Correct,sub_005_day_24_data.csv,1,600,,Button-Switch at home,,,,,,,,,,,,,d
5,24,667,A,41.743853214949056,67.577086840808,2.087192660747453,1.0614983978504096,A,630.3483999799937,Correct,sub_005_day_24_data.csv,1,600,,Button-Switch at home,,,,,,,,,,,,,k
5,24,668,B,42.277671166977825,32.593408133247436,2.113883558348891,0.5119760577343198,B,850.2195999608375,Correct,sub_005_day_24_data.csv,1,600,,Button-Switch at home,,,,,,,,,,,,,d
5,24,669,B,60.27601086504586,28.631712210846903,3.013800543252293,0.449745883706469,B,549.562300031539,Correct,sub_005_day_24_data.csv,1,600,,Button-Switch at home,,,,,,,,,,,,,d
5,24,670,A,41.77776987243572,50.97274090265489,2.088888493621786,0.8006779417655829,A,763.8999000191689,Correct,sub_005_day_24_data.csv,1,600,,Button-Switch at home,,,,,,,,,,,,,k
5,24,671,A,64.02315284508643,84.14920737326591,3.2011576422543215,1.321812658446281,A,716.0164999659173,Correct,sub_005_day_24_data.csv,1,600,,Button-Switch at home,,,,,,,,,,,,,k
5,24,672,A,22.272692484740062,40.518360966463774,1.1136346242370032,0.63646092573871,A,510.21929999114946,Correct,sub_005_day_24_data.csv,1,600,,Button-Switch at home,,,,,,,,,,,,,k
5,24,673,A,26.273139738389983,43.85439024021016,1.3136569869194994,0.6888631510315207,A,517.936100019142,Correct,sub_005_day_24_data.csv,1,600,,Button-Switch at home,,,,,,,,,,,,,k
5,24,674,B,44.38003390853112,16.590485839301436,2.219001695426556,0.2606027421611744,B,511.4017999731004,Correct,sub_005_day_24_data.csv,1,600,,Button-Switch at home,,,,,,,,,,,,,d
5,24,675,A,46.27079786591722,69.17376860873367,2.313539893295861,1.0865790164115896,A,412.4135000165552,Correct,sub_005_day_24_data.csv,1,600,,Button-Switch at home,,,,,,,,,,,,,k
5,24,676,B,47.76465635433388,34.55265236404593,2.388232817716694,0.5427517941446435,B,667.0496999868192,Correct,sub_005_day_24_data.csv,1,600,,Button-Switch at home,,,,,,,,,,,,,d
5,24,677,A,61.41869695972236,72.94843634762712,3.070934847986118,1.14587135860284,A,657.1611000108533,Correct,sub_005_day_24_data.csv,1,600,,Button-Switch at home,,,,,,,,,,,,,k
5,24,678,B,33.073042104064996,17.069742013408085,1.6536521052032498,0.2681308805399794,B,786.1655000015162,Correct,sub_005_day_24_data.csv,1,600,,Button-Switch at home,,,,,,,,,,,,,d
5,24,679,A,14.669455298825367,34.20327628852449,0.7334727649412685,0.5372638075836526,A,458.7052999995649,Correct,sub_005_day_24_data.csv,1,600,,Button-Switch at home,,,,,,,,,,,,,k
5,24,680,A,62.03880978043664,77.90788404854742,3.101940489021832,1.22377418091821,A,683.4042000118643,Correct,sub_005_day_24_data.csv,1,600,,Button-Switch at home,,,,,,,,,,,,,k
5,24,681,B,43.60466961202559,22.66428674821982,2.1802334806012795,0.3560097837352994,B,555.6686000199988,Correct,sub_005_day_24_data.csv,1,600,,Button-Switch at home,,,,,,,,,,,,,d
5,24,682,B,60.99093372199977,32.184071362335544,3.0495466860999887,0.505546210772615,B,537.0934000238776,Correct,sub_005_day_24_data.csv,1,600,,Button-Switch at home,,,,,,,,,,,,,d
5,24,683,B,51.48335361182236,35.8531632656041,2.5741676805911182,0.5631801716158864,B,647.8579000104219,Correct,sub_005_day_24_data.csv,1,600,,Button-Switch at home,,,,,,,,,,,,,d
5,24,684,A,22.30191845264755,37.157213695177994,1.1150959226323776,0.5836641478631861,A,678.7341999588534,Correct,sub_005_day_24_data.csv,1,600,,Button-Switch at home,,,,,,,,,,,,,k
5,24,685,B,70.4937137346179,57.04832465294304,3.524685686730895,0.8961129881464568,B,518.8642999855801,Correct,sub_005_day_24_data.csv,1,600,,Button-Switch at home,,,,,,,,,,,,,d
5,24,686,A,25.701779659270255,38.34568619647903,1.2850889829635128,0.6023326302585903,A,460.3074000333436,Correct,sub_005_day_24_data.csv,1,600,,Button-Switch at home,,,,,,,,,,,,,k
5,24,687,A,14.403998654359253,36.56417551920782,0.7201999327179627,0.5743487259785552,A,458.3160000038333,Correct,sub_005_day_24_data.csv,1,600,,Button-Switch at home,,,,,,,,,,,,,k
5,24,688,A,19.357708748542883,46.97967178924233,0.967885437427144,0.7379549588057169,A,487.9712000256404,Correct,sub_005_day_24_data.csv,1,600,,Button-Switch at home,,,,,,,,,,,,,k
5,24,689,A,49.569879923242354,70.29083680548995,2.4784939961621175,1.1041258826140314,A,584.8337999777868,Correct,sub_005_day_24_data.csv,1,600,,Button-Switch at home,,,,,,,,,,,,,k
5,24,690,A,30.72927064891429,40.41635638973325,1.5364635324457143,0.6348586415942644,A,459.62910004891455,Correct,sub_005_day_24_data.csv,1,600,,Button-Switch at home,,,,,,,,,,,,,k
5,24,691,B,47.05291355018208,20.585107272716957,2.352645677509104,0.3233501089066271,B,606.1993000330403,Correct,sub_005_day_24_data.csv,1,600,,Button-Switch at home,,,,,,,,,,,,,d
5,24,692,A,50.36551636382206,76.39762225358392,2.518275818191103,1.2000510441179366,B,487.43950005155057,Incorrect,sub_005_day_24_data.csv,0,600,,Button-Switch at home,,,,,,,,,,,,,d
5,24,693,A,50.18215823995805,75.48271655888213,2.5091079119979027,1.1856797390719236,A,550.0750999781303,Correct,sub_005_day_24_data.csv,1,600,,Button-Switch at home,,,,,,,,,,,,,k
5,24,694,B,46.90304669978938,26.25873959185457,2.3451523349894687,0.4124713169714888,B,585.681599972304,Correct,sub_005_day_24_data.csv,1,600,,Button-Switch at home,,,,,,,,,,,,,d
5,24,695,B,83.76730758979716,59.599593085256075,4.188365379489857,0.9361882189679076,B,546.3312999927439,Correct,sub_005_day_24_data.csv,1,600,,Button-Switch at home,,,,,,,,,,,,,d
5,24,696,A,58.34981902908997,85.05650320610499,2.9174909514544987,1.3360644280616805,B,517.9273000103422,Incorrect,sub_005_day_24_data.csv,0,600,,Button-Switch at home,,,,,,,,,,,,,d
5,24,697,A,40.8328233752048,59.66442826117672,2.0416411687602403,0.93720664752974,A,651.2549000326544,Correct,sub_005_day_24_data.csv,1,600,,Button-Switch at home,,,,,,,,,,,,,k
5,24,698,B,45.40426969937517,29.018666873754945,2.2702134849687585,0.45582415333779,A,1019.6202999795788,Incorrect,sub_005_day_24_data.csv,0,600,,Button-Switch at home,,,,,,,,,,,,,k
5,24,699,B,70.7870446226779,52.11729704790989,3.539352231133895,0.8186565876533537,B,535.8374000061303,Correct,sub_005_day_24_data.csv,1,600,,Button-Switch at home,,,,,,,,,,,,,d
5,24,700,A,50.09801050938632,80.5808485814324,2.5049005254693157,1.2657610096172978,A,692.1369000338018,Correct,sub_005_day_24_data.csv,1,600,,Button-Switch at home,,,,,,,,,,,,,k
5,24,701,A,65.24139562595255,76.47709339979345,3.262069781297628,1.201299373963458,A,592.4460000242107,Correct,sub_005_day_24_data.csv,1,600,,Button-Switch at home,,,,,,,,,,,,,k
5,24,702,B,55.57070360336701,35.973454378765254,2.77853518016835,0.5650697000028825,B,744.2905000061728,Correct,sub_005_day_24_data.csv,1,600,,Button-Switch at home,,,,,,,,,,,,,d
5,24,703,B,59.5147820364053,29.168049448472132,2.975739101820265,0.4581706493343194,B,756.0826999833807,Correct,sub_005_day_24_data.csv,1,600,,Button-Switch at home,,,,,,,,,,,,,d
5,24,704,A,54.39959455526177,77.07272973112633,2.719979727763089,1.2106556075770905,A,603.707000031136,Correct,sub_005_day_24_data.csv,1,600,,Button-Switch at home,,,,,,,,,,,,,k
5,24,705,B,72.10370770798515,60.13335876331608,3.605185385399258,0.944572590632566,A,802.0238999743015,Incorrect,sub_005_day_24_data.csv,0,600,,Button-Switch at home,,,,,,,,,,,,,k
5,24,706,A,14.40196614200093,38.16070490051325,0.7200983071000465,0.5994269508563023,A,507.43459997465834,Correct,sub_005_day_24_data.csv,1,600,,Button-Switch at home,,,,,,,,,,,,,k
5,24,707,B,55.64670600818227,42.48819228544169,2.782335300409114,0.6674029637412707,A,640.9067999920808,Incorrect,sub_005_day_24_data.csv,0,600,,Button-Switch at home,,,,,,,,,,,,,k
5,24,708,A,22.727688010337836,52.24149227891037,1.1363844005168915,0.8206074417799635,A,491.96569999912754,Correct,sub_005_day_24_data.csv,1,600,,Button-Switch at home,,,,,,,,,,,,,k
5,24,709,B,44.15168841502017,20.011010916754124,2.2075844207510085,0.3143322244348995,B,720.4313999973238,Correct,sub_005_day_24_data.csv,1,600,,Button-Switch at home,,,,,,,,,,,,,d
5,24,710,A,59.04029964617792,67.73654148921281,2.952014982308896,1.064003105610456,A,605.6629999657162,Correct,sub_005_day_24_data.csv,1,600,,Button-Switch at home,,,,,,,,,,,,,k
5,24,711,B,74.7999364369946,64.25327688232908,3.7399968218497297,1.0092881131129794,B,598.0023000156507,Correct,sub_005_day_24_data.csv,1,600,,Button-Switch at home,,,,,,,,,,,,,d
5,24,712,A,36.04022879087342,47.90423786338744,1.802011439543671,0.75247800873718,B,961.3522000145168,Incorrect,sub_005_day_24_data.csv,0,600,,Button-Switch at home,,,,,,,,,,,,,d
5,24,713,A,52.42304741131861,67.17190445215034,2.6211523705659308,1.0551338077725552,A,785.1204000180587,Correct,sub_005_day_24_data.csv,1,600,,Button-Switch at home,,,,,,,,,,,,,k
5,24,714,A,53.55342710949018,70.25955368188964,2.677671355474509,1.103634488457611,A,552.6228999951854,Correct,sub_005_day_24_data.csv,1,600,,Button-Switch at home,,,,,,,,,,,,,k
5,24,715,B,86.8008562714696,69.65707957009724,4.340042813573479,1.0941708472396858,B,478.93179999664426,Correct,sub_005_day_24_data.csv,1,600,,Button-Switch at home,,,,,,,,,,,,,d
5,24,716,A,45.2607927191287,68.8827177212381,2.263039635956435,1.0820071997617051,A,576.1747999931686,Correct,sub_005_day_24_data.csv,1,600,,Button-Switch at home,,,,,,,,,,,,,k
5,24,717,B,65.62143827987173,42.33128552014194,3.281071913993586,0.6649382780354496,B,471.23830002965406,Correct,sub_005_day_24_data.csv,1,600,,Button-Switch at home,,,,,,,,,,,,,d
5,24,718,B,37.332926140728944,22.70047260714539,1.8666463070364472,0.3565781898781214,B,586.6208000225015,Correct,sub_005_day_24_data.csv,1,600,,Button-Switch at home,,,,,,,,,,,,,d
5,24,719,A,58.60390201008494,72.98248370803374,2.930195100504247,1.1464061732894777,B,502.7441999991424,Incorrect,sub_005_day_24_data.csv,0,600,,Button-Switch at home,,,,,,,,,,,,,d
5,24,720,A,49.98186823543355,61.0885366956623,2.4990934117716774,0.9595764905082158,A,463.0804000189528,Correct,sub_005_day_24_data.csv,1,600,,Button-Switch at home,,,,,,,,,,,,,k
5,24,721,A,49.612403717657266,68.18608530853193,2.4806201858828634,1.0710645234116545,A,619.2722999840043,Correct,sub_005_day_24_data.csv,1,600,,Button-Switch at home,,,,,,,,,,,,,k
5,24,722,A,25.1857738387189,57.70066221213571,1.2592886919359452,0.9063598825645586,A,432.5079999980517,Correct,sub_005_day_24_data.csv,1,600,,Button-Switch at home,,,,,,,,,,,,,k
5,24,723,A,65.3237416816568,81.31265099655943,3.26618708408284,1.2772561350735092,A,667.3690000316128,Correct,sub_005_day_24_data.csv,1,600,,Button-Switch at home,,,,,,,,,,,,,k
5,24,724,B,35.315071908091895,12.35830647559672,1.7657535954045949,0.194123824172729,B,676.0463999817148,Correct,sub_005_day_24_data.csv,1,600,,Button-Switch at home,,,,,,,,,,,,,d
5,24,725,A,52.3106115455576,70.5147655216023,2.61553057727788,1.107643346661363,A,540.7079000142403,Correct,sub_005_day_24_data.csv,1,600,,Button-Switch at home,,,,,,,,,,,,,k
5,24,726,A,55.76445386292695,67.9226197168944,2.7882226931463476,1.0669260155758435,A,530.0848000333644,Correct,sub_005_day_24_data.csv,1,600,,Button-Switch at home,,,,,,,,,,,,,k
5,24,727,A,43.9053432203275,51.143240642174106,2.195267161016375,0.8033561454111455,A,641.1632999661379,Correct,sub_005_day_24_data.csv,1,600,,Button-Switch at home,,,,,,,,,,,,,k
5,24,728,B,79.91339168526378,56.15757181475435,3.995669584263189,0.8821210752833674,B,628.0076999682933,Correct,sub_005_day_24_data.csv,1,600,,Button-Switch at home,,,,,,,,,,,,,d
5,24,729,B,50.094772253159405,37.880930210994784,2.5047386126579703,0.5950322603100443,B,695.2043999917805,Correct,sub_005_day_24_data.csv,1,600,,Button-Switch at home,,,,,,,,,,,,,d
5,24,730,A,16.50115490329569,40.18885906742375,0.8250577451647844,0.6312851220118699,A,486.8480999721214,Correct,sub_005_day_24_data.csv,1,600,,Button-Switch at home,,,,,,,,,,,,,k
5,24,731,B,56.91150312310816,30.902290525091367,2.845575156155408,0.4854120444636226,B,519.7093000169843,Correct,sub_005_day_24_data.csv,1,600,,Button-Switch at home,,,,,,,,,,,,,d
5,24,732,A,32.558550164421725,51.83448510817072,1.6279275082210862,0.8142141880921934,A,501.95539998821914,Correct,sub_005_day_24_data.csv,1,600,,Button-Switch at home,,,,,,,,,,,,,k
5,24,733,A,42.81764991225493,73.57772799242936,2.1408824956127464,1.1557562486442206,A,570.9492999594659,Correct,sub_005_day_24_data.csv,1,600,,Button-Switch at home,,,,,,,,,,,,,k
5,24,734,B,64.58341565797147,43.20865361763801,3.229170782898574,0.678719943883388,B,518.2481999509037,Correct,sub_005_day_24_data.csv,1,600,,Button-Switch at home,,,,,,,,,,,,,d
5,24,735,B,70.45679069870127,44.465405442798506,3.5228395349350636,0.6984609553899369,B,717.4037999939173,Correct,sub_005_day_24_data.csv,1,600,,Button-Switch at home,,,,,,,,,,,,,d
5,24,736,A,51.719688656579294,79.87601514461254,2.585984432828965,1.254689511881709,A,857.2668000124395,Correct,sub_005_day_24_data.csv,1,600,,Button-Switch at home,,,,,,,,,,,,,k
5,24,737,A,50.51804816091723,78.05909386060915,2.5259024080458614,1.2261493790918292,A,898.82599998964,Correct,sub_005_day_24_data.csv,1,600,,Button-Switch at home,,,,,,,,,,,,,k
5,24,738,A,23.460860864495064,54.69410779034656,1.1730430432247532,0.8591330361440053,A,551.0445000254549,Correct,sub_005_day_24_data.csv,1,600,,Button-Switch at home,,,,,,,,,,,,,k
5,24,739,B,45.493451238324305,15.87108633356108,2.274672561916215,0.2493024411500243,B,605.1605999819003,Correct,sub_005_day_24_data.csv,1,600,,Button-Switch at home,,,,,,,,,,,,,d
5,24,740,B,83.0358653069919,65.05071315615258,4.151793265349595,1.0218142128107293,B,699.2142000235617,Correct,sub_005_day_24_data.csv,1,600,,Button-Switch at home,,,,,,,,,,,,,d
5,24,741,B,68.59043851761362,45.3304135754713,3.429521925880681,0.7120484713644383,B,531.7462999955751,Correct,sub_005_day_24_data.csv,1,600,,Button-Switch at home,,,,,,,,,,,,,d
5,24,742,A,27.610329513133923,42.076267536173475,1.380516475656696,0.6609324649106065,A,487.1840000269003,Correct,sub_005_day_24_data.csv,1,600,,Button-Switch at home,,,,,,,,,,,,,k
5,24,743,B,42.260023891250626,26.368146287804336,2.113001194562531,0.4141898733327354,A,537.710500007961,Incorrect,sub_005_day_24_data.csv,0,600,,Button-Switch at home,,,,,,,,,,,,,k
5,24,744,A,50.07986277611302,81.10754421206151,2.503993138805651,1.274034325236609,A,620.3652999829501,Correct,sub_005_day_24_data.csv,1,600,,Button-Switch at home,,,,,,,,,,,,,k
5,24,745,A,21.567690487002594,42.44590237903068,1.0783845243501298,0.6667386754447615,A,721.8939000158571,Correct,sub_005_day_24_data.csv,1,600,,Button-Switch at home,,,,,,,,,,,,,k
5,24,746,B,38.771412623706624,17.853146586474058,1.9385706311853312,0.2804365707976429,B,586.0443999990821,Correct,sub_005_day_24_data.csv,1,600,,Button-Switch at home,,,,,,,,,,,,,d
5,24,747,A,57.00551835064047,79.53828821453841,2.850275917532024,1.2493845096695075,A,577.881500008516,Correct,sub_005_day_24_data.csv,1,600,,Button-Switch at home,,,,,,,,,,,,,k
5,24,748,B,65.00309711807894,36.19325873131305,3.250154855903947,0.5685223786988386,B,576.2614000122994,Correct,sub_005_day_24_data.csv,1,600,,Button-Switch at home,,,,,,,,,,,,,d
5,24,749,A,18.340663747699192,43.9504798482907,0.9170331873849596,0.6903725230656815,A,463.9112000004389,Correct,sub_005_day_24_data.csv,1,600,,Button-Switch at home,,,,,,,,,,,,,k
5,24,750,A,18.36081744283561,33.552819700267044,0.9180408721417804,0.5270464593879092,A,509.33979998808354,Correct,sub_005_day_24_data.csv,1,600,,Button-Switch at home,,,,,,,,,,,,,k
5,24,751,B,55.37868071188394,35.22292511472095,2.768934035594197,0.5532804138917538,B,468.7015000381507,Correct,sub_005_day_24_data.csv,1,600,,Button-Switch at home,,,,,,,,,,,,,d
5,24,752,B,76.98316188943866,60.44814703045519,3.849158094471933,0.9495172731699686,B,503.4120000200346,Correct,sub_005_day_24_data.csv,1,600,,Button-Switch at home,,,,,,,,,,,,,d
5,24,753,B,67.58189517142705,53.80746461665179,3.3790947585713527,0.8452056777398299,B,466.86480002244934,Correct,sub_005_day_24_data.csv,1,600,,Button-Switch at home,,,,,,,,,,,,,d
5,24,754,B,49.80977384627629,39.29785757736247,2.4904886923138148,0.6172893033342995,B,486.38999997638166,Correct,sub_005_day_24_data.csv,1,600,,Button-Switch at home,,,,,,,,,,,,,d
5,24,755,B,62.5646157772822,47.597548384323275,3.12823078886411,0.7476605416653735,B,450.12710004812106,Correct,sub_005_day_24_data.csv,1,600,,Button-Switch at home,,,,,,,,,,,,,d
5,24,756,B,51.83532384495808,43.35355631556897,2.5917661922479045,0.6809960701399144,B,447.725799982436,Correct,sub_005_day_24_data.csv,1,600,,Button-Switch at home,,,,,,,,,,,,,d
5,24,757,A,34.54532121502583,60.650006426323266,1.7272660607512915,0.9526880731455546,A,470.5699000041932,Correct,sub_005_day_24_data.csv,1,600,,Button-Switch at home,,,,,,,,,,,,,k
5,24,758,B,37.729509182200616,16.984832682486232,1.8864754591100308,0.2667971278887528,B,641.9086999958381,Correct,sub_005_day_24_data.csv,1,600,,Button-Switch at home,,,,,,,,,,,,,d
5,24,759,B,49.18508485913348,24.753575928445994,2.4592542429566744,0.3888282614344154,B,431.66020000353456,Correct,sub_005_day_24_data.csv,1,600,,Button-Switch at home,,,,,,,,,,,,,d
5,24,760,A,19.038346520707947,50.12982793532031,0.9519173260353974,0.7874374958366134,A,457.66549999825656,Correct,sub_005_day_24_data.csv,1,600,,Button-Switch at home,,,,,,,,,,,,,k
5,24,761,A,26.443355044933845,36.258008886541674,1.322167752246692,0.5695394717587637,A,486.9615000206977,Correct,sub_005_day_24_data.csv,1,600,,Button-Switch at home,,,,,,,,,,,,,k
5,24,762,A,24.53736062990109,45.938091510678504,1.2268680314950544,0.7215938540494161,A,635.1508999941871,Correct,sub_005_day_24_data.csv,1,600,,Button-Switch at home,,,,,,,,,,,,,k
5,24,763,A,37.67091934005511,65.37162669208786,1.8835459670027552,1.0268551108453885,A,481.40910000074655,Correct,sub_005_day_24_data.csv,1,600,,Button-Switch at home,,,,,,,,,,,,,k
5,24,764,B,49.58285560670989,22.800864529969548,2.479142780335495,0.3581551425142421,B,593.4441999997944,Correct,sub_005_day_24_data.csv,1,600,,Button-Switch at home,,,,,,,,,,,,,d
5,24,765,B,51.67917762705585,28.741787783237037,2.583958881352793,0.4514749467542717,B,602.7675999794155,Correct,sub_005_day_24_data.csv,1,600,,Button-Switch at home,,,,,,,,,,,,,d
5,24,766,A,56.13417046501113,75.02338035729713,2.8067085232505566,1.178464502889787,A,548.6784999957308,Correct,sub_005_day_24_data.csv,1,600,,Button-Switch at home,,,,,,,,,,,,,k
5,24,767,B,75.34717794011182,58.301433071518815,3.767358897005591,0.9157967691562025,B,460.8264000271447,Correct,sub_005_day_24_data.csv,1,600,,Button-Switch at home,,,,,,,,,,,,,d
5,24,768,B,63.87490382626039,53.676182569580675,3.1937451913130195,0.8431435041666958,B,429.3136000051163,Correct,sub_005_day_24_data.csv,1,600,,Button-Switch at home,,,,,,,,,,,,,d
5,24,769,B,46.11021942155773,28.859994414287655,2.3055109710778865,0.4533317321728428,B,658.7093999842182,Correct,sub_005_day_24_data.csv,1,600,,Button-Switch at home,,,,,,,,,,,,,d
5,24,770,A,37.962637018492984,67.79677403937124,1.8981318509246492,1.0649492362958797,A,444.6470999973826,Correct,sub_005_day_24_data.csv,1,600,,Button-Switch at home,,,,,,,,,,,,,k
5,24,771,A,64.83722057560561,78.68544406739127,3.2418610287802805,1.2359880651328348,B,562.8366000019014,Incorrect,sub_005_day_24_data.csv,0,600,,Button-Switch at home,,,,,,,,,,,,,d
5,24,772,A,30.348544110377212,41.40002390778941,1.517427205518861,0.650310054835765,A,574.1697000339627,Correct,sub_005_day_24_data.csv,1,600,,Button-Switch at home,,,,,,,,,,,,,k
5,24,773,B,66.24567446180454,45.79265931056252,3.3122837230902267,0.7193094103920172,B,622.6435999851674,Correct,sub_005_day_24_data.csv,1,600,,Button-Switch at home,,,,,,,,,,,,,d
5,24,774,A,61.14327448583545,86.84018610454304,3.0571637242917724,1.3640824535120142,A,595.8735999884084,Correct,sub_005_day_24_data.csv,1,600,,Button-Switch at home,,,,,,,,,,,,,k
5,24,775,B,77.58908560344278,49.05637993008268,3.879454280172139,0.7705758140002875,B,570.1950000366196,Correct,sub_005_day_24_data.csv,1,600,,Button-Switch at home,,,,,,,,,,,,,d
5,24,776,B,47.27391337971056,23.81038419888255,2.363695668985528,0.3740126403917995,A,661.8059999891557,Incorrect,sub_005_day_24_data.csv,0,600,,Button-Switch at home,,,,,,,,,,,,,k
5,24,777,B,40.512727884132616,16.724506574571596,2.025636394206631,0.2627079349479416,B,723.3404999715276,Correct,sub_005_day_24_data.csv,1,600,,Button-Switch at home,,,,,,,,,,,,,d
5,24,778,A,50.505209462882576,67.2475398589408,2.525260473144129,1.056321885964176,A,914.9610999738798,Correct,sub_005_day_24_data.csv,1,600,,Button-Switch at home,,,,,,,,,,,,,k
5,24,779,B,64.13270869650415,31.69397809542165,3.2066354348252077,0.4978478437380624,B,526.8737000296824,Correct,sub_005_day_24_data.csv,1,600,,Button-Switch at home,,,,,,,,,,,,,d
5,24,780,A,47.574113852051205,58.069258585803624,2.3787056926025603,0.9121497808628336,A,545.3429999761283,Correct,sub_005_day_24_data.csv,1,600,,Button-Switch at home,,,,,,,,,,,,,k
5,24,781,B,85.24283573180583,65.23881223238045,4.262141786590291,1.0247688661908518,B,845.4378999886103,Correct,sub_005_day_24_data.csv,1,600,,Button-Switch at home,,,,,,,,,,,,,d
5,24,782,A,34.70493038779273,66.14649007819742,1.7352465193896365,1.039026636452076,A,483.2705999724567,Correct,sub_005_day_24_data.csv,1,600,,Button-Switch at home,,,,,,,,,,,,,k
5,24,783,B,71.34708478140243,40.79410023809456,3.5673542390701214,0.6407922280890174,B,498.5532999853603,Correct,sub_005_day_24_data.csv,1,600,,Button-Switch at home,,,,,,,,,,,,,d
5,24,784,A,13.162543445688057,36.847026831119805,0.6581271722844028,0.5787917439963599,A,486.81769997347146,Correct,sub_005_day_24_data.csv,1,600,,Button-Switch at home,,,,,,,,,,,,,k
5,24,785,A,64.88668556808257,86.1371219508963,3.2443342784041285,1.3530387476115195,B,499.98259998392314,Incorrect,sub_005_day_24_data.csv,0,600,,Button-Switch at home,,,,,,,,,,,,,d
5,24,786,B,64.00326192973898,32.80942633697272,3.200163096486949,0.5153692637436449,B,772.426399984397,Correct,sub_005_day_24_data.csv,1,600,,Button-Switch at home,,,,,,,,,,,,,d
5,24,787,B,63.19701554710713,40.96669957828698,3.159850777355357,0.6435034121848323,B,470.5612999969162,Correct,sub_005_day_24_data.csv,1,600,,Button-Switch at home,,,,,,,,,,,,,d
5,24,788,B,78.63566591298425,53.82818535597745,3.931783295649213,0.8455311583520422,B,777.0960999769159,Correct,sub_005_day_24_data.csv,1,600,,Button-Switch at home,,,,,,,,,,,,,d
5,24,789,B,50.869599822720296,29.317646292994077,2.543479991136014,0.4605205110730711,B,522.3335999762639,Correct,sub_005_day_24_data.csv,1,600,,Button-Switch at home,,,,,,,,,,,,,d
5,24,790,A,16.71508908600009,42.9655522864426,0.8357544543000046,0.674901317102581,A,536.7657000315376,Correct,sub_005_day_24_data.csv,1,600,,Button-Switch at home,,,,,,,,,,,,,k
5,24,791,B,70.36443170859224,39.37493398712557,3.518221585429612,0.6185000167476837,B,494.6544999838806,Correct,sub_005_day_24_data.csv,1,600,,Button-Switch at home,,,,,,,,,,,,,d
5,24,792,A,43.928959730844475,58.59266041051048,2.1964479865422235,0.9203713574997062,A,853.5208000103012,Correct,sub_005_day_24_data.csv,1,600,,Button-Switch at home,,,,,,,,,,,,,k
5,24,793,B,78.1982651012171,48.791963070529334,3.909913255060855,0.7664223636829973,B,501.4256999711506,Correct,sub_005_day_24_data.csv,1,600,,Button-Switch at home,,,,,,,,,,,,,d
5,24,794,B,61.90261556277984,45.60939501529268,3.095130778138992,0.7164307015735919,B,819.192299968563,Correct,sub_005_day_24_data.csv,1,600,,Button-Switch at home,,,,,,,,,,,,,d
5,24,795,A,62.71673670812461,75.32621777711967,3.1358368354062303,1.18322146195652,B,469.5896999910474,Incorrect,sub_005_day_24_data.csv,0,600,,Button-Switch at home,,,,,,,,,,,,,d
5,24,796,B,36.95671329945764,12.270391023032316,1.847835664972882,0.1927428514731623,B,654.9483999842778,Correct,sub_005_day_24_data.csv,1,600,,Button-Switch at home,,,,,,,,,,,,,d
5,24,797,B,76.25182692207575,54.04397697157245,3.8125913461037872,0.8489208051233397,B,632.7404999756254,Correct,sub_005_day_24_data.csv,1,600,,Button-Switch at home,,,,,,,,,,,,,d
5,24,798,B,36.68295817142872,26.782452275446992,1.834147908571436,0.4206977765683175,B,771.054299955722,Correct,sub_005_day_24_data.csv,1,600,,Button-Switch at home,,,,,,,,,,,,,d
5,24,799,B,76.95344723334777,57.41806893670068,3.8476723616673887,0.9019209177742558,B,488.6413000058383,Correct,sub_005_day_24_data.csv,1,600,,Button-Switch at home,,,,,,,,,,,,,d
5,24,800,A,35.91477020684109,59.08745081637672,1.795738510342055,0.9281435070203864,B,653.7794999894686,Incorrect,sub_005_day_24_data.csv,0,600,,Button-Switch at home,,,,,,,,,,,,,d
5,24,801,B,52.43075917591574,44.6789696221355,2.6215379587957868,0.701815613674312,A,590.7496999716386,Incorrect,sub_005_day_24_data.csv,0,600,,Button-Switch at home,,,,,,,,,,,,,k
5,24,802,A,54.632482991774495,64.67132971646178,2.731624149588725,1.0158548716755982,A,667.4912999733351,Correct,sub_005_day_24_data.csv,1,600,,Button-Switch at home,,,,,,,,,,,,,k
5,24,803,B,39.414887561754256,25.603333136108656,1.9707443780877127,0.4021762164390554,B,1964.295400015544,Correct,sub_005_day_24_data.csv,1,600,,Button-Switch at home,,,,,,,,,,,,,d
5,24,804,B,37.05572221889336,22.86705423841815,1.8527861109446675,0.3591948480232689,B,468.59890001360327,Correct,sub_005_day_24_data.csv,1,600,,Button-Switch at home,,,,,,,,,,,,,d
5,24,805,B,81.1335749764313,64.17412662095084,4.056678748821565,1.0080448237146018,B,470.08609998738393,Correct,sub_005_day_24_data.csv,1,600,,Button-Switch at home,,,,,,,,,,,,,d
5,24,806,B,60.25481623484142,42.0423551074846,3.012740811742071,0.6603997697264348,B,450.6138999713585,Correct,sub_005_day_24_data.csv,1,600,,Button-Switch at home,,,,,,,,,,,,,d
5,24,807,A,10.115665048607376,33.25403554760766,0.5057832524303688,0.5223531688928902,A,417.479399999138,Correct,sub_005_day_24_data.csv,1,600,,Button-Switch at home,,,,,,,,,,,,,k
5,24,808,B,70.98467202369336,56.341601644954906,3.549233601184668,0.8850118090963648,B,452.65279995510355,Correct,sub_005_day_24_data.csv,1,600,,Button-Switch at home,,,,,,,,,,,,,d
5,24,809,A,23.153932780388807,46.93506555022864,1.1576966390194403,0.7372542856417682,A,494.8025000048802,Correct,sub_005_day_24_data.csv,1,600,,Button-Switch at home,,,,,,,,,,,,,k
5,24,810,B,72.5530278507023,57.52578516605793,3.6276513925351153,0.9036129203483616,B,802.0923000294715,Correct,sub_005_day_24_data.csv,1,600,,Button-Switch at home,,,,,,,,,,,,,d
5,24,811,B,57.370347084487875,38.709029994039646,2.868517354224394,0.6080400212843096,B,435.02319999970496,Correct,sub_005_day_24_data.csv,1,600,,Button-Switch at home,,,,,,,,,,,,,d
5,24,812,A,25.050273834272403,56.00064067100007,1.25251369171362,0.879656006641678,A,455.6106000090949,Correct,sub_005_day_24_data.csv,1,600,,Button-Switch at home,,,,,,,,,,,,,k
5,24,813,B,88.50408186081287,66.71856201486435,4.425204093040644,1.0480127214198642,B,403.4849000163376,Correct,sub_005_day_24_data.csv,1,600,,Button-Switch at home,,,,,,,,,,,,,d
5,24,814,A,33.43614180802138,43.70679994355635,1.6718070904010691,0.6865448080729769,A,900.5696999956854,Correct,sub_005_day_24_data.csv,1,600,,Button-Switch at home,,,,,,,,,,,,,k
5,24,815,B,32.06185398003342,11.324568539181218,1.603092699001671,0.177885906638829,B,631.5480000339448,Correct,sub_005_day_24_data.csv,1,600,,Button-Switch at home,,,,,,,,,,,,,d
5,24,816,B,88.91781139336136,69.08451170566394,4.445890569668069,1.0851769722567597,B,534.4056999892928,Correct,sub_005_day_24_data.csv,1,600,,Button-Switch at home,,,,,,,,,,,,,d
5,24,817,B,40.59957044935645,25.165300007785554,2.0299785224678226,0.3952956081492113,B,541.0294000175782,Correct,sub_005_day_24_data.csv,1,600,,Button-Switch at home,,,,,,,,,,,,,d
5,24,818,B,57.07433159499707,43.94266740053238,2.853716579749854,0.690249805423261,B,544.3685000063851,Correct,sub_005_day_24_data.csv,1,600,,Button-Switch at home,,,,,,,,,,,,,d
5,24,819,A,27.10471826997701,38.09889668172444,1.3552359134988503,0.5984560696259102,A,837.1992000029422,Correct,sub_005_day_24_data.csv,1,600,,Button-Switch at home,,,,,,,,,,,,,k
5,24,820,A,25.12004542847859,56.2322057005609,1.2560022714239296,0.8832934216201609,A,574.4075000402518,Correct,sub_005_day_24_data.csv,1,600,,Button-Switch at home,,,,,,,,,,,,,k
5,24,821,B,36.45190952444915,15.453070132859562,1.8225954762224577,0.2427362580239972,B,633.254999993369,Correct,sub_005_day_24_data.csv,1,600,,Button-Switch at home,,,,,,,,,,,,,d
5,24,822,B,51.78579787651081,21.910709980497295,2.5892898938255406,0.3441726275483343,B,528.6575999925844,Correct,sub_005_day_24_data.csv,1,600,,Button-Switch at home,,,,,,,,,,,,,d
5,24,823,A,44.52747476359981,75.63078931739543,2.22637373817999,1.1880056605236344,A,492.883799946867,Correct,sub_005_day_24_data.csv,1,600,,Button-Switch at home,,,,,,,,,,,,,k
5,24,824,A,66.86176117507854,89.35177455562639,3.343088058753927,1.4035343926458363,A,743.851299979724,Correct,sub_005_day_24_data.csv,1,600,,Button-Switch at home,,,,,,,,,,,,,k
5,24,825,A,34.030252798506226,54.8138650448809,1.701512639925311,0.861014178699301,B,646.0179999703541,Incorrect,sub_005_day_24_data.csv,0,600,,Button-Switch at home,,,,,,,,,,,,,d
5,24,826,A,49.08000258116688,63.68601659627469,2.4540001290583437,1.000377609376271,A,522.5851999712177,Correct,sub_005_day_24_data.csv,1,600,,Button-Switch at home,,,,,,,,,,,,,k
5,24,827,A,55.36756240753867,67.33490069143473,2.7683781203769335,1.057694146712048,A,678.6926999920979,Correct,sub_005_day_24_data.csv,1,600,,Button-Switch at home,,,,,,,,,,,,,k
5,24,828,A,14.705186961072972,43.97621377434652,0.7352593480536486,0.6907767506309065,A,451.1911000008695,Correct,sub_005_day_24_data.csv,1,600,,Button-Switch at home,,,,,,,,,,,,,k
5,24,829,A,11.764023086999718,35.1692010876009,0.5882011543499859,0.5524365188471456,A,436.65609997697175,Correct,sub_005_day_24_data.csv,1,600,,Button-Switch at home,,,,,,,,,,,,,k
5,24,830,A,24.416777383140307,52.74060557844809,1.2208388691570151,0.8284474951556468,A,502.15830001980066,Correct,sub_005_day_24_data.csv,1,600,,Button-Switch at home,,,,,,,,,,,,,k
5,24,831,A,32.97868598961431,46.37878290164903,1.6489342994807157,0.7285162182312825,A,496.0902000311762,Correct,sub_005_day_24_data.csv,1,600,,Button-Switch at home,,,,,,,,,,,,,k
5,24,832,B,59.39748709330862,31.86602631030025,2.969874354665431,0.5005503707776916,B,479.8104999936186,Correct,sub_005_day_24_data.csv,1,600,,Button-Switch at home,,,,,,,,,,,,,d
5,24,833,B,52.71022318899703,42.930788957455675,2.6355111594498517,0.6743552560077828,B,506.05070003075525,Correct,sub_005_day_24_data.csv,1,600,,Button-Switch at home,,,,,,,,,,,,,d
5,24,834,A,64.67642143496111,77.99855023484346,3.233821071748056,1.2251983620421931,A,601.8965000403114,Correct,sub_005_day_24_data.csv,1,600,,Button-Switch at home,,,,,,,,,,,,,k
5,24,835,B,46.49057564889969,23.4444485837424,2.3245287824449847,0.3682645371907437,A,433.7872000178322,Incorrect,sub_005_day_24_data.csv,0,600,,Button-Switch at home,,,,,,,,,,,,,k
5,24,836,A,58.07559682239445,78.74663140085454,2.9037798411197224,1.2369491935193395,A,548.61090000486,Correct,sub_005_day_24_data.csv,1,600,,Button-Switch at home,,,,,,,,,,,,,k
5,24,837,B,74.83581624728522,42.76118496186951,3.741790812364261,0.6716911226750178,B,506.98629999533296,Correct,sub_005_day_24_data.csv,1,600,,Button-Switch at home,,,,,,,,,,,,,d
5,24,838,A,52.13069810288973,78.64245827159864,2.606534905144486,1.2353128458314808,A,455.017400032375,Correct,sub_005_day_24_data.csv,1,600,,Button-Switch at home,,,,,,,,,,,,,k
5,24,839,A,36.68601466267932,46.3690302310602,1.834300733133966,0.7283630236399088,A,704.6645999653265,Correct,sub_005_day_24_data.csv,1,600,,Button-Switch at home,,,,,,,,,,,,,k
5,24,840,B,82.10879511698133,68.63715769228345,4.1054397558490665,1.0781499518468094,B,817.649899981916,Correct,sub_005_day_24_data.csv,1,600,,Button-Switch at home,,,,,,,,,,,,,d
5,24,841,B,67.30632971392002,44.337144563405275,3.365316485696001,0.6964462382077131,B,454.3055000249296,Correct,sub_005_day_24_data.csv,1,600,,Button-Switch at home,,,,,,,,,,,,,d
5,24,842,A,50.043123986206226,67.6377330765231,2.5021561993103116,1.0624510266933618,A,437.6734999823384,Correct,sub_005_day_24_data.csv,1,600,,Button-Switch at home,,,,,,,,,,,,,k
5,24,843,A,26.00641273195842,48.05891949335625,1.300320636597921,0.7549077420989565,A,449.51760000549257,Correct,sub_005_day_24_data.csv,1,600,,Button-Switch at home,,,,,,,,,,,,,k
5,24,844,B,30.826652396750635,14.609189686395684,1.541332619837532,0.2294806149684022,A,538.8956000097096,Incorrect,sub_005_day_24_data.csv,0,600,,Button-Switch at home,,,,,,,,,,,,,k
5,24,845,B,79.74857155848221,50.72743681260227,3.9874285779241103,0.7968247141295586,B,751.036599976942,Correct,sub_005_day_24_data.csv,1,600,,Button-Switch at home,,,,,,,,,,,,,d
5,24,846,A,38.55100984312061,63.33120287960243,1.9275504921560305,0.9948042085478188,A,570.6287000211887,Correct,sub_005_day_24_data.csv,1,600,,Button-Switch at home,,,,,,,,,,,,,k
5,24,847,B,47.721333547172776,33.559534115460984,2.386066677358639,0.5271519291751413,B,553.8149999920279,Correct,sub_005_day_24_data.csv,1,600,,Button-Switch at home,,,,,,,,,,,,,d
5,24,848,A,13.211251754116788,37.81287133064568,0.6605625877058394,0.5939631939174629,A,500.8553999941796,Correct,sub_005_day_24_data.csv,1,600,,Button-Switch at home,,,,,,,,,,,,,k
5,24,849,A,25.99223459465225,37.79280937318826,1.2996117297326122,0.5936480614266385,A,538.9298999798484,Correct,sub_005_day_24_data.csv,1,600,,Button-Switch at home,,,,,,,,,,,,,k
5,24,850,B,69.40848672846258,41.86917351924484,3.4704243364231284,0.6576794396996795,B,390.90469997609034,Correct,sub_005_day_24_data.csv,1,600,,Button-Switch at home,,,,,,,,,,,,,d
5,24,851,A,58.834515017848325,75.6727334700525,2.941725750892416,1.1886645177328772,A,506.1190000269562,Correct,sub_005_day_24_data.csv,1,600,,Button-Switch at home,,,,,,,,,,,,,k
5,24,852,B,66.11050265028291,36.08314708883464,3.3055251325141457,0.5667927490634141,B,483.7584000197239,Correct,sub_005_day_24_data.csv,1,600,,Button-Switch at home,,,,,,,,,,,,,d
5,24,853,A,43.202980497890486,54.4889542599781,2.1601490248945243,0.8559104920246873,A,472.3056000075303,Correct,sub_005_day_24_data.csv,1,600,,Button-Switch at home,,,,,,,,,,,,,k
5,24,854,A,21.131343056813083,47.30378020426443,1.0565671528406542,0.7430460418837171,A,479.3675999972038,Correct,sub_005_day_24_data.csv,1,600,,Button-Switch at home,,,,,,,,,,,,,k
5,24,855,B,58.99731804215645,46.344336842769216,2.949865902107822,0.7279751408036728,B,506.0177000123076,Correct,sub_005_day_24_data.csv,1,600,,Button-Switch at home,,,,,,,,,,,,,d
5,24,856,A,63.54852652292279,75.04732600908198,3.1774263261461395,1.1788406403084508,A,660.7597999973223,Correct,sub_005_day_24_data.csv,1,600,,Button-Switch at home,,,,,,,,,,,,,k
5,24,857,B,62.616707974801294,33.88899062916503,3.130835398740065,0.532327019990791,B,541.515100048855,Correct,sub_005_day_24_data.csv,1,600,,Button-Switch at home,,,,,,,,,,,,,d
5,24,858,A,57.22653145242831,78.17256059086392,2.8613265726214157,1.2279317103228051,A,422.467999975197,Correct,sub_005_day_24_data.csv,1,600,,Button-Switch at home,,,,,,,,,,,,,k
5,24,859,A,49.73327022993228,62.185858139164736,2.486663511496614,0.9768131754358848,A,479.291399999056,Correct,sub_005_day_24_data.csv,1,600,,Button-Switch at home,,,,,,,,,,,,,k
5,24,860,B,83.13541457766163,64.33696491859982,4.156770728883082,1.0106026817126872,B,470.59330000774935,Correct,sub_005_day_24_data.csv,1,600,,Button-Switch at home,,,,,,,,,,,,,d
5,24,861,A,62.55793020018683,86.52812101208454,3.1278965100093417,1.3591805465024671,A,497.68989998847246,Correct,sub_005_day_24_data.csv,1,600,,Button-Switch at home,,,,,,,,,,,,,k
5,24,862,A,28.675380742980437,56.267499172343705,1.433769037149022,0.8838478101785238,A,445.663099992089,Correct,sub_005_day_24_data.csv,1,600,,Button-Switch at home,,,,,,,,,,,,,k
5,24,863,B,86.32497462077707,69.4580897837172,4.316248731038853,1.0910451229845313,B,477.6679999777116,Correct,sub_005_day_24_data.csv,1,600,,Button-Switch at home,,,,,,,,,,,,,d
5,24,864,B,80.4593438645621,63.03467355922058,4.022967193228105,0.9901463368753908,B,595.9599000052549,Correct,sub_005_day_24_data.csv,1,600,,Button-Switch at home,,,,,,,,,,,,,d
5,24,865,B,34.15243331384441,23.005552723561618,1.7076216656922207,0.3613703771405691,B,646.3139999541454,Correct,sub_005_day_24_data.csv,1,600,,Button-Switch at home,,,,,,,,,,,,,d
5,24,866,B,64.17365316727232,43.58452420390624,3.208682658363616,0.6846241052459918,B,491.1644000094384,Correct,sub_005_day_24_data.csv,1,600,,Button-Switch at home,,,,,,,,,,,,,d
5,24,867,B,33.21752992134971,20.068675039203686,1.660876496067485,0.3152380103522157,B,538.8502000132576,Correct,sub_005_day_24_data.csv,1,600,,Button-Switch at home,,,,,,,,,,,,,d
5,24,868,A,37.63372676876568,48.300411248330974,1.8816863384382845,0.7587010857156121,A,529.3519999831915,Correct,sub_005_day_24_data.csv,1,600,,Button-Switch at home,,,,,,,,,,,,,k
5,24,869,A,22.55388806080799,52.65408248514576,1.1276944030403997,0.8270883935842245,A,446.15109998267144,Correct,sub_005_day_24_data.csv,1,600,,Button-Switch at home,,,,,,,,,,,,,k
5,24,870,A,64.22601268372178,76.94969368519477,3.211300634186089,1.208722961886964,A,461.4744000136852,Correct,sub_005_day_24_data.csv,1,600,,Button-Switch at home,,,,,,,,,,,,,k
5,24,871,A,63.00263785731358,75.55422751140347,3.150131892865679,1.186803030487385,A,510.91660000383854,Correct,sub_005_day_24_data.csv,1,600,,Button-Switch at home,,,,,,,,,,,,,k
5,24,872,B,82.08572514178299,61.22793952581653,4.104286257089149,0.9617662250437264,B,536.6503000259399,Correct,sub_005_day_24_data.csv,1,600,,Button-Switch at home,,,,,,,,,,,,,d
5,24,873,B,60.496534023517754,34.59821772439419,3.024826701175888,0.5434675331512848,B,492.6661000354215,Correct,sub_005_day_24_data.csv,1,600,,Button-Switch at home,,,,,,,,,,,,,d
5,24,874,B,72.38901407325264,62.67871663411907,3.619450703662632,0.9845549785709244,B,608.6100999964401,Correct,sub_005_day_24_data.csv,1,600,,Button-Switch at home,,,,,,,,,,,,,d
5,24,875,A,32.75054382729568,49.972075635084906,1.637527191364784,0.784959528499081,A,618.9912999980152,Correct,sub_005_day_24_data.csv,1,600,,Button-Switch at home,,,,,,,,,,,,,k
5,24,876,A,30.836739827631636,49.99796761453106,1.5418369913815817,0.7853662387611557,A,470.6892999820411,Correct,sub_005_day_24_data.csv,1,600,,Button-Switch at home,,,,,,,,,,,,,k
5,24,877,B,69.02498911639114,35.686335522918064,3.451249455819557,0.5605596475616993,B,468.0357000324875,Correct,sub_005_day_24_data.csv,1,600,,Button-Switch at home,,,,,,,,,,,,,d
5,24,878,A,51.31196619332823,71.83850387452739,2.5655983096664112,1.1284365800854856,A,471.2080000317655,Correct,sub_005_day_24_data.csv,1,600,,Button-Switch at home,,,,,,,,,,,,,k
5,24,879,B,71.6306310770913,39.525352045991454,3.5815315538545645,0.6208627780911853,B,439.9851000052877,Correct,sub_005_day_24_data.csv,1,600,,Button-Switch at home,,,,,,,,,,,,,d
5,24,880,B,67.15332156767049,42.085108477768905,3.3576660783835246,0.6610713380964416,B,455.9317999519408,Correct,sub_005_day_24_data.csv,1,600,,Button-Switch at home,,,,,,,,,,,,,d
5,24,881,B,32.89562695185276,18.719701436085582,1.644781347592638,0.2940483825450038,A,451.6652000020258,Incorrect,sub_005_day_24_data.csv,0,600,,Button-Switch at home,,,,,,,,,,,,,k
5,24,882,B,68.3763955023495,47.146844831192496,3.418819775117475,0.7405809068080613,B,566.1627000081353,Correct,sub_005_day_24_data.csv,1,600,,Button-Switch at home,,,,,,,,,,,,,d
5,24,883,B,73.04713966417613,40.43437741702588,3.6523569832088065,0.6351417152290276,B,501.1430000304245,Correct,sub_005_day_24_data.csv,1,600,,Button-Switch at home,,,,,,,,,,,,,d
5,24,884,A,54.48457356083866,67.66384653442958,2.724228678041933,1.0628612159309558,A,583.2794000161812,Correct,sub_005_day_24_data.csv,1,600,,Button-Switch at home,,,,,,,,,,,,,k
5,24,885,B,56.381136901881355,35.12950622087803,2.819056845094068,0.5518129933387367,B,472.9731000261381,Correct,sub_005_day_24_data.csv,1,600,,Button-Switch at home,,,,,,,,,,,,,d
5,24,886,A,42.611433789472585,71.19892701440678,2.130571689473629,1.118390130259681,A,491.0382000380196,Correct,sub_005_day_24_data.csv,1,600,,Button-Switch at home,,,,,,,,,,,,,k
5,24,887,A,24.257041484006955,49.8679403592458,1.2128520742003477,0.7833237754113027,A,469.2812000284903,Correct,sub_005_day_24_data.csv,1,600,,Button-Switch at home,,,,,,,,,,,,,k
5,24,888,A,46.85575452570048,59.619467603660766,2.342787726285024,0.9365004071729768,A,537.4361999565735,Correct,sub_005_day_24_data.csv,1,600,,Button-Switch at home,,,,,,,,,,,,,k
5,24,889,B,46.81641554051251,20.490027224198208,2.3408207770256255,0.3218565949969797,B,617.883900005836,Correct,sub_005_day_24_data.csv,1,600,,Button-Switch at home,,,,,,,,,,,,,d
5,24,890,A,20.780862660046793,41.305808363464166,1.0390431330023395,0.6488301205262342,A,439.1944000381045,Correct,sub_005_day_24_data.csv,1,600,,Button-Switch at home,,,,,,,,,,,,,k
5,24,891,B,82.6029568312999,64.67359949744662,4.1301478415649955,1.015890525311934,B,545.8488999865949,Correct,sub_005_day_24_data.csv,1,600,,Button-Switch at home,,,,,,,,,,,,,d
5,24,892,A,27.642792254797335,51.73861545754664,1.3821396127398669,0.8127082711416792,A,487.3010999872349,Correct,sub_005_day_24_data.csv,1,600,,Button-Switch at home,,,,,,,,,,,,,k
5,24,893,A,52.93192188404535,60.1222631387594,2.6465960942022675,0.9443983009695948,A,545.193099998869,Correct,sub_005_day_24_data.csv,1,600,,Button-Switch at home,,,,,,,,,,,,,k
5,24,894,A,24.349805060687313,50.2738340297942,1.2174902530343656,0.78969953827897,A,635.7218000339344,Correct,sub_005_day_24_data.csv,1,600,,Button-Switch at home,,,,,,,,,,,,,k
5,24,895,A,32.67154323971354,64.61681878703973,1.6335771619856772,1.0149986159985347,A,437.2789000044577,Correct,sub_005_day_24_data.csv,1,600,,Button-Switch at home,,,,,,,,,,,,,k
5,24,896,B,59.417648641475004,37.41777007317935,2.97088243207375,0.5877569578780613,B,620.355999970343,Correct,sub_005_day_24_data.csv,1,600,,Button-Switch at home,,,,,,,,,,,,,d
5,24,897,A,25.99125793106359,42.65171045871975,1.2995628965531796,0.6699715012007645,A,494.0286999917589,Correct,sub_005_day_24_data.csv,1,600,,Button-Switch at home,,,,,,,,,,,,,k
5,24,898,A,56.04888503644018,80.50117905603608,2.8024442518220094,1.2645095636387973,A,614.6174999885261,Correct,sub_005_day_24_data.csv,1,600,,Button-Switch at home,,,,,,,,,,,,,k
5,24,899,B,41.23917347543274,19.163539225849213,2.0619586737716373,0.3010201702435386,B,1119.9387999949977,Correct,sub_005_day_24_data.csv,1,600,,Button-Switch at home,,,,,,,,,,,,,d
5,24,900,B,51.5773024671936,28.188335391702772,2.57886512335968,0.4427813369174929,B,631.8504000082612,Correct,sub_005_day_24_data.csv,1,600,,Button-Switch at home,,,,,,,,,,,,,d
5,24,901,A,48.95583437552902,64.85126934263563,2.4477917187764513,1.0186813567139854,A,624.8987999861129,Correct,sub_005_day_24_data.csv,1,600,,Button-Switch at home,,,,,,,,,,,,,k
5,24,902,A,29.333770345974933,62.159390673331714,1.4666885172987465,0.9763974254547844,A,508.03710002219304,Correct,sub_005_day_24_data.csv,1,600,,Button-Switch at home,,,,,,,,,,,,,k
5,24,903,A,47.53160998918238,76.28224379814249,2.376580499459119,1.1982386835779502,A,504.85159998061135,Correct,sub_005_day_24_data.csv,1,600,,Button-Switch at home,,,,,,,,,,,,,k
5,24,904,A,28.146146381692667,59.06265184264209,1.4073073190846332,0.9277539656518802,A,527.5778999784961,Correct,sub_005_day_24_data.csv,1,600,,Button-Switch at home,,,,,,,,,,,,,k
5,24,905,A,31.973349721590203,41.7586057498993,1.5986674860795105,0.6559426452401808,A,449.8028000234626,Correct,sub_005_day_24_data.csv,1,600,,Button-Switch at home,,,,,,,,,,,,,k
5,24,906,B,75.54221053863118,58.15259847390068,3.7771105269315592,0.9134588807638168,B,656.8196000298485,Correct,sub_005_day_24_data.csv,1,600,,Button-Switch at home,,,,,,,,,,,,,d
5,24,907,B,53.77263764473868,27.40471299125374,2.6886318822369337,0.4304722250352976,B,592.7751999697648,Correct,sub_005_day_24_data.csv,1,600,,Button-Switch at home,,,,,,,,,,,,,d
5,24,908,A,68.10424234739403,82.51070031230468,3.4052121173697016,1.296075049718427,A,893.9789999858476,Correct,sub_005_day_24_data.csv,1,600,,Button-Switch at home,,,,,,,,,,,,,k
5,24,909,A,30.46434110996009,61.08996904345651,1.5232170554980045,0.9595989897747544,A,435.3198999888264,Correct,sub_005_day_24_data.csv,1,600,,Button-Switch at home,,,,,,,,,,,,,k
5,24,910,B,39.640780376041626,22.3958770928257,1.982039018802081,0.3517936147276057,B,472.50350000103936,Correct,sub_005_day_24_data.csv,1,600,,Button-Switch at home,,,,,,,,,,,,,d
5,24,911,B,38.494397006126405,12.456460242822391,1.9247198503063203,0.1956656199429207,B,685.9541999874637,Correct,sub_005_day_24_data.csv,1,600,,Button-Switch at home,,,,,,,,,,,,,d
5,24,912,A,38.21588577874854,58.0116083497516,1.9107942889374272,0.9112442130725396,A,424.08620001515374,Correct,sub_005_day_24_data.csv,1,600,,Button-Switch at home,,,,,,,,,,,,,k
5,24,913,B,61.50050011600415,45.30350911477761,3.0750250058002075,0.711625857084118,B,450.7432999671437,Correct,sub_005_day_24_data.csv,1,600,,Button-Switch at home,,,,,,,,,,,,,d
5,24,914,A,19.090623205398284,40.72608563861323,0.9545311602699142,0.6397238572586805,A,421.6606999980286,Correct,sub_005_day_24_data.csv,1,600,,Button-Switch at home,,,,,,,,,,,,,k
5,24,915,A,64.74392586035535,87.70936487254174,3.237196293017768,1.377735481673019,A,854.521399945952,Correct,sub_005_day_24_data.csv,1,600,,Button-Switch at home,,,,,,,,,,,,,k
5,24,916,B,35.6227303517781,23.48964759801991,1.7811365175889051,0.3689745216467623,B,697.4676999961957,Correct,sub_005_day_24_data.csv,1,600,,Button-Switch at home,,,,,,,,,,,,,d
5,24,917,B,73.71921409068841,41.071228201157474,3.6859607045344207,0.6451453439533312,B,591.5667000226676,Correct,sub_005_day_24_data.csv,1,600,,Button-Switch at home,,,,,,,,,,,,,d
5,24,918,A,13.171910068778017,33.82226874160837,0.6585955034389008,0.5312789550318827,A,555.1772000035271,Correct,sub_005_day_24_data.csv,1,600,,Button-Switch at home,,,,,,,,,,,,,k
5,24,919,A,62.59445185872418,86.80968995529084,3.1297225929362087,1.3636034211197468,A,853.0092000146396,Correct,sub_005_day_24_data.csv,1,600,,Button-Switch at home,,,,,,,,,,,,,k
5,24,920,B,43.5206147804394,34.680299145364835,2.17603073902197,0.5447568650968727,B,467.207600013353,Correct,sub_005_day_24_data.csv,1,600,,Button-Switch at home,,,,,,,,,,,,,d
5,24,921,B,79.24956781423894,63.94237175431627,3.962478390711947,1.0044044267823375,B,529.0442999685183,Correct,sub_005_day_24_data.csv,1,600,,Button-Switch at home,,,,,,,,,,,,,d
5,24,922,B,56.60591011323908,34.11502423194898,2.8302955056619536,0.5358775475206434,B,468.40490004979074,Correct,sub_005_day_24_data.csv,1,600,,Button-Switch at home,,,,,,,,,,,,,d
5,24,923,B,42.757107577302506,22.459833922835475,2.1378553788651256,0.3527982462641338,B,638.9605000149459,Correct,sub_005_day_24_data.csv,1,600,,Button-Switch at home,,,,,,,,,,,,,d
5,24,924,B,41.70240458243987,31.719128358312695,2.0851202291219932,0.4982429031437341,B,545.2305999933742,Correct,sub_005_day_24_data.csv,1,600,,Button-Switch at home,,,,,,,,,,,,,d
5,24,925,B,60.184957370472006,40.44661700182786,3.0092478685236004,0.6353339741775121,B,522.0064999884926,Correct,sub_005_day_24_data.csv,1,600,,Button-Switch at home,,,,,,,,,,,,,d
5,24,926,B,59.49601556288402,26.82151968381748,2.974800778144201,0.421311445983975,B,393.30200001131743,Correct,sub_005_day_24_data.csv,1,600,,Button-Switch at home,,,,,,,,,,,,,d
5,24,927,B,80.82920405617136,55.37562213180593,4.041460202808568,0.8698382383862294,B,498.8675999920815,Correct,sub_005_day_24_data.csv,1,600,,Button-Switch at home,,,,,,,,,,,,,d
5,24,928,A,16.128301036074063,38.60548798959072,0.8064150518037032,0.606413587281736,A,492.38459998741746,Correct,sub_005_day_24_data.csv,1,600,,Button-Switch at home,,,,,,,,,,,,,k
5,24,929,A,39.062375013231474,56.98214995839302,1.9531187506615737,0.8950735184751972,A,566.8353999499232,Correct,sub_005_day_24_data.csv,1,600,,Button-Switch at home,,,,,,,,,,,,,k
5,24,930,A,36.17100103717667,43.59213497515294,1.8085500518588336,0.6847436549611756,B,1054.5074000256136,Incorrect,sub_005_day_24_data.csv,0,600,,Button-Switch at home,,,,,,,,,,,,,d
5,24,931,B,31.968305403160127,15.810096067896035,1.5984152701580063,0.2483444082972553,A,519.8114999802783,Incorrect,sub_005_day_24_data.csv,0,600,,Button-Switch at home,,,,,,,,,,,,,k
5,24,932,A,37.805538629078505,47.57578699093154,1.8902769314539256,0.7473187144973169,A,544.6472000330687,Correct,sub_005_day_24_data.csv,1,600,,Button-Switch at home,,,,,,,,,,,,,k
5,24,933,A,50.69395550216865,73.66669203438383,2.5346977751084325,1.15715369254741,A,529.5806000358425,Correct,sub_005_day_24_data.csv,1,600,,Button-Switch at home,,,,,,,,,,,,,k
5,24,934,A,33.50630117503767,44.399966970525696,1.6753150587518837,0.697433050271165,A,712.4123999965377,Correct,sub_005_day_24_data.csv,1,600,,Button-Switch at home,,,,,,,,,,,,,k
5,24,935,A,59.10297659484534,70.18493368440807,2.955148829742267,1.1024623602781158,A,678.5772999865003,Correct,sub_005_day_24_data.csv,1,600,,Button-Switch at home,,,,,,,,,,,,,k
5,24,936,A,53.22278095334578,73.97919510352789,2.661139047667289,1.162062479278646,B,697.9951999965124,Incorrect,sub_005_day_24_data.csv,0,600,,Button-Switch at home,,,,,,,,,,,,,d
5,24,937,A,55.03748865792987,73.01379316619229,2.7518744328964937,1.1468979811081716,A,595.353500044439,Correct,sub_005_day_24_data.csv,1,600,,Button-Switch at home,,,,,,,,,,,,,k
5,24,938,A,24.893509142617013,40.60836612209857,1.2446754571308505,0.6378747234173476,A,472.2042000503279,Correct,sub_005_day_24_data.csv,1,600,,Button-Switch at home,,,,,,,,,,,,,k
5,24,939,A,29.86568695967699,62.09218176334969,1.4932843479838491,0.9753417103655077,A,479.7060000128113,Correct,sub_005_day_24_data.csv,1,600,,Button-Switch at home,,,,,,,,,,,,,k
5,24,940,A,60.84753681486807,79.17957682348518,3.0423768407434033,1.2437498843150483,A,754.5296999742277,Correct,sub_005_day_24_data.csv,1,600,,Button-Switch at home,,,,,,,,,,,,,k
5,24,941,B,43.21376144177401,22.412573627829428,2.1606880720887007,0.3520558832861463,B,585.6801000190899,Correct,sub_005_day_24_data.csv,1,600,,Button-Switch at home,,,,,,,,,,,,,d
5,24,942,A,61.04653896226335,84.24384861481923,3.0523269481131674,1.3232992795922338,A,926.10030004289,Correct,sub_005_day_24_data.csv,1,600,,Button-Switch at home,,,,,,,,,,,,,k
5,24,943,B,43.25668909150042,22.201824398011365,2.162834454575021,0.3487454421254157,B,528.2995000015944,Correct,sub_005_day_24_data.csv,1,600,,Button-Switch at home,,,,,,,,,,,,,d
5,24,944,A,13.228887893427007,31.72768427521715,0.6614443946713504,0.4983772991721929,A,1554.6243999851868,Correct,sub_005_day_24_data.csv,1,600,,Button-Switch at home,,,,,,,,,,,,,k
5,24,945,B,41.337019379530965,29.683497539358832,2.0668509689765484,0.4662672890125021,A,532.0627999608405,Incorrect,sub_005_day_24_data.csv,0,600,,Button-Switch at home,,,,,,,,,,,,,k
5,24,946,B,61.174723995803646,40.595303902978365,3.0587361997901827,0.6376695425592094,A,550.8170999819413,Incorrect,sub_005_day_24_data.csv,0,600,,Button-Switch at home,,,,,,,,,,,,,k
5,24,947,B,67.48159948023675,35.085237557323396,3.3740799740118375,0.5511176227976994,A,612.0032999897376,Incorrect,sub_005_day_24_data.csv,0,600,,Button-Switch at home,,,,,,,,,,,,,k
5,24,948,B,61.58653634831279,35.245821868809045,3.0793268174156396,0.5536400752639248,B,1196.5557999792509,Correct,sub_005_day_24_data.csv,1,600,,Button-Switch at home,,,,,,,,,,,,,d
5,24,949,B,38.63847941398444,29.457004523926894,1.9319239706992224,0.4627095450456502,B,838.6549999704584,Correct,sub_005_day_24_data.csv,1,600,,Button-Switch at home,,,,,,,,,,,,,d
5,24,950,B,66.21781776155701,36.981245638985556,3.3108908880778505,0.580900048100183,B,498.1544999754988,Correct,sub_005_day_24_data.csv,1,600,,Button-Switch at home,,,,,,,,,,,,,d
5,24,951,B,59.61539384970151,30.9512070665914,2.9807696924850755,0.4861804237007001,B,701.7389999818988,Correct,sub_005_day_24_data.csv,1,600,,Button-Switch at home,,,,,,,,,,,,,d
5,24,952,A,15.710356333690136,35.822077153503656,0.7855178166845067,0.5626918721088693,A,753.9319000206888,Correct,sub_005_day_24_data.csv,1,600,,Button-Switch at home,,,,,,,,,,,,,k
5,24,953,B,70.58983029027301,55.99749646032261,3.529491514513651,0.8796066174958499,B,489.4281000015326,Correct,sub_005_day_24_data.csv,1,600,,Button-Switch at home,,,,,,,,,,,,,d
5,24,954,A,28.962642895434783,39.7372377989665,1.4481321447717392,0.6241910717159189,A,486.6585999843665,Correct,sub_005_day_24_data.csv,1,600,,Button-Switch at home,,,,,,,,,,,,,k
5,24,955,A,57.76785427376147,73.75771561564042,2.8883927136880736,1.1585834876183054,A,436.53060001088306,Correct,sub_005_day_24_data.csv,1,600,,Button-Switch at home,,,,,,,,,,,,,k
5,24,956,B,55.30881335223125,37.50258014331737,2.7654406676115624,0.5890891513445415,B,583.6375000071712,Correct,sub_005_day_24_data.csv,1,600,,Button-Switch at home,,,,,,,,,,,,,d
5,24,957,A,65.72216187383412,81.64945367013496,3.2861080936917064,1.2825466190985808,A,556.1414000112563,Correct,sub_005_day_24_data.csv,1,600,,Button-Switch at home,,,,,,,,,,,,,k
5,24,958,B,63.40266463215294,40.12353720973099,3.1701332316076467,0.630259048670638,B,485.3299999958835,Correct,sub_005_day_24_data.csv,1,600,,Button-Switch at home,,,,,,,,,,,,,d
5,24,959,A,11.721544568142768,30.853780102993092,0.5860772284071384,0.4846500445351901,A,454.9830000032671,Correct,sub_005_day_24_data.csv,1,600,,Button-Switch at home,,,,,,,,,,,,,k
5,24,960,B,41.05861811259776,28.367664351272264,2.052930905629887,0.44559822962729,B,556.462999957148,Correct,sub_005_day_24_data.csv,1,600,,Button-Switch at home,,,,,,,,,,,,,d
5,24,961,A,22.32724941440905,34.96082563353068,1.1163624707204522,0.5491633648686686,A,817.4545000074431,Correct,sub_005_day_24_data.csv,1,600,,Button-Switch at home,,,,,,,,,,,,,k
5,24,962,B,65.30388127734273,55.166496695551274,3.265194063867136,0.8665533037151475,B,488.79370000213385,Correct,sub_005_day_24_data.csv,1,600,,Button-Switch at home,,,,,,,,,,,,,d
5,24,963,A,29.412811812867595,49.40798361938363,1.47064059064338,0.7760987918367023,A,408.2024000235833,Correct,sub_005_day_24_data.csv,1,600,,Button-Switch at home,,,,,,,,,,,,,k
5,24,964,B,54.10407609459429,39.056300289437075,2.705203804729714,0.613494930328462,B,594.6607000078075,Correct,sub_005_day_24_data.csv,1,600,,Button-Switch at home,,,,,,,,,,,,,d
5,24,965,B,45.31465259730678,20.311899944009987,2.265732629865339,0.3190585782227634,B,489.69459999352694,Correct,sub_005_day_24_data.csv,1,600,,Button-Switch at home,,,,,,,,,,,,,d
5,24,966,A,30.728028501615583,52.097636796133536,1.5364014250807794,0.818347765140612,A,475.5167000112124,Correct,sub_005_day_24_data.csv,1,600,,Button-Switch at home,,,,,,,,,,,,,k
5,24,967,A,44.29490251982872,68.01408796457241,2.214745125991436,1.0683627954505532,A,667.9448999930173,Correct,sub_005_day_24_data.csv,1,600,,Button-Switch at home,,,,,,,,,,,,,k
5,24,968,B,61.85164337462787,45.686604969297285,3.0925821687313935,0.7176435126950165,B,561.4664999884553,Correct,sub_005_day_24_data.csv,1,600,,Button-Switch at home,,,,,,,,,,,,,d
5,24,969,B,50.1357314731837,24.148896583335407,2.506786573659185,0.3793299804925309,B,604.8381999717094,Correct,sub_005_day_24_data.csv,1,600,,Button-Switch at home,,,,,,,,,,,,,d
5,24,970,B,88.02974249882475,68.361164992115,4.401487124941237,1.0738146686503411,B,949.594099947717,Correct,sub_005_day_24_data.csv,1,600,,Button-Switch at home,,,,,,,,,,,,,d
5,24,971,A,45.36861431437635,72.68342310287188,2.2684307157188175,1.1417085402887048,B,492.1689000329934,Incorrect,sub_005_day_24_data.csv,0,600,,Button-Switch at home,,,,,,,,,,,,,d
5,24,972,B,59.33531296063469,51.82906356278656,2.9667656480317346,0.8141290266564435,B,627.0696999854408,Correct,sub_005_day_24_data.csv,1,600,,Button-Switch at home,,,,,,,,,,,,,d
5,24,973,A,51.31791352143867,67.396888920074,2.565895676071934,1.058667855530559,A,618.8898999826051,Correct,sub_005_day_24_data.csv,1,600,,Button-Switch at home,,,,,,,,,,,,,k
5,24,974,A,20.18836036846561,37.746495541361696,1.0094180184232804,0.5929205654575088,A,754.20889997622,Correct,sub_005_day_24_data.csv,1,600,,Button-Switch at home,,,,,,,,,,,,,k
5,24,975,A,14.966963628664455,40.89578377839608,0.7483481814332228,0.6423894694050287,A,558.2596000167541,Correct,sub_005_day_24_data.csv,1,600,,Button-Switch at home,,,,,,,,,,,,,k
5,24,976,A,44.71158841171074,57.62307721462915,2.235579420585537,0.9051411802735816,A,1088.0145000410266,Correct,sub_005_day_24_data.csv,1,600,,Button-Switch at home,,,,,,,,,,,,,k
5,24,977,A,45.75403332114287,58.00916829718204,2.287701666057143,0.9112058848164052,B,653.3540000091307,Incorrect,sub_005_day_24_data.csv,0,600,,Button-Switch at home,,,,,,,,,,,,,d
5,24,978,B,66.93361296599983,35.978299955815764,3.3466806482999916,0.5651458141492038,B,889.6653999690898,Correct,sub_005_day_24_data.csv,1,600,,Button-Switch at home,,,,,,,,,,,,,d
5,24,979,A,59.48052357524921,82.48402825479131,2.97402617876246,1.2956560860187265,A,753.1482999911532,Correct,sub_005_day_24_data.csv,1,600,,Button-Switch at home,,,,,,,,,,,,,k
5,24,980,B,50.81494804402091,42.58437976583201,2.540747402201046,0.6689138731500784,B,1243.8640000182204,Correct,sub_005_day_24_data.csv,1,600,,Button-Switch at home,,,,,,,,,,,,,d
5,24,981,A,34.79664375393937,57.590149337902815,1.739832187696969,0.9046239503954728,A,657.8190000145696,Correct,sub_005_day_24_data.csv,1,600,,Button-Switch at home,,,,,,,,,,,,,k
5,24,982,A,17.95897529904607,35.69943742982811,0.8979487649523036,0.5607654518341824,A,450.94710000557825,Correct,sub_005_day_24_data.csv,1,600,,Button-Switch at home,,,,,,,,,,,,,k
5,24,983,B,74.13668266002298,55.362175250219025,3.7068341330011494,0.8696270152641937,B,585.7969999779016,Correct,sub_005_day_24_data.csv,1,600,,Button-Switch at home,,,,,,,,,,,,,d
5,24,984,A,21.982785995479983,52.68541297424442,1.0991392997739993,0.8275805317561533,A,451.7010999843478,Correct,sub_005_day_24_data.csv,1,600,,Button-Switch at home,,,,,,,,,,,,,k
5,24,985,A,44.55557143590059,68.82809894723188,2.22777857179503,1.081149250065875,A,580.5812000180595,Correct,sub_005_day_24_data.csv,1,600,,Button-Switch at home,,,,,,,,,,,,,k
5,24,986,B,49.413097475108,21.59120551389728,2.4706548737554,0.3391538631230357,B,474.9456999707036,Correct,sub_005_day_24_data.csv,1,600,,Button-Switch at home,,,,,,,,,,,,,d
5,24,987,B,39.459655667715666,16.695972773975246,1.9729827833857831,0.2622597270562791,B,664.3909999984317,Correct,sub_005_day_24_data.csv,1,600,,Button-Switch at home,,,,,,,,,,,,,d
5,24,988,B,58.94181367147464,42.264240284315775,2.947090683573732,0.6638851339338012,B,551.0480999946594,Correct,sub_005_day_24_data.csv,1,600,,Button-Switch at home,,,,,,,,,,,,,d
5,24,989,B,78.72027894395256,59.91561479094333,3.936013947197628,0.9411522763127176,B,504.1362000047229,Correct,sub_005_day_24_data.csv,1,600,,Button-Switch at home,,,,,,,,,,,,,d
5,24,990,A,53.86765859409393,77.22637653041807,2.6933829297046965,1.213069085856603,A,628.4365999745205,Correct,sub_005_day_24_data.csv,1,600,,Button-Switch at home,,,,,,,,,,,,,k
5,24,991,A,53.16437308811041,83.18913678801087,2.6582186544055206,1.306731904958457,A,479.7470000339672,Correct,sub_005_day_24_data.csv,1,600,,Button-Switch at home,,,,,,,,,,,,,k
5,24,992,A,32.7949636117786,55.74564513768158,1.63974818058893,0.8756505461708202,A,472.818800015375,Correct,sub_005_day_24_data.csv,1,600,,Button-Switch at home,,,,,,,,,,,,,k
5,24,993,B,62.83956558485156,34.193586680492494,3.141978279242578,0.5371116035766051,B,562.8531000111252,Correct,sub_005_day_24_data.csv,1,600,,Button-Switch at home,,,,,,,,,,,,,d
5,24,994,B,75.55269470153414,51.25239151978243,3.777634735076707,0.8050706833872815,B,668.8275000196882,Correct,sub_005_day_24_data.csv,1,600,,Button-Switch at home,,,,,,,,,,,,,d
5,24,995,B,52.72052865824216,38.35825616920735,2.636026432912108,0.6025300789284859,B,522.8184000006877,Correct,sub_005_day_24_data.csv,1,600,,Button-Switch at home,,,,,,,,,,,,,d
5,24,996,B,66.2113354515748,37.23226503553671,3.31056677257874,0.5848430515607513,B,579.712400038261,Correct,sub_005_day_24_data.csv,1,600,,Button-Switch at home,,,,,,,,,,,,,d
5,24,997,A,16.771064702524438,35.085756797835316,0.8385532351262219,0.551125779008588,A,770.3218000242487,Correct,sub_005_day_24_data.csv,1,600,,Button-Switch at home,,,,,,,,,,,,,k
5,24,998,B,37.88847939709687,14.189790108954856,1.8944239698548435,0.2228927018113684,B,534.6201000502333,Correct,sub_005_day_24_data.csv,1,600,,Button-Switch at home,,,,,,,,,,,,,d
5,24,999,A,22.50789085754951,34.06139814995059,1.1253945428774754,0.5350351909944088,A,459.07400001306087,Correct,sub_005_day_24_data.csv,1,600,,Button-Switch at home,,,,,,,,,,,,,k
5,24,1000,B,66.6359208409345,40.57290082470615,3.331796042046725,0.6373176358286206,B,428.4893000149168,Correct,sub_005_day_24_data.csv,1,600,,Button-Switch at home,,,,,,,,,,,,,d
5,24,1001,A,44.762449281216504,76.92899576743062,2.238122464060825,1.2083978397550017,A,433.5832000360824,Correct,sub_005_day_24_data.csv,1,600,,Button-Switch at home,,,,,,,,,,,,,k
5,24,1002,B,78.83155257859423,62.53265222565081,3.941577628929711,0.98226060420795,B,527.0144999958575,Correct,sub_005_day_24_data.csv,1,600,,Button-Switch at home,,,,,,,,,,,,,d
5,24,1003,A,22.40328890303206,34.61200942114178,1.120164445151603,0.5436841726171986,A,506.5319999703206,Correct,sub_005_day_24_data.csv,1,600,,Button-Switch at home,,,,,,,,,,,,,k
5,24,1004,A,26.39905473030429,43.73659783327844,1.3199527365152142,0.6870128722301939,A,529.6773000154644,Correct,sub_005_day_24_data.csv,1,600,,Button-Switch at home,,,,,,,,,,,,,k
5,24,1005,A,36.03659965678395,67.41562282129192,1.8018299828391977,1.0589621269627556,A,505.72950002970174,Correct,sub_005_day_24_data.csv,1,600,,Button-Switch at home,,,,,,,,,,,,,k
5,24,1006,B,67.8464272599488,57.49253207274235,3.3923213629974396,0.9030905819800148,A,799.9644000083208,Incorrect,sub_005_day_24_data.csv,0,600,,Button-Switch at home,,,,,,,,,,,,,k
5,24,1007,A,15.385627273329607,39.59382594504916,0.7692813636664804,0.621938363582397,A,472.9001999949105,Correct,sub_005_day_24_data.csv,1,600,,Button-Switch at home,,,,,,,,,,,,,k
5,24,1008,B,89.20741652085225,65.39644269374153,4.460370826042612,1.0272449196878215,B,569.0819000010379,Correct,sub_005_day_24_data.csv,1,600,,Button-Switch at home,,,,,,,,,,,,,d
5,24,1009,B,51.8883700211354,32.69102224546893,2.5944185010567704,0.5135093766235284,B,609.2398000182584,Correct,sub_005_day_24_data.csv,1,600,,Button-Switch at home,,,,,,,,,,,,,d
5,24,1010,B,81.55901151235355,50.73692142671435,4.0779505756176775,0.7969736980996419,B,1102.2242999752052,Correct,sub_005_day_24_data.csv,1,600,,Button-Switch at home,,,,,,,,,,,,,d
5,24,1011,B,58.18044951129949,37.89781570727857,2.9090224755649747,0.595297497065431,B,682.5867000152357,Correct,sub_005_day_24_data.csv,1,600,,Button-Switch at home,,,,,,,,,,,,,d
5,24,1012,B,33.92067668819958,14.490233070686587,1.696033834409979,0.2276120488183643,B,752.8636999777518,Correct,sub_005_day_24_data.csv,1,600,,Button-Switch at home,,,,,,,,,,,,,d
5,24,1013,B,71.25553179663538,50.86763721465939,3.562776589831769,0.7990269768952237,B,470.63939995132387,Correct,sub_005_day_24_data.csv,1,600,,Button-Switch at home,,,,,,,,,,,,,d
5,24,1014,A,52.474754403244624,77.10852408084871,2.6237377201622314,1.2112178639077298,A,407.106600003317,Correct,sub_005_day_24_data.csv,1,600,,Button-Switch at home,,,,,,,,,,,,,k
5,24,1015,B,43.64814660590544,28.950045124442596,2.1824073302952716,0.4547462454202093,B,460.8043999760412,Correct,sub_005_day_24_data.csv,1,600,,Button-Switch at home,,,,,,,,,,,,,d
5,24,1016,B,49.316170809213595,34.65705080723358,2.46580854046068,0.5443916810554661,B,740.9324999898672,Correct,sub_005_day_24_data.csv,1,600,,Button-Switch at home,,,,,,,,,,,,,d
5,24,1017,A,19.32766104851428,40.00200407711071,0.966383052425714,0.6283500106875999,A,414.4374000024982,Correct,sub_005_day_24_data.csv,1,600,,Button-Switch at home,,,,,,,,,,,,,k
5,24,1018,B,36.44518400757137,17.309631246783706,1.8222592003785685,0.2718990518062201,B,691.0218999837525,Correct,sub_005_day_24_data.csv,1,600,,Button-Switch at home,,,,,,,,,,,,,d
5,24,1019,B,69.05963682594174,40.178440836538286,3.452981841297087,0.6311214728238042,B,669.9149000342004,Correct,sub_005_day_24_data.csv,1,600,,Button-Switch at home,,,,,,,,,,,,,d
5,24,1020,A,36.95261173165018,50.538367536051126,1.847630586582509,0.7938548208783957,A,592.1728000394069,Correct,sub_005_day_24_data.csv,1,600,,Button-Switch at home,,,,,,,,,,,,,k
5,24,1021,A,50.67839866734932,78.36795198672387,2.533919933367466,1.2310009111918463,A,629.1960999951698,Correct,sub_005_day_24_data.csv,1,600,,Button-Switch at home,,,,,,,,,,,,,k
5,24,1022,B,78.43261659432787,51.84551373912505,3.9216308297163938,0.8143874254221198,B,480.1783000002615,Correct,sub_005_day_24_data.csv,1,600,,Button-Switch at home,,,,,,,,,,,,,d
5,24,1023,A,44.173970302026895,53.9533680096159,2.2086985151013447,0.8474975228771794,A,588.8232000288554,Correct,sub_005_day_24_data.csv,1,600,,Button-Switch at home,,,,,,,,,,,,,k
5,24,1024,B,49.737875038859165,25.14867134567818,2.4868937519429584,0.3950344057356335,B,606.9120999891311,Correct,sub_005_day_24_data.csv,1,600,,Button-Switch at home,,,,,,,,,,,,,d
5,24,1025,B,75.40691664359665,51.9061841461537,3.770345832179832,0.8153404339471773,B,481.5128999762237,Correct,sub_005_day_24_data.csv,1,600,,Button-Switch at home,,,,,,,,,,,,,d
5,24,1026,B,40.00482826870832,23.80760439878491,2.000241413435416,0.3739689753939736,B,708.6979000014253,Correct,sub_005_day_24_data.csv,1,600,,Button-Switch at home,,,,,,,,,,,,,d
5,24,1027,B,86.51173531249813,57.81834014275,4.325586765624906,0.9082083631760964,B,418.35559997707605,Correct,sub_005_day_24_data.csv,1,600,,Button-Switch at home,,,,,,,,,,,,,d
5,24,1028,B,80.93848481030444,56.310924154572305,4.046924240515222,0.884529928204282,B,454.95339995250106,Correct,sub_005_day_24_data.csv,1,600,,Button-Switch at home,,,,,,,,,,,,,d
5,24,1029,A,56.59901942031203,66.16296698543903,2.829950971015602,1.0392854551057962,A,569.4103999994695,Correct,sub_005_day_24_data.csv,1,600,,Button-Switch at home,,,,,,,,,,,,,k
5,24,1030,B,32.82107617082462,13.313806685547071,1.641053808541231,0.2091327863731467,B,642.439600022044,Correct,sub_005_day_24_data.csv,1,600,,Button-Switch at home,,,,,,,,,,,,,d
5,24,1031,A,39.86735996779524,55.03680050082823,1.993367998389762,0.864516040652445,A,489.39030000474304,Correct,sub_005_day_24_data.csv,1,600,,Button-Switch at home,,,,,,,,,,,,,k
5,24,1032,A,60.106708666386446,69.69647427582244,3.0053354333193223,1.094789657830169,A,618.2225999655202,Correct,sub_005_day_24_data.csv,1,600,,Button-Switch at home,,,,,,,,,,,,,k
5,24,1033,B,50.8639531759911,23.38909844176804,2.543197658799555,0.3673950991937347,A,486.39950004871935,Incorrect,sub_005_day_24_data.csv,0,600,,Button-Switch at home,,,,,,,,,,,,,k
5,24,1034,A,68.7036140724246,87.17443102326102,3.43518070362123,1.369332760417735,A,670.8557999809273,Correct,sub_005_day_24_data.csv,1,600,,Button-Switch at home,,,,,,,,,,,,,k
5,24,1035,B,37.67592137445059,17.425163707164383,1.8837960687225297,0.2737138314501355,B,596.5801000129431,Correct,sub_005_day_24_data.csv,1,600,,Button-Switch at home,,,,,,,,,,,,,d
5,24,1036,A,60.49169213860465,87.20734559902023,3.0245846069302327,1.3698497813647406,A,765.0973999989219,Correct,sub_005_day_24_data.csv,1,600,,Button-Switch at home,,,,,,,,,,,,,k
5,24,1037,A,67.8372862234436,81.20470411924444,3.3918643111721796,1.2755605094897555,A,556.381699978374,Correct,sub_005_day_24_data.csv,1,600,,Button-Switch at home,,,,,,,,,,,,,k
5,24,1038,B,45.02070844169805,21.2364130869022,2.2510354220849025,0.3335807967120504,B,474.70340004656464,Correct,sub_005_day_24_data.csv,1,600,,Button-Switch at home,,,,,,,,,,,,,d
5,24,1039,A,55.90444782473755,82.93523881602235,2.795222391236878,1.3027436849406544,A,460.86220000870526,Correct,sub_005_day_24_data.csv,1,600,,Button-Switch at home,,,,,,,,,,,,,k
5,24,1040,A,26.288731855829383,40.76464193523197,1.3144365927914692,0.6403294981497157,A,466.51030000066385,Correct,sub_005_day_24_data.csv,1,600,,Button-Switch at home,,,,,,,,,,,,,k
5,24,1041,B,55.03581643165464,24.310825091421197,2.751790821582732,0.3818735475495762,B,789.0132999746129,Correct,sub_005_day_24_data.csv,1,600,,Button-Switch at home,,,,,,,,,,,,,d
5,24,1042,B,51.72645483809983,28.511678044759776,2.5863227419049917,0.4478603914346735,B,446.6532000224106,Correct,sub_005_day_24_data.csv,1,600,,Button-Switch at home,,,,,,,,,,,,,d
5,24,1043,A,35.798115976699705,62.4751046718584,1.7899057988349854,0.9813566493468184,A,437.2780999983661,Correct,sub_005_day_24_data.csv,1,600,,Button-Switch at home,,,,,,,,,,,,,k
5,24,1044,B,58.20484402140398,46.52949578428503,2.910242201070199,0.7308836106557356,B,578.3019000082277,Correct,sub_005_day_24_data.csv,1,600,,Button-Switch at home,,,,,,,,,,,,,d
5,24,1045,A,28.54161055516592,59.582284279189864,1.427080527758296,0.9359163328780076,A,467.4101999844424,Correct,sub_005_day_24_data.csv,1,600,,Button-Switch at home,,,,,,,,,,,,,k
5,24,1046,A,56.19899534672348,70.44379595438788,2.8099497673361737,1.1065285593064167,A,516.970600001514,Correct,sub_005_day_24_data.csv,1,600,,Button-Switch at home,,,,,,,,,,,,,k
5,24,1047,A,21.93571972770145,45.68121685090442,1.0967859863850726,0.717558876329218,A,573.9857000298798,Correct,sub_005_day_24_data.csv,1,600,,Button-Switch at home,,,,,,,,,,,,,k
5,24,1048,B,82.57736450470743,65.48118719151104,4.1288682252353714,1.0285760831459458,B,541.3787999423221,Correct,sub_005_day_24_data.csv,1,600,,Button-Switch at home,,,,,,,,,,,,,d
5,24,1049,B,54.06425757014544,34.78732974267296,2.7032128785072724,0.5464380977879354,B,629.902399959974,Correct,sub_005_day_24_data.csv,1,600,,Button-Switch at home,,,,,,,,,,,,,d
5,24,1050,B,58.060565586914066,39.016719579962405,2.9030282793457034,0.6128731979979146,B,504.2696999735199,Correct,sub_005_day_24_data.csv,1,600,,Button-Switch at home,,,,,,,,,,,,,d
5,24,1051,A,35.242737584997755,59.8099465712139,1.762136879249888,0.9394924437986182,A,768.6334999743849,Correct,sub_005_day_24_data.csv,1,600,,Button-Switch at home,,,,,,,,,,,,,k
5,24,1052,A,40.003074282613056,67.5542323965688,2.000153714130653,1.061139401079791,A,696.897900023032,Correct,sub_005_day_24_data.csv,1,600,,Button-Switch at home,,,,,,,,,,,,,k
5,24,1053,B,33.23394374902947,12.246525454017814,1.6616971874514734,0.1923679719917138,B,570.7235999871045,Correct,sub_005_day_24_data.csv,1,600,,Button-Switch at home,,,,,,,,,,,,,d
5,24,1054,B,86.03757033309172,60.70136299326545,4.301878516654586,0.9534947802126504,B,572.4268000340089,Correct,sub_005_day_24_data.csv,1,600,,Button-Switch at home,,,,,,,,,,,,,d
5,24,1055,A,19.290261311754016,49.175903477622185,0.9645130655877008,0.772453285494693,A,506.4072000095621,Correct,sub_005_day_24_data.csv,1,600,,Button-Switch at home,,,,,,,,,,,,,k
5,24,1056,A,38.52111596651098,46.90393895238199,1.9260557983255493,0.7367653501861369,A,586.1401000292972,Correct,sub_005_day_24_data.csv,1,600,,Button-Switch at home,,,,,,,,,,,,,k
5,24,1057,A,43.903399624190406,57.69520479635725,2.19516998120952,0.9062741576779728,A,633.8971000513993,Correct,sub_005_day_24_data.csv,1,600,,Button-Switch at home,,,,,,,,,,,,,k
5,24,1058,A,16.061073160733542,36.972444092529,0.8030536580366772,0.5807617937317423,A,536.4402999985032,Correct,sub_005_day_24_data.csv,1,600,,Button-Switch at home,,,,,,,,,,,,,k
5,24,1059,A,12.44253754749082,36.02913068296379,0.6221268773745409,0.5659442613441283,A,409.58999999566,Correct,sub_005_day_24_data.csv,1,600,,Button-Switch at home,,,,,,,,,,,,,k
5,24,1060,B,63.86649916472911,33.305889975911555,3.1933249582364556,0.5231676963479684,B,523.1446999823675,Correct,sub_005_day_24_data.csv,1,600,,Button-Switch at home,,,,,,,,,,,,,d
5,24,1061,B,74.55961442972568,60.92330862419607,3.727980721486284,0.9569810940307903,B,686.824600037653,Correct,sub_005_day_24_data.csv,1,600,,Button-Switch at home,,,,,,,,,,,,,d
5,24,1062,B,49.9532892702133,22.82500142446384,2.497664463510665,0.3585342839663608,B,432.7933000167832,Correct,sub_005_day_24_data.csv,1,600,,Button-Switch at home,,,,,,,,,,,,,d
5,24,1063,A,22.6151237243077,53.4404690890683,1.130756186215385,0.839440925473047,A,448.88510002056137,Correct,sub_005_day_24_data.csv,1,600,,Button-Switch at home,,,,,,,,,,,,,k
5,24,1064,A,38.55318271698725,46.065412531796895,1.9276591358493624,0.7235938079723817,A,522.1686000004411,Correct,sub_005_day_24_data.csv,1,600,,Button-Switch at home,,,,,,,,,,,,,k
5,24,1065,B,85.25458545347036,67.10648420363164,4.262729272673518,1.0541061889118433,B,522.6006000302732,Correct,sub_005_day_24_data.csv,1,600,,Button-Switch at home,,,,,,,,,,,,,d
5,24,1066,B,72.05818805103729,60.55845667646804,3.6029094025518646,0.9512500130376388,B,502.0387999829836,Correct,sub_005_day_24_data.csv,1,600,,Button-Switch at home,,,,,,,,,,,,,d
5,24,1067,B,53.35316117713936,26.931048349293174,2.667658058856968,0.4230319182380548,B,437.14450002880767,Correct,sub_005_day_24_data.csv,1,600,,Button-Switch at home,,,,,,,,,,,,,d
5,24,1068,A,64.83142053770783,85.94962848459045,3.2415710268853912,1.3500936071298069,A,601.8362000468187,Correct,sub_005_day_24_data.csv,1,600,,Button-Switch at home,,,,,,,,,,,,,k
5,24,1069,A,20.386832602567587,32.661368824172555,1.0193416301283793,0.513043581771036,A,746.7766999616288,Correct,sub_005_day_24_data.csv,1,600,,Button-Switch at home,,,,,,,,,,,,,k
5,24,1070,B,76.75550901454494,52.62816382698222,3.8377754507272472,0.8266812642538373,B,624.3720999918878,Correct,sub_005_day_24_data.csv,1,600,,Button-Switch at home,,,,,,,,,,,,,d
5,24,1071,A,32.49949760308136,62.937987247487015,1.6249748801540678,0.9886275918421664,A,654.177599994,Correct,sub_005_day_24_data.csv,1,600,,Button-Switch at home,,,,,,,,,,,,,k
5,24,1072,A,63.76993466330602,74.27038403519731,3.1884967331653007,1.1666364643213425,A,644.4335000123829,Correct,sub_005_day_24_data.csv,1,600,,Button-Switch at home,,,,,,,,,,,,,k
5,24,1073,A,54.77026574601524,73.20846107834211,2.738513287300762,1.1499558175216693,A,538.2875999785028,Correct,sub_005_day_24_data.csv,1,600,,Button-Switch at home,,,,,,,,,,,,,k
5,24,1074,A,56.8661462545784,66.12850927057185,2.8433073127289195,1.0387441945863654,A,484.6059000119567,Correct,sub_005_day_24_data.csv,1,600,,Button-Switch at home,,,,,,,,,,,,,k
5,24,1075,B,58.473303957545646,45.24342056349624,2.9236651978772823,0.7106819883277659,A,627.3304999922402,Incorrect,sub_005_day_24_data.csv,0,600,,Button-Switch at home,,,,,,,,,,,,,k
5,24,1076,B,54.60682301264903,29.39867961327368,2.7303411506324515,0.461793379491503,B,538.0288000451401,Correct,sub_005_day_24_data.csv,1,600,,Button-Switch at home,,,,,,,,,,,,,d
5,24,1077,A,34.63576566147437,49.898609767475754,1.7317882830737188,0.7838055293492285,A,1273.073000018485,Correct,sub_005_day_24_data.csv,1,600,,Button-Switch at home,,,,,,,,,,,,,k
5,24,1078,A,50.540789893179166,59.184157724992495,2.5270394946589585,0.9296625755886802,A,514.8604999994859,Correct,sub_005_day_24_data.csv,1,600,,Button-Switch at home,,,,,,,,,,,,,k
5,24,1079,B,62.422004122495544,33.42556812779671,3.1211002061247775,0.5250475963617564,B,570.7467999891378,Correct,sub_005_day_24_data.csv,1,600,,Button-Switch at home,,,,,,,,,,,,,d
5,24,1080,A,28.28712296550723,42.92822617726746,1.4143561482753615,0.6743149999507224,A,793.5952999978326,Correct,sub_005_day_24_data.csv,1,600,,Button-Switch at home,,,,,,,,,,,,,k
5,24,1081,B,42.66439262931803,18.741567546759367,2.1332196314659013,0.2943918546082805,B,585.2526999660768,Correct,sub_005_day_24_data.csv,1,600,,Button-Switch at home,,,,,,,,,,,,,d
5,24,1082,B,54.6429762775116,30.82144343017172,2.7321488138755803,0.4841421012663043,B,468.27099996153265,Correct,sub_005_day_24_data.csv,1,600,,Button-Switch at home,,,,,,,,,,,,,d
5,24,1083,A,45.35309176604731,65.77078720357817,2.2676545883023653,1.033125109497894,A,449.21619998058304,Correct,sub_005_day_24_data.csv,1,600,,Button-Switch at home,,,,,,,,,,,,,k
5,24,1084,B,50.80154067560035,28.936480044769503,2.540077033780017,0.4545331656469775,B,657.8627999988385,Correct,sub_005_day_24_data.csv,1,600,,Button-Switch at home,,,,,,,,,,,,,d
5,24,1085,A,46.56267760272082,56.911589220206835,2.3281338801360407,0.8939651529916091,A,587.9214000306092,Correct,sub_005_day_24_data.csv,1,600,,Button-Switch at home,,,,,,,,,,,,,k
5,24,1086,A,40.21524646220218,62.86107585206621,2.010762323110109,0.9874194704680096,A,458.4906999953091,Correct,sub_005_day_24_data.csv,1,600,,Button-Switch at home,,,,,,,,,,,,,k
5,24,1087,A,62.585497342746095,74.54159796094557,3.1292748671373043,1.1708966827047524,A,795.1898000319488,Correct,sub_005_day_24_data.csv,1,600,,Button-Switch at home,,,,,,,,,,,,,k
5,24,1088,B,60.05899308082975,30.442566763971648,3.0029496540414873,0.4781907205105506,B,534.8264999920502,Correct,sub_005_day_24_data.csv,1,600,,Button-Switch at home,,,,,,,,,,,,,d
5,24,1089,A,34.94329934417631,56.408663555536464,1.7471649672088154,0.8860652151244582,A,455.3978000185453,Correct,sub_005_day_24_data.csv,1,600,,Button-Switch at home,,,,,,,,,,,,,k
5,24,1090,A,48.65328574205297,70.7254795530715,2.4326642871026483,1.110953234927723,A,576.4495999901555,Correct,sub_005_day_24_data.csv,1,600,,Button-Switch at home,,,,,,,,,,,,,k
5,24,1091,A,51.6444063166328,72.38275031741463,2.58222031583164,1.1369855832190705,A,609.0005000005476,Correct,sub_005_day_24_data.csv,1,600,,Button-Switch at home,,,,,,,,,,,,,k
5,24,1092,B,35.58325828666131,25.257125376701055,1.7791629143330656,0.3967379976712018,B,598.9918000414036,Correct,sub_005_day_24_data.csv,1,600,,Button-Switch at home,,,,,,,,,,,,,d
5,24,1093,B,52.83806685801086,29.418022509654666,2.6419033429005427,0.4620972169973513,B,641.5670000133105,Correct,sub_005_day_24_data.csv,1,600,,Button-Switch at home,,,,,,,,,,,,,d
5,24,1094,A,21.7926996280357,42.42245618676463,1.089634981401785,0.6663703835178731,A,457.6466000289656,Correct,sub_005_day_24_data.csv,1,600,,Button-Switch at home,,,,,,,,,,,,,k
5,24,1095,A,54.49210543655023,83.54513459283959,2.7246052718275116,1.312323905400177,A,472.8860999457538,Correct,sub_005_day_24_data.csv,1,600,,Button-Switch at home,,,,,,,,,,,,,k
5,24,1096,A,48.695911514901525,80.27164013380752,2.4347955757450763,1.2609039746798665,A,503.53300001006573,Correct,sub_005_day_24_data.csv,1,600,,Button-Switch at home,,,,,,,,,,,,,k
5,24,1097,B,67.40874295628146,34.93592928835251,3.370437147814073,0.5487722939931037,B,774.3258000118658,Correct,sub_005_day_24_data.csv,1,600,,Button-Switch at home,,,,,,,,,,,,,d
5,24,1098,A,51.32979448274009,79.68802532489143,2.5664897241370044,1.2517365746987816,A,565.230000007432,Correct,sub_005_day_24_data.csv,1,600,,Button-Switch at home,,,,,,,,,,,,,k
5,24,1099,B,63.05955952074411,39.89122015188366,3.152977976037205,0.626609820859454,A,453.0572000076063,Incorrect,sub_005_day_24_data.csv,0,600,,Button-Switch at home,,,,,,,,,,,,,k
5,24,1100,B,54.72148499477904,31.357852009206805,2.736074249738952,0.4925679875224001,B,529.1958000161685,Correct,sub_005_day_24_data.csv,1,600,,Button-Switch at home,,,,,,,,,,,,,d
5,24,1101,A,61.18614631202859,71.73905649143667,3.0593073156014294,1.126874464244803,A,598.532099975273,Correct,sub_005_day_24_data.csv,1,600,,Button-Switch at home,,,,,,,,,,,,,k
5,24,1102,B,48.191115548904605,30.96782457119997,2.40955577744523,0.4864414508526965,B,578.2600999809802,Correct,sub_005_day_24_data.csv,1,600,,Button-Switch at home,,,,,,,,,,,,,d
5,24,1103,A,22.033145079477933,52.90772871952601,1.101657253973897,0.8310726593169231,A,452.3802999756299,Correct,sub_005_day_24_data.csv,1,600,,Button-Switch at home,,,,,,,,,,,,,k
5,24,1104,B,69.9127603129769,59.80069462506131,3.495638015648845,0.9393471145682964,B,563.5491999564692,Correct,sub_005_day_24_data.csv,1,600,,Button-Switch at home,,,,,,,,,,,,,d
5,24,1105,B,55.25139773206637,30.66585419261782,2.7625698866033184,0.4816981112379195,B,465.2681999723427,Correct,sub_005_day_24_data.csv,1,600,,Button-Switch at home,,,,,,,,,,,,,d
5,24,1106,B,55.395294663390594,30.27437718871029,2.76976473316953,0.4755488048402933,B,448.4539999975823,Correct,sub_005_day_24_data.csv,1,600,,Button-Switch at home,,,,,,,,,,,,,d
5,24,1107,A,18.89916719423114,43.388245404507565,0.944958359711557,0.6815409650747604,A,435.9700999921188,Correct,sub_005_day_24_data.csv,1,600,,Button-Switch at home,,,,,,,,,,,,,k
5,24,1108,B,85.85468662134063,56.66387039442188,4.292734331067032,0.8900739947753997,B,495.63239997951314,Correct,sub_005_day_24_data.csv,1,600,,Button-Switch at home,,,,,,,,,,,,,d
5,24,1109,A,57.83119723854543,86.47053489989608,2.8915598619272713,1.358275985967467,A,664.0668999752961,Correct,sub_005_day_24_data.csv,1,600,,Button-Switch at home,,,,,,,,,,,,,k
5,24,1110,A,15.142538374618436,31.562811719269742,0.7571269187309219,0.4957874871194782,A,472.9763999930583,Correct,sub_005_day_24_data.csv,1,600,,Button-Switch at home,,,,,,,,,,,,,k
5,24,1111,A,49.268993867980015,71.39127251329681,2.4634496933990007,1.121411486291001,A,631.5984000102617,Correct,sub_005_day_24_data.csv,1,600,,Button-Switch at home,,,,,,,,,,,,,k
5,24,1112,B,82.82154162895061,52.706631396806785,4.141077081447531,0.8279138299583666,A,496.8407999840565,Incorrect,sub_005_day_24_data.csv,0,600,,Button-Switch at home,,,,,,,,,,,,,k
5,24,1113,A,57.298009357940266,66.08303850497131,2.8649004678970136,1.0380299414705465,A,570.0868999701925,Correct,sub_005_day_24_data.csv,1,600,,Button-Switch at home,,,,,,,,,,,,,k
5,24,1114,A,50.42662431024558,66.6936942405542,2.521331215512279,1.0476220993344447,A,597.3389000282623,Correct,sub_005_day_24_data.csv,1,600,,Button-Switch at home,,,,,,,,,,,,,k
5,24,1115,B,70.9337947334397,54.33904494949531,3.546689736671985,0.8535557220821002,B,647.0698000048287,Correct,sub_005_day_24_data.csv,1,600,,Button-Switch at home,,,,,,,,,,,,,d
5,24,1116,A,17.99258505406064,36.89761844602883,0.8996292527030321,0.5795864352250171,A,447.21880002180114,Correct,sub_005_day_24_data.csv,1,600,,Button-Switch at home,,,,,,,,,,,,,k
5,24,1117,B,77.69837868144583,50.07505144680457,3.8849189340722914,0.786577068767061,B,410.3950999560766,Correct,sub_005_day_24_data.csv,1,600,,Button-Switch at home,,,,,,,,,,,,,d
5,24,1118,A,38.68682047573036,50.07566858412525,1.934341023786518,0.7865867627374256,A,405.15499998582527,Correct,sub_005_day_24_data.csv,1,600,,Button-Switch at home,,,,,,,,,,,,,k
5,24,1119,A,32.30118286239348,60.27564302537718,1.615059143119674,0.9468075865946292,A,541.7831999948248,Correct,sub_005_day_24_data.csv,1,600,,Button-Switch at home,,,,,,,,,,,,,k
5,24,1120,A,35.097206501557174,62.23787889927254,1.7548603250778587,0.977630315624829,A,420.2180000138469,Correct,sub_005_day_24_data.csv,1,600,,Button-Switch at home,,,,,,,,,,,,,k
5,24,1121,B,49.88429245680507,22.824528450205996,2.4942146228402535,0.3585268545040919,B,436.20489997556433,Correct,sub_005_day_24_data.csv,1,600,,Button-Switch at home,,,,,,,,,,,,,d
5,24,1122,A,35.931428166020076,63.74905467650983,1.7965714083010038,1.0013678092250866,A,784.3265000265092,Correct,sub_005_day_24_data.csv,1,600,,Button-Switch at home,,,,,,,,,,,,,k
5,24,1123,A,46.17955755603038,58.0100860798597,2.308977877801519,0.9112203013129938,A,494.5206000120379,Correct,sub_005_day_24_data.csv,1,600,,Button-Switch at home,,,,,,,,,,,,,k
5,24,1124,A,21.789877852041855,33.96767858508154,1.089493892602093,0.5335630475119575,A,536.4858999964781,Correct,sub_005_day_24_data.csv,1,600,,Button-Switch at home,,,,,,,,,,,,,k
5,24,1125,B,70.49063135824585,47.92666301272081,3.524531567912293,0.7528302621591867,B,538.4925999678671,Correct,sub_005_day_24_data.csv,1,600,,Button-Switch at home,,,,,,,,,,,,,d
5,24,1126,B,74.5883797431594,57.19966992839893,3.72941898715797,0.8984903141740956,A,605.5949000292458,Incorrect,sub_005_day_24_data.csv,0,600,,Button-Switch at home,,,,,,,,,,,,,k
5,24,1127,A,30.690162940551986,51.04971628225983,1.5345081470275994,0.8018870682009537,A,508.3827000344172,Correct,sub_005_day_24_data.csv,1,600,,Button-Switch at home,,,,,,,,,,,,,k
5,24,1128,B,64.50508929641114,48.1525487558789,3.225254464820557,0.7563784671154674,B,458.52169999852777,Correct,sub_005_day_24_data.csv,1,600,,Button-Switch at home,,,,,,,,,,,,,d
5,24,1129,B,59.58751619128989,44.96758324112515,2.979375809564494,0.7063491458000313,B,428.3245000406168,Correct,sub_005_day_24_data.csv,1,600,,Button-Switch at home,,,,,,,,,,,,,d
5,24,1130,B,37.669199358990696,25.793504766876893,1.8834599679495347,0.4051634254297688,B,691.033500013873,Correct,sub_005_day_24_data.csv,1,600,,Button-Switch at home,,,,,,,,,,,,,d
5,24,1131,B,69.49982892524324,40.40527156375617,3.474991446262162,0.6346845215549848,B,792.239700036589,Correct,sub_005_day_24_data.csv,1,600,,Button-Switch at home,,,,,,,,,,,,,d
5,24,1132,B,39.48914431127655,27.427259598489425,1.9744572155638276,0.4308263863135725,B,432.9368000035174,Correct,sub_005_day_24_data.csv,1,600,,Button-Switch at home,,,,,,,,,,,,,d
5,24,1133,B,42.56686623714188,29.742128415758337,2.128343311857094,0.4671882606653531,B,396.1572000407614,Correct,sub_005_day_24_data.csv,1,600,,Button-Switch at home,,,,,,,,,,,,,d
5,24,1134,B,62.91773398215999,43.45626275925569,3.145886699107999,0.6826093791847269,B,593.5454000136815,Correct,sub_005_day_24_data.csv,1,600,,Button-Switch at home,,,,,,,,,,,,,d
5,24,1135,A,20.702015970443288,39.09607514303757,1.0351007985221643,0.6141197122678067,A,418.134999985341,Correct,sub_005_day_24_data.csv,1,600,,Button-Switch at home,,,,,,,,,,,,,k
5,24,1136,B,63.21838932390451,29.903791657047293,3.160919466195226,0.4697276609212976,B,415.92519998084754,Correct,sub_005_day_24_data.csv,1,600,,Button-Switch at home,,,,,,,,,,,,,d
5,24,1137,B,62.56606740187706,51.51658229132685,3.1283033700938527,0.8092205823224323,B,670.633599977009,Correct,sub_005_day_24_data.csv,1,600,,Button-Switch at home,,,,,,,,,,,,,d
5,24,1138,A,59.091664831246035,76.00532694690477,2.9545832415623017,1.193888883850432,A,556.6653999849223,Correct,sub_005_day_24_data.csv,1,600,,Button-Switch at home,,,,,,,,,,,,,k
5,24,1139,B,57.580411847739285,32.55987574718685,2.8790205923869645,0.5114493322457935,B,529.9234000267461,Correct,sub_005_day_24_data.csv,1,600,,Button-Switch at home,,,,,,,,,,,,,d
5,24,1140,A,55.24204252877415,72.06067430641806,2.7621021264387076,1.1319264250688488,B,510.9622000018134,Incorrect,sub_005_day_24_data.csv,0,600,,Button-Switch at home,,,,,,,,,,,,,d
5,24,1141,B,43.43713666752697,21.022696241850824,2.1718568333763484,0.3302237403602414,B,543.1732999859378,Correct,sub_005_day_24_data.csv,1,600,,Button-Switch at home,,,,,,,,,,,,,d
5,24,1142,B,80.16510934772836,61.216439361665095,4.008255467386419,0.9615855808876606,B,642.345700005535,Correct,sub_005_day_24_data.csv,1,600,,Button-Switch at home,,,,,,,,,,,,,d
5,24,1143,B,69.423568749455,36.81218004250079,3.47117843747275,0.5782443719207264,B,460.9712000237778,Correct,sub_005_day_24_data.csv,1,600,,Button-Switch at home,,,,,,,,,,,,,d
5,24,1144,A,66.24370701581142,78.76646406202346,3.312185350790571,1.237260724232487,A,453.2119000214152,Correct,sub_005_day_24_data.csv,1,600,,Button-Switch at home,,,,,,,,,,,,,k
5,24,1145,A,20.7654215938466,38.26771544775488,1.03827107969233,0.6011078686016569,A,429.18849998386577,Correct,sub_005_day_24_data.csv,1,600,,Button-Switch at home,,,,,,,,,,,,,k
5,24,1146,A,32.20018029738347,61.68405376181907,1.6100090148691737,0.9689308507088432,A,436.0387999913655,Correct,sub_005_day_24_data.csv,1,600,,Button-Switch at home,,,,,,,,,,,,,k
5,24,1147,B,53.31366667110806,23.9141493648822,2.665683333555403,0.3756425798078146,B,472.25170000456274,Correct,sub_005_day_24_data.csv,1,600,,Button-Switch at home,,,,,,,,,,,,,d
5,24,1148,B,39.470661817227146,14.893567349688688,1.9735330908613573,0.2339476088576339,B,632.1079999906942,Correct,sub_005_day_24_data.csv,1,600,,Button-Switch at home,,,,,,,,,,,,,d
5,24,1149,A,57.70339959361528,74.94096439631896,2.885169979680764,1.1771699160020497,A,495.5546000273898,Correct,sub_005_day_24_data.csv,1,600,,Button-Switch at home,,,,,,,,,,,,,k
5,24,1150,B,44.18670082125245,15.141455709464871,2.209335041062622,0.2378414301075503,B,498.96129994886,Correct,sub_005_day_24_data.csv,1,600,,Button-Switch at home,,,,,,,,,,,,,d
5,24,1151,B,49.95449402709923,34.32093831412079,2.4977247013549615,0.5391120383597516,B,615.3997000074014,Correct,sub_005_day_24_data.csv,1,600,,Button-Switch at home,,,,,,,,,,,,,d
5,24,1152,A,37.32171106148598,59.80081409878888,1.866085553074299,0.9393489912572204,A,623.4958000131883,Correct,sub_005_day_24_data.csv,1,600,,Button-Switch at home,,,,,,,,,,,,,k
