subject,day,trial,cat,x,y,xt,yt,resp,rt,fb,f_name,acc,n_trials,block,session_type,ns_left_digit,ns_right_digit,ns_left_size,ns_right_size,ns_congruent,ns_cue,ns_correct_side,ns_resp,ns_rt,ns_fb,acc_stroop,acc_stroop_mean,resp_key
5,9,1800,B,77.79701100655012,62.830996850413825,3.8898505503275063,0.9869469906149174,B,533.5365999490023,Correct,sub_005_day_07_data.csv,1,300,72.0,Training at home,,,,,,,,,,,,,
5,9,1801,A,48.07850517148276,69.76212856292032,2.403925258574138,1.0958209529602858,A,543.0300000589341,Correct,sub_005_day_07_data.csv,1,300,72.0,Training at home,,,,,,,,,,,,,
5,9,1802,A,60.13805409183236,86.13387056944117,3.006902704591618,1.3529876750310523,A,497.96959990635514,Correct,sub_005_day_07_data.csv,1,300,72.0,Training at home,,,,,,,,,,,,,
5,9,1803,A,12.93035223753468,35.890092072708356,0.646517611876734,0.5637602479614092,A,470.6691999454051,Correct,sub_005_day_07_data.csv,1,300,72.0,Training at home,,,,,,,,,,,,,
5,9,1804,B,37.25154227320711,11.78230413305212,1.8625771136603555,0.1850760005337859,B,463.8181999325752,Correct,sub_005_day_07_data.csv,1,300,72.0,Training at home,,,,,,,,,,,,,
5,9,1805,B,31.55271827820061,10.977151081751613,1.5776359139100304,0.1724286859788805,B,590.0801999960095,Correct,sub_005_day_07_data.csv,1,300,72.0,Training at home,,,,,,,,,,,,,
5,9,1806,B,45.579214264615075,27.3172024124325,2.2789607132307537,0.4290976120776166,B,525.0784999225289,Correct,sub_005_day_07_data.csv,1,300,72.0,Training at home,,,,,,,,,,,,,
5,9,1807,B,57.57913349636455,38.197626902204505,2.878956674818227,0.6000069203026476,B,368.45179996453226,Correct,sub_005_day_07_data.csv,1,300,72.0,Training at home,,,,,,,,,,,,,
5,9,1808,A,65.96127309344953,88.58855410766336,3.298063654672477,1.3915457538838854,A,433.9912999421358,Correct,sub_005_day_07_data.csv,1,300,72.0,Training at home,,,,,,,,,,,,,
5,9,1809,B,87.0212214036267,58.64237622280858,4.351061070181334,0.9211522916531208,B,455.3004999179393,Correct,sub_005_day_07_data.csv,1,300,72.0,Training at home,,,,,,,,,,,,,
5,9,1810,A,65.96365468087045,84.19307887143006,3.298182734043522,1.3225017903279537,A,474.3301998823881,Correct,sub_005_day_07_data.csv,1,300,72.0,Training at home,,,,,,,,,,,,,
5,9,1811,B,63.814890569189686,51.483796080789574,3.190744528459484,0.8087055777316174,B,436.3675999920815,Correct,sub_005_day_07_data.csv,1,300,72.0,Training at home,,,,,,,,,,,,,
5,9,1812,A,23.256601673217396,38.64908022721903,1.1628300836608698,0.6070983325491691,A,686.459599994123,Correct,sub_005_day_07_data.csv,1,300,72.0,Training at home,,,,,,,,,,,,,
5,9,1813,A,17.046199816933356,38.45052908292618,0.8523099908466678,0.603979498467808,A,515.9841999411583,Correct,sub_005_day_07_data.csv,1,300,72.0,Training at home,,,,,,,,,,,,,
5,9,1814,B,75.00286354780641,61.443201725991315,3.750143177390321,0.96514755577705,B,578.2596000935882,Correct,sub_005_day_07_data.csv,1,300,72.0,Training at home,,,,,,,,,,,,,
5,9,1815,A,19.73087652394585,41.12312267574198,0.9865438261972924,0.6459605004539142,A,459.7493000328541,Correct,sub_005_day_07_data.csv,1,300,72.0,Training at home,,,,,,,,,,,,,
5,9,1816,B,81.60848317765084,56.543841320460515,4.080424158882542,0.8881885824905287,B,521.7431001365185,Correct,sub_005_day_07_data.csv,1,300,72.0,Training at home,,,,,,,,,,,,,
5,9,1817,A,28.24569121992121,43.78213134418125,1.4122845609960604,0.6877281109469161,A,451.8366998527199,Correct,sub_005_day_07_data.csv,1,300,72.0,Training at home,,,,,,,,,,,,,
5,9,1818,B,57.08594943295563,44.30531181237666,2.8542974716477816,0.6959462105238379,B,434.4955999404192,Correct,sub_005_day_07_data.csv,1,300,72.0,Training at home,,,,,,,,,,,,,
5,9,1819,A,48.62477373724492,59.08351060402992,2.431238686862246,0.9280816143095753,A,527.8842998668551,Correct,sub_005_day_07_data.csv,1,300,72.0,Training at home,,,,,,,,,,,,,
5,9,1820,A,45.25285737927524,54.83074440610861,2.262642868963762,0.8612793190854521,A,510.05530008114874,Correct,sub_005_day_07_data.csv,1,300,72.0,Training at home,,,,,,,,,,,,,
5,9,1821,B,76.0145659917413,43.96305090420532,3.8007282995870657,0.6905699887502277,B,548.6483999993652,Correct,sub_005_day_07_data.csv,1,300,72.0,Training at home,,,,,,,,,,,,,
5,9,1822,B,45.08759762670617,20.034763027309907,2.2543798813353084,0.314705321715046,B,546.5563999023288,Correct,sub_005_day_07_data.csv,1,300,72.0,Training at home,,,,,,,,,,,,,
5,9,1823,B,35.644259901011615,13.086808104983533,1.782212995050581,0.2055671010077781,B,541.1243999842554,Correct,sub_005_day_07_data.csv,1,300,72.0,Training at home,,,,,,,,,,,,,
5,9,1824,A,62.27764378692308,88.362577075955,3.113882189346154,1.3879961149704103,A,499.5585000142455,Correct,sub_005_day_07_data.csv,1,300,72.0,Training at home,,,,,,,,,,,,,
5,9,1825,B,85.57880114239701,66.5094318043497,4.278940057119851,1.044727711754882,B,520.4574000090361,Correct,sub_005_day_07_data.csv,1,300,73.0,Training at home,,,,,,,,,,,,,
5,9,1826,B,40.16100446526488,27.431371028741065,2.008050223263244,0.4308909685089441,B,856.0384002048522,Correct,sub_005_day_07_data.csv,1,300,73.0,Training at home,,,,,,,,,,,,,
5,9,1827,B,33.4883248690829,17.582673095574734,1.6744162434541452,0.2761879831376424,B,1062.1740999631584,Correct,sub_005_day_07_data.csv,1,300,73.0,Training at home,,,,,,,,,,,,,
5,9,1828,B,56.9276792927023,41.58095743258927,2.8463839646351152,0.6531521519972618,B,691.4653000421822,Correct,sub_005_day_07_data.csv,1,300,73.0,Training at home,,,,,,,,,,,,,
5,9,1829,A,45.70979025966524,61.41901743709787,2.2854895129832618,0.9647676698554504,A,636.3582999911159,Correct,sub_005_day_07_data.csv,1,300,73.0,Training at home,,,,,,,,,,,,,
5,9,1830,A,27.571663279011652,56.09388780851543,1.3785831639505828,0.8811207292526106,A,705.2804999984801,Correct,sub_005_day_07_data.csv,1,300,73.0,Training at home,,,,,,,,,,,,,
5,9,1831,A,28.32059657114047,50.11726809490117,1.4160298285570234,0.7872402063246582,A,655.8598999399692,Correct,sub_005_day_07_data.csv,1,300,73.0,Training at home,,,,,,,,,,,,,
5,9,1832,B,81.61251775051568,61.15771399945964,4.080625887525784,0.9606631250552404,B,544.4452001247555,Correct,sub_005_day_07_data.csv,1,300,73.0,Training at home,,,,,,,,,,,,,
5,9,1833,A,40.35417687335275,57.01211016649137,2.017708843667638,0.8955441323235063,A,716.5080001577735,Correct,sub_005_day_07_data.csv,1,300,73.0,Training at home,,,,,,,,,,,,,
5,9,1834,A,32.0965439076841,62.96107615873553,1.604827195384205,0.9889902716119552,A,631.220200099051,Correct,sub_005_day_07_data.csv,1,300,73.0,Training at home,,,,,,,,,,,,,
5,9,1835,B,87.38570188044,65.38448020796784,4.3692850940220005,1.027057013400695,B,505.0971999298781,Correct,sub_005_day_07_data.csv,1,300,73.0,Training at home,,,,,,,,,,,,,
5,9,1836,B,58.291883510351035,32.793774858241996,2.9145941755175517,0.5151234108906536,B,971.4116998948156,Correct,sub_005_day_07_data.csv,1,300,73.0,Training at home,,,,,,,,,,,,,
5,9,1837,B,73.94680309727246,44.79009459244725,3.697340154863623,0.703561160626121,B,548.3023000415415,Correct,sub_005_day_07_data.csv,1,300,73.0,Training at home,,,,,,,,,,,,,
5,9,1838,A,51.40824542176239,74.48832052845717,2.570412271088119,1.1700598027522142,A,657.6050000730902,Correct,sub_005_day_07_data.csv,1,300,73.0,Training at home,,,,,,,,,,,,,
5,9,1839,B,76.02435446576314,47.21124804647106,3.801217723288157,0.7415925501479949,B,536.6134999785572,Correct,sub_005_day_07_data.csv,1,300,73.0,Training at home,,,,,,,,,,,,,
5,9,1840,B,51.533437325587926,37.68965518009854,2.576671866279396,0.5920277191506503,B,524.9721999280155,Correct,sub_005_day_07_data.csv,1,300,73.0,Training at home,,,,,,,,,,,,,
5,9,1841,A,61.49078034311543,81.24237012204584,3.0745390171557716,1.2761521656782104,A,567.8697999101132,Correct,sub_005_day_07_data.csv,1,300,73.0,Training at home,,,,,,,,,,,,,
5,9,1842,B,48.43132393393134,32.1718476705734,2.421566196696567,0.5053542014714165,B,550.9466000366956,Correct,sub_005_day_07_data.csv,1,300,73.0,Training at home,,,,,,,,,,,,,
5,9,1843,B,75.92524108745974,50.50376833709385,3.796262054372987,0.7933113379320743,B,518.0508000776172,Correct,sub_005_day_07_data.csv,1,300,73.0,Training at home,,,,,,,,,,,,,
5,9,1844,B,43.988330398109625,36.35053984448097,2.199416519905481,0.5709929446472224,B,951.389699941501,Correct,sub_005_day_07_data.csv,1,300,73.0,Training at home,,,,,,,,,,,,,
5,9,1845,B,44.078140199750194,30.865859566155446,2.2039070099875095,0.4848397882988409,B,486.5949999075383,Correct,sub_005_day_07_data.csv,1,300,73.0,Training at home,,,,,,,,,,,,,
5,9,1846,A,41.2014646620582,59.532266756563104,2.06007323310291,0.9351306594698328,A,711.4555998705328,Correct,sub_005_day_07_data.csv,1,300,73.0,Training at home,,,,,,,,,,,,,
5,9,1847,B,43.80391582556763,20.11226875978367,2.1901957912783816,0.3159227789137994,B,586.470799986273,Correct,sub_005_day_07_data.csv,1,300,73.0,Training at home,,,,,,,,,,,,,
5,9,1848,B,52.58800737325892,39.24997704058075,2.629400368662946,0.6165371976212828,B,451.5959999989718,Correct,sub_005_day_07_data.csv,1,300,73.0,Training at home,,,,,,,,,,,,,
5,9,1849,A,39.20546187351764,55.02534137760988,1.960273093675882,0.8643360411658482,A,671.8554000835866,Correct,sub_005_day_07_data.csv,1,300,73.0,Training at home,,,,,,,,,,,,,
5,9,1850,B,65.732537023749,43.741736352853366,3.28662685118745,0.6870935879069286,B,573.7848998978734,Correct,sub_005_day_07_data.csv,1,300,74.0,Training at home,,,,,,,,,,,,,
5,9,1851,B,64.5441203518859,33.92593992269847,3.2272060175942947,0.532907418136391,B,533.4307998418808,Correct,sub_005_day_07_data.csv,1,300,74.0,Training at home,,,,,,,,,,,,,
5,9,1852,B,42.90147168656857,22.122504383265,2.1450735843284288,0.3474994862473666,B,505.4097999818623,Correct,sub_005_day_07_data.csv,1,300,74.0,Training at home,,,,,,,,,,,,,
5,9,1853,B,36.1486763440099,17.61026152704466,1.8074338172004951,0.2766213412057924,B,625.7722000591457,Correct,sub_005_day_07_data.csv,1,300,74.0,Training at home,,,,,,,,,,,,,
5,9,1854,B,41.89262847364251,19.13145565767033,2.0946314236821255,0.30051620273308,B,545.3349999152124,Correct,sub_005_day_07_data.csv,1,300,74.0,Training at home,,,,,,,,,,,,,
5,9,1855,B,62.21228062058352,33.94474051061475,3.110614031029176,0.5332027370807958,B,548.7982998602092,Correct,sub_005_day_07_data.csv,1,300,74.0,Training at home,,,,,,,,,,,,,
5,9,1856,A,53.02077174305315,76.63255966749162,2.6510385871526574,1.2037414323858655,A,1179.168799892068,Correct,sub_005_day_07_data.csv,1,300,74.0,Training at home,,,,,,,,,,,,,
5,9,1857,B,78.49264148584258,64.5888510360929,3.924632074292129,1.0145592995939747,B,1111.0492998268455,Correct,sub_005_day_07_data.csv,1,300,74.0,Training at home,,,,,,,,,,,,,
5,9,1858,B,68.87946476641305,45.70636685124503,3.4439732383206523,0.7179539316107573,B,562.8573000431061,Correct,sub_005_day_07_data.csv,1,300,74.0,Training at home,,,,,,,,,,,,,
5,9,1859,A,20.43274296513912,41.21323216277627,1.021637148256956,0.6473759369663425,A,487.8909999970346,Correct,sub_005_day_07_data.csv,1,300,74.0,Training at home,,,,,,,,,,,,,
5,9,1860,A,26.462742624597908,57.02591572084416,1.3231371312298956,0.8957609894641736,A,523.744200123474,Correct,sub_005_day_07_data.csv,1,300,74.0,Training at home,,,,,,,,,,,,,
5,9,1861,B,72.49042828611297,62.450004211269246,3.624521414305649,0.9809623722338756,B,568.1367001961917,Correct,sub_005_day_07_data.csv,1,300,74.0,Training at home,,,,,,,,,,,,,
5,9,1862,A,14.971843504175396,34.34549684246267,0.7485921752087699,0.5394978028208608,A,483.801799826324,Correct,sub_005_day_07_data.csv,1,300,74.0,Training at home,,,,,,,,,,,,,
5,9,1863,A,21.30618460415647,38.717616206088266,1.0653092302078238,0.6081748931877801,A,502.4466998875141,Correct,sub_005_day_07_data.csv,1,300,74.0,Training at home,,,,,,,,,,,,,
5,9,1864,B,60.45435307863128,31.59434756004339,3.0227176539315637,0.4962828509479746,B,403.1273000873625,Correct,sub_005_day_07_data.csv,1,300,74.0,Training at home,,,,,,,,,,,,,
5,9,1865,B,52.10494170429545,25.72647613231932,2.6052470852147724,0.4041105421002376,B,502.6685998309404,Correct,sub_005_day_07_data.csv,1,300,74.0,Training at home,,,,,,,,,,,,,
5,9,1866,B,44.56172883394843,20.3386336057037,2.2280864416974215,0.3194785095986661,B,513.4517999831587,Correct,sub_005_day_07_data.csv,1,300,74.0,Training at home,,,,,,,,,,,,,
5,9,1867,B,73.89362738274141,49.61548739795663,3.694681369137071,0.7793582535684875,B,444.675600156188,Correct,sub_005_day_07_data.csv,1,300,74.0,Training at home,,,,,,,,,,,,,
5,9,1868,A,28.073299641842127,58.2885879167524,1.4036649820921066,0.9155949979369604,A,434.9214998073876,Correct,sub_005_day_07_data.csv,1,300,74.0,Training at home,,,,,,,,,,,,,
5,9,1869,A,12.462735035637898,30.469784049969356,0.6231367517818949,0.4786182486392559,A,554.093100130558,Correct,sub_005_day_07_data.csv,1,300,74.0,Training at home,,,,,,,,,,,,,
5,9,1870,A,61.79542578197278,85.96676090802801,3.089771289098639,1.350362722607855,A,949.6140000410378,Correct,sub_005_day_07_data.csv,1,300,74.0,Training at home,,,,,,,,,,,,,
5,9,1871,B,63.02396181419671,32.322583106138346,3.151198090709835,0.5077219481564489,B,518.9676999580115,Correct,sub_005_day_07_data.csv,1,300,74.0,Training at home,,,,,,,,,,,,,
5,9,1872,A,25.29356899044669,39.05742491284002,1.2646784495223344,0.6135125958715659,A,788.6620999779552,Correct,sub_005_day_07_data.csv,1,300,74.0,Training at home,,,,,,,,,,,,,
5,9,1873,B,85.95382412782006,57.84940327660293,4.297691206391002,0.9086963017416452,B,606.6440001595765,Correct,sub_005_day_07_data.csv,1,300,74.0,Training at home,,,,,,,,,,,,,
5,9,1874,B,45.16161228616025,22.334056145163604,2.2580806143080125,0.3508225335525398,B,740.3186000883579,Correct,sub_005_day_07_data.csv,1,300,74.0,Training at home,,,,,,,,,,,,,
5,9,1875,B,62.78257496914391,30.67930974206412,3.1391287484571957,0.481909470514372,B,678.2509000040591,Correct,sub_005_day_07_data.csv,1,300,75.0,Training at home,,,,,,,,,,,,,
5,9,1876,B,61.40462767225939,36.43528356805067,3.0702313836129695,0.5723240959442444,B,399.3882997892797,Correct,sub_005_day_07_data.csv,1,300,75.0,Training at home,,,,,,,,,,,,,
5,9,1877,B,52.239465782100154,25.152680311392295,2.611973289105008,0.3950973784218133,B,549.9040000140667,Correct,sub_005_day_07_data.csv,1,300,75.0,Training at home,,,,,,,,,,,,,
5,9,1878,A,22.06267381560087,34.04709936353447,1.1031336907800435,0.534810586182608,A,483.4460001438856,Correct,sub_005_day_07_data.csv,1,300,75.0,Training at home,,,,,,,,,,,,,
5,9,1879,A,22.19560235708702,53.97642996978303,1.109780117854351,0.8478597793003715,A,462.44129980914295,Correct,sub_005_day_07_data.csv,1,300,75.0,Training at home,,,,,,,,,,,,,
5,9,1880,A,28.61175878881165,56.71966374754524,1.4305879394405825,0.8909503947168572,A,461.71810012310743,Correct,sub_005_day_07_data.csv,1,300,75.0,Training at home,,,,,,,,,,,,,
5,9,1881,A,29.597496025142963,51.41020837628613,1.4798748012571483,0.8075496647723047,A,552.8404000215232,Correct,sub_005_day_07_data.csv,1,300,75.0,Training at home,,,,,,,,,,,,,
5,9,1882,B,75.92326688281574,60.42687779083128,3.7961633441407865,0.9491831767352188,B,557.1999000385404,Correct,sub_005_day_07_data.csv,1,300,75.0,Training at home,,,,,,,,,,,,,
5,9,1883,B,52.56495773997641,45.274724552722546,2.6282478869988206,0.7111737102406729,B,616.2501000799239,Correct,sub_005_day_07_data.csv,1,300,75.0,Training at home,,,,,,,,,,,,,
5,9,1884,A,26.233353750881427,51.47781267608503,1.3116676875440714,0.8086115906303012,A,558.5600999183953,Correct,sub_005_day_07_data.csv,1,300,75.0,Training at home,,,,,,,,,,,,,
5,9,1885,A,37.671983883426094,51.06172622973865,1.8835991941713048,0.802075720014801,A,875.0614000018686,Correct,sub_005_day_07_data.csv,1,300,75.0,Training at home,,,,,,,,,,,,,
5,9,1886,A,19.544886338486485,48.78584233523845,0.9772443169243245,0.7663262193978752,A,549.1138000506908,Correct,sub_005_day_07_data.csv,1,300,75.0,Training at home,,,,,,,,,,,,,
5,9,1887,A,63.86727601893807,73.8129170392979,3.1933638009469036,1.1594505895534557,B,1072.142300195992,Incorrect,sub_005_day_07_data.csv,0,300,75.0,Training at home,,,,,,,,,,,,,
5,9,1888,B,75.53111998621736,47.51608206575081,3.776555999310869,0.7463808717256623,B,457.8277999535203,Correct,sub_005_day_07_data.csv,1,300,75.0,Training at home,,,,,,,,,,,,,
5,9,1889,B,65.84545130252003,34.17327803315091,3.2922725651260016,0.5367925960901417,B,533.8123999536037,Correct,sub_005_day_07_data.csv,1,300,75.0,Training at home,,,,,,,,,,,,,
5,9,1890,B,77.16949518605227,50.87777626341608,3.8584747593026134,0.7991862407006656,B,515.2521999552846,Correct,sub_005_day_07_data.csv,1,300,75.0,Training at home,,,,,,,,,,,,,
5,9,1891,A,62.31322811396928,73.78720098712266,3.1156614056984644,1.1590466427504904,A,549.9933999963105,Correct,sub_005_day_07_data.csv,1,300,75.0,Training at home,,,,,,,,,,,,,
5,9,1892,B,64.02943653026092,35.89594015719714,3.201471826513046,0.5638521094577469,B,518.2829999830574,Correct,sub_005_day_07_data.csv,1,300,75.0,Training at home,,,,,,,,,,,,,
5,9,1893,B,72.14167721198335,53.11854956366317,3.6070838605991673,0.8343842253927478,B,634.9029000848532,Correct,sub_005_day_07_data.csv,1,300,75.0,Training at home,,,,,,,,,,,,,
5,9,1894,B,54.76105226007108,34.02001704582548,2.7380526130035543,0.5343851781308243,B,437.5418999698013,Correct,sub_005_day_07_data.csv,1,300,75.0,Training at home,,,,,,,,,,,,,
5,9,1895,A,67.78377390190123,86.93958690145698,3.389188695095062,1.3656438375787432,A,615.3204999864101,Correct,sub_005_day_07_data.csv,1,300,75.0,Training at home,,,,,,,,,,,,,
5,9,1896,A,34.082035007481366,53.69426144579591,1.704101750374068,0.8434274864902105,A,504.3140000198037,Correct,sub_005_day_07_data.csv,1,300,75.0,Training at home,,,,,,,,,,,,,
5,9,1897,B,60.64929277688143,44.74829980440249,3.0324646388440715,0.7029046496307222,B,582.0957999676466,Correct,sub_005_day_07_data.csv,1,300,75.0,Training at home,,,,,,,,,,,,,
5,9,1898,B,60.473240951024216,31.63740980418942,3.023662047551211,0.4969592710972559,B,520.3461998607963,Correct,sub_005_day_07_data.csv,1,300,75.0,Training at home,,,,,,,,,,,,,
5,9,1899,A,20.78477874942558,37.157228768916795,1.0392389374712792,0.5836643846409215,A,460.92660003341734,Correct,sub_005_day_07_data.csv,1,300,75.0,Training at home,,,,,,,,,,,,,
5,9,1900,B,73.5359229164991,50.38208068898464,3.676796145824955,0.7913998728254116,B,574.258100008592,Correct,sub_005_day_07_data.csv,1,300,76.0,Training at home,,,,,,,,,,,,,
5,9,1901,A,61.46208477221344,84.62370623946771,3.073104238610672,1.3292660692072624,A,677.5569999590516,Correct,sub_005_day_07_data.csv,1,300,76.0,Training at home,,,,,,,,,,,,,
5,9,1902,A,57.349157485360976,76.49243238004786,2.867457874268049,1.2015403181018618,A,706.3909999560565,Correct,sub_005_day_07_data.csv,1,300,76.0,Training at home,,,,,,,,,,,,,
5,9,1903,B,34.479942101039,17.87172675082811,1.72399710505195,0.2807284273368288,B,598.8088001031429,Correct,sub_005_day_07_data.csv,1,300,76.0,Training at home,,,,,,,,,,,,,
5,9,1904,A,36.26831682512878,50.33541600704368,1.813415841256439,0.7906668657155724,A,988.7777999974788,Correct,sub_005_day_07_data.csv,1,300,76.0,Training at home,,,,,,,,,,,,,
5,9,1905,B,40.028994318475974,22.06427953036272,2.001449715923799,0.3465848923966958,B,613.0879998672754,Correct,sub_005_day_07_data.csv,1,300,76.0,Training at home,,,,,,,,,,,,,
5,9,1906,A,13.494775134551055,36.536022179761346,0.6747387567275527,0.5739064943566599,A,607.0240999106318,Correct,sub_005_day_07_data.csv,1,300,76.0,Training at home,,,,,,,,,,,,,
5,9,1907,B,53.66895314812379,32.97953146417796,2.6834476574061896,0.5180412688334746,B,565.969199873507,Correct,sub_005_day_07_data.csv,1,300,76.0,Training at home,,,,,,,,,,,,,
5,9,1908,A,37.75236546381608,53.303814344731265,1.887618273190804,0.8372943577686098,B,1373.2785999309272,Incorrect,sub_005_day_07_data.csv,0,300,76.0,Training at home,,,,,,,,,,,,,
5,9,1909,B,48.46013213102837,22.98805653419555,2.4230066065514184,0.3610955476406778,B,554.1690997779369,Correct,sub_005_day_07_data.csv,1,300,76.0,Training at home,,,,,,,,,,,,,
5,9,1910,A,40.938234089332234,68.03872760879425,2.046911704466612,1.068749834076925,A,779.8880999907851,Correct,sub_005_day_07_data.csv,1,300,76.0,Training at home,,,,,,,,,,,,,
5,9,1911,A,52.193386886873455,79.79565941003999,2.6096693443436725,1.2534272869546743,A,616.1319999955595,Correct,sub_005_day_07_data.csv,1,300,76.0,Training at home,,,,,,,,,,,,,
5,9,1912,B,77.88004838802479,65.52151454149016,3.894002419401239,1.0292095436781117,B,548.8442999776453,Correct,sub_005_day_07_data.csv,1,300,76.0,Training at home,,,,,,,,,,,,,
5,9,1913,A,12.881974211846586,36.762502025814214,0.6440987105923293,0.5774640314593891,A,509.5649999566376,Correct,sub_005_day_07_data.csv,1,300,76.0,Training at home,,,,,,,,,,,,,
5,9,1914,A,52.591551013221,75.32807698551578,2.62957755066105,1.1832506663337137,A,641.441100044176,Correct,sub_005_day_07_data.csv,1,300,76.0,Training at home,,,,,,,,,,,,,
5,9,1915,A,32.10698342928184,62.093239823240935,1.6053491714640922,0.9753583303314146,A,535.5805000290275,Correct,sub_005_day_07_data.csv,1,300,76.0,Training at home,,,,,,,,,,,,,
5,9,1916,A,57.04425076543839,84.94268732708957,2.8522125382719197,1.3342766124147971,A,548.2603998389095,Correct,sub_005_day_07_data.csv,1,300,76.0,Training at home,,,,,,,,,,,,,
5,9,1917,B,51.37589023971657,35.547027922200286,2.5687945119858284,0.5583714088866784,B,513.2431001402438,Correct,sub_005_day_07_data.csv,1,300,76.0,Training at home,,,,,,,,,,,,,
5,9,1918,B,35.64786983141362,23.84522701011175,1.7823934915706812,0.3745599499907399,B,572.6022999733686,Correct,sub_005_day_07_data.csv,1,300,76.0,Training at home,,,,,,,,,,,,,
5,9,1919,A,31.52269179379395,53.330639805316835,1.5761345896896974,0.8377157311181338,A,851.4602000359446,Correct,sub_005_day_07_data.csv,1,300,76.0,Training at home,,,,,,,,,,,,,
5,9,1920,A,56.836466487400955,83.61845581291499,2.841823324370048,1.313475632431882,A,603.1027999706566,Correct,sub_005_day_07_data.csv,1,300,76.0,Training at home,,,,,,,,,,,,,
5,9,1921,B,39.211533146234174,25.36978705723614,1.9605766573117085,0.3985076832107523,B,639.1705998685211,Correct,sub_005_day_07_data.csv,1,300,76.0,Training at home,,,,,,,,,,,,,
5,9,1922,A,31.25071000306413,63.47249003689001,1.5625355001532062,0.9970235420247248,A,846.3541001547128,Correct,sub_005_day_07_data.csv,1,300,76.0,Training at home,,,,,,,,,,,,,
5,9,1923,A,35.792671253621016,68.22667770942999,1.789633562681051,1.071702147353919,A,803.2461998518556,Correct,sub_005_day_07_data.csv,1,300,76.0,Training at home,,,,,,,,,,,,,
5,9,1924,B,32.888845157558706,19.071778665634177,1.6444422578779352,0.2995787987342344,B,616.4452999364585,Correct,sub_005_day_07_data.csv,1,300,76.0,Training at home,,,,,,,,,,,,,
5,9,1925,A,39.81621140684169,52.77604282020047,1.9908105703420844,0.8290041420474108,B,1091.1749000661075,Incorrect,sub_005_day_07_data.csv,0,300,77.0,Training at home,,,,,,,,,,,,,
5,9,1926,A,27.80992368545165,58.84039132329403,1.3904961842725825,0.9242627055780456,A,653.6969998851418,Correct,sub_005_day_07_data.csv,1,300,77.0,Training at home,,,,,,,,,,,,,
5,9,1927,B,74.3561783533267,44.30123636665913,3.7178089176663343,0.6958821935722066,B,608.5677000228316,Correct,sub_005_day_07_data.csv,1,300,77.0,Training at home,,,,,,,,,,,,,
5,9,1928,B,77.70782359866732,45.519523368771495,3.8853911799333662,0.7150190010512074,B,511.998699977994,Correct,sub_005_day_07_data.csv,1,300,77.0,Training at home,,,,,,,,,,,,,
5,9,1929,A,60.88766270625042,85.3194359223238,3.044383135312521,1.3401945655099878,A,548.1507999356836,Correct,sub_005_day_07_data.csv,1,300,77.0,Training at home,,,,,,,,,,,,,
5,9,1930,B,64.25469299501171,38.146679490540656,3.2127346497505855,0.5992066402316348,B,565.0020001921803,Correct,sub_005_day_07_data.csv,1,300,77.0,Training at home,,,,,,,,,,,,,
5,9,1931,B,54.771452999226334,45.728035405041474,2.7385726499613168,0.7182943004578614,B,647.9210001416504,Correct,sub_005_day_07_data.csv,1,300,77.0,Training at home,,,,,,,,,,,,,
5,9,1932,A,53.03557072788355,64.90547121183084,2.6517785363941777,1.0195327576843578,A,623.8033000845462,Correct,sub_005_day_07_data.csv,1,300,77.0,Training at home,,,,,,,,,,,,,
5,9,1933,B,81.29257845364657,57.67293564220947,4.064628922682329,0.905924354622611,B,487.1884000021964,Correct,sub_005_day_07_data.csv,1,300,77.0,Training at home,,,,,,,,,,,,,
5,9,1934,A,14.97329804777669,40.168292187622825,0.7486649023888345,0.6309620582194208,A,488.55139990337193,Correct,sub_005_day_07_data.csv,1,300,77.0,Training at home,,,,,,,,,,,,,
5,9,1935,A,50.75005763134385,60.230135824651896,2.5375028815671925,0.9460927611572092,B,551.8114999867976,Incorrect,sub_005_day_07_data.csv,0,300,77.0,Training at home,,,,,,,,,,,,,
5,9,1936,B,54.783253924715375,38.576498710822456,2.7391626962357685,0.6059582247556798,B,623.2203000690788,Correct,sub_005_day_07_data.csv,1,300,77.0,Training at home,,,,,,,,,,,,,
5,9,1937,B,70.03616996516415,55.022038702931134,3.5018084982582076,0.8642841628733086,B,544.2085999529809,Correct,sub_005_day_07_data.csv,1,300,77.0,Training at home,,,,,,,,,,,,,
5,9,1938,B,44.587621267849585,15.47463039513529,2.2293810633924793,0.2430749258318716,B,467.59589994326234,Correct,sub_005_day_07_data.csv,1,300,77.0,Training at home,,,,,,,,,,,,,
5,9,1939,A,13.373681363809132,34.507729939270504,0.6686840681904568,0.5420461543463639,A,544.9081000406295,Correct,sub_005_day_07_data.csv,1,300,77.0,Training at home,,,,,,,,,,,,,
5,9,1940,A,66.10125052986425,86.20984453424208,3.3050625264932125,1.3541810712794655,A,533.7060999590904,Correct,sub_005_day_07_data.csv,1,300,77.0,Training at home,,,,,,,,,,,,,
5,9,1941,A,67.41962787376225,79.65017311455217,3.3709813936881123,1.251141993569162,A,525.4601000342518,Correct,sub_005_day_07_data.csv,1,300,77.0,Training at home,,,,,,,,,,,,,
5,9,1942,A,59.90944944252494,76.7015084237564,2.995472472126247,1.2048244769166436,B,503.46269994042814,Incorrect,sub_005_day_07_data.csv,0,300,77.0,Training at home,,,,,,,,,,,,,
5,9,1943,A,41.62620473144671,53.406249960498705,2.0813102365723357,0.8389034126584145,A,721.0952998138964,Correct,sub_005_day_07_data.csv,1,300,77.0,Training at home,,,,,,,,,,,,,
5,9,1944,B,40.734385563316735,21.498680305258286,2.0367192781658368,0.337700480544375,B,474.0840001031757,Correct,sub_005_day_07_data.csv,1,300,77.0,Training at home,,,,,,,,,,,,,
5,9,1945,A,41.907670786921344,51.60544895084078,2.0953835393460674,0.8106164965458226,A,763.2263998966664,Correct,sub_005_day_07_data.csv,1,300,77.0,Training at home,,,,,,,,,,,,,
5,9,1946,A,38.52121643270218,52.15641996293231,1.926060821635109,0.819271128965461,A,481.4985000994057,Correct,sub_005_day_07_data.csv,1,300,77.0,Training at home,,,,,,,,,,,,,
5,9,1947,A,65.70080361548465,78.56776125219658,3.285040180774232,1.234139507794488,A,509.7159000579268,Correct,sub_005_day_07_data.csv,1,300,77.0,Training at home,,,,,,,,,,,,,
5,9,1948,A,57.56431215910352,65.43675516859163,2.878215607955176,1.027878146562007,A,628.0914999078959,Correct,sub_005_day_07_data.csv,1,300,77.0,Training at home,,,,,,,,,,,,,
5,9,1949,A,31.18492474134289,46.772328846755386,1.5592462370671445,0.7346980234812636,A,787.2850999701768,Correct,sub_005_day_07_data.csv,1,300,77.0,Training at home,,,,,,,,,,,,,
5,9,1950,A,56.04665821213912,84.55787242972352,2.802332910606956,1.3282319541420116,A,482.31750004924834,Correct,sub_005_day_07_data.csv,1,300,78.0,Training at home,,,,,,,,,,,,,
5,9,1951,B,31.22766753687736,11.100652069684688,1.561383376843868,0.1743686349608887,B,624.4081000331789,Correct,sub_005_day_07_data.csv,1,300,78.0,Training at home,,,,,,,,,,,,,
5,9,1952,A,52.88020113266457,68.50592986850317,2.6440100566332285,1.076088630011136,A,520.9852000698447,Correct,sub_005_day_07_data.csv,1,300,78.0,Training at home,,,,,,,,,,,,,
5,9,1953,B,46.75804136955763,33.95419928737014,2.3379020684778817,0.5333513151986291,B,586.6120001301169,Correct,sub_005_day_07_data.csv,1,300,78.0,Training at home,,,,,,,,,,,,,
5,9,1954,A,64.96316863155383,76.7334938712046,3.248158431577691,1.2053269031502687,A,721.7684001661837,Correct,sub_005_day_07_data.csv,1,300,78.0,Training at home,,,,,,,,,,,,,
5,9,1955,A,46.712557488452,54.79583250750973,2.3356278744226,0.8607309242646467,B,577.0896000321954,Incorrect,sub_005_day_07_data.csv,0,300,78.0,Training at home,,,,,,,,,,,,,
5,9,1956,B,41.458943886578965,13.488177627573688,2.072947194328948,0.2118717987254985,B,545.6211001146585,Correct,sub_005_day_07_data.csv,1,300,78.0,Training at home,,,,,,,,,,,,,
5,9,1957,B,79.32515448173099,51.08886671457161,3.9662577240865495,0.8025020417536313,B,625.9246999397874,Correct,sub_005_day_07_data.csv,1,300,78.0,Training at home,,,,,,,,,,,,,
5,9,1958,A,47.37546098316996,69.13210468533839,2.3687730491584977,1.085924561033298,A,481.32029990665615,Correct,sub_005_day_07_data.csv,1,300,78.0,Training at home,,,,,,,,,,,,,
5,9,1959,A,57.97113965941017,77.34790367637873,2.898556982970508,1.214978029801412,A,583.8910001330078,Correct,sub_005_day_07_data.csv,1,300,78.0,Training at home,,,,,,,,,,,,,
5,9,1960,A,36.88128211956099,65.85499520528184,1.8440641059780496,1.0344478456955224,A,654.4677999336272,Correct,sub_005_day_07_data.csv,1,300,78.0,Training at home,,,,,,,,,,,,,
5,9,1961,B,34.478428883208366,22.94301532531765,1.7239214441604185,0.3603880419860797,B,533.2150999456644,Correct,sub_005_day_07_data.csv,1,300,78.0,Training at home,,,,,,,,,,,,,
5,9,1962,A,33.552684851695815,59.08989043722817,1.6776342425847903,0.9281818284951092,A,496.0568998940289,Correct,sub_005_day_07_data.csv,1,300,78.0,Training at home,,,,,,,,,,,,,
5,9,1963,B,62.50712351041626,34.087306006843505,3.125356175520813,0.5354421506588338,B,467.0688998885453,Correct,sub_005_day_07_data.csv,1,300,78.0,Training at home,,,,,,,,,,,,,
5,9,1964,B,54.10294591519066,28.155234941005475,2.705147295759533,0.4422613962537872,B,537.8304000478238,Correct,sub_005_day_07_data.csv,1,300,78.0,Training at home,,,,,,,,,,,,,
5,9,1965,B,80.49647581585178,57.319961331669134,4.024823790792589,0.9003798471181139,B,485.76819989830256,Correct,sub_005_day_07_data.csv,1,300,78.0,Training at home,,,,,,,,,,,,,
5,9,1966,A,61.11521628696943,81.12382472420842,3.0557608143484716,1.274290058923396,A,495.2242998406291,Correct,sub_005_day_07_data.csv,1,300,78.0,Training at home,,,,,,,,,,,,,
5,9,1967,A,18.20090823644843,46.2792020448685,0.9100454118224216,0.7269520057907831,A,600.9879999328405,Correct,sub_005_day_07_data.csv,1,300,78.0,Training at home,,,,,,,,,,,,,
5,9,1968,A,44.59879411374396,74.03545047977676,2.2299397056871983,1.162946136662388,A,534.7738000564277,Correct,sub_005_day_07_data.csv,1,300,78.0,Training at home,,,,,,,,,,,,,
5,9,1969,A,11.08298365646112,35.199197605697634,0.554149182823056,0.5529077030515757,A,464.9795000441373,Correct,sub_005_day_07_data.csv,1,300,78.0,Training at home,,,,,,,,,,,,,
5,9,1970,B,57.40150013432212,24.90593467916273,2.8700750067161063,0.3912215070942245,B,495.85169996134937,Correct,sub_005_day_07_data.csv,1,300,78.0,Training at home,,,,,,,,,,,,,
5,9,1971,A,31.872682908634033,52.793093369810315,1.5936341454317016,0.8292719714543804,A,462.5281000044197,Correct,sub_005_day_07_data.csv,1,300,78.0,Training at home,,,,,,,,,,,,,
5,9,1972,A,38.12071944122988,71.16163328917195,1.906035972061494,1.1178043217935674,A,642.1271001454443,Correct,sub_005_day_07_data.csv,1,300,78.0,Training at home,,,,,,,,,,,,,
5,9,1973,B,55.31768573462597,26.854141145710212,2.7658842867312985,0.4218238627091329,B,384.3610000330955,Correct,sub_005_day_07_data.csv,1,300,78.0,Training at home,,,,,,,,,,,,,
5,9,1974,B,44.06158722119129,35.13877231796926,2.2030793610595647,0.5519585448514831,A,1025.3262999467552,Incorrect,sub_005_day_07_data.csv,0,300,78.0,Training at home,,,,,,,,,,,,,
5,9,1975,A,38.40841062737637,46.70101626328841,1.9204205313688183,0.7335778480396217,B,790.3839000500739,Incorrect,sub_005_day_07_data.csv,0,300,79.0,Training at home,,,,,,,,,,,,,
5,9,1976,B,58.05917718762616,34.63706094310642,2.9029588593813083,0.5440776810040254,B,522.4959999322891,Correct,sub_005_day_07_data.csv,1,300,79.0,Training at home,,,,,,,,,,,,,
5,9,1977,A,64.50868199982176,88.38934196086066,3.225434099991088,1.3884165367993797,A,561.6548000834882,Correct,sub_005_day_07_data.csv,1,300,79.0,Training at home,,,,,,,,,,,,,
5,9,1978,B,45.84426197609882,16.64492200927824,2.2922130988049414,0.2614578235196179,B,660.3723999578506,Correct,sub_005_day_07_data.csv,1,300,79.0,Training at home,,,,,,,,,,,,,
5,9,1979,A,30.465749195390167,39.825983975840614,1.5232874597695083,0.6255850934024285,B,520.0428001116961,Incorrect,sub_005_day_07_data.csv,0,300,79.0,Training at home,,,,,,,,,,,,,
5,9,1980,B,82.08666107462719,61.82706795269806,4.104333053731359,0.9711773123659658,B,493.30789991654456,Correct,sub_005_day_07_data.csv,1,300,79.0,Training at home,,,,,,,,,,,,,
5,9,1981,B,86.02957420269904,59.05616827397537,4.301478710134952,0.9276521219934182,B,505.73519989848137,Correct,sub_005_day_07_data.csv,1,300,79.0,Training at home,,,,,,,,,,,,,
5,9,1982,A,64.27126675870966,89.31085968273374,3.213563337935483,1.4028917033253256,A,551.8423998728395,Correct,sub_005_day_07_data.csv,1,300,79.0,Training at home,,,,,,,,,,,,,
5,9,1983,A,12.330731559404963,34.92037556913269,0.6165365779702482,0.5485279767429188,A,580.9307999443263,Correct,sub_005_day_07_data.csv,1,300,79.0,Training at home,,,,,,,,,,,,,
5,9,1984,B,65.87020387114883,35.41286374169804,3.2935101935574416,0.5562639628674746,B,397.4910001270473,Correct,sub_005_day_07_data.csv,1,300,79.0,Training at home,,,,,,,,,,,,,
5,9,1985,A,44.73427133873063,75.72193514219187,2.236713566936531,1.1894373757915635,A,643.7446000054479,Correct,sub_005_day_07_data.csv,1,300,79.0,Training at home,,,,,,,,,,,,,
5,9,1986,B,61.732816189600285,50.48293243886365,3.086640809480014,0.7929840484080194,B,403.5912998951971,Correct,sub_005_day_07_data.csv,1,300,79.0,Training at home,,,,,,,,,,,,,
5,9,1987,B,68.55169459436499,39.51320177104989,3.42758472971825,0.6206719220187077,B,444.0123999956995,Correct,sub_005_day_07_data.csv,1,300,79.0,Training at home,,,,,,,,,,,,,
5,9,1988,A,45.31620510458797,68.20351528099344,2.2658102552293986,1.071338312778841,A,504.7348001971841,Correct,sub_005_day_07_data.csv,1,300,79.0,Training at home,,,,,,,,,,,,,
5,9,1989,B,61.06921667899293,28.39877610830345,3.0534608339496465,0.4460869319639372,B,533.9190000668168,Correct,sub_005_day_07_data.csv,1,300,79.0,Training at home,,,,,,,,,,,,,
5,9,1990,A,47.56355506928632,67.26708936481808,2.378177753464316,1.0566289688844028,A,706.4797999337316,Correct,sub_005_day_07_data.csv,1,300,79.0,Training at home,,,,,,,,,,,,,
5,9,1991,A,29.31814424075816,44.27360041525538,1.465907212037908,0.6954480890626815,B,575.2593998331577,Incorrect,sub_005_day_07_data.csv,0,300,79.0,Training at home,,,,,,,,,,,,,
5,9,1992,A,14.459312164280128,43.76335914810955,0.7229656082140065,0.6874332379805632,A,499.1798000410199,Correct,sub_005_day_07_data.csv,1,300,79.0,Training at home,,,,,,,,,,,,,
5,9,1993,A,26.51382114654252,40.65139715328796,1.325691057327126,0.6385506532746524,A,471.7489001341164,Correct,sub_005_day_07_data.csv,1,300,79.0,Training at home,,,,,,,,,,,,,
5,9,1994,A,47.89112140794654,72.86090491067345,2.394556070397327,1.144496418006381,A,715.0835001375526,Correct,sub_005_day_07_data.csv,1,300,79.0,Training at home,,,,,,,,,,,,,
5,9,1995,A,61.52312046734177,83.79427140196591,3.0761560233670884,1.316237337246627,A,634.6207999158651,Correct,sub_005_day_07_data.csv,1,300,79.0,Training at home,,,,,,,,,,,,,
5,9,1996,A,35.05280966376642,67.91580701053616,1.7526404831883209,1.0668190018346126,A,538.4180000983179,Correct,sub_005_day_07_data.csv,1,300,79.0,Training at home,,,,,,,,,,,,,
5,9,1997,B,67.00096100144317,47.342032936171506,3.3500480500721586,0.7436469143914121,B,620.761200087145,Correct,sub_005_day_07_data.csv,1,300,79.0,Training at home,,,,,,,,,,,,,
5,9,1998,B,80.43065283930902,49.2463220265327,4.021532641965451,0.7735594174743616,B,518.6149999499321,Correct,sub_005_day_07_data.csv,1,300,79.0,Training at home,,,,,,,,,,,,,
5,9,1999,B,42.82437066312493,25.509881451637217,2.1412185331562466,0.40070828081205,B,561.0042999032885,Correct,sub_005_day_07_data.csv,1,300,79.0,Training at home,,,,,,,,,,,,,
5,9,2000,A,54.90671973488918,62.26195627760362,2.745335986744459,0.9780085221992424,B,1140.3711000457406,Incorrect,sub_005_day_07_data.csv,0,300,80.0,Training at home,,,,,,,,,,,,,
5,9,2001,A,17.495917929093387,43.796838574453375,0.8747958964546695,0.6879591315798039,A,524.2101999465376,Correct,sub_005_day_07_data.csv,1,300,80.0,Training at home,,,,,,,,,,,,,
5,9,2002,B,68.38553760881838,57.978227109581,3.419276880440919,0.9107198617781012,B,553.7415998987854,Correct,sub_005_day_07_data.csv,1,300,80.0,Training at home,,,,,,,,,,,,,
5,9,2003,A,35.17706150720974,68.33686826767308,1.7588530753604872,1.073433016595276,A,551.5201999805868,Correct,sub_005_day_07_data.csv,1,300,80.0,Training at home,,,,,,,,,,,,,
5,9,2004,B,75.14412689240791,59.41472112239698,3.757206344620396,0.9332842569660434,B,518.1356999091804,Correct,sub_005_day_07_data.csv,1,300,80.0,Training at home,,,,,,,,,,,,,
5,9,2005,B,44.3388202017921,33.91039754996163,2.216941010089605,0.5326632791163439,B,587.1925000101328,Correct,sub_005_day_07_data.csv,1,300,80.0,Training at home,,,,,,,,,,,,,
5,9,2006,B,61.84259040343478,50.423497809929,3.092129520171739,0.79205045143987,B,464.4897000398487,Correct,sub_005_day_07_data.csv,1,300,80.0,Training at home,,,,,,,,,,,,,
5,9,2007,B,64.27408835547159,48.45791280357244,3.213704417773579,0.7611751143599899,B,647.4359999410808,Correct,sub_005_day_07_data.csv,1,300,80.0,Training at home,,,,,,,,,,,,,
5,9,2008,A,37.33626578393899,53.98444591732519,1.8668132891969496,0.8479856935099215,A,487.823500065133,Correct,sub_005_day_07_data.csv,1,300,80.0,Training at home,,,,,,,,,,,,,
5,9,2009,B,83.40642738305674,53.865565062760695,4.170321369152837,0.84611831741316,B,507.709400029853,Correct,sub_005_day_07_data.csv,1,300,80.0,Training at home,,,,,,,,,,,,,
5,9,2010,A,57.87065220957402,71.23936572284663,2.893532610478701,1.1190253400064574,A,517.1572999097407,Correct,sub_005_day_07_data.csv,1,300,80.0,Training at home,,,,,,,,,,,,,
5,9,2011,A,41.432436685306705,49.33106078064611,2.071621834265335,0.774890490711347,A,670.4076000023633,Correct,sub_005_day_07_data.csv,1,300,80.0,Training at home,,,,,,,,,,,,,
5,9,2012,A,29.67807985123863,40.3612450035393,1.4839039925619315,0.6339929539642841,A,724.6389999054372,Correct,sub_005_day_07_data.csv,1,300,80.0,Training at home,,,,,,,,,,,,,
5,9,2013,B,85.36661164479088,57.71580254474941,4.268330582239543,0.9065977063531192,B,524.8722999822348,Correct,sub_005_day_07_data.csv,1,300,80.0,Training at home,,,,,,,,,,,,,
5,9,2014,B,73.15775784573127,42.59775256677034,3.6578878922865634,0.6691239326160072,B,501.01240002550185,Correct,sub_005_day_07_data.csv,1,300,80.0,Training at home,,,,,,,,,,,,,
5,9,2015,A,47.76825772545393,54.38093346710988,2.3884128862726963,0.8542137053781383,A,727.0620001945645,Correct,sub_005_day_07_data.csv,1,300,80.0,Training at home,,,,,,,,,,,,,
5,9,2016,B,55.06984513591824,42.26902933012115,2.753492256795912,0.6639603600894005,B,489.6688000299037,Correct,sub_005_day_07_data.csv,1,300,80.0,Training at home,,,,,,,,,,,,,
5,9,2017,B,86.65165227597878,69.86676422929129,4.332582613798939,1.0974645661641584,B,669.6701000910252,Correct,sub_005_day_07_data.csv,1,300,80.0,Training at home,,,,,,,,,,,,,
5,9,2018,B,40.62784935047957,18.496387222898026,2.0313924675239785,0.2905405710870427,B,669.8537000920624,Correct,sub_005_day_07_data.csv,1,300,80.0,Training at home,,,,,,,,,,,,,
5,9,2019,B,45.3616895561272,33.9989594017203,2.26808447780636,0.5340544054307106,B,563.8582999818027,Correct,sub_005_day_07_data.csv,1,300,80.0,Training at home,,,,,,,,,,,,,
5,9,2020,B,32.56544345784104,14.674524038930093,1.6282721728920522,0.2305068845781479,B,695.1070998329669,Correct,sub_005_day_07_data.csv,1,300,80.0,Training at home,,,,,,,,,,,,,
5,9,2021,A,38.04444023050343,64.02330421418249,1.9022220115251716,1.0056757108891008,A,595.9857997950166,Correct,sub_005_day_07_data.csv,1,300,80.0,Training at home,,,,,,,,,,,,,
5,9,2022,B,69.49715682107787,39.90304537373661,3.4748578410538933,0.6267955710099555,B,511.4349001087248,Correct,sub_005_day_07_data.csv,1,300,80.0,Training at home,,,,,,,,,,,,,
5,9,2023,A,12.875578273940274,30.36392799430926,0.6437789136970138,0.4769554656052571,A,561.7098999209702,Correct,sub_005_day_07_data.csv,1,300,80.0,Training at home,,,,,,,,,,,,,
5,9,2024,B,60.29323867279726,49.42874661702042,3.014661933639863,0.7764249362409135,B,454.66429996304214,Correct,sub_005_day_07_data.csv,1,300,80.0,Training at home,,,,,,,,,,,,,
5,9,2025,A,18.388717426880117,49.45670803994838,0.9194358713440058,0.7768641532451855,A,666.5968999732286,Correct,sub_005_day_07_data.csv,1,300,81.0,Training at home,,,,,,,,,,,,,
5,9,2026,B,58.36560080542596,37.58691019831459,2.918280040271298,0.590413804750822,B,493.5339998919517,Correct,sub_005_day_07_data.csv,1,300,81.0,Training at home,,,,,,,,,,,,,
5,9,2027,A,30.07155666864748,58.74868968251092,1.503577833432374,0.922822259573014,A,586.8198999669403,Correct,sub_005_day_07_data.csv,1,300,81.0,Training at home,,,,,,,,,,,,,
5,9,2028,B,47.08601868587425,21.68083938700897,2.3543009342937125,0.340561828709438,B,515.0506000500172,Correct,sub_005_day_07_data.csv,1,300,81.0,Training at home,,,,,,,,,,,,,
5,9,2029,A,48.26007805430646,62.172185389389405,2.413003902715323,0.976598404384642,A,565.8660000190139,Correct,sub_005_day_07_data.csv,1,300,81.0,Training at home,,,,,,,,,,,,,
5,9,2030,B,56.61459780469223,24.43178880059689,2.8307298902346116,0.3837736410500628,B,631.6184001043439,Correct,sub_005_day_07_data.csv,1,300,81.0,Training at home,,,,,,,,,,,,,
5,9,2031,B,85.93910702614397,68.62005216101366,4.296955351307199,1.077881258789945,B,670.2782001812011,Correct,sub_005_day_07_data.csv,1,300,81.0,Training at home,,,,,,,,,,,,,
5,9,2032,A,26.50359756147976,44.96967875631356,1.3251798780739878,0.7063820620756384,A,505.0524000544101,Correct,sub_005_day_07_data.csv,1,300,81.0,Training at home,,,,,,,,,,,,,
5,9,2033,A,10.795349295197608,31.69554389169439,0.5397674647598804,0.4978724392083997,A,971.9446001108736,Correct,sub_005_day_07_data.csv,1,300,81.0,Training at home,,,,,,,,,,,,,
5,9,2034,B,41.50783179005333,19.52890290470338,2.0753915895026664,0.3067592894904225,B,487.1279001235962,Correct,sub_005_day_07_data.csv,1,300,81.0,Training at home,,,,,,,,,,,,,
5,9,2035,A,27.968678312713593,38.171474231470214,1.3984339156356795,0.5995961151113947,A,944.9066000524908,Correct,sub_005_day_07_data.csv,1,300,81.0,Training at home,,,,,,,,,,,,,
5,9,2036,B,41.07649937727638,32.810719601118734,2.053824968863819,0.5153895782893462,B,432.41110001690686,Correct,sub_005_day_07_data.csv,1,300,81.0,Training at home,,,,,,,,,,,,,
5,9,2037,B,61.47904003902026,35.8087103146716,3.073952001951014,0.5624819062954867,B,699.0509999450296,Correct,sub_005_day_07_data.csv,1,300,81.0,Training at home,,,,,,,,,,,,,
5,9,2038,A,23.33362604728798,55.23034077757162,1.166681302364399,0.8675561642103987,A,490.97930011339486,Correct,sub_005_day_07_data.csv,1,300,81.0,Training at home,,,,,,,,,,,,,
5,9,2039,A,64.38159369025833,75.22370804722144,3.2190796845129164,1.1816112428846712,A,492.3073002137244,Correct,sub_005_day_07_data.csv,1,300,81.0,Training at home,,,,,,,,,,,,,
5,9,2040,A,14.048280513469209,41.61545775069984,0.7024140256734605,0.653694081726875,A,639.3375999759883,Correct,sub_005_day_07_data.csv,1,300,81.0,Training at home,,,,,,,,,,,,,
5,9,2041,A,51.23389744908704,75.04913900808259,2.561694872454352,1.1788691188301572,A,750.5206998903304,Correct,sub_005_day_07_data.csv,1,300,81.0,Training at home,,,,,,,,,,,,,
5,9,2042,B,81.23321794638406,52.0328194070612,4.061660897319203,0.8173296159739394,B,788.1519999355078,Correct,sub_005_day_07_data.csv,1,300,81.0,Training at home,,,,,,,,,,,,,
5,9,2043,A,29.942646939916383,39.098490384952086,1.497132346995819,0.6141576507990831,A,456.2957000453025,Correct,sub_005_day_07_data.csv,1,300,81.0,Training at home,,,,,,,,,,,,,
5,9,2044,B,77.78138718619051,47.03863860072342,3.889069359309526,0.7388812073144897,B,623.1605000793934,Correct,sub_005_day_07_data.csv,1,300,81.0,Training at home,,,,,,,,,,,,,
5,9,2045,A,33.93606491501607,44.17312740702526,1.696803245750803,0.6938698627399825,A,723.1555997859687,Correct,sub_005_day_07_data.csv,1,300,81.0,Training at home,,,,,,,,,,,,,
5,9,2046,A,48.06332958080807,77.02431382042283,2.4031664790404035,1.209895092230176,A,452.7574998792261,Correct,sub_005_day_07_data.csv,1,300,81.0,Training at home,,,,,,,,,,,,,
5,9,2047,A,59.59568759322756,80.28281303064907,2.979784379661378,1.2610794781330503,A,723.4626000281423,Correct,sub_005_day_07_data.csv,1,300,81.0,Training at home,,,,,,,,,,,,,
5,9,2048,B,69.04177024789367,39.291944432715454,3.4520885123946834,0.6171964198753863,B,553.588799899444,Correct,sub_005_day_07_data.csv,1,300,81.0,Training at home,,,,,,,,,,,,,
5,9,2049,B,60.619961368634634,51.97086538519524,3.0309980684317317,0.8163564444741671,B,634.7616000566632,Correct,sub_005_day_07_data.csv,1,300,81.0,Training at home,,,,,,,,,,,,,
5,9,2050,A,54.364960598563506,76.7633453764706,2.718248029928175,1.2057958094984802,A,495.62330008484423,Correct,sub_005_day_07_data.csv,1,300,82.0,Training at home,,,,,,,,,,,,,
5,9,2051,B,40.8272585389383,16.72222787411514,2.041362926946915,0.262672141204873,B,504.2576999403536,Correct,sub_005_day_07_data.csv,1,300,82.0,Training at home,,,,,,,,,,,,,
5,9,2052,A,34.283104320540254,45.11587020716416,1.7141552160270126,0.7086784320156877,A,418.899699812755,Correct,sub_005_day_07_data.csv,1,300,82.0,Training at home,,,,,,,,,,,,,
5,9,2053,A,47.56029684981521,65.8867700771775,2.378014842490761,1.034946964216103,A,491.7822000570595,Correct,sub_005_day_07_data.csv,1,300,82.0,Training at home,,,,,,,,,,,,,
5,9,2054,B,73.82155834975543,52.623243335727686,3.691077917487772,0.8266039733579507,B,497.2139000892639,Correct,sub_005_day_07_data.csv,1,300,82.0,Training at home,,,,,,,,,,,,,
5,9,2055,B,61.35185713597299,46.30964374385157,3.0675928567986492,0.7274301828802231,B,445.17170009203255,Correct,sub_005_day_07_data.csv,1,300,82.0,Training at home,,,,,,,,,,,,,
5,9,2056,B,56.066579091899705,35.63818752293177,2.803328954594985,0.5598033405464894,A,606.7956001497805,Incorrect,sub_005_day_07_data.csv,0,300,82.0,Training at home,,,,,,,,,,,,,
5,9,2057,B,67.42554657761475,41.39353805539244,3.3712773288807374,0.6502081753045521,B,834.6879000309855,Correct,sub_005_day_07_data.csv,1,300,82.0,Training at home,,,,,,,,,,,,,
5,9,2058,A,46.988034582595205,69.34103158027813,2.3494017291297604,1.089206377024698,A,736.9620001409203,Correct,sub_005_day_07_data.csv,1,300,82.0,Training at home,,,,,,,,,,,,,
5,9,2059,B,54.48380988453257,32.88352880628156,2.7241904942266286,0.5165332626096124,B,458.7826000060886,Correct,sub_005_day_07_data.csv,1,300,82.0,Training at home,,,,,,,,,,,,,
5,9,2060,B,49.3914030294961,39.87566592745861,2.4695701514748047,0.626365495673524,B,706.2158000189811,Correct,sub_005_day_07_data.csv,1,300,82.0,Training at home,,,,,,,,,,,,,
5,9,2061,A,31.311550635315783,44.87233504101739,1.565577531765789,0.7048529905714004,A,490.88559998199344,Correct,sub_005_day_07_data.csv,1,300,82.0,Training at home,,,,,,,,,,,,,
5,9,2062,A,41.73251612169805,74.0894168288404,2.086625806084902,1.163793838091185,A,467.67789986915886,Correct,sub_005_day_07_data.csv,1,300,82.0,Training at home,,,,,,,,,,,,,
5,9,2063,B,39.74504568613716,22.757733599389088,1.987252284306858,0.3574776434409717,B,521.6523001436144,Correct,sub_005_day_07_data.csv,1,300,82.0,Training at home,,,,,,,,,,,,,
5,9,2064,B,56.05995478346151,24.52967094108875,2.8029977391730756,0.3853111701174972,B,554.6975000761449,Correct,sub_005_day_07_data.csv,1,300,82.0,Training at home,,,,,,,,,,,,,
5,9,2065,A,51.82680095425312,58.77692293782813,2.591340047712656,0.9232657465104712,B,918.5226000845432,Incorrect,sub_005_day_07_data.csv,0,300,82.0,Training at home,,,,,,,,,,,,,
5,9,2066,B,57.66791265382115,34.744786364009855,2.883395632691057,0.5457698279586009,B,742.534700082615,Correct,sub_005_day_07_data.csv,1,300,82.0,Training at home,,,,,,,,,,,,,
5,9,2067,B,69.57092762124437,58.68159359522659,3.4785463810622184,0.9217683166985284,B,431.03269999846816,Correct,sub_005_day_07_data.csv,1,300,82.0,Training at home,,,,,,,,,,,,,
5,9,2068,B,70.82044206673058,58.46907363092232,3.541022103336529,0.9184300609055314,B,428.13579994253814,Correct,sub_005_day_07_data.csv,1,300,82.0,Training at home,,,,,,,,,,,,,
5,9,2069,B,53.8891610761064,31.041094542098406,2.69445805380532,0.4875923728642129,B,431.27319985069335,Correct,sub_005_day_07_data.csv,1,300,82.0,Training at home,,,,,,,,,,,,,
5,9,2070,A,16.520631621907256,46.397660253349024,0.8260315810953628,0.7288127429783823,A,484.08900015056133,Correct,sub_005_day_07_data.csv,1,300,82.0,Training at home,,,,,,,,,,,,,
5,9,2071,B,60.61891374333969,28.797264116787773,3.0309456871669846,0.4523463669639271,B,369.5082999765873,Correct,sub_005_day_07_data.csv,1,300,82.0,Training at home,,,,,,,,,,,,,
5,9,2072,A,43.20376203848283,52.34869877465332,2.1601881019241413,0.8222914374771793,A,469.1486998926848,Correct,sub_005_day_07_data.csv,1,300,82.0,Training at home,,,,,,,,,,,,,
5,9,2073,B,87.50588819781512,65.10885259954958,4.375294409890756,1.0227274650520284,B,427.8804000932723,Correct,sub_005_day_07_data.csv,1,300,82.0,Training at home,,,,,,,,,,,,,
5,9,2074,A,18.672069262812546,41.752703120995584,0.9336034631406273,0.6558499269621767,A,479.8546999227256,Correct,sub_005_day_07_data.csv,1,300,82.0,Training at home,,,,,,,,,,,,,
5,9,2075,A,50.088250699326906,68.82569366897741,2.5044125349663453,1.0811114680434049,A,677.2028999403119,Correct,sub_005_day_07_data.csv,1,300,83.0,Training at home,,,,,,,,,,,,,
5,9,2076,A,17.017098138628317,39.26441804522729,0.8508549069314157,0.6167640363918229,A,437.2145999222994,Correct,sub_005_day_07_data.csv,1,300,83.0,Training at home,,,,,,,,,,,,,
5,9,2077,B,54.529866573005975,46.73063465267655,2.7264933286502986,0.7340430926121864,B,469.2742000333965,Correct,sub_005_day_07_data.csv,1,300,83.0,Training at home,,,,,,,,,,,,,
5,9,2078,B,84.00708555387057,57.232169973307656,4.2003542776935285,0.8990008236857283,B,554.9386001657695,Correct,sub_005_day_07_data.csv,1,300,83.0,Training at home,,,,,,,,,,,,,
5,9,2079,A,61.13399116069731,72.93545091554566,3.056699558034866,1.145667383912686,A,527.9469999950379,Correct,sub_005_day_07_data.csv,1,300,83.0,Training at home,,,,,,,,,,,,,
5,9,2080,A,63.37628895142265,77.70372161480839,3.168814447571133,1.2205672049083425,A,629.2462002020329,Correct,sub_005_day_07_data.csv,1,300,83.0,Training at home,,,,,,,,,,,,,
5,9,2081,A,16.70286121985842,38.504684457319634,0.835143060992921,0.6048301690995423,A,479.3940999079496,Correct,sub_005_day_07_data.csv,1,300,83.0,Training at home,,,,,,,,,,,,,
5,9,2082,B,54.08744272190973,21.972435518212,2.7043721360954867,0.3451422100274512,B,566.2825000472367,Correct,sub_005_day_07_data.csv,1,300,83.0,Training at home,,,,,,,,,,,,,
5,9,2083,A,13.53154487367113,41.85379232277795,0.6765772436835564,0.6574378324305604,A,475.1681999769062,Correct,sub_005_day_07_data.csv,1,300,83.0,Training at home,,,,,,,,,,,,,
5,9,2084,B,35.764389828689936,21.67626863014958,1.7882194914344969,0.340490031428584,B,578.7159998435527,Correct,sub_005_day_07_data.csv,1,300,83.0,Training at home,,,,,,,,,,,,,
5,9,2085,A,22.50533231236768,36.268403700040565,1.1252666156183837,0.5697027531073816,A,543.3252998627722,Correct,sub_005_day_07_data.csv,1,300,83.0,Training at home,,,,,,,,,,,,,
5,9,2086,A,48.69497391741246,80.1954778155991,2.434748695870623,1.2597076197830468,A,552.2859999909997,Correct,sub_005_day_07_data.csv,1,300,83.0,Training at home,,,,,,,,,,,,,
5,9,2087,B,61.435145799293714,45.843683969741875,3.071757289964686,0.7201109038641663,B,514.5018000621349,Correct,sub_005_day_07_data.csv,1,300,83.0,Training at home,,,,,,,,,,,,,
5,9,2088,B,81.91812036243422,62.18061320654783,4.0959060181217115,0.9767307882269955,A,511.5573999937624,Incorrect,sub_005_day_07_data.csv,0,300,83.0,Training at home,,,,,,,,,,,,,
5,9,2089,A,43.5249801683272,71.64530297200561,2.17624900841636,1.125401787405339,A,452.5970001704991,Correct,sub_005_day_07_data.csv,1,300,83.0,Training at home,,,,,,,,,,,,,
5,9,2090,A,34.434597439045795,53.62545500432492,1.7217298719522898,0.8423466774349859,A,466.0239999648184,Correct,sub_005_day_07_data.csv,1,300,83.0,Training at home,,,,,,,,,,,,,
5,9,2091,B,48.951803279763126,25.22561572124008,2.4475901639881563,0.3962430451606352,B,531.3395999837667,Correct,sub_005_day_07_data.csv,1,300,83.0,Training at home,,,,,,,,,,,,,
5,9,2092,A,29.20821322697917,39.83206051992758,1.4604106613489585,0.6256805435337426,A,424.4029999244958,Correct,sub_005_day_07_data.csv,1,300,83.0,Training at home,,,,,,,,,,,,,
5,9,2093,B,31.102147723130436,12.157516671358856,1.5551073861565217,0.190969825303182,B,627.755300141871,Correct,sub_005_day_07_data.csv,1,300,83.0,Training at home,,,,,,,,,,,,,
5,9,2094,A,37.6557496099292,61.99115327283814,1.88278748049646,0.9737547585475358,A,527.8501000721008,Correct,sub_005_day_07_data.csv,1,300,83.0,Training at home,,,,,,,,,,,,,
5,9,2095,A,65.67770071982451,81.16209873737091,3.283885035991226,1.2748912657162694,A,620.0267998501658,Correct,sub_005_day_07_data.csv,1,300,83.0,Training at home,,,,,,,,,,,,,
5,9,2096,B,38.2453650647513,12.760901082011522,1.9122682532375648,0.2004477654621672,B,637.7006999682635,Correct,sub_005_day_07_data.csv,1,300,83.0,Training at home,,,,,,,,,,,,,
5,9,2097,B,67.39168621454047,53.17308684065426,3.3695843107270234,0.8352408949364576,B,470.6682998221368,Correct,sub_005_day_07_data.csv,1,300,83.0,Training at home,,,,,,,,,,,,,
5,9,2098,A,47.42576440590143,61.667568997726534,2.3712882202950714,0.9686719086399967,A,509.4380001537502,Correct,sub_005_day_07_data.csv,1,300,83.0,Training at home,,,,,,,,,,,,,
5,9,2099,A,34.43116560103565,66.21007669133078,1.7215582800517826,1.0400254526355082,A,424.353800015524,Correct,sub_005_day_07_data.csv,1,300,83.0,Training at home,,,,,,,,,,,,,
