subject,day,trial,cat,x,y,xt,yt,resp,rt,fb,f_name,acc,n_trials,block,session_type,ns_left_digit,ns_right_digit,ns_left_size,ns_right_size,ns_congruent,ns_cue,ns_correct_side,ns_resp,ns_rt,ns_fb,acc_stroop,acc_stroop_mean,resp_key
5,17,3600,B,33.477613260034076,11.960667857892986,1.6738806630017038,0.1878777313719208,B,593.1178997270763,Correct,sub_005_day_13_data.csv,1,300,144.0,Training at home,,,,,,,,,,,,,
5,17,3601,B,49.51953463738696,28.8709972174816,2.475976731869348,0.4535045638012578,B,564.8094001226127,Correct,sub_005_day_13_data.csv,1,300,144.0,Training at home,,,,,,,,,,,,,
5,17,3602,B,61.73783237841708,40.8906261269937,3.0868916189208537,0.6423084532062513,B,415.85889970883727,Correct,sub_005_day_13_data.csv,1,300,144.0,Training at home,,,,,,,,,,,,,
5,17,3603,A,26.437195845646784,52.8302500312963,1.3218597922823392,0.8298556269281618,A,494.21440018340945,Correct,sub_005_day_13_data.csv,1,300,144.0,Training at home,,,,,,,,,,,,,
5,17,3604,B,38.83721965355765,12.656568731413056,1.9418609826778828,0.1988089167313077,B,483.65489998832345,Correct,sub_005_day_13_data.csv,1,300,144.0,Training at home,,,,,,,,,,,,,
5,17,3605,A,53.21348525584654,75.4506912495145,2.660674262792327,1.185176686688732,A,418.81849989295006,Correct,sub_005_day_13_data.csv,1,300,144.0,Training at home,,,,,,,,,,,,,
5,17,3606,B,39.771093703842766,28.14548411630659,1.9885546851921383,0.442108230657585,B,374.7191997244954,Correct,sub_005_day_13_data.csv,1,300,144.0,Training at home,,,,,,,,,,,,,
5,17,3607,A,52.243287960016666,79.33730714356136,2.612164398000833,1.246227506389047,A,446.8649001792073,Correct,sub_005_day_13_data.csv,1,300,144.0,Training at home,,,,,,,,,,,,,
5,17,3608,A,37.50769211937913,70.73287415938552,1.8753846059689565,1.1110693891320844,A,491.3748996332288,Correct,sub_005_day_13_data.csv,1,300,144.0,Training at home,,,,,,,,,,,,,
5,17,3609,A,58.58154019896389,81.23214755745661,2.929077009948195,1.2759915900091388,A,414.4554999656975,Correct,sub_005_day_13_data.csv,1,300,144.0,Training at home,,,,,,,,,,,,,
5,17,3610,B,73.66433479705621,49.78331174466571,3.6832167398528104,0.7819944322420613,B,416.3345997221768,Correct,sub_005_day_13_data.csv,1,300,144.0,Training at home,,,,,,,,,,,,,
5,17,3611,A,50.802225172336016,74.47966274800811,2.540111258616801,1.1699238066549384,B,555.2289998158813,Incorrect,sub_005_day_13_data.csv,0,300,144.0,Training at home,,,,,,,,,,,,,
5,17,3612,B,45.20564949242983,15.39457101927646,2.260282474621491,0.2418173560966262,B,471.0778999142349,Correct,sub_005_day_13_data.csv,1,300,144.0,Training at home,,,,,,,,,,,,,
5,17,3613,B,77.02887830481761,53.50642412266409,3.8514439152408806,0.8404769447181061,B,485.8062001876533,Correct,sub_005_day_13_data.csv,1,300,144.0,Training at home,,,,,,,,,,,,,
5,17,3614,A,39.429295482124154,68.44236717906969,1.9714647741062077,1.0750901896203024,A,482.93490009382367,Correct,sub_005_day_13_data.csv,1,300,144.0,Training at home,,,,,,,,,,,,,
5,17,3615,A,59.77323429014964,80.01268839792087,2.988661714507482,1.2568363703243874,A,484.57759991288185,Correct,sub_005_day_13_data.csv,1,300,144.0,Training at home,,,,,,,,,,,,,
5,17,3616,B,63.05214943798579,29.764238882376752,3.1526074718992896,0.4675355710628324,B,420.6056999973953,Correct,sub_005_day_13_data.csv,1,300,144.0,Training at home,,,,,,,,,,,,,
5,17,3617,B,72.5906383465701,56.37255541899265,3.629531917328505,0.8854980298419538,B,489.9104000069201,Correct,sub_005_day_13_data.csv,1,300,144.0,Training at home,,,,,,,,,,,,,
5,17,3618,B,37.39995404062442,26.816464559552816,1.8699977020312213,0.4212320402777109,B,461.43960021436214,Correct,sub_005_day_13_data.csv,1,300,144.0,Training at home,,,,,,,,,,,,,
5,17,3619,A,44.92594600799282,55.15868255315743,2.246297300399641,0.8664305594534544,A,500.3929999656975,Correct,sub_005_day_13_data.csv,1,300,144.0,Training at home,,,,,,,,,,,,,
5,17,3620,B,73.65906927618887,61.56565791597548,3.682953463809444,0.9670710931112544,B,543.7361998483539,Correct,sub_005_day_13_data.csv,1,300,144.0,Training at home,,,,,,,,,,,,,
5,17,3621,B,71.33858594629207,38.37013909647566,3.5669292973146036,0.6027167355135322,B,439.4744001328945,Correct,sub_005_day_13_data.csv,1,300,144.0,Training at home,,,,,,,,,,,,,
5,17,3622,B,45.061836338437686,26.552397028899193,2.2530918169218843,0.4170840772059458,A,439.2857002094388,Incorrect,sub_005_day_13_data.csv,0,300,144.0,Training at home,,,,,,,,,,,,,
5,17,3623,A,53.23013468863081,69.45092187032515,2.6615067344315406,1.090932529664261,A,563.8950001448393,Correct,sub_005_day_13_data.csv,1,300,144.0,Training at home,,,,,,,,,,,,,
5,17,3624,A,49.744928050862455,71.85421881565709,2.4872464025431227,1.1286834298035089,A,489.62599970400333,Correct,sub_005_day_13_data.csv,1,300,144.0,Training at home,,,,,,,,,,,,,
5,17,3625,A,52.598425017498144,67.26464772177042,2.629921250874907,1.0565906156450968,A,479.6741004101932,Correct,sub_005_day_13_data.csv,1,300,145.0,Training at home,,,,,,,,,,,,,
5,17,3626,B,82.4608739786888,53.78463293328345,4.12304369893444,0.8448470384961346,B,464.22689966857433,Correct,sub_005_day_13_data.csv,1,300,145.0,Training at home,,,,,,,,,,,,,
5,17,3627,B,51.105658817140224,23.225136275982713,2.5552829408570115,0.3648195875162454,B,430.30460039153695,Correct,sub_005_day_13_data.csv,1,300,145.0,Training at home,,,,,,,,,,,,,
5,17,3628,A,52.593211878464054,74.83426979464349,2.629660593923203,1.1754939611180426,A,555.292900186032,Correct,sub_005_day_13_data.csv,1,300,145.0,Training at home,,,,,,,,,,,,,
5,17,3629,A,39.62164579766994,47.585078743365344,1.981082289883497,0.7474646690032419,B,531.1041004024446,Incorrect,sub_005_day_13_data.csv,0,300,145.0,Training at home,,,,,,,,,,,,,
5,17,3630,A,12.427051203149542,36.940389016669215,0.6213525601574772,0.5802582737775854,A,470.1442001387477,Correct,sub_005_day_13_data.csv,1,300,145.0,Training at home,,,,,,,,,,,,,
5,17,3631,A,42.45215931754644,55.942460417784424,2.122607965877322,0.8787421133612467,A,564.3484001047909,Correct,sub_005_day_13_data.csv,1,300,145.0,Training at home,,,,,,,,,,,,,
5,17,3632,A,15.22404460557292,44.05490171222379,0.761202230278646,0.6920127778687133,A,443.2187001220882,Correct,sub_005_day_13_data.csv,1,300,145.0,Training at home,,,,,,,,,,,,,
5,17,3633,A,59.778828799756425,76.77609505474125,2.988941439987821,1.2059960809764336,A,596.2256998755038,Correct,sub_005_day_13_data.csv,1,300,145.0,Training at home,,,,,,,,,,,,,
5,17,3634,B,71.88309863609362,55.30207555004064,3.594154931804681,0.868682971381377,B,527.9624997638166,Correct,sub_005_day_13_data.csv,1,300,145.0,Training at home,,,,,,,,,,,,,
5,17,3635,B,70.57116303335715,54.09588254527669,3.5285581516678577,0.8497361359684878,B,478.5072999075055,Correct,sub_005_day_13_data.csv,1,300,145.0,Training at home,,,,,,,,,,,,,
5,17,3636,A,27.35373504123787,39.90918923673674,1.3676867520618936,0.6268920785842849,A,471.6568998992443,Correct,sub_005_day_13_data.csv,1,300,145.0,Training at home,,,,,,,,,,,,,
5,17,3637,B,57.76680350842665,26.526546418257496,2.888340175421332,0.4166780167635319,B,442.8989998996258,Correct,sub_005_day_13_data.csv,1,300,145.0,Training at home,,,,,,,,,,,,,
5,17,3638,A,30.41446799778999,47.23540878843207,1.5207233998894996,0.7419720661952447,A,511.5017998032272,Correct,sub_005_day_13_data.csv,1,300,145.0,Training at home,,,,,,,,,,,,,
5,17,3639,B,45.787124290606144,33.063783778394594,2.289356214530307,0.5193647010904291,B,479.16109999641776,Correct,sub_005_day_13_data.csv,1,300,145.0,Training at home,,,,,,,,,,,,,
5,17,3640,B,52.41135152878428,33.21617324061701,2.620567576439214,0.5217584291654414,B,423.0172000825405,Correct,sub_005_day_13_data.csv,1,300,145.0,Training at home,,,,,,,,,,,,,
5,17,3641,B,80.48005705133536,62.72172079948672,4.024002852566769,0.985230486420888,B,534.8582998849452,Correct,sub_005_day_13_data.csv,1,300,145.0,Training at home,,,,,,,,,,,,,
5,17,3642,A,19.218950766142477,47.66937426328948,0.960947538307124,0.7487887799338628,A,421.5237000025809,Correct,sub_005_day_13_data.csv,1,300,145.0,Training at home,,,,,,,,,,,,,
5,17,3643,B,39.94921602015672,16.3880892970352,1.997460801007836,0.2574235047096965,B,568.2645998895168,Correct,sub_005_day_13_data.csv,1,300,145.0,Training at home,,,,,,,,,,,,,
5,17,3644,B,67.68764152922381,37.47903201211202,3.3843820764611907,0.5887192581645391,B,496.7288998886943,Correct,sub_005_day_13_data.csv,1,300,145.0,Training at home,,,,,,,,,,,,,
5,17,3645,B,49.58237869482481,40.408827713742824,2.479118934741241,0.6347403814283504,B,1191.9983001425862,Correct,sub_005_day_13_data.csv,1,300,145.0,Training at home,,,,,,,,,,,,,
5,17,3646,A,62.033708405978985,72.5154963607114,3.1016854202989492,1.1390707531911417,A,542.2085002064705,Correct,sub_005_day_13_data.csv,1,300,145.0,Training at home,,,,,,,,,,,,,
5,17,3647,B,38.418478331674834,21.27161731738128,1.9209239165837415,0.3341337834712922,B,775.9710000827909,Correct,sub_005_day_13_data.csv,1,300,145.0,Training at home,,,,,,,,,,,,,
5,17,3648,A,34.85510880985531,67.43702522399687,1.7427554404927657,1.0592983151182906,A,542.3344001173973,Correct,sub_005_day_13_data.csv,1,300,145.0,Training at home,,,,,,,,,,,,,
5,17,3649,A,48.32803414536533,60.567636806782566,2.416401707268266,0.9513942141874142,A,1020.7328996621072,Correct,sub_005_day_13_data.csv,1,300,145.0,Training at home,,,,,,,,,,,,,
5,17,3650,B,74.95966581800597,57.39828533276854,3.747983290900299,0.901610157650382,B,447.3795001395046,Correct,sub_005_day_13_data.csv,1,300,146.0,Training at home,,,,,,,,,,,,,
5,17,3651,A,40.64709726456784,68.21204844704162,2.032354863228392,1.0714723514376852,A,485.53259996697307,Correct,sub_005_day_13_data.csv,1,300,146.0,Training at home,,,,,,,,,,,,,
5,17,3652,B,43.87076516174107,15.307329468298835,2.1935382580870537,0.2404469690184309,B,411.2416002899408,Correct,sub_005_day_13_data.csv,1,300,146.0,Training at home,,,,,,,,,,,,,
5,17,3653,A,28.623761844228746,50.93532601447945,1.4311880922114373,0.8000902300764486,A,556.4876003190875,Correct,sub_005_day_13_data.csv,1,300,146.0,Training at home,,,,,,,,,,,,,
5,17,3654,A,33.96140405176974,43.89561233008946,1.6980702025884868,0.689510666105173,A,572.6204002276063,Correct,sub_005_day_13_data.csv,1,300,146.0,Training at home,,,,,,,,,,,,,
5,17,3655,B,44.537390534781615,30.88132363385817,2.226869526739081,0.4850826973062884,B,912.5627004541456,Correct,sub_005_day_13_data.csv,1,300,146.0,Training at home,,,,,,,,,,,,,
5,17,3656,B,54.887875677365514,40.735690502332616,2.7443937838682757,0.6398747301051783,B,1082.5630999170244,Correct,sub_005_day_13_data.csv,1,300,146.0,Training at home,,,,,,,,,,,,,
5,17,3657,B,52.13986379750074,28.114910009795093,2.606993189875037,0.441627973715552,B,510.9954001381994,Correct,sub_005_day_13_data.csv,1,300,146.0,Training at home,,,,,,,,,,,,,
5,17,3658,A,43.56181483150512,69.82551592766926,2.1780907415752555,1.096816639357414,A,470.335700083524,Correct,sub_005_day_13_data.csv,1,300,146.0,Training at home,,,,,,,,,,,,,
5,17,3659,A,47.42472815348152,54.26022352112565,2.371236407674076,0.8523175979805422,A,409.0462001040578,Correct,sub_005_day_13_data.csv,1,300,146.0,Training at home,,,,,,,,,,,,,
5,17,3660,B,72.49222387678103,62.7332995533415,3.624611193839052,0.9854123650611276,B,514.1827999614179,Correct,sub_005_day_13_data.csv,1,300,146.0,Training at home,,,,,,,,,,,,,
5,17,3661,B,76.4256902367535,57.542290456754344,3.821284511837675,0.9038721848483474,B,554.9594997428358,Correct,sub_005_day_13_data.csv,1,300,146.0,Training at home,,,,,,,,,,,,,
5,17,3662,A,49.84179048838536,78.3546155276505,2.492089524419268,1.2307914225825978,A,463.2704998366534,Correct,sub_005_day_13_data.csv,1,300,146.0,Training at home,,,,,,,,,,,,,
5,17,3663,B,53.606218545240985,46.30430021608123,2.6803109272620493,0.7273462469422854,B,493.5888000763953,Correct,sub_005_day_13_data.csv,1,300,146.0,Training at home,,,,,,,,,,,,,
5,17,3664,A,48.15972077117424,58.31314470769327,2.407986038558712,0.9159807351070384,A,470.310800243169,Correct,sub_005_day_13_data.csv,1,300,146.0,Training at home,,,,,,,,,,,,,
5,17,3665,B,75.83880957131244,59.22278652261388,3.7919404785656217,0.930269355322802,B,506.0793999582529,Correct,sub_005_day_13_data.csv,1,300,146.0,Training at home,,,,,,,,,,,,,
5,17,3666,A,32.000035684643805,42.9421283812036,1.6000017842321903,0.674533375259495,A,421.0999999195338,Correct,sub_005_day_13_data.csv,1,300,146.0,Training at home,,,,,,,,,,,,,
5,17,3667,A,25.390503326967703,43.45817597325549,1.269525166348385,0.6826394318799596,A,469.9971997179091,Correct,sub_005_day_13_data.csv,1,300,146.0,Training at home,,,,,,,,,,,,,
5,17,3668,B,49.13118531533404,35.311673333847224,2.456559265766702,0.5546744676578852,B,482.3423996567726,Correct,sub_005_day_13_data.csv,1,300,146.0,Training at home,,,,,,,,,,,,,
5,17,3669,A,26.18337009643834,39.88171059838387,1.309168504821917,0.6264604451423849,A,434.7716998308897,Correct,sub_005_day_13_data.csv,1,300,146.0,Training at home,,,,,,,,,,,,,
5,17,3670,B,70.94786765745363,56.14684517048164,3.5473933828726816,0.8819525815491432,B,393.8126000575721,Correct,sub_005_day_13_data.csv,1,300,146.0,Training at home,,,,,,,,,,,,,
5,17,3671,A,28.749166864368163,51.72012588935994,1.4374583432184085,0.8124178376837623,A,406.50499984622,Correct,sub_005_day_13_data.csv,1,300,146.0,Training at home,,,,,,,,,,,,,
5,17,3672,B,49.974199152348234,29.90641043211002,2.498709957617412,0.46976879654379,B,412.62139985337853,Correct,sub_005_day_13_data.csv,1,300,146.0,Training at home,,,,,,,,,,,,,
5,17,3673,A,50.04225661487449,73.60776012441241,2.5021128307437244,1.1562279922702687,A,406.2852999195457,Correct,sub_005_day_13_data.csv,1,300,146.0,Training at home,,,,,,,,,,,,,
5,17,3674,B,68.21012112866326,39.098357943761414,3.4105060564331633,0.614155570417725,B,437.2974997386336,Correct,sub_005_day_13_data.csv,1,300,146.0,Training at home,,,,,,,,,,,,,
5,17,3675,A,16.35202686533451,46.75799631306316,0.8176013432667254,0.7344728885684891,A,470.1646999455989,Correct,sub_005_day_13_data.csv,1,300,147.0,Training at home,,,,,,,,,,,,,
5,17,3676,A,19.912289198375767,45.55216036960092,0.9956144599187884,0.7155316618614118,A,498.10330010950565,Correct,sub_005_day_13_data.csv,1,300,147.0,Training at home,,,,,,,,,,,,,
5,17,3677,A,45.627340164271345,61.17760137659107,2.281367008213567,0.9609755152447168,B,477.52040019258857,Incorrect,sub_005_day_13_data.csv,0,300,147.0,Training at home,,,,,,,,,,,,,
5,17,3678,A,68.2284178504835,86.11388048794444,3.4114208925241747,1.3526736715651786,A,625.7234001532197,Correct,sub_005_day_13_data.csv,1,300,147.0,Training at home,,,,,,,,,,,,,
5,17,3679,A,43.45760681336587,75.37477915401239,2.1728803406682937,1.183984262280992,A,455.76429972425103,Correct,sub_005_day_13_data.csv,1,300,147.0,Training at home,,,,,,,,,,,,,
5,17,3680,A,22.53419247189265,54.68715257819816,1.1267096235946326,0.8590237839270572,A,658.3463000133634,Correct,sub_005_day_13_data.csv,1,300,147.0,Training at home,,,,,,,,,,,,,
5,17,3681,B,42.73014809945974,18.545450536346983,2.136507404972987,0.2913112558125029,B,662.5337000004947,Correct,sub_005_day_13_data.csv,1,300,147.0,Training at home,,,,,,,,,,,,,
5,17,3682,B,74.62755768985096,64.25840572204659,3.731377884492548,1.0093686767388697,B,600.5335999652743,Correct,sub_005_day_13_data.csv,1,300,147.0,Training at home,,,,,,,,,,,,,
5,17,3683,A,50.48965917249991,80.38713478631482,2.5244829586249953,1.2627181604390958,A,486.79659981280565,Correct,sub_005_day_13_data.csv,1,300,147.0,Training at home,,,,,,,,,,,,,
5,17,3684,B,60.35895591088676,44.76781868510919,3.0179477955443383,0.7032112514918946,B,437.0921002700925,Correct,sub_005_day_13_data.csv,1,300,147.0,Training at home,,,,,,,,,,,,,
5,17,3685,A,11.182726577485091,33.698129531632425,0.5591363288742546,0.5293289808814684,A,391.5865998715162,Correct,sub_005_day_13_data.csv,1,300,147.0,Training at home,,,,,,,,,,,,,
5,17,3686,B,77.3196806886006,53.00910754876297,3.86598403443003,0.8326651142427249,B,391.6076999157667,Correct,sub_005_day_13_data.csv,1,300,147.0,Training at home,,,,,,,,,,,,,
5,17,3687,B,46.143920193454605,19.806782659703448,2.3071960096727304,0.3111242144748702,B,454.3586000800133,Correct,sub_005_day_13_data.csv,1,300,147.0,Training at home,,,,,,,,,,,,,
5,17,3688,A,42.193411383775555,59.48334762768086,2.109670569188778,0.93436223959025,B,564.1211997717619,Incorrect,sub_005_day_13_data.csv,0,300,147.0,Training at home,,,,,,,,,,,,,
5,17,3689,B,64.79743399049302,50.3615271994706,3.2398716995246506,0.7910770193670971,B,563.3590002544224,Correct,sub_005_day_13_data.csv,1,300,147.0,Training at home,,,,,,,,,,,,,
5,17,3690,A,58.20339490607961,75.25262088435336,2.9101697453039805,1.1820654046683117,A,472.3994000814855,Correct,sub_005_day_13_data.csv,1,300,147.0,Training at home,,,,,,,,,,,,,
5,17,3691,B,68.65516963248557,57.05362027081682,3.4327584816242784,0.8961961715174992,B,530.5734998546541,Correct,sub_005_day_13_data.csv,1,300,147.0,Training at home,,,,,,,,,,,,,
5,17,3692,A,66.47501418884525,77.72776511094044,3.3237507094422627,1.2209448792624171,A,572.5969998165965,Correct,sub_005_day_13_data.csv,1,300,147.0,Training at home,,,,,,,,,,,,,
5,17,3693,B,38.63562561215922,29.4354217842883,1.931781280607961,0.4623705241641854,B,586.5076999180019,Correct,sub_005_day_13_data.csv,1,300,147.0,Training at home,,,,,,,,,,,,,
5,17,3694,A,39.604054809511794,68.49307640565125,1.9802027404755895,1.0758867282887918,A,529.5010004192591,Correct,sub_005_day_13_data.csv,1,300,147.0,Training at home,,,,,,,,,,,,,
5,17,3695,A,16.91760342323369,45.28783079885539,0.8458801711616845,0.7113795826735084,A,473.87839993461967,Correct,sub_005_day_13_data.csv,1,300,147.0,Training at home,,,,,,,,,,,,,
5,17,3696,A,41.31864782997109,67.636767439739,2.0659323914985546,1.062435858506227,A,525.2493000589311,Correct,sub_005_day_13_data.csv,1,300,147.0,Training at home,,,,,,,,,,,,,
5,17,3697,A,64.18555140412741,78.62687967685352,3.2092775702063703,1.2350681378374582,A,439.968999940902,Correct,sub_005_day_13_data.csv,1,300,147.0,Training at home,,,,,,,,,,,,,
5,17,3698,B,72.10061321222096,47.95907258267859,3.605030660611048,0.7533393504936134,B,495.6255997531116,Correct,sub_005_day_13_data.csv,1,300,147.0,Training at home,,,,,,,,,,,,,
5,17,3699,A,27.088612999919754,53.3304261069991,1.3544306499959875,0.8377123743528085,A,554.2656998150051,Correct,sub_005_day_13_data.csv,1,300,147.0,Training at home,,,,,,,,,,,,,
5,17,3700,A,56.26652428895822,69.00098432874127,2.8133262144479114,1.0838649272881902,A,544.1887001506984,Correct,sub_005_day_13_data.csv,1,300,148.0,Training at home,,,,,,,,,,,,,
5,17,3701,B,87.0992724885967,62.70551425119672,4.354963624429835,0.9849759145556484,B,535.2031998336315,Correct,sub_005_day_13_data.csv,1,300,148.0,Training at home,,,,,,,,,,,,,
5,17,3702,A,58.44868494408627,74.38610759453358,2.9224342472043134,1.1684542457406333,A,650.5076000466943,Correct,sub_005_day_13_data.csv,1,300,148.0,Training at home,,,,,,,,,,,,,
5,17,3703,B,57.560434454671615,43.8083826258999,2.8780217227335805,0.6881404651158893,B,539.5579002797604,Correct,sub_005_day_13_data.csv,1,300,148.0,Training at home,,,,,,,,,,,,,
5,17,3704,B,76.81118921495022,45.84444023493466,3.840559460747511,0.7201227832500352,B,1071.78040035069,Correct,sub_005_day_13_data.csv,1,300,148.0,Training at home,,,,,,,,,,,,,
5,17,3705,A,64.62879012677122,75.32994591432026,3.231439506338561,1.1832800233987248,A,475.7366999983787,Correct,sub_005_day_13_data.csv,1,300,148.0,Training at home,,,,,,,,,,,,,
5,17,3706,A,33.48798446673472,48.79494827827457,1.6743992233367362,0.7664692552166066,A,721.2869999930263,Correct,sub_005_day_13_data.csv,1,300,148.0,Training at home,,,,,,,,,,,,,
5,17,3707,B,73.64485829081171,56.29708744066407,3.682242914540586,0.8843125816104622,B,543.1009000167251,Correct,sub_005_day_13_data.csv,1,300,148.0,Training at home,,,,,,,,,,,,,
5,17,3708,A,32.780077695363566,65.71736379770968,1.6390038847681785,1.0322859366008628,A,892.0297999866307,Correct,sub_005_day_13_data.csv,1,300,148.0,Training at home,,,,,,,,,,,,,
5,17,3709,A,12.119710409194589,36.8111492528123,0.6059855204597294,0.5782281803141627,A,496.9608001410961,Correct,sub_005_day_13_data.csv,1,300,148.0,Training at home,,,,,,,,,,,,,
5,17,3710,B,66.77604072789117,46.8692173884164,3.3388020363945587,0.7362199451347597,B,667.3375000245869,Correct,sub_005_day_13_data.csv,1,300,148.0,Training at home,,,,,,,,,,,,,
5,17,3711,B,54.06323580456571,26.047945716142955,2.703161790228285,0.4091601745147021,B,629.4164001010358,Correct,sub_005_day_13_data.csv,1,300,148.0,Training at home,,,,,,,,,,,,,
5,17,3712,A,37.45946236685041,65.69694771466214,1.8729731183425204,1.0319652415182767,A,899.1009998135269,Correct,sub_005_day_13_data.csv,1,300,148.0,Training at home,,,,,,,,,,,,,
5,17,3713,A,34.479803076575074,55.83531662490905,1.723990153828754,0.8770591025983715,A,509.4824000261724,Correct,sub_005_day_13_data.csv,1,300,148.0,Training at home,,,,,,,,,,,,,
5,17,3714,A,53.76040943748015,71.73225384669598,2.6880204718740073,1.1267676085510911,A,553.3386999741197,Correct,sub_005_day_13_data.csv,1,300,148.0,Training at home,,,,,,,,,,,,,
5,17,3715,B,53.7387981136534,36.62047575502029,2.68693990568267,0.5752330880146743,B,937.4644998461008,Correct,sub_005_day_13_data.csv,1,300,148.0,Training at home,,,,,,,,,,,,,
5,17,3716,A,23.139091351931903,44.708012649045536,1.156954567596595,0.702271820474205,A,798.6147999763489,Correct,sub_005_day_13_data.csv,1,300,148.0,Training at home,,,,,,,,,,,,,
5,17,3717,B,65.60326505617186,43.541238017830715,3.280163252808593,0.683944167425108,B,640.6521997414529,Correct,sub_005_day_13_data.csv,1,300,148.0,Training at home,,,,,,,,,,,,,
5,17,3718,A,68.05731576111779,89.08592516183623,3.4028657880558897,1.3993584401333738,A,406.0300998389721,Correct,sub_005_day_13_data.csv,1,300,148.0,Training at home,,,,,,,,,,,,,
5,17,3719,A,41.48368074705854,56.358425901593584,2.0741840373529272,0.8852760839016556,A,445.1219998300075,Correct,sub_005_day_13_data.csv,1,300,148.0,Training at home,,,,,,,,,,,,,
5,17,3720,A,43.04691047305358,64.03895415539907,2.152345523652679,1.0059215395908765,A,495.9249999374151,Correct,sub_005_day_13_data.csv,1,300,148.0,Training at home,,,,,,,,,,,,,
5,17,3721,A,34.25329230988338,59.836649858046435,1.7126646154941687,0.9399118980473172,A,426.25509994104505,Correct,sub_005_day_13_data.csv,1,300,148.0,Training at home,,,,,,,,,,,,,
5,17,3722,B,61.07351708317701,37.82959709648568,3.0536758541588505,0.5942259216329059,B,594.0287001430988,Correct,sub_005_day_13_data.csv,1,300,148.0,Training at home,,,,,,,,,,,,,
5,17,3723,B,73.57287410535483,43.95556776496948,3.678643705267741,0.6904524438739822,B,500.06370013579726,Correct,sub_005_day_13_data.csv,1,300,148.0,Training at home,,,,,,,,,,,,,
5,17,3724,A,33.18365162503376,42.048285065685434,1.6591825812516878,0.6604929172920337,A,454.3352001346648,Correct,sub_005_day_13_data.csv,1,300,148.0,Training at home,,,,,,,,,,,,,
5,17,3725,B,57.165561151239025,44.40612308077204,2.858278057561951,0.697529750224788,B,508.76339990645647,Correct,sub_005_day_13_data.csv,1,300,149.0,Training at home,,,,,,,,,,,,,
5,17,3726,B,65.51463276147456,57.647807192804414,3.275731638073728,0.905529637862376,B,393.7388001941145,Correct,sub_005_day_13_data.csv,1,300,149.0,Training at home,,,,,,,,,,,,,
5,17,3727,A,54.60683662724077,79.05859416745359,2.7303418313620385,1.2418494931980453,A,1060.5020001530647,Correct,sub_005_day_13_data.csv,1,300,149.0,Training at home,,,,,,,,,,,,,
5,17,3728,A,21.364323487629896,43.38685596393044,1.0682161743814946,0.6815191397932117,A,463.06189987808466,Correct,sub_005_day_13_data.csv,1,300,149.0,Training at home,,,,,,,,,,,,,
5,17,3729,A,26.85031857745593,49.23778483748721,1.3425159288727966,0.7734253156224236,A,463.7425001710654,Correct,sub_005_day_13_data.csv,1,300,149.0,Training at home,,,,,,,,,,,,,
5,17,3730,B,84.77129280306262,63.39140223157814,4.238564640153132,0.9957498177574076,B,535.8652002178133,Correct,sub_005_day_13_data.csv,1,300,149.0,Training at home,,,,,,,,,,,,,
5,17,3731,A,49.21949705212292,64.21526200884576,2.460974852606146,1.008690976876668,A,500.6551998667419,Correct,sub_005_day_13_data.csv,1,300,149.0,Training at home,,,,,,,,,,,,,
5,17,3732,A,55.69084925361796,69.06443275521113,2.784542462680898,1.0848615728405877,A,666.81810002774,Correct,sub_005_day_13_data.csv,1,300,149.0,Training at home,,,,,,,,,,,,,
5,17,3733,B,63.35719200124704,33.57394182290343,3.167859600062352,0.5273782449144225,B,469.98600009828806,Correct,sub_005_day_13_data.csv,1,300,149.0,Training at home,,,,,,,,,,,,,
5,17,3734,A,35.802735701836326,63.69206691543264,1.7901367850918164,1.000472647567363,A,419.1093002445996,Correct,sub_005_day_13_data.csv,1,300,149.0,Training at home,,,,,,,,,,,,,
5,17,3735,B,60.75251410793827,29.352842314063793,3.0376257053969136,0.4610733688792122,B,475.0034003518522,Correct,sub_005_day_13_data.csv,1,300,149.0,Training at home,,,,,,,,,,,,,
5,17,3736,A,27.652017384787513,53.37855092830184,1.3826008692393756,0.8384683172781086,A,426.1902002617717,Correct,sub_005_day_13_data.csv,1,300,149.0,Training at home,,,,,,,,,,,,,
5,17,3737,B,68.22395606003529,44.40525791721443,3.411197803001764,0.6975161602674043,B,424.1696000099182,Correct,sub_005_day_13_data.csv,1,300,149.0,Training at home,,,,,,,,,,,,,
5,17,3738,B,59.92620113485651,42.66592504717397,2.996310056742826,0.6701947834340723,B,612.128300126642,Correct,sub_005_day_13_data.csv,1,300,149.0,Training at home,,,,,,,,,,,,,
5,17,3739,A,47.05242321013684,73.8588981074729,2.352621160506842,1.1601728584833697,A,469.6414000354707,Correct,sub_005_day_13_data.csv,1,300,149.0,Training at home,,,,,,,,,,,,,
5,17,3740,B,76.19461788056608,51.07361422079667,3.809730894028304,0.8022624561416701,B,521.5161996893585,Correct,sub_005_day_13_data.csv,1,300,149.0,Training at home,,,,,,,,,,,,,
5,17,3741,A,20.128830759752343,38.306378231694666,1.0064415379876173,0.6017151821916197,A,591.9361002743244,Correct,sub_005_day_13_data.csv,1,300,149.0,Training at home,,,,,,,,,,,,,
5,17,3742,A,25.8994684419094,49.918622249693186,1.2949734220954698,0.7841198846848005,A,834.2150999233127,Correct,sub_005_day_13_data.csv,1,300,149.0,Training at home,,,,,,,,,,,,,
5,17,3743,B,76.37514991456044,55.26297721005553,3.818757495728022,0.8680688160930531,B,826.9739001989365,Correct,sub_005_day_13_data.csv,1,300,149.0,Training at home,,,,,,,,,,,,,
5,17,3744,A,62.901790511670534,76.50273938232422,3.145089525583527,1.2017022201150216,A,456.2436998821795,Correct,sub_005_day_13_data.csv,1,300,149.0,Training at home,,,,,,,,,,,,,
5,17,3745,A,57.29054666266056,72.74054726331292,2.864527333133028,1.1426058445026248,A,531.6557004116476,Correct,sub_005_day_13_data.csv,1,300,149.0,Training at home,,,,,,,,,,,,,
5,17,3746,A,52.98315527909469,69.7550403413905,2.649157763954735,1.0957096114368603,A,700.7019999437034,Correct,sub_005_day_13_data.csv,1,300,149.0,Training at home,,,,,,,,,,,,,
5,17,3747,A,30.09273752385159,45.154977244982184,1.5046368761925797,0.7092927239292516,A,462.1890000998974,Correct,sub_005_day_13_data.csv,1,300,149.0,Training at home,,,,,,,,,,,,,
5,17,3748,A,53.21650293287553,74.30795251305666,2.660825146643776,1.16722658859159,A,444.0263998694718,Correct,sub_005_day_13_data.csv,1,300,149.0,Training at home,,,,,,,,,,,,,
5,17,3749,A,39.82199127324673,49.8912621288384,1.9910995636623363,0.783690112911407,A,467.758699785918,Correct,sub_005_day_13_data.csv,1,300,149.0,Training at home,,,,,,,,,,,,,
5,17,3750,A,42.93399147608575,68.56373378261476,2.1466995738042876,1.0769966117707443,A,500.914900097996,Correct,sub_005_day_13_data.csv,1,300,150.0,Training at home,,,,,,,,,,,,,
5,17,3751,A,31.849250660640557,52.96078223866326,1.592462533032028,0.8319060220467663,A,455.7624999433756,Correct,sub_005_day_13_data.csv,1,300,150.0,Training at home,,,,,,,,,,,,,
5,17,3752,A,49.85689373340848,80.28263077327408,2.492844686670424,1.2610766152408983,A,449.7096999548376,Correct,sub_005_day_13_data.csv,1,300,150.0,Training at home,,,,,,,,,,,,,
5,17,3753,B,59.8631961438959,42.27417619170123,2.993159807194795,0.6640412068020455,B,519.7871997952461,Correct,sub_005_day_13_data.csv,1,300,150.0,Training at home,,,,,,,,,,,,,
5,17,3754,B,31.612732235717015,16.393978825662405,1.5806366117858508,0.2575160172090381,A,421.8543996103108,Incorrect,sub_005_day_13_data.csv,0,300,150.0,Training at home,,,,,,,,,,,,,
5,17,3755,B,74.2300235482896,43.83466579643783,3.71150117741448,0.6885533201932643,B,441.0620001144707,Correct,sub_005_day_13_data.csv,1,300,150.0,Training at home,,,,,,,,,,,,,
5,17,3756,B,36.22453961275238,11.035907946041537,1.811226980637619,0.1733516366448865,B,584.2662998475134,Correct,sub_005_day_13_data.csv,1,300,150.0,Training at home,,,,,,,,,,,,,
5,17,3757,A,44.642364011834815,70.2656985606441,2.232118200591741,1.103731011987372,A,565.0705001316965,Correct,sub_005_day_13_data.csv,1,300,150.0,Training at home,,,,,,,,,,,,,
5,17,3758,A,22.46906539857759,48.816455205464806,1.1234532699288795,0.7668070852389174,A,497.97070026397705,Correct,sub_005_day_13_data.csv,1,300,150.0,Training at home,,,,,,,,,,,,,
5,17,3759,A,24.983215069486857,40.35410945243035,1.249160753474343,0.6338808689895681,A,491.2336003035307,Correct,sub_005_day_13_data.csv,1,300,150.0,Training at home,,,,,,,,,,,,,
5,17,3760,B,36.330932744523835,24.44914590840158,1.816546637226192,0.3840462858618967,B,442.8443997167051,Correct,sub_005_day_13_data.csv,1,300,150.0,Training at home,,,,,,,,,,,,,
5,17,3761,B,49.17998904432664,19.96411803186979,2.458999452216332,0.3135956327216083,B,377.3998999968171,Correct,sub_005_day_13_data.csv,1,300,150.0,Training at home,,,,,,,,,,,,,
5,17,3762,A,32.58051184908359,49.20750514118763,1.6290255924541797,0.7729496832651852,A,443.46779957413673,Correct,sub_005_day_13_data.csv,1,300,150.0,Training at home,,,,,,,,,,,,,
5,17,3763,A,20.12049644581232,39.1514126590836,1.006024822290616,0.6149889519371973,A,464.10859981551766,Correct,sub_005_day_13_data.csv,1,300,150.0,Training at home,,,,,,,,,,,,,
5,17,3764,B,55.12173396579466,24.40198292362088,2.756086698289733,0.3833054514293545,B,408.0256000161171,Correct,sub_005_day_13_data.csv,1,300,150.0,Training at home,,,,,,,,,,,,,
5,17,3765,A,67.25439916096036,81.01613927847501,3.362719958048018,1.272598539897323,A,559.0488999150693,Correct,sub_005_day_13_data.csv,1,300,150.0,Training at home,,,,,,,,,,,,,
5,17,3766,B,51.22464815061576,34.07299199308605,2.5612324075307877,0.5352173066565148,B,687.8158003091812,Correct,sub_005_day_13_data.csv,1,300,150.0,Training at home,,,,,,,,,,,,,
5,17,3767,A,15.972053984570085,43.08875795540333,0.7986026992285042,0.6768366272250192,A,521.452599670738,Correct,sub_005_day_13_data.csv,1,300,150.0,Training at home,,,,,,,,,,,,,
5,17,3768,A,42.340068308998504,72.20155660655774,2.117003415449925,1.134139399064547,A,471.0972998291254,Correct,sub_005_day_13_data.csv,1,300,150.0,Training at home,,,,,,,,,,,,,
5,17,3769,A,40.60884491005694,54.17941766615141,2.030442245502847,0.8510483025787716,A,868.6742996796966,Correct,sub_005_day_13_data.csv,1,300,150.0,Training at home,,,,,,,,,,,,,
5,17,3770,B,44.846587749986206,34.40182965559342,2.24232938749931,0.5403826765802988,B,514.4563000649214,Correct,sub_005_day_13_data.csv,1,300,150.0,Training at home,,,,,,,,,,,,,
5,17,3771,A,27.554461415276016,41.56066102738784,1.3777230707638009,0.6528333368098862,A,409.9908000789583,Correct,sub_005_day_13_data.csv,1,300,150.0,Training at home,,,,,,,,,,,,,
5,17,3772,A,46.37335551946386,70.74357137090172,2.318667775973193,1.1112374205376505,A,1005.91540010646,Correct,sub_005_day_13_data.csv,1,300,150.0,Training at home,,,,,,,,,,,,,
5,17,3773,B,78.37788689011195,59.36489821765785,3.9188943445055977,0.9325016406084986,B,525.431000161916,Correct,sub_005_day_13_data.csv,1,300,150.0,Training at home,,,,,,,,,,,,,
5,17,3774,B,72.54240412688839,45.79576912547691,3.627120206344419,0.7193582592504626,B,377.9542003758252,Correct,sub_005_day_13_data.csv,1,300,150.0,Training at home,,,,,,,,,,,,,
5,17,3775,A,25.307352459718167,37.757893912251575,1.2653676229859083,0.5930996106487615,A,506.85560004785657,Correct,sub_005_day_13_data.csv,1,300,151.0,Training at home,,,,,,,,,,,,,
5,17,3776,A,63.265043684916456,75.08670860305882,3.1632521842458226,1.1794592606480356,B,530.4469000548124,Incorrect,sub_005_day_13_data.csv,0,300,151.0,Training at home,,,,,,,,,,,,,
5,17,3777,B,85.32626099610052,67.83270301316296,4.266313049805026,1.0655136072964548,B,538.3911998942494,Correct,sub_005_day_13_data.csv,1,300,151.0,Training at home,,,,,,,,,,,,,
5,17,3778,A,51.42860329587771,79.46333377500451,2.571430164793885,1.2482071280865392,A,517.4463000148535,Correct,sub_005_day_13_data.csv,1,300,151.0,Training at home,,,,,,,,,,,,,
5,17,3779,B,55.471413691391334,25.895568862227556,2.7735706845695667,0.4067666444905134,B,554.2695000767708,Correct,sub_005_day_13_data.csv,1,300,151.0,Training at home,,,,,,,,,,,,,
5,17,3780,B,49.88494968921802,21.346702324613535,2.494247484460901,0.3353132160068702,B,464.14840035140514,Correct,sub_005_day_13_data.csv,1,300,151.0,Training at home,,,,,,,,,,,,,
5,17,3781,A,43.850785467059595,68.4679107450497,2.19253927335298,1.0754914270164493,A,618.3811998926103,Correct,sub_005_day_13_data.csv,1,300,151.0,Training at home,,,,,,,,,,,,,
5,17,3782,B,72.74219287793306,63.04353648243534,3.637109643896653,0.9902855553476948,B,478.9745998568833,Correct,sub_005_day_13_data.csv,1,300,151.0,Training at home,,,,,,,,,,,,,
5,17,3783,B,67.678619481662,42.4405790772039,3.3839309740831,0.6666550572152024,B,484.26129994913936,Correct,sub_005_day_13_data.csv,1,300,151.0,Training at home,,,,,,,,,,,,,
5,17,3784,B,45.450512942544755,27.51032465845049,2.2725256471272375,0.4321311692242909,B,576.662499923259,Correct,sub_005_day_13_data.csv,1,300,151.0,Training at home,,,,,,,,,,,,,
5,17,3785,A,13.151142175436371,34.36076653539243,0.6575571087718187,0.5397376585965143,A,465.4990001581609,Correct,sub_005_day_13_data.csv,1,300,151.0,Training at home,,,,,,,,,,,,,
5,17,3786,A,19.183539671715284,49.780414624466104,0.9591769835857642,0.781948924384383,A,495.84259977564216,Correct,sub_005_day_13_data.csv,1,300,151.0,Training at home,,,,,,,,,,,,,
5,17,3787,A,46.67848844643969,58.52286978290295,2.3339244223219846,0.9192750888848,B,422.2880001179874,Incorrect,sub_005_day_13_data.csv,0,300,151.0,Training at home,,,,,,,,,,,,,
5,17,3788,B,75.00268464571595,51.08068830167093,3.750134232285797,0.8023735755441974,B,501.6071000136435,Correct,sub_005_day_13_data.csv,1,300,151.0,Training at home,,,,,,,,,,,,,
5,17,3789,A,43.25244673371916,74.26065192971649,2.162622336685958,1.16648359276593,A,461.6451999172568,Correct,sub_005_day_13_data.csv,1,300,151.0,Training at home,,,,,,,,,,,,,
5,17,3790,B,56.5629233115882,45.01772269128559,2.82814616557941,0.7071367344414268,B,489.46259962394834,Correct,sub_005_day_13_data.csv,1,300,151.0,Training at home,,,,,,,,,,,,,
5,17,3791,A,11.482788411753958,36.49037259670436,0.574139420587698,0.5731894323828036,A,420.64590007066727,Correct,sub_005_day_13_data.csv,1,300,151.0,Training at home,,,,,,,,,,,,,
5,17,3792,B,35.2034314525783,17.750165031264135,1.7601715726289149,0.2788189403111292,B,503.13329976052046,Correct,sub_005_day_13_data.csv,1,300,151.0,Training at home,,,,,,,,,,,,,
5,17,3793,A,57.06878806721742,74.51201146479067,2.8534394033608708,1.1704319391099245,A,650.6881997920573,Correct,sub_005_day_13_data.csv,1,300,151.0,Training at home,,,,,,,,,,,,,
5,17,3794,B,63.709305519905115,54.98941181714685,3.185465275995256,0.8637716609498616,B,488.38140023872256,Correct,sub_005_day_13_data.csv,1,300,151.0,Training at home,,,,,,,,,,,,,
5,17,3795,A,42.22449692850348,51.69826221632629,2.111224846425174,0.8120744039108473,A,700.8483000099659,Correct,sub_005_day_13_data.csv,1,300,151.0,Training at home,,,,,,,,,,,,,
5,17,3796,B,66.66455980296365,34.197832860958684,3.3332279901481825,0.5371783024233971,B,431.64579989388585,Correct,sub_005_day_13_data.csv,1,300,151.0,Training at home,,,,,,,,,,,,,
5,17,3797,B,58.65139836590524,39.64203889427896,2.932569918295262,0.6226956908179382,B,566.4193001575768,Correct,sub_005_day_13_data.csv,1,300,151.0,Training at home,,,,,,,,,,,,,
5,17,3798,A,54.04179577329681,61.80104697118314,2.702089788664841,0.9707685757441334,B,704.6206998638809,Incorrect,sub_005_day_13_data.csv,0,300,151.0,Training at home,,,,,,,,,,,,,
5,17,3799,A,24.452769974065305,54.477892043905854,1.2226384987032652,0.8557367271409623,A,486.2092998810113,Correct,sub_005_day_13_data.csv,1,300,151.0,Training at home,,,,,,,,,,,,,
5,17,3800,B,80.30456381916805,55.3556151078352,4.015228190958402,0.8695239687885962,B,514.5812002010643,Correct,sub_005_day_13_data.csv,1,300,152.0,Training at home,,,,,,,,,,,,,
5,17,3801,A,34.76837392476818,46.24805640661192,1.738418696238409,0.7264627712490918,A,589.1720997169614,Correct,sub_005_day_13_data.csv,1,300,152.0,Training at home,,,,,,,,,,,,,
5,17,3802,B,71.81225712857254,43.789062986491686,3.590612856428627,0.687836992929715,B,458.42619985342026,Correct,sub_005_day_13_data.csv,1,300,152.0,Training at home,,,,,,,,,,,,,
5,17,3803,B,72.06608690990728,54.69317417129336,3.603304345495365,0.8591183708902113,B,502.8324001468718,Correct,sub_005_day_13_data.csv,1,300,152.0,Training at home,,,,,,,,,,,,,
5,17,3804,B,73.13655232504505,57.76414805805288,3.656827616252252,0.90735711590026,B,438.73410020023584,Correct,sub_005_day_13_data.csv,1,300,152.0,Training at home,,,,,,,,,,,,,
5,17,3805,B,62.126958524436986,51.240895481058836,3.1063479262218494,0.8048901040332843,A,673.9053996279836,Incorrect,sub_005_day_13_data.csv,0,300,152.0,Training at home,,,,,,,,,,,,,
5,17,3806,A,25.560502947347167,38.37554075193509,1.2780251473673585,0.6028015845190751,A,516.2296001799405,Correct,sub_005_day_13_data.csv,1,300,152.0,Training at home,,,,,,,,,,,,,
5,17,3807,B,77.1837249764259,51.150996057363166,3.859186248821295,0.803477967188063,B,458.8352995924651,Correct,sub_005_day_13_data.csv,1,300,152.0,Training at home,,,,,,,,,,,,,
5,17,3808,B,51.614752714993195,25.789562172665647,2.58073763574966,0.405101495304718,B,455.8409000746906,Correct,sub_005_day_13_data.csv,1,300,152.0,Training at home,,,,,,,,,,,,,
5,17,3809,A,42.22751203858033,62.24165748331515,2.1113756019290166,0.9776896694841752,A,786.1292003653944,Correct,sub_005_day_13_data.csv,1,300,152.0,Training at home,,,,,,,,,,,,,
5,17,3810,A,39.73530795034266,58.759213453254425,1.9867653975171329,0.9229875665772932,A,502.020999789238,Correct,sub_005_day_13_data.csv,1,300,152.0,Training at home,,,,,,,,,,,,,
5,17,3811,A,49.10754032943635,65.93066020244738,2.455377016471817,1.0356363886916682,A,440.4104999266565,Correct,sub_005_day_13_data.csv,1,300,152.0,Training at home,,,,,,,,,,,,,
5,17,3812,B,79.06034604972463,61.78986004452193,3.953017302486231,0.970592851911058,B,428.0754001811147,Correct,sub_005_day_13_data.csv,1,300,152.0,Training at home,,,,,,,,,,,,,
5,17,3813,A,16.802123208058955,44.20817139572008,0.8401061604029478,0.6944203324271631,A,422.28420032188296,Correct,sub_005_day_13_data.csv,1,300,152.0,Training at home,,,,,,,,,,,,,
5,17,3814,B,40.277775259289896,14.764613722566311,2.013888762964495,0.2319220100195268,B,484.8732999525964,Correct,sub_005_day_13_data.csv,1,300,152.0,Training at home,,,,,,,,,,,,,
5,17,3815,A,16.26789073863509,39.72552833887959,0.8133945369317545,0.6240071399469863,A,743.819999974221,Correct,sub_005_day_13_data.csv,1,300,152.0,Training at home,,,,,,,,,,,,,
5,17,3816,B,60.78219638338975,43.34132308988781,3.0391098191694876,0.6808039110802662,B,400.9559997357428,Correct,sub_005_day_13_data.csv,1,300,152.0,Training at home,,,,,,,,,,,,,
5,17,3817,A,59.048695366273904,77.39599996180014,2.9524347683136956,1.215733524486136,A,523.4862002544105,Correct,sub_005_day_13_data.csv,1,300,152.0,Training at home,,,,,,,,,,,,,
5,17,3818,B,77.38217625574836,53.81382900701867,3.8691088127874185,0.8453056493499359,B,548.5227000899613,Correct,sub_005_day_13_data.csv,1,300,152.0,Training at home,,,,,,,,,,,,,
5,17,3819,A,25.19788999145795,47.51964224306004,1.2598944995728971,0.7464367948600631,A,536.0655998811126,Correct,sub_005_day_13_data.csv,1,300,152.0,Training at home,,,,,,,,,,,,,
5,17,3820,B,69.77153934165344,59.311720611448735,3.4885769670826723,0.9316663287234884,B,460.1374999620021,Correct,sub_005_day_13_data.csv,1,300,152.0,Training at home,,,,,,,,,,,,,
5,17,3821,A,46.86365682749464,67.31353290216629,2.343182841374732,1.0573585022631022,A,398.7127002328634,Correct,sub_005_day_13_data.csv,1,300,152.0,Training at home,,,,,,,,,,,,,
5,17,3822,A,46.61226363052761,78.3802074074605,2.33061318152638,1.231193418890611,A,449.24250012263656,Correct,sub_005_day_13_data.csv,1,300,152.0,Training at home,,,,,,,,,,,,,
5,17,3823,A,39.90917394624798,67.84452590129648,1.995458697312399,1.0656993207889771,A,456.7295000888407,Correct,sub_005_day_13_data.csv,1,300,152.0,Training at home,,,,,,,,,,,,,
5,17,3824,B,55.17279869791928,35.49844999792505,2.758639934895964,0.5576083486365297,B,536.7471999488771,Correct,sub_005_day_13_data.csv,1,300,152.0,Training at home,,,,,,,,,,,,,
5,17,3825,B,54.968195832105195,33.72715087448868,2.74840979160526,0.529784847069041,B,449.79750039055943,Correct,sub_005_day_13_data.csv,1,300,153.0,Training at home,,,,,,,,,,,,,
5,17,3826,B,57.006361347595394,32.365441970622705,2.85031806737977,0.5083951736254753,B,423.3157997950911,Correct,sub_005_day_13_data.csv,1,300,153.0,Training at home,,,,,,,,,,,,,
5,17,3827,B,78.27006150774372,46.48909248641366,3.913503075387186,0.7302489571368682,B,932.7940996736288,Correct,sub_005_day_13_data.csv,1,300,153.0,Training at home,,,,,,,,,,,,,
5,17,3828,B,82.78250231552272,56.9394392140743,4.139125115776136,0.894402619672292,B,628.4458003938198,Correct,sub_005_day_13_data.csv,1,300,153.0,Training at home,,,,,,,,,,,,,
5,17,3829,B,63.56398359217571,48.64268068086865,3.178199179608786,0.7640774413896556,B,973.3591000549496,Correct,sub_005_day_13_data.csv,1,300,153.0,Training at home,,,,,,,,,,,,,
5,17,3830,B,81.5815483826513,60.76861492832903,4.079077419132565,0.9545511711383275,B,503.5099000670016,Correct,sub_005_day_13_data.csv,1,300,153.0,Training at home,,,,,,,,,,,,,
5,17,3831,A,18.793260599687297,47.29162217987294,0.9396630299843648,0.7428550640831647,A,412.4975996091962,Correct,sub_005_day_13_data.csv,1,300,153.0,Training at home,,,,,,,,,,,,,
5,17,3832,B,63.354953336930144,31.567153953876037,3.167747666846507,0.4958556947811746,B,485.627599991858,Correct,sub_005_day_13_data.csv,1,300,153.0,Training at home,,,,,,,,,,,,,
5,17,3833,B,31.89388036183503,13.144800179008474,1.5946940180917517,0.2064780383763941,A,445.6595000810921,Incorrect,sub_005_day_13_data.csv,0,300,153.0,Training at home,,,,,,,,,,,,,
5,17,3834,B,42.20782125189507,29.88274697036174,2.1103910625947533,0.4693970917558555,B,399.95200000703335,Correct,sub_005_day_13_data.csv,1,300,153.0,Training at home,,,,,,,,,,,,,
5,17,3835,B,53.69908955472647,43.240034688478744,2.6849544777363237,0.6792128765914631,B,570.6166997551918,Correct,sub_005_day_13_data.csv,1,300,153.0,Training at home,,,,,,,,,,,,,
5,17,3836,B,53.16019853259033,36.52929804003685,2.6580099266295165,0.573800871816859,B,559.0429999865592,Correct,sub_005_day_13_data.csv,1,300,153.0,Training at home,,,,,,,,,,,,,
5,17,3837,A,14.41312382071527,30.24366226680408,0.7206561910357635,0.4750663359752127,A,521.0450999438763,Correct,sub_005_day_13_data.csv,1,300,153.0,Training at home,,,,,,,,,,,,,
5,17,3838,A,40.18192108873618,51.48209551018037,2.009096054436809,0.8086788652309537,A,487.65760008245707,Correct,sub_005_day_13_data.csv,1,300,153.0,Training at home,,,,,,,,,,,,,
5,17,3839,B,37.67677989241935,15.441156881900737,1.8838389946209673,0.2425491251155341,B,595.0968000106514,Correct,sub_005_day_13_data.csv,1,300,153.0,Training at home,,,,,,,,,,,,,
5,17,3840,B,79.97556326744896,51.44606774023815,3.998778163372448,0.808112942344075,B,555.326099973172,Correct,sub_005_day_13_data.csv,1,300,153.0,Training at home,,,,,,,,,,,,,
5,17,3841,B,72.04660547738608,41.39001198344231,3.6023302738693044,0.6501527878958793,B,615.1915001682937,Correct,sub_005_day_13_data.csv,1,300,153.0,Training at home,,,,,,,,,,,,,
5,17,3842,B,53.92121282835291,29.930246912317585,2.6960606414176453,0.4701432190993275,B,430.268700234592,Correct,sub_005_day_13_data.csv,1,300,153.0,Training at home,,,,,,,,,,,,,
5,17,3843,A,26.305952872861504,50.473616402294866,1.315297643643075,0.7928377124477942,A,437.27939995005727,Correct,sub_005_day_13_data.csv,1,300,153.0,Training at home,,,,,,,,,,,,,
5,17,3844,A,47.995577153789505,75.99527223318645,2.399778857689475,1.1937309447766749,A,427.13609989732504,Correct,sub_005_day_13_data.csv,1,300,153.0,Training at home,,,,,,,,,,,,,
5,17,3845,A,43.04498732350639,63.0503395821705,2.1522493661753197,0.990392418188443,A,435.1070998236537,Correct,sub_005_day_13_data.csv,1,300,153.0,Training at home,,,,,,,,,,,,,
5,17,3846,A,50.838450414290705,61.03973541651395,2.5419225207145355,0.9588099218079248,A,970.5030000768602,Correct,sub_005_day_13_data.csv,1,300,153.0,Training at home,,,,,,,,,,,,,
5,17,3847,B,76.80922716085033,64.69085779769568,3.840461358042517,1.0161616180583135,B,369.442000053823,Correct,sub_005_day_13_data.csv,1,300,153.0,Training at home,,,,,,,,,,,,,
5,17,3848,A,14.879067199824975,34.6342139956152,0.7439533599912488,0.5440329612574075,A,430.1323997788131,Correct,sub_005_day_13_data.csv,1,300,153.0,Training at home,,,,,,,,,,,,,
5,17,3849,B,35.23350734421793,19.71511280909938,1.7616753672108962,0.3096842678288032,B,501.43929990008473,Correct,sub_005_day_13_data.csv,1,300,153.0,Training at home,,,,,,,,,,,,,
5,17,3850,A,37.75823661846542,46.14276202237974,1.887911830923271,0.7248088109292515,A,510.8238998800516,Correct,sub_005_day_13_data.csv,1,300,154.0,Training at home,,,,,,,,,,,,,
5,17,3851,B,78.28451999978078,56.29112393373522,3.914225999989039,0.8842189070626757,B,414.4840999506414,Correct,sub_005_day_13_data.csv,1,300,154.0,Training at home,,,,,,,,,,,,,
5,17,3852,B,49.09716400123438,27.421087428102744,2.454858200061719,0.4307294340878549,B,404.36699986457825,Correct,sub_005_day_13_data.csv,1,300,154.0,Training at home,,,,,,,,,,,,,
5,17,3853,A,15.917188359610163,42.30418154341939,0.7958594179805083,0.6645125297646763,A,506.1492999084294,Correct,sub_005_day_13_data.csv,1,300,154.0,Training at home,,,,,,,,,,,,,
5,17,3854,B,46.90074876240615,21.015922141702816,2.3450374381203076,0.3301173330439432,B,482.80599992722273,Correct,sub_005_day_13_data.csv,1,300,154.0,Training at home,,,,,,,,,,,,,
5,17,3855,B,57.646999915043594,39.91278917878502,2.882349995752179,0.626948626341746,A,500.21199975162745,Incorrect,sub_005_day_13_data.csv,0,300,154.0,Training at home,,,,,,,,,,,,,
5,17,3856,A,42.71565242386716,53.79944415053727,2.1357826211933584,0.8450796925527112,A,667.9461002349854,Correct,sub_005_day_13_data.csv,1,300,154.0,Training at home,,,,,,,,,,,,,
5,17,3857,B,45.77921972489786,31.32316330984795,2.288960986244893,0.4920230987070583,B,709.4970997422934,Correct,sub_005_day_13_data.csv,1,300,154.0,Training at home,,,,,,,,,,,,,
5,17,3858,A,40.82899180033432,56.11216054327532,2.0414495900167164,0.881407756699024,A,504.3572997674346,Correct,sub_005_day_13_data.csv,1,300,154.0,Training at home,,,,,,,,,,,,,
5,17,3859,A,30.994600752931348,58.51183472536349,1.5497300376465677,0.9191017506063104,A,514.9213997647166,Correct,sub_005_day_13_data.csv,1,300,154.0,Training at home,,,,,,,,,,,,,
5,17,3860,B,70.50958229085919,42.46760428749065,3.525479114542959,0.6670795682256953,B,623.8947999663651,Correct,sub_005_day_13_data.csv,1,300,154.0,Training at home,,,,,,,,,,,,,
5,17,3861,B,78.69229638090434,64.79871900761306,3.934614819045217,1.0178558979817325,B,488.1468000821769,Correct,sub_005_day_13_data.csv,1,300,154.0,Training at home,,,,,,,,,,,,,
5,17,3862,A,50.90251986491876,76.21630233135542,2.545125993245938,1.197202877439824,A,667.5446997396648,Correct,sub_005_day_13_data.csv,1,300,154.0,Training at home,,,,,,,,,,,,,
5,17,3863,B,59.43349306945605,32.78026672505903,2.9716746534728027,0.5149112256307968,B,436.7235000245273,Correct,sub_005_day_13_data.csv,1,300,154.0,Training at home,,,,,,,,,,,,,
5,17,3864,A,12.905570742123178,40.65253407480354,0.6452785371061589,0.6385685119960577,A,435.78270031139255,Correct,sub_005_day_13_data.csv,1,300,154.0,Training at home,,,,,,,,,,,,,
5,17,3865,B,58.73037869041725,38.58121610264674,2.9365189345208624,0.6060323253731762,B,585.5252998881042,Correct,sub_005_day_13_data.csv,1,300,154.0,Training at home,,,,,,,,,,,,,
5,17,3866,B,81.1479373161016,52.99937618876974,4.05739686580508,0.8325122543974041,B,456.42519975081086,Correct,sub_005_day_13_data.csv,1,300,154.0,Training at home,,,,,,,,,,,,,
5,17,3867,B,80.9996885696425,65.02617937141876,4.049984428482125,1.0214288370213067,B,452.6140000671148,Correct,sub_005_day_13_data.csv,1,300,154.0,Training at home,,,,,,,,,,,,,
5,17,3868,B,66.04275141630406,37.19073897291853,3.3021375708152028,0.5841907616944824,B,537.3754999600351,Correct,sub_005_day_13_data.csv,1,300,154.0,Training at home,,,,,,,,,,,,,
5,17,3869,B,58.32662931788333,27.40425758719556,2.9163314658941664,0.4304650715650797,B,569.3024997599423,Correct,sub_005_day_13_data.csv,1,300,154.0,Training at home,,,,,,,,,,,,,
5,17,3870,A,39.145040206389766,48.64366080321699,1.957252010319488,0.7640928371155015,A,527.0710000768304,Correct,sub_005_day_13_data.csv,1,300,154.0,Training at home,,,,,,,,,,,,,
5,17,3871,B,55.200708760186735,45.64133462450574,2.760035438009337,0.7169324077819034,B,413.1939997896552,Correct,sub_005_day_13_data.csv,1,300,154.0,Training at home,,,,,,,,,,,,,
5,17,3872,A,34.677578159697774,55.35796570392658,1.7338789079848886,0.8695608918656573,A,445.6831999123097,Correct,sub_005_day_13_data.csv,1,300,154.0,Training at home,,,,,,,,,,,,,
5,17,3873,A,39.504001456346806,59.85426815610148,1.97520007281734,0.9401886456260096,A,489.99059991911054,Correct,sub_005_day_13_data.csv,1,300,154.0,Training at home,,,,,,,,,,,,,
5,17,3874,A,63.717358257495064,73.54847683267191,3.185867912874753,1.1552967725012058,B,468.38360000401735,Incorrect,sub_005_day_13_data.csv,0,300,154.0,Training at home,,,,,,,,,,,,,
5,17,3875,B,75.90584335888859,63.39710179171884,3.79529216794443,0.995839346238741,B,432.9789001494646,Correct,sub_005_day_13_data.csv,1,300,155.0,Training at home,,,,,,,,,,,,,
5,17,3876,B,88.04434134504865,68.12516193328304,4.402217067252433,1.070107541271085,B,556.8776000291109,Correct,sub_005_day_13_data.csv,1,300,155.0,Training at home,,,,,,,,,,,,,
5,17,3877,A,54.57674584202752,78.58420002229735,2.7288372921013764,1.234397727391401,A,561.5245997905731,Correct,sub_005_day_13_data.csv,1,300,155.0,Training at home,,,,,,,,,,,,,
5,17,3878,B,62.359157041059355,49.13788799898304,3.117957852052968,0.771856139752616,A,472.9333999566734,Incorrect,sub_005_day_13_data.csv,0,300,155.0,Training at home,,,,,,,,,,,,,
5,17,3879,B,41.14492149279466,33.09830926018242,2.0572460746397327,0.5199070260901605,B,559.8709001205862,Correct,sub_005_day_13_data.csv,1,300,155.0,Training at home,,,,,,,,,,,,,
5,17,3880,A,53.127063033017045,78.08139744930389,2.656353151650852,1.2264997230437895,A,537.2943999245763,Correct,sub_005_day_13_data.csv,1,300,155.0,Training at home,,,,,,,,,,,,,
5,17,3881,A,27.33100349322951,48.86997462528677,1.3665501746614754,0.7676477663196026,A,484.387899748981,Correct,sub_005_day_13_data.csv,1,300,155.0,Training at home,,,,,,,,,,,,,
5,17,3882,A,54.22245407215178,78.10978802577382,2.7111227036075887,1.2269456811761352,A,494.6462996304035,Correct,sub_005_day_13_data.csv,1,300,155.0,Training at home,,,,,,,,,,,,,
5,17,3883,A,17.284742577916838,47.944671922246464,0.8642371288958418,0.7531131454485115,A,436.0821000300348,Correct,sub_005_day_13_data.csv,1,300,155.0,Training at home,,,,,,,,,,,,,
5,17,3884,B,69.15010928898997,40.2766426935676,3.4575054644494982,0.6326640239868649,B,508.1472001038492,Correct,sub_005_day_13_data.csv,1,300,155.0,Training at home,,,,,,,,,,,,,
5,17,3885,B,62.54497001911341,29.991089562690263,3.1272485009556705,0.4710989332165063,B,409.3944998458028,Correct,sub_005_day_13_data.csv,1,300,155.0,Training at home,,,,,,,,,,,,,
5,17,3886,B,42.50596590468423,23.6966938248795,2.125298295234211,0.3722267961730402,B,578.9306000806391,Correct,sub_005_day_13_data.csv,1,300,155.0,Training at home,,,,,,,,,,,,,
5,17,3887,A,48.815099062181446,74.86801690345061,2.440754953109072,1.1760240594635845,A,431.3598000444472,Correct,sub_005_day_13_data.csv,1,300,155.0,Training at home,,,,,,,,,,,,,
5,17,3888,B,74.51638522128466,54.74431127395817,3.725819261064234,0.8599216306204994,B,500.7708999328315,Correct,sub_005_day_13_data.csv,1,300,155.0,Training at home,,,,,,,,,,,,,
5,17,3889,B,67.75415501740537,46.69830991629725,3.3877077508702684,0.7335353368404941,B,428.6096999421716,Correct,sub_005_day_13_data.csv,1,300,155.0,Training at home,,,,,,,,,,,,,
5,17,3890,B,42.317659358006225,22.20443683842629,2.115882967900311,0.348786478243493,B,640.2379996143281,Correct,sub_005_day_13_data.csv,1,300,155.0,Training at home,,,,,,,,,,,,,
5,17,3891,A,62.96254313547112,74.47641186489365,3.1481271567735565,1.169872741902388,A,557.5826000422239,Correct,sub_005_day_13_data.csv,1,300,155.0,Training at home,,,,,,,,,,,,,
5,17,3892,B,34.867768744904325,17.387587663432132,1.7433884372452162,0.2731235883354345,A,477.14800015091896,Incorrect,sub_005_day_13_data.csv,0,300,155.0,Training at home,,,,,,,,,,,,,
5,17,3893,B,64.27386596656203,40.41042984473179,3.2136932983281015,0.6347655476430756,B,393.8497002236545,Correct,sub_005_day_13_data.csv,1,300,155.0,Training at home,,,,,,,,,,,,,
5,17,3894,B,65.82808236560366,38.15122221711389,3.2914041182801834,0.5992779972137835,B,452.598299831152,Correct,sub_005_day_13_data.csv,1,300,155.0,Training at home,,,,,,,,,,,,,
5,17,3895,A,32.512193998702784,42.95807493113658,1.6256096999351393,0.6747838630800926,A,495.9231996908784,Correct,sub_005_day_13_data.csv,1,300,155.0,Training at home,,,,,,,,,,,,,
5,17,3896,B,81.9055164047309,53.70776369033847,4.095275820236545,0.8436395792515199,B,392.36770011484623,Correct,sub_005_day_13_data.csv,1,300,155.0,Training at home,,,,,,,,,,,,,
5,17,3897,B,57.27521027830618,26.99028835395187,2.863760513915309,0.4239624580552267,B,448.45509994775057,Correct,sub_005_day_13_data.csv,1,300,155.0,Training at home,,,,,,,,,,,,,
5,17,3898,B,67.34911871297251,56.902344990987025,3.3674559356486258,0.893819944978584,A,453.95860029384494,Incorrect,sub_005_day_13_data.csv,0,300,155.0,Training at home,,,,,,,,,,,,,
5,17,3899,A,20.87916033289573,38.884025810247586,1.0439580166447866,0.6107888491373485,A,509.41909989342093,Correct,sub_005_day_13_data.csv,1,300,155.0,Training at home,,,,,,,,,,,,,
