subject,day,trial,cat,x,y,xt,yt,resp,rt,fb,f_name,acc,n_trials,block,session_type,ns_left_digit,ns_right_digit,ns_left_size,ns_right_size,ns_congruent,ns_cue,ns_correct_side,ns_resp,ns_rt,ns_fb,acc_stroop,acc_stroop_mean,resp_key
5,5,900,B,71.70280294729167,55.00656915710934,3.5851401473645836,0.8640411678157681,B,566.8728000018746,Correct,sub_005_day_04_data.csv,1,300,36.0,Training at home,,,,,,,,,,,,,
5,5,901,B,37.55038484239021,23.87746574487399,1.8775192421195104,0.3750663548521903,B,596.3751000235789,Correct,sub_005_day_04_data.csv,1,300,36.0,Training at home,,,,,,,,,,,,,
5,5,902,A,29.002228581817864,50.30776916546554,1.4501114290908932,0.7902325901435883,A,504.15219995193183,Correct,sub_005_day_04_data.csv,1,300,36.0,Training at home,,,,,,,,,,,,,
5,5,903,A,30.05832045123589,56.42090769897192,1.5029160225617944,0.8862575456797899,A,454.90110001992434,Correct,sub_005_day_04_data.csv,1,300,36.0,Training at home,,,,,,,,,,,,,
5,5,904,A,42.324226740524,66.98777667219956,2.1162113370262,1.0522415353684793,A,629.0500000468455,Correct,sub_005_day_04_data.csv,1,300,36.0,Training at home,,,,,,,,,,,,,
5,5,905,A,50.003742670774926,75.7686436058692,2.500187133538746,1.1901710706233095,B,830.5154999834485,Incorrect,sub_005_day_04_data.csv,0,300,36.0,Training at home,,,,,,,,,,,,,
5,5,906,B,42.351171250762675,34.3468975729261,2.1175585625381337,0.5395198054435287,B,611.7850000155158,Correct,sub_005_day_04_data.csv,1,300,36.0,Training at home,,,,,,,,,,,,,
5,5,907,A,47.95740294814281,76.88876284478619,2.3978701474071404,1.207765862483941,A,501.7138000112027,Correct,sub_005_day_04_data.csv,1,300,36.0,Training at home,,,,,,,,,,,,,
5,5,908,A,51.71365919649534,70.73993883738457,2.585682959824767,1.1111803608345932,A,636.5978000103496,Correct,sub_005_day_04_data.csv,1,300,36.0,Training at home,,,,,,,,,,,,,
5,5,909,A,33.46233299161509,50.562295859044696,1.6731166495807546,0.7942306860970421,A,668.7341000069864,Correct,sub_005_day_04_data.csv,1,300,36.0,Training at home,,,,,,,,,,,,,
5,5,910,B,68.68936092916519,37.37128318287528,3.43446804645826,0.5870267435127239,B,519.119199947454,Correct,sub_005_day_04_data.csv,1,300,36.0,Training at home,,,,,,,,,,,,,
5,5,911,A,33.65802558962276,66.78851920499622,1.682901279481138,1.0491116063927848,A,553.0700000235811,Correct,sub_005_day_04_data.csv,1,300,36.0,Training at home,,,,,,,,,,,,,
5,5,912,A,44.10877090998269,67.96500296904661,2.2054385454991343,1.067591770143827,A,467.5512999529019,Correct,sub_005_day_04_data.csv,1,300,36.0,Training at home,,,,,,,,,,,,,
5,5,913,A,27.872680721378483,39.57907221254422,1.393634036068924,0.6217066124941442,B,616.9480999815278,Incorrect,sub_005_day_04_data.csv,0,300,36.0,Training at home,,,,,,,,,,,,,
5,5,914,B,85.13185791191242,62.50151824640483,4.256592895595621,0.981771552805569,B,559.5419000019319,Correct,sub_005_day_04_data.csv,1,300,36.0,Training at home,,,,,,,,,,,,,
5,5,915,A,14.554521397482748,40.766878082374646,0.7277260698741373,0.6403646234668947,A,528.9910000283271,Correct,sub_005_day_04_data.csv,1,300,36.0,Training at home,,,,,,,,,,,,,
5,5,916,A,27.40488758916082,52.82224120203682,1.370244379458041,0.8297298245323349,A,465.10739997029305,Correct,sub_005_day_04_data.csv,1,300,36.0,Training at home,,,,,,,,,,,,,
5,5,917,B,40.60215911166658,14.090794878272073,2.030107955583329,0.2213376883641011,B,616.7921000160277,Correct,sub_005_day_04_data.csv,1,300,36.0,Training at home,,,,,,,,,,,,,
5,5,918,A,33.31416968623962,41.635379876150786,1.665708484311981,0.6540070177416781,A,528.9374000276439,Correct,sub_005_day_04_data.csv,1,300,36.0,Training at home,,,,,,,,,,,,,
5,5,919,B,42.43953790987349,17.67560073663928,2.1219768954936744,0.2776476871100614,B,428.146000020206,Correct,sub_005_day_04_data.csv,1,300,36.0,Training at home,,,,,,,,,,,,,
5,5,920,B,69.55631928635924,41.95962021450671,3.4778159643179616,0.6591001730665603,B,511.00030000088736,Correct,sub_005_day_04_data.csv,1,300,36.0,Training at home,,,,,,,,,,,,,
5,5,921,B,76.11005238401982,64.15395260099692,3.805502619200991,1.0077279309501983,B,503.8516000495292,Correct,sub_005_day_04_data.csv,1,300,36.0,Training at home,,,,,,,,,,,,,
5,5,922,B,86.24583708239922,65.62251938541458,4.3122918541199615,1.030796124056361,B,596.4544000453316,Correct,sub_005_day_04_data.csv,1,300,36.0,Training at home,,,,,,,,,,,,,
5,5,923,B,37.65930818787086,27.30204722634939,1.882965409393543,0.4288595549713042,A,611.4858000073582,Incorrect,sub_005_day_04_data.csv,0,300,36.0,Training at home,,,,,,,,,,,,,
5,5,924,A,39.59220025099351,60.05688468984049,1.9796100125496752,0.943371338695461,B,674.7481999918818,Incorrect,sub_005_day_04_data.csv,0,300,36.0,Training at home,,,,,,,,,,,,,
5,5,925,A,22.51327600826937,45.13035908375815,1.1256638004134685,0.70890602275702,A,512.5458000111394,Correct,sub_005_day_04_data.csv,1,300,37.0,Training at home,,,,,,,,,,,,,
5,5,926,B,56.23581897202909,49.383342015432625,2.811790948601454,0.7757117224269764,B,506.5178999793716,Correct,sub_005_day_04_data.csv,1,300,37.0,Training at home,,,,,,,,,,,,,
5,5,927,B,79.61242686659591,60.48846409158788,3.980621343329795,0.9501505720853124,B,482.57410002406687,Correct,sub_005_day_04_data.csv,1,300,37.0,Training at home,,,,,,,,,,,,,
5,5,928,A,20.24957959367178,38.27127364633286,1.012478979683589,0.6011637606542198,A,625.9994999854825,Correct,sub_005_day_04_data.csv,1,300,37.0,Training at home,,,,,,,,,,,,,
5,5,929,B,49.30415134842968,35.254668175706016,2.4652075674214844,0.5537790327277194,B,431.4404000178911,Correct,sub_005_day_04_data.csv,1,300,37.0,Training at home,,,,,,,,,,,,,
5,5,930,A,30.83361704425655,63.50359022075865,1.5416808522128276,0.99751206257056,A,438.82089998805895,Correct,sub_005_day_04_data.csv,1,300,37.0,Training at home,,,,,,,,,,,,,
5,5,931,A,45.382098188253224,64.06939040663308,2.269104909412661,1.0063996311072745,B,513.3253000094555,Incorrect,sub_005_day_04_data.csv,0,300,37.0,Training at home,,,,,,,,,,,,,
5,5,932,A,44.49367649504925,74.22417308179462,2.2246838247524625,1.1659105843627162,A,604.6407000394538,Correct,sub_005_day_04_data.csv,1,300,37.0,Training at home,,,,,,,,,,,,,
5,5,933,A,32.670488010095575,65.402711054288,1.6335244005047789,1.0273433828650356,A,1001.7181999864988,Correct,sub_005_day_04_data.csv,1,300,37.0,Training at home,,,,,,,,,,,,,
5,5,934,B,44.631309369780304,24.052432838699374,2.231565468489015,0.3778147315350993,B,532.9940000083297,Correct,sub_005_day_04_data.csv,1,300,37.0,Training at home,,,,,,,,,,,,,
5,5,935,A,41.59610005897831,54.968757231283625,2.0798050029489157,0.8634472194738072,A,554.1455000056885,Correct,sub_005_day_04_data.csv,1,300,37.0,Training at home,,,,,,,,,,,,,
5,5,936,B,71.12995520504259,55.44685372045458,3.55649776025213,0.87095714156424,B,528.0762999900617,Correct,sub_005_day_04_data.csv,1,300,37.0,Training at home,,,,,,,,,,,,,
5,5,937,A,37.80860176973054,68.15465186029793,1.8904300884865268,1.0705707679614096,A,487.0445000124164,Correct,sub_005_day_04_data.csv,1,300,37.0,Training at home,,,,,,,,,,,,,
5,5,938,A,24.563159763547432,42.7599034184192,1.2281579881773717,0.6716709922375742,A,768.2717000134289,Correct,sub_005_day_04_data.csv,1,300,37.0,Training at home,,,,,,,,,,,,,
5,5,939,A,14.725703138643766,35.41470891812209,0.7362851569321883,0.5562929468309664,A,488.1019000313245,Correct,sub_005_day_04_data.csv,1,300,37.0,Training at home,,,,,,,,,,,,,
5,5,940,B,44.47517478279707,33.93538777343934,2.2237587391398534,0.5330558246287895,B,567.6351999863982,Correct,sub_005_day_04_data.csv,1,300,37.0,Training at home,,,,,,,,,,,,,
5,5,941,A,35.28872911940513,56.78856697853794,1.7644364559702566,0.8920327241383337,A,863.5467999847606,Correct,sub_005_day_04_data.csv,1,300,37.0,Training at home,,,,,,,,,,,,,
5,5,942,A,50.57021397902697,63.50465328302871,2.528510698951348,0.9975287611136496,B,771.2754000094719,Incorrect,sub_005_day_04_data.csv,0,300,37.0,Training at home,,,,,,,,,,,,,
5,5,943,B,58.94363031471216,29.40472295802143,2.947181515735608,0.4618883081288162,B,533.9548000483774,Correct,sub_005_day_04_data.csv,1,300,37.0,Training at home,,,,,,,,,,,,,
5,5,944,B,53.524376559378865,35.55945496746892,2.6762188279689436,0.5585666124572872,B,508.7446999968961,Correct,sub_005_day_04_data.csv,1,300,37.0,Training at home,,,,,,,,,,,,,
5,5,945,B,80.36372624354325,49.678418226651914,4.018186312177163,0.7803467687140546,B,1035.9823000035249,Correct,sub_005_day_04_data.csv,1,300,37.0,Training at home,,,,,,,,,,,,,
5,5,946,A,66.7107393064674,85.45815371448309,3.3355369653233704,1.3423735394938368,A,667.628200026229,Correct,sub_005_day_04_data.csv,1,300,37.0,Training at home,,,,,,,,,,,,,
5,5,947,A,54.544312840304265,84.09139248839598,2.7272156420152136,1.3209045043584038,B,678.6306000431068,Incorrect,sub_005_day_04_data.csv,0,300,37.0,Training at home,,,,,,,,,,,,,
5,5,948,B,79.07183929615287,61.0069584136273,3.9535919648076434,0.9582950618505476,B,517.6945999846794,Correct,sub_005_day_04_data.csv,1,300,37.0,Training at home,,,,,,,,,,,,,
5,5,949,B,62.93419433379986,53.5160931163044,3.146709716689993,0.8406288249150461,B,534.295600024052,Correct,sub_005_day_04_data.csv,1,300,37.0,Training at home,,,,,,,,,,,,,
5,5,950,B,35.47342724890072,23.206350526581215,1.773671362445036,0.3645245016546859,A,524.331099994015,Incorrect,sub_005_day_04_data.csv,0,300,38.0,Training at home,,,,,,,,,,,,,
5,5,951,A,56.79402961108758,67.20335885715214,2.839701480554379,1.0556278924109386,A,988.1427999935112,Correct,sub_005_day_04_data.csv,1,300,38.0,Training at home,,,,,,,,,,,,,
5,5,952,A,22.92832192054367,35.43559889278909,1.1464160960271834,0.5566210857857041,A,660.557399969548,Correct,sub_005_day_04_data.csv,1,300,38.0,Training at home,,,,,,,,,,,,,
5,5,953,A,46.98797276909404,73.60468403841958,2.349398638454702,1.1561796732244844,A,878.973999992013,Correct,sub_005_day_04_data.csv,1,300,38.0,Training at home,,,,,,,,,,,,,
5,5,954,B,69.25342630487602,59.00902268658184,3.462671315243801,0.9269115608383948,B,591.7785000056028,Correct,sub_005_day_04_data.csv,1,300,38.0,Training at home,,,,,,,,,,,,,
5,5,955,A,52.760440268705544,79.70983318257709,2.638022013435277,1.2520791317262605,A,1030.415799992625,Correct,sub_005_day_04_data.csv,1,300,38.0,Training at home,,,,,,,,,,,,,
5,5,956,B,72.3456109550314,45.51272642875391,3.6172805477515704,0.7149122349670765,B,528.7587000057101,Correct,sub_005_day_04_data.csv,1,300,38.0,Training at home,,,,,,,,,,,,,
5,5,957,A,45.374865441185854,57.141815221326944,2.2687432720592926,0.8975815345605306,A,713.5692000156268,Correct,sub_005_day_04_data.csv,1,300,38.0,Training at home,,,,,,,,,,,,,
5,5,958,B,56.56342374849543,37.00183646887647,2.8281711874247715,0.5812234880997661,B,630.1225000061095,Correct,sub_005_day_04_data.csv,1,300,38.0,Training at home,,,,,,,,,,,,,
5,5,959,A,65.94635306658719,84.40015102640022,3.29731765332936,1.32575447213204,B,563.9044999843463,Incorrect,sub_005_day_04_data.csv,0,300,38.0,Training at home,,,,,,,,,,,,,
5,5,960,B,82.455955426586,55.36820253940455,4.1227977713293,0.8697216917013253,B,519.9181999778375,Correct,sub_005_day_04_data.csv,1,300,38.0,Training at home,,,,,,,,,,,,,
5,5,961,A,22.642291631926778,53.73883221672278,1.132114581596339,0.8441276025227538,A,463.4626999613829,Correct,sub_005_day_04_data.csv,1,300,38.0,Training at home,,,,,,,,,,,,,
5,5,962,B,54.29466719192911,25.490882943973865,2.714733359596455,0.4004098529515282,B,518.6251000268385,Correct,sub_005_day_04_data.csv,1,300,38.0,Training at home,,,,,,,,,,,,,
5,5,963,B,31.766192704371953,12.884904304111052,1.5883096352185977,0.2023956035200139,A,486.48469999898225,Incorrect,sub_005_day_04_data.csv,0,300,38.0,Training at home,,,,,,,,,,,,,
5,5,964,A,64.05181818965335,83.12622009770242,3.2025909094826672,1.3057436118981507,B,820.6428000121377,Incorrect,sub_005_day_04_data.csv,0,300,38.0,Training at home,,,,,,,,,,,,,
5,5,965,A,31.050502590213803,49.84385088201282,1.55252512951069,0.7829453787877833,A,498.743399977684,Correct,sub_005_day_04_data.csv,1,300,38.0,Training at home,,,,,,,,,,,,,
5,5,966,B,88.11378627969867,65.2667431174088,4.405689313984934,1.0252076035069184,B,555.732499982696,Correct,sub_005_day_04_data.csv,1,300,38.0,Training at home,,,,,,,,,,,,,
5,5,967,B,54.32426982195917,22.927675676298577,2.7162134910979585,0.360147087342745,B,688.1426000036299,Correct,sub_005_day_04_data.csv,1,300,38.0,Training at home,,,,,,,,,,,,,
5,5,968,A,64.49313834355002,84.81815493749987,3.2246569171775006,1.332320462213452,B,477.22419997444376,Incorrect,sub_005_day_04_data.csv,0,300,38.0,Training at home,,,,,,,,,,,,,
5,5,969,A,33.394552616413705,58.08313802621327,1.6697276308206852,0.9123677986029678,A,570.1257000328042,Correct,sub_005_day_04_data.csv,1,300,38.0,Training at home,,,,,,,,,,,,,
5,5,970,B,45.79781489861788,35.295622236640625,2.289890744930894,0.5544223376125537,B,761.5685000200756,Correct,sub_005_day_04_data.csv,1,300,38.0,Training at home,,,,,,,,,,,,,
5,5,971,B,53.26554749177061,32.997709591389565,2.66327737458853,0.5183268101879945,B,582.930899981875,Correct,sub_005_day_04_data.csv,1,300,38.0,Training at home,,,,,,,,,,,,,
5,5,972,B,76.36183029650196,53.00852142519635,3.8180915148250985,0.8326559074352702,B,465.23239999078214,Correct,sub_005_day_04_data.csv,1,300,38.0,Training at home,,,,,,,,,,,,,
5,5,973,B,80.31200904807307,65.17365337761876,4.015600452403653,1.0237453532936736,B,498.5860000015237,Correct,sub_005_day_04_data.csv,1,300,38.0,Training at home,,,,,,,,,,,,,
5,5,974,A,12.815861134408824,39.61399634108636,0.6407930567204412,0.6222551994224494,A,513.8199999928474,Correct,sub_005_day_04_data.csv,1,300,38.0,Training at home,,,,,,,,,,,,,
5,5,975,A,29.135227113951217,41.644888694072115,1.4567613556975607,0.654156381904308,A,516.9918999890797,Correct,sub_005_day_04_data.csv,1,300,39.0,Training at home,,,,,,,,,,,,,
5,5,976,B,77.55596107309863,63.92941507524549,3.877798053654931,1.004200903743419,B,641.4732999983244,Correct,sub_005_day_04_data.csv,1,300,39.0,Training at home,,,,,,,,,,,,,
5,5,977,B,85.78564556577398,57.63109324517449,4.289282278288699,0.9052670957869426,B,712.1024000225589,Correct,sub_005_day_04_data.csv,1,300,39.0,Training at home,,,,,,,,,,,,,
5,5,978,A,60.53168312611936,72.43793299854734,3.026584156305968,1.13785239074733,A,789.4596999976784,Correct,sub_005_day_04_data.csv,1,300,39.0,Training at home,,,,,,,,,,,,,
5,5,979,A,46.512389256689154,76.52728860979231,2.3256194628344575,1.2020878384783469,A,513.4542000014335,Correct,sub_005_day_04_data.csv,1,300,39.0,Training at home,,,,,,,,,,,,,
5,5,980,B,64.57971515093915,49.98835820869845,3.2289857575469574,0.7852152945673103,B,553.734999964945,Correct,sub_005_day_04_data.csv,1,300,39.0,Training at home,,,,,,,,,,,,,
5,5,981,A,63.319578915837326,78.16452927594209,3.165978945791866,1.2278055547230198,B,483.50219998974353,Incorrect,sub_005_day_04_data.csv,0,300,39.0,Training at home,,,,,,,,,,,,,
5,5,982,B,58.82939519539951,33.19854918123882,2.9414697597699755,0.5214815910880966,B,545.4619000083767,Correct,sub_005_day_04_data.csv,1,300,39.0,Training at home,,,,,,,,,,,,,
5,5,983,A,61.591936356499,72.21081520794768,3.07959681782495,1.1342848328350927,B,577.1119999699295,Incorrect,sub_005_day_04_data.csv,0,300,39.0,Training at home,,,,,,,,,,,,,
5,5,984,B,52.542679732944585,24.29836112405912,2.6271339866472294,0.3816777640080798,B,518.1846000486985,Correct,sub_005_day_04_data.csv,1,300,39.0,Training at home,,,,,,,,,,,,,
5,5,985,A,41.98862130195862,69.18974623002521,2.099431065097931,1.0868299922999465,A,675.9063999634236,Correct,sub_005_day_04_data.csv,1,300,39.0,Training at home,,,,,,,,,,,,,
5,5,986,B,69.52451060212485,57.755554710168454,3.4762255301062424,0.907222131907343,B,650.9861000231467,Correct,sub_005_day_04_data.csv,1,300,39.0,Training at home,,,,,,,,,,,,,
5,5,987,A,22.92972093331357,36.68401640787335,1.1464860466656783,0.5762311822557119,A,540.0495000067167,Correct,sub_005_day_04_data.csv,1,300,39.0,Training at home,,,,,,,,,,,,,
5,5,988,B,64.22333872152093,35.73181574007597,3.2111669360760464,0.561274049142234,B,542.0630000298843,Correct,sub_005_day_04_data.csv,1,300,39.0,Training at home,,,,,,,,,,,,,
5,5,989,A,46.9139646351807,70.49781009927385,2.3456982317590347,1.1073770115102353,A,660.4157999972813,Correct,sub_005_day_04_data.csv,1,300,39.0,Training at home,,,,,,,,,,,,,
5,5,990,B,72.77014478369405,54.34284990260654,3.6385072391847024,0.8536154901458074,B,521.7257000040263,Correct,sub_005_day_04_data.csv,1,300,39.0,Training at home,,,,,,,,,,,,,
5,5,991,A,25.30086096446828,56.5924202498981,1.265043048223414,0.8889516585297306,A,442.4882999737747,Correct,sub_005_day_04_data.csv,1,300,39.0,Training at home,,,,,,,,,,,,,
5,5,992,A,58.02935879563486,80.73507390036674,2.901467939781743,1.268183575262106,A,791.8866000254638,Correct,sub_005_day_04_data.csv,1,300,39.0,Training at home,,,,,,,,,,,,,
5,5,993,B,74.88481009450662,64.50392246073798,3.7442405047253313,1.0132252446519003,B,521.7781000537798,Correct,sub_005_day_04_data.csv,1,300,39.0,Training at home,,,,,,,,,,,,,
5,5,994,B,82.57114050800242,59.72275754080158,4.128557025400121,0.9381228817115334,B,579.9570999806747,Correct,sub_005_day_04_data.csv,1,300,39.0,Training at home,,,,,,,,,,,,,
5,5,995,A,58.30704968345353,78.53340931567563,2.915352484172677,1.233599908837434,A,463.143199973274,Correct,sub_005_day_04_data.csv,1,300,39.0,Training at home,,,,,,,,,,,,,
5,5,996,B,38.09733830690848,12.79695035958886,1.904866915345424,0.2010140261901881,B,656.8041000282392,Correct,sub_005_day_04_data.csv,1,300,39.0,Training at home,,,,,,,,,,,,,
5,5,997,B,88.84989851390432,69.1590938448058,4.442494925695216,1.086348505758845,B,498.71720001101494,Correct,sub_005_day_04_data.csv,1,300,39.0,Training at home,,,,,,,,,,,,,
5,5,998,A,36.66793697188603,53.57695621713715,1.8333968485943015,0.8415848602673003,A,482.97899996396154,Correct,sub_005_day_04_data.csv,1,300,39.0,Training at home,,,,,,,,,,,,,
5,5,999,B,40.860796969270694,19.393195029784355,2.043039848463535,0.3046275951760231,B,601.8996000057086,Correct,sub_005_day_04_data.csv,1,300,39.0,Training at home,,,,,,,,,,,,,
5,5,1000,B,64.16287198858329,51.01356629223491,3.2081435994291643,0.8013192254855055,B,455.5304999812506,Correct,sub_005_day_04_data.csv,1,300,40.0,Training at home,,,,,,,,,,,,,
5,5,1001,A,30.139685938179653,56.60637418550842,1.5069842969089826,0.8891708464377408,A,576.1287999921478,Correct,sub_005_day_04_data.csv,1,300,40.0,Training at home,,,,,,,,,,,,,
5,5,1002,B,79.09890033500214,59.755073009843514,3.954945016750107,0.9386304919122308,B,574.4014999945648,Correct,sub_005_day_04_data.csv,1,300,40.0,Training at home,,,,,,,,,,,,,
5,5,1003,B,44.45425778358425,33.09614510857668,2.222712889179212,0.5198730316762313,B,506.6048000007868,Correct,sub_005_day_04_data.csv,1,300,40.0,Training at home,,,,,,,,,,,,,
5,5,1004,A,59.00393890864336,75.47869869110454,2.9501969454321677,1.1856166265524577,A,606.4526000409387,Correct,sub_005_day_04_data.csv,1,300,40.0,Training at home,,,,,,,,,,,,,
5,5,1005,A,69.5531516142131,88.0128891141341,3.4776575807106553,1.382503229310884,A,591.6229999857023,Correct,sub_005_day_04_data.csv,1,300,40.0,Training at home,,,,,,,,,,,,,
5,5,1006,B,41.486604493005814,17.87128567875521,2.0743302246502906,0.2807214989929092,B,488.0970999947749,Correct,sub_005_day_04_data.csv,1,300,40.0,Training at home,,,,,,,,,,,,,
5,5,1007,B,60.54345795296109,52.21913957118922,3.0271728976480548,0.8202563262681406,A,649.8318000230938,Incorrect,sub_005_day_04_data.csv,0,300,40.0,Training at home,,,,,,,,,,,,,
5,5,1008,B,84.03046751792827,59.98202458819991,4.2015233758964134,0.942195438968656,B,470.33909999299794,Correct,sub_005_day_04_data.csv,1,300,40.0,Training at home,,,,,,,,,,,,,
5,5,1009,B,41.62164104995243,15.472873000697152,2.0810820524976212,0.2430473207445901,B,551.2335000094026,Correct,sub_005_day_04_data.csv,1,300,40.0,Training at home,,,,,,,,,,,,,
5,5,1010,B,56.740938743053874,31.19762577425459,2.837046937152694,0.490051159709209,B,496.1491999565624,Correct,sub_005_day_04_data.csv,1,300,40.0,Training at home,,,,,,,,,,,,,
5,5,1011,B,69.50091055690639,40.86578847175494,3.475045527845319,0.6419183042300989,B,538.2920000120066,Correct,sub_005_day_04_data.csv,1,300,40.0,Training at home,,,,,,,,,,,,,
5,5,1012,B,51.04680548392653,37.43164991115922,2.5523402741963266,0.5879749818632141,B,673.9103000145406,Correct,sub_005_day_04_data.csv,1,300,40.0,Training at home,,,,,,,,,,,,,
5,5,1013,B,50.325639288927626,38.64253143668961,2.516281964446381,0.6069954643880836,B,483.64230000879616,Correct,sub_005_day_04_data.csv,1,300,40.0,Training at home,,,,,,,,,,,,,
5,5,1014,B,46.19637677295732,25.84840109138509,2.3098188386478657,0.4060257348786889,B,512.47830002103,Correct,sub_005_day_04_data.csv,1,300,40.0,Training at home,,,,,,,,,,,,,
5,5,1015,A,20.997183581517916,45.520284621333744,1.0498591790758958,0.7150309587784928,A,510.9867000137456,Correct,sub_005_day_04_data.csv,1,300,40.0,Training at home,,,,,,,,,,,,,
5,5,1016,B,44.73498942563384,25.680656161730596,2.236749471281692,0.4033908036852914,B,593.2889999821782,Correct,sub_005_day_04_data.csv,1,300,40.0,Training at home,,,,,,,,,,,,,
5,5,1017,A,50.98859477751812,61.871817769526054,2.549429738875906,0.9718802408449474,A,612.0416999910958,Correct,sub_005_day_04_data.csv,1,300,40.0,Training at home,,,,,,,,,,,,,
5,5,1018,A,66.43691620291595,88.85216476072337,3.3218458101457973,1.3956865403391925,A,719.3797000218183,Correct,sub_005_day_04_data.csv,1,300,40.0,Training at home,,,,,,,,,,,,,
5,5,1019,B,61.78978813977077,46.46380214563003,3.0894894069885384,0.7298516973928046,B,530.1977000199258,Correct,sub_005_day_04_data.csv,1,300,40.0,Training at home,,,,,,,,,,,,,
5,5,1020,A,34.204865520943194,65.57241752505705,1.7102432760471598,1.0300091258742092,A,519.2603999748826,Correct,sub_005_day_04_data.csv,1,300,40.0,Training at home,,,,,,,,,,,,,
5,5,1021,B,53.697262322629264,38.14537774673778,2.684863116131463,0.5991861924877949,B,674.0064999903552,Correct,sub_005_day_04_data.csv,1,300,40.0,Training at home,,,,,,,,,,,,,
5,5,1022,A,38.78810233501402,52.10383795435992,1.9394051167507007,0.8184451727062507,A,502.2327000042424,Correct,sub_005_day_04_data.csv,1,300,40.0,Training at home,,,,,,,,,,,,,
5,5,1023,A,42.011007142895046,54.482489957961555,2.100550357144752,0.8558089510060585,B,598.9121000166051,Incorrect,sub_005_day_04_data.csv,0,300,40.0,Training at home,,,,,,,,,,,,,
5,5,1024,A,41.66080129697577,57.88525940476568,2.083040064848789,0.9092595284857566,A,589.5518999896012,Correct,sub_005_day_04_data.csv,1,300,40.0,Training at home,,,,,,,,,,,,,
5,5,1025,B,42.82715730599298,23.084661372312844,2.141357865299649,0.3626130128893305,B,562.494500016328,Correct,sub_005_day_04_data.csv,1,300,41.0,Training at home,,,,,,,,,,,,,
5,5,1026,B,56.80136742541287,49.491998122626384,2.840068371270643,0.7774184885676143,B,558.2400999846868,Correct,sub_005_day_04_data.csv,1,300,41.0,Training at home,,,,,,,,,,,,,
5,5,1027,A,42.3332468692498,68.98083488742323,2.11666234346249,1.0835484206040966,A,557.790799997747,Correct,sub_005_day_04_data.csv,1,300,41.0,Training at home,,,,,,,,,,,,,
5,5,1028,B,80.66437952140885,50.50663198950606,4.033218976070442,0.7933563200789774,B,554.4837999623269,Correct,sub_005_day_04_data.csv,1,300,41.0,Training at home,,,,,,,,,,,,,
5,5,1029,A,36.23934276398978,57.128138634178114,1.811967138199489,0.897366703231966,A,502.3552000056952,Correct,sub_005_day_04_data.csv,1,300,41.0,Training at home,,,,,,,,,,,,,
5,5,1030,A,60.11374482064982,68.92599663166298,3.0056872410324913,1.082687023296936,B,532.1007000165991,Incorrect,sub_005_day_04_data.csv,0,300,41.0,Training at home,,,,,,,,,,,,,
5,5,1031,A,32.77869595973722,65.4551329794479,1.638934797986861,1.0281668245398825,A,480.0194000126794,Correct,sub_005_day_04_data.csv,1,300,41.0,Training at home,,,,,,,,,,,,,
5,5,1032,A,27.659067037617294,53.67924008764663,1.3829533518808648,0.843191531548167,A,750.1100999652408,Correct,sub_005_day_04_data.csv,1,300,41.0,Training at home,,,,,,,,,,,,,
5,5,1033,B,46.4004169748153,35.94514620048064,2.320020848740765,0.5646250361782053,B,554.798600031063,Correct,sub_005_day_04_data.csv,1,300,41.0,Training at home,,,,,,,,,,,,,
5,5,1034,B,41.98080673987172,21.934372364555045,2.099040336993586,0.3445443154079455,A,530.3231999860145,Incorrect,sub_005_day_04_data.csv,0,300,41.0,Training at home,,,,,,,,,,,,,
5,5,1035,B,87.17035851782335,60.996319269642726,4.358517925891167,0.9581279425676356,B,500.4135000053793,Correct,sub_005_day_04_data.csv,1,300,41.0,Training at home,,,,,,,,,,,,,
5,5,1036,A,41.88350090620528,57.014937271919855,2.094175045310264,0.8955885403917315,A,513.3067999850027,Correct,sub_005_day_04_data.csv,1,300,41.0,Training at home,,,,,,,,,,,,,
5,5,1037,B,58.9829182220747,39.92079978669369,2.9491459111037353,0.6270744566765295,B,596.6374999843538,Correct,sub_005_day_04_data.csv,1,300,41.0,Training at home,,,,,,,,,,,,,
5,5,1038,A,23.416178693048145,40.00302604419687,1.170808934652407,0.6283660637090502,A,495.7991000264883,Correct,sub_005_day_04_data.csv,1,300,41.0,Training at home,,,,,,,,,,,,,
5,5,1039,A,24.5663482594189,44.501510518865615,1.2283174129709449,0.6990280925985856,A,598.5030999872833,Correct,sub_005_day_04_data.csv,1,300,41.0,Training at home,,,,,,,,,,,,,
5,5,1040,A,20.27192739687693,43.87169377559542,1.0135963698438466,0.689134954329758,A,452.6115000480786,Correct,sub_005_day_04_data.csv,1,300,41.0,Training at home,,,,,,,,,,,,,
5,5,1041,A,41.87074720450838,49.7126884631046,2.0935373602254193,0.7808850843294374,B,660.3314999956638,Incorrect,sub_005_day_04_data.csv,0,300,41.0,Training at home,,,,,,,,,,,,,
5,5,1042,B,48.29868559482354,27.636550817328768,2.414934279741177,0.4341139250914052,B,619.7263000067323,Correct,sub_005_day_04_data.csv,1,300,41.0,Training at home,,,,,,,,,,,,,
5,5,1043,A,15.50980756219867,38.057293746934434,0.7754903781099336,0.5978025722543899,A,519.9484000331722,Correct,sub_005_day_04_data.csv,1,300,41.0,Training at home,,,,,,,,,,,,,
5,5,1044,B,70.63621560701203,39.78583719502639,3.531810780350602,0.6249544692440723,B,598.0510999797843,Correct,sub_005_day_04_data.csv,1,300,41.0,Training at home,,,,,,,,,,,,,
5,5,1045,B,76.30879059183435,59.59355533775993,3.8154395295917176,0.936093378252017,B,950.444800022524,Correct,sub_005_day_04_data.csv,1,300,41.0,Training at home,,,,,,,,,,,,,
5,5,1046,A,38.004883866467694,52.276223842497274,1.900244193323385,0.8211530039050252,A,492.7188999718055,Correct,sub_005_day_04_data.csv,1,300,41.0,Training at home,,,,,,,,,,,,,
5,5,1047,A,59.694146914918534,77.3161056337486,2.9847073457459263,1.2144785473157853,A,584.9844999611378,Correct,sub_005_day_04_data.csv,1,300,41.0,Training at home,,,,,,,,,,,,,
5,5,1048,B,60.15954874737301,29.990360259850867,3.0079774373686505,0.4710874773542938,B,517.9563999990933,Correct,sub_005_day_04_data.csv,1,300,41.0,Training at home,,,,,,,,,,,,,
5,5,1049,A,49.94031662301475,65.90397234269295,2.4970158311507378,1.0352171767709455,A,606.7686000023969,Correct,sub_005_day_04_data.csv,1,300,41.0,Training at home,,,,,,,,,,,,,
5,5,1050,A,68.23796012932274,81.41160121704132,3.4118980064661373,1.2788104415021944,B,625.8782999939285,Incorrect,sub_005_day_04_data.csv,0,300,42.0,Training at home,,,,,,,,,,,,,
5,5,1051,B,66.39196479503572,49.50432560717793,3.319598239751786,0.7776121282421365,B,678.3360000117682,Correct,sub_005_day_04_data.csv,1,300,42.0,Training at home,,,,,,,,,,,,,
5,5,1052,A,47.087662717008975,63.05400908595107,2.354383135850449,0.9904500586190398,A,1074.4130000239238,Correct,sub_005_day_04_data.csv,1,300,42.0,Training at home,,,,,,,,,,,,,
5,5,1053,B,35.71400728786147,22.895599244055266,1.7857003643930736,0.3596432319233001,B,679.380499990657,Correct,sub_005_day_04_data.csv,1,300,42.0,Training at home,,,,,,,,,,,,,
5,5,1054,A,15.526534596046304,37.51497298906879,0.7763267298023152,0.5892838177103902,A,556.8782000336796,Correct,sub_005_day_04_data.csv,1,300,42.0,Training at home,,,,,,,,,,,,,
5,5,1055,B,57.21930997744829,28.915303137072797,2.8609654988724147,0.4542005195587489,B,557.590699987486,Correct,sub_005_day_04_data.csv,1,300,42.0,Training at home,,,,,,,,,,,,,
5,5,1056,B,49.28049083155902,41.60406131579501,2.4640245415779507,0.6535150669460046,B,623.0701000313275,Correct,sub_005_day_04_data.csv,1,300,42.0,Training at home,,,,,,,,,,,,,
5,5,1057,A,65.25318912340416,79.0781967677343,3.2626594561702076,1.2421574101232111,A,810.8261000015773,Correct,sub_005_day_04_data.csv,1,300,42.0,Training at home,,,,,,,,,,,,,
5,5,1058,A,36.09370446584509,66.3635054109931,1.8046852232922543,1.0424355053282122,A,671.6107999673113,Correct,sub_005_day_04_data.csv,1,300,42.0,Training at home,,,,,,,,,,,,,
5,5,1059,A,28.955177125135563,54.35323042507594,1.447758856256778,0.8537785470114589,A,613.5346000082791,Correct,sub_005_day_04_data.csv,1,300,42.0,Training at home,,,,,,,,,,,,,
5,5,1060,A,63.42197951338518,76.03501266317188,3.171098975669259,1.1943551859911383,A,701.6954999999143,Correct,sub_005_day_04_data.csv,1,300,42.0,Training at home,,,,,,,,,,,,,
5,5,1061,B,59.94619563915324,29.95980384186864,2.9973097819576617,0.4706074982630289,B,651.4100999920629,Correct,sub_005_day_04_data.csv,1,300,42.0,Training at home,,,,,,,,,,,,,
5,5,1062,B,87.27550636054985,65.33263262200839,4.363775318027493,1.0262425934249122,B,598.8882000092417,Correct,sub_005_day_04_data.csv,1,300,42.0,Training at home,,,,,,,,,,,,,
5,5,1063,B,74.06841611500265,55.12477029457783,3.7034208057501328,0.8658978669413528,B,495.21700001787394,Correct,sub_005_day_04_data.csv,1,300,42.0,Training at home,,,,,,,,,,,,,
5,5,1064,A,10.947305773909822,30.927071471373484,0.5473652886954911,0.485801302657567,A,505.21289999596775,Correct,sub_005_day_04_data.csv,1,300,42.0,Training at home,,,,,,,,,,,,,
5,5,1065,A,30.798532367318245,51.41721562555697,1.5399266183659122,0.8076597343864604,A,553.009600029327,Correct,sub_005_day_04_data.csv,1,300,42.0,Training at home,,,,,,,,,,,,,
5,5,1066,A,47.171903066027056,75.9936439020047,2.3585951533013527,1.1937053670102835,A,513.0391000420786,Correct,sub_005_day_04_data.csv,1,300,42.0,Training at home,,,,,,,,,,,,,
5,5,1067,A,64.04986032822676,83.25884360603168,3.202493016411338,1.3078268570954532,B,610.1257000118494,Incorrect,sub_005_day_04_data.csv,0,300,42.0,Training at home,,,,,,,,,,,,,
5,5,1068,A,38.30179275781017,71.33727143944537,1.9150896378905085,1.1205632394065128,A,481.40910000074655,Correct,sub_005_day_04_data.csv,1,300,42.0,Training at home,,,,,,,,,,,,,
5,5,1069,B,57.93741560208311,50.10364798355204,2.8968707801041553,0.7870262621158806,B,815.3057000017725,Correct,sub_005_day_04_data.csv,1,300,42.0,Training at home,,,,,,,,,,,,,
5,5,1070,A,30.918824973873992,56.4496869397777,1.5459412486936994,0.8867096089372467,A,637.2076999978162,Correct,sub_005_day_04_data.csv,1,300,42.0,Training at home,,,,,,,,,,,,,
5,5,1071,A,46.5150582739414,75.90154609683694,2.32575291369707,1.19225869806965,A,530.3215999738313,Correct,sub_005_day_04_data.csv,1,300,42.0,Training at home,,,,,,,,,,,,,
5,5,1072,B,59.2324138152292,42.91421851665922,2.96162069076146,0.6740949681324183,B,537.8082999959588,Correct,sub_005_day_04_data.csv,1,300,42.0,Training at home,,,,,,,,,,,,,
5,5,1073,B,50.28537920418549,36.11407332141956,2.5142689602092743,0.5672785371888741,B,605.1890999660827,Correct,sub_005_day_04_data.csv,1,300,42.0,Training at home,,,,,,,,,,,,,
5,5,1074,A,57.38854921948088,76.29561173098251,2.869427460974044,1.1984486665759695,A,547.7393000037409,Correct,sub_005_day_04_data.csv,1,300,42.0,Training at home,,,,,,,,,,,,,
5,5,1075,A,52.91046770723021,74.57727787643267,2.6455233853615105,1.1714571415066275,A,534.4761000014842,Correct,sub_005_day_04_data.csv,1,300,43.0,Training at home,,,,,,,,,,,,,
5,5,1076,B,51.43742741390285,32.02470361117854,2.571871370695143,0.503042867991345,B,698.7949999747798,Correct,sub_005_day_04_data.csv,1,300,43.0,Training at home,,,,,,,,,,,,,
5,5,1077,B,43.392566522705216,28.892351993160062,2.169628326135261,0.4538400038332103,A,639.8569000302814,Incorrect,sub_005_day_04_data.csv,0,300,43.0,Training at home,,,,,,,,,,,,,
5,5,1078,B,82.40894290276687,63.1654987951883,4.1204471451383435,0.9922013348764924,B,517.9099999950267,Correct,sub_005_day_04_data.csv,1,300,43.0,Training at home,,,,,,,,,,,,,
5,5,1079,B,74.73232188253687,48.42762610043565,3.7366160941268434,0.7606993719396098,B,548.9653999684379,Correct,sub_005_day_04_data.csv,1,300,43.0,Training at home,,,,,,,,,,,,,
5,5,1080,B,40.32192257596033,19.655781063803428,2.016096128798017,0.3087522869530711,A,497.2469999920577,Incorrect,sub_005_day_04_data.csv,0,300,43.0,Training at home,,,,,,,,,,,,,
5,5,1081,A,64.67165213545145,77.52901655274694,3.2335826067725724,1.2178229442107562,A,516.2717999774031,Correct,sub_005_day_04_data.csv,1,300,43.0,Training at home,,,,,,,,,,,,,
5,5,1082,B,61.6574781020587,48.703268164361745,3.082873905102935,0.7650291473548625,B,395.08550002938136,Correct,sub_005_day_04_data.csv,1,300,43.0,Training at home,,,,,,,,,,,,,
5,5,1083,A,19.543517061610537,45.90483804287609,0.9771758530805268,0.7210715097986439,A,484.21480000251904,Correct,sub_005_day_04_data.csv,1,300,43.0,Training at home,,,,,,,,,,,,,
5,5,1084,A,14.978128399396136,31.92944320374514,0.7489064199698069,0.5015465210104915,A,502.4896999821067,Correct,sub_005_day_04_data.csv,1,300,43.0,Training at home,,,,,,,,,,,,,
5,5,1085,B,80.62959437125437,52.05127525980557,4.031479718562719,0.8176195198309265,B,991.4499000296928,Correct,sub_005_day_04_data.csv,1,300,43.0,Training at home,,,,,,,,,,,,,
5,5,1086,B,39.84291016177171,31.146012879681535,1.9921455080885857,0.4892404262571029,A,621.8423999962397,Incorrect,sub_005_day_04_data.csv,0,300,43.0,Training at home,,,,,,,,,,,,,
5,5,1087,B,41.69401456069345,25.68304703575857,2.0847007280346723,0.4034283594467011,A,697.5551000214182,Incorrect,sub_005_day_04_data.csv,0,300,43.0,Training at home,,,,,,,,,,,,,
5,5,1088,B,42.547669883370475,27.833884985126534,2.127383494168524,0.4372136429506839,B,837.4633999774233,Correct,sub_005_day_04_data.csv,1,300,43.0,Training at home,,,,,,,,,,,,,
5,5,1089,B,43.63520504855575,27.874439583769707,2.1817602524277873,0.4378506730965172,B,638.8139000046067,Correct,sub_005_day_04_data.csv,1,300,43.0,Training at home,,,,,,,,,,,,,
5,5,1090,A,43.45764755430366,59.84515453140237,2.172882377715183,0.940045489143998,A,682.2899999679066,Correct,sub_005_day_04_data.csv,1,300,43.0,Training at home,,,,,,,,,,,,,
5,5,1091,A,17.261648137388,32.49829699688042,0.8630824068694,0.5104820554978938,A,522.606500016991,Correct,sub_005_day_04_data.csv,1,300,43.0,Training at home,,,,,,,,,,,,,
5,5,1092,A,62.1145073921429,72.91038727698869,3.105725369607145,1.1452736851988718,B,469.24720000242814,Incorrect,sub_005_day_04_data.csv,0,300,43.0,Training at home,,,,,,,,,,,,,
5,5,1093,A,26.20732037131773,57.04866629873168,1.3103660185658863,0.8961183547059552,A,772.9395999922417,Correct,sub_005_day_04_data.csv,1,300,43.0,Training at home,,,,,,,,,,,,,
5,5,1094,B,71.9459545765355,38.77392074228211,3.5972977288267747,0.6090593227741318,B,745.2837000018917,Correct,sub_005_day_04_data.csv,1,300,43.0,Training at home,,,,,,,,,,,,,
5,5,1095,B,74.90435895685957,51.78766869724448,3.7452179478429786,0.813478797629027,A,509.2335999943316,Incorrect,sub_005_day_04_data.csv,0,300,43.0,Training at home,,,,,,,,,,,,,
5,5,1096,A,40.69925064514946,71.17593859440281,2.034962532257473,1.1180290290026706,A,590.1176000479609,Correct,sub_005_day_04_data.csv,1,300,43.0,Training at home,,,,,,,,,,,,,
5,5,1097,B,46.810581577239304,29.176946664859884,2.340529078861965,0.4583104064825251,B,551.4649000251666,Correct,sub_005_day_04_data.csv,1,300,43.0,Training at home,,,,,,,,,,,,,
5,5,1098,A,61.8941114971544,87.90506933542815,3.0947055748577204,1.3808096001874124,A,716.8289999826811,Correct,sub_005_day_04_data.csv,1,300,43.0,Training at home,,,,,,,,,,,,,
5,5,1099,A,40.357589755861426,61.84987437125807,2.0178794877930715,0.97153555475098,B,647.0788000151515,Incorrect,sub_005_day_04_data.csv,0,300,43.0,Training at home,,,,,,,,,,,,,
5,5,1100,A,23.908388099304084,44.98098584140493,1.1954194049652045,0.7065596733529211,A,489.5556000410579,Correct,sub_005_day_04_data.csv,1,300,44.0,Training at home,,,,,,,,,,,,,
5,5,1101,A,54.52859303052788,79.41688230542817,2.726429651526394,1.2474774701086917,A,735.9341999981552,Correct,sub_005_day_04_data.csv,1,300,44.0,Training at home,,,,,,,,,,,,,
5,5,1102,A,35.000363383939955,43.52500951968479,1.7500181691969976,0.6836892507723377,A,650.1360000111163,Correct,sub_005_day_04_data.csv,1,300,44.0,Training at home,,,,,,,,,,,,,
5,5,1103,B,53.95390545469411,42.95994769327522,2.6976952727347054,0.674813280358976,B,572.1130999736488,Correct,sub_005_day_04_data.csv,1,300,44.0,Training at home,,,,,,,,,,,,,
5,5,1104,B,65.29901319587846,32.19877307237416,3.264950659793923,0.5057771446938776,A,538.1097999634221,Incorrect,sub_005_day_04_data.csv,0,300,44.0,Training at home,,,,,,,,,,,,,
5,5,1105,B,47.173579757018466,32.118263807179765,2.3586789878509236,0.5045125081134745,B,783.1314000068232,Correct,sub_005_day_04_data.csv,1,300,44.0,Training at home,,,,,,,,,,,,,
5,5,1106,A,58.592517981134975,84.00376592210418,2.9296258990567488,1.3195280694737954,A,528.7262999918312,Correct,sub_005_day_04_data.csv,1,300,44.0,Training at home,,,,,,,,,,,,,
5,5,1107,A,59.80900131325056,83.35211327672543,2.9904500656625284,1.3092919336567244,A,484.6549000358209,Correct,sub_005_day_04_data.csv,1,300,44.0,Training at home,,,,,,,,,,,,,
5,5,1108,B,79.2304131934416,58.61046543705767,3.9615206596720807,0.9206510382026942,B,575.0635999720544,Correct,sub_005_day_04_data.csv,1,300,44.0,Training at home,,,,,,,,,,,,,
5,5,1109,B,44.658626259793344,32.1847457326063,2.2329313129896673,0.5055568037560569,A,513.2130000274628,Incorrect,sub_005_day_04_data.csv,0,300,44.0,Training at home,,,,,,,,,,,,,
5,5,1110,A,46.85565286765105,55.44084326961476,2.3427826433825527,0.8708627296232243,A,579.3388999882154,Correct,sub_005_day_04_data.csv,1,300,44.0,Training at home,,,,,,,,,,,,,
5,5,1111,B,71.0447092637746,40.28880808249716,3.5522354631887305,0.6328551174693108,B,589.5366999902762,Correct,sub_005_day_04_data.csv,1,300,44.0,Training at home,,,,,,,,,,,,,
5,5,1112,B,71.06124419055318,43.34472851340005,3.553062209527659,0.6808574033477082,B,486.616799957119,Correct,sub_005_day_04_data.csv,1,300,44.0,Training at home,,,,,,,,,,,,,
5,5,1113,A,20.273817177255033,37.09150753388449,1.0136908588627518,0.5826320378951099,A,503.3793000038713,Correct,sub_005_day_04_data.csv,1,300,44.0,Training at home,,,,,,,,,,,,,
5,5,1114,B,73.48491680159913,63.32734600288153,3.674245840079956,0.9947436248699576,A,876.3255000230856,Incorrect,sub_005_day_04_data.csv,0,300,44.0,Training at home,,,,,,,,,,,,,
5,5,1115,B,60.19360496056792,33.61151231840745,3.0096802480283964,0.5279684008777584,B,598.0701000080444,Correct,sub_005_day_04_data.csv,1,300,44.0,Training at home,,,,,,,,,,,,,
5,5,1116,A,45.43803652562751,75.34961905951891,2.2719018262813755,1.1835890484408704,A,665.7345999847166,Correct,sub_005_day_04_data.csv,1,300,44.0,Training at home,,,,,,,,,,,,,
5,5,1117,A,59.49056440507465,77.68908135589693,2.974528220253733,1.220337236259128,A,553.1453000148758,Correct,sub_005_day_04_data.csv,1,300,44.0,Training at home,,,,,,,,,,,,,
5,5,1118,A,60.030852075027965,74.29460825285129,3.001542603751398,1.167016977442446,A,463.18039996549487,Correct,sub_005_day_04_data.csv,1,300,44.0,Training at home,,,,,,,,,,,,,
5,5,1119,B,85.23933956947502,63.32256884146066,4.261966978473751,0.9946685853938336,B,629.4459000346251,Correct,sub_005_day_04_data.csv,1,300,44.0,Training at home,,,,,,,,,,,,,
5,5,1120,B,66.34432000475557,55.559054307739544,3.3172160002377784,0.8727195842679545,B,521.8279999680817,Correct,sub_005_day_04_data.csv,1,300,44.0,Training at home,,,,,,,,,,,,,
5,5,1121,A,48.7363890575321,71.23934222999556,2.436819452876605,1.119024970981616,A,461.5311999805272,Correct,sub_005_day_04_data.csv,1,300,44.0,Training at home,,,,,,,,,,,,,
5,5,1122,B,73.01641048902032,41.964432086477686,3.650820524451015,0.6591757577747305,B,546.8682000064291,Correct,sub_005_day_04_data.csv,1,300,44.0,Training at home,,,,,,,,,,,,,
5,5,1123,A,13.78403365384155,36.7347479750983,0.6892016826920775,0.5770280718502069,A,572.0156999886967,Correct,sub_005_day_04_data.csv,1,300,44.0,Training at home,,,,,,,,,,,,,
5,5,1124,A,15.579768133169072,42.3768659779936,0.7789884066584536,0.6656542541931197,A,801.2968000257388,Correct,sub_005_day_04_data.csv,1,300,44.0,Training at home,,,,,,,,,,,,,
5,5,1125,B,53.407969064653,22.34687182943294,2.67039845323265,0.3510238418502961,A,559.3247999786399,Incorrect,sub_005_day_04_data.csv,0,300,45.0,Training at home,,,,,,,,,,,,,
5,5,1126,B,58.10909472483941,41.649802748914794,2.9054547362419703,0.6542335716972734,B,674.6983000193723,Correct,sub_005_day_04_data.csv,1,300,45.0,Training at home,,,,,,,,,,,,,
5,5,1127,A,39.74883791670351,68.83597948381416,1.9874418958351752,1.0812730372450414,A,771.4846999733709,Correct,sub_005_day_04_data.csv,1,300,45.0,Training at home,,,,,,,,,,,,,
5,5,1128,A,23.526112211563223,49.55405638427103,1.1763056105781613,0.7783932974620011,A,488.25419996865094,Correct,sub_005_day_04_data.csv,1,300,45.0,Training at home,,,,,,,,,,,,,
5,5,1129,A,42.366950857790066,51.32638340161699,2.1183475428895036,0.806232945149265,B,612.0827000122517,Incorrect,sub_005_day_04_data.csv,0,300,45.0,Training at home,,,,,,,,,,,,,
5,5,1130,A,46.99450642803777,56.08714701597384,2.3497253214018885,0.8810148451309707,B,561.948399990797,Incorrect,sub_005_day_04_data.csv,0,300,45.0,Training at home,,,,,,,,,,,,,
5,5,1131,A,31.914888228940427,45.2703488233973,1.5957444114470212,0.7111049764451614,A,506.2408999656327,Correct,sub_005_day_04_data.csv,1,300,45.0,Training at home,,,,,,,,,,,,,
5,5,1132,B,58.97296090851544,38.13345522674415,2.948648045425772,0.5989989139816735,B,494.09160000504926,Correct,sub_005_day_04_data.csv,1,300,45.0,Training at home,,,,,,,,,,,,,
5,5,1133,B,35.57994625329386,17.06307492349891,1.778997312664693,0.268026154136582,B,789.0240999986418,Correct,sub_005_day_04_data.csv,1,300,45.0,Training at home,,,,,,,,,,,,,
5,5,1134,B,79.47465497630667,59.1383079342322,3.973732748815334,0.9289423687595744,B,465.8424999797717,Correct,sub_005_day_04_data.csv,1,300,45.0,Training at home,,,,,,,,,,,,,
5,5,1135,A,44.66946104792041,71.71936939360162,2.2334730523960205,1.1265652200351577,A,569.1425999975763,Correct,sub_005_day_04_data.csv,1,300,45.0,Training at home,,,,,,,,,,,,,
5,5,1136,A,34.38066840097123,58.586598785953534,1.7190334200485615,0.9202761417238216,A,476.37160000158474,Correct,sub_005_day_04_data.csv,1,300,45.0,Training at home,,,,,,,,,,,,,
5,5,1137,B,48.12050302327639,28.960726220310136,2.40602515116382,0.4549140236817581,B,487.803999974858,Correct,sub_005_day_04_data.csv,1,300,45.0,Training at home,,,,,,,,,,,,,
5,5,1138,A,11.420352425035292,31.7185422719402,0.5710176212517646,0.4982336969205232,A,470.3866000054404,Correct,sub_005_day_04_data.csv,1,300,45.0,Training at home,,,,,,,,,,,,,
5,5,1139,A,46.35130815463989,55.3444907100338,2.3175654077319945,0.8693492271565538,A,530.7653999770992,Correct,sub_005_day_04_data.csv,1,300,45.0,Training at home,,,,,,,,,,,,,
5,5,1140,A,43.281671072461045,58.038572987791134,2.1640835536230525,0.9116677726163982,A,566.5145000093617,Correct,sub_005_day_04_data.csv,1,300,45.0,Training at home,,,,,,,,,,,,,
5,5,1141,A,32.17916308577434,55.38422259144149,1.6089581542887172,0.8699733340902722,A,658.0056000384502,Correct,sub_005_day_04_data.csv,1,300,45.0,Training at home,,,,,,,,,,,,,
5,5,1142,B,53.81288126426371,29.028023424545907,2.690644063213186,0.4559711256939292,B,448.63439997425303,Correct,sub_005_day_04_data.csv,1,300,45.0,Training at home,,,,,,,,,,,,,
5,5,1143,A,32.428924803716626,40.96262565520105,1.6214462401858314,0.643439419150642,A,510.9738999744877,Correct,sub_005_day_04_data.csv,1,300,45.0,Training at home,,,,,,,,,,,,,
5,5,1144,B,48.02956381841957,31.055514020272057,2.4014781909209786,0.4878188734977076,B,418.0983999976888,Correct,sub_005_day_04_data.csv,1,300,45.0,Training at home,,,,,,,,,,,,,
5,5,1145,B,55.57992566526303,48.005425070596885,2.778996283263152,0.7540674536712122,B,759.7705000080168,Correct,sub_005_day_04_data.csv,1,300,45.0,Training at home,,,,,,,,,,,,,
5,5,1146,A,33.50063109493498,52.08908826635131,1.6750315547467491,0.8182134851487978,A,484.403700043913,Correct,sub_005_day_04_data.csv,1,300,45.0,Training at home,,,,,,,,,,,,,
5,5,1147,A,45.109471645124366,58.92900947694488,2.255473582256218,0.9256547162804668,A,534.5594999962486,Correct,sub_005_day_04_data.csv,1,300,45.0,Training at home,,,,,,,,,,,,,
5,5,1148,B,65.46925702901058,57.20706718433546,3.273462851450529,0.8986065099986301,B,520.4849000438116,Correct,sub_005_day_04_data.csv,1,300,45.0,Training at home,,,,,,,,,,,,,
5,5,1149,B,67.42496543175669,50.64990824536275,3.3712482715878345,0.7956068982431436,B,449.327300011646,Correct,sub_005_day_04_data.csv,1,300,45.0,Training at home,,,,,,,,,,,,,
5,5,1150,B,50.71560597191305,34.027057502238506,2.535780298595653,0.5344957693615496,A,555.3630000213161,Incorrect,sub_005_day_04_data.csv,0,300,46.0,Training at home,,,,,,,,,,,,,
5,5,1151,B,82.90212095221136,53.533792422738905,4.145106047610568,0.8409068449703873,B,410.6040000333451,Correct,sub_005_day_04_data.csv,1,300,46.0,Training at home,,,,,,,,,,,,,
5,5,1152,A,44.06315841915907,52.108776639651715,2.2031579209579535,0.8185227493934062,A,492.0974000124261,Correct,sub_005_day_04_data.csv,1,300,46.0,Training at home,,,,,,,,,,,,,
5,5,1153,A,23.409681710648098,40.07465558837147,1.170484085532405,0.6294912179578448,A,449.2156999767758,Correct,sub_005_day_04_data.csv,1,300,46.0,Training at home,,,,,,,,,,,,,
5,5,1154,B,84.22027039699708,63.78684600497941,4.211013519849854,1.0019614340245335,B,497.96150001930073,Correct,sub_005_day_04_data.csv,1,300,46.0,Training at home,,,,,,,,,,,,,
5,5,1155,B,49.36344242165439,29.77246272959581,2.468172121082719,0.4676647509528706,B,538.2665000506677,Correct,sub_005_day_04_data.csv,1,300,46.0,Training at home,,,,,,,,,,,,,
5,5,1156,B,80.89083972270434,66.27428451613284,4.044541986135218,1.0410340267890137,B,413.00040000351146,Correct,sub_005_day_04_data.csv,1,300,46.0,Training at home,,,,,,,,,,,,,
5,5,1157,A,22.638601074156114,34.98305616721374,1.1319300537078056,0.549512561275189,A,407.1234000148252,Correct,sub_005_day_04_data.csv,1,300,46.0,Training at home,,,,,,,,,,,,,
5,5,1158,B,58.60500734419432,42.86931261698245,2.9302503672097155,0.6733895879097814,B,512.1951000182889,Correct,sub_005_day_04_data.csv,1,300,46.0,Training at home,,,,,,,,,,,,,
5,5,1159,A,44.04466375937946,60.89832102316124,2.202233187968973,0.956588589711581,A,455.78089996706694,Correct,sub_005_day_04_data.csv,1,300,46.0,Training at home,,,,,,,,,,,,,
5,5,1160,A,17.906022327073522,38.99814852868746,0.895301116353676,0.6125814846066406,A,486.96089995792136,Correct,sub_005_day_04_data.csv,1,300,46.0,Training at home,,,,,,,,,,,,,
5,5,1161,A,62.33741324414204,80.94521968320016,3.116870662207102,1.271484537499768,B,695.9391999989748,Incorrect,sub_005_day_04_data.csv,0,300,46.0,Training at home,,,,,,,,,,,,,
5,5,1162,B,47.61236650375288,28.48777774119388,2.380618325187644,0.4474849663441676,B,625.9157999884337,Correct,sub_005_day_04_data.csv,1,300,46.0,Training at home,,,,,,,,,,,,,
5,5,1163,A,42.59821293066141,69.87145839936255,2.129910646533071,1.0975383020152112,A,566.3154000067152,Correct,sub_005_day_04_data.csv,1,300,46.0,Training at home,,,,,,,,,,,,,
5,5,1164,B,61.55033560834662,50.49696502327427,3.077516780417331,0.7932044717284958,A,496.95310002425686,Incorrect,sub_005_day_04_data.csv,0,300,46.0,Training at home,,,,,,,,,,,,,
5,5,1165,B,35.8190031543624,23.62032461744257,1.79095015771812,0.3710271914678186,B,620.7359000109136,Correct,sub_005_day_04_data.csv,1,300,46.0,Training at home,,,,,,,,,,,,,
5,5,1166,A,33.23429503967867,65.0344152954009,1.6617147519839337,1.0215582066126958,A,460.773499973584,Correct,sub_005_day_04_data.csv,1,300,46.0,Training at home,,,,,,,,,,,,,
5,5,1167,B,51.23614175875062,25.990854718231105,2.5618070879375305,0.4082633912165722,B,484.3953000381589,Correct,sub_005_day_04_data.csv,1,300,46.0,Training at home,,,,,,,,,,,,,
5,5,1168,B,73.29100662542031,48.57947433938066,3.664550331271016,0.7630845984992607,B,487.0316000306047,Correct,sub_005_day_04_data.csv,1,300,46.0,Training at home,,,,,,,,,,,,,
5,5,1169,A,27.04372955268154,50.16398999167684,1.352186477634077,0.7879741121630194,A,374.2327999789268,Correct,sub_005_day_04_data.csv,1,300,46.0,Training at home,,,,,,,,,,,,,
5,5,1170,A,52.7812813309947,66.5920398430118,2.6390640665497354,1.0460253157918231,B,639.7045000339858,Incorrect,sub_005_day_04_data.csv,0,300,46.0,Training at home,,,,,,,,,,,,,
5,5,1171,B,51.21178767102621,25.481935277427944,2.5605893835513105,0.4002693033340911,B,540.22869997425,Correct,sub_005_day_04_data.csv,1,300,46.0,Training at home,,,,,,,,,,,,,
5,5,1172,B,39.21311649174024,29.40344136183693,1.960655824587012,0.4618681768630257,B,583.6168000241742,Correct,sub_005_day_04_data.csv,1,300,46.0,Training at home,,,,,,,,,,,,,
5,5,1173,A,32.769377228232514,52.32514064209845,1.6384688614116256,0.821921387196346,A,697.327799978666,Correct,sub_005_day_04_data.csv,1,300,46.0,Training at home,,,,,,,,,,,,,
5,5,1174,B,74.33870919332182,45.87956176299671,3.7169354596660913,0.7206744709227484,B,547.7104000165127,Correct,sub_005_day_04_data.csv,1,300,46.0,Training at home,,,,,,,,,,,,,
5,5,1175,B,48.712274358122286,21.225782158538703,2.435613717906114,0.3334138064798125,B,505.10820001363754,Correct,sub_005_day_04_data.csv,1,300,47.0,Training at home,,,,,,,,,,,,,
5,5,1176,B,60.77872663922016,37.62727119927021,3.0389363319610077,0.5910477938712906,B,442.8889999981038,Correct,sub_005_day_04_data.csv,1,300,47.0,Training at home,,,,,,,,,,,,,
5,5,1177,A,34.64513635069537,58.38043326085422,1.7322568175347683,0.917037701228444,A,504.3296000221744,Correct,sub_005_day_04_data.csv,1,300,47.0,Training at home,,,,,,,,,,,,,
5,5,1178,B,71.64501280916443,43.946050367518666,3.5822506404582213,0.6903029449444185,B,491.09170003794134,Correct,sub_005_day_04_data.csv,1,300,47.0,Training at home,,,,,,,,,,,,,
5,5,1179,A,55.14965204789073,66.92131595711999,2.7574826023945365,1.0511975728972478,B,353.2036999822594,Incorrect,sub_005_day_04_data.csv,0,300,47.0,Training at home,,,,,,,,,,,,,
5,5,1180,B,56.02391212515962,25.56812895594244,2.801195606257981,0.4016232304701262,B,470.6877999706194,Correct,sub_005_day_04_data.csv,1,300,47.0,Training at home,,,,,,,,,,,,,
5,5,1181,A,62.8131399375886,73.49127400596437,3.1406569968794305,1.1543982326004611,A,746.8881999957375,Correct,sub_005_day_04_data.csv,1,300,47.0,Training at home,,,,,,,,,,,,,
5,5,1182,B,65.6712360075628,56.60156065343797,3.28356180037814,0.889095235652789,B,414.2938000150025,Correct,sub_005_day_04_data.csv,1,300,47.0,Training at home,,,,,,,,,,,,,
5,5,1183,B,36.60525654469272,16.24902762680021,1.830262827234636,0.2552391291016656,A,482.3337999987416,Incorrect,sub_005_day_04_data.csv,0,300,47.0,Training at home,,,,,,,,,,,,,
5,5,1184,A,45.17391150590387,56.66283620857079,2.2586955752951936,0.8900577498220386,A,555.6667999480851,Correct,sub_005_day_04_data.csv,1,300,47.0,Training at home,,,,,,,,,,,,,
5,5,1185,B,62.56906838591843,36.6963724861957,3.128453419295921,0.5764252710801352,B,394.76379996631294,Correct,sub_005_day_04_data.csv,1,300,47.0,Training at home,,,,,,,,,,,,,
5,5,1186,A,42.7620128575052,73.07504167454525,2.13810064287526,1.1478600704275963,A,470.2996999840252,Correct,sub_005_day_04_data.csv,1,300,47.0,Training at home,,,,,,,,,,,,,
5,5,1187,A,44.33244342427663,53.41378112491837,2.2166221712138316,0.8390217119124836,B,757.8515000059269,Incorrect,sub_005_day_04_data.csv,0,300,47.0,Training at home,,,,,,,,,,,,,
5,5,1188,A,63.11100076734232,72.89249940096929,3.155550038367116,1.1449927030994176,B,478.8500999566168,Incorrect,sub_005_day_04_data.csv,0,300,47.0,Training at home,,,,,,,,,,,,,
5,5,1189,B,66.81221416392727,57.70931646905627,3.340610708196363,0.906495823314378,A,661.8796999682672,Incorrect,sub_005_day_04_data.csv,0,300,47.0,Training at home,,,,,,,,,,,,,
5,5,1190,B,48.31035471614091,25.0621391299534,2.4155177358070454,0.3936751608695345,B,504.7145000426098,Correct,sub_005_day_04_data.csv,1,300,47.0,Training at home,,,,,,,,,,,,,
5,5,1191,A,38.717871177442845,46.65061382286429,1.9358935588721424,0.7327861283568244,B,616.7469000210986,Incorrect,sub_005_day_04_data.csv,0,300,47.0,Training at home,,,,,,,,,,,,,
5,5,1192,B,65.03034864405537,41.198888432807195,3.2515174322027685,0.647150626182863,B,452.353700005915,Correct,sub_005_day_04_data.csv,1,300,47.0,Training at home,,,,,,,,,,,,,
5,5,1193,B,35.12031472626141,18.132737170498427,1.7560157363130708,0.2848283694215621,B,435.27020001783967,Correct,sub_005_day_04_data.csv,1,300,47.0,Training at home,,,,,,,,,,,,,
5,5,1194,B,70.69822367302747,56.5069750556697,3.534911183651374,0.8876094885573682,A,523.3402999583632,Incorrect,sub_005_day_04_data.csv,0,300,47.0,Training at home,,,,,,,,,,,,,
5,5,1195,B,84.89771123311958,56.28562015162906,4.2448855616559795,0.8841324538555173,B,482.38059994764626,Correct,sub_005_day_04_data.csv,1,300,47.0,Training at home,,,,,,,,,,,,,
5,5,1196,A,45.87212012068635,56.138237978801506,2.2936060060343175,0.8818173800983917,A,620.3763000085019,Correct,sub_005_day_04_data.csv,1,300,47.0,Training at home,,,,,,,,,,,,,
5,5,1197,A,57.39570940957319,72.84305733593567,2.8697854704786594,1.144216068957978,A,510.7168999966234,Correct,sub_005_day_04_data.csv,1,300,47.0,Training at home,,,,,,,,,,,,,
5,5,1198,B,72.78269879101074,54.08176490038202,3.639134939550537,0.8495143765210523,B,511.54189999215305,Correct,sub_005_day_04_data.csv,1,300,47.0,Training at home,,,,,,,,,,,,,
5,5,1199,B,54.066949050555465,31.335770811533724,2.7033474525277734,0.492221136880439,B,596.3115000049584,Correct,sub_005_day_04_data.csv,1,300,47.0,Training at home,,,,,,,,,,,,,
