subject,day,trial,cat,x,y,xt,yt,resp,rt,fb,f_name,acc,n_trials,block,session_type,ns_left_digit,ns_right_digit,ns_left_size,ns_right_size,ns_congruent,ns_cue,ns_correct_side,ns_resp,ns_rt,ns_fb,acc_stroop,acc_stroop_mean,resp_key
5,4,600,A,41.34720743703034,48.80044582332052,2.067360371851517,0.7665556104522523,B,681.3885999727063,Incorrect,sub_005_day_03_data.csv,0,300,24.0,Training at home,,,,,,,,,,,,,
5,4,601,A,36.91532928868034,53.143288528949206,1.845766464434017,0.8347728241507476,A,460.06220002891496,Correct,sub_005_day_03_data.csv,1,300,24.0,Training at home,,,,,,,,,,,,,
5,4,602,A,55.88732007653422,69.70391643681253,2.7943660038267115,1.0949065590216354,B,500.7705999887549,Incorrect,sub_005_day_03_data.csv,0,300,24.0,Training at home,,,,,,,,,,,,,
5,4,603,B,45.306695735297595,30.25699726725982,2.2653347867648796,0.4752758016725494,B,537.9898999817669,Correct,sub_005_day_03_data.csv,1,300,24.0,Training at home,,,,,,,,,,,,,
5,4,604,A,45.317878594415966,77.0238141728714,2.2658939297207983,1.2098872437847907,A,578.8577999919653,Correct,sub_005_day_03_data.csv,1,300,24.0,Training at home,,,,,,,,,,,,,
5,4,605,A,26.73760193013309,46.53723135316022,1.3368800965066543,0.7310051206874838,A,765.6584000214934,Correct,sub_005_day_03_data.csv,1,300,24.0,Training at home,,,,,,,,,,,,,
5,4,606,B,34.08437704112214,18.41867874509158,1.704218852056107,0.2893199291720508,B,606.9506999920122,Correct,sub_005_day_03_data.csv,1,300,24.0,Training at home,,,,,,,,,,,,,
5,4,607,B,65.84664689597396,51.33849409830401,3.292332344798698,0.8064231795279742,B,463.97240000078455,Correct,sub_005_day_03_data.csv,1,300,24.0,Training at home,,,,,,,,,,,,,
5,4,608,A,25.087684434253944,54.27248697431731,1.2543842217126973,0.8525102318528149,A,448.170299991034,Correct,sub_005_day_03_data.csv,1,300,24.0,Training at home,,,,,,,,,,,,,
5,4,609,B,56.8159386187067,26.352761269813698,2.840796930935335,0.4139482060352618,B,451.4702999731526,Correct,sub_005_day_03_data.csv,1,300,24.0,Training at home,,,,,,,,,,,,,
5,4,610,B,76.59371496674905,61.13095663675134,3.829685748337453,0.9602428213846712,A,436.20220001321286,Incorrect,sub_005_day_03_data.csv,0,300,24.0,Training at home,,,,,,,,,,,,,
5,4,611,B,55.68786850509325,40.73773771807112,2.7843934252546627,0.6399068876948003,B,450.7420000154525,Correct,sub_005_day_03_data.csv,1,300,24.0,Training at home,,,,,,,,,,,,,
5,4,612,A,61.79044328291259,84.7330332834737,3.089522164145629,1.330983374398702,A,576.3783999718726,Correct,sub_005_day_03_data.csv,1,300,24.0,Training at home,,,,,,,,,,,,,
5,4,613,A,39.80714827338304,60.733752108953695,1.990357413669152,0.9540035472521629,B,605.2696999977343,Incorrect,sub_005_day_03_data.csv,0,300,24.0,Training at home,,,,,,,,,,,,,
5,4,614,B,63.2838342378269,51.950711568595125,3.1641917118913447,0.8160398690633035,B,590.3818999649957,Correct,sub_005_day_03_data.csv,1,300,24.0,Training at home,,,,,,,,,,,,,
5,4,615,A,54.129237590332465,83.74500030176647,2.7064618795166235,1.3154633886145226,A,525.348800001666,Correct,sub_005_day_03_data.csv,1,300,24.0,Training at home,,,,,,,,,,,,,
5,4,616,A,50.38457173575811,70.48743917202873,2.5192285867879054,1.1072141053660145,A,619.9918999918737,Correct,sub_005_day_03_data.csv,1,300,24.0,Training at home,,,,,,,,,,,,,
5,4,617,A,30.60468874542648,54.78750830211365,1.530234437271324,0.8606001679520502,A,655.4411000106484,Correct,sub_005_day_03_data.csv,1,300,24.0,Training at home,,,,,,,,,,,,,
5,4,618,A,51.96077589383427,76.10873960846979,2.598038794691713,1.1955132861397362,A,566.2029999657534,Correct,sub_005_day_03_data.csv,1,300,24.0,Training at home,,,,,,,,,,,,,
5,4,619,B,62.25555383416577,37.76753562880655,3.1127776917082883,0.5932510623782472,B,531.3936999882571,Correct,sub_005_day_03_data.csv,1,300,24.0,Training at home,,,,,,,,,,,,,
5,4,620,A,15.552320745164064,39.292135125971654,0.7776160372582033,0.6171994152780501,A,509.1025999863632,Correct,sub_005_day_03_data.csv,1,300,24.0,Training at home,,,,,,,,,,,,,
5,4,621,A,60.41641256533907,80.19699247837316,3.020820628266954,1.259731412050265,A,637.4857000191696,Correct,sub_005_day_03_data.csv,1,300,24.0,Training at home,,,,,,,,,,,,,
5,4,622,A,62.133919867864506,87.26080490879309,3.106695993393225,1.3706895182389829,A,720.0832000235096,Correct,sub_005_day_03_data.csv,1,300,24.0,Training at home,,,,,,,,,,,,,
5,4,623,A,48.91964290378689,72.07763567815476,2.4459821451893444,1.132192853673063,A,654.5575999771245,Correct,sub_005_day_03_data.csv,1,300,24.0,Training at home,,,,,,,,,,,,,
5,4,624,A,53.08450156830651,75.18534299225202,2.654225078415325,1.1810086060104388,A,722.7134000277147,Correct,sub_005_day_03_data.csv,1,300,24.0,Training at home,,,,,,,,,,,,,
5,4,625,B,46.45080630238006,18.393572155225424,2.322540315119003,0.2889255557806498,B,640.4813000117429,Correct,sub_005_day_03_data.csv,1,300,25.0,Training at home,,,,,,,,,,,,,
5,4,626,B,73.1664486087733,40.210472000129826,3.658322430438665,0.6316246171649297,B,455.36630001151934,Correct,sub_005_day_03_data.csv,1,300,25.0,Training at home,,,,,,,,,,,,,
5,4,627,A,64.11720333297609,78.04027222129295,3.2058601666488045,1.2258537294728078,A,851.7447999911383,Correct,sub_005_day_03_data.csv,1,300,25.0,Training at home,,,,,,,,,,,,,
5,4,628,A,22.829872267485435,49.367306412051875,1.1414936133742717,0.7754598357580922,A,565.4774000286125,Correct,sub_005_day_03_data.csv,1,300,25.0,Training at home,,,,,,,,,,,,,
5,4,629,B,49.74410835297651,34.96686489771082,2.4872054176488256,0.5492582294085756,B,447.7910000132397,Correct,sub_005_day_03_data.csv,1,300,25.0,Training at home,,,,,,,,,,,,,
5,4,630,A,45.25991219003675,63.01160402184759,2.2629956095018375,0.9897839614297272,A,732.274400012102,Correct,sub_005_day_03_data.csv,1,300,25.0,Training at home,,,,,,,,,,,,,
5,4,631,A,20.10347192013097,47.084911016601254,1.0051735960065489,0.739608052723418,A,568.2565000024624,Correct,sub_005_day_03_data.csv,1,300,25.0,Training at home,,,,,,,,,,,,,
5,4,632,B,56.71391327779315,48.0763211967769,2.8356956638896573,0.755181087417088,B,590.3602999751456,Correct,sub_005_day_03_data.csv,1,300,25.0,Training at home,,,,,,,,,,,,,
5,4,633,B,75.66213045413443,52.873451590016145,3.783106522706721,0.8305342354256514,B,470.2586999628693,Correct,sub_005_day_03_data.csv,1,300,25.0,Training at home,,,,,,,,,,,,,
5,4,634,B,55.25169232809841,29.919431757704885,2.7625846164049204,0.469973335047934,B,577.2587000392377,Correct,sub_005_day_03_data.csv,1,300,25.0,Training at home,,,,,,,,,,,,,
5,4,635,B,58.94141597275676,30.415769929774243,2.947070798637838,0.4777697968232804,B,483.1140000023879,Correct,sub_005_day_03_data.csv,1,300,25.0,Training at home,,,,,,,,,,,,,
5,4,636,A,43.66858393385442,59.8167785171092,2.183429196692721,0.93959975975379,A,562.965199991595,Correct,sub_005_day_03_data.csv,1,300,25.0,Training at home,,,,,,,,,,,,,
5,4,637,A,35.27560158670484,52.13092981708897,1.763780079335242,0.8188707306908591,A,509.05500003136694,Correct,sub_005_day_03_data.csv,1,300,25.0,Training at home,,,,,,,,,,,,,
5,4,638,B,67.40469022215463,43.844304098366,3.370234511107731,0.6887047182859174,B,411.54659999301657,Correct,sub_005_day_03_data.csv,1,300,25.0,Training at home,,,,,,,,,,,,,
5,4,639,B,40.66716705908091,21.96354393879685,2.0333583529540453,0.345002541424604,A,565.7631999929436,Incorrect,sub_005_day_03_data.csv,0,300,25.0,Training at home,,,,,,,,,,,,,
5,4,640,A,24.887956489686708,50.79682763523165,1.2443978244843352,0.7979147026225535,A,612.1324999839999,Correct,sub_005_day_03_data.csv,1,300,25.0,Training at home,,,,,,,,,,,,,
5,4,641,A,36.62667585200613,68.60996895346263,1.8313337926003064,1.0777228721361098,A,554.0643000276759,Correct,sub_005_day_03_data.csv,1,300,25.0,Training at home,,,,,,,,,,,,,
5,4,642,B,71.08425488300952,46.46798265204559,3.554212744150476,0.7299173646340219,B,442.2259000129998,Correct,sub_005_day_03_data.csv,1,300,25.0,Training at home,,,,,,,,,,,,,
5,4,643,B,53.32465198170941,34.617245413621376,2.66623259908547,0.5437664193947394,B,456.7898000241257,Correct,sub_005_day_03_data.csv,1,300,25.0,Training at home,,,,,,,,,,,,,
5,4,644,B,61.97952216624197,51.1255834773001,3.098976108312099,0.8030787873138885,B,469.88289995351806,Correct,sub_005_day_03_data.csv,1,300,25.0,Training at home,,,,,,,,,,,,,
5,4,645,B,83.2909245566483,55.732109453241605,4.164546227832415,0.8754379281368306,B,411.27209999831393,Correct,sub_005_day_03_data.csv,1,300,25.0,Training at home,,,,,,,,,,,,,
5,4,646,A,51.26308740447743,63.173186917865834,2.563154370223872,0.9923220996251104,A,644.1316999844275,Correct,sub_005_day_03_data.csv,1,300,25.0,Training at home,,,,,,,,,,,,,
5,4,647,A,64.92932118679175,85.44088739323121,3.246466059339588,1.3421023207538396,A,650.3010999877006,Correct,sub_005_day_03_data.csv,1,300,25.0,Training at home,,,,,,,,,,,,,
5,4,648,B,66.53935182227202,46.74868819375446,3.326967591113601,0.7343266769722946,B,422.4928999901749,Correct,sub_005_day_03_data.csv,1,300,25.0,Training at home,,,,,,,,,,,,,
5,4,649,A,43.98482305058992,72.45853469703226,2.199241152529496,1.1381760014703883,A,567.0382999815047,Correct,sub_005_day_03_data.csv,1,300,25.0,Training at home,,,,,,,,,,,,,
5,4,650,B,45.208262562546096,18.616626741179935,2.260413128127305,0.2924292890235708,B,491.10769998515025,Correct,sub_005_day_03_data.csv,1,300,26.0,Training at home,,,,,,,,,,,,,
5,4,651,A,12.290936920283674,33.30459496561589,0.6145468460141836,0.5231473543738125,A,565.2881999849342,Correct,sub_005_day_03_data.csv,1,300,26.0,Training at home,,,,,,,,,,,,,
5,4,652,A,49.83549716429393,80.81713967689781,2.491774858214697,1.2694726614654115,A,561.0450999811292,Correct,sub_005_day_03_data.csv,1,300,26.0,Training at home,,,,,,,,,,,,,
5,4,653,B,32.49575514355493,13.80981170724392,1.6247877571777465,0.2169240150346791,B,620.7388000329956,Correct,sub_005_day_03_data.csv,1,300,26.0,Training at home,,,,,,,,,,,,,
5,4,654,B,70.64439167242992,50.62821351440701,3.532219583621496,0.7952661182061829,B,405.4362999740988,Correct,sub_005_day_03_data.csv,1,300,26.0,Training at home,,,,,,,,,,,,,
5,4,655,B,66.23868325409552,51.27738981464846,3.311934162704776,0.8054633556847984,B,467.9970999713987,Correct,sub_005_day_03_data.csv,1,300,26.0,Training at home,,,,,,,,,,,,,
5,4,656,A,20.806012406280924,44.061212120329735,1.0403006203140464,0.6921119015274473,A,465.0516000110656,Correct,sub_005_day_03_data.csv,1,300,26.0,Training at home,,,,,,,,,,,,,
5,4,657,A,16.97039111794546,37.94597607166349,0.8485195558972731,0.5960539983001604,A,508.6455999989994,Correct,sub_005_day_03_data.csv,1,300,26.0,Training at home,,,,,,,,,,,,,
5,4,658,A,34.51650179053627,42.67607599663914,1.7258250895268137,0.6703542341754061,A,1037.0801000390202,Correct,sub_005_day_03_data.csv,1,300,26.0,Training at home,,,,,,,,,,,,,
5,4,659,A,59.98290845161585,84.18954156576459,2.999145422580792,1.3224462264604926,A,653.9557999931276,Correct,sub_005_day_03_data.csv,1,300,26.0,Training at home,,,,,,,,,,,,,
5,4,660,B,43.745566462215095,26.9915024051718,2.1872783231107547,0.4239815283271947,B,463.8100999873131,Correct,sub_005_day_03_data.csv,1,300,26.0,Training at home,,,,,,,,,,,,,
5,4,661,B,79.16029539708772,66.3467741324821,3.9580147698543864,1.0421726910199354,A,535.4468000004999,Incorrect,sub_005_day_03_data.csv,0,300,26.0,Training at home,,,,,,,,,,,,,
5,4,662,A,54.01388276903073,72.20647425110488,2.7006941384515364,1.1342166452444582,A,1112.6991999917664,Correct,sub_005_day_03_data.csv,1,300,26.0,Training at home,,,,,,,,,,,,,
5,4,663,B,61.36744108184579,50.10010146092765,3.0683720540922894,0.7869705534687678,A,628.4904999774881,Incorrect,sub_005_day_03_data.csv,0,300,26.0,Training at home,,,,,,,,,,,,,
5,4,664,A,48.31762832542445,57.38694617398844,2.415881416271222,0.9014320425607748,A,769.1021000500768,Correct,sub_005_day_03_data.csv,1,300,26.0,Training at home,,,,,,,,,,,,,
5,4,665,B,53.05455547946548,42.96670249400874,2.652727773973274,0.6749193845207805,B,448.8579999888316,Correct,sub_005_day_03_data.csv,1,300,26.0,Training at home,,,,,,,,,,,,,
5,4,666,B,72.05099294248599,50.54849511434243,3.6025496471242997,0.7940139045061887,B,536.2540999776684,Correct,sub_005_day_03_data.csv,1,300,26.0,Training at home,,,,,,,,,,,,,
5,4,667,B,39.766634167166885,14.472775741022556,1.9883317083583445,0.2273378297252451,B,678.7266999599524,Correct,sub_005_day_03_data.csv,1,300,26.0,Training at home,,,,,,,,,,,,,
5,4,668,A,57.079031396404616,72.59477932969352,2.853951569820231,1.1403161271556868,A,732.5564000057057,Correct,sub_005_day_03_data.csv,1,300,26.0,Training at home,,,,,,,,,,,,,
5,4,669,A,44.76788569874953,73.98480186934006,2.2383942849374763,1.1621505501500755,A,858.7413000059314,Correct,sub_005_day_03_data.csv,1,300,26.0,Training at home,,,,,,,,,,,,,
5,4,670,B,56.75476663325686,28.94747406137118,2.837738331662843,0.4547058592559239,B,478.8512000232003,Correct,sub_005_day_03_data.csv,1,300,26.0,Training at home,,,,,,,,,,,,,
5,4,671,A,55.62845828304675,66.15795343154,2.7814229141523374,1.0392067023853084,A,557.7556999633089,Correct,sub_005_day_03_data.csv,1,300,26.0,Training at home,,,,,,,,,,,,,
5,4,672,B,37.94372767472023,26.438490581209106,1.8971863837360117,0.4152948389096473,B,518.5968999867328,Correct,sub_005_day_03_data.csv,1,300,26.0,Training at home,,,,,,,,,,,,,
5,4,673,B,56.10307509856841,32.53646813604308,2.8051537549284205,0.5110816463497566,B,475.00190004939213,Correct,sub_005_day_03_data.csv,1,300,26.0,Training at home,,,,,,,,,,,,,
5,4,674,B,64.90759808804543,32.8688544166116,3.245379904402272,0.5163027578356971,B,479.64020003564656,Correct,sub_005_day_03_data.csv,1,300,26.0,Training at home,,,,,,,,,,,,,
5,4,675,A,13.47191971683889,39.58747194977024,0.6735959858419446,0.621838555257951,A,476.2833000277169,Correct,sub_005_day_03_data.csv,1,300,27.0,Training at home,,,,,,,,,,,,,
5,4,676,B,75.26763589622564,45.75561187531318,3.7633817948112824,0.7187274706399489,B,436.2429999746382,Correct,sub_005_day_03_data.csv,1,300,27.0,Training at home,,,,,,,,,,,,,
5,4,677,A,30.4054579538742,60.977064600556545,1.52027289769371,0.9578254909328934,A,619.764800008852,Correct,sub_005_day_03_data.csv,1,300,27.0,Training at home,,,,,,,,,,,,,
5,4,678,A,22.458735455768583,44.53093313235416,1.1229367727884294,0.6994902619305108,A,636.3577000447549,Correct,sub_005_day_03_data.csv,1,300,27.0,Training at home,,,,,,,,,,,,,
5,4,679,A,31.489546663230247,62.882133981316265,1.5744773331615125,0.9877502507887612,A,489.6895000129007,Correct,sub_005_day_03_data.csv,1,300,27.0,Training at home,,,,,,,,,,,,,
5,4,680,A,50.4516472423847,76.36951430293158,2.522582362119235,1.1996095254615524,A,510.254500026349,Correct,sub_005_day_03_data.csv,1,300,27.0,Training at home,,,,,,,,,,,,,
5,4,681,A,24.97796986719108,41.84599251224243,1.248898493359554,0.6573153132931716,A,493.76300000585616,Correct,sub_005_day_03_data.csv,1,300,27.0,Training at home,,,,,,,,,,,,,
5,4,682,A,19.02376869557802,42.123524875730766,0.9511884347789008,0.6616747814645133,A,461.759899975732,Correct,sub_005_day_03_data.csv,1,300,27.0,Training at home,,,,,,,,,,,,,
5,4,683,B,58.27250446300621,32.12710598525297,2.9136252231503104,0.504651400721857,B,643.0351000162773,Correct,sub_005_day_03_data.csv,1,300,27.0,Training at home,,,,,,,,,,,,,
5,4,684,B,47.03016789307995,28.187741402973835,2.3515083946539974,0.4427720065643573,B,551.7645999789238,Correct,sub_005_day_03_data.csv,1,300,27.0,Training at home,,,,,,,,,,,,,
5,4,685,A,18.621244630687144,45.80866442054871,0.9310622315343572,0.7195608180717799,A,459.73900001263246,Correct,sub_005_day_03_data.csv,1,300,27.0,Training at home,,,,,,,,,,,,,
5,4,686,B,50.00292487265578,39.80463675186575,2.5001462436327895,0.6252497719923586,B,421.1586000164971,Correct,sub_005_day_03_data.csv,1,300,27.0,Training at home,,,,,,,,,,,,,
5,4,687,B,87.9107429778473,68.8529928338079,4.395537148892365,1.081540282321808,A,509.6021000063047,Incorrect,sub_005_day_03_data.csv,0,300,27.0,Training at home,,,,,,,,,,,,,
5,4,688,A,36.33263795911222,61.12832297913621,1.8166318979556109,0.9602014519875922,A,522.7482999907807,Correct,sub_005_day_03_data.csv,1,300,27.0,Training at home,,,,,,,,,,,,,
5,4,689,B,79.97546462908332,58.558587550219606,3.998773231454166,0.9198361422618232,B,635.053500009235,Correct,sub_005_day_03_data.csv,1,300,27.0,Training at home,,,,,,,,,,,,,
5,4,690,A,21.8383821865488,44.80081505999939,1.09191910932744,0.7037295573366451,A,485.30190001474693,Correct,sub_005_day_03_data.csv,1,300,27.0,Training at home,,,,,,,,,,,,,
5,4,691,B,55.568402519290046,41.818147791244506,2.778420125964502,0.6568779294385299,B,497.4726000218652,Correct,sub_005_day_03_data.csv,1,300,27.0,Training at home,,,,,,,,,,,,,
5,4,692,B,52.44759267300321,32.196075813896115,2.6223796336501604,0.5057347762567803,B,499.92550001479685,Correct,sub_005_day_03_data.csv,1,300,27.0,Training at home,,,,,,,,,,,,,
5,4,693,A,33.75424917744676,57.669574908436566,1.6877124588723378,0.9058715643399528,A,474.23540003364906,Correct,sub_005_day_03_data.csv,1,300,27.0,Training at home,,,,,,,,,,,,,
5,4,694,B,87.1858702036432,62.32332491931119,4.359293510182161,0.9789724985689888,B,510.6013999902643,Correct,sub_005_day_03_data.csv,1,300,27.0,Training at home,,,,,,,,,,,,,
5,4,695,A,29.41078545770505,57.02273668482729,1.4705392728852524,0.8957110532831929,A,537.3610999668017,Correct,sub_005_day_03_data.csv,1,300,27.0,Training at home,,,,,,,,,,,,,
5,4,696,A,55.44594054058669,69.9062911961508,2.7722970270293343,1.098085454307681,B,531.3485999940895,Incorrect,sub_005_day_03_data.csv,0,300,27.0,Training at home,,,,,,,,,,,,,
5,4,697,A,31.27773123051129,47.31037204709497,1.5638865615255642,0.7431495863087675,A,616.2624999997206,Correct,sub_005_day_03_data.csv,1,300,27.0,Training at home,,,,,,,,,,,,,
5,4,698,A,66.68765842706908,81.11547914323171,3.334382921353454,1.274158966843964,B,605.7051999960095,Incorrect,sub_005_day_03_data.csv,0,300,27.0,Training at home,,,,,,,,,,,,,
5,4,699,B,33.909054397727274,15.325639784213667,1.6954527198863638,0.2407345867882455,A,441.16499996744096,Incorrect,sub_005_day_03_data.csv,0,300,27.0,Training at home,,,,,,,,,,,,,
5,4,700,A,61.82809864287505,72.16734694895493,3.091404932143752,1.1336020350195128,B,497.05679999897256,Incorrect,sub_005_day_03_data.csv,0,300,28.0,Training at home,,,,,,,,,,,,,
5,4,701,B,32.643139367155875,14.684938560041118,1.6321569683577937,0.2306704754932132,A,620.0783000094816,Incorrect,sub_005_day_03_data.csv,0,300,28.0,Training at home,,,,,,,,,,,,,
5,4,702,A,33.179645661044006,50.104158364807176,1.6589822830522,0.787034279165889,A,943.6272000311874,Correct,sub_005_day_03_data.csv,1,300,28.0,Training at home,,,,,,,,,,,,,
5,4,703,B,58.5509605975217,30.935464129494292,2.927548029876085,0.4859331342230492,B,507.26769998436794,Correct,sub_005_day_03_data.csv,1,300,28.0,Training at home,,,,,,,,,,,,,
5,4,704,B,52.76579715098348,31.53503604167041,2.6382898575491742,0.4953511877960055,B,485.6681000092067,Correct,sub_005_day_03_data.csv,1,300,28.0,Training at home,,,,,,,,,,,,,
5,4,705,A,31.302892482469257,59.75749480749516,1.5651446241234626,0.9386685334207852,A,733.7490000063553,Correct,sub_005_day_03_data.csv,1,300,28.0,Training at home,,,,,,,,,,,,,
5,4,706,B,36.827665259783906,14.666559595605108,1.8413832629891953,0.2303817793949494,B,796.6674999915995,Correct,sub_005_day_03_data.csv,1,300,28.0,Training at home,,,,,,,,,,,,,
5,4,707,A,56.68665055706036,67.70434340047898,2.834332527853018,1.0634973392153266,A,566.9223999720998,Correct,sub_005_day_03_data.csv,1,300,28.0,Training at home,,,,,,,,,,,,,
5,4,708,B,80.39595257445593,61.46945313089848,4.019797628722796,0.9655599118810638,B,528.4111000364646,Correct,sub_005_day_03_data.csv,1,300,28.0,Training at home,,,,,,,,,,,,,
5,4,709,B,50.63494269205661,31.197254619709373,2.5317471346028304,0.490045329627246,B,563.1573999999091,Correct,sub_005_day_03_data.csv,1,300,28.0,Training at home,,,,,,,,,,,,,
5,4,710,B,74.48904246203534,59.23487168877726,3.7244521231017673,0.9304591886689836,B,446.73289998900145,Correct,sub_005_day_03_data.csv,1,300,28.0,Training at home,,,,,,,,,,,,,
5,4,711,B,57.965255771645104,31.964368947102855,2.8982627885822554,0.5020951333042601,B,896.6003999812528,Correct,sub_005_day_03_data.csv,1,300,28.0,Training at home,,,,,,,,,,,,,
5,4,712,A,20.58701446789337,37.46383668076277,1.0293507233946684,0.5884805704578606,A,423.05250000208616,Correct,sub_005_day_03_data.csv,1,300,28.0,Training at home,,,,,,,,,,,,,
5,4,713,B,40.05874829252956,31.304079744390144,2.0029374146264782,0.4917233347618255,B,469.1376999835484,Correct,sub_005_day_03_data.csv,1,300,28.0,Training at home,,,,,,,,,,,,,
5,4,714,B,79.47793129797031,52.317922301408515,3.973896564898516,0.8218080017659329,B,647.3929000203498,Correct,sub_005_day_03_data.csv,1,300,28.0,Training at home,,,,,,,,,,,,,
5,4,715,A,21.73151351982126,34.72501924949614,1.086575675991063,0.5454593268499062,A,474.763999984134,Correct,sub_005_day_03_data.csv,1,300,28.0,Training at home,,,,,,,,,,,,,
5,4,716,A,37.429441506394994,61.49496252965464,1.8714720753197496,0.965960612579713,A,565.4081999673508,Correct,sub_005_day_03_data.csv,1,300,28.0,Training at home,,,,,,,,,,,,,
5,4,717,B,61.57398395333381,37.67297206172972,3.0786991976666904,0.591765661340118,B,482.1983000147157,Correct,sub_005_day_03_data.csv,1,300,28.0,Training at home,,,,,,,,,,,,,
5,4,718,A,34.605862694602195,45.186483581895594,1.7302931347301098,0.709787624312195,A,510.6249999953434,Correct,sub_005_day_03_data.csv,1,300,28.0,Training at home,,,,,,,,,,,,,
5,4,719,A,62.83732085729475,87.59183622534,3.141866042864738,1.3758893459998425,B,969.403900031466,Incorrect,sub_005_day_03_data.csv,0,300,28.0,Training at home,,,,,,,,,,,,,
5,4,720,B,75.87529955159029,62.220869317713834,3.793764977579514,0.9773631297425016,A,1253.708100004587,Incorrect,sub_005_day_03_data.csv,0,300,28.0,Training at home,,,,,,,,,,,,,
5,4,721,A,14.522629957436369,41.584514387411474,0.7261314978718184,0.6532080245129548,A,562.5980999902822,Correct,sub_005_day_03_data.csv,1,300,28.0,Training at home,,,,,,,,,,,,,
5,4,722,B,52.79272828600256,21.511978649577184,2.639636414300128,0.3379093704484608,B,734.0702000074089,Correct,sub_005_day_03_data.csv,1,300,28.0,Training at home,,,,,,,,,,,,,
5,4,723,A,62.00539139347856,86.86032160467305,3.1002695696739284,1.3643987412084382,B,1147.062000003643,Incorrect,sub_005_day_03_data.csv,0,300,28.0,Training at home,,,,,,,,,,,,,
5,4,724,B,66.72397799502323,45.675451791976805,3.3361988997511616,0.7174683189953454,B,611.551399983,Correct,sub_005_day_03_data.csv,1,300,28.0,Training at home,,,,,,,,,,,,,
5,4,725,B,50.658301586675975,38.01085171491792,2.5329150793337987,0.5970730625213856,B,1186.5963999880478,Correct,sub_005_day_03_data.csv,1,300,29.0,Training at home,,,,,,,,,,,,,
5,4,726,B,83.80058307632183,69.04651460876119,4.190029153816091,1.0845801152543224,B,531.7458999925293,Correct,sub_005_day_03_data.csv,1,300,29.0,Training at home,,,,,,,,,,,,,
5,4,727,B,78.6929737739822,56.76598720838028,3.9346486886991103,0.8916780419380984,B,546.8298000050709,Correct,sub_005_day_03_data.csv,1,300,29.0,Training at home,,,,,,,,,,,,,
5,4,728,A,25.830514405421816,56.22851145236675,1.2915257202710908,0.8832353925052245,A,502.2892999695614,Correct,sub_005_day_03_data.csv,1,300,29.0,Training at home,,,,,,,,,,,,,
5,4,729,B,39.17166331003888,16.409565631111626,1.958583165501944,0.2577608541764992,B,470.0328999897465,Correct,sub_005_day_03_data.csv,1,300,29.0,Training at home,,,,,,,,,,,,,
5,4,730,B,65.66047332878233,46.51543549770069,3.283023666439117,0.7306627521905319,B,691.7251999839209,Correct,sub_005_day_03_data.csv,1,300,29.0,Training at home,,,,,,,,,,,,,
5,4,731,A,57.23031675775321,81.284079611766,2.8615158378876604,1.2768073368106596,A,559.1479999711737,Correct,sub_005_day_03_data.csv,1,300,29.0,Training at home,,,,,,,,,,,,,
5,4,732,A,14.68894770332545,31.194577207876552,0.7344473851662725,0.4900032729405228,A,589.5591999869794,Correct,sub_005_day_03_data.csv,1,300,29.0,Training at home,,,,,,,,,,,,,
5,4,733,B,55.152665144963066,39.08306327536866,2.7576332572481532,0.6139153223284162,B,628.7374999956228,Correct,sub_005_day_03_data.csv,1,300,29.0,Training at home,,,,,,,,,,,,,
5,4,734,B,72.26170202811993,58.65946768580936,3.613085101405997,0.9214207637261328,B,532.5864999904297,Correct,sub_005_day_03_data.csv,1,300,29.0,Training at home,,,,,,,,,,,,,
5,4,735,A,17.69980580218612,32.27314182722764,0.884990290109306,0.5069453263633991,A,485.55889999261126,Correct,sub_005_day_03_data.csv,1,300,29.0,Training at home,,,,,,,,,,,,,
5,4,736,A,49.0330130883358,68.96170195927742,2.45165065441679,1.083247881271574,A,737.0599000132643,Correct,sub_005_day_03_data.csv,1,300,29.0,Training at home,,,,,,,,,,,,,
5,4,737,A,41.89279721257158,65.21944297808521,2.094639860628579,1.0244646146558547,A,595.889599993825,Correct,sub_005_day_03_data.csv,1,300,29.0,Training at home,,,,,,,,,,,,,
5,4,738,B,67.72892556180881,38.69637603133424,3.3864462780904403,0.6078412533029389,B,489.8037000093609,Correct,sub_005_day_03_data.csv,1,300,29.0,Training at home,,,,,,,,,,,,,
5,4,739,A,68.17258079552556,89.77243276971285,3.408629039776278,1.4101420764210677,A,637.4650999787264,Correct,sub_005_day_03_data.csv,1,300,29.0,Training at home,,,,,,,,,,,,,
5,4,740,B,65.7859441034141,53.43616080277825,3.2892972051707043,0.8393732510702552,B,585.6987999868579,Correct,sub_005_day_03_data.csv,1,300,29.0,Training at home,,,,,,,,,,,,,
5,4,741,B,50.12469454868929,43.264274812800274,2.5062347274344647,0.6795936395739163,A,578.457499970682,Incorrect,sub_005_day_03_data.csv,0,300,29.0,Training at home,,,,,,,,,,,,,
5,4,742,B,58.86019836149877,32.920610926699375,2.9430099180749387,0.5171157471950332,B,3401.944699988235,Correct,sub_005_day_03_data.csv,1,300,29.0,Training at home,,,,,,,,,,,,,
5,4,743,B,46.99193887045885,34.893858045382075,2.3495969435229425,0.548111440453887,B,683.3789000520483,Correct,sub_005_day_03_data.csv,1,300,29.0,Training at home,,,,,,,,,,,,,
5,4,744,A,25.48143937838978,51.01483036874851,1.274071968919489,0.8013390815529491,A,543.2725999853574,Correct,sub_005_day_03_data.csv,1,300,29.0,Training at home,,,,,,,,,,,,,
5,4,745,A,55.88312572208566,83.27802696334106,2.794156286104283,1.308128188567425,A,728.3430999959819,Correct,sub_005_day_03_data.csv,1,300,29.0,Training at home,,,,,,,,,,,,,
5,4,746,A,58.41834271516379,76.90908723123663,2.92091713575819,1.2080851171997475,A,621.7102999798954,Correct,sub_005_day_03_data.csv,1,300,29.0,Training at home,,,,,,,,,,,,,
5,4,747,B,52.83721982741061,26.98156349050337,2.64186099137053,0.4238254082206597,B,511.737400025595,Correct,sub_005_day_03_data.csv,1,300,29.0,Training at home,,,,,,,,,,,,,
5,4,748,A,33.32569088250793,55.422714567190624,1.6662845441253964,0.8705779646314503,A,596.1341000511311,Correct,sub_005_day_03_data.csv,1,300,29.0,Training at home,,,,,,,,,,,,,
5,4,749,A,65.5305765688741,89.57984107943345,3.2765288284437046,1.4071168532244465,A,663.9189000125043,Correct,sub_005_day_03_data.csv,1,300,29.0,Training at home,,,,,,,,,,,,,
5,4,750,A,25.390017073310432,50.23883474643008,1.2695008536655217,0.7891497708214817,A,630.4932999773882,Correct,sub_005_day_03_data.csv,1,300,30.0,Training at home,,,,,,,,,,,,,
5,4,751,A,32.28807869513039,55.41917274404897,1.6144039347565196,0.8705223298036397,A,450.7135999738239,Correct,sub_005_day_03_data.csv,1,300,30.0,Training at home,,,,,,,,,,,,,
5,4,752,B,48.44739253013483,38.52907485655933,2.422369626506742,0.6052132925948901,B,467.95489999931306,Correct,sub_005_day_03_data.csv,1,300,30.0,Training at home,,,,,,,,,,,,,
5,4,753,A,63.02117268275744,73.04941213974386,3.151058634137872,1.147457482636362,A,678.9444999885745,Correct,sub_005_day_03_data.csv,1,300,30.0,Training at home,,,,,,,,,,,,,
5,4,754,A,48.140498172678264,59.40626930362129,2.4070249086339133,0.9331514961071672,A,668.970700004138,Correct,sub_005_day_03_data.csv,1,300,30.0,Training at home,,,,,,,,,,,,,
5,4,755,A,23.13462266321529,47.08325163047796,1.1567311331607644,0.7395819871471462,A,483.9413000154309,Correct,sub_005_day_03_data.csv,1,300,30.0,Training at home,,,,,,,,,,,,,
5,4,756,B,79.04061590024043,48.62711489326844,3.9520307950120217,0.7638329345697948,B,486.6259999689646,Correct,sub_005_day_03_data.csv,1,300,30.0,Training at home,,,,,,,,,,,,,
5,4,757,B,55.73466921291232,25.5944965010169,2.786733460645616,0.4020374108996217,B,506.8785999901593,Correct,sub_005_day_03_data.csv,1,300,30.0,Training at home,,,,,,,,,,,,,
5,4,758,B,64.10826093634763,55.25719935490497,3.2054130468173816,0.8679780577565804,B,692.4094000132754,Correct,sub_005_day_03_data.csv,1,300,30.0,Training at home,,,,,,,,,,,,,
5,4,759,A,52.4425750189472,79.63301107658403,2.62212875094736,1.2508724129071551,A,572.0503999618813,Correct,sub_005_day_03_data.csv,1,300,30.0,Training at home,,,,,,,,,,,,,
5,4,760,A,25.509337502983826,46.140531241818216,1.275466875149191,0.7247737699101323,A,529.1302999830805,Correct,sub_005_day_03_data.csv,1,300,30.0,Training at home,,,,,,,,,,,,,
5,4,761,B,76.6785085227739,48.8052317689104,3.833925426138695,0.7666307879097803,B,512.1217999840155,Correct,sub_005_day_03_data.csv,1,300,30.0,Training at home,,,,,,,,,,,,,
5,4,762,A,39.776447402454615,53.55939955402634,1.9888223701227303,0.8413090808480479,A,748.1067999615334,Correct,sub_005_day_03_data.csv,1,300,30.0,Training at home,,,,,,,,,,,,,
5,4,763,A,29.5501946136047,41.19980733111677,1.477509730680235,0.6471650602037567,A,772.270200017374,Correct,sub_005_day_03_data.csv,1,300,30.0,Training at home,,,,,,,,,,,,,
5,4,764,B,46.0354301875893,23.570986309372746,2.301771509379465,0.370252187136955,B,449.92899999488145,Correct,sub_005_day_03_data.csv,1,300,30.0,Training at home,,,,,,,,,,,,,
5,4,765,A,11.551778140594976,32.95662467794705,0.5775889070297489,0.5176814498767726,A,588.4674999979325,Correct,sub_005_day_03_data.csv,1,300,30.0,Training at home,,,,,,,,,,,,,
5,4,766,B,61.78925439755484,51.12852100317619,3.089462719877742,0.8031249298624489,B,505.8309999876656,Correct,sub_005_day_03_data.csv,1,300,30.0,Training at home,,,,,,,,,,,,,
5,4,767,A,26.516401254042368,52.44935485654692,1.3258200627021184,0.8238725395142596,A,479.7739000059664,Correct,sub_005_day_03_data.csv,1,300,30.0,Training at home,,,,,,,,,,,,,
5,4,768,B,50.89496953431359,32.0369827103933,2.5447484767156796,0.5032357476307742,B,455.05249995039776,Correct,sub_005_day_03_data.csv,1,300,30.0,Training at home,,,,,,,,,,,,,
5,4,769,A,31.195174683974003,40.412747018417434,1.5597587341987005,0.6348019457222152,B,510.6038999510929,Incorrect,sub_005_day_03_data.csv,0,300,30.0,Training at home,,,,,,,,,,,,,
5,4,770,B,44.75507876162378,15.782737349572574,2.2377539380811893,0.2479146585547722,A,484.93400000734255,Incorrect,sub_005_day_03_data.csv,0,300,30.0,Training at home,,,,,,,,,,,,,
5,4,771,A,47.933256700797614,69.2260743718543,2.396662835039881,1.0874006334173905,A,642.1977000427432,Correct,sub_005_day_03_data.csv,1,300,30.0,Training at home,,,,,,,,,,,,,
5,4,772,A,63.73231282059184,83.80183271973173,3.1866156410295923,1.31635611014835,A,567.2730000223964,Correct,sub_005_day_03_data.csv,1,300,30.0,Training at home,,,,,,,,,,,,,
5,4,773,A,47.91781948906983,72.37111468418286,2.3958909744534913,1.1368028111196662,B,579.069499974139,Incorrect,sub_005_day_03_data.csv,0,300,30.0,Training at home,,,,,,,,,,,,,
5,4,774,B,85.73476806737906,67.86041537570148,4.286738403368953,1.065948912069278,A,876.3935000170022,Incorrect,sub_005_day_03_data.csv,0,300,30.0,Training at home,,,,,,,,,,,,,
5,4,775,A,61.663130107745886,71.83436728941567,3.083156505387294,1.1283716027584958,B,785.5196999735199,Incorrect,sub_005_day_03_data.csv,0,300,31.0,Training at home,,,,,,,,,,,,,
5,4,776,B,80.58450989617475,52.82217568411995,4.029225494808737,0.8297287953793031,B,760.4283000109717,Correct,sub_005_day_03_data.csv,1,300,31.0,Training at home,,,,,,,,,,,,,
5,4,777,B,55.02524185742322,47.18260582076291,2.7512620928711606,0.7411426391186589,B,742.8630000213161,Correct,sub_005_day_03_data.csv,1,300,31.0,Training at home,,,,,,,,,,,,,
5,4,778,B,64.65233402315691,45.56705433048908,3.2326167011578457,0.7157656156519574,B,549.8446000274271,Correct,sub_005_day_03_data.csv,1,300,31.0,Training at home,,,,,,,,,,,,,
5,4,779,B,48.35661446035523,41.06211175928872,2.4178307230177616,0.6450021432193225,B,722.7781999972649,Correct,sub_005_day_03_data.csv,1,300,31.0,Training at home,,,,,,,,,,,,,
5,4,780,B,34.41187581790345,17.427938989398278,1.7205937908951725,0.2737574254815237,A,602.9545000055805,Incorrect,sub_005_day_03_data.csv,0,300,31.0,Training at home,,,,,,,,,,,,,
5,4,781,B,42.4378281646107,22.33949963440986,2.121891408230535,0.3509080396816694,B,602.6711000013165,Correct,sub_005_day_03_data.csv,1,300,31.0,Training at home,,,,,,,,,,,,,
5,4,782,B,44.83082881389834,33.6126423940321,2.2415414406949172,0.5279861520641604,B,825.2592000062577,Correct,sub_005_day_03_data.csv,1,300,31.0,Training at home,,,,,,,,,,,,,
5,4,783,A,46.08275317122359,76.52868312566376,2.3041376585611797,1.2021097434824324,A,1250.5498999962583,Correct,sub_005_day_03_data.csv,1,300,31.0,Training at home,,,,,,,,,,,,,
5,4,784,B,34.25022382357576,20.12327350364083,1.712511191178788,0.3160956410260808,B,528.1177000142634,Correct,sub_005_day_03_data.csv,1,300,31.0,Training at home,,,,,,,,,,,,,
5,4,785,B,38.46042062386992,22.419309745383917,1.9230210311934963,0.3521616939732608,B,581.5684999688528,Correct,sub_005_day_03_data.csv,1,300,31.0,Training at home,,,,,,,,,,,,,
5,4,786,A,37.78702052807807,48.06314367377502,1.8893510264039035,0.7549740953698117,B,809.2385000200011,Incorrect,sub_005_day_03_data.csv,0,300,31.0,Training at home,,,,,,,,,,,,,
5,4,787,A,45.31525349668347,72.86015654975459,2.265762674834173,1.1444846627805565,A,1206.2583999941126,Correct,sub_005_day_03_data.csv,1,300,31.0,Training at home,,,,,,,,,,,,,
5,4,788,B,77.19904114774644,53.88026177650977,3.8599520573873223,0.8463491728528901,B,674.0161000052467,Correct,sub_005_day_03_data.csv,1,300,31.0,Training at home,,,,,,,,,,,,,
5,4,789,B,65.22487260969957,49.16272644031822,3.2612436304849783,0.772246301076742,B,591.1236999672838,Correct,sub_005_day_03_data.csv,1,300,31.0,Training at home,,,,,,,,,,,,,
5,4,790,A,23.574866386902215,51.75244786821978,1.178743319345111,0.8129255501404401,A,455.38329996634275,Correct,sub_005_day_03_data.csv,1,300,31.0,Training at home,,,,,,,,,,,,,
5,4,791,B,34.766851447363194,13.200795945782447,1.7383425723681598,0.2073576178240403,B,660.4177000117488,Correct,sub_005_day_03_data.csv,1,300,31.0,Training at home,,,,,,,,,,,,,
5,4,792,B,68.08405207506551,50.356905036762114,3.404202603753276,0.7910044146050537,B,528.1331000151113,Correct,sub_005_day_03_data.csv,1,300,31.0,Training at home,,,,,,,,,,,,,
5,4,793,B,61.37405278308648,51.57834768424023,3.068702639154324,0.810190790845546,B,493.524499994237,Correct,sub_005_day_03_data.csv,1,300,31.0,Training at home,,,,,,,,,,,,,
5,4,794,A,55.349454330981374,77.83257415492092,2.7674727165490687,1.222591215875412,A,463.27389997895807,Correct,sub_005_day_03_data.csv,1,300,31.0,Training at home,,,,,,,,,,,,,
5,4,795,A,35.18442795846109,65.57683017267246,1.7592213979230549,1.0300784395808664,A,542.6820000284351,Correct,sub_005_day_03_data.csv,1,300,31.0,Training at home,,,,,,,,,,,,,
5,4,796,A,54.14428122209885,64.35726224096643,2.7072140611049424,1.0109215113068597,B,753.4941000049002,Incorrect,sub_005_day_03_data.csv,0,300,31.0,Training at home,,,,,,,,,,,,,
5,4,797,B,57.63019657371292,28.046217042391703,2.8815098286856458,0.4405489471068131,B,770.2021999866702,Correct,sub_005_day_03_data.csv,1,300,31.0,Training at home,,,,,,,,,,,,,
5,4,798,B,84.9151849131585,61.97348786457944,4.245759245657925,0.9734772709634948,B,707.3451000032946,Correct,sub_005_day_03_data.csv,1,300,31.0,Training at home,,,,,,,,,,,,,
5,4,799,B,67.11433113517427,50.168739499636494,3.3557165567587135,0.7880487172595905,B,1019.9427999905312,Correct,sub_005_day_03_data.csv,1,300,31.0,Training at home,,,,,,,,,,,,,
5,4,800,B,80.23539103086719,53.64013127708022,4.01176955154336,0.8425772117883364,B,764.5399000030011,Correct,sub_005_day_03_data.csv,1,300,32.0,Training at home,,,,,,,,,,,,,
5,4,801,A,21.843272456551173,39.52675494092003,1.0921636228275586,0.6208848147131921,A,449.9854000168853,Correct,sub_005_day_03_data.csv,1,300,32.0,Training at home,,,,,,,,,,,,,
5,4,802,B,59.29949544480896,26.590595501372334,2.9649747722404483,0.4176840974084456,B,388.0790999974124,Correct,sub_005_day_03_data.csv,1,300,32.0,Training at home,,,,,,,,,,,,,
5,4,803,A,50.22822578152625,79.17824321076444,2.5114112890763125,1.2437289359754171,A,579.588699969463,Correct,sub_005_day_03_data.csv,1,300,32.0,Training at home,,,,,,,,,,,,,
5,4,804,A,40.08058303180973,56.4886901309615,2.0040291515904864,0.8873222696316944,A,619.4282000069506,Correct,sub_005_day_03_data.csv,1,300,32.0,Training at home,,,,,,,,,,,,,
5,4,805,A,23.7666410574372,47.19218257492729,1.18833205287186,0.741293070421299,A,708.327200030908,Correct,sub_005_day_03_data.csv,1,300,32.0,Training at home,,,,,,,,,,,,,
5,4,806,A,26.44679248974068,56.50004209318621,1.322339624487034,0.8875005858373394,A,550.5061000003479,Correct,sub_005_day_03_data.csv,1,300,32.0,Training at home,,,,,,,,,,,,,
5,4,807,B,73.3164826098517,47.65041593223102,3.665824130492586,0.7484909831659751,B,349.27710000192747,Correct,sub_005_day_03_data.csv,1,300,32.0,Training at home,,,,,,,,,,,,,
5,4,808,A,34.690853001562516,46.63992180854947,1.7345426500781258,0.7326181785887069,A,553.5577000118792,Correct,sub_005_day_03_data.csv,1,300,32.0,Training at home,,,,,,,,,,,,,
5,4,809,A,62.01164318981397,80.1645356448456,3.1005821594906986,1.2592215813014205,A,560.1178000215441,Correct,sub_005_day_03_data.csv,1,300,32.0,Training at home,,,,,,,,,,,,,
5,4,810,A,28.89991819767731,49.69123318983104,1.4449959098838656,0.7805480656849525,A,447.66900001559407,Correct,sub_005_day_03_data.csv,1,300,32.0,Training at home,,,,,,,,,,,,,
5,4,811,A,21.41994805374152,44.5594259127773,1.070997402687076,0.6999378254787991,A,644.334800017532,Correct,sub_005_day_03_data.csv,1,300,32.0,Training at home,,,,,,,,,,,,,
5,4,812,B,60.576885205326555,39.3478681766421,3.0288442602663275,0.6180748679907921,B,483.8574000168592,Correct,sub_005_day_03_data.csv,1,300,32.0,Training at home,,,,,,,,,,,,,
5,4,813,A,27.97289612385081,52.65438270239564,1.3986448061925405,0.8270931093857582,A,667.4019999918528,Correct,sub_005_day_03_data.csv,1,300,32.0,Training at home,,,,,,,,,,,,,
5,4,814,B,79.38759489623395,52.63996753519539,3.9693797448116976,0.8268666764688752,B,406.86500002630055,Correct,sub_005_day_03_data.csv,1,300,32.0,Training at home,,,,,,,,,,,,,
5,4,815,B,55.59325291839332,26.026289950456587,2.779662645919666,0.4088200065427613,B,503.0216999584809,Correct,sub_005_day_03_data.csv,1,300,32.0,Training at home,,,,,,,,,,,,,
5,4,816,A,63.01584167793841,73.2280634402565,3.150792083896921,1.1502637307025858,A,558.6932000005618,Correct,sub_005_day_03_data.csv,1,300,32.0,Training at home,,,,,,,,,,,,,
5,4,817,A,11.85893404149213,34.51582271517397,0.5929467020746065,0.5421732753729913,A,535.7200999860652,Correct,sub_005_day_03_data.csv,1,300,32.0,Training at home,,,,,,,,,,,,,
5,4,818,B,64.58589599513562,42.78081635590953,3.2292947997567807,0.6719994918914972,B,546.2382999830879,Correct,sub_005_day_03_data.csv,1,300,32.0,Training at home,,,,,,,,,,,,,
5,4,819,B,38.42043305325704,25.52491643322827,1.9210216526628523,0.4009444497506166,B,508.53099999949336,Correct,sub_005_day_03_data.csv,1,300,32.0,Training at home,,,,,,,,,,,,,
5,4,820,B,66.2653510475682,58.287396295322935,3.31326755237841,0.9155762799913174,B,464.5768000045791,Correct,sub_005_day_03_data.csv,1,300,32.0,Training at home,,,,,,,,,,,,,
5,4,821,B,68.47644076886527,53.575889648116096,3.4238220384432636,0.8415681066402949,B,468.9786999952048,Correct,sub_005_day_03_data.csv,1,300,32.0,Training at home,,,,,,,,,,,,,
5,4,822,A,25.110250540285826,55.8051885200524,1.255512527014291,0.8765858514339505,A,486.90419999184087,Correct,sub_005_day_03_data.csv,1,300,32.0,Training at home,,,,,,,,,,,,,
5,4,823,B,81.68429559236131,51.70701436525703,4.0842147796180654,0.812211882344767,B,479.98260002350435,Correct,sub_005_day_03_data.csv,1,300,32.0,Training at home,,,,,,,,,,,,,
5,4,824,A,64.84552311638768,83.62872209711306,3.242276155819384,1.313636894846964,A,456.68090000981465,Correct,sub_005_day_03_data.csv,1,300,32.0,Training at home,,,,,,,,,,,,,
5,4,825,A,36.49039556547313,63.58979009022727,1.8245197782736569,0.9988660869538748,A,467.7195000112988,Correct,sub_005_day_03_data.csv,1,300,33.0,Training at home,,,,,,,,,,,,,
5,4,826,A,29.503022236138246,59.83247264006438,1.4751511118069125,0.9398462824606928,A,507.11810000939295,Correct,sub_005_day_03_data.csv,1,300,33.0,Training at home,,,,,,,,,,,,,
5,4,827,A,65.48864954957143,79.75481810263759,3.274432477478572,1.2527857531981823,A,577.5698999641463,Correct,sub_005_day_03_data.csv,1,300,33.0,Training at home,,,,,,,,,,,,,
5,4,828,A,63.03476904671865,72.85273715920142,3.1517384523359326,1.144368119266277,A,432.7095000189729,Correct,sub_005_day_03_data.csv,1,300,33.0,Training at home,,,,,,,,,,,,,
5,4,829,B,55.57647139355671,42.15784938300705,2.7788235696778356,0.6622139495639997,B,517.2263999702409,Correct,sub_005_day_03_data.csv,1,300,33.0,Training at home,,,,,,,,,,,,,
5,4,830,A,33.88578551466617,57.5740022068664,1.6942892757333083,0.9043703118542704,A,456.81210001930594,Correct,sub_005_day_03_data.csv,1,300,33.0,Training at home,,,,,,,,,,,,,
5,4,831,A,45.28870911309341,55.24007082181811,2.26443545565467,0.8677090033880185,B,439.551199960988,Incorrect,sub_005_day_03_data.csv,0,300,33.0,Training at home,,,,,,,,,,,,,
5,4,832,B,77.95516344305088,47.875825315824216,3.897758172152544,0.7520317054837079,B,599.5315000182018,Correct,sub_005_day_03_data.csv,1,300,33.0,Training at home,,,,,,,,,,,,,
5,4,833,B,38.37123104273871,21.53839953877145,1.9185615521369357,0.3383243888054308,B,704.6102999593131,Correct,sub_005_day_03_data.csv,1,300,33.0,Training at home,,,,,,,,,,,,,
5,4,834,B,52.46995766058131,28.176799576313005,2.6234978830290654,0.4426001327530847,B,721.0959999938495,Correct,sub_005_day_03_data.csv,1,300,33.0,Training at home,,,,,,,,,,,,,
5,4,835,A,35.99420617188521,53.163765565220814,1.7997103085942605,0.8350944766843386,A,716.5678999735974,Correct,sub_005_day_03_data.csv,1,300,33.0,Training at home,,,,,,,,,,,,,
5,4,836,A,47.230610216792066,73.1183777632004,2.361530510839603,1.1485407921163684,A,806.9089999771677,Correct,sub_005_day_03_data.csv,1,300,33.0,Training at home,,,,,,,,,,,,,
5,4,837,B,42.540147445981496,33.48735873193998,2.1270073722990746,0.5260182009019432,B,611.7206999915652,Correct,sub_005_day_03_data.csv,1,300,33.0,Training at home,,,,,,,,,,,,,
5,4,838,A,53.80402840671779,67.33602385266288,2.6902014203358897,1.0577117892873638,A,612.3278999584727,Correct,sub_005_day_03_data.csv,1,300,33.0,Training at home,,,,,,,,,,,,,
5,4,839,B,70.05132731935778,58.23280934542633,3.5025663659678887,0.914718830187432,B,675.6244000280276,Correct,sub_005_day_03_data.csv,1,300,33.0,Training at home,,,,,,,,,,,,,
5,4,840,B,33.19397763909162,20.190887710766695,1.659698881954581,0.3171577225080054,A,692.8822000045329,Incorrect,sub_005_day_03_data.csv,0,300,33.0,Training at home,,,,,,,,,,,,,
5,4,841,B,33.89322892280942,19.059485268765513,1.694661446140471,0.2993856945077831,B,697.1070999861695,Correct,sub_005_day_03_data.csv,1,300,33.0,Training at home,,,,,,,,,,,,,
5,4,842,B,51.92844792015378,36.520511478566206,2.596422396007689,0.5736628528320266,B,645.9432000410743,Correct,sub_005_day_03_data.csv,1,300,33.0,Training at home,,,,,,,,,,,,,
5,4,843,B,66.76007489178102,34.62706611265949,3.338003744589051,0.5439206825744957,B,407.7558999997564,Correct,sub_005_day_03_data.csv,1,300,33.0,Training at home,,,,,,,,,,,,,
5,4,844,A,60.245631548380985,70.30688069019727,3.0122815774190492,1.1043778993656892,A,555.0710000097752,Correct,sub_005_day_03_data.csv,1,300,33.0,Training at home,,,,,,,,,,,,,
5,4,845,A,24.6228575815327,46.839187181405826,1.231142879076635,0.7357482317461088,A,526.438299973961,Correct,sub_005_day_03_data.csv,1,300,33.0,Training at home,,,,,,,,,,,,,
5,4,846,B,68.84027167687748,42.97856834479444,3.442013583843874,0.6751057728690651,B,688.055099977646,Correct,sub_005_day_03_data.csv,1,300,33.0,Training at home,,,,,,,,,,,,,
5,4,847,A,49.12244129754082,76.39677515067602,2.456122064877041,1.2000377378565752,A,934.9783000070602,Correct,sub_005_day_03_data.csv,1,300,33.0,Training at home,,,,,,,,,,,,,
5,4,848,A,52.7276559550417,61.651385065994965,2.636382797752085,0.9684176920348264,A,685.9850999899209,Correct,sub_005_day_03_data.csv,1,300,33.0,Training at home,,,,,,,,,,,,,
5,4,849,B,59.05958324122184,48.72932828727697,2.952979162061092,0.7654384988083732,B,422.12179995840415,Correct,sub_005_day_03_data.csv,1,300,33.0,Training at home,,,,,,,,,,,,,
5,4,850,B,49.3508372888433,28.206412265862262,2.467541864442165,0.4430652877927896,B,626.4131999923848,Correct,sub_005_day_03_data.csv,1,300,34.0,Training at home,,,,,,,,,,,,,
5,4,851,B,56.75534160799404,32.53954754083201,2.8377670803997024,0.5111300175270683,B,591.2716999882832,Correct,sub_005_day_03_data.csv,1,300,34.0,Training at home,,,,,,,,,,,,,
5,4,852,B,82.794949502189,57.98685501661843,4.13974747510945,0.9108553886249248,A,832.8390999813564,Incorrect,sub_005_day_03_data.csv,0,300,34.0,Training at home,,,,,,,,,,,,,
5,4,853,B,74.73796887109916,52.21247884124936,3.7368984435549577,0.8201516997669076,B,521.55770000536,Correct,sub_005_day_03_data.csv,1,300,34.0,Training at home,,,,,,,,,,,,,
5,4,854,A,61.72594894682166,71.57591470409437,3.086297447341083,1.1243118390417626,A,610.8462000265718,Correct,sub_005_day_03_data.csv,1,300,34.0,Training at home,,,,,,,,,,,,,
5,4,855,A,37.662068846024,57.291145177102216,1.8831034423012,0.8999272040206532,A,528.3623000141233,Correct,sub_005_day_03_data.csv,1,300,34.0,Training at home,,,,,,,,,,,,,
5,4,856,B,58.70760568387021,33.222105330669805,2.935380284193511,0.5218516102180928,B,496.69370002811775,Correct,sub_005_day_03_data.csv,1,300,34.0,Training at home,,,,,,,,,,,,,
5,4,857,B,64.59656067525964,46.42864289475856,3.229828033762982,0.7292994171715871,B,508.9707999723032,Correct,sub_005_day_03_data.csv,1,300,34.0,Training at home,,,,,,,,,,,,,
5,4,858,A,67.38062611186164,82.60642405862706,3.3690313055930825,1.2975786748095297,A,691.5078000165522,Correct,sub_005_day_03_data.csv,1,300,34.0,Training at home,,,,,,,,,,,,,
5,4,859,A,15.522097481339053,40.86697257922567,0.7761048740669526,0.6419369041467544,A,490.0050000287592,Correct,sub_005_day_03_data.csv,1,300,34.0,Training at home,,,,,,,,,,,,,
5,4,860,A,41.12314436371509,51.9782276785718,2.0561572181857546,0.816472091108094,A,526.8426000257023,Correct,sub_005_day_03_data.csv,1,300,34.0,Training at home,,,,,,,,,,,,,
5,4,861,A,43.32970141115669,72.93396910653942,2.1664850705578345,1.1456441077112458,A,639.8967000422999,Correct,sub_005_day_03_data.csv,1,300,34.0,Training at home,,,,,,,,,,,,,
5,4,862,B,62.744230557619126,53.1977535717036,3.1372115278809565,0.8356283590417211,A,516.0873999702744,Incorrect,sub_005_day_03_data.csv,0,300,34.0,Training at home,,,,,,,,,,,,,
5,4,863,B,55.02983762428131,39.99795396986679,2.7514918812140654,0.628286391751781,B,686.5440999972634,Correct,sub_005_day_03_data.csv,1,300,34.0,Training at home,,,,,,,,,,,,,
5,4,864,B,47.736768729633944,37.534235334726155,2.3868384364816975,0.5895863899284306,B,845.8662000484765,Correct,sub_005_day_03_data.csv,1,300,34.0,Training at home,,,,,,,,,,,,,
5,4,865,B,76.65126011583791,52.30455034157129,3.8325630057918953,0.8215979555119893,B,592.9222000413574,Correct,sub_005_day_03_data.csv,1,300,34.0,Training at home,,,,,,,,,,,,,
5,4,866,B,47.35106642824483,24.87838856657319,2.3675533214122413,0.3907888137694932,B,680.9324999921955,Correct,sub_005_day_03_data.csv,1,300,34.0,Training at home,,,,,,,,,,,,,
5,4,867,B,71.16884920003062,41.686093843315454,3.5584424600015314,0.6548036308750727,B,537.5812000129372,Correct,sub_005_day_03_data.csv,1,300,34.0,Training at home,,,,,,,,,,,,,
5,4,868,A,15.868769472130932,44.57570937273134,0.7934384736065466,0.7001936054696324,A,600.7938000257127,Correct,sub_005_day_03_data.csv,1,300,34.0,Training at home,,,,,,,,,,,,,
5,4,869,A,15.307179787122656,41.55209066073495,0.7653589893561329,0.6526987138053097,A,580.9742999845184,Correct,sub_005_day_03_data.csv,1,300,34.0,Training at home,,,,,,,,,,,,,
5,4,870,A,17.20341580069749,35.079042520864206,0.8601707900348744,0.5510203113925549,A,590.136100014206,Correct,sub_005_day_03_data.csv,1,300,34.0,Training at home,,,,,,,,,,,,,
5,4,871,B,45.185600201639176,26.495606621146003,2.259280010081959,0.4161920155669868,B,523.0502000194974,Correct,sub_005_day_03_data.csv,1,300,34.0,Training at home,,,,,,,,,,,,,
5,4,872,A,48.54292595408778,68.26131816235713,2.4271462977043887,1.072246278316083,A,499.52030001441017,Correct,sub_005_day_03_data.csv,1,300,34.0,Training at home,,,,,,,,,,,,,
5,4,873,B,56.074298293933424,38.69113644342216,2.8037149146966716,0.6077589500484769,B,424.2042999831028,Correct,sub_005_day_03_data.csv,1,300,34.0,Training at home,,,,,,,,,,,,,
5,4,874,B,61.65005311345832,29.008435145021824,3.082502655672916,0.4556634337186827,B,390.95369999995455,Correct,sub_005_day_03_data.csv,1,300,34.0,Training at home,,,,,,,,,,,,,
5,4,875,A,66.69214651738365,83.05293869758952,3.3346073258691824,1.3045925103569531,A,440.3066999511793,Correct,sub_005_day_03_data.csv,1,300,35.0,Training at home,,,,,,,,,,,,,
5,4,876,A,14.046072201372034,30.108494497345703,0.7023036100686016,0.4729431256175498,A,708.1662000273354,Correct,sub_005_day_03_data.csv,1,300,35.0,Training at home,,,,,,,,,,,,,
5,4,877,B,80.62796274562533,67.056593888517,4.031398137281267,1.053322513674596,B,483.0495000351221,Correct,sub_005_day_03_data.csv,1,300,35.0,Training at home,,,,,,,,,,,,,
5,4,878,A,28.929423141798125,48.85239408343977,1.446471157089906,0.7673716118140392,A,467.8893000236712,Correct,sub_005_day_03_data.csv,1,300,35.0,Training at home,,,,,,,,,,,,,
5,4,879,A,26.235988923786085,55.9348782858196,1.311799446189304,0.8786230135108505,A,532.736599969212,Correct,sub_005_day_03_data.csv,1,300,35.0,Training at home,,,,,,,,,,,,,
5,4,880,B,44.06759834055497,27.89794631819816,2.203379917027749,0.4382199160174687,B,582.2323000174947,Correct,sub_005_day_03_data.csv,1,300,35.0,Training at home,,,,,,,,,,,,,
5,4,881,A,42.35023192391774,66.1486272654265,2.117511596195887,1.0390602073105668,A,521.1075999541208,Correct,sub_005_day_03_data.csv,1,300,35.0,Training at home,,,,,,,,,,,,,
5,4,882,B,63.22077915315762,37.224722984283595,3.1610389576578815,0.5847245812967022,B,375.61540002934635,Correct,sub_005_day_03_data.csv,1,300,35.0,Training at home,,,,,,,,,,,,,
5,4,883,B,38.47333063351401,14.730030460067203,1.923666531675701,0.231378777402505,B,596.4431000174955,Correct,sub_005_day_03_data.csv,1,300,35.0,Training at home,,,,,,,,,,,,,
5,4,884,A,13.293656704865576,32.93525254556266,0.6646828352432789,0.5173457372063209,A,512.4238000134937,Correct,sub_005_day_03_data.csv,1,300,35.0,Training at home,,,,,,,,,,,,,
5,4,885,A,36.27169640780848,53.0148643546976,1.8135848203904243,0.8327555419388868,A,687.6721999724396,Correct,sub_005_day_03_data.csv,1,300,35.0,Training at home,,,,,,,,,,,,,
5,4,886,B,39.14517540720023,12.441076084559,1.9572587703600113,0.1954239661500111,B,420.3677999903448,Correct,sub_005_day_03_data.csv,1,300,35.0,Training at home,,,,,,,,,,,,,
5,4,887,B,53.700147611431554,39.970256580135114,2.685007380571578,0.6278513221712577,B,584.9884999915957,Correct,sub_005_day_03_data.csv,1,300,35.0,Training at home,,,,,,,,,,,,,
5,4,888,B,75.71076569578962,46.44228743990153,3.785538284789481,0.7295137451855009,B,436.56810000538826,Correct,sub_005_day_03_data.csv,1,300,35.0,Training at home,,,,,,,,,,,,,
5,4,889,A,55.41620610793749,66.12197780565666,2.770810305396874,1.0386415985753914,A,562.5062000472099,Correct,sub_005_day_03_data.csv,1,300,35.0,Training at home,,,,,,,,,,,,,
5,4,890,B,67.99413776298547,52.87576682674901,3.399706888149274,0.8305706030792077,B,479.2198999784887,Correct,sub_005_day_03_data.csv,1,300,35.0,Training at home,,,,,,,,,,,,,
5,4,891,A,24.20075579386493,48.26357415020264,1.2100377896932464,0.7581224499313144,A,497.40470002871007,Correct,sub_005_day_03_data.csv,1,300,35.0,Training at home,,,,,,,,,,,,,
5,4,892,B,64.9617070184742,35.918642236101114,3.24808535092371,0.5642087128792765,B,570.850599964615,Correct,sub_005_day_03_data.csv,1,300,35.0,Training at home,,,,,,,,,,,,,
5,4,893,B,44.395020392700296,23.60891169354679,2.219751019635015,0.3708479176784837,B,494.9468999984674,Correct,sub_005_day_03_data.csv,1,300,35.0,Training at home,,,,,,,,,,,,,
5,4,894,A,30.650134036286435,60.27505522776149,1.532506701814322,0.9467983534912728,A,468.87849998893216,Correct,sub_005_day_03_data.csv,1,300,35.0,Training at home,,,,,,,,,,,,,
5,4,895,B,63.450090406384405,55.586394161549656,3.17250452031922,0.8731490376873547,B,521.7161999898963,Correct,sub_005_day_03_data.csv,1,300,35.0,Training at home,,,,,,,,,,,,,
5,4,896,A,57.72347936164555,66.76709030922295,2.8861739680822773,1.0487750020851054,B,621.3665999821387,Incorrect,sub_005_day_03_data.csv,0,300,35.0,Training at home,,,,,,,,,,,,,
5,4,897,A,55.29898214995502,66.71137141109469,2.764949107497751,1.047899771679976,B,384.7305999952368,Incorrect,sub_005_day_03_data.csv,0,300,35.0,Training at home,,,,,,,,,,,,,
5,4,898,A,35.22634477249544,54.74384358191671,1.761317238624772,0.8599142841310914,A,702.4059999966994,Correct,sub_005_day_03_data.csv,1,300,35.0,Training at home,,,,,,,,,,,,,
5,4,899,B,55.77431094217202,31.782469010157428,2.788715547108601,0.4992378557762791,B,622.899400012102,Correct,sub_005_day_03_data.csv,1,300,35.0,Training at home,,,,,,,,,,,,,
