subject,day,trial,cat,x,y,xt,yt,resp,rt,fb,f_name,acc,n_trials,block,session_type,ns_left_digit,ns_right_digit,ns_left_size,ns_right_size,ns_congruent,ns_cue,ns_correct_side,ns_resp,ns_rt,ns_fb,acc_stroop,acc_stroop_mean,resp_key
5,22,0,A,50.76588050578589,72.1679958656405,2.5382940252892947,1.1336122281789738,A,983.8111999997636,Correct,sub_005_day_22_data.csv,1,340,,Dual-Task at home,8.0,5.0,small,big,False,Value,left,left,919.1745999996784,Correct,1.0,0.9529411764705882,
5,22,1,A,45.689532053281646,58.520742414371185,2.2844766026640824,0.9192416722580457,B,1010.3138000013132,Incorrect,sub_005_day_22_data.csv,0,340,,Dual-Task at home,5.0,3.0,small,big,False,Value,left,left,850.2644000000146,Correct,1.0,0.9529411764705882,
5,22,2,B,51.7040592181847,21.763838352545292,2.585202960909235,0.3418655734113603,B,806.9061999995029,Correct,sub_005_day_22_data.csv,1,340,,Dual-Task at home,3.0,6.0,big,small,False,Size,left,left,1165.0885000017297,Correct,1.0,0.9529411764705882,
5,22,3,B,62.768817387805534,31.48446193800511,3.1384408693902763,0.4945567716333216,B,656.1389999988023,Correct,sub_005_day_22_data.csv,1,340,,Dual-Task at home,6.0,5.0,small,big,False,Value,left,left,1216.858300002059,Correct,1.0,0.9529411764705882,
5,22,4,B,51.8539740041362,27.29016649563969,2.59269870020681,0.4286729328897197,B,670.6109999977343,Correct,sub_005_day_22_data.csv,1,340,,Dual-Task at home,2.0,8.0,big,small,False,Value,right,right,938.3723999999348,Correct,1.0,0.9529411764705882,
5,22,5,B,45.280652717724195,28.30146063708293,2.2640326358862097,0.4445583041166021,B,672.3923000026844,Correct,sub_005_day_22_data.csv,1,340,,Dual-Task at home,2.0,6.0,small,big,True,Value,right,right,475.8634999998322,Correct,1.0,0.9529411764705882,
5,22,6,B,39.55897865592044,25.44889775289925,1.977948932796022,0.3997503511123303,B,730.1893000003474,Correct,sub_005_day_22_data.csv,1,340,,Dual-Task at home,6.0,3.0,small,big,False,Size,right,right,950.402700000268,Correct,1.0,0.9529411764705882,
5,22,7,B,41.78908268176231,16.380044725137115,2.089454134088115,0.257297140869815,B,670.8364000005531,Correct,sub_005_day_22_data.csv,1,340,,Dual-Task at home,8.0,4.0,small,big,False,Size,right,right,962.1492999976908,Correct,1.0,0.9529411764705882,
5,22,8,A,11.37650904093886,35.61775947092811,0.5688254520469429,0.55948245745598,A,534.0283000005002,Correct,sub_005_day_22_data.csv,1,340,,Dual-Task at home,7.0,5.0,small,big,False,Value,left,left,517.0973999993294,Correct,1.0,0.9529411764705882,
5,22,9,B,45.74133492107073,20.440563325887847,2.2870667460535365,0.321079617899231,B,601.7270000011194,Correct,sub_005_day_22_data.csv,1,340,,Dual-Task at home,4.0,6.0,big,small,False,Value,right,right,651.0091000018292,Correct,1.0,0.9529411764705882,
5,22,10,B,85.11099891374062,62.763087420735765,4.255549945687031,0.9858802717879872,B,614.963699998043,Correct,sub_005_day_22_data.csv,1,340,,Dual-Task at home,8.0,5.0,big,small,True,Value,left,left,483.98180000003777,Correct,1.0,0.9529411764705882,
5,22,11,B,66.93571870181881,39.14200415695957,3.346785935090941,0.6148411635314267,B,526.417400000355,Correct,sub_005_day_22_data.csv,1,340,,Dual-Task at home,7.0,5.0,small,big,False,Value,left,left,741.5958999990835,Correct,1.0,0.9529411764705882,
5,22,12,B,44.11312272220997,19.19336310230436,2.2056561361104987,0.3014886425994038,B,529.1078000009293,Correct,sub_005_day_22_data.csv,1,340,,Dual-Task at home,2.0,7.0,small,big,True,Value,right,right,829.8180999991018,Correct,1.0,0.9529411764705882,
5,22,13,A,61.02826224336878,74.06378073320211,3.051413112168439,1.163391147242565,A,636.8651999982831,Correct,sub_005_day_22_data.csv,1,340,,Dual-Task at home,8.0,5.0,small,big,False,Size,right,right,577.0377000008011,Correct,1.0,0.9529411764705882,
5,22,14,B,66.577646267317,58.31993138453035,3.32888231336585,0.9160873399775068,A,618.5920999996597,Incorrect,sub_005_day_22_data.csv,0,340,,Dual-Task at home,4.0,7.0,big,small,False,Value,right,right,636.3193999968644,Correct,1.0,0.9529411764705882,
5,22,15,B,69.81005367012955,50.040490135073526,3.4905026835064774,0.7860341809518976,B,502.4951000013971,Correct,sub_005_day_22_data.csv,1,340,,Dual-Task at home,2.0,6.0,big,small,False,Value,right,right,791.5234999964014,Correct,1.0,0.9529411764705882,
5,22,16,B,87.96211152588933,65.49454826541123,4.3981055762944665,1.02878595840399,B,545.8322999984375,Correct,sub_005_day_22_data.csv,1,340,,Dual-Task at home,7.0,5.0,small,big,False,Size,right,right,638.4348999999929,Correct,1.0,0.9529411764705882,
5,22,17,A,29.061013647182772,62.15743192952135,1.4530506823591387,0.9763666575789596,A,570.0999999971827,Correct,sub_005_day_22_data.csv,1,340,,Dual-Task at home,7.0,6.0,small,big,False,Size,right,right,669.1573999996763,Correct,1.0,0.9529411764705882,
5,22,18,B,71.93839592735516,51.47711192828904,3.5969197963677577,0.8086005833096618,B,475.8192999979656,Correct,sub_005_day_22_data.csv,1,340,,Dual-Task at home,5.0,8.0,big,small,False,Value,right,right,829.3420000009064,Correct,1.0,0.9529411764705882,
5,22,19,A,52.09600634477797,81.7904468781679,2.6048003172388987,1.284761335231393,A,595.6693000007363,Correct,sub_005_day_22_data.csv,1,340,,Dual-Task at home,5.0,6.0,big,small,False,Value,right,right,984.5334999990882,Correct,1.0,0.9529411764705882,
5,22,20,B,76.76697169698659,49.41804723305363,3.8383485848493297,0.7762568707105734,B,509.4744999987597,Correct,sub_005_day_22_data.csv,1,340,,Dual-Task at home,6.0,2.0,small,big,False,Value,left,left,474.73969999919063,Correct,1.0,0.9529411764705882,
5,22,21,A,60.558945522811634,74.32961729206573,3.0279472761405817,1.167566898144473,A,545.6964999975753,Correct,sub_005_day_22_data.csv,1,340,,Dual-Task at home,8.0,3.0,small,big,False,Size,right,right,439.8911999996926,Correct,1.0,0.9529411764705882,
5,22,22,A,52.18707442896952,82.30855009652674,2.6093537214484765,1.2928996815543794,A,564.8457999996026,Correct,sub_005_day_22_data.csv,1,340,,Dual-Task at home,7.0,3.0,small,big,False,Value,left,left,665.7104999976582,Correct,1.0,0.9529411764705882,
5,22,23,A,23.06628828203466,42.337411344270905,1.153314414101733,0.6650345022558531,A,512.343400001555,Correct,sub_005_day_22_data.csv,1,340,,Dual-Task at home,3.0,8.0,small,big,True,Size,right,right,485.4444999982661,Correct,1.0,0.9529411764705882,
5,22,24,B,58.71874237324304,27.82033128419755,2.9359371186621517,0.4370007419143465,B,467.0043000005535,Correct,sub_005_day_22_data.csv,1,340,,Dual-Task at home,7.0,6.0,small,big,False,Size,right,right,797.1212000011292,Correct,1.0,0.9529411764705882,
5,22,25,B,54.460212606398926,47.86404081363038,2.7230106303199464,0.7518465949561162,A,540.3240999985428,Incorrect,sub_005_day_22_data.csv,0,340,,Dual-Task at home,5.0,4.0,small,big,False,Size,right,right,758.5814999983995,Correct,1.0,0.9529411764705882,
5,22,26,B,78.41148488516926,50.81126742928721,3.920574244258463,0.7981415223771751,B,483.2464999999502,Correct,sub_005_day_22_data.csv,1,340,,Dual-Task at home,6.0,5.0,small,big,False,Size,right,right,603.2675999995263,Correct,1.0,0.9529411764705882,
5,22,27,A,53.08289016738884,81.33579900412113,2.6541445083694417,1.2776197431260148,A,477.3322000000917,Correct,sub_005_day_22_data.csv,1,340,,Dual-Task at home,6.0,5.0,small,big,False,Value,left,left,550.6411000023945,Correct,1.0,0.9529411764705882,
5,22,28,A,15.203092146554198,39.30584116147816,0.7601546073277099,0.6174147091803354,A,501.2443000014173,Correct,sub_005_day_22_data.csv,1,340,,Dual-Task at home,7.0,2.0,small,big,False,Size,right,right,797.9645999985223,Correct,1.0,0.9529411764705882,
5,22,29,A,60.82589403166847,81.41331572113408,3.041294701583423,1.278837372869506,A,644.3621999969764,Correct,sub_005_day_22_data.csv,1,340,,Dual-Task at home,8.0,5.0,small,big,False,Size,right,right,683.8175999982923,Correct,1.0,0.9529411764705882,
5,22,30,A,29.4303505681971,45.38230747293367,1.471517528409855,0.7128636187996079,A,714.9747999974352,Correct,sub_005_day_22_data.csv,1,340,,Dual-Task at home,8.0,7.0,small,big,False,Value,left,left,386.46779999908176,Correct,1.0,0.9529411764705882,
5,22,31,A,30.303269978464822,58.951902625678386,1.5151634989232412,0.9260143210198604,A,518.819100001565,Correct,sub_005_day_22_data.csv,1,340,,Dual-Task at home,4.0,5.0,big,small,False,Value,right,right,937.3240999993868,Correct,1.0,0.9529411764705882,
5,22,32,A,45.23260366768118,75.56305417286369,2.2616301833840593,1.1869416793613807,A,571.472100000392,Correct,sub_005_day_22_data.csv,1,340,,Dual-Task at home,3.0,8.0,big,small,False,Value,right,right,764.3817999996827,Correct,1.0,0.9529411764705882,
5,22,33,A,62.07548934160469,83.49088493293053,3.1037744670802345,1.3114717537350264,A,597.171100002015,Correct,sub_005_day_22_data.csv,1,340,,Dual-Task at home,3.0,7.0,big,small,False,Size,left,left,475.7229999995616,Correct,1.0,0.9529411764705882,
5,22,34,A,41.306710729628314,48.609587200489806,2.065335536481416,0.7635576102154561,A,596.0771999998542,Correct,sub_005_day_22_data.csv,1,340,,Dual-Task at home,2.0,5.0,big,small,False,Value,right,right,423.1617999976152,Correct,1.0,0.9529411764705882,
5,22,35,B,37.19853479650215,18.61355535995898,1.8599267398251076,0.2923810438801703,B,636.8839999995544,Correct,sub_005_day_22_data.csv,1,340,,Dual-Task at home,8.0,2.0,small,big,False,Value,left,left,545.210500000394,Correct,1.0,0.9529411764705882,
5,22,36,A,17.427364546556184,37.0662404690521,0.8713682273278093,0.5822351437688338,A,506.32860000041546,Correct,sub_005_day_22_data.csv,1,340,,Dual-Task at home,4.0,2.0,small,big,False,Size,right,right,702.1838000000571,Correct,1.0,0.9529411764705882,
5,22,37,A,35.56023544670945,57.22165557456538,1.7780117723354725,0.8988356638965003,A,665.7040999998571,Correct,sub_005_day_22_data.csv,1,340,,Dual-Task at home,3.0,8.0,big,small,False,Value,right,right,472.0952000025136,Correct,1.0,0.9529411764705882,
5,22,38,B,45.2373535413015,26.449459883095113,2.261867677065075,0.4154671443007477,B,755.0140000021202,Correct,sub_005_day_22_data.csv,1,340,,Dual-Task at home,3.0,7.0,big,small,False,Size,left,left,559.7176999981457,Correct,1.0,0.9529411764705882,
5,22,39,B,60.889901611052345,40.72198784672374,3.0444950805526174,0.6396594892942008,B,530.7964000021457,Correct,sub_005_day_22_data.csv,1,340,,Dual-Task at home,3.0,8.0,small,big,True,Value,right,right,495.254900000873,Correct,1.0,0.9529411764705882,
5,22,40,B,85.39506683049987,63.270822209119586,4.269753341524994,0.99385575119378,B,437.13470000147936,Correct,sub_005_day_22_data.csv,1,340,,Dual-Task at home,6.0,7.0,big,small,False,Value,right,right,445.89429999905406,Correct,1.0,0.9529411764705882,
5,22,41,A,39.27331809987283,71.14450546181799,1.9636659049936416,1.1175352785106314,A,686.2361000021338,Correct,sub_005_day_22_data.csv,1,340,,Dual-Task at home,8.0,3.0,small,big,False,Value,left,left,499.82230000023264,Correct,1.0,0.9529411764705882,
5,22,42,A,52.59039147230418,64.47256701267946,2.629519573615209,1.0127327144255471,A,466.1472000007052,Correct,sub_005_day_22_data.csv,1,340,,Dual-Task at home,8.0,4.0,small,big,False,Size,right,right,742.73379999795,Correct,1.0,0.9529411764705882,
5,22,43,B,66.25841341063051,34.02669434818849,3.3129206705315255,0.5344900649510715,B,428.7596999965899,Correct,sub_005_day_22_data.csv,1,340,,Dual-Task at home,7.0,6.0,big,small,True,Value,left,left,458.4488000000419,Correct,1.0,0.9529411764705882,
5,22,44,B,75.28951746474453,56.74965684035607,3.764475873237227,0.8914215251170219,B,428.243599999405,Correct,sub_005_day_22_data.csv,1,340,,Dual-Task at home,4.0,5.0,small,big,True,Size,right,right,286.8672999975388,Correct,1.0,0.9529411764705882,
5,22,45,A,66.952696659374,89.60259424526221,3.3476348329687,1.407474259117514,A,533.7519000022439,Correct,sub_005_day_22_data.csv,1,340,,Dual-Task at home,3.0,2.0,small,big,False,Size,right,left,533.2024999988789,Incorrect,0.0,0.9529411764705882,
5,22,46,B,77.97412526723758,64.05484703417825,3.898706263361879,1.0061711843469618,B,523.1027000008908,Correct,sub_005_day_22_data.csv,1,340,,Dual-Task at home,3.0,4.0,big,small,False,Size,left,left,780.700600000273,Correct,1.0,0.9529411764705882,
5,22,47,A,23.685947584119436,55.539130151267635,1.1842973792059717,0.872406616349949,A,494.12840000150027,Correct,sub_005_day_22_data.csv,1,340,,Dual-Task at home,5.0,3.0,small,big,False,Value,left,left,480.03289999905974,Correct,1.0,0.9529411764705882,
5,22,48,B,42.9218438100428,21.346979421643773,2.1460921905021397,0.3353175686368428,B,535.051899998507,Correct,sub_005_day_22_data.csv,1,340,,Dual-Task at home,4.0,3.0,small,big,False,Size,right,right,666.8931000021985,Correct,1.0,0.9529411764705882,
5,22,49,A,64.36436998313555,77.5477646674634,3.218218499156777,1.2181174389080656,B,379.66900000174064,Incorrect,sub_005_day_22_data.csv,0,340,,Dual-Task at home,6.0,8.0,small,big,True,Value,right,right,417.8021999978227,Correct,1.0,0.9529411764705882,
5,22,50,A,59.95474605627127,79.4387795535834,2.997737302813563,1.2478214312783833,A,550.832500000979,Correct,sub_005_day_22_data.csv,1,340,,Dual-Task at home,5.0,7.0,big,small,False,Size,left,left,485.84480000135954,Correct,1.0,0.9529411764705882,
5,22,51,B,34.374275511716235,20.502672425630355,1.7187137755858115,0.3220552253565917,B,505.6679000008444,Correct,sub_005_day_22_data.csv,1,340,,Dual-Task at home,4.0,2.0,small,big,False,Size,right,right,754.031299999042,Correct,1.0,0.9529411764705882,
5,22,52,B,83.09386433404528,66.15740662479458,4.154693216702264,1.0391981131650367,B,514.6883000015805,Correct,sub_005_day_22_data.csv,1,340,,Dual-Task at home,8.0,3.0,small,big,False,Value,left,left,390.0281999995059,Correct,1.0,0.9529411764705882,
5,22,53,B,55.93784927428512,35.62040353178529,2.796892463714256,0.5595239902668029,B,544.6297000016784,Correct,sub_005_day_22_data.csv,1,340,,Dual-Task at home,5.0,4.0,small,big,False,Value,left,left,746.26089999947,Correct,1.0,0.9529411764705882,
5,22,54,B,42.24670018490943,14.744246495217084,2.1123350092454714,0.2316020823604552,B,559.0566999999282,Correct,sub_005_day_22_data.csv,1,340,,Dual-Task at home,5.0,6.0,big,small,False,Value,right,left,795.0796999975864,Incorrect,0.0,0.9529411764705882,
5,22,55,A,53.900614697343094,68.93090738948928,2.6950307348671547,1.0827641613004897,B,449.29519999641343,Incorrect,sub_005_day_22_data.csv,0,340,,Dual-Task at home,5.0,8.0,small,big,True,Value,right,right,468.16739999849233,Correct,1.0,0.9529411764705882,
5,22,56,A,67.59840312644823,80.31316849023546,3.3799201563224117,1.2615563005772148,A,522.8423000007751,Correct,sub_005_day_22_data.csv,1,340,,Dual-Task at home,5.0,6.0,big,small,False,Value,right,right,814.8975000003702,Correct,1.0,0.9529411764705882,
5,22,57,B,61.81533332763474,39.92389752792943,3.0907666663817372,0.6271231158820739,B,463.36890000020503,Correct,sub_005_day_22_data.csv,1,340,,Dual-Task at home,4.0,7.0,big,small,False,Size,left,right,872.4151999995229,Incorrect,0.0,0.9529411764705882,
5,22,58,B,65.8515950716335,43.50591961877167,3.2925797535816748,0.6833893873100058,B,468.3245000014722,Correct,sub_005_day_22_data.csv,1,340,,Dual-Task at home,8.0,3.0,big,small,True,Size,left,left,491.8007999986002,Correct,1.0,0.9529411764705882,
5,22,59,A,28.48135147336255,55.73395485926176,1.4240675736681276,0.8754669157068093,A,467.32630000042263,Correct,sub_005_day_22_data.csv,1,340,,Dual-Task at home,2.0,7.0,big,small,False,Value,right,right,814.7104999989097,Correct,1.0,0.9529411764705882,
5,22,60,A,37.49900923406116,70.65169326379353,1.874950461703058,1.109794202606066,A,453.5695999984455,Correct,sub_005_day_22_data.csv,1,340,,Dual-Task at home,3.0,8.0,big,small,False,Value,right,right,753.1925000002957,Correct,1.0,0.9529411764705882,
5,22,61,A,65.5089174058842,81.45908568424244,3.27544587029421,1.2795563257687876,A,452.1368999994593,Correct,sub_005_day_22_data.csv,1,340,,Dual-Task at home,6.0,5.0,small,big,False,Size,right,right,719.465999998647,Correct,1.0,0.9529411764705882,
5,22,62,A,23.466516605927335,41.59810560221116,1.1733258302963667,0.653421514815795,A,499.0228999995452,Correct,sub_005_day_22_data.csv,1,340,,Dual-Task at home,2.0,4.0,big,small,False,Size,left,left,517.4775000014051,Correct,1.0,0.9529411764705882,
5,22,63,B,54.01964821051069,31.958177126748915,2.7009824105255342,0.5019978724175788,B,478.5890000021027,Correct,sub_005_day_22_data.csv,1,340,,Dual-Task at home,8.0,7.0,small,big,False,Size,right,right,392.8545999988273,Correct,1.0,0.9529411764705882,
5,22,64,A,31.710523810053665,42.05434274599676,1.5855261905026834,0.6605880711118531,A,586.7859999998473,Correct,sub_005_day_22_data.csv,1,340,,Dual-Task at home,4.0,3.0,small,big,False,Value,left,left,434.689999998227,Correct,1.0,0.9529411764705882,
5,22,65,B,44.93753518152916,29.488998090544857,2.2468767590764576,0.4632120988148958,B,631.0400000002119,Correct,sub_005_day_22_data.csv,1,340,,Dual-Task at home,7.0,4.0,small,big,False,Size,right,right,764.5153000012215,Correct,1.0,0.9529411764705882,
5,22,66,A,62.53958306753748,75.04335088410343,3.126979153376874,1.1787781991913022,A,617.1926999995776,Correct,sub_005_day_22_data.csv,1,340,,Dual-Task at home,2.0,4.0,big,small,False,Size,left,right,589.9423999981082,Incorrect,0.0,0.9529411764705882,
5,22,67,B,48.79496809450688,41.58498997665258,2.439748404725344,0.6532154950512846,B,603.4834000020055,Correct,sub_005_day_22_data.csv,1,340,,Dual-Task at home,8.0,6.0,small,big,False,Value,left,left,937.4696999984736,Correct,1.0,0.9529411764705882,
5,22,68,B,81.86851404949066,67.07633487493024,4.093425702474533,1.0536326043640485,B,527.7635000020382,Correct,sub_005_day_22_data.csv,1,340,,Dual-Task at home,2.0,7.0,big,small,False,Value,right,right,540.0233000000298,Correct,1.0,0.9529411764705882,
5,22,69,B,57.07136731946656,44.25118726688043,2.853568365973328,0.6950960241512888,B,481.1709999994491,Correct,sub_005_day_22_data.csv,1,340,,Dual-Task at home,8.0,6.0,small,big,False,Value,left,left,754.8146000008273,Correct,1.0,0.9529411764705882,
5,22,70,A,49.81546213113117,69.10612397984296,2.4907731065565586,1.0855164570657003,A,449.28340000114986,Correct,sub_005_day_22_data.csv,1,340,,Dual-Task at home,2.0,5.0,big,small,False,Size,left,left,949.3631000004824,Correct,1.0,0.9529411764705882,
5,22,71,A,60.350735076603925,77.78919037236629,3.0175367538301963,1.221909745012619,A,501.23960000200896,Correct,sub_005_day_22_data.csv,1,340,,Dual-Task at home,8.0,5.0,small,big,False,Value,left,left,481.76820000298903,Correct,1.0,0.9529411764705882,
5,22,72,B,40.475958868701376,28.42990353860366,2.023797943435069,0.4465758804957186,B,528.2397999981185,Correct,sub_005_day_22_data.csv,1,340,,Dual-Task at home,6.0,8.0,big,small,False,Value,right,right,803.7375000021711,Correct,1.0,0.9529411764705882,
5,22,73,A,14.881042970082596,32.0190138898029,0.7440521485041299,0.5029534940569717,A,474.8381999997946,Correct,sub_005_day_22_data.csv,1,340,,Dual-Task at home,5.0,7.0,big,small,False,Size,left,left,803.052100000059,Correct,1.0,0.9529411764705882,
5,22,74,A,49.45016458250905,73.6432579295979,2.4725082291254528,1.1567855904902151,A,467.8088000000571,Correct,sub_005_day_22_data.csv,1,340,,Dual-Task at home,2.0,6.0,big,small,False,Value,right,right,809.0403999995033,Correct,1.0,0.9529411764705882,
5,22,75,B,42.56265304346228,30.33043554314525,2.1281326521731136,0.4764293674126192,B,486.88359999869135,Correct,sub_005_day_22_data.csv,1,340,,Dual-Task at home,3.0,6.0,big,small,False,Size,left,left,662.8694999999425,Correct,1.0,0.9529411764705882,
5,22,76,A,35.7102715992897,52.200346909308294,1.7855135799644848,0.8199611318256079,A,513.4024999970279,Correct,sub_005_day_22_data.csv,1,340,,Dual-Task at home,7.0,8.0,big,small,False,Value,right,right,933.5276999991038,Correct,1.0,0.9529411764705882,
5,22,77,B,78.31405686217735,60.8270473698341,3.915702843108868,0.9554690257831456,B,647.7162000010139,Correct,sub_005_day_22_data.csv,1,340,,Dual-Task at home,6.0,7.0,big,small,False,Value,right,right,639.6787000012409,Correct,1.0,0.9529411764705882,
5,22,78,B,83.6006749049364,62.83223607890382,4.18003374524682,0.986966456370519,B,526.9348000001628,Correct,sub_005_day_22_data.csv,1,340,,Dual-Task at home,6.0,3.0,small,big,False,Value,left,left,745.0798999998369,Correct,1.0,0.9529411764705882,
5,22,79,A,25.72730118328661,53.73293112083954,1.2863650591643303,0.8440349083253793,A,515.4479000011634,Correct,sub_005_day_22_data.csv,1,340,,Dual-Task at home,4.0,6.0,big,small,False,Size,left,left,829.1505000015604,Correct,1.0,0.9529411764705882,
5,22,80,A,67.31912396855694,85.04764631330025,3.3659561984278468,1.3359253043148354,A,528.5517000011168,Correct,sub_005_day_22_data.csv,1,340,,Dual-Task at home,5.0,8.0,big,small,False,Size,left,left,558.7177999987034,Correct,1.0,0.9529411764705882,
5,22,81,B,72.99108376236029,51.96660247225227,3.6495541881180142,0.8162894827942447,B,504.26750000042375,Correct,sub_005_day_22_data.csv,1,340,,Dual-Task at home,6.0,5.0,big,small,True,Value,left,left,356.2129999991157,Correct,1.0,0.9529411764705882,
5,22,82,B,79.41898284114376,47.65670127126123,3.970949142057188,0.7485897130405882,B,429.09969999891473,Correct,sub_005_day_22_data.csv,1,340,,Dual-Task at home,8.0,4.0,big,small,True,Value,left,left,346.9881999990321,Correct,1.0,0.9529411764705882,
5,22,83,A,64.94587708465555,76.30477974697844,3.2472938542327774,1.1985926774344735,A,461.3900999975158,Correct,sub_005_day_22_data.csv,1,340,,Dual-Task at home,3.0,7.0,big,small,False,Value,right,right,803.0708000005689,Correct,1.0,0.9529411764705882,
5,22,84,A,51.76310936834248,82.2629883606549,2.5881554684171237,1.2921839994808804,A,473.74950000084937,Correct,sub_005_day_22_data.csv,1,340,,Dual-Task at home,5.0,3.0,small,big,False,Value,left,left,806.446099999448,Correct,1.0,0.9529411764705882,
5,22,85,A,42.29390892171339,54.7644711597655,2.1146954460856695,0.8602383013662469,A,463.7235000009241,Correct,sub_005_day_22_data.csv,1,340,,Dual-Task at home,3.0,7.0,big,small,False,Value,right,right,697.9159000002255,Correct,1.0,0.9529411764705882,
5,22,86,B,51.88066716360795,26.550854967633786,2.594033358180398,0.4170598545642318,B,491.6350000021339,Correct,sub_005_day_22_data.csv,1,340,,Dual-Task at home,7.0,6.0,small,big,False,Value,left,left,843.8067000024603,Correct,1.0,0.9529411764705882,
5,22,87,B,50.35173392384826,41.55184037477274,2.5175866961924127,0.6526947823226089,B,417.39790000065113,Correct,sub_005_day_22_data.csv,1,340,,Dual-Task at home,8.0,6.0,small,big,False,Size,right,right,579.3297000018356,Correct,1.0,0.9529411764705882,
5,22,88,A,19.78590424878601,45.99497240125397,0.9892952124393004,0.7224873369892238,A,405.633400001534,Correct,sub_005_day_22_data.csv,1,340,,Dual-Task at home,7.0,3.0,small,big,False,Value,left,left,835.3179000005184,Correct,1.0,0.9529411764705882,
5,22,89,B,57.72527247008792,37.761595308024944,2.886263623504396,0.5931577520376098,B,453.76820000092266,Correct,sub_005_day_22_data.csv,1,340,,Dual-Task at home,5.0,2.0,small,big,False,Value,left,left,395.6054000009317,Correct,1.0,0.9529411764705882,
5,22,90,A,33.09757706491572,52.9379209248045,1.654878853245786,0.8315469173684159,A,407.6955000018643,Correct,sub_005_day_22_data.csv,1,340,,Dual-Task at home,3.0,6.0,big,small,False,Value,right,right,569.3580000006477,Correct,1.0,0.9529411764705882,
5,22,91,A,53.42446297384864,65.80086057430715,2.671223148692432,1.0335975009006482,A,417.6450000013574,Correct,sub_005_day_22_data.csv,1,340,,Dual-Task at home,4.0,5.0,big,small,False,Value,right,left,445.0939000016661,Incorrect,0.0,0.9529411764705882,
5,22,92,A,29.173406246643,39.25491148357491,1.4586703123321498,0.6166147076705828,A,514.0389000007417,Correct,sub_005_day_22_data.csv,1,340,,Dual-Task at home,3.0,2.0,small,big,False,Size,right,left,835.4068000007828,Incorrect,0.0,0.9529411764705882,
5,22,93,B,71.81896515889458,54.70886845336643,3.590948257944729,0.8593648960965317,B,447.2614000005706,Correct,sub_005_day_22_data.csv,1,340,,Dual-Task at home,3.0,5.0,small,big,True,Value,right,right,411.6080999992846,Correct,1.0,0.9529411764705882,
5,22,94,B,40.65948450035724,28.0818860516573,2.0329742250178615,0.4411092345941612,B,591.6827999972156,Correct,sub_005_day_22_data.csv,1,340,,Dual-Task at home,6.0,2.0,small,big,False,Value,left,left,415.0971000017307,Correct,1.0,0.9529411764705882,
5,22,95,A,24.398530168616723,48.99246127980798,1.2199265084308362,0.7695717821896358,A,472.84729999955744,Correct,sub_005_day_22_data.csv,1,340,,Dual-Task at home,5.0,2.0,small,big,False,Size,right,right,617.9239000011876,Correct,1.0,0.9529411764705882,
5,22,96,B,81.16009369731661,56.42063732197373,4.05800468486583,0.8862532986078336,B,543.3272999980545,Correct,sub_005_day_22_data.csv,1,340,,Dual-Task at home,6.0,4.0,small,big,False,Size,right,right,834.3223000010767,Correct,1.0,0.9529411764705882,
5,22,97,B,66.58194538430776,47.991210966898215,3.3290972692153877,0.7538441790524266,B,423.5975000010512,Correct,sub_005_day_22_data.csv,1,340,,Dual-Task at home,6.0,7.0,small,big,True,Size,right,right,390.3866999971797,Correct,1.0,0.9529411764705882,
5,22,98,A,21.74239835423539,34.11617884788096,1.0871199177117696,0.5358956841852915,A,488.94210000071325,Correct,sub_005_day_22_data.csv,1,340,,Dual-Task at home,5.0,7.0,big,small,False,Size,left,left,616.2936000000627,Correct,1.0,0.9529411764705882,
5,22,99,A,33.64863141539362,66.65991174947139,1.682431570769681,1.0470914452054163,A,497.9801000008592,Correct,sub_005_day_22_data.csv,1,340,,Dual-Task at home,6.0,8.0,big,small,False,Size,left,left,746.1404000023322,Correct,1.0,0.9529411764705882,
5,22,100,A,32.295549087375505,50.88715195901324,1.6147774543687752,0.7993335137827172,A,397.86589999857824,Correct,sub_005_day_22_data.csv,1,340,,Dual-Task at home,6.0,5.0,small,big,False,Value,left,left,459.79779999834136,Correct,1.0,0.9529411764705882,
5,22,101,A,22.066372887705487,47.74882022342972,1.1033186443852745,0.7500367141575328,A,440.74059999911697,Correct,sub_005_day_22_data.csv,1,340,,Dual-Task at home,5.0,8.0,big,small,False,Size,left,left,514.2429000006814,Correct,1.0,0.9529411764705882,
5,22,102,B,54.10779105644107,46.297709370046455,2.7053895528220537,0.7272427181748663,B,517.8244000017003,Correct,sub_005_day_22_data.csv,1,340,,Dual-Task at home,3.0,6.0,big,small,False,Size,left,left,714.7272000001976,Correct,1.0,0.9529411764705882,
5,22,103,A,33.81532997928688,53.22653891070301,1.6907664989643438,0.8360805180893793,A,558.9224999966973,Correct,sub_005_day_22_data.csv,1,340,,Dual-Task at home,5.0,4.0,small,big,False,Size,right,left,492.450399997324,Incorrect,0.0,0.9529411764705882,
5,22,104,A,38.722756074662016,65.69177488084334,1.9361378037331007,1.0318839868346597,A,429.193200001464,Correct,sub_005_day_22_data.csv,1,340,,Dual-Task at home,2.0,3.0,big,small,False,Value,right,right,640.7876999983273,Correct,1.0,0.9529411764705882,
5,22,105,B,41.57308797661809,32.873745915703324,2.0786543988309045,0.5163795933237552,B,519.406400002481,Correct,sub_005_day_22_data.csv,1,340,,Dual-Task at home,4.0,2.0,small,big,False,Size,right,right,701.9209999998566,Correct,1.0,0.9529411764705882,
5,22,106,B,79.51102829505416,49.028427064412696,3.975551414752709,0.7701367314131095,B,518.8799999996263,Correct,sub_005_day_22_data.csv,1,340,,Dual-Task at home,6.0,8.0,big,small,False,Value,right,right,765.9832999997889,Correct,1.0,0.9529411764705882,
5,22,107,B,84.40068998160818,63.06990379242812,4.220034499080409,0.9906997320845362,B,478.4183000010671,Correct,sub_005_day_22_data.csv,1,340,,Dual-Task at home,8.0,6.0,small,big,False,Size,right,right,687.2239000003901,Correct,1.0,0.9529411764705882,
5,22,108,A,24.90258180098543,42.55319566903084,1.2451290900492715,0.6684240345029815,A,505.1611999988382,Correct,sub_005_day_22_data.csv,1,340,,Dual-Task at home,2.0,4.0,big,small,False,Value,right,right,749.1788000006636,Correct,1.0,0.9529411764705882,
5,22,109,A,66.12093812298659,86.53876700842025,3.306046906149329,1.3593477734218593,A,543.1078000001435,Correct,sub_005_day_22_data.csv,1,340,,Dual-Task at home,6.0,3.0,small,big,False,Value,left,left,891.7137999997067,Correct,1.0,0.9529411764705882,
5,22,110,B,44.055902459174014,32.4529613250014,2.2027951229587006,0.5097699244292904,B,483.97660000046017,Correct,sub_005_day_22_data.csv,1,340,,Dual-Task at home,3.0,4.0,small,big,True,Value,right,right,300.8280000030936,Correct,1.0,0.9529411764705882,
5,22,111,B,75.72313374632381,45.92497779797266,3.7861566873161903,0.7213878643319264,B,559.2890000007174,Correct,sub_005_day_22_data.csv,1,340,,Dual-Task at home,8.0,6.0,small,big,False,Size,right,right,429.36700000063865,Correct,1.0,0.9529411764705882,
5,22,112,B,53.416318432613494,29.578166532141072,2.6708159216306746,0.4646127534201493,B,440.2413999996498,Correct,sub_005_day_22_data.csv,1,340,,Dual-Task at home,4.0,7.0,big,small,False,Value,right,right,403.7620000017341,Correct,1.0,0.9529411764705882,
5,22,113,B,51.45526819509702,40.36590789570227,2.57276340975485,0.6340661985031024,B,579.5791999989888,Correct,sub_005_day_22_data.csv,1,340,,Dual-Task at home,5.0,8.0,big,small,False,Value,right,right,690.892900001927,Correct,1.0,0.9529411764705882,
5,22,114,B,51.517805321988426,32.241999284193454,2.5758902660994214,0.5064561404413476,B,396.62809999936144,Correct,sub_005_day_22_data.csv,1,340,,Dual-Task at home,7.0,2.0,small,big,False,Size,right,left,685.3488999986439,Incorrect,0.0,0.9529411764705882,
5,22,115,A,29.215160280273665,50.65995213980894,1.460758014013683,0.7957646673681714,B,381.7332999969949,Incorrect,sub_005_day_22_data.csv,0,340,,Dual-Task at home,5.0,4.0,big,small,True,Size,left,left,350.61660000064876,Correct,1.0,0.9529411764705882,
5,22,116,B,56.714756122255416,40.66312566753832,2.8357378061127707,0.6387348843456847,B,448.6187999973481,Correct,sub_005_day_22_data.csv,1,340,,Dual-Task at home,4.0,6.0,big,small,False,Size,left,left,993.5274999988906,Correct,1.0,0.9529411764705882,
5,22,117,A,25.819710098185467,52.02249962504006,1.290985504909273,0.8171675132170181,A,468.4458000010636,Correct,sub_005_day_22_data.csv,1,340,,Dual-Task at home,6.0,2.0,small,big,False,Value,left,left,737.8729000010935,Correct,1.0,0.9529411764705882,
5,22,118,A,40.6178850308164,61.042550308331016,2.03089425154082,0.9588541380251904,A,524.9632999984897,Correct,sub_005_day_22_data.csv,1,340,,Dual-Task at home,3.0,6.0,big,small,False,Size,left,left,717.8851999997278,Correct,1.0,0.9529411764705882,
5,22,119,B,62.75894100836573,47.81019124999471,3.137947050418286,0.7510007279885319,B,547.0616000020527,Correct,sub_005_day_22_data.csv,1,340,,Dual-Task at home,2.0,5.0,big,small,False,Value,right,right,770.7405000001017,Correct,1.0,0.9529411764705882,
5,22,120,B,66.5067568168689,43.85468409017316,3.3253378408434453,0.6888677668159459,B,496.7630999999528,Correct,sub_005_day_22_data.csv,1,340,,Dual-Task at home,7.0,8.0,big,small,False,Value,right,right,955.0478999990446,Correct,1.0,0.9529411764705882,
5,22,121,B,52.21004188657962,28.644512852605132,2.610502094328981,0.4499469557170134,B,475.91539999848465,Correct,sub_005_day_22_data.csv,1,340,,Dual-Task at home,8.0,2.0,small,big,False,Value,left,left,419.4869000020845,Correct,1.0,0.9529411764705882,
5,22,122,A,62.12980319663651,88.70560930262423,3.106490159831826,1.3933844525866532,A,529.4698000034259,Correct,sub_005_day_22_data.csv,1,340,,Dual-Task at home,7.0,5.0,small,big,False,Size,right,right,986.979400000564,Correct,1.0,0.9529411764705882,
5,22,123,A,54.42468490466624,82.04007470101233,2.7212342452333123,1.288682479903291,A,463.57590000116033,Correct,sub_005_day_22_data.csv,1,340,,Dual-Task at home,8.0,5.0,small,big,False,Value,left,left,999.618100002408,Correct,1.0,0.9529411764705882,
5,22,124,A,29.21185093749589,49.625379310231864,1.4605925468747945,0.7795136353631568,A,483.5393000030308,Correct,sub_005_day_22_data.csv,1,340,,Dual-Task at home,3.0,5.0,big,small,False,Size,left,left,1275.6604999995034,Correct,1.0,0.9529411764705882,
5,22,125,A,35.62256505688565,44.68392604075588,1.7811282528442824,0.7018934689159415,A,452.88820000132546,Correct,sub_005_day_22_data.csv,1,340,,Dual-Task at home,2.0,5.0,big,small,False,Size,left,left,428.56119999851217,Correct,1.0,0.9529411764705882,
5,22,126,A,65.88808513475078,87.11333544805115,3.294404256737539,1.3683730733665038,A,616.8304000020726,Correct,sub_005_day_22_data.csv,1,340,,Dual-Task at home,7.0,8.0,small,big,True,Size,right,right,375.9487999996054,Correct,1.0,0.9529411764705882,
5,22,127,B,52.394911354753525,29.588044039953537,2.6197455677376764,0.4647679089500465,B,461.8604999996023,Correct,sub_005_day_22_data.csv,1,340,,Dual-Task at home,7.0,5.0,small,big,False,Value,left,left,739.6083000021463,Correct,1.0,0.9529411764705882,
5,22,128,A,65.64915409595838,80.99257478279264,3.2824577047979187,1.2722283896647166,A,472.0879000014975,Correct,sub_005_day_22_data.csv,1,340,,Dual-Task at home,5.0,7.0,big,small,False,Size,left,left,709.3504999975266,Correct,1.0,0.9529411764705882,
5,22,129,B,44.08267799551895,27.375755978566353,2.2041338997759476,0.4300173693436546,B,502.0733999990626,Correct,sub_005_day_22_data.csv,1,340,,Dual-Task at home,5.0,2.0,small,big,False,Value,left,left,475.97469999891473,Correct,1.0,0.9529411764705882,
5,22,130,A,67.22018648504736,88.66190084772295,3.361009324252368,1.3926978817825653,A,429.3154000006325,Correct,sub_005_day_22_data.csv,1,340,,Dual-Task at home,7.0,5.0,small,big,False,Value,left,left,927.036599998246,Correct,1.0,0.9529411764705882,
5,22,131,B,64.19671525534964,44.44857049925824,3.2098357627674825,0.6981965127151885,B,418.50220000196714,Correct,sub_005_day_22_data.csv,1,340,,Dual-Task at home,7.0,4.0,small,big,False,Size,right,left,584.3395000010787,Incorrect,0.0,0.9529411764705882,
5,22,132,A,55.193229841116974,64.57234108535667,2.759661492055849,1.0142999618942543,A,441.23559999934514,Correct,sub_005_day_22_data.csv,1,340,,Dual-Task at home,8.0,5.0,small,big,False,Value,left,left,922.7796999985004,Correct,1.0,0.9529411764705882,
5,22,133,B,84.085260373886,61.75788165786141,4.2042630186943,0.970090536588026,B,534.6136000007391,Correct,sub_005_day_22_data.csv,1,340,,Dual-Task at home,2.0,3.0,big,small,False,Value,right,right,1083.4093999983452,Correct,1.0,0.9529411764705882,
5,22,134,A,16.36352920594078,41.73159328403711,0.8181764602970389,0.6555183344186406,A,542.1984999993583,Correct,sub_005_day_22_data.csv,1,340,,Dual-Task at home,8.0,4.0,small,big,False,Value,left,left,840.063799998461,Correct,1.0,0.9529411764705882,
5,22,135,A,41.55686134619816,66.00788587748141,2.077843067309908,1.0368494467584453,A,624.6417000002111,Correct,sub_005_day_22_data.csv,1,340,,Dual-Task at home,4.0,7.0,small,big,True,Value,right,right,330.22300000084215,Correct,1.0,0.9529411764705882,
5,22,136,A,48.22642058488212,55.84940211936476,2.4113210292441063,0.8772803570278928,A,611.0649999973248,Correct,sub_005_day_22_data.csv,1,340,,Dual-Task at home,4.0,5.0,big,small,False,Value,right,right,1004.834600000322,Correct,1.0,0.9529411764705882,
5,22,137,B,61.96119173428562,38.55560866643762,3.0980595867142813,0.6056300847058169,B,404.98029999798746,Correct,sub_005_day_22_data.csv,1,340,,Dual-Task at home,2.0,3.0,big,small,False,Size,left,left,864.425100000517,Correct,1.0,0.9529411764705882,
5,22,138,A,34.5474538123182,46.269135625843525,1.72737269061591,0.726793882850499,A,458.8050000020303,Correct,sub_005_day_22_data.csv,1,340,,Dual-Task at home,5.0,7.0,big,small,False,Value,right,right,612.998399999924,Correct,1.0,0.9529411764705882,
5,22,139,B,61.55791917063011,36.61027789493644,3.0778959585315055,0.5750729004030656,A,375.1205000007758,Incorrect,sub_005_day_22_data.csv,0,340,,Dual-Task at home,5.0,2.0,big,small,True,Size,left,left,272.4516999987827,Correct,1.0,0.9529411764705882,
5,22,140,B,74.59604496495103,64.02979090101319,3.729802248247552,1.005777603527568,B,689.5830000030401,Correct,sub_005_day_22_data.csv,1,340,,Dual-Task at home,5.0,6.0,big,small,False,Value,right,right,574.3412999981956,Correct,1.0,0.9529411764705882,
5,22,141,B,69.54956227326682,55.540933274808175,3.4774781136633406,0.8724349397482913,B,452.4591999979748,Correct,sub_005_day_22_data.csv,1,340,,Dual-Task at home,6.0,8.0,small,big,True,Size,right,right,291.9664000000921,Correct,1.0,0.9529411764705882,
5,22,142,A,18.410946337729307,47.1435386276751,0.9205473168864654,0.7405289730846536,A,505.031599997892,Correct,sub_005_day_22_data.csv,1,340,,Dual-Task at home,4.0,7.0,big,small,False,Size,left,left,507.7495000005001,Correct,1.0,0.9529411764705882,
5,22,143,B,77.30682723444166,55.02827178778149,3.8653413617220824,0.8643820719411841,B,460.3486999985762,Correct,sub_005_day_22_data.csv,1,340,,Dual-Task at home,3.0,6.0,big,small,False,Value,right,right,606.599599999754,Correct,1.0,0.9529411764705882,
5,22,144,B,75.32503297547699,61.33390926970394,3.7662516487738498,0.963430793888224,B,545.7892999984324,Correct,sub_005_day_22_data.csv,1,340,,Dual-Task at home,2.0,7.0,big,small,False,Size,left,left,554.7576999997545,Correct,1.0,0.9529411764705882,
5,22,145,A,67.66511107906439,85.8287452526153,3.3832555539532194,1.3481947777622303,A,478.2171000006201,Correct,sub_005_day_22_data.csv,1,340,,Dual-Task at home,7.0,3.0,small,big,False,Value,left,left,905.4252999994789,Correct,1.0,0.9529411764705882,
5,22,146,A,11.909400576763549,35.343663123018075,0.5954700288381773,0.5551769620911303,A,493.8148000001093,Correct,sub_005_day_22_data.csv,1,340,,Dual-Task at home,8.0,7.0,small,big,False,Value,left,left,790.1232000003802,Correct,1.0,0.9529411764705882,
5,22,147,B,54.18001227923476,22.179705061242466,2.709000613961738,0.3483979923959384,B,518.2233999985328,Correct,sub_005_day_22_data.csv,1,340,,Dual-Task at home,4.0,5.0,big,small,False,Value,right,right,874.1072000011627,Correct,1.0,0.9529411764705882,
5,22,148,A,48.22077862530026,77.55454721929507,2.411038931265013,1.2182239789831006,A,497.1891000022879,Correct,sub_005_day_22_data.csv,1,340,,Dual-Task at home,3.0,7.0,big,small,False,Value,right,right,596.6809999990801,Correct,1.0,0.9529411764705882,
5,22,149,A,32.96337261581126,49.94986593738039,1.648168630790563,0.7846106593833464,A,484.65629999918747,Correct,sub_005_day_22_data.csv,1,340,,Dual-Task at home,6.0,2.0,small,big,False,Size,right,right,736.1488999995345,Correct,1.0,0.9529411764705882,
5,22,150,A,23.30172208328679,47.002498334784086,1.1650861041643394,0.7383135173446208,A,473.81139999924926,Correct,sub_005_day_22_data.csv,1,340,,Dual-Task at home,7.0,2.0,small,big,False,Size,right,right,720.2897999995912,Correct,1.0,0.9529411764705882,
5,22,151,A,36.71342401511136,52.81012328837941,1.835671200755568,0.8295394767897201,B,635.7489000001806,Incorrect,sub_005_day_22_data.csv,0,340,,Dual-Task at home,5.0,7.0,big,small,False,Value,right,right,641.2224999985483,Correct,1.0,0.9529411764705882,
5,22,152,A,61.35128126860403,81.56936520510882,3.0675640634302015,1.281288592431764,A,510.00630000271485,Correct,sub_005_day_22_data.csv,1,340,,Dual-Task at home,3.0,6.0,big,small,False,Value,right,right,1033.1605999999738,Correct,1.0,0.9529411764705882,
5,22,153,A,63.516731572964034,85.37944783416582,3.1758365786482017,1.3411372304168416,A,474.0296999989369,Correct,sub_005_day_22_data.csv,1,340,,Dual-Task at home,5.0,8.0,big,small,False,Size,left,left,1043.5139000001072,Correct,1.0,0.9529411764705882,
5,22,154,B,45.054563219198435,27.39301535703901,2.2527281609599217,0.4302884790267307,B,536.8734000003315,Correct,sub_005_day_22_data.csv,1,340,,Dual-Task at home,5.0,7.0,big,small,False,Size,left,left,424.2823999993562,Correct,1.0,0.9529411764705882,
5,22,155,B,39.13439003138478,20.898880126007203,1.9567195015692391,0.3282788413605897,B,582.4224999996659,Correct,sub_005_day_22_data.csv,1,340,,Dual-Task at home,2.0,8.0,big,small,False,Value,right,right,409.09199999805423,Correct,1.0,0.9529411764705882,
5,22,156,A,64.51132862645096,85.3807311598374,3.225566431322548,1.341157388849351,A,468.1276000010257,Correct,sub_005_day_22_data.csv,1,340,,Dual-Task at home,8.0,4.0,small,big,False,Size,right,right,376.82450000284007,Correct,1.0,0.9529411764705882,
5,22,157,A,44.57621901490502,64.05968786380984,2.2288109507452507,1.0062472239210012,A,480.3412000001117,Correct,sub_005_day_22_data.csv,1,340,,Dual-Task at home,5.0,6.0,big,small,False,Value,right,right,809.0374999992491,Correct,1.0,0.9529411764705882,
5,22,158,A,19.533987508031004,35.85154524451697,0.9766993754015502,0.563154755800083,A,504.7320000012405,Correct,sub_005_day_22_data.csv,1,340,,Dual-Task at home,5.0,6.0,small,big,True,Size,right,right,347.49139999985346,Correct,1.0,0.9529411764705882,
5,22,159,B,69.37077066193552,54.39062832811687,3.468538533096776,0.8543659918987242,B,510.505700000067,Correct,sub_005_day_22_data.csv,1,340,,Dual-Task at home,7.0,6.0,big,small,True,Size,left,left,270.6161999994947,Correct,1.0,0.9529411764705882,
5,22,160,A,54.00395403900443,83.42197764321548,2.7001977019502217,1.3103893605592885,A,410.6700000011187,Correct,sub_005_day_22_data.csv,1,340,,Dual-Task at home,2.0,6.0,big,small,False,Size,left,left,744.397200000094,Correct,1.0,0.9529411764705882,
5,22,161,A,13.92871920165872,34.81899992084733,0.696435960082936,0.5469355717833879,A,433.1748000004154,Correct,sub_005_day_22_data.csv,1,340,,Dual-Task at home,6.0,8.0,big,small,False,Size,left,left,485.56420000022626,Correct,1.0,0.9529411764705882,
5,22,162,A,21.20423751352441,53.21921210054447,1.0602118756762209,0.8359654288245376,A,387.2120999985782,Correct,sub_005_day_22_data.csv,1,340,,Dual-Task at home,8.0,2.0,small,big,False,Size,right,right,630.7381000005989,Correct,1.0,0.9529411764705882,
5,22,163,A,60.48222728586926,80.6869385837499,3.024111364293463,1.2674274674767978,A,468.9016999982414,Correct,sub_005_day_22_data.csv,1,340,,Dual-Task at home,8.0,5.0,small,big,False,Size,right,right,563.153399998555,Correct,1.0,0.9529411764705882,
5,22,164,A,49.951373043907275,63.63286945564327,2.4975686521953637,0.9995427760434362,B,519.9003999987326,Incorrect,sub_005_day_22_data.csv,0,340,,Dual-Task at home,6.0,8.0,small,big,True,Size,right,right,406.0332000008202,Correct,1.0,0.9529411764705882,
5,22,165,A,47.444990640541064,73.16429263679566,2.372249532027053,1.1492620212642553,A,536.2543000010191,Correct,sub_005_day_22_data.csv,1,340,,Dual-Task at home,6.0,7.0,big,small,False,Size,left,left,468.0908000009367,Correct,1.0,0.9529411764705882,
5,22,166,A,32.26472758424576,53.96138528458777,1.613236379212288,0.8476234579379465,A,498.4820999998192,Correct,sub_005_day_22_data.csv,1,340,,Dual-Task at home,5.0,4.0,small,big,False,Value,left,left,987.6613000014912,Correct,1.0,0.9529411764705882,
5,22,167,B,36.82119965751925,18.985151055940843,1.8410599828759624,0.2982180554231812,B,567.2769999982847,Correct,sub_005_day_22_data.csv,1,340,,Dual-Task at home,6.0,5.0,small,big,False,Value,left,left,641.2122000001546,Correct,1.0,0.9529411764705882,
5,22,168,A,50.96478467649318,76.35823935563768,2.5482392338246593,1.199432419003612,A,435.9087000011641,Correct,sub_005_day_22_data.csv,1,340,,Dual-Task at home,2.0,4.0,big,small,False,Value,right,right,545.1981999976852,Correct,1.0,0.9529411764705882,
5,22,169,B,75.75607733338731,48.24828938845909,3.787803866669366,0.7578823574552874,B,439.0601999984938,Correct,sub_005_day_22_data.csv,1,340,,Dual-Task at home,6.0,8.0,small,big,True,Value,right,right,370.42619999920134,Correct,1.0,0.9529411764705882,
5,22,170,A,16.220995080305162,32.353767881619646,0.811049754015258,0.5082117974642284,A,427.8829000031692,Correct,sub_005_day_22_data.csv,1,340,,Dual-Task at home,6.0,3.0,small,big,False,Size,right,right,674.852700001793,Correct,1.0,0.9529411764705882,
5,22,171,B,49.27843362370591,35.219218110316746,2.4639216811852953,0.5532221844027384,B,394.81979999982286,Correct,sub_005_day_22_data.csv,1,340,,Dual-Task at home,6.0,8.0,big,small,False,Value,right,right,695.824200000061,Correct,1.0,0.9529411764705882,
5,22,172,A,36.500050686910114,49.965647647124904,1.825002534345506,0.7848585579003187,A,440.10960000014165,Correct,sub_005_day_22_data.csv,1,340,,Dual-Task at home,3.0,7.0,big,small,False,Size,left,left,669.788699997298,Correct,1.0,0.9529411764705882,
5,22,173,A,69.00856713118412,85.00726709394658,3.450428356559206,1.3352910290204398,A,431.0921000032977,Correct,sub_005_day_22_data.csv,1,340,,Dual-Task at home,3.0,4.0,big,small,False,Value,right,right,719.6805999992648,Correct,1.0,0.9529411764705882,
5,22,174,A,51.057081472115115,75.53915409098033,2.5528540736057557,1.186566257753056,A,453.45090000046184,Correct,sub_005_day_22_data.csv,1,340,,Dual-Task at home,3.0,4.0,big,small,False,Size,left,left,461.4051999997173,Correct,1.0,0.9529411764705882,
5,22,175,A,47.847524697344184,55.748061277898024,2.392376234867209,0.8756884988125903,B,421.2646999985736,Incorrect,sub_005_day_22_data.csv,0,340,,Dual-Task at home,2.0,4.0,big,small,False,Size,left,left,480.43500000130734,Correct,1.0,0.9529411764705882,
5,22,176,B,50.60027987452307,26.397727902911953,2.530013993726153,0.4146545402562524,B,451.41630000216537,Correct,sub_005_day_22_data.csv,1,340,,Dual-Task at home,3.0,8.0,big,small,False,Size,left,left,427.6156000014453,Correct,1.0,0.9529411764705882,
5,22,177,A,50.704606490468926,59.0462218029653,2.535230324523446,0.9274958831921464,A,472.7381999982754,Correct,sub_005_day_22_data.csv,1,340,,Dual-Task at home,7.0,2.0,small,big,False,Value,left,left,675.350299999991,Correct,1.0,0.9529411764705882,
5,22,178,A,66.22836128920635,82.61004298772696,3.3114180644603177,1.2976355208149002,A,449.6550000003481,Correct,sub_005_day_22_data.csv,1,340,,Dual-Task at home,7.0,2.0,small,big,False,Size,right,right,621.3205999993079,Correct,1.0,0.9529411764705882,
5,22,179,A,57.37609888776535,75.98999590426578,2.8688049443882675,1.1936480643957994,A,450.88399999804096,Correct,sub_005_day_22_data.csv,1,340,,Dual-Task at home,2.0,3.0,small,big,True,Size,right,right,735.2276000019629,Correct,1.0,0.9529411764705882,
5,22,180,A,32.6476967678743,62.0182015939734,1.632384838393715,0.9741796325823882,A,453.12660000126925,Correct,sub_005_day_22_data.csv,1,340,,Dual-Task at home,2.0,5.0,small,big,True,Value,right,right,303.2448000012664,Correct,1.0,0.9529411764705882,
5,22,181,A,21.70668901287022,45.48951201536364,1.085334450643511,0.7145475838142551,A,436.44620000122814,Correct,sub_005_day_22_data.csv,1,340,,Dual-Task at home,2.0,8.0,big,small,False,Size,left,left,795.2603000012459,Correct,1.0,0.9529411764705882,
5,22,182,B,72.38594039687783,53.52463644168856,3.619297019843891,0.8407630231563664,B,500.6797999994887,Correct,sub_005_day_22_data.csv,1,340,,Dual-Task at home,5.0,8.0,big,small,False,Size,left,left,538.6431000006269,Correct,1.0,0.9529411764705882,
5,22,183,A,43.53849570680763,56.94567977485633,2.1769247853403813,0.8945006461718276,A,519.984900001873,Correct,sub_005_day_22_data.csv,1,340,,Dual-Task at home,7.0,4.0,small,big,False,Value,left,left,884.5508000013069,Correct,1.0,0.9529411764705882,
5,22,184,B,64.22772588016663,46.15055382480999,3.2113862940083315,0.7249312042756169,B,448.8197999999102,Correct,sub_005_day_22_data.csv,1,340,,Dual-Task at home,4.0,7.0,big,small,False,Value,right,right,803.2972000000882,Correct,1.0,0.9529411764705882,
5,22,185,B,50.415358064685975,20.847977097967537,2.5207679032342987,0.3274792584659153,B,481.673199999932,Correct,sub_005_day_22_data.csv,1,340,,Dual-Task at home,5.0,4.0,small,big,False,Value,left,left,626.7182999981742,Correct,1.0,0.9529411764705882,
5,22,186,B,62.61925982498828,36.81974723830705,3.1309629912494144,0.5783632371544926,B,501.6020999973989,Correct,sub_005_day_22_data.csv,1,340,,Dual-Task at home,6.0,3.0,big,small,True,Size,left,left,275.6044000016118,Correct,1.0,0.9529411764705882,
5,22,187,A,50.207923684377064,62.95900087052291,2.5103961842188536,0.9889576730609408,A,399.6064999992086,Correct,sub_005_day_22_data.csv,1,340,,Dual-Task at home,2.0,8.0,big,small,False,Value,right,right,475.5707000003895,Correct,1.0,0.9529411764705882,
5,22,188,A,51.257234188787685,60.259190992370826,2.5628617094393844,0.946549158664482,A,409.0209999994841,Correct,sub_005_day_22_data.csv,1,340,,Dual-Task at home,2.0,4.0,big,small,False,Size,left,left,544.2579999980808,Correct,1.0,0.9529411764705882,
5,22,189,B,69.42256462615546,44.33853351508189,3.471128231307773,0.6964680558096304,B,518.7984999975015,Correct,sub_005_day_22_data.csv,1,340,,Dual-Task at home,6.0,3.0,small,big,False,Size,right,right,664.4252000005508,Correct,1.0,0.9529411764705882,
5,22,190,B,78.21587145767177,59.17421708318108,3.910793572883589,0.9295064283522466,B,433.981500002119,Correct,sub_005_day_22_data.csv,1,340,,Dual-Task at home,3.0,4.0,big,small,False,Size,left,left,650.0470999999379,Correct,1.0,0.9529411764705882,
5,22,191,B,42.71238946457077,14.919078137405094,2.1356194732285387,0.2343483313740196,B,565.8366000025126,Correct,sub_005_day_22_data.csv,1,340,,Dual-Task at home,8.0,5.0,small,big,False,Size,right,right,464.0222000016365,Correct,1.0,0.9529411764705882,
5,22,192,A,27.885254640152148,58.39650443991289,1.3942627320076073,0.9172901467187704,A,393.8479999997071,Correct,sub_005_day_22_data.csv,1,340,,Dual-Task at home,2.0,7.0,big,small,False,Size,left,right,737.8164000001561,Incorrect,0.0,0.9529411764705882,
5,22,193,B,71.21789796546248,57.02152375592598,3.560894898273125,0.8956920006405646,B,477.05449999921257,Correct,sub_005_day_22_data.csv,1,340,,Dual-Task at home,3.0,5.0,big,small,False,Value,right,right,783.9243000016722,Correct,1.0,0.9529411764705882,
5,22,194,A,16.462332911556047,38.25680498213052,0.8231166455778023,0.6009364874083931,A,375.663099999656,Correct,sub_005_day_22_data.csv,1,340,,Dual-Task at home,8.0,4.0,small,big,False,Size,right,left,905.5015000012644,Incorrect,0.0,0.9529411764705882,
5,22,195,B,39.15577382768588,19.183016908640457,1.957788691384294,0.3013261249693682,A,958.2889000012074,Incorrect,sub_005_day_22_data.csv,0,340,,Dual-Task at home,6.0,2.0,small,big,False,Size,right,right,771.6514999992796,Correct,1.0,0.9529411764705882,
5,22,196,A,62.67287878063171,88.64202778685868,3.1336439390315856,1.3923857164724878,A,552.054899999348,Correct,sub_005_day_22_data.csv,1,340,,Dual-Task at home,7.0,6.0,small,big,False,Size,right,right,695.2104999982112,Correct,1.0,0.9529411764705882,
5,22,197,B,60.08585781336293,46.05963640647792,3.0042928906681463,0.72350307680804,B,474.14109999954235,Correct,sub_005_day_22_data.csv,1,340,,Dual-Task at home,3.0,5.0,big,small,False,Value,right,left,803.5256000002846,Incorrect,0.0,0.9529411764705882,
5,22,198,A,13.730839434064205,34.680435076884166,0.6865419717032103,0.5447590003041853,A,433.1175000006624,Correct,sub_005_day_22_data.csv,1,340,,Dual-Task at home,2.0,4.0,big,small,False,Value,right,right,602.7351000011549,Correct,1.0,0.9529411764705882,
5,22,199,B,62.348551726693486,46.93485531417158,3.1174275863346743,0.7372509832615064,B,495.4550999973435,Correct,sub_005_day_22_data.csv,1,340,,Dual-Task at home,7.0,2.0,big,small,True,Value,left,left,334.12609999868437,Correct,1.0,0.9529411764705882,
5,22,200,A,30.838485420461627,43.096145934288515,1.5419242710230814,0.6769526773259723,A,436.4511999992829,Correct,sub_005_day_22_data.csv,1,340,,Dual-Task at home,8.0,4.0,small,big,False,Value,left,left,467.0883999970102,Correct,1.0,0.9529411764705882,
5,22,201,B,88.47231712158708,62.209233975463945,4.423615856079354,0.9771803622138304,B,437.58579999848735,Correct,sub_005_day_22_data.csv,1,340,,Dual-Task at home,2.0,6.0,big,small,False,Size,left,left,527.5299000022642,Correct,1.0,0.9529411764705882,
5,22,202,B,62.07046222858031,49.187746780750665,3.1035231114290154,0.7726393196652064,B,471.2500999994518,Correct,sub_005_day_22_data.csv,1,340,,Dual-Task at home,8.0,4.0,small,big,False,Size,right,right,538.3748000022024,Correct,1.0,0.9529411764705882,
5,22,203,B,51.53062736795752,39.548579561197585,2.5765313683978763,0.6212276350468489,A,572.9551000003994,Incorrect,sub_005_day_22_data.csv,0,340,,Dual-Task at home,7.0,3.0,small,big,False,Value,left,left,988.2572999995318,Correct,1.0,0.9529411764705882,
5,22,204,B,87.35069159363105,60.21674639464763,4.367534579681553,0.9458824404825232,B,486.9421000003058,Correct,sub_005_day_22_data.csv,1,340,,Dual-Task at home,5.0,3.0,small,big,False,Value,left,left,898.4447999973781,Correct,1.0,0.9529411764705882,
5,22,205,B,47.73357838525155,22.424534187650487,2.3866789192625775,0.3522437593204796,B,517.0881000012741,Correct,sub_005_day_22_data.csv,1,340,,Dual-Task at home,2.0,5.0,big,small,False,Value,right,right,562.7180000010412,Correct,1.0,0.9529411764705882,
5,22,206,B,83.16821798498074,64.48382415815803,4.158410899249037,1.0129095412532263,B,487.7353999982006,Correct,sub_005_day_22_data.csv,1,340,,Dual-Task at home,7.0,5.0,small,big,False,Value,left,left,810.5404999987513,Correct,1.0,0.9529411764705882,
5,22,207,B,52.89393149467861,23.09825462186664,2.64469657473393,0.3628265351540136,B,452.8202000001329,Correct,sub_005_day_22_data.csv,1,340,,Dual-Task at home,6.0,4.0,small,big,False,Value,left,left,414.8022000008495,Correct,1.0,0.9529411764705882,
5,22,208,A,60.67106191035753,82.83112436443835,3.033553095517876,1.3011082589595104,A,528.4096999967005,Correct,sub_005_day_22_data.csv,1,340,,Dual-Task at home,5.0,3.0,big,small,True,Value,left,left,434.4505000008212,Correct,1.0,0.9529411764705882,
5,22,209,A,29.118165275574256,39.72590527477459,1.4559082637787129,0.6240130608421793,A,478.9665000025707,Correct,sub_005_day_22_data.csv,1,340,,Dual-Task at home,5.0,8.0,big,small,False,Value,right,right,844.808900001226,Correct,1.0,0.9529411764705882,
5,22,210,A,13.443435193019234,39.659563475210646,0.6721717596509618,0.6229709662914993,A,567.9313000000548,Correct,sub_005_day_22_data.csv,1,340,,Dual-Task at home,8.0,3.0,small,big,False,Value,left,left,796.6412999994645,Correct,1.0,0.9529411764705882,
5,22,211,B,70.17933988828061,45.31987008871003,3.5089669944140303,0.7118828546616762,B,404.42089999851305,Correct,sub_005_day_22_data.csv,1,340,,Dual-Task at home,2.0,5.0,big,small,False,Value,right,right,512.6217999968503,Correct,1.0,0.9529411764705882,
5,22,212,A,29.48868270879835,51.02540839455556,1.4744341354399175,0.8015052407937734,A,467.2975999965274,Correct,sub_005_day_22_data.csv,1,340,,Dual-Task at home,7.0,4.0,small,big,False,Value,left,left,1401.3230000018666,Correct,1.0,0.9529411764705882,
5,22,213,A,30.426676298814883,51.17538903936288,1.521333814940744,0.8038611312533104,A,563.3005000017874,Correct,sub_005_day_22_data.csv,1,340,,Dual-Task at home,6.0,8.0,big,small,False,Value,right,right,688.4556000004523,Correct,1.0,0.9529411764705882,
5,22,214,B,66.75944441740376,40.392038609898535,3.3379722208701876,0.6344766588018627,B,379.1864999984682,Correct,sub_005_day_22_data.csv,1,340,,Dual-Task at home,7.0,8.0,big,small,False,Value,right,right,739.4368999994185,Correct,1.0,0.9529411764705882,
5,22,215,B,58.26230529070595,38.961638774270256,2.913115264535298,0.6120079907253333,B,446.83250000161934,Correct,sub_005_day_22_data.csv,1,340,,Dual-Task at home,3.0,7.0,big,small,False,Value,right,right,693.7369000006584,Correct,1.0,0.9529411764705882,
5,22,216,B,34.201757273352555,22.080830202833933,1.7100878636676276,0.3468448697519335,B,671.5269000014814,Correct,sub_005_day_22_data.csv,1,340,,Dual-Task at home,5.0,3.0,big,small,True,Value,left,left,280.3001999964181,Correct,1.0,0.9529411764705882,
5,22,217,A,61.31388916765117,83.54305408733367,3.0656944583825583,1.312291224896111,A,489.5394999985001,Correct,sub_005_day_22_data.csv,1,340,,Dual-Task at home,2.0,4.0,big,small,False,Size,left,left,583.2186000006914,Correct,1.0,0.9529411764705882,
5,22,218,A,54.895894155863175,62.78036025493687,2.744794707793159,0.9861515928331516,A,515.4240000010759,Correct,sub_005_day_22_data.csv,1,340,,Dual-Task at home,2.0,7.0,big,small,False,Value,right,right,729.2861000023549,Correct,1.0,0.9529411764705882,
5,22,219,B,58.072320440921075,38.24200633515151,2.903616022046054,0.6007040308052315,B,488.2266000022355,Correct,sub_005_day_22_data.csv,1,340,,Dual-Task at home,6.0,8.0,big,small,False,Size,left,left,489.2437000016798,Correct,1.0,0.9529411764705882,
5,22,220,A,57.35068989166877,68.36899871719126,2.8675344945834387,1.0739377205160905,A,612.0496000003186,Correct,sub_005_day_22_data.csv,1,340,,Dual-Task at home,4.0,7.0,big,small,False,Size,left,left,481.1657999998715,Correct,1.0,0.9529411764705882,
5,22,221,B,47.854584265134065,25.17066739187304,2.392729213256703,0.3953799188213024,B,560.4714000000968,Correct,sub_005_day_22_data.csv,1,340,,Dual-Task at home,6.0,4.0,small,big,False,Value,left,left,785.7011000014609,Correct,1.0,0.9529411764705882,
5,22,222,B,78.54553086683389,56.08999885910239,3.9272765433416943,0.8810596417780796,B,520.6687999998394,Correct,sub_005_day_22_data.csv,1,340,,Dual-Task at home,3.0,8.0,big,small,False,Size,left,left,699.9451000010595,Correct,1.0,0.9529411764705882,
5,22,223,B,40.45278817798875,17.493848640685705,2.0226394088994373,0.27479273186295,B,608.7662999998429,Correct,sub_005_day_22_data.csv,1,340,,Dual-Task at home,4.0,2.0,big,small,True,Size,left,left,275.8618000007118,Correct,1.0,0.9529411764705882,
5,22,224,B,57.074533766869536,37.358413712975846,2.853726688343477,0.5868245903522654,B,446.3457000019844,Correct,sub_005_day_22_data.csv,1,340,,Dual-Task at home,3.0,4.0,small,big,True,Value,right,right,245.2068999991752,Correct,1.0,0.9529411764705882,
5,22,225,A,37.75650082741953,66.2514710431933,1.8878250413709765,1.040675673594065,A,409.3016000006173,Correct,sub_005_day_22_data.csv,1,340,,Dual-Task at home,5.0,4.0,small,big,False,Size,right,right,387.9139000018767,Correct,1.0,0.9529411764705882,
5,22,226,B,69.5576759755179,44.62469882911704,3.4778837987758946,0.7009631300510556,B,467.2340000033728,Correct,sub_005_day_22_data.csv,1,340,,Dual-Task at home,2.0,3.0,big,small,False,Value,right,right,512.8366999997525,Correct,1.0,0.9529411764705882,
5,22,227,A,33.77185014369269,56.66302420825277,1.6885925071846344,0.8900607029141374,A,390.8179999998538,Correct,sub_005_day_22_data.csv,1,340,,Dual-Task at home,8.0,2.0,small,big,False,Size,right,right,848.4700000008161,Correct,1.0,0.9529411764705882,
5,22,228,B,35.73420349009942,19.914356326187093,1.786710174504971,0.3128139776765939,B,543.424600000435,Correct,sub_005_day_22_data.csv,1,340,,Dual-Task at home,3.0,5.0,big,small,False,Size,left,left,598.4266000014031,Correct,1.0,0.9529411764705882,
5,22,229,A,20.69777366790731,33.51965218891908,1.0348886833953654,0.5265254653379662,A,431.2596999989182,Correct,sub_005_day_22_data.csv,1,340,,Dual-Task at home,7.0,2.0,small,big,False,Size,right,right,437.3105000013311,Correct,1.0,0.9529411764705882,
5,22,230,B,50.63537562035931,27.53602105532143,2.5317687810179654,0.4325348072824583,B,397.6890000012645,Correct,sub_005_day_22_data.csv,1,340,,Dual-Task at home,4.0,8.0,big,small,False,Size,left,left,888.553700002376,Correct,1.0,0.9529411764705882,
5,22,231,B,71.06752042102484,48.53039413826531,3.5533760210512417,0.7623136485029571,B,463.4913000008965,Correct,sub_005_day_22_data.csv,1,340,,Dual-Task at home,5.0,6.0,big,small,False,Size,left,left,585.7244999970135,Correct,1.0,0.9529411764705882,
5,22,232,A,39.22293549992718,49.34328544109528,1.9611467749963591,0.7750825152286456,A,439.6235999993223,Correct,sub_005_day_22_data.csv,1,340,,Dual-Task at home,2.0,4.0,big,small,False,Size,left,left,394.9577000021236,Correct,1.0,0.9529411764705882,
5,22,233,A,57.06706312686567,80.06317005686074,2.8533531563432835,1.2576293343687202,A,406.7051999991236,Correct,sub_005_day_22_data.csv,1,340,,Dual-Task at home,5.0,8.0,big,small,False,Size,left,left,600.8743000020331,Correct,1.0,0.9529411764705882,
5,22,234,A,35.627016316196915,53.14875846982703,1.7813508158098457,0.8348587457811345,A,403.36540000134846,Correct,sub_005_day_22_data.csv,1,340,,Dual-Task at home,6.0,3.0,small,big,False,Value,left,left,669.5395999995526,Correct,1.0,0.9529411764705882,
5,22,235,B,47.65738877865861,22.39641552422348,2.3828694389329304,0.3518020723882243,B,505.37510000140173,Correct,sub_005_day_22_data.csv,1,340,,Dual-Task at home,8.0,2.0,small,big,False,Size,right,right,537.4221000020043,Correct,1.0,0.9529411764705882,
5,22,236,A,17.577861105819856,37.78481093511733,0.8788930552909929,0.5935224222552193,A,361.2546999975166,Correct,sub_005_day_22_data.csv,1,340,,Dual-Task at home,6.0,2.0,small,big,False,Value,left,left,785.3093999983685,Correct,1.0,0.9529411764705882,
5,22,237,B,34.964936595821484,12.040072179832958,1.7482468297910745,0.1891250115442703,B,526.1318999982905,Correct,sub_005_day_22_data.csv,1,340,,Dual-Task at home,5.0,2.0,big,small,True,Size,left,left,279.8201000005065,Correct,1.0,0.9529411764705882,
5,22,238,B,86.70512545207464,63.2962937020076,4.335256272603732,0.9942558564684448,B,504.7936000009941,Correct,sub_005_day_22_data.csv,1,340,,Dual-Task at home,6.0,5.0,small,big,False,Size,right,right,404.2258999979822,Correct,1.0,0.9529411764705882,
5,22,239,B,45.89480893919303,35.947249864965094,2.294740446959651,0.5646580804626551,B,438.5018000029959,Correct,sub_005_day_22_data.csv,1,340,,Dual-Task at home,4.0,5.0,small,big,True,Size,right,right,302.583799999411,Correct,1.0,0.9529411764705882,
5,22,240,B,73.42302222357729,62.45181066088786,3.671151111178864,0.98099074787813,B,472.76160000183154,Correct,sub_005_day_22_data.csv,1,340,,Dual-Task at home,4.0,7.0,small,big,True,Size,right,right,263.24120000208495,Correct,1.0,0.9529411764705882,
5,22,241,B,52.11953324613275,25.216030237675064,2.605976662306637,0.3960924767368903,B,495.176000000356,Correct,sub_005_day_22_data.csv,1,340,,Dual-Task at home,2.0,8.0,big,small,False,Value,right,right,640.9773999985191,Correct,1.0,0.9529411764705882,
5,22,242,B,66.89953416326895,43.497542142277986,3.344976708163448,0.6832577942169648,B,430.50809999840567,Correct,sub_005_day_22_data.csv,1,340,,Dual-Task at home,7.0,2.0,big,small,True,Value,left,left,321.66009999855305,Correct,1.0,0.9529411764705882,
5,22,243,A,28.4767192074558,42.76713122639717,1.42383596037279,0.6717845263797999,A,454.7585000000254,Correct,sub_005_day_22_data.csv,1,340,,Dual-Task at home,7.0,3.0,small,big,False,Value,left,left,538.0256999997073,Correct,1.0,0.9529411764705882,
5,22,244,B,79.05590081257532,56.752114436069256,3.9527950406287657,0.891460128940212,B,405.96870000081253,Correct,sub_005_day_22_data.csv,1,340,,Dual-Task at home,6.0,3.0,small,big,False,Size,right,right,451.3748999997915,Correct,1.0,0.9529411764705882,
5,22,245,A,45.58755268464917,63.16464739791408,2.2793776342324583,0.9921879611593823,A,468.09160000339034,Correct,sub_005_day_22_data.csv,1,340,,Dual-Task at home,2.0,8.0,big,small,False,Value,right,left,730.8064999997441,Incorrect,0.0,0.9529411764705882,
5,22,246,B,31.29093827379037,10.616513108939753,1.5645469136895185,0.1667637979489243,B,506.341500000417,Correct,sub_005_day_22_data.csv,1,340,,Dual-Task at home,4.0,5.0,big,small,False,Value,right,right,718.786800000089,Correct,1.0,0.9529411764705882,
5,22,247,B,47.35450652137744,20.306986046558112,2.367725326068872,0.318981390902087,B,421.07820000092033,Correct,sub_005_day_22_data.csv,1,340,,Dual-Task at home,7.0,5.0,big,small,True,Size,left,left,315.17369999710354,Correct,1.0,0.9529411764705882,
5,22,248,B,71.80221821468234,40.40934129513277,3.590110910734117,0.6347484487459589,B,393.99279999997816,Correct,sub_005_day_22_data.csv,1,340,,Dual-Task at home,2.0,7.0,big,small,False,Size,left,left,547.0272999991721,Correct,1.0,0.9529411764705882,
5,22,249,B,82.35518266570213,57.803285305442586,4.117759133285107,0.9079718823446664,B,452.4974999985716,Correct,sub_005_day_22_data.csv,1,340,,Dual-Task at home,5.0,4.0,small,big,False,Size,right,right,559.0591000000131,Correct,1.0,0.9529411764705882,
5,22,250,A,40.05425113775601,59.05082671641732,2.0027125568878006,0.9275682170035026,A,498.55659999957425,Correct,sub_005_day_22_data.csv,1,340,,Dual-Task at home,8.0,6.0,small,big,False,Value,left,left,1017.8874000012,Correct,1.0,0.9529411764705882,
5,22,251,A,30.3456710470118,40.7371693816834,1.51728355235059,0.6398979602876982,B,563.0719000000681,Incorrect,sub_005_day_22_data.csv,0,340,,Dual-Task at home,4.0,5.0,big,small,False,Size,left,left,564.330000001064,Correct,1.0,0.9529411764705882,
5,22,252,A,38.56637559857896,52.01944102579479,1.928318779928948,0.8171194688524221,A,431.68990000049234,Correct,sub_005_day_22_data.csv,1,340,,Dual-Task at home,2.0,3.0,big,small,False,Value,right,right,640.4446000015014,Correct,1.0,0.9529411764705882,
5,22,253,B,87.39417990139542,65.69554851182751,4.369708995069771,1.031943262891546,B,415.5095999994955,Correct,sub_005_day_22_data.csv,1,340,,Dual-Task at home,8.0,3.0,big,small,True,Value,left,left,340.76830000049085,Correct,1.0,0.9529411764705882,
5,22,254,B,51.70562550374913,30.392631296121856,2.585281275187457,0.4774063360157983,B,429.23789999986184,Correct,sub_005_day_22_data.csv,1,340,,Dual-Task at home,4.0,3.0,small,big,False,Value,left,left,676.7041999992216,Correct,1.0,0.9529411764705882,
5,22,255,B,65.99267805910067,38.392731294636086,3.2996339029550334,0.6030716129323784,B,389.7157999999763,Correct,sub_005_day_22_data.csv,1,340,,Dual-Task at home,3.0,6.0,big,small,False,Size,left,left,435.6927000008,Correct,1.0,0.9529411764705882,
5,22,256,B,78.08601960662634,65.56337228559921,3.9043009803313167,1.0298670435850557,B,396.7628999998851,Correct,sub_005_day_22_data.csv,1,340,,Dual-Task at home,2.0,6.0,small,big,True,Value,right,right,302.9977999976836,Correct,1.0,0.9529411764705882,
5,22,257,A,19.67098842514618,44.68578867077852,0.983549421257309,0.701922727039919,A,411.72240000014426,Correct,sub_005_day_22_data.csv,1,340,,Dual-Task at home,4.0,5.0,big,small,False,Value,right,right,559.620799998811,Correct,1.0,0.9529411764705882,
5,22,258,A,19.580801262086013,45.19250782406662,0.9790400631043006,0.7098822528869346,A,415.5885000000126,Correct,sub_005_day_22_data.csv,1,340,,Dual-Task at home,6.0,2.0,big,small,True,Value,left,left,251.4621000009356,Correct,1.0,0.9529411764705882,
5,22,259,B,73.37656882982654,46.460576864115694,3.6688284414913266,0.7298010347892487,B,432.9186000031768,Correct,sub_005_day_22_data.csv,1,340,,Dual-Task at home,3.0,5.0,big,small,False,Value,right,right,535.6274000005214,Correct,1.0,0.9529411764705882,
5,22,260,A,11.28750007653655,36.29185826494847,0.5643750038268274,0.5700711765514207,A,419.3591000002925,Correct,sub_005_day_22_data.csv,1,340,,Dual-Task at home,2.0,8.0,big,small,False,Value,right,right,572.8215999988606,Correct,1.0,0.9529411764705882,
5,22,261,B,66.74209015618612,36.42349371371761,3.3371045078093062,0.5721389013454463,B,413.5461999976542,Correct,sub_005_day_22_data.csv,1,340,,Dual-Task at home,8.0,7.0,small,big,False,Size,right,right,361.0618999991857,Correct,1.0,0.9529411764705882,
5,22,262,A,64.54911966845955,81.13802864326861,3.2274559834229772,1.2745131735622546,A,461.0699000004388,Correct,sub_005_day_22_data.csv,1,340,,Dual-Task at home,5.0,4.0,small,big,False,Size,right,right,878.6252999998396,Correct,1.0,0.9529411764705882,
5,22,263,B,74.558780175691,41.86391485671151,3.72793900878455,0.6575968368217674,B,385.8063999978185,Correct,sub_005_day_22_data.csv,1,340,,Dual-Task at home,7.0,5.0,small,big,False,Size,right,right,667.386400000396,Correct,1.0,0.9529411764705882,
5,22,264,A,24.76803266057254,51.901504656989914,1.2384016330286272,0.8152669287032798,A,413.3545999975467,Correct,sub_005_day_22_data.csv,1,340,,Dual-Task at home,7.0,4.0,small,big,False,Value,left,left,460.3452999981528,Correct,1.0,0.9529411764705882,
5,22,265,B,69.8501390348298,50.24309747221003,3.4925069517414897,0.7892167295614546,B,378.77210000078776,Correct,sub_005_day_22_data.csv,1,340,,Dual-Task at home,6.0,3.0,big,small,True,Size,left,left,294.26170000078855,Correct,1.0,0.9529411764705882,
5,22,266,B,52.69763584830171,42.45330691143058,2.634881792415085,0.6668549855677155,B,386.81540000106907,Correct,sub_005_day_22_data.csv,1,340,,Dual-Task at home,5.0,3.0,small,big,False,Size,right,right,787.1099999974831,Correct,1.0,0.9529411764705882,
5,22,267,B,87.77916778593263,65.78675571079367,4.388958389296631,1.0333759422226787,B,490.454700000555,Correct,sub_005_day_22_data.csv,1,340,,Dual-Task at home,7.0,8.0,big,small,False,Size,left,left,832.863499999803,Correct,1.0,0.9529411764705882,
5,22,268,B,39.20529627487848,23.296569627295675,1.960264813743924,0.3659416599747759,B,493.013899998914,Correct,sub_005_day_22_data.csv,1,340,,Dual-Task at home,7.0,2.0,small,big,False,Value,left,left,620.7386999994924,Correct,1.0,0.9529411764705882,
5,22,269,B,58.73708193438011,46.64892823824704,2.936854096719005,0.7327596512555716,B,356.1315000006289,Correct,sub_005_day_22_data.csv,1,340,,Dual-Task at home,4.0,2.0,small,big,False,Size,right,right,377.3514999993494,Correct,1.0,0.9529411764705882,
5,22,270,A,54.58091777173898,81.66489084251376,2.729045888586949,1.2827891056352678,A,561.9852000018,Correct,sub_005_day_22_data.csv,1,340,,Dual-Task at home,6.0,7.0,big,small,False,Size,left,right,547.0531999999366,Incorrect,0.0,0.9529411764705882,
5,22,271,B,70.53107414342122,59.566371289190215,3.526553707171061,0.9356663722156096,B,467.83589999904507,Correct,sub_005_day_22_data.csv,1,340,,Dual-Task at home,8.0,6.0,big,small,True,Value,left,left,277.95610000248416,Correct,1.0,0.9529411764705882,
5,22,272,A,57.41586610880695,82.51951061322552,2.8707933054403476,1.296213441601671,A,385.5624999996507,Correct,sub_005_day_22_data.csv,1,340,,Dual-Task at home,2.0,6.0,big,small,False,Value,right,right,415.21769999963,Correct,1.0,0.9529411764705882,
5,22,273,A,42.21171549642047,50.2504672393224,2.1105857748210237,0.7893324935925492,A,545.1362999992853,Correct,sub_005_day_22_data.csv,1,340,,Dual-Task at home,3.0,6.0,small,big,True,Size,right,right,284.3022999986715,Correct,1.0,0.9529411764705882,
5,22,274,B,48.99194870613094,21.52914120301744,2.449597435306547,0.3381789592074845,B,488.2027000021481,Correct,sub_005_day_22_data.csv,1,340,,Dual-Task at home,8.0,7.0,small,big,False,Size,right,right,418.6370999996143,Correct,1.0,0.9529411764705882,
5,22,275,B,34.06041124823097,19.292429091974,1.7030205624115484,0.3030447675262376,B,469.141599998693,Correct,sub_005_day_22_data.csv,1,340,,Dual-Task at home,4.0,8.0,big,small,False,Size,left,left,467.8596000012476,Correct,1.0,0.9529411764705882,
5,22,276,B,69.40799787361944,59.743048879695166,3.4703998936809715,0.9384416173175312,B,444.9017000006279,Correct,sub_005_day_22_data.csv,1,340,,Dual-Task at home,6.0,5.0,big,small,True,Value,left,left,245.39809999987483,Correct,1.0,0.9529411764705882,
5,22,277,A,45.58791115290561,56.57725315231187,2.2793955576452807,0.8887134143179646,A,561.1758000013651,Correct,sub_005_day_22_data.csv,1,340,,Dual-Task at home,5.0,4.0,small,big,False,Size,right,right,357.97290000118664,Correct,1.0,0.9529411764705882,
5,22,278,A,47.72919432400782,67.30669483430215,2.3864597162003913,1.0572510901442684,A,469.7282000015548,Correct,sub_005_day_22_data.csv,1,340,,Dual-Task at home,3.0,8.0,big,small,False,Value,right,right,417.27439999885974,Correct,1.0,0.9529411764705882,
5,22,279,B,31.50245811317809,17.968941530443107,1.5751229056589044,0.282255473524123,B,483.7934000024688,Correct,sub_005_day_22_data.csv,1,340,,Dual-Task at home,8.0,5.0,small,big,False,Value,left,left,388.33599999998114,Correct,1.0,0.9529411764705882,
5,22,280,B,82.04754217824555,68.44259821406983,4.102377108912277,1.0750938187095982,B,529.6801000004052,Correct,sub_005_day_22_data.csv,1,340,,Dual-Task at home,7.0,4.0,small,big,False,Size,right,right,395.30460000241874,Correct,1.0,0.9529411764705882,
5,22,281,B,77.5798051472589,61.22232078041025,3.8789902573629447,0.9616779659972728,B,344.72059999825433,Correct,sub_005_day_22_data.csv,1,340,,Dual-Task at home,2.0,4.0,big,small,False,Size,left,left,607.1365999996488,Correct,1.0,0.9529411764705882,
5,22,282,B,73.79767275146168,57.375607957742815,3.689883637573084,0.9012539422764644,B,433.19850000261795,Correct,sub_005_day_22_data.csv,1,340,,Dual-Task at home,7.0,2.0,small,big,False,Size,right,right,584.4474000004993,Correct,1.0,0.9529411764705882,
5,22,283,A,54.32015253818389,79.54209375345016,2.7160076269091946,1.249444286934948,A,483.32310000114376,Correct,sub_005_day_22_data.csv,1,340,,Dual-Task at home,4.0,3.0,big,small,True,Size,left,left,249.70369999937247,Correct,1.0,0.9529411764705882,
5,22,284,A,16.859147040739735,38.099370442443806,0.8429573520369869,0.5984635114418879,A,452.72639999893727,Correct,sub_005_day_22_data.csv,1,340,,Dual-Task at home,4.0,3.0,small,big,False,Value,left,left,627.4154000020644,Correct,1.0,0.9529411764705882,
5,22,285,A,40.205136917334364,66.71084767385562,2.010256845866718,1.0478915448346628,A,487.34239999976126,Correct,sub_005_day_22_data.csv,1,340,,Dual-Task at home,8.0,3.0,small,big,False,Value,left,left,441.3268999996944,Correct,1.0,0.9529411764705882,
5,22,286,B,44.84444720019679,33.42426450053665,2.242222360009839,0.5250271190326402,B,524.8758999987331,Correct,sub_005_day_22_data.csv,1,340,,Dual-Task at home,5.0,3.0,small,big,False,Size,right,right,513.9847999998892,Correct,1.0,0.9529411764705882,
5,22,287,A,20.78176877096052,41.897627013887146,1.039088438548026,0.6581263861483656,A,423.1445000004896,Correct,sub_005_day_22_data.csv,1,340,,Dual-Task at home,5.0,3.0,small,big,False,Size,right,right,428.45479999959935,Correct,1.0,0.9529411764705882,
5,22,288,A,43.67710970534234,62.679075124509346,2.183855485267117,0.9845606097248064,A,557.0638999997755,Correct,sub_005_day_22_data.csv,1,340,,Dual-Task at home,6.0,8.0,big,small,False,Size,left,left,611.0507000012149,Correct,1.0,0.9529411764705882,
5,22,289,A,13.00864715402978,38.58915971682693,0.650432357701489,0.6061571033729334,A,482.1080999972765,Correct,sub_005_day_22_data.csv,1,340,,Dual-Task at home,3.0,7.0,big,small,False,Value,right,right,676.9734000008611,Correct,1.0,0.9529411764705882,
5,22,290,B,35.89951603952634,18.789296563901143,1.794975801976317,0.2951415802563589,B,377.4425000010524,Correct,sub_005_day_22_data.csv,1,340,,Dual-Task at home,5.0,2.0,small,big,False,Value,left,left,415.49730000042473,Correct,1.0,0.9529411764705882,
5,22,291,B,48.568827269445016,32.68261969991532,2.428441363472251,0.5133773897466152,B,354.1189999996277,Correct,sub_005_day_22_data.csv,1,340,,Dual-Task at home,5.0,3.0,small,big,False,Size,right,right,398.7950999980967,Correct,1.0,0.9529411764705882,
5,22,292,A,24.361923622429465,39.07928636788853,1.2180961811214732,0.6138559948044517,A,407.9978999980085,Correct,sub_005_day_22_data.csv,1,340,,Dual-Task at home,5.0,6.0,big,small,False,Size,left,left,422.4262000025192,Correct,1.0,0.9529411764705882,
5,22,293,B,61.306544853145994,35.447581560387334,3.0653272426572995,0.5568093090881894,B,389.6491999985301,Correct,sub_005_day_22_data.csv,1,340,,Dual-Task at home,7.0,8.0,big,small,False,Value,right,right,450.8611999990535,Correct,1.0,0.9529411764705882,
5,22,294,A,45.004776020343286,67.41485351752549,2.250238801017164,1.0589500427674503,A,424.972799999523,Correct,sub_005_day_22_data.csv,1,340,,Dual-Task at home,4.0,7.0,big,small,False,Value,right,right,385.539200000494,Correct,1.0,0.9529411764705882,
5,22,295,B,49.38310308145435,21.264874500862863,2.4691551540727175,0.3340278675570985,B,577.9250999985379,Correct,sub_005_day_22_data.csv,1,340,,Dual-Task at home,8.0,4.0,small,big,False,Value,left,left,456.1258000030648,Correct,1.0,0.9529411764705882,
5,22,296,B,67.74104862225313,56.49179798494612,3.3870524311126564,0.887371087687927,A,326.113200000691,Incorrect,sub_005_day_22_data.csv,0,340,,Dual-Task at home,8.0,2.0,small,big,False,Value,left,left,462.419299998146,Correct,1.0,0.9529411764705882,
5,22,297,A,32.231434676311466,48.67012074881776,1.6115717338155733,0.7645084689690702,A,429.4219000003068,Correct,sub_005_day_22_data.csv,1,340,,Dual-Task at home,8.0,3.0,small,big,False,Size,right,right,601.2811000000511,Correct,1.0,0.9529411764705882,
5,22,298,B,65.18066835501286,37.269445654146224,3.259033417750643,0.5854270833521491,B,357.54219999944326,Correct,sub_005_day_22_data.csv,1,340,,Dual-Task at home,2.0,6.0,big,small,False,Value,right,right,451.8902999989223,Correct,1.0,0.9529411764705882,
5,22,299,B,73.72098852763139,63.86395627731994,3.6860494263815697,1.0031726793500404,B,437.81570000282954,Correct,sub_005_day_22_data.csv,1,340,,Dual-Task at home,7.0,8.0,big,small,False,Size,left,left,389.0797000021848,Correct,1.0,0.9529411764705882,
5,22,300,B,74.92020497334194,60.1535864929646,3.7460102486670968,0.944890327066879,B,398.25399999972433,Correct,sub_005_day_22_data.csv,1,340,,Dual-Task at home,3.0,5.0,small,big,True,Value,right,right,219.21709999878655,Correct,1.0,0.9529411764705882,
5,22,301,B,53.45914924876257,40.32719912833345,2.6729574624381285,0.6334581626071254,B,387.2402000015427,Correct,sub_005_day_22_data.csv,1,340,,Dual-Task at home,6.0,5.0,small,big,False,Value,left,left,398.6129000004439,Correct,1.0,0.9529411764705882,
5,22,302,B,44.88279358813794,23.031663616077807,2.244139679406897,0.3617805260811068,B,376.24710000091,Correct,sub_005_day_22_data.csv,1,340,,Dual-Task at home,4.0,5.0,big,small,False,Value,right,right,629.1095999986283,Correct,1.0,0.9529411764705882,
5,22,303,B,42.24987128264869,32.65589717216506,2.1124935641324343,0.5129576332622873,B,496.4271999997436,Correct,sub_005_day_22_data.csv,1,340,,Dual-Task at home,8.0,5.0,small,big,False,Size,right,right,522.7945000006002,Correct,1.0,0.9529411764705882,
5,22,304,A,28.53746622484229,48.81159902734967,1.4268733112421146,0.7667308045714621,A,426.80579999796464,Correct,sub_005_day_22_data.csv,1,340,,Dual-Task at home,4.0,5.0,big,small,False,Size,left,left,611.7468000011286,Correct,1.0,0.9529411764705882,
5,22,305,A,61.368176028994355,81.73925693758595,3.068408801449718,1.2839572455250428,A,439.0994999994291,Correct,sub_005_day_22_data.csv,1,340,,Dual-Task at home,4.0,3.0,small,big,False,Value,left,left,360.848199998145,Correct,1.0,0.9529411764705882,
5,22,306,B,88.90506366842789,65.36363177201132,4.445253183421395,1.0267295269344958,B,371.47660000118776,Correct,sub_005_day_22_data.csv,1,340,,Dual-Task at home,8.0,5.0,small,big,False,Size,right,right,364.28910000176984,Correct,1.0,0.9529411764705882,
5,22,307,B,41.13008390860624,32.56486799833407,2.0565041954303123,0.5115277503434383,B,545.5924000016239,Correct,sub_005_day_22_data.csv,1,340,,Dual-Task at home,8.0,4.0,small,big,False,Size,right,right,369.1928000007465,Correct,1.0,0.9529411764705882,
5,22,308,B,52.95159419741187,34.95274252254616,2.6475797098705938,0.5490363956582329,B,481.5707999987353,Correct,sub_005_day_22_data.csv,1,340,,Dual-Task at home,7.0,4.0,small,big,False,Size,right,right,593.979199999012,Correct,1.0,0.9529411764705882,
5,22,309,A,52.75850697875338,63.032189442454495,2.637925348937669,0.9901073164604758,A,444.2777000003843,Correct,sub_005_day_22_data.csv,1,340,,Dual-Task at home,6.0,5.0,big,small,True,Value,left,left,314.5581000026141,Correct,1.0,0.9529411764705882,
5,22,310,A,29.51321829718579,41.80453321856215,1.47566091485929,0.6566640722309266,A,520.6421999973827,Correct,sub_005_day_22_data.csv,1,340,,Dual-Task at home,8.0,7.0,small,big,False,Value,left,left,767.7279999988968,Correct,1.0,0.9529411764705882,
5,22,311,B,75.66327406348542,63.749916410410165,3.783163703174271,1.0013813453095397,B,498.490000001766,Correct,sub_005_day_22_data.csv,1,340,,Dual-Task at home,3.0,2.0,small,big,False,Value,left,left,688.9382000008482,Correct,1.0,0.9529411764705882,
5,22,312,B,59.60984052952555,45.1934439035109,2.9804920264762775,0.7098969567884613,B,492.057699997531,Correct,sub_005_day_22_data.csv,1,340,,Dual-Task at home,6.0,4.0,small,big,False,Value,left,left,611.1301999990246,Correct,1.0,0.9529411764705882,
5,22,313,B,82.65494230723966,56.4821507813095,4.132747115361983,0.8872195497675645,B,394.7661999991397,Correct,sub_005_day_22_data.csv,1,340,,Dual-Task at home,4.0,6.0,big,small,False,Value,right,right,920.901800000138,Correct,1.0,0.9529411764705882,
5,22,314,B,40.181037041904794,19.849348753810524,2.0090518520952396,0.3117928411175643,B,376.30360000184737,Correct,sub_005_day_22_data.csv,1,340,,Dual-Task at home,8.0,5.0,small,big,False,Size,right,right,340.2851999999257,Correct,1.0,0.9529411764705882,
5,22,315,A,56.92337852904042,65.15864518979909,2.846168926452021,1.0235096052306838,A,446.3599999980943,Correct,sub_005_day_22_data.csv,1,340,,Dual-Task at home,2.0,7.0,small,big,True,Size,right,right,333.48969999860856,Correct,1.0,0.9529411764705882,
5,22,316,B,64.76013143285788,56.20978064750936,3.2380065716428934,0.8829411697105456,B,389.63349999903585,Correct,sub_005_day_22_data.csv,1,340,,Dual-Task at home,8.0,2.0,small,big,False,Size,right,right,361.049399998592,Correct,1.0,0.9529411764705882,
5,22,317,B,45.05305503329438,29.534704319778548,2.252652751664719,0.463930050584815,B,350.01589999956195,Correct,sub_005_day_22_data.csv,1,340,,Dual-Task at home,4.0,6.0,big,small,False,Value,right,right,620.8420000002661,Correct,1.0,0.9529411764705882,
5,22,318,A,61.19110766618114,73.6775539577278,3.059555383309057,1.157324311240316,A,470.20799999882,Correct,sub_005_day_22_data.csv,1,340,,Dual-Task at home,5.0,3.0,small,big,False,Value,left,left,385.6405000005907,Correct,1.0,0.9529411764705882,
5,22,319,A,45.242931276580485,68.18008291456961,2.2621465638290243,1.070970238027774,A,443.38060000154655,Correct,sub_005_day_22_data.csv,1,340,,Dual-Task at home,2.0,7.0,big,small,False,Size,left,left,636.6441999998642,Correct,1.0,0.9529411764705882,
5,22,320,A,27.74738094846407,57.52098970878601,1.3873690474232034,0.9035375934816812,A,388.4566000015184,Correct,sub_005_day_22_data.csv,1,340,,Dual-Task at home,4.0,3.0,small,big,False,Value,left,left,727.994499997294,Correct,1.0,0.9529411764705882,
5,22,321,B,44.99883142480708,17.910423063168487,2.249941571240354,0.2813362675896765,B,397.1941999989213,Correct,sub_005_day_22_data.csv,1,340,,Dual-Task at home,3.0,4.0,big,small,False,Value,right,right,607.937500000844,Correct,1.0,0.9529411764705882,
5,22,322,A,34.24228272547989,61.357413719301064,1.7121141362739944,0.9638000009191292,A,410.59409999797936,Correct,sub_005_day_22_data.csv,1,340,,Dual-Task at home,2.0,6.0,big,small,False,Value,right,right,787.8676000000269,Correct,1.0,0.9529411764705882,
5,22,323,A,12.898851863933846,32.83127693528124,0.6449425931966922,0.5157124921392577,A,400.2505999997083,Correct,sub_005_day_22_data.csv,1,340,,Dual-Task at home,3.0,2.0,small,big,False,Size,right,right,414.6570000011707,Correct,1.0,0.9529411764705882,
5,22,324,A,38.690186113694345,58.410548455198715,1.9345093056847176,0.9175107495950146,A,531.481399997574,Correct,sub_005_day_22_data.csv,1,340,,Dual-Task at home,6.0,3.0,small,big,False,Value,left,left,497.86370000219904,Correct,1.0,0.9529411764705882,
5,22,325,B,78.21843189058265,50.24964570334619,3.9109215945291327,0.7893195889356115,B,458.7317000004987,Correct,sub_005_day_22_data.csv,1,340,,Dual-Task at home,7.0,6.0,big,small,True,Size,left,left,267.5431999996363,Correct,1.0,0.9529411764705882,
5,22,326,A,48.25947541084851,74.0555910058772,2.4129737705424255,1.163262503306571,A,411.5321999997832,Correct,sub_005_day_22_data.csv,1,340,,Dual-Task at home,4.0,3.0,small,big,False,Value,left,left,692.1972999989521,Correct,1.0,0.9529411764705882,
5,22,327,B,73.05737200426073,44.877402991862056,3.652868600213037,0.7049325977571121,B,425.6409999979951,Correct,sub_005_day_22_data.csv,1,340,,Dual-Task at home,8.0,7.0,small,big,False,Value,left,right,612.8442000008363,Incorrect,0.0,0.9529411764705882,
5,22,328,A,16.249460464694533,38.43790205339013,0.8124730232347267,0.6037811535516723,A,430.786499997339,Correct,sub_005_day_22_data.csv,1,340,,Dual-Task at home,8.0,6.0,big,small,True,Size,left,left,284.227700001793,Correct,1.0,0.9529411764705882,
5,22,329,A,18.555091930249468,40.04075520940648,0.9277545965124732,0.6289587120502932,A,410.900999999285,Correct,sub_005_day_22_data.csv,1,340,,Dual-Task at home,5.0,7.0,big,small,False,Size,left,left,615.3656000024057,Correct,1.0,0.9529411764705882,
5,22,330,A,44.791462960209095,73.4088341344855,2.2395731480104546,1.1531032701274564,A,445.3077999969537,Correct,sub_005_day_22_data.csv,1,340,,Dual-Task at home,2.0,6.0,big,small,False,Size,left,left,389.25420000305166,Correct,1.0,0.9529411764705882,
5,22,331,A,40.488056222502856,50.06349230201497,2.024402811125143,0.786395498145297,A,461.0436000002665,Correct,sub_005_day_22_data.csv,1,340,,Dual-Task at home,7.0,6.0,big,small,True,Value,left,left,304.4807000005676,Correct,1.0,0.9529411764705882,
5,22,332,B,60.47256158930585,51.30036959929728,3.023628079465293,0.8058243212979674,B,390.088600001036,Correct,sub_005_day_22_data.csv,1,340,,Dual-Task at home,3.0,7.0,small,big,True,Size,right,right,253.0746000011277,Correct,1.0,0.9529411764705882,
5,22,333,B,57.92862116196007,33.80438665182506,2.896431058098004,0.5309980638224124,B,461.2382000013895,Correct,sub_005_day_22_data.csv,1,340,,Dual-Task at home,4.0,7.0,big,small,False,Size,left,left,501.3864000029571,Correct,1.0,0.9529411764705882,
5,22,334,A,65.03392569632983,87.23234081683091,3.2516962848164916,1.3702424053279854,A,426.20159999933094,Correct,sub_005_day_22_data.csv,1,340,,Dual-Task at home,4.0,5.0,big,small,False,Size,left,left,351.0380999978224,Correct,1.0,0.9529411764705882,
5,22,335,A,43.8874774183687,57.58124589425217,2.194373870918435,0.9044840954296504,B,341.8931000014709,Incorrect,sub_005_day_22_data.csv,0,340,,Dual-Task at home,2.0,3.0,big,small,False,Value,right,right,363.9623999988544,Correct,1.0,0.9529411764705882,
5,22,336,A,62.04208138338279,75.68811608893063,3.1021040691691395,1.1889061473451792,A,707.7372999992804,Correct,sub_005_day_22_data.csv,1,340,,Dual-Task at home,2.0,8.0,big,small,False,Value,right,left,710.0610000015877,Incorrect,0.0,0.9529411764705882,
5,22,337,B,61.11989639238816,35.6707681566519,3.055994819619408,0.5603151159442117,B,409.6227000009094,Correct,sub_005_day_22_data.csv,1,340,,Dual-Task at home,4.0,5.0,big,small,False,Value,right,right,672.2432999995362,Correct,1.0,0.9529411764705882,
5,22,338,A,49.70594145018251,74.16722228781887,2.4852970725091255,1.1650160033828645,A,383.2263000003877,Correct,sub_005_day_22_data.csv,1,340,,Dual-Task at home,3.0,7.0,small,big,True,Value,right,right,409.8731000012776,Correct,1.0,0.9529411764705882,
5,22,339,B,49.890073938795624,41.5208770139995,2.494503696939782,0.6522084109889307,A,770.4520999977831,Incorrect,sub_005_day_22_data.csv,0,340,,Dual-Task at home,5.0,8.0,big,small,False,Size,left,left,457.4128999993263,Correct,1.0,0.9529411764705882,
