subject,day,trial,cat,x,y,xt,yt,resp,rt,fb,f_name,acc,n_trials,block,session_type,ns_left_digit,ns_right_digit,ns_left_size,ns_right_size,ns_congruent,ns_cue,ns_correct_side,ns_resp,ns_rt,ns_fb,acc_stroop,acc_stroop_mean,resp_key
5,23,0,A,56.19370903614766,72.6045240960996,2.809685451807383,1.1404691975884478,A,991.3031999894883,Correct,sub_005_day_23_data.csv,1,600,,Button-Switch at home,,,,,,,,,,,,,k
5,23,1,A,25.122816199983543,43.80924193093644,1.256140809999177,0.6881539630478393,A,918.239499995252,Correct,sub_005_day_23_data.csv,1,600,,Button-Switch at home,,,,,,,,,,,,,k
5,23,2,B,78.43168931761303,62.27139729202021,3.921584465880652,0.9781568213069104,B,567.3757000186015,Correct,sub_005_day_23_data.csv,1,600,,Button-Switch at home,,,,,,,,,,,,,d
5,23,3,A,52.85417462274392,74.33571947471076,2.642708731137196,1.1676627510053152,A,818.9124999917112,Correct,sub_005_day_23_data.csv,1,600,,Button-Switch at home,,,,,,,,,,,,,k
5,23,4,A,46.26228206001206,69.83974947582404,2.3131141030006033,1.097040219409002,A,851.5038999903481,Correct,sub_005_day_23_data.csv,1,600,,Button-Switch at home,,,,,,,,,,,,,k
5,23,5,B,86.14020077717457,69.4229084115555,4.307010038858729,1.090492495282899,B,835.713400010718,Correct,sub_005_day_23_data.csv,1,600,,Button-Switch at home,,,,,,,,,,,,,d
5,23,6,A,15.416710909216608,38.48688453327619,0.7708355454608303,0.6045505685464957,A,849.6683000121266,Correct,sub_005_day_23_data.csv,1,600,,Button-Switch at home,,,,,,,,,,,,,k
5,23,7,A,12.49047131762256,32.5139228123994,0.6245235658811281,0.5107275052340977,A,488.1491000123788,Correct,sub_005_day_23_data.csv,1,600,,Button-Switch at home,,,,,,,,,,,,,k
5,23,8,A,24.370811589423152,53.27483139711538,1.2185405794711577,0.8368390946920625,A,566.2449999945238,Correct,sub_005_day_23_data.csv,1,600,,Button-Switch at home,,,,,,,,,,,,,k
5,23,9,A,33.578916137910056,45.81462298729377,1.6789458068955028,0.7196544150193408,A,712.5759999908041,Correct,sub_005_day_23_data.csv,1,600,,Button-Switch at home,,,,,,,,,,,,,k
5,23,10,A,40.12800873670484,50.06393891932655,2.006400436835242,0.7864025135936221,A,642.6527000148781,Correct,sub_005_day_23_data.csv,1,600,,Button-Switch at home,,,,,,,,,,,,,k
5,23,11,A,50.66221878889577,60.618803514184314,2.5331109394447884,0.9521979389478228,A,1928.889300004812,Correct,sub_005_day_23_data.csv,1,600,,Button-Switch at home,,,,,,,,,,,,,k
5,23,12,A,39.50296153895422,57.28050367032567,1.975148076947711,0.8997600476230916,A,1244.204400019953,Correct,sub_005_day_23_data.csv,1,600,,Button-Switch at home,,,,,,,,,,,,,k
5,23,13,B,68.48105661766473,37.22237827562765,3.424052830883237,0.5846877506992606,A,808.3700000133831,Incorrect,sub_005_day_23_data.csv,0,600,,Button-Switch at home,,,,,,,,,,,,,k
5,23,14,A,65.28076065292167,84.54516534499616,3.264038032646084,1.3280323517218715,A,1044.782100012526,Correct,sub_005_day_23_data.csv,1,600,,Button-Switch at home,,,,,,,,,,,,,k
5,23,15,A,18.21018671709968,46.80106871946013,0.910509335854984,0.7351494683460351,A,878.4724999859463,Correct,sub_005_day_23_data.csv,1,600,,Button-Switch at home,,,,,,,,,,,,,k
5,23,16,B,46.84277886651535,26.402846972607783,2.3421389433257676,0.4147349504150006,B,1199.3913000042085,Correct,sub_005_day_23_data.csv,1,600,,Button-Switch at home,,,,,,,,,,,,,d
5,23,17,A,21.01304245441501,39.25052634069392,1.0506521227207506,0.6165458260072835,A,814.1178999794647,Correct,sub_005_day_23_data.csv,1,600,,Button-Switch at home,,,,,,,,,,,,,k
5,23,18,A,36.71289786153755,58.063670890733334,1.8356448930768776,0.9120620095539168,A,1156.1222999880556,Correct,sub_005_day_23_data.csv,1,600,,Button-Switch at home,,,,,,,,,,,,,k
5,23,19,A,63.13427024502356,75.60746265855357,3.1567135122511782,1.1876392462233825,A,1600.7704999938142,Correct,sub_005_day_23_data.csv,1,600,,Button-Switch at home,,,,,,,,,,,,,k
5,23,20,A,21.166190136711357,42.25627638893629,1.0583095068355677,0.6637600373577105,A,679.580000025453,Correct,sub_005_day_23_data.csv,1,600,,Button-Switch at home,,,,,,,,,,,,,k
5,23,21,B,78.92752966481223,57.03632684573603,3.9463764832406114,0.8959245270315531,B,905.76960000908,Correct,sub_005_day_23_data.csv,1,600,,Button-Switch at home,,,,,,,,,,,,,d
5,23,22,B,66.06356579608477,46.46886420678863,3.3031782898042388,0.7299312120635443,B,866.0633999970742,Correct,sub_005_day_23_data.csv,1,600,,Button-Switch at home,,,,,,,,,,,,,d
5,23,23,B,58.68757904466834,50.406138270410395,2.9343789522334167,0.7917777684307631,B,661.585699999705,Correct,sub_005_day_23_data.csv,1,600,,Button-Switch at home,,,,,,,,,,,,,d
5,23,24,B,84.54100703418219,65.28177340291468,4.227050351709109,1.0254436986795514,B,729.5461999892723,Correct,sub_005_day_23_data.csv,1,600,,Button-Switch at home,,,,,,,,,,,,,d
5,23,25,B,69.72845155967693,48.383681646844835,3.4864225779838467,0.7600090940767752,B,580.2803999977186,Correct,sub_005_day_23_data.csv,1,600,,Button-Switch at home,,,,,,,,,,,,,d
5,23,26,A,17.926985372849032,32.93901776277416,0.8963492686424516,0.517404881099975,A,610.5307000107132,Correct,sub_005_day_23_data.csv,1,600,,Button-Switch at home,,,,,,,,,,,,,k
5,23,27,B,88.26226572368245,67.92711237938005,4.413113286184123,1.0669965861531432,B,849.076700018486,Correct,sub_005_day_23_data.csv,1,600,,Button-Switch at home,,,,,,,,,,,,,d
5,23,28,B,69.15959112395159,47.30386619085852,3.4579795561975795,0.7430473925579785,B,586.5152000042144,Correct,sub_005_day_23_data.csv,1,600,,Button-Switch at home,,,,,,,,,,,,,d
5,23,29,A,21.105598516768204,38.84131102416119,1.05527992583841,0.6101178868465053,A,650.968500005547,Correct,sub_005_day_23_data.csv,1,600,,Button-Switch at home,,,,,,,,,,,,,k
5,23,30,B,34.49437449190874,16.722997762269273,1.7247187245954367,0.2626842345797184,B,717.1637999999803,Correct,sub_005_day_23_data.csv,1,600,,Button-Switch at home,,,,,,,,,,,,,d
5,23,31,A,56.28650195909587,73.49337563022571,2.814325097954794,1.1544312448371612,A,1292.511799983913,Correct,sub_005_day_23_data.csv,1,600,,Button-Switch at home,,,,,,,,,,,,,k
5,23,32,A,33.85040873472031,57.875486695922895,1.6925204367360154,0.909106019134226,A,850.9489999851212,Correct,sub_005_day_23_data.csv,1,600,,Button-Switch at home,,,,,,,,,,,,,k
5,23,33,B,51.47395591659344,30.383322659588593,2.573697795829672,0.4772601162950591,B,747.112199984258,Correct,sub_005_day_23_data.csv,1,600,,Button-Switch at home,,,,,,,,,,,,,d
5,23,34,B,50.62696522220631,38.920905212658056,2.5313482611103155,0.6113681494357561,B,702.7628000068944,Correct,sub_005_day_23_data.csv,1,600,,Button-Switch at home,,,,,,,,,,,,,d
5,23,35,B,57.47077382417755,32.56217724126164,2.873538691208877,0.5114854840301816,B,818.2478000235278,Correct,sub_005_day_23_data.csv,1,600,,Button-Switch at home,,,,,,,,,,,,,d
5,23,36,A,40.213377714736026,64.97228428302799,2.010668885736801,1.0205822549525414,A,894.6952999976929,Correct,sub_005_day_23_data.csv,1,600,,Button-Switch at home,,,,,,,,,,,,,k
5,23,37,A,35.289246985383386,61.62283640549472,1.7644623492691691,0.9679692507243391,A,1093.4942999738269,Correct,sub_005_day_23_data.csv,1,600,,Button-Switch at home,,,,,,,,,,,,,k
5,23,38,A,29.240926179915633,62.36382443224154,1.4620463089957816,0.9796086634304684,A,608.1725000112783,Correct,sub_005_day_23_data.csv,1,600,,Button-Switch at home,,,,,,,,,,,,,k
5,23,39,B,34.08297518064994,16.25710067929732,1.704148759032497,0.2553659403137504,B,784.2358000052627,Correct,sub_005_day_23_data.csv,1,600,,Button-Switch at home,,,,,,,,,,,,,d
5,23,40,B,36.99861940766813,10.912086927959637,1.8499309703834064,0.171406660641056,B,1845.4308999935165,Correct,sub_005_day_23_data.csv,1,600,,Button-Switch at home,,,,,,,,,,,,,d
5,23,41,B,63.69296820090948,45.23720481880473,3.184648410045474,0.7105843516384686,B,695.6279999867547,Correct,sub_005_day_23_data.csv,1,600,,Button-Switch at home,,,,,,,,,,,,,d
5,23,42,B,43.121177170665774,34.89345385647703,2.1560588585332887,0.5481050914694134,B,618.2669999834616,Correct,sub_005_day_23_data.csv,1,600,,Button-Switch at home,,,,,,,,,,,,,d
5,23,43,B,32.027370062873786,10.400659828020007,1.6013685031436893,0.1633731825409707,B,736.3040999916848,Correct,sub_005_day_23_data.csv,1,600,,Button-Switch at home,,,,,,,,,,,,,d
5,23,44,A,59.02202866626675,69.83082185323916,2.9511014333133376,1.0968999846413685,A,1128.264400002081,Correct,sub_005_day_23_data.csv,1,600,,Button-Switch at home,,,,,,,,,,,,,k
5,23,45,B,65.34356067562653,48.87726277245627,3.2671780337813265,0.7677622482676325,B,1402.6392000087071,Correct,sub_005_day_23_data.csv,1,600,,Button-Switch at home,,,,,,,,,,,,,d
5,23,46,B,54.29705121828992,33.524572052982165,2.714852560914496,0.5266027463819523,B,635.2835000143386,Correct,sub_005_day_23_data.csv,1,600,,Button-Switch at home,,,,,,,,,,,,,d
5,23,47,A,52.419703089037526,66.68859806213581,2.6209851544518763,1.0475420487510418,A,661.2582000088878,Correct,sub_005_day_23_data.csv,1,600,,Button-Switch at home,,,,,,,,,,,,,k
5,23,48,B,57.191783247219526,24.652799553043785,2.8595891623609764,0.3872452698313204,A,776.7817000276409,Incorrect,sub_005_day_23_data.csv,0,600,,Button-Switch at home,,,,,,,,,,,,,k
5,23,49,A,34.48411439831139,49.711539214559615,1.7242057199155696,0.7808670319755071,A,2330.533500004094,Correct,sub_005_day_23_data.csv,1,600,,Button-Switch at home,,,,,,,,,,,,,k
5,23,50,B,55.682996049577206,35.46218920168769,2.7841498024788605,0.5570387653811667,A,683.0974000040442,Incorrect,sub_005_day_23_data.csv,0,600,,Button-Switch at home,,,,,,,,,,,,,k
5,23,51,A,29.435057900233872,48.67040863310969,1.4717528950116934,0.7645129910449531,B,719.2229999927804,Incorrect,sub_005_day_23_data.csv,0,600,,Button-Switch at home,,,,,,,,,,,,,d
5,23,52,B,50.461508729716016,28.815698931210292,2.523075436485801,0.4526359403517276,B,812.6126000133809,Correct,sub_005_day_23_data.csv,1,600,,Button-Switch at home,,,,,,,,,,,,,d
5,23,53,A,51.28904515808232,73.25481507853797,2.564452257904116,1.1506839444540684,A,1386.312000016915,Correct,sub_005_day_23_data.csv,1,600,,Button-Switch at home,,,,,,,,,,,,,k
5,23,54,B,44.28042148913095,16.537473773329317,2.214021074456548,0.2597700305761263,A,1165.133100003004,Incorrect,sub_005_day_23_data.csv,0,600,,Button-Switch at home,,,,,,,,,,,,,k
5,23,55,B,56.25249446592447,41.76422468704943,2.812624723296224,0.6560309072985399,B,1301.754099986283,Correct,sub_005_day_23_data.csv,1,600,,Button-Switch at home,,,,,,,,,,,,,d
5,23,56,A,51.34711310410882,67.12192553563447,2.567355655205441,1.054348740787752,A,757.311800000025,Correct,sub_005_day_23_data.csv,1,600,,Button-Switch at home,,,,,,,,,,,,,k
5,23,57,A,18.96095759307443,34.1575065629104,0.9480478796537214,0.5365448584149223,A,3375.7101999945007,Correct,sub_005_day_23_data.csv,1,600,,Button-Switch at home,,,,,,,,,,,,,k
5,23,58,B,46.84914983384259,32.47802180175437,2.3424574916921297,0.5101635734776033,A,1492.5244000041855,Incorrect,sub_005_day_23_data.csv,0,600,,Button-Switch at home,,,,,,,,,,,,,k
5,23,59,A,58.2379372297782,66.19348664855649,2.91189686148891,1.0397648568529956,A,1375.575200014282,Correct,sub_005_day_23_data.csv,1,600,,Button-Switch at home,,,,,,,,,,,,,k
5,23,60,A,53.364356729456915,64.84557914451194,2.668217836472846,1.018591975290871,A,786.0417999909259,Correct,sub_005_day_23_data.csv,1,600,,Button-Switch at home,,,,,,,,,,,,,k
5,23,61,A,50.93507201755938,61.59025591252783,2.546753600877969,0.9674574775375636,A,921.0784999886528,Correct,sub_005_day_23_data.csv,1,600,,Button-Switch at home,,,,,,,,,,,,,k
5,23,62,A,53.39484640532163,74.00337465750835,2.6697423202660815,1.1624422908244063,B,875.037899997551,Incorrect,sub_005_day_23_data.csv,0,600,,Button-Switch at home,,,,,,,,,,,,,d
5,23,63,A,33.329839751915046,64.4241887374775,1.6664919875957522,1.011972790255708,A,1169.7950000234414,Correct,sub_005_day_23_data.csv,1,600,,Button-Switch at home,,,,,,,,,,,,,k
5,23,64,B,51.28518761631841,41.20762800801846,2.5642593808159204,0.6472879071092591,A,2221.2351000052877,Incorrect,sub_005_day_23_data.csv,0,600,,Button-Switch at home,,,,,,,,,,,,,k
5,23,65,A,32.33657020926212,55.4483659754514,1.616828510463106,0.8709808960101818,B,798.5110000008717,Incorrect,sub_005_day_23_data.csv,0,600,,Button-Switch at home,,,,,,,,,,,,,d
5,23,66,A,41.65783128692195,66.31146148504777,2.0828915643460975,1.041618001251143,A,696.2055999902077,Correct,sub_005_day_23_data.csv,1,600,,Button-Switch at home,,,,,,,,,,,,,k
5,23,67,B,78.8143960299579,61.57381106210268,3.9407198014978952,0.9671991624311386,A,1033.8549000152852,Incorrect,sub_005_day_23_data.csv,0,600,,Button-Switch at home,,,,,,,,,,,,,k
5,23,68,B,41.70741076142695,30.712430362021184,2.0853705380713476,0.4824297279960693,B,675.2438000112306,Correct,sub_005_day_23_data.csv,1,600,,Button-Switch at home,,,,,,,,,,,,,d
5,23,69,A,16.60794654999271,39.23509009721489,0.8303973274996355,0.6163033540617199,B,899.104999989504,Incorrect,sub_005_day_23_data.csv,0,600,,Button-Switch at home,,,,,,,,,,,,,d
5,23,70,B,70.56320931507156,45.60237747212968,3.528160465753578,0.7163204702633564,B,904.3047000013756,Correct,sub_005_day_23_data.csv,1,600,,Button-Switch at home,,,,,,,,,,,,,d
5,23,71,B,76.71518978316676,58.84677603524885,3.835759489158338,0.9243629963989082,B,664.6671000053175,Correct,sub_005_day_23_data.csv,1,600,,Button-Switch at home,,,,,,,,,,,,,d
5,23,72,A,24.86835192478952,46.997069947427406,1.243417596239476,0.738228248435418,A,806.0486000031233,Correct,sub_005_day_23_data.csv,1,600,,Button-Switch at home,,,,,,,,,,,,,k
5,23,73,B,60.36184386480256,44.55588485132067,3.018092193240128,0.6998822026155088,B,918.578399985563,Correct,sub_005_day_23_data.csv,1,600,,Button-Switch at home,,,,,,,,,,,,,d
5,23,74,A,40.6361658801462,49.80444330526751,2.03180829400731,0.7823263660197889,B,1843.9031000016255,Incorrect,sub_005_day_23_data.csv,0,600,,Button-Switch at home,,,,,,,,,,,,,d
5,23,75,A,46.42786971047301,66.7606204950838,2.3213934855236507,1.0486733744822572,B,2435.5118999956176,Incorrect,sub_005_day_23_data.csv,0,600,,Button-Switch at home,,,,,,,,,,,,,d
5,23,76,B,65.85182605182983,41.255781649511576,3.2925913025914917,0.6480443027410507,A,4546.909999975469,Incorrect,sub_005_day_23_data.csv,0,600,,Button-Switch at home,,,,,,,,,,,,,k
5,23,77,B,44.75471521023116,28.82478274532621,2.237735760511558,0.4527786285701932,B,787.2859000053722,Correct,sub_005_day_23_data.csv,1,600,,Button-Switch at home,,,,,,,,,,,,,d
5,23,78,B,49.0718308720664,21.064181312599377,2.45359154360332,0.330875386327728,B,492.6793999911752,Correct,sub_005_day_23_data.csv,1,600,,Button-Switch at home,,,,,,,,,,,,,d
5,23,79,B,70.3624333282268,53.22629160836176,3.51812166641134,0.8360766334732868,B,726.5990999876522,Correct,sub_005_day_23_data.csv,1,600,,Button-Switch at home,,,,,,,,,,,,,d
5,23,80,B,43.84120976955127,19.83712605265198,2.1920604884775634,0.3116008473767307,B,1145.701100002043,Correct,sub_005_day_23_data.csv,1,600,,Button-Switch at home,,,,,,,,,,,,,d
5,23,81,A,31.737490591362615,58.78830183847565,1.5868745295681308,0.923444485863872,A,786.2216999928933,Correct,sub_005_day_23_data.csv,1,600,,Button-Switch at home,,,,,,,,,,,,,k
5,23,82,B,76.74067340230235,58.08272544875175,3.8370336701151175,0.9123613178513572,B,911.8267000012564,Correct,sub_005_day_23_data.csv,1,600,,Button-Switch at home,,,,,,,,,,,,,d
5,23,83,A,14.953652322184093,36.607675762641385,0.7476826161092046,0.5750320262045565,A,1168.3450999844354,Correct,sub_005_day_23_data.csv,1,600,,Button-Switch at home,,,,,,,,,,,,,k
5,23,84,A,40.73766422999582,57.50413204347912,2.036883211499791,0.9032727938942572,B,582.4150999833364,Incorrect,sub_005_day_23_data.csv,0,600,,Button-Switch at home,,,,,,,,,,,,,d
5,23,85,A,30.655872243739935,50.02334751641571,1.5327936121869967,0.7857649053277042,B,2682.550400000764,Incorrect,sub_005_day_23_data.csv,0,600,,Button-Switch at home,,,,,,,,,,,,,d
5,23,86,A,63.456554937739554,80.95797781050746,3.172827746886978,1.2716849416948786,A,1771.505300013814,Correct,sub_005_day_23_data.csv,1,600,,Button-Switch at home,,,,,,,,,,,,,k
5,23,87,B,56.11814115850076,24.71292541417124,2.805907057925038,0.3881897246493643,A,1957.2501000075135,Incorrect,sub_005_day_23_data.csv,0,600,,Button-Switch at home,,,,,,,,,,,,,k
5,23,88,A,40.155122482954994,48.7851429949127,2.0077561241477495,0.7663152341857263,A,1760.7963000191376,Correct,sub_005_day_23_data.csv,1,600,,Button-Switch at home,,,,,,,,,,,,,k
5,23,89,B,70.40852873589286,42.496089256692,3.5204264367946427,0.6675270090755986,A,1411.357200006023,Incorrect,sub_005_day_23_data.csv,0,600,,Button-Switch at home,,,,,,,,,,,,,k
5,23,90,B,43.376310753151515,22.224820170908057,2.1688155376575757,0.349106658881395,B,1821.919900015928,Correct,sub_005_day_23_data.csv,1,600,,Button-Switch at home,,,,,,,,,,,,,d
5,23,91,B,35.34037696021825,12.707291954369811,1.7670188480109124,0.1996056752543444,B,597.338799998397,Correct,sub_005_day_23_data.csv,1,600,,Button-Switch at home,,,,,,,,,,,,,d
5,23,92,B,68.03729753254902,49.703027511835806,3.401864876627451,0.7807333304617737,B,695.2832999813836,Correct,sub_005_day_23_data.csv,1,600,,Button-Switch at home,,,,,,,,,,,,,d
5,23,93,B,55.23080237083484,33.02919727691022,2.761540118541742,0.5188214175955457,B,731.9178000034299,Correct,sub_005_day_23_data.csv,1,600,,Button-Switch at home,,,,,,,,,,,,,d
5,23,94,B,55.94803483433393,36.34516601077711,2.7974017417166963,0.5709085326647941,B,455.47570000053383,Correct,sub_005_day_23_data.csv,1,600,,Button-Switch at home,,,,,,,,,,,,,d
5,23,95,B,54.532111832356335,34.42758606378135,2.726605591617817,0.5407872572940291,B,384.73449999582954,Correct,sub_005_day_23_data.csv,1,600,,Button-Switch at home,,,,,,,,,,,,,d
5,23,96,A,36.800572434234546,52.44418482217227,1.8400286217117272,0.8237913288042086,B,617.0438999834005,Incorrect,sub_005_day_23_data.csv,0,600,,Button-Switch at home,,,,,,,,,,,,,d
5,23,97,A,64.45624025624647,80.06514317781793,3.222812012812324,1.2576603280802388,A,663.5290999838617,Correct,sub_005_day_23_data.csv,1,600,,Button-Switch at home,,,,,,,,,,,,,k
5,23,98,B,71.95445745721551,44.53866777973743,3.5977228728607757,0.6996117574874976,B,521.6509999881964,Correct,sub_005_day_23_data.csv,1,600,,Button-Switch at home,,,,,,,,,,,,,d
5,23,99,A,38.23651394969204,54.81675748997544,1.911825697484602,0.8610596131206004,B,948.4961999987718,Incorrect,sub_005_day_23_data.csv,0,600,,Button-Switch at home,,,,,,,,,,,,,d
5,23,100,B,36.50360742101344,19.620869752075063,1.825180371050672,0.3082039013508061,B,1778.768599993782,Correct,sub_005_day_23_data.csv,1,600,,Button-Switch at home,,,,,,,,,,,,,d
5,23,101,B,59.209225013207295,47.22556869513457,2.960461250660365,0.7418174983711745,B,728.0811000091489,Correct,sub_005_day_23_data.csv,1,600,,Button-Switch at home,,,,,,,,,,,,,d
5,23,102,A,52.51382713614163,62.449593257579245,2.6256913568070814,0.9809559169884082,B,590.4460999881849,Incorrect,sub_005_day_23_data.csv,0,600,,Button-Switch at home,,,,,,,,,,,,,d
5,23,103,B,76.84601808742862,46.08704966596551,3.842300904371431,0.7239336832811258,B,1045.8793000143487,Correct,sub_005_day_23_data.csv,1,600,,Button-Switch at home,,,,,,,,,,,,,d
5,23,104,A,39.93789317668159,64.3597789411115,1.9968946588340797,1.010961043540295,A,1389.767300017411,Correct,sub_005_day_23_data.csv,1,600,,Button-Switch at home,,,,,,,,,,,,,k
5,23,105,A,18.351209592464393,45.92506573107603,0.9175604796232196,0.7213892455818841,A,482.9637000220828,Correct,sub_005_day_23_data.csv,1,600,,Button-Switch at home,,,,,,,,,,,,,k
5,23,106,B,37.44601595777921,23.77856094539426,1.8723007978889603,0.3735127618949389,B,664.2270000011194,Correct,sub_005_day_23_data.csv,1,600,,Button-Switch at home,,,,,,,,,,,,,d
5,23,107,A,47.16932491907884,66.6790349019169,2.358466245953942,1.0473918309815975,A,1210.4211999976542,Correct,sub_005_day_23_data.csv,1,600,,Button-Switch at home,,,,,,,,,,,,,k
5,23,108,A,19.23642841110175,38.507227587572935,0.9618214205550872,0.6048701164961467,A,670.2078999951482,Correct,sub_005_day_23_data.csv,1,600,,Button-Switch at home,,,,,,,,,,,,,k
5,23,109,A,59.80649945097038,75.49765603932006,2.990324972548519,1.1859144078818848,A,769.7966000123415,Correct,sub_005_day_23_data.csv,1,600,,Button-Switch at home,,,,,,,,,,,,,k
5,23,110,A,44.10575289371659,73.00117275680668,2.2052876446858294,1.1466997401811163,A,563.6387999984436,Correct,sub_005_day_23_data.csv,1,600,,Button-Switch at home,,,,,,,,,,,,,k
5,23,111,A,11.57977787590475,37.59516367010103,0.5789888937952375,0.5905434499824764,A,544.8975999897812,Correct,sub_005_day_23_data.csv,1,600,,Button-Switch at home,,,,,,,,,,,,,k
5,23,112,A,19.01988075997781,44.51175642560976,0.9509940379988904,0.6991890349253695,A,489.09329998423345,Correct,sub_005_day_23_data.csv,1,600,,Button-Switch at home,,,,,,,,,,,,,k
5,23,113,A,48.852624673713706,71.82053529121411,2.4426312336856855,1.1281543302388235,A,673.1787000026088,Correct,sub_005_day_23_data.csv,1,600,,Button-Switch at home,,,,,,,,,,,,,k
5,23,114,B,88.87151024672248,65.10765279236573,4.443575512336124,1.0227086185248555,B,638.1795999768656,Correct,sub_005_day_23_data.csv,1,600,,Button-Switch at home,,,,,,,,,,,,,d
5,23,115,A,37.93541476635514,49.864739798492046,1.8967707383177568,0.783273501120546,A,1041.951899998821,Correct,sub_005_day_23_data.csv,1,600,,Button-Switch at home,,,,,,,,,,,,,k
5,23,116,B,72.66204626605149,50.60883804990013,3.6331023133025746,0.7949617691214091,B,1743.0273999925705,Correct,sub_005_day_23_data.csv,1,600,,Button-Switch at home,,,,,,,,,,,,,d
5,23,117,B,33.67634225467961,12.221341542018454,1.6838171127339805,0.1919723840270846,B,1468.235599983018,Correct,sub_005_day_23_data.csv,1,600,,Button-Switch at home,,,,,,,,,,,,,d
5,23,118,A,25.748090931349193,44.47527692565177,1.2874045465674595,0.6986160162799963,B,600.9065999824088,Incorrect,sub_005_day_23_data.csv,0,600,,Button-Switch at home,,,,,,,,,,,,,d
5,23,119,B,39.59027885285752,12.791757696957015,1.979513942642876,0.2009324600363043,B,1889.816899987636,Correct,sub_005_day_23_data.csv,1,600,,Button-Switch at home,,,,,,,,,,,,,d
5,23,120,B,63.89157183590769,50.73964794779535,3.1945785917953846,0.7970165261926314,B,2153.306700027315,Correct,sub_005_day_23_data.csv,1,600,,Button-Switch at home,,,,,,,,,,,,,d
5,23,121,A,60.03715036215246,69.13856826084104,3.0018575181076232,1.086026090639873,B,996.4511999860406,Incorrect,sub_005_day_23_data.csv,0,600,,Button-Switch at home,,,,,,,,,,,,,d
5,23,122,B,51.52497218783414,29.137432660699467,2.5762486093917065,0.4576897219566037,B,1215.3542000160087,Correct,sub_005_day_23_data.csv,1,600,,Button-Switch at home,,,,,,,,,,,,,d
5,23,123,B,77.88471638970367,61.84959418601754,3.8942358194851834,0.9715311536115132,B,1211.2992999900598,Correct,sub_005_day_23_data.csv,1,600,,Button-Switch at home,,,,,,,,,,,,,d
5,23,124,B,51.854907623345696,21.213301549861622,2.5927453811672847,0.3332177615371513,B,514.3048000172712,Correct,sub_005_day_23_data.csv,1,600,,Button-Switch at home,,,,,,,,,,,,,d
5,23,125,B,65.06710951171395,33.754042942926,3.253355475585698,0.5302072666922536,B,523.4487999987323,Correct,sub_005_day_23_data.csv,1,600,,Button-Switch at home,,,,,,,,,,,,,d
5,23,126,A,47.81574045156334,75.51369607454147,2.390787022578167,1.1861663641659594,A,874.9515000090469,Correct,sub_005_day_23_data.csv,1,600,,Button-Switch at home,,,,,,,,,,,,,k
5,23,127,A,49.1846987471764,75.34286090144337,2.4592349373588203,1.1834828915420608,A,620.130600000266,Correct,sub_005_day_23_data.csv,1,600,,Button-Switch at home,,,,,,,,,,,,,k
5,23,128,B,58.80078953956617,29.968243407140022,2.940039476978308,0.4707400666443092,B,1992.866699991282,Correct,sub_005_day_23_data.csv,1,600,,Button-Switch at home,,,,,,,,,,,,,d
5,23,129,B,37.197854089833825,18.35496104675653,1.859892704491691,0.2883190539070857,B,941.1332000163384,Correct,sub_005_day_23_data.csv,1,600,,Button-Switch at home,,,,,,,,,,,,,d
5,23,130,A,46.333106254358135,74.42242707729064,2.316655312717907,1.1690247508416918,A,765.1491000142414,Correct,sub_005_day_23_data.csv,1,600,,Button-Switch at home,,,,,,,,,,,,,k
5,23,131,B,39.95465330889847,13.056936427720824,1.9977326654449232,0.2050978777985835,B,898.587800009409,Correct,sub_005_day_23_data.csv,1,600,,Button-Switch at home,,,,,,,,,,,,,d
5,23,132,B,42.79099757522858,16.96661382962865,2.139549878761429,0.2665109468172817,B,666.4350999926683,Correct,sub_005_day_23_data.csv,1,600,,Button-Switch at home,,,,,,,,,,,,,d
5,23,133,B,64.3151766806491,38.4350281903666,3.2157588340324548,0.6037360110168615,B,824.7272000007797,Correct,sub_005_day_23_data.csv,1,600,,Button-Switch at home,,,,,,,,,,,,,d
5,23,134,B,77.29127651237349,58.67047004182682,3.8645638256186743,0.921593588330316,B,709.5355000055861,Correct,sub_005_day_23_data.csv,1,600,,Button-Switch at home,,,,,,,,,,,,,d
5,23,135,A,30.002075671715467,54.92238096290939,1.5001037835857731,0.8627187427536802,B,692.7909000078216,Incorrect,sub_005_day_23_data.csv,0,600,,Button-Switch at home,,,,,,,,,,,,,d
5,23,136,B,52.62083384270324,33.538126801677016,2.6310416921351623,0.5268156638765572,A,795.1498000184074,Incorrect,sub_005_day_23_data.csv,0,600,,Button-Switch at home,,,,,,,,,,,,,k
5,23,137,B,62.58254155404765,51.92843261660204,3.1291270777023827,0.8156899121037477,B,1213.2817000092473,Correct,sub_005_day_23_data.csv,1,600,,Button-Switch at home,,,,,,,,,,,,,d
5,23,138,A,58.73403727411264,81.85633236700357,2.936701863705632,1.2857962620699142,A,840.0320000073407,Correct,sub_005_day_23_data.csv,1,600,,Button-Switch at home,,,,,,,,,,,,,k
5,23,139,A,13.909842389937593,39.05849716678708,0.6954921194968796,0.6135294387971801,A,868.4103999985382,Correct,sub_005_day_23_data.csv,1,600,,Button-Switch at home,,,,,,,,,,,,,k
5,23,140,A,52.2818054691427,59.16635681468387,2.6140902734571347,0.9293829595434164,A,2214.113099995302,Correct,sub_005_day_23_data.csv,1,600,,Button-Switch at home,,,,,,,,,,,,,k
5,23,141,A,32.05005091817376,48.76851453778674,1.602502545908688,0.7660540349919892,A,976.4430000213906,Correct,sub_005_day_23_data.csv,1,600,,Button-Switch at home,,,,,,,,,,,,,k
5,23,142,A,63.75021526255976,84.87517339026749,3.1875107631279884,1.333216105975121,A,1072.4306000047363,Correct,sub_005_day_23_data.csv,1,600,,Button-Switch at home,,,,,,,,,,,,,k
5,23,143,A,56.53388716552138,71.83885110396967,2.826694358276069,1.1284420343528103,A,748.7315999751445,Correct,sub_005_day_23_data.csv,1,600,,Button-Switch at home,,,,,,,,,,,,,k
5,23,144,B,51.348292305094986,40.25017283675689,2.5674146152547497,0.6322482364483745,B,986.28959999769,Correct,sub_005_day_23_data.csv,1,600,,Button-Switch at home,,,,,,,,,,,,,d
5,23,145,A,40.49469939737456,47.42765955167541,2.024734969868728,0.7449919341225061,B,724.2676999885589,Incorrect,sub_005_day_23_data.csv,0,600,,Button-Switch at home,,,,,,,,,,,,,d
5,23,146,B,79.36373141345699,47.902279254550585,3.9681865706728496,0.7524472429815143,B,1567.7545000216924,Correct,sub_005_day_23_data.csv,1,600,,Button-Switch at home,,,,,,,,,,,,,d
5,23,147,B,64.78293702049169,44.695604450732155,3.239146851024584,0.702076912950877,B,756.2147999997251,Correct,sub_005_day_23_data.csv,1,600,,Button-Switch at home,,,,,,,,,,,,,d
5,23,148,A,48.965068287901914,80.10743789949353,2.448253414395096,1.2583246920147473,A,847.2289000055753,Correct,sub_005_day_23_data.csv,1,600,,Button-Switch at home,,,,,,,,,,,,,k
5,23,149,B,45.97182105535693,21.28287086975372,2.2985910527678466,0.3343105538585925,B,1234.4224999833386,Correct,sub_005_day_23_data.csv,1,600,,Button-Switch at home,,,,,,,,,,,,,d
5,23,150,A,52.405379813969446,73.32187623558951,2.620268990698472,1.1517373386457403,A,887.6206999993883,Correct,sub_005_day_23_data.csv,1,600,,Button-Switch at home,,,,,,,,,,,,,k
5,23,151,A,14.924245971375928,32.531308324474125,0.7462122985687963,0.5110005962191619,A,832.706400018651,Correct,sub_005_day_23_data.csv,1,600,,Button-Switch at home,,,,,,,,,,,,,k
5,23,152,B,52.46926417070659,43.56245644242357,2.623463208535329,0.6842774656592161,B,1660.2942000026817,Correct,sub_005_day_23_data.csv,1,600,,Button-Switch at home,,,,,,,,,,,,,d
5,23,153,B,42.80230074100603,22.241375072491778,2.1401150370503017,0.3493667026673765,B,878.4302999847569,Correct,sub_005_day_23_data.csv,1,600,,Button-Switch at home,,,,,,,,,,,,,d
5,23,154,B,70.03312293693781,49.9847078850399,3.501656146846891,0.7851579554173659,B,1015.1148000149988,Correct,sub_005_day_23_data.csv,1,600,,Button-Switch at home,,,,,,,,,,,,,d
5,23,155,B,34.18786105952734,17.53867831234234,1.709393052976367,0.2754969146986466,B,1497.191299975384,Correct,sub_005_day_23_data.csv,1,600,,Button-Switch at home,,,,,,,,,,,,,d
5,23,156,B,56.81123902723443,45.87471458358765,2.8405619513617215,0.7205983316066373,B,1143.34000000963,Correct,sub_005_day_23_data.csv,1,600,,Button-Switch at home,,,,,,,,,,,,,d
5,23,157,B,50.36908945062158,37.9409264876482,2.518454472531079,0.5959746796199298,B,707.5597000075504,Correct,sub_005_day_23_data.csv,1,600,,Button-Switch at home,,,,,,,,,,,,,d
5,23,158,A,13.452846365545003,30.550770574138323,0.6726423182772501,0.4798903819861009,A,2589.912299998105,Correct,sub_005_day_23_data.csv,1,600,,Button-Switch at home,,,,,,,,,,,,,k
5,23,159,B,43.56485701520212,32.960994462182704,2.178242850760106,0.5177500902870352,A,1017.777600005502,Incorrect,sub_005_day_23_data.csv,0,600,,Button-Switch at home,,,,,,,,,,,,,k
5,23,160,A,37.372303029779175,53.712800875842994,1.8686151514889588,0.8437187031763987,B,1070.931299997028,Incorrect,sub_005_day_23_data.csv,0,600,,Button-Switch at home,,,,,,,,,,,,,d
5,23,161,B,52.83669375947125,37.512444338276,2.641834687973563,0.5892440977566195,B,1837.0187999971677,Correct,sub_005_day_23_data.csv,1,600,,Button-Switch at home,,,,,,,,,,,,,d
5,23,162,B,44.24775992388037,19.93427679417948,2.212387996194019,0.3131268876560987,B,458.26479999232106,Correct,sub_005_day_23_data.csv,1,600,,Button-Switch at home,,,,,,,,,,,,,d
5,23,163,A,46.45580938851352,70.02610449592494,2.322790469425676,1.099967477219545,A,660.2388999890536,Correct,sub_005_day_23_data.csv,1,600,,Button-Switch at home,,,,,,,,,,,,,k
5,23,164,B,64.76047883710633,41.64476962890191,3.238023941855317,0.6541545116329879,A,685.4586999979801,Incorrect,sub_005_day_23_data.csv,0,600,,Button-Switch at home,,,,,,,,,,,,,k
5,23,165,A,38.937578005513664,47.34247923159072,1.9468789002756832,0.7436539247834639,B,1319.5682000077795,Incorrect,sub_005_day_23_data.csv,0,600,,Button-Switch at home,,,,,,,,,,,,,d
5,23,166,A,21.255167014039177,41.38950692569989,1.062758350701959,0.6501448544674132,A,1950.23059999221,Correct,sub_005_day_23_data.csv,1,600,,Button-Switch at home,,,,,,,,,,,,,k
5,23,167,A,50.524979443799225,76.45917726637498,2.5262489721899613,1.201017947997817,A,958.5814000165556,Correct,sub_005_day_23_data.csv,1,600,,Button-Switch at home,,,,,,,,,,,,,k
5,23,168,A,47.27421992734275,55.729874435036486,2.363710996367138,0.8754028205529613,B,1062.2212000016589,Incorrect,sub_005_day_23_data.csv,0,600,,Button-Switch at home,,,,,,,,,,,,,d
5,23,169,B,80.62712941331887,50.176028772752126,4.031356470665943,0.7881632168939408,B,794.3362999940291,Correct,sub_005_day_23_data.csv,1,600,,Button-Switch at home,,,,,,,,,,,,,d
5,23,170,B,66.85940410386972,53.01602101497313,3.3429702051934864,0.8327737107160084,B,586.9875999924261,Correct,sub_005_day_23_data.csv,1,600,,Button-Switch at home,,,,,,,,,,,,,d
5,23,171,B,63.34137215801154,51.212793945101566,3.167068607900577,0.8044486861386946,B,474.17410000343807,Correct,sub_005_day_23_data.csv,1,600,,Button-Switch at home,,,,,,,,,,,,,d
5,23,172,B,69.74205857209397,55.940947718382915,3.4871029286046986,0.8787183519346123,B,611.0158000083175,Correct,sub_005_day_23_data.csv,1,600,,Button-Switch at home,,,,,,,,,,,,,d
5,23,173,A,48.86089972918648,76.83098981351772,2.443044986459324,1.2068583658308976,A,714.1865000012331,Correct,sub_005_day_23_data.csv,1,600,,Button-Switch at home,,,,,,,,,,,,,k
5,23,174,A,32.952073664135675,59.07469039632053,1.6476036832067835,0.9279430668108604,A,1115.5232999881264,Correct,sub_005_day_23_data.csv,1,600,,Button-Switch at home,,,,,,,,,,,,,k
5,23,175,A,24.640460647387336,54.41314082799381,1.2320230323693666,0.8547196174198608,A,636.1883000063244,Correct,sub_005_day_23_data.csv,1,600,,Button-Switch at home,,,,,,,,,,,,,k
5,23,176,B,66.75227902722696,34.021754839656694,3.337613951361348,0.5344124753324924,B,950.7957000168972,Correct,sub_005_day_23_data.csv,1,600,,Button-Switch at home,,,,,,,,,,,,,d
5,23,177,B,33.02006271656096,14.833888448701462,1.651003135828048,0.233010174873055,B,1700.8017000043765,Correct,sub_005_day_23_data.csv,1,600,,Button-Switch at home,,,,,,,,,,,,,d
5,23,178,B,74.03674475917876,54.50563912636189,3.701837237958938,0.8561725772929745,B,1542.746699997224,Correct,sub_005_day_23_data.csv,1,600,,Button-Switch at home,,,,,,,,,,,,,d
5,23,179,A,61.62154757166313,75.97209536892234,3.0810773785831564,1.1933668834441478,A,1157.719199982239,Correct,sub_005_day_23_data.csv,1,600,,Button-Switch at home,,,,,,,,,,,,,k
5,23,180,A,34.11355129587464,46.131920140269294,1.705677564793732,0.7246385070433051,A,2229.5932000270113,Correct,sub_005_day_23_data.csv,1,600,,Button-Switch at home,,,,,,,,,,,,,k
5,23,181,B,57.52871772943844,30.02119281833318,2.876435886471922,0.4715717940503909,A,1065.6394999823533,Incorrect,sub_005_day_23_data.csv,0,600,,Button-Switch at home,,,,,,,,,,,,,k
5,23,182,A,34.44953639214158,51.30429913110888,1.722476819607079,0.8058860462393242,A,1339.9396000022534,Correct,sub_005_day_23_data.csv,1,600,,Button-Switch at home,,,,,,,,,,,,,k
5,23,183,A,25.170636780402905,54.2837733622096,1.2585318390201452,0.8526875180192549,A,716.3740999822039,Correct,sub_005_day_23_data.csv,1,600,,Button-Switch at home,,,,,,,,,,,,,k
5,23,184,B,62.02136075025636,35.25036168021836,3.101068037512818,0.5537113864547858,A,691.6223999869544,Incorrect,sub_005_day_23_data.csv,0,600,,Button-Switch at home,,,,,,,,,,,,,k
5,23,185,B,54.170907718291495,43.30964584121074,2.7085453859145745,0.680306326021617,B,1909.881100000348,Correct,sub_005_day_23_data.csv,1,600,,Button-Switch at home,,,,,,,,,,,,,d
5,23,186,A,31.433373804067703,56.64444125654878,1.5716686902033854,0.8897688025913612,A,1359.20000000624,Correct,sub_005_day_23_data.csv,1,600,,Button-Switch at home,,,,,,,,,,,,,k
5,23,187,A,28.30273278958201,52.12700469568365,1.4151366394791005,0.818809075028002,A,871.1749999783933,Correct,sub_005_day_23_data.csv,1,600,,Button-Switch at home,,,,,,,,,,,,,k
5,23,188,B,86.27543159408293,62.515673644775674,4.313771579704147,0.9819939052832216,B,1298.1351999915205,Correct,sub_005_day_23_data.csv,1,600,,Button-Switch at home,,,,,,,,,,,,,d
5,23,189,B,79.8602741987657,60.182351177612944,3.993013709938285,0.9453421616767492,B,512.379099993268,Correct,sub_005_day_23_data.csv,1,600,,Button-Switch at home,,,,,,,,,,,,,d
5,23,190,A,44.440302430676354,61.31624204782926,2.2220151215338175,0.9631532778159698,B,1287.067700002808,Incorrect,sub_005_day_23_data.csv,0,600,,Button-Switch at home,,,,,,,,,,,,,d
5,23,191,A,27.69539226637997,39.7954424382131,1.3847696133189984,0.6251053480512289,B,721.4510000194423,Incorrect,sub_005_day_23_data.csv,0,600,,Button-Switch at home,,,,,,,,,,,,,d
5,23,192,B,83.32719279987822,55.84204392937586,4.166359639993911,0.8771647748498285,B,791.5057000063825,Correct,sub_005_day_23_data.csv,1,600,,Button-Switch at home,,,,,,,,,,,,,d
5,23,193,A,37.268992446406784,51.46075972792784,1.8634496223203392,0.808343723547038,A,1532.4910999916028,Correct,sub_005_day_23_data.csv,1,600,,Button-Switch at home,,,,,,,,,,,,,k
5,23,194,B,51.32592045128533,21.672899957807616,2.566296022564267,0.3404371164471746,B,912.3025999870152,Correct,sub_005_day_23_data.csv,1,600,,Button-Switch at home,,,,,,,,,,,,,d
5,23,195,A,41.04901468719742,55.726708826873974,2.052450734359871,0.8753530952962238,A,1830.1118000235872,Correct,sub_005_day_23_data.csv,1,600,,Button-Switch at home,,,,,,,,,,,,,k
5,23,196,A,29.38995139708667,39.432631529699094,1.469497569854333,0.6194063276270796,A,1206.8288000009488,Correct,sub_005_day_23_data.csv,1,600,,Button-Switch at home,,,,,,,,,,,,,k
5,23,197,B,61.46191624203246,33.74166047044396,3.0730958121016227,0.5300127632693393,B,1613.085899996804,Correct,sub_005_day_23_data.csv,1,600,,Button-Switch at home,,,,,,,,,,,,,d
5,23,198,A,51.77129669062891,80.14763977604883,2.5885648345314456,1.2589561816149804,A,1566.797299979953,Correct,sub_005_day_23_data.csv,1,600,,Button-Switch at home,,,,,,,,,,,,,k
5,23,199,B,49.381243986183875,18.57658232540239,2.4690621993091937,0.2918002728114507,B,840.4466999927536,Correct,sub_005_day_23_data.csv,1,600,,Button-Switch at home,,,,,,,,,,,,,d
5,23,200,A,64.5670513395691,81.03068235563735,3.2283525669784554,1.2728269820191922,A,1886.0114999988584,Correct,sub_005_day_23_data.csv,1,600,,Button-Switch at home,,,,,,,,,,,,,k
5,23,201,A,34.847560374305516,49.28659470944383,1.7423780187152758,0.7741920192982316,A,1480.7884000183549,Correct,sub_005_day_23_data.csv,1,600,,Button-Switch at home,,,,,,,,,,,,,k
5,23,202,B,43.63751216943723,15.30904738985452,2.1818756084718616,0.2404739540671248,B,859.7117000026628,Correct,sub_005_day_23_data.csv,1,600,,Button-Switch at home,,,,,,,,,,,,,d
5,23,203,A,53.699448402229535,71.64633005961886,2.684972420111477,1.125417920859841,A,2163.598200015258,Correct,sub_005_day_23_data.csv,1,600,,Button-Switch at home,,,,,,,,,,,,,k
5,23,204,A,42.91779315015721,71.47960610739837,2.14588965750786,1.122799027142474,A,659.8017000069376,Correct,sub_005_day_23_data.csv,1,600,,Button-Switch at home,,,,,,,,,,,,,k
5,23,205,B,54.70502093290091,34.5617711751927,2.735251046645045,0.5428950320951843,B,824.226800003089,Correct,sub_005_day_23_data.csv,1,600,,Button-Switch at home,,,,,,,,,,,,,d
5,23,206,A,41.42874936718586,53.157450957252735,2.0714374683592927,0.8349952870543245,B,1615.7290999835825,Incorrect,sub_005_day_23_data.csv,0,600,,Button-Switch at home,,,,,,,,,,,,,d
5,23,207,B,37.98260152030785,11.386272807941214,1.8991300760153929,0.1788551550259867,A,1394.6357000095304,Incorrect,sub_005_day_23_data.csv,0,600,,Button-Switch at home,,,,,,,,,,,,,k
5,23,208,A,31.37163824674903,40.79923807548806,1.5685819123374514,0.6408729330500714,A,2877.067800000077,Correct,sub_005_day_23_data.csv,1,600,,Button-Switch at home,,,,,,,,,,,,,k
5,23,209,A,38.047054861689254,49.47992110628054,1.902352743084463,0.7772287832384674,A,619.0437999903224,Correct,sub_005_day_23_data.csv,1,600,,Button-Switch at home,,,,,,,,,,,,,k
5,23,210,B,76.49639531495345,56.99670020175601,3.824819765747673,0.8953020731634829,B,705.3569999989122,Correct,sub_005_day_23_data.csv,1,600,,Button-Switch at home,,,,,,,,,,,,,d
5,23,211,B,65.32077343522444,35.69156906165554,3.266038671761222,0.560641855795949,B,709.8723000090104,Correct,sub_005_day_23_data.csv,1,600,,Button-Switch at home,,,,,,,,,,,,,d
5,23,212,B,53.0053181435373,30.386934351183577,2.6502659071768653,0.4773168486139682,B,706.1209000239614,Correct,sub_005_day_23_data.csv,1,600,,Button-Switch at home,,,,,,,,,,,,,d
5,23,213,A,50.830925473017544,58.963670196280454,2.541546273650878,0.9261991655866308,B,1193.4254999796394,Incorrect,sub_005_day_23_data.csv,0,600,,Button-Switch at home,,,,,,,,,,,,,d
5,23,214,B,42.22076304492552,27.367463453373283,2.111038152246276,0.4298871106625233,B,1483.9042999956291,Correct,sub_005_day_23_data.csv,1,600,,Button-Switch at home,,,,,,,,,,,,,d
5,23,215,B,50.812870002341306,23.205478956550337,2.5406435001170653,0.3645108110646554,B,663.9222000085283,Correct,sub_005_day_23_data.csv,1,600,,Button-Switch at home,,,,,,,,,,,,,d
5,23,216,B,54.72470083907195,35.55457879115521,2.7362350419535977,0.5584900176588634,B,639.0252999844961,Correct,sub_005_day_23_data.csv,1,600,,Button-Switch at home,,,,,,,,,,,,,d
5,23,217,B,31.65747292470723,14.413551955679566,1.5828736462353614,0.2264075446804886,B,593.7933000095654,Correct,sub_005_day_23_data.csv,1,600,,Button-Switch at home,,,,,,,,,,,,,d
5,23,218,A,14.988832993813734,31.89858203825389,0.7494416496906866,0.5010617549565487,A,1721.1183999897912,Correct,sub_005_day_23_data.csv,1,600,,Button-Switch at home,,,,,,,,,,,,,k
5,23,219,A,49.50962553461641,72.58238785687026,2.4754812767308207,1.1401214823557428,A,878.3633999992162,Correct,sub_005_day_23_data.csv,1,600,,Button-Switch at home,,,,,,,,,,,,,k
5,23,220,B,59.456645245166285,44.00016331713145,2.972832262258314,0.6911529491692564,B,2597.8173000039533,Correct,sub_005_day_23_data.csv,1,600,,Button-Switch at home,,,,,,,,,,,,,d
5,23,221,B,68.70693956745896,39.23826965838777,3.435346978372948,0.6163532984918315,B,693.2251999969594,Correct,sub_005_day_23_data.csv,1,600,,Button-Switch at home,,,,,,,,,,,,,d
5,23,222,B,65.48426967175972,42.22000744711379,3.2742134835879857,0.6631903261517951,B,556.3635000144131,Correct,sub_005_day_23_data.csv,1,600,,Button-Switch at home,,,,,,,,,,,,,d
5,23,223,B,64.99048878647659,52.66765279977845,3.2495244393238294,0.8273015555880094,B,741.7728999862447,Correct,sub_005_day_23_data.csv,1,600,,Button-Switch at home,,,,,,,,,,,,,d
5,23,224,A,49.99135787167318,73.10911273361624,2.499567893583659,1.148395257371984,A,1506.1928000068292,Correct,sub_005_day_23_data.csv,1,600,,Button-Switch at home,,,,,,,,,,,,,k
5,23,225,B,64.16468595024796,52.74309423471206,3.2082342975123983,0.828486586876828,A,2554.3948000122327,Incorrect,sub_005_day_23_data.csv,0,600,,Button-Switch at home,,,,,,,,,,,,,k
5,23,226,A,32.82181467025697,65.0685901373715,1.6410907335128484,1.022095023775058,B,777.8171000245493,Incorrect,sub_005_day_23_data.csv,0,600,,Button-Switch at home,,,,,,,,,,,,,d
5,23,227,B,33.66465592242562,17.026999975500317,1.683232796121281,0.2674594901785269,B,3494.3896000040695,Correct,sub_005_day_23_data.csv,1,600,,Button-Switch at home,,,,,,,,,,,,,d
5,23,228,B,77.32343433301651,48.47548877047295,3.866171716650826,0.7614511970024617,B,762.6886999933049,Correct,sub_005_day_23_data.csv,1,600,,Button-Switch at home,,,,,,,,,,,,,d
5,23,229,A,36.42818605224492,44.542358030798795,1.8214093026122455,0.6996697238156191,A,1329.5614999951797,Correct,sub_005_day_23_data.csv,1,600,,Button-Switch at home,,,,,,,,,,,,,k
5,23,230,A,18.03019873760353,42.980733908554626,0.9015099368801764,0.6751397894650647,A,576.8021999974735,Correct,sub_005_day_23_data.csv,1,600,,Button-Switch at home,,,,,,,,,,,,,k
5,23,231,A,50.24672851711324,66.59434101563943,2.512336425855662,1.0460614625269316,A,755.8832999784499,Correct,sub_005_day_23_data.csv,1,600,,Button-Switch at home,,,,,,,,,,,,,k
5,23,232,A,57.87647103104201,73.47045582986217,2.8938235515521007,1.1540712214549418,A,815.736199991079,Correct,sub_005_day_23_data.csv,1,600,,Button-Switch at home,,,,,,,,,,,,,k
5,23,233,A,29.468252147125092,61.02946217782531,1.4734126073562548,0.9586485501519608,A,488.5779000178445,Correct,sub_005_day_23_data.csv,1,600,,Button-Switch at home,,,,,,,,,,,,,k
5,23,234,A,47.91078869283972,74.23307829436575,2.3955394346419863,1.1660504671146767,A,417.1284999756608,Correct,sub_005_day_23_data.csv,1,600,,Button-Switch at home,,,,,,,,,,,,,k
5,23,235,A,52.181533321670976,66.17908019661533,2.6090766660835487,1.0395385608350824,A,608.614700002363,Correct,sub_005_day_23_data.csv,1,600,,Button-Switch at home,,,,,,,,,,,,,k
5,23,236,B,82.89029018028745,59.62511807492052,4.144514509014373,0.9365891645679716,A,1013.4669999824836,Incorrect,sub_005_day_23_data.csv,0,600,,Button-Switch at home,,,,,,,,,,,,,k
5,23,237,B,41.41470180440682,23.34445300221639,2.070735090220341,0.3666938102691761,B,1096.1449000169523,Correct,sub_005_day_23_data.csv,1,600,,Button-Switch at home,,,,,,,,,,,,,d
5,23,238,B,53.10969391554691,38.61665101110666,2.655484695777346,0.6065889356136677,B,689.2170000064652,Correct,sub_005_day_23_data.csv,1,600,,Button-Switch at home,,,,,,,,,,,,,d
5,23,239,B,61.76921076832755,52.28795084768284,3.0884605384163772,0.8213372112717232,B,436.60789998830296,Correct,sub_005_day_23_data.csv,1,600,,Button-Switch at home,,,,,,,,,,,,,d
5,23,240,A,56.54648869277702,80.34000830468416,2.827324434638851,1.2619778993966937,A,771.514499996556,Correct,sub_005_day_23_data.csv,1,600,,Button-Switch at home,,,,,,,,,,,,,k
5,23,241,B,39.45779818071435,27.350206175676888,1.9728899090357177,0.4296160339783635,B,669.7855000093114,Correct,sub_005_day_23_data.csv,1,600,,Button-Switch at home,,,,,,,,,,,,,d
5,23,242,B,82.03455536365719,53.19647388834753,4.10172776818286,0.8356082578225694,B,916.9278999906963,Correct,sub_005_day_23_data.csv,1,600,,Button-Switch at home,,,,,,,,,,,,,d
5,23,243,A,31.961274035780647,45.38731143032731,1.5980637017890325,0.7129422207785415,A,1033.3456000080332,Correct,sub_005_day_23_data.csv,1,600,,Button-Switch at home,,,,,,,,,,,,,k
5,23,244,B,62.643111371321126,50.01656436795517,3.1321555685660565,0.7856583558808448,B,1543.144199997187,Correct,sub_005_day_23_data.csv,1,600,,Button-Switch at home,,,,,,,,,,,,,d
5,23,245,A,36.785998299969926,55.96949244317721,1.839299914998496,0.8791667314231747,A,924.9853999936022,Correct,sub_005_day_23_data.csv,1,600,,Button-Switch at home,,,,,,,,,,,,,k
5,23,246,A,18.734644144047824,42.82584246833336,0.9367322072023913,0.6727067604115493,A,565.1245000190102,Correct,sub_005_day_23_data.csv,1,600,,Button-Switch at home,,,,,,,,,,,,,k
5,23,247,A,15.66108608379794,31.97491965825127,0.783054304189897,0.5022608634874303,A,720.0150999997277,Correct,sub_005_day_23_data.csv,1,600,,Button-Switch at home,,,,,,,,,,,,,k
5,23,248,B,40.94933609073613,28.43066813142975,2.0474668045368065,0.4465878906917458,B,807.4172000051476,Correct,sub_005_day_23_data.csv,1,600,,Button-Switch at home,,,,,,,,,,,,,d
5,23,249,A,60.451717287961614,72.6960628482749,3.022585864398081,1.1419070849452118,A,1891.8912000081036,Correct,sub_005_day_23_data.csv,1,600,,Button-Switch at home,,,,,,,,,,,,,k
5,23,250,A,51.584986274698366,59.80513129506995,2.5792493137349184,0.9394168056178238,B,707.0770999998786,Incorrect,sub_005_day_23_data.csv,0,600,,Button-Switch at home,,,,,,,,,,,,,d
5,23,251,A,21.596446524351833,39.3440226975535,1.0798223262175917,0.6180144633465208,A,8247.10929999128,Correct,sub_005_day_23_data.csv,1,600,,Button-Switch at home,,,,,,,,,,,,,k
5,23,252,B,69.17860303583585,47.55499568512122,3.4589301517917925,0.7469921254293558,B,965.6581000017468,Correct,sub_005_day_23_data.csv,1,600,,Button-Switch at home,,,,,,,,,,,,,d
5,23,253,A,65.03523302409226,83.30529732742986,3.251761651204613,1.308556550444835,B,1054.349000012735,Incorrect,sub_005_day_23_data.csv,0,600,,Button-Switch at home,,,,,,,,,,,,,d
5,23,254,B,45.471723318106136,34.90718086491981,2.2735861659053067,0.5483207148138114,B,883.0459000018891,Correct,sub_005_day_23_data.csv,1,600,,Button-Switch at home,,,,,,,,,,,,,d
5,23,255,A,47.70061527005705,58.66678432939717,2.3850307635028525,0.9215356932948549,A,974.1488999861758,Correct,sub_005_day_23_data.csv,1,600,,Button-Switch at home,,,,,,,,,,,,,k
5,23,256,A,52.92175455697816,65.73686769123026,2.646087727848908,1.032592303043866,A,551.5339999983553,Correct,sub_005_day_23_data.csv,1,600,,Button-Switch at home,,,,,,,,,,,,,k
5,23,257,B,56.76258557375345,48.004803411880545,2.8381292786876724,0.7540576886789307,A,1569.9548000120558,Incorrect,sub_005_day_23_data.csv,0,600,,Button-Switch at home,,,,,,,,,,,,,k
5,23,258,B,35.15885578687923,17.344264504979424,1.7579427893439614,0.2724430697538078,B,1441.9777000148315,Correct,sub_005_day_23_data.csv,1,600,,Button-Switch at home,,,,,,,,,,,,,d
5,23,259,B,41.279034423710776,21.548091216433495,2.0639517211855387,0.3384766253221511,B,778.3630000194535,Correct,sub_005_day_23_data.csv,1,600,,Button-Switch at home,,,,,,,,,,,,,d
5,23,260,B,41.46008565600248,31.930839896926123,2.0730042828001243,0.5015684602156748,B,493.7058000068646,Correct,sub_005_day_23_data.csv,1,600,,Button-Switch at home,,,,,,,,,,,,,d
5,23,261,B,49.23482255875908,18.174114907540996,2.461741127937954,0.2854783293951377,B,662.9822000104468,Correct,sub_005_day_23_data.csv,1,600,,Button-Switch at home,,,,,,,,,,,,,d
5,23,262,B,62.545757524777216,47.81070782230877,3.127287876238861,0.7510088422874662,B,663.511999999173,Correct,sub_005_day_23_data.csv,1,600,,Button-Switch at home,,,,,,,,,,,,,d
5,23,263,B,74.71565037435921,45.74735634562481,3.735782518717961,0.7185977930828465,B,591.463599994313,Correct,sub_005_day_23_data.csv,1,600,,Button-Switch at home,,,,,,,,,,,,,d
5,23,264,A,30.37242289267052,57.00195487103281,1.518621144633526,0.8953846133154679,A,1076.597300008871,Correct,sub_005_day_23_data.csv,1,600,,Button-Switch at home,,,,,,,,,,,,,k
5,23,265,B,71.8575009382841,39.9313583054563,3.5928750469142052,0.6272403095014165,B,471.9706999894697,Correct,sub_005_day_23_data.csv,1,600,,Button-Switch at home,,,,,,,,,,,,,d
5,23,266,A,25.254313396526797,44.2090822866779,1.2627156698263398,0.6944346406688696,A,620.5655999947339,Correct,sub_005_day_23_data.csv,1,600,,Button-Switch at home,,,,,,,,,,,,,k
5,23,267,A,18.46489206437914,41.374026848739746,0.923244603218957,0.6499016939871382,A,402.21940001356415,Correct,sub_005_day_23_data.csv,1,600,,Button-Switch at home,,,,,,,,,,,,,k
5,23,268,A,26.167303438654407,57.52384829543727,1.3083651719327205,0.9035824960557972,A,499.5319000154268,Correct,sub_005_day_23_data.csv,1,600,,Button-Switch at home,,,,,,,,,,,,,k
5,23,269,B,39.31187526286769,16.392834190921743,1.9655937631433844,0.2574980373285766,B,741.493100009393,Correct,sub_005_day_23_data.csv,1,600,,Button-Switch at home,,,,,,,,,,,,,d
5,23,270,A,62.54356641262697,81.15082886807386,3.127178320631349,1.2747142390233166,A,860.2555000106804,Correct,sub_005_day_23_data.csv,1,600,,Button-Switch at home,,,,,,,,,,,,,k
5,23,271,A,57.69111290958618,74.35362588684701,2.8845556454793093,1.1679440242694124,A,720.3743999998551,Correct,sub_005_day_23_data.csv,1,600,,Button-Switch at home,,,,,,,,,,,,,k
5,23,272,A,53.17883190656353,60.30752198670657,2.6589415953281765,0.9473083401482112,A,1055.9659999853466,Correct,sub_005_day_23_data.csv,1,600,,Button-Switch at home,,,,,,,,,,,,,k
5,23,273,A,16.11073924430982,35.3269907196165,0.805536962215491,0.5549150725909099,A,632.596299983561,Correct,sub_005_day_23_data.csv,1,600,,Button-Switch at home,,,,,,,,,,,,,k
5,23,274,B,75.62545731161894,44.95754702283324,3.7812728655809473,0.7061914972517529,B,628.9128000207711,Correct,sub_005_day_23_data.csv,1,600,,Button-Switch at home,,,,,,,,,,,,,d
5,23,275,A,53.35573634776416,70.64437122825876,2.667786817388208,1.1096791883408397,A,1159.2295999871567,Correct,sub_005_day_23_data.csv,1,600,,Button-Switch at home,,,,,,,,,,,,,k
5,23,276,B,59.08404705461812,35.31519685018385,2.9542023527309063,0.5547298149230749,B,945.3385999950116,Correct,sub_005_day_23_data.csv,1,600,,Button-Switch at home,,,,,,,,,,,,,d
5,23,277,A,42.48837160236303,64.74283149001253,2.1244185801181517,1.0169780189081266,A,632.1361000009347,Correct,sub_005_day_23_data.csv,1,600,,Button-Switch at home,,,,,,,,,,,,,k
5,23,278,A,41.90323713001861,66.35792352687716,2.0951618565009307,1.0423478252975529,A,525.1022999873385,Correct,sub_005_day_23_data.csv,1,600,,Button-Switch at home,,,,,,,,,,,,,k
5,23,279,B,85.68702662549373,64.27984932403268,4.284351331274687,1.0097055120511995,B,420.78429998946376,Correct,sub_005_day_23_data.csv,1,600,,Button-Switch at home,,,,,,,,,,,,,d
5,23,280,B,75.43395115795279,49.35026829231932,3.7716975578976393,0.7751922015991783,B,404.40050000324845,Correct,sub_005_day_23_data.csv,1,600,,Button-Switch at home,,,,,,,,,,,,,d
5,23,281,B,59.34132141220378,46.098576085691505,2.9670660706101892,0.7241147398587927,B,735.6993999856059,Correct,sub_005_day_23_data.csv,1,600,,Button-Switch at home,,,,,,,,,,,,,d
5,23,282,A,27.373981763698517,41.278763540787054,1.3686990881849257,0.6484053014450342,A,686.6797999828123,Correct,sub_005_day_23_data.csv,1,600,,Button-Switch at home,,,,,,,,,,,,,k
5,23,283,A,17.416064509504245,47.59513548779443,0.8708032254752124,0.7476226399753293,A,555.3150000050664,Correct,sub_005_day_23_data.csv,1,600,,Button-Switch at home,,,,,,,,,,,,,k
5,23,284,A,48.73422837345599,56.966182627443345,2.4367114186728,0.8948227042271525,B,617.6742000097875,Incorrect,sub_005_day_23_data.csv,0,600,,Button-Switch at home,,,,,,,,,,,,,d
5,23,285,A,55.89487364238442,77.47210389948549,2.7947436821192206,1.216928962343844,A,859.2793999996502,Correct,sub_005_day_23_data.csv,1,600,,Button-Switch at home,,,,,,,,,,,,,k
5,23,286,B,46.49805113691277,35.54989096085915,2.324902556845638,0.5584163813927665,B,662.6499999838416,Correct,sub_005_day_23_data.csv,1,600,,Button-Switch at home,,,,,,,,,,,,,d
5,23,287,B,72.94298501791347,43.865148491533866,3.6471492508956738,0.6890321412481409,B,707.9832000017632,Correct,sub_005_day_23_data.csv,1,600,,Button-Switch at home,,,,,,,,,,,,,d
5,23,288,A,16.609266573401808,38.04914866905321,0.8304633286700904,0.5976746296702171,A,1806.0965000186116,Correct,sub_005_day_23_data.csv,1,600,,Button-Switch at home,,,,,,,,,,,,,k
5,23,289,B,83.97329338594365,60.72152769372079,4.198664669297182,0.953811526586712,A,1644.1756999993231,Incorrect,sub_005_day_23_data.csv,0,600,,Button-Switch at home,,,,,,,,,,,,,k
5,23,290,B,56.29176294393991,42.34743511070752,2.8145881471969956,0.6651919552108461,B,792.3534000001382,Correct,sub_005_day_23_data.csv,1,600,,Button-Switch at home,,,,,,,,,,,,,d
5,23,291,A,38.2677940319721,69.68625794195458,1.913389701598605,1.0946291800330394,A,692.2172000049613,Correct,sub_005_day_23_data.csv,1,600,,Button-Switch at home,,,,,,,,,,,,,k
5,23,292,A,15.489625448108027,37.55721011919435,0.7744812724054014,0.5899472769989461,A,740.5446000047959,Correct,sub_005_day_23_data.csv,1,600,,Button-Switch at home,,,,,,,,,,,,,k
5,23,293,A,52.63517852680674,64.57582891019973,2.631758926340337,1.0143547485187745,A,671.3968999974895,Correct,sub_005_day_23_data.csv,1,600,,Button-Switch at home,,,,,,,,,,,,,k
5,23,294,A,46.80923881943116,62.18896797636992,2.340461940971558,0.9768620246444732,A,553.7870000116527,Correct,sub_005_day_23_data.csv,1,600,,Button-Switch at home,,,,,,,,,,,,,k
5,23,295,B,37.03111391448171,12.694207699009825,1.8515556957240853,0.1994001482517612,B,551.6784000210464,Correct,sub_005_day_23_data.csv,1,600,,Button-Switch at home,,,,,,,,,,,,,d
5,23,296,B,66.13930977683906,42.419268965507726,3.306965488841953,0.6663203187634429,B,1130.0891999853775,Correct,sub_005_day_23_data.csv,1,600,,Button-Switch at home,,,,,,,,,,,,,d
5,23,297,B,72.0461597168279,62.19682859911771,3.602307985841395,0.9769854990178588,B,469.6624999924097,Correct,sub_005_day_23_data.csv,1,600,,Button-Switch at home,,,,,,,,,,,,,d
5,23,298,B,87.5394659385137,66.78754915508142,4.3769732969256845,1.0490963688843549,B,570.0601999997161,Correct,sub_005_day_23_data.csv,1,600,,Button-Switch at home,,,,,,,,,,,,,d
5,23,299,B,43.479414823503696,28.455511658554805,2.173970741175185,0.4469781319032724,B,724.5441999984905,Correct,sub_005_day_23_data.csv,1,600,,Button-Switch at home,,,,,,,,,,,,,d
5,23,300,A,50.66838230611654,76.01871670157828,2.533419115305827,1.1940992096250105,A,779.7779999964405,Correct,sub_005_day_23_data.csv,1,600,,Button-Switch at home,,,,,,,,,,,,,k
5,23,301,B,44.36674208372264,17.770013967373796,2.218337104186132,0.2791307266704476,B,1630.4902999836486,Correct,sub_005_day_23_data.csv,1,600,,Button-Switch at home,,,,,,,,,,,,,d
5,23,302,A,17.49287331257888,40.29082380825441,0.874643665628944,0.632886780415464,B,967.403499991633,Incorrect,sub_005_day_23_data.csv,0,600,,Button-Switch at home,,,,,,,,,,,,,d
5,23,303,A,60.35511036477197,81.72579514054615,3.017755518238598,1.283745788111621,A,909.19199999189,Correct,sub_005_day_23_data.csv,1,600,,Button-Switch at home,,,,,,,,,,,,,k
5,23,304,A,43.11032765918804,55.87438962993123,2.155516382959402,0.8776728599260284,B,1551.0445999971123,Incorrect,sub_005_day_23_data.csv,0,600,,Button-Switch at home,,,,,,,,,,,,,d
5,23,305,A,39.98503827093827,55.3944765163821,1.9992519135469136,0.8701344023665917,A,659.6777999948245,Correct,sub_005_day_23_data.csv,1,600,,Button-Switch at home,,,,,,,,,,,,,k
5,23,306,A,40.264307786988695,57.4081647068254,2.0132153893494347,0.9017653424951776,A,535.9514000010677,Correct,sub_005_day_23_data.csv,1,600,,Button-Switch at home,,,,,,,,,,,,,k
5,23,307,A,46.72987381347434,68.89097731215523,2.3364936906737173,1.08213694111244,A,1993.3810999791604,Correct,sub_005_day_23_data.csv,1,600,,Button-Switch at home,,,,,,,,,,,,,k
5,23,308,B,37.74212421475955,15.997875098620304,1.8871062107379777,0.2512940344143632,B,723.0150999967009,Correct,sub_005_day_23_data.csv,1,600,,Button-Switch at home,,,,,,,,,,,,,d
5,23,309,A,60.20684130239218,84.42470861167202,3.0103420651196084,1.326140221779439,B,587.0996000012383,Incorrect,sub_005_day_23_data.csv,0,600,,Button-Switch at home,,,,,,,,,,,,,d
5,23,310,B,61.20961850189549,40.97384972389977,3.060480925094774,0.6436157264094784,B,923.7024000030942,Correct,sub_005_day_23_data.csv,1,600,,Button-Switch at home,,,,,,,,,,,,,d
5,23,311,A,62.32284644103901,85.99158110860202,3.1161423220519504,1.350752597406775,A,914.4131999928504,Correct,sub_005_day_23_data.csv,1,600,,Button-Switch at home,,,,,,,,,,,,,k
5,23,312,A,67.00897716981686,83.48311114627509,3.3504488584908425,1.31134964337979,A,594.2683000175748,Correct,sub_005_day_23_data.csv,1,600,,Button-Switch at home,,,,,,,,,,,,,k
5,23,313,A,29.83873656814252,60.954680659203355,1.491936828407126,0.9574738848043256,A,1829.1738999832887,Correct,sub_005_day_23_data.csv,1,600,,Button-Switch at home,,,,,,,,,,,,,k
5,23,314,B,46.42097662646706,20.929859646252552,2.321048831323353,0.3287654665266624,B,353.9945999800693,Correct,sub_005_day_23_data.csv,1,600,,Button-Switch at home,,,,,,,,,,,,,d
5,23,315,A,47.64670369081498,61.86318881448695,2.3823351845407488,0.9717446975361524,B,1267.536100000143,Incorrect,sub_005_day_23_data.csv,0,600,,Button-Switch at home,,,,,,,,,,,,,d
5,23,316,A,13.810483621152372,32.447467872020354,0.6905241810576186,0.5096836334716499,A,439.8063000116963,Correct,sub_005_day_23_data.csv,1,600,,Button-Switch at home,,,,,,,,,,,,,k
5,23,317,B,36.462573288306025,12.26298545726356,1.8231286644153013,0.1926265251180883,B,804.6308000048157,Correct,sub_005_day_23_data.csv,1,600,,Button-Switch at home,,,,,,,,,,,,,d
5,23,318,B,61.20964237315727,51.53041247174306,3.0604821186578635,0.8094378262883994,B,1166.5836999891326,Correct,sub_005_day_23_data.csv,1,600,,Button-Switch at home,,,,,,,,,,,,,d
5,23,319,B,67.43092359435734,54.72100546764345,3.371546179717867,0.8595555438709779,B,685.7478000165429,Correct,sub_005_day_23_data.csv,1,600,,Button-Switch at home,,,,,,,,,,,,,d
5,23,320,A,46.23993321250736,72.52420486061118,2.311996660625368,1.1392075459876865,A,588.7297999870498,Correct,sub_005_day_23_data.csv,1,600,,Button-Switch at home,,,,,,,,,,,,,k
5,23,321,B,50.94754138720464,23.165519265090165,2.547377069360232,0.3638831256990004,B,806.5298000001349,Correct,sub_005_day_23_data.csv,1,600,,Button-Switch at home,,,,,,,,,,,,,d
5,23,322,B,80.34119791189259,61.33051300704684,4.01705989559463,0.963377445519158,B,757.8718999866396,Correct,sub_005_day_23_data.csv,1,600,,Button-Switch at home,,,,,,,,,,,,,d
5,23,323,A,54.51400634781855,80.8864956279348,2.7257003173909276,1.2705621021967146,A,652.397199999541,Correct,sub_005_day_23_data.csv,1,600,,Button-Switch at home,,,,,,,,,,,,,k
5,23,324,A,62.824637364674906,86.22452540556412,3.1412318682337452,1.3544116778669335,A,681.1363999731839,Correct,sub_005_day_23_data.csv,1,600,,Button-Switch at home,,,,,,,,,,,,,k
5,23,325,A,31.49848373138308,59.47739464173363,1.574924186569154,0.9342687303056566,A,683.7558000115678,Correct,sub_005_day_23_data.csv,1,600,,Button-Switch at home,,,,,,,,,,,,,k
5,23,326,B,78.37859295344504,47.24535952375534,3.918929647672252,0.7421283719801917,B,1227.7393999975177,Correct,sub_005_day_23_data.csv,1,600,,Button-Switch at home,,,,,,,,,,,,,d
5,23,327,B,42.49494082876418,18.217441562695832,2.124747041438209,0.2861589029028329,B,741.678199992748,Correct,sub_005_day_23_data.csv,1,600,,Button-Switch at home,,,,,,,,,,,,,d
5,23,328,B,70.09827203407386,45.31011630896415,3.504913601703693,0.7117296426477041,B,506.95559999439865,Correct,sub_005_day_23_data.csv,1,600,,Button-Switch at home,,,,,,,,,,,,,d
5,23,329,A,25.650870453494782,43.43515592875087,1.2825435226747393,0.6822778338664545,A,802.8647000028286,Correct,sub_005_day_23_data.csv,1,600,,Button-Switch at home,,,,,,,,,,,,,k
5,23,330,B,55.79949180087365,37.58537489690633,2.7899745900436823,0.5903896882926958,B,837.1874000004027,Correct,sub_005_day_23_data.csv,1,600,,Button-Switch at home,,,,,,,,,,,,,d
5,23,331,B,79.75641215196121,52.64226387377591,3.987820607598061,0.8269027472709486,B,826.3021000020672,Correct,sub_005_day_23_data.csv,1,600,,Button-Switch at home,,,,,,,,,,,,,d
5,23,332,A,45.68444157831386,73.69784347050465,2.284222078915693,1.1576430181617394,B,621.1643000133336,Incorrect,sub_005_day_23_data.csv,0,600,,Button-Switch at home,,,,,,,,,,,,,d
5,23,333,A,63.9978341863828,76.30675045981536,3.19989170931914,1.1986236333193276,A,1801.1662999924738,Correct,sub_005_day_23_data.csv,1,600,,Button-Switch at home,,,,,,,,,,,,,k
5,23,334,B,89.37058121015141,65.50483539942348,4.468529060507571,1.0289475483271873,B,751.6551000007894,Correct,sub_005_day_23_data.csv,1,600,,Button-Switch at home,,,,,,,,,,,,,d
5,23,335,B,50.41365374125128,43.30937439733049,2.520682687062564,0.6803020621911167,B,934.5254999934696,Correct,sub_005_day_23_data.csv,1,600,,Button-Switch at home,,,,,,,,,,,,,d
5,23,336,B,50.50614002890249,31.2284451942721,2.5253070014451247,0.4905352700267835,B,659.7508999984711,Correct,sub_005_day_23_data.csv,1,600,,Button-Switch at home,,,,,,,,,,,,,d
5,23,337,B,63.2359460852449,50.46369740610781,3.1617973042622447,0.7926819052200331,B,422.38230002112687,Correct,sub_005_day_23_data.csv,1,600,,Button-Switch at home,,,,,,,,,,,,,d
5,23,338,B,35.937354210529406,23.960104809683617,1.7968677105264703,0.3763644462467175,B,591.9759999960661,Correct,sub_005_day_23_data.csv,1,600,,Button-Switch at home,,,,,,,,,,,,,d
5,23,339,A,43.000722598677925,60.297936862806594,2.150036129933896,0.947157777374072,A,626.9488999969326,Correct,sub_005_day_23_data.csv,1,600,,Button-Switch at home,,,,,,,,,,,,,k
5,23,340,B,82.74787591962956,53.81471961661709,4.137393795981478,0.8453196390127939,B,570.0383000075817,Correct,sub_005_day_23_data.csv,1,600,,Button-Switch at home,,,,,,,,,,,,,d
5,23,341,A,57.42679206914397,66.56890623810224,2.8713396034571987,1.045661933975649,A,680.4345000127796,Correct,sub_005_day_23_data.csv,1,600,,Button-Switch at home,,,,,,,,,,,,,k
5,23,342,A,60.33211568716749,85.90267940746764,3.0166057843583745,1.3493561327508976,A,563.2647999736946,Correct,sub_005_day_23_data.csv,1,600,,Button-Switch at home,,,,,,,,,,,,,k
5,23,343,A,41.92207140565401,58.43247329481407,2.0961035702827004,0.9178551441703482,A,549.0371000196319,Correct,sub_005_day_23_data.csv,1,600,,Button-Switch at home,,,,,,,,,,,,,k
5,23,344,B,46.62745173872123,20.589099330322934,2.331372586936061,0.3234128160008653,A,532.418199989479,Incorrect,sub_005_day_23_data.csv,0,600,,Button-Switch at home,,,,,,,,,,,,,k
5,23,345,A,20.91742446975977,42.10043452124451,1.0458712234879883,0.6613120790243993,A,656.4371999993455,Correct,sub_005_day_23_data.csv,1,600,,Button-Switch at home,,,,,,,,,,,,,k
5,23,346,B,71.91409319432428,41.80428708857459,3.5957046597162137,0.6566602060301228,B,877.1370000031311,Correct,sub_005_day_23_data.csv,1,600,,Button-Switch at home,,,,,,,,,,,,,d
5,23,347,B,47.84038562715137,35.27679169807703,2.3920192813575683,0.554126548204481,B,735.1282000017818,Correct,sub_005_day_23_data.csv,1,600,,Button-Switch at home,,,,,,,,,,,,,d
5,23,348,A,45.88104490035604,52.60882971663445,2.294052245017802,0.826377564758676,A,785.8817999949679,Correct,sub_005_day_23_data.csv,1,600,,Button-Switch at home,,,,,,,,,,,,,k
5,23,349,B,38.70124293764235,16.93460652905013,1.9350621468821176,0.2660081773154881,A,666.2798000033945,Incorrect,sub_005_day_23_data.csv,0,600,,Button-Switch at home,,,,,,,,,,,,,k
5,23,350,A,62.88822122779215,72.28272556772777,3.144411061389608,1.1354143981251033,A,1466.38540001004,Correct,sub_005_day_23_data.csv,1,600,,Button-Switch at home,,,,,,,,,,,,,k
5,23,351,B,53.11509294470799,40.30015797682321,2.655754647235399,0.6330334011924794,B,847.7254000026733,Correct,sub_005_day_23_data.csv,1,600,,Button-Switch at home,,,,,,,,,,,,,d
5,23,352,B,61.1510318203889,31.2887572016964,3.057551591019445,0.4914826488240207,B,731.5983999869786,Correct,sub_005_day_23_data.csv,1,600,,Button-Switch at home,,,,,,,,,,,,,d
5,23,353,A,37.33151804237281,61.89232631272668,1.8665759021186403,0.972202388288222,A,674.9795000068843,Correct,sub_005_day_23_data.csv,1,600,,Button-Switch at home,,,,,,,,,,,,,k
5,23,354,A,54.643294066635704,77.06677588401266,2.732164703331785,1.210562084765326,A,898.5931999923196,Correct,sub_005_day_23_data.csv,1,600,,Button-Switch at home,,,,,,,,,,,,,k
5,23,355,B,65.06283806305962,34.98003420473587,3.253141903152981,0.5494650923995894,B,1549.7514000162482,Correct,sub_005_day_23_data.csv,1,600,,Button-Switch at home,,,,,,,,,,,,,d
5,23,356,B,33.094171033591564,12.97372583047006,1.6547085516795783,0.2037908087934643,B,1372.700200008694,Correct,sub_005_day_23_data.csv,1,600,,Button-Switch at home,,,,,,,,,,,,,d
5,23,357,B,53.680467962020856,29.262974720012707,2.684023398101043,0.4596617320128787,B,829.8313000123017,Correct,sub_005_day_23_data.csv,1,600,,Button-Switch at home,,,,,,,,,,,,,d
5,23,358,B,65.58215276563064,54.405205571304975,3.2791076382815323,0.8545949706992709,A,572.7540999941994,Incorrect,sub_005_day_23_data.csv,0,600,,Button-Switch at home,,,,,,,,,,,,,k
5,23,359,A,54.71184737112159,74.24841504370929,2.73559236855608,1.1662913762100149,A,508.4671000076923,Correct,sub_005_day_23_data.csv,1,600,,Button-Switch at home,,,,,,,,,,,,,k
5,23,360,A,49.54783610335775,58.637080485789554,2.477391805167888,0.9210691064105494,A,894.6486000204459,Correct,sub_005_day_23_data.csv,1,600,,Button-Switch at home,,,,,,,,,,,,,k
5,23,361,A,59.651669526171446,82.48983157359038,2.982583476308572,1.2957472443372546,A,628.9050999912433,Correct,sub_005_day_23_data.csv,1,600,,Button-Switch at home,,,,,,,,,,,,,k
5,23,362,B,53.23303247510272,23.32281601945666,2.661651623755136,0.3663539373387569,B,714.70589999808,Correct,sub_005_day_23_data.csv,1,600,,Button-Switch at home,,,,,,,,,,,,,d
5,23,363,A,41.094531067432385,54.08930469153453,2.0547265533716192,0.8496328112835241,A,1101.3553999946453,Correct,sub_005_day_23_data.csv,1,600,,Button-Switch at home,,,,,,,,,,,,,k
5,23,364,A,19.284875565170008,37.3166870517706,0.9642437782585004,0.5861691494907594,A,937.4013999768068,Correct,sub_005_day_23_data.csv,1,600,,Button-Switch at home,,,,,,,,,,,,,k
5,23,365,B,35.13786990453853,20.166331597833295,1.7568934952269268,0.316771995988044,A,432.60909998207353,Incorrect,sub_005_day_23_data.csv,0,600,,Button-Switch at home,,,,,,,,,,,,,k
5,23,366,B,86.56085652480596,60.60588374208454,4.3280428262402975,0.9519949956422492,B,752.1323999972083,Correct,sub_005_day_23_data.csv,1,600,,Button-Switch at home,,,,,,,,,,,,,d
5,23,367,A,19.22459094880556,49.72730610749748,0.961229547440278,0.7811146977506248,A,557.226900011301,Correct,sub_005_day_23_data.csv,1,600,,Button-Switch at home,,,,,,,,,,,,,k
5,23,368,A,58.16328548839722,69.2398689326303,2.908164274419861,1.0876173178713575,A,653.7138000130653,Correct,sub_005_day_23_data.csv,1,600,,Button-Switch at home,,,,,,,,,,,,,k
5,23,369,A,13.872113344750527,39.99413618962279,0.6936056672375264,0.6282264221999433,A,1544.5265999878757,Correct,sub_005_day_23_data.csv,1,600,,Button-Switch at home,,,,,,,,,,,,,k
5,23,370,B,37.91602046844282,14.982174103362103,1.8958010234221407,0.2353394404896282,B,730.0912000064272,Correct,sub_005_day_23_data.csv,1,600,,Button-Switch at home,,,,,,,,,,,,,d
5,23,371,B,43.1969679830886,30.91192300903695,2.1598483991544297,0.4855633511676188,B,787.2557999799028,Correct,sub_005_day_23_data.csv,1,600,,Button-Switch at home,,,,,,,,,,,,,d
5,23,372,A,40.17608449574526,65.42986204910679,2.008804224787263,1.0277698696943376,A,700.9881999983918,Correct,sub_005_day_23_data.csv,1,600,,Button-Switch at home,,,,,,,,,,,,,k
5,23,373,B,49.64457984822256,22.526133571910968,2.4822289924111285,0.3538396787164896,A,549.7286000172608,Incorrect,sub_005_day_23_data.csv,0,600,,Button-Switch at home,,,,,,,,,,,,,k
5,23,374,B,65.12170470499312,44.28447373848929,3.2560852352496563,0.6956188868246405,A,1447.1267000189982,Incorrect,sub_005_day_23_data.csv,0,600,,Button-Switch at home,,,,,,,,,,,,,k
5,23,375,B,44.37252005462358,31.124922401873057,2.218626002731179,0.4889091378063838,B,640.9064000181388,Correct,sub_005_day_23_data.csv,1,600,,Button-Switch at home,,,,,,,,,,,,,d
5,23,376,A,59.54367430892989,68.4227998748749,2.977183715446494,1.074782827124758,A,641.6565999970771,Correct,sub_005_day_23_data.csv,1,600,,Button-Switch at home,,,,,,,,,,,,,k
5,23,377,A,59.21987160378654,70.31497660874203,2.9609935801893266,1.1045050697568106,A,757.1842999896035,Correct,sub_005_day_23_data.csv,1,600,,Button-Switch at home,,,,,,,,,,,,,k
5,23,378,A,25.6335693568712,42.193789202442055,1.2816784678435598,0.6627784909275415,A,633.7456999754068,Correct,sub_005_day_23_data.csv,1,600,,Button-Switch at home,,,,,,,,,,,,,k
5,23,379,B,43.504319390639736,26.898321463118677,2.175215969531987,0.4225178455121514,B,767.6317000004929,Correct,sub_005_day_23_data.csv,1,600,,Button-Switch at home,,,,,,,,,,,,,d
5,23,380,B,59.25914315935317,40.82279508555332,2.962957157967659,0.6412429656988791,B,713.5869999765418,Correct,sub_005_day_23_data.csv,1,600,,Button-Switch at home,,,,,,,,,,,,,d
5,23,381,A,48.30729344857391,76.34532093575814,2.4153646724286957,1.199229496938664,B,469.16750000673346,Incorrect,sub_005_day_23_data.csv,0,600,,Button-Switch at home,,,,,,,,,,,,,d
5,23,382,B,89.48469551609617,65.69257065072863,4.474234775804808,1.0318964867587874,B,589.5301999989897,Correct,sub_005_day_23_data.csv,1,600,,Button-Switch at home,,,,,,,,,,,,,d
5,23,383,B,42.194162942581,32.47659763125575,2.1097081471290497,0.5101412026597237,B,633.1178999971598,Correct,sub_005_day_23_data.csv,1,600,,Button-Switch at home,,,,,,,,,,,,,d
5,23,384,A,35.66464468656835,56.77103167981161,1.7832322343284177,0.8917572803100478,A,837.4479000049178,Correct,sub_005_day_23_data.csv,1,600,,Button-Switch at home,,,,,,,,,,,,,k
5,23,385,A,51.90988344521374,78.72664410159545,2.5954941722606866,1.2366352337567523,A,2540.5718999973033,Correct,sub_005_day_23_data.csv,1,600,,Button-Switch at home,,,,,,,,,,,,,k
5,23,386,B,77.96152718235936,51.891924583181805,3.898076359117968,0.8151164452557976,B,641.4746999798808,Correct,sub_005_day_23_data.csv,1,600,,Button-Switch at home,,,,,,,,,,,,,d
5,23,387,B,41.92548881834236,31.122464130959607,2.096274440917118,0.4888705233771727,A,597.9611000220757,Incorrect,sub_005_day_23_data.csv,0,600,,Button-Switch at home,,,,,,,,,,,,,k
5,23,388,A,28.777760602366808,52.17868225971501,1.4388880301183402,0.8196208243055837,B,634.014000010211,Incorrect,sub_005_day_23_data.csv,0,600,,Button-Switch at home,,,,,,,,,,,,,d
5,23,389,B,54.90215605171585,43.481099274724784,2.7451078025857925,0.6829995102574193,B,1504.0534000145271,Correct,sub_005_day_23_data.csv,1,600,,Button-Switch at home,,,,,,,,,,,,,d
5,23,390,B,77.08170467857423,51.24214808523311,3.854085233928711,0.8049097798936431,B,592.2521000029519,Correct,sub_005_day_23_data.csv,1,600,,Button-Switch at home,,,,,,,,,,,,,d
5,23,391,A,41.04060116608149,64.90061862556729,2.0520300583040747,1.0194565334375754,B,687.439400004223,Incorrect,sub_005_day_23_data.csv,0,600,,Button-Switch at home,,,,,,,,,,,,,d
5,23,392,B,66.20488096350256,55.82512526102847,3.310244048175128,0.8768990170288851,B,737.574400001904,Correct,sub_005_day_23_data.csv,1,600,,Button-Switch at home,,,,,,,,,,,,,d
5,23,393,B,76.36390194795506,51.3561129682283,3.818195097397753,0.8066999360895677,A,1622.411099990131,Incorrect,sub_005_day_23_data.csv,0,600,,Button-Switch at home,,,,,,,,,,,,,k
5,23,394,A,62.51174913150574,80.86155504057825,3.125587456575287,1.2701703363666366,A,757.3165000067092,Correct,sub_005_day_23_data.csv,1,600,,Button-Switch at home,,,,,,,,,,,,,k
5,23,395,A,16.453369777664175,45.326548531425814,0.8226684888832088,0.7119877593945427,A,841.4843000064138,Correct,sub_005_day_23_data.csv,1,600,,Button-Switch at home,,,,,,,,,,,,,k
5,23,396,A,30.544052734934695,43.29592045198852,1.5272026367467348,0.6800907281118761,A,726.2391000112984,Correct,sub_005_day_23_data.csv,1,600,,Button-Switch at home,,,,,,,,,,,,,k
5,23,397,B,49.37031763435856,30.171528903045782,2.468515881717928,0.4739332677469036,A,522.1826999913901,Incorrect,sub_005_day_23_data.csv,0,600,,Button-Switch at home,,,,,,,,,,,,,k
5,23,398,B,38.76660090999448,24.576428218803517,1.938330045499724,0.3860456317183501,B,696.1754999938421,Correct,sub_005_day_23_data.csv,1,600,,Button-Switch at home,,,,,,,,,,,,,d
5,23,399,B,56.24131986034082,25.10649738067464,2.812065993017041,0.3943719386424942,B,603.5093999817036,Correct,sub_005_day_23_data.csv,1,600,,Button-Switch at home,,,,,,,,,,,,,d
5,23,400,A,64.55956203638141,75.99004578292518,3.2279781018190703,1.193648847887949,A,756.5199000237044,Correct,sub_005_day_23_data.csv,1,600,,Button-Switch at home,,,,,,,,,,,,,k
5,23,401,A,33.23237119532451,54.12596096942421,1.6616185597662254,0.850208606750155,B,568.8195000111591,Incorrect,sub_005_day_23_data.csv,0,600,,Button-Switch at home,,,,,,,,,,,,,d
5,23,402,B,85.07931681956666,59.71185694957516,4.253965840978333,0.93795165562495,B,706.3954999903217,Correct,sub_005_day_23_data.csv,1,600,,Button-Switch at home,,,,,,,,,,,,,d
5,23,403,A,51.82522110915184,65.51681413038614,2.5912610554575917,1.029135709793145,B,459.19510000385344,Incorrect,sub_005_day_23_data.csv,0,600,,Button-Switch at home,,,,,,,,,,,,,d
5,23,404,B,63.32849795090263,31.170130925522017,3.1664248975451312,0.4896192716352599,B,1611.9682000135072,Correct,sub_005_day_23_data.csv,1,600,,Button-Switch at home,,,,,,,,,,,,,d
5,23,405,A,37.317088604055954,68.26520120692116,1.8658544302027975,1.072307273037463,A,811.5146999771241,Correct,sub_005_day_23_data.csv,1,600,,Button-Switch at home,,,,,,,,,,,,,k
5,23,406,A,55.5278623976416,71.82885402925432,2.7763931198820795,1.1282850006703948,A,513.4432000049856,Correct,sub_005_day_23_data.csv,1,600,,Button-Switch at home,,,,,,,,,,,,,k
5,23,407,B,39.42972734792789,19.855979232969467,1.9714863673963945,0.3118969924406419,B,502.06540001090616,Correct,sub_005_day_23_data.csv,1,600,,Button-Switch at home,,,,,,,,,,,,,d
5,23,408,B,50.85724060779326,30.75982839991111,2.5428620303896627,0.4831742546342171,B,647.1481999906246,Correct,sub_005_day_23_data.csv,1,600,,Button-Switch at home,,,,,,,,,,,,,d
5,23,409,A,39.64859737294745,54.187240240783815,1.9824298686473725,0.8511711792937582,A,705.3349000052549,Correct,sub_005_day_23_data.csv,1,600,,Button-Switch at home,,,,,,,,,,,,,k
5,23,410,A,51.98741074144512,59.36981880323699,2.5993705370722555,0.9325789329860324,A,636.5900000091642,Correct,sub_005_day_23_data.csv,1,600,,Button-Switch at home,,,,,,,,,,,,,k
5,23,411,B,30.79025692221671,14.01755616151048,1.5395128461108354,0.2201872572914183,B,723.3979000011459,Correct,sub_005_day_23_data.csv,1,600,,Button-Switch at home,,,,,,,,,,,,,d
5,23,412,B,57.52821031188354,35.78524268052747,2.876410515594177,0.5621132775603651,A,919.2348000069614,Incorrect,sub_005_day_23_data.csv,0,600,,Button-Switch at home,,,,,,,,,,,,,k
5,23,413,A,36.836149690352514,54.93671198383575,1.8418074845176255,0.8629438539039838,A,898.5235000145622,Correct,sub_005_day_23_data.csv,1,600,,Button-Switch at home,,,,,,,,,,,,,k
5,23,414,B,45.53970228631346,26.321917433718585,2.2769851143156727,0.413463712190837,B,402.91269999579526,Correct,sub_005_day_23_data.csv,1,600,,Button-Switch at home,,,,,,,,,,,,,d
5,23,415,B,70.19870141667506,49.71767081865263,3.5099350708337536,0.7809633469873737,B,472.10980000090785,Correct,sub_005_day_23_data.csv,1,600,,Button-Switch at home,,,,,,,,,,,,,d
5,23,416,A,32.94359233795443,62.21918629398889,1.6471796168977215,0.9773366928676512,A,537.6784999971278,Correct,sub_005_day_23_data.csv,1,600,,Button-Switch at home,,,,,,,,,,,,,k
5,23,417,A,33.816465162065825,48.898658605157834,1.6908232581032911,0.7680983332217958,A,792.5463000137825,Correct,sub_005_day_23_data.csv,1,600,,Button-Switch at home,,,,,,,,,,,,,k
5,23,418,B,85.68717220589319,60.00743190150836,4.284358610294659,0.9425945361128424,B,839.9830000125803,Correct,sub_005_day_23_data.csv,1,600,,Button-Switch at home,,,,,,,,,,,,,d
5,23,419,A,53.98870738733171,70.74788852784354,2.699435369366585,1.1113052342803145,A,755.6554999900982,Correct,sub_005_day_23_data.csv,1,600,,Button-Switch at home,,,,,,,,,,,,,k
5,23,420,B,83.28199720911165,53.65631220291876,4.164099860455583,0.8428313811770497,B,1388.0444999958854,Correct,sub_005_day_23_data.csv,1,600,,Button-Switch at home,,,,,,,,,,,,,d
5,23,421,B,42.557000744226706,24.292727556018946,2.1278500372113354,0.3815892721282372,B,534.5060999970883,Correct,sub_005_day_23_data.csv,1,600,,Button-Switch at home,,,,,,,,,,,,,d
5,23,422,A,42.13193143400233,67.9736269304098,2.1065965717001167,1.0677272350121436,B,442.7111999830231,Incorrect,sub_005_day_23_data.csv,0,600,,Button-Switch at home,,,,,,,,,,,,,d
5,23,423,A,25.79360807157063,37.33387792680419,1.2896804035785316,0.586439183124331,A,777.2305999824312,Correct,sub_005_day_23_data.csv,1,600,,Button-Switch at home,,,,,,,,,,,,,k
5,23,424,B,59.24799747203393,35.42634696923318,2.9623998736016968,0.55647575691033,B,573.5494999971706,Correct,sub_005_day_23_data.csv,1,600,,Button-Switch at home,,,,,,,,,,,,,d
5,23,425,B,69.90385993822261,47.39342787799873,3.4951929969111304,0.7444542242497927,B,759.8520000174176,Correct,sub_005_day_23_data.csv,1,600,,Button-Switch at home,,,,,,,,,,,,,d
5,23,426,A,39.51920199323482,71.9264615247406,1.975960099661741,1.12981821562417,A,513.6007000110112,Correct,sub_005_day_23_data.csv,1,600,,Button-Switch at home,,,,,,,,,,,,,k
5,23,427,A,64.92571295350537,76.53697339069862,3.2462856476752684,1.2022399666610812,A,737.8343000018504,Correct,sub_005_day_23_data.csv,1,600,,Button-Switch at home,,,,,,,,,,,,,k
5,23,428,B,71.59184979192975,50.079146491148464,3.5795924895964872,0.7866413935731954,B,523.6846999905538,Correct,sub_005_day_23_data.csv,1,600,,Button-Switch at home,,,,,,,,,,,,,d
5,23,429,A,34.91540079914472,65.41152149420148,1.745770039957236,1.0274817769315712,A,753.8769000093453,Correct,sub_005_day_23_data.csv,1,600,,Button-Switch at home,,,,,,,,,,,,,k
5,23,430,A,38.39000949175326,66.79725532426704,1.9195004745876632,1.0492488330333951,A,533.229399996344,Correct,sub_005_day_23_data.csv,1,600,,Button-Switch at home,,,,,,,,,,,,,k
5,23,431,B,53.23041895821907,33.81113098918328,2.6615209479109536,0.5311040036259019,B,786.2009000091348,Correct,sub_005_day_23_data.csv,1,600,,Button-Switch at home,,,,,,,,,,,,,d
5,23,432,B,77.51278046150527,50.12435688550606,3.875639023075263,0.787351556787094,B,595.0557999894954,Correct,sub_005_day_23_data.csv,1,600,,Button-Switch at home,,,,,,,,,,,,,d
5,23,433,A,33.80561853767095,55.87765280735246,1.6902809268835477,0.8777241177970978,A,798.9374999888241,Correct,sub_005_day_23_data.csv,1,600,,Button-Switch at home,,,,,,,,,,,,,k
5,23,434,B,38.796779825221805,27.570006500912974,1.93983899126109,0.4330686494134552,B,927.840999996988,Correct,sub_005_day_23_data.csv,1,600,,Button-Switch at home,,,,,,,,,,,,,d
5,23,435,A,65.58828388160119,81.92338862092093,3.279414194080059,1.2868495792433343,A,555.9982999984641,Correct,sub_005_day_23_data.csv,1,600,,Button-Switch at home,,,,,,,,,,,,,k
5,23,436,A,19.59538960817664,35.036962103837766,0.9797694804088322,0.5503593137476036,A,631.1115999997128,Correct,sub_005_day_23_data.csv,1,600,,Button-Switch at home,,,,,,,,,,,,,k
5,23,437,B,63.290404634081064,48.495931784525375,3.1645202317040533,0.7617723151162833,B,850.6568999728188,Correct,sub_005_day_23_data.csv,1,600,,Button-Switch at home,,,,,,,,,,,,,d
5,23,438,A,48.29218978319403,59.391202413817126,2.4146094891597016,0.9329148259555614,A,2591.5974999952596,Correct,sub_005_day_23_data.csv,1,600,,Button-Switch at home,,,,,,,,,,,,,k
5,23,439,A,51.82493813885364,74.4916154136872,2.5912469069426822,1.1701115586883797,A,725.6076000048779,Correct,sub_005_day_23_data.csv,1,600,,Button-Switch at home,,,,,,,,,,,,,k
5,23,440,A,51.04882218708234,72.578200846486,2.552441109354117,1.1400557129504243,A,594.567799998913,Correct,sub_005_day_23_data.csv,1,600,,Button-Switch at home,,,,,,,,,,,,,k
5,23,441,B,54.04821178444412,27.274299750192487,2.7024105892222057,0.4284236986350531,B,692.9643000185024,Correct,sub_005_day_23_data.csv,1,600,,Button-Switch at home,,,,,,,,,,,,,d
5,23,442,B,33.966730939455324,20.510461741862812,1.698336546972766,0.3221775796498536,B,4648.09589998913,Correct,sub_005_day_23_data.csv,1,600,,Button-Switch at home,,,,,,,,,,,,,d
5,23,443,A,58.20884360746423,67.06830381746207,2.9104421803732117,1.0535064528083355,B,4002.2437000006903,Incorrect,sub_005_day_23_data.csv,0,600,,Button-Switch at home,,,,,,,,,,,,,d
5,23,444,A,55.13222151219438,75.54671808478572,2.7566110756097193,1.18668507268991,A,1721.735400002217,Correct,sub_005_day_23_data.csv,1,600,,Button-Switch at home,,,,,,,,,,,,,k
5,23,445,B,61.94726716666413,49.636639090190585,3.0973633583332063,0.7796905035731535,B,2893.821699981345,Correct,sub_005_day_23_data.csv,1,600,,Button-Switch at home,,,,,,,,,,,,,d
5,23,446,B,73.49978638689049,47.8844448009678,3.6749893193445247,0.7521671000397319,B,970.6154000014068,Correct,sub_005_day_23_data.csv,1,600,,Button-Switch at home,,,,,,,,,,,,,d
5,23,447,A,42.49005002369371,59.336595651596966,2.1245025011846854,0.9320570649404254,A,1396.1498999851756,Correct,sub_005_day_23_data.csv,1,600,,Button-Switch at home,,,,,,,,,,,,,k
5,23,448,A,67.17957777584098,87.64881800117254,3.3589788887920493,1.3767844136415626,A,1496.0638000047766,Correct,sub_005_day_23_data.csv,1,600,,Button-Switch at home,,,,,,,,,,,,,k
5,23,449,A,26.886491373933207,40.70189102067313,1.3443245686966605,0.6393438090887954,B,1651.7766999895684,Incorrect,sub_005_day_23_data.csv,0,600,,Button-Switch at home,,,,,,,,,,,,,d
5,23,450,A,64.05001046376847,76.83666526872402,3.2025005231884234,1.206947515672807,A,889.8788999940734,Correct,sub_005_day_23_data.csv,1,600,,Button-Switch at home,,,,,,,,,,,,,k
5,23,451,B,77.64795346205588,59.5263538355716,3.8823976731027936,0.9350377795240916,B,665.8583999960683,Correct,sub_005_day_23_data.csv,1,600,,Button-Switch at home,,,,,,,,,,,,,d
5,23,452,A,56.056923011246184,79.5729895612231,2.802846150562309,1.249929597148579,A,661.1632000131067,Correct,sub_005_day_23_data.csv,1,600,,Button-Switch at home,,,,,,,,,,,,,k
5,23,453,A,45.33085471291792,76.83790593946108,2.266542735645896,1.2069670040831724,A,684.1482000018004,Correct,sub_005_day_23_data.csv,1,600,,Button-Switch at home,,,,,,,,,,,,,k
5,23,454,B,62.25408515462426,50.20524404006534,3.112704257731213,0.7886221292397602,B,737.1717000205535,Correct,sub_005_day_23_data.csv,1,600,,Button-Switch at home,,,,,,,,,,,,,d
5,23,455,A,22.322634327216875,41.93468451357111,1.1161317163608435,0.6587084839922034,A,818.7812000105623,Correct,sub_005_day_23_data.csv,1,600,,Button-Switch at home,,,,,,,,,,,,,k
5,23,456,A,59.20996077359905,81.43610887431274,2.9604980386799524,1.2791954068823972,A,1224.3526999955066,Correct,sub_005_day_23_data.csv,1,600,,Button-Switch at home,,,,,,,,,,,,,k
5,23,457,A,61.75938136474133,84.17373970536386,3.0879690682370664,1.3221980114177527,A,545.825999986846,Correct,sub_005_day_23_data.csv,1,600,,Button-Switch at home,,,,,,,,,,,,,k
5,23,458,A,43.06251457167572,51.62528955578932,2.153125728583786,0.810928152039568,B,472.6258000009693,Incorrect,sub_005_day_23_data.csv,0,600,,Button-Switch at home,,,,,,,,,,,,,d
5,23,459,B,57.60994328529167,30.03575497656899,2.880497164264584,0.471800535897061,B,677.1440000156872,Correct,sub_005_day_23_data.csv,1,600,,Button-Switch at home,,,,,,,,,,,,,d
5,23,460,B,65.85066902391151,46.138365646212854,3.2925334511955753,0.72473975281391,B,573.5978999873623,Correct,sub_005_day_23_data.csv,1,600,,Button-Switch at home,,,,,,,,,,,,,d
5,23,461,B,59.39786319932387,50.81259056628102,2.969893159966194,0.7981623061644724,B,626.7283000051975,Correct,sub_005_day_23_data.csv,1,600,,Button-Switch at home,,,,,,,,,,,,,d
5,23,462,B,82.13194826384222,67.64646451880192,4.106597413192111,1.0625881798679535,B,698.3481000061147,Correct,sub_005_day_23_data.csv,1,600,,Button-Switch at home,,,,,,,,,,,,,d
5,23,463,A,39.647850657960255,55.26019929478513,1.9823925328980128,0.8680251807020241,A,800.5579000164289,Correct,sub_005_day_23_data.csv,1,600,,Button-Switch at home,,,,,,,,,,,,,k
5,23,464,A,51.41490968158365,59.42161130884756,2.5707454840791826,0.9333924877617183,B,904.166599997552,Incorrect,sub_005_day_23_data.csv,0,600,,Button-Switch at home,,,,,,,,,,,,,d
5,23,465,B,52.90881271248813,31.27161580054695,2.6454406356244067,0.491213392324404,B,637.5194000138436,Correct,sub_005_day_23_data.csv,1,600,,Button-Switch at home,,,,,,,,,,,,,d
5,23,466,A,58.28068794690216,85.8148449112231,2.914034397345108,1.3479764317102296,A,847.2723999875598,Correct,sub_005_day_23_data.csv,1,600,,Button-Switch at home,,,,,,,,,,,,,k
5,23,467,B,80.83229602637074,65.32690880734671,4.041614801318537,1.0261526839544537,B,701.2974999961443,Correct,sub_005_day_23_data.csv,1,600,,Button-Switch at home,,,,,,,,,,,,,d
5,23,468,B,43.06207189104751,20.348180098975853,2.1531035945523755,0.3196284655643228,B,1073.7236000131816,Correct,sub_005_day_23_data.csv,1,600,,Button-Switch at home,,,,,,,,,,,,,d
5,23,469,B,56.88308307679659,31.23006718432218,2.8441541538398294,0.4905607481869111,B,577.4831999733578,Correct,sub_005_day_23_data.csv,1,600,,Button-Switch at home,,,,,,,,,,,,,d
5,23,470,B,77.3574427103634,52.28578116194157,3.8678721355181698,0.8213031299277961,B,455.7323000044562,Correct,sub_005_day_23_data.csv,1,600,,Button-Switch at home,,,,,,,,,,,,,d
5,23,471,B,79.00175416797283,47.42884411584316,3.9500877083986414,0.7450105412129419,B,507.8155999945011,Correct,sub_005_day_23_data.csv,1,600,,Button-Switch at home,,,,,,,,,,,,,d
5,23,472,A,50.092878260852,79.96363014985229,2.5046439130426,1.2560657651657363,A,633.6825000180397,Correct,sub_005_day_23_data.csv,1,600,,Button-Switch at home,,,,,,,,,,,,,k
5,23,473,B,65.5932836378605,37.748902226729896,3.279664181893025,0.5929583695828702,B,675.5718999775127,Correct,sub_005_day_23_data.csv,1,600,,Button-Switch at home,,,,,,,,,,,,,d
5,23,474,B,85.70927902638371,63.152671487054675,4.285463951319185,0.9919998439915028,B,720.9236999915447,Correct,sub_005_day_23_data.csv,1,600,,Button-Switch at home,,,,,,,,,,,,,d
5,23,475,B,62.137616140447314,47.70356184228004,3.1068808070223657,0.7493257971688668,B,719.702900008997,Correct,sub_005_day_23_data.csv,1,600,,Button-Switch at home,,,,,,,,,,,,,d
5,23,476,A,35.68817072276227,44.99382558959242,1.7844085361381137,0.7067613596458199,A,696.4888999937102,Correct,sub_005_day_23_data.csv,1,600,,Button-Switch at home,,,,,,,,,,,,,k
5,23,477,B,52.239964419507515,42.87631455301651,2.6119982209753756,0.6734995740638091,B,690.3540999919642,Correct,sub_005_day_23_data.csv,1,600,,Button-Switch at home,,,,,,,,,,,,,d
5,23,478,B,34.92843933360813,10.979044383045796,1.7464219666804066,0.1724584258860647,B,837.3720000090543,Correct,sub_005_day_23_data.csv,1,600,,Button-Switch at home,,,,,,,,,,,,,d
5,23,479,A,20.54149441736207,39.92998951320527,1.0270747208681037,0.6272188085630158,A,533.8661999849137,Correct,sub_005_day_23_data.csv,1,600,,Button-Switch at home,,,,,,,,,,,,,k
5,23,480,A,59.836186347800314,76.5205729711276,2.9918093173900155,1.2019823494728807,B,1017.0426000258884,Incorrect,sub_005_day_23_data.csv,0,600,,Button-Switch at home,,,,,,,,,,,,,d
5,23,481,B,34.404712117840376,23.027177832509885,1.7202356058920187,0.3617100635575939,B,678.2529999909457,Correct,sub_005_day_23_data.csv,1,600,,Button-Switch at home,,,,,,,,,,,,,d
5,23,482,B,74.23366940814883,49.87414660750877,3.7116834704074417,0.7834212629310492,B,538.0756999948062,Correct,sub_005_day_23_data.csv,1,600,,Button-Switch at home,,,,,,,,,,,,,d
5,23,483,A,26.27263708841054,43.10031329506546,1.313631854420527,0.6770181380759808,A,934.5119999779854,Correct,sub_005_day_23_data.csv,1,600,,Button-Switch at home,,,,,,,,,,,,,k
5,23,484,A,68.31559282052292,83.74390628984405,3.415779641026146,1.3154462039154309,A,621.6024000023026,Correct,sub_005_day_23_data.csv,1,600,,Button-Switch at home,,,,,,,,,,,,,k
5,23,485,A,64.62047131886344,84.20616153727951,3.231023565943172,1.3227072923625636,A,502.5061999913305,Correct,sub_005_day_23_data.csv,1,600,,Button-Switch at home,,,,,,,,,,,,,k
5,23,486,A,18.92886803566349,35.7256209519294,0.9464434017831748,0.5611767416375751,A,618.5678000038024,Correct,sub_005_day_23_data.csv,1,600,,Button-Switch at home,,,,,,,,,,,,,k
5,23,487,A,51.05904344702744,78.41909788684441,2.552952172351372,1.2318043091122464,A,562.6179999962915,Correct,sub_005_day_23_data.csv,1,600,,Button-Switch at home,,,,,,,,,,,,,k
5,23,488,A,32.85515283808529,51.02101611865785,1.6427576419042649,0.8014362470853096,A,575.4028000228573,Correct,sub_005_day_23_data.csv,1,600,,Button-Switch at home,,,,,,,,,,,,,k
5,23,489,B,63.91613038257722,44.36579921996719,3.195806519128861,0.6968963445004435,B,496.4872999989894,Correct,sub_005_day_23_data.csv,1,600,,Button-Switch at home,,,,,,,,,,,,,d
5,23,490,A,22.82133366153052,43.832306206313206,1.141066683076526,0.6885162558382593,A,507.9305999970529,Correct,sub_005_day_23_data.csv,1,600,,Button-Switch at home,,,,,,,,,,,,,k
5,23,491,B,65.0446708449616,50.2408486107414,3.25223354224808,0.7891814045281107,B,984.7358999832068,Correct,sub_005_day_23_data.csv,1,600,,Button-Switch at home,,,,,,,,,,,,,d
5,23,492,B,31.467353688693105,17.98911903455644,1.573367684434655,0.2825724210175741,B,738.2377999892924,Correct,sub_005_day_23_data.csv,1,600,,Button-Switch at home,,,,,,,,,,,,,d
5,23,493,B,82.49289597053303,62.130668866150096,4.124644798526651,0.975946264362586,B,547.0376000157557,Correct,sub_005_day_23_data.csv,1,600,,Button-Switch at home,,,,,,,,,,,,,d
5,23,494,B,49.16623803413673,34.81952448386231,2.458311901706837,0.5469438115999588,B,416.1217999935616,Correct,sub_005_day_23_data.csv,1,600,,Button-Switch at home,,,,,,,,,,,,,d
5,23,495,A,28.93634332283133,55.38186733676933,1.4468171661415663,0.8699363378363952,A,517.7032999927178,Correct,sub_005_day_23_data.csv,1,600,,Button-Switch at home,,,,,,,,,,,,,k
5,23,496,B,84.69141648694473,59.603709432835515,4.234570824347236,0.9362528784044836,A,522.4927999952342,Incorrect,sub_005_day_23_data.csv,0,600,,Button-Switch at home,,,,,,,,,,,,,k
5,23,497,A,35.27542671980337,59.26244672003376,1.7637713359901683,0.9308923362470728,A,551.3350000255741,Correct,sub_005_day_23_data.csv,1,600,,Button-Switch at home,,,,,,,,,,,,,k
5,23,498,B,82.79864388980798,68.73343655715539,4.139932194490399,1.0796622967196976,B,731.4392999978736,Correct,sub_005_day_23_data.csv,1,600,,Button-Switch at home,,,,,,,,,,,,,d
5,23,499,B,49.3624521731732,20.731101570755563,2.46812260865866,0.3256433819775474,B,657.9056000045966,Correct,sub_005_day_23_data.csv,1,600,,Button-Switch at home,,,,,,,,,,,,,d
5,23,500,A,18.273861756207967,39.0863161718072,0.9136930878103984,0.6139664187061871,A,595.0849000073504,Correct,sub_005_day_23_data.csv,1,600,,Button-Switch at home,,,,,,,,,,,,,k
5,23,501,B,78.73158405841224,58.5479921798028,3.936579202920612,0.9196697105725058,B,702.1371000155341,Correct,sub_005_day_23_data.csv,1,600,,Button-Switch at home,,,,,,,,,,,,,d
5,23,502,B,41.60197594014335,14.872818587191976,2.0800987970071674,0.2336216880584801,B,609.5145999861415,Correct,sub_005_day_23_data.csv,1,600,,Button-Switch at home,,,,,,,,,,,,,d
5,23,503,A,15.238222003900413,34.68548110490853,0.7619111001950205,0.5448382631270411,A,591.4446000242606,Correct,sub_005_day_23_data.csv,1,600,,Button-Switch at home,,,,,,,,,,,,,k
5,23,504,B,72.41520966890802,50.46267944634088,3.620760483445401,0.7926659151454057,B,652.0376999978907,Correct,sub_005_day_23_data.csv,1,600,,Button-Switch at home,,,,,,,,,,,,,d
5,23,505,A,64.54239481482891,84.89905425103964,3.2271197407414456,1.3335912256589373,A,704.8807000101078,Correct,sub_005_day_23_data.csv,1,600,,Button-Switch at home,,,,,,,,,,,,,k
5,23,506,B,38.1559373538797,24.424448443724454,1.907796867693985,0.3836583389939371,B,774.4544000015594,Correct,sub_005_day_23_data.csv,1,600,,Button-Switch at home,,,,,,,,,,,,,d
5,23,507,B,63.40206533259105,52.5937339231126,3.1701032666295528,0.8261404405885342,A,755.8423999871593,Incorrect,sub_005_day_23_data.csv,0,600,,Button-Switch at home,,,,,,,,,,,,,k
5,23,508,A,66.5664102105844,85.10284672886434,3.32832051052922,1.336792390414892,A,687.8978000022471,Correct,sub_005_day_23_data.csv,1,600,,Button-Switch at home,,,,,,,,,,,,,k
5,23,509,A,52.30665957626169,82.1655346082083,2.6153329788130844,1.2906531995171255,A,654.1702999966219,Correct,sub_005_day_23_data.csv,1,600,,Button-Switch at home,,,,,,,,,,,,,k
5,23,510,A,51.34522910149085,79.34287079225325,2.5672614550745423,1.246314899978335,A,553.6195999884512,Correct,sub_005_day_23_data.csv,1,600,,Button-Switch at home,,,,,,,,,,,,,k
5,23,511,B,79.86639830216431,59.72019617514541,3.993319915108216,0.9380826478738904,B,618.841399991652,Correct,sub_005_day_23_data.csv,1,600,,Button-Switch at home,,,,,,,,,,,,,d
5,23,512,A,47.41956519420851,54.82178832382651,2.370978259710426,0.8611386372739404,A,980.5880999774672,Correct,sub_005_day_23_data.csv,1,600,,Button-Switch at home,,,,,,,,,,,,,k
5,23,513,B,80.83007724701139,52.157768636249294,4.041503862350569,0.8192923138763846,A,511.3032000081148,Incorrect,sub_005_day_23_data.csv,0,600,,Button-Switch at home,,,,,,,,,,,,,k
5,23,514,B,42.07127792291226,23.08633444248905,2.103563896145613,0.3626392934142031,B,834.8881999845617,Correct,sub_005_day_23_data.csv,1,600,,Button-Switch at home,,,,,,,,,,,,,d
5,23,515,B,58.65029942114016,50.36975689394794,2.9325149710570084,0.7912062911056533,B,810.0451999926008,Correct,sub_005_day_23_data.csv,1,600,,Button-Switch at home,,,,,,,,,,,,,d
5,23,516,A,60.21408980966862,79.57647142570715,3.0107044904834313,1.2499842901479985,A,1141.8131999962498,Correct,sub_005_day_23_data.csv,1,600,,Button-Switch at home,,,,,,,,,,,,,k
5,23,517,B,59.51838565989904,31.29210513401931,2.9759192829949517,0.4915352380219725,B,1028.5065000061877,Correct,sub_005_day_23_data.csv,1,600,,Button-Switch at home,,,,,,,,,,,,,d
5,23,518,B,55.445155736048754,34.296312138206595,2.7722577868024376,0.5387252112930615,B,428.4469999838621,Correct,sub_005_day_23_data.csv,1,600,,Button-Switch at home,,,,,,,,,,,,,d
5,23,519,B,69.80392721727678,42.69078424404241,3.4901963608638393,0.6705852707853527,B,745.6442999828141,Correct,sub_005_day_23_data.csv,1,600,,Button-Switch at home,,,,,,,,,,,,,d
5,23,520,B,65.86156644354361,46.2141367001905,3.2930783221771804,0.7259299617465647,B,604.2587000119966,Correct,sub_005_day_23_data.csv,1,600,,Button-Switch at home,,,,,,,,,,,,,d
5,23,521,A,41.071089123588656,48.419806664738914,2.053554456179433,0.7605765445309094,A,856.0491999960504,Correct,sub_005_day_23_data.csv,1,600,,Button-Switch at home,,,,,,,,,,,,,k
5,23,522,A,58.84067056249317,68.92328550483288,2.942033528124659,1.082644437016274,B,596.7395000043325,Incorrect,sub_005_day_23_data.csv,0,600,,Button-Switch at home,,,,,,,,,,,,,d
5,23,523,A,34.53192139889798,54.01872413999776,1.7265960699448988,0.8485241345725528,A,524.8184999800287,Correct,sub_005_day_23_data.csv,1,600,,Button-Switch at home,,,,,,,,,,,,,k
5,23,524,A,23.13196194700092,51.24179842213867,1.156598097350046,0.8049042873985995,A,492.8638999990653,Correct,sub_005_day_23_data.csv,1,600,,Button-Switch at home,,,,,,,,,,,,,k
5,23,525,A,41.69400849611623,61.13471197433889,2.0847004248058116,0.9603018100895552,A,820.4122000024654,Correct,sub_005_day_23_data.csv,1,600,,Button-Switch at home,,,,,,,,,,,,,k
5,23,526,A,47.38969402593932,78.75079574760767,2.369484701296966,1.237014606925173,A,577.4732000136282,Correct,sub_005_day_23_data.csv,1,600,,Button-Switch at home,,,,,,,,,,,,,k
5,23,527,B,34.026778057706274,22.344283294549257,1.701338902885314,0.3509831812394254,B,815.0597999920137,Correct,sub_005_day_23_data.csv,1,600,,Button-Switch at home,,,,,,,,,,,,,d
5,23,528,B,58.99244131880829,29.763296543437797,2.9496220659404147,0.4675207688373933,B,684.7926000191364,Correct,sub_005_day_23_data.csv,1,600,,Button-Switch at home,,,,,,,,,,,,,d
5,23,529,B,36.14726862024621,16.341490190773126,1.8073634310123103,0.2566915276602126,B,664.9455000006128,Correct,sub_005_day_23_data.csv,1,600,,Button-Switch at home,,,,,,,,,,,,,d
5,23,530,A,26.453815777984698,56.53058160763881,1.3226907888992343,0.8879802994085818,A,855.0464999862015,Correct,sub_005_day_23_data.csv,1,600,,Button-Switch at home,,,,,,,,,,,,,k
5,23,531,B,61.90209489241656,42.31113178650631,3.095104744620828,0.664621703927789,B,796.2670999986585,Correct,sub_005_day_23_data.csv,1,600,,Button-Switch at home,,,,,,,,,,,,,d
5,23,532,A,45.97404714206474,53.34442879407898,2.298702357103237,0.8379323280471117,A,694.8517000128049,Correct,sub_005_day_23_data.csv,1,600,,Button-Switch at home,,,,,,,,,,,,,k
5,23,533,B,38.84627394000303,28.187994551766977,1.942313697000151,0.4427759830163012,B,887.714300013613,Correct,sub_005_day_23_data.csv,1,600,,Button-Switch at home,,,,,,,,,,,,,d
5,23,534,B,67.52959609441095,55.89267587227738,3.376479804720548,0.8779600995491106,B,574.8404999903869,Correct,sub_005_day_23_data.csv,1,600,,Button-Switch at home,,,,,,,,,,,,,d
5,23,535,B,51.03192371267882,25.34303736461388,2.5515961856339406,0.3980875000216129,B,448.38670000899583,Correct,sub_005_day_23_data.csv,1,600,,Button-Switch at home,,,,,,,,,,,,,d
5,23,536,B,49.09052201157324,18.857935880352347,2.454526100578662,0.2962197641179115,B,472.58380000130273,Correct,sub_005_day_23_data.csv,1,600,,Button-Switch at home,,,,,,,,,,,,,d
5,23,537,A,46.319528506831695,68.80820298119356,2.3159764253415847,1.0808367249621649,A,668.0002999783028,Correct,sub_005_day_23_data.csv,1,600,,Button-Switch at home,,,,,,,,,,,,,k
5,23,538,A,57.05895537743899,84.13273116936806,2.85294776887195,1.3215538508406584,A,661.9135999935679,Correct,sub_005_day_23_data.csv,1,600,,Button-Switch at home,,,,,,,,,,,,,k
5,23,539,A,55.45701189796568,70.68039657260353,2.7728505948982836,1.110245073126522,A,691.3539999804925,Correct,sub_005_day_23_data.csv,1,600,,Button-Switch at home,,,,,,,,,,,,,k
5,23,540,A,32.71173942107884,55.42692888050003,1.635586971053942,0.870644162910114,A,796.0510999837425,Correct,sub_005_day_23_data.csv,1,600,,Button-Switch at home,,,,,,,,,,,,,k
5,23,541,A,26.177402343186124,44.163264049725214,1.308870117159306,0.6937149294858147,A,573.4859999793116,Correct,sub_005_day_23_data.csv,1,600,,Button-Switch at home,,,,,,,,,,,,,k
5,23,542,A,15.077385939543015,42.243662277056,0.7538692969771509,0.663561895351637,A,353.36910001933575,Correct,sub_005_day_23_data.csv,1,600,,Button-Switch at home,,,,,,,,,,,,,k
5,23,543,A,29.320536480341275,44.29844573014876,1.4660268240170635,0.6958383583564074,A,562.8582999925129,Correct,sub_005_day_23_data.csv,1,600,,Button-Switch at home,,,,,,,,,,,,,k
5,23,544,B,48.603972828734506,28.748532393576244,2.430198641436726,0.4515808908457366,B,725.7728000113275,Correct,sub_005_day_23_data.csv,1,600,,Button-Switch at home,,,,,,,,,,,,,d
5,23,545,B,45.78580847665417,32.63167808495583,2.2892904238327083,0.5125772007300214,B,707.0217000145931,Correct,sub_005_day_23_data.csv,1,600,,Button-Switch at home,,,,,,,,,,,,,d
5,23,546,A,44.55347389663208,66.55100175506915,2.227673694831604,1.0453806910138337,A,1219.9814000050535,Correct,sub_005_day_23_data.csv,1,600,,Button-Switch at home,,,,,,,,,,,,,k
5,23,547,B,48.12341589075539,39.03027056304376,2.4061707945377693,0.6130860563424011,B,746.9765999994706,Correct,sub_005_day_23_data.csv,1,600,,Button-Switch at home,,,,,,,,,,,,,d
5,23,548,A,66.95824548955375,82.95737995758307,3.3479122744776872,1.3030914771790003,A,646.9556000083685,Correct,sub_005_day_23_data.csv,1,600,,Button-Switch at home,,,,,,,,,,,,,k
5,23,549,A,35.69926979024894,67.72719202145193,1.7849634895124469,1.0638562445142932,A,1038.0864999897312,Correct,sub_005_day_23_data.csv,1,600,,Button-Switch at home,,,,,,,,,,,,,k
5,23,550,A,49.68979242437076,69.17625884080613,2.484489621218538,1.0866181328855125,B,1389.0193999977782,Incorrect,sub_005_day_23_data.csv,0,600,,Button-Switch at home,,,,,,,,,,,,,d
5,23,551,A,56.42414030320777,73.84157114343472,2.8212070151603887,1.159900687168713,A,1102.768400014611,Correct,sub_005_day_23_data.csv,1,600,,Button-Switch at home,,,,,,,,,,,,,k
5,23,552,A,26.934300686314085,58.03657905262663,1.3467150343157042,0.9116364519560756,A,572.4072000011802,Correct,sub_005_day_23_data.csv,1,600,,Button-Switch at home,,,,,,,,,,,,,k
5,23,553,A,22.08861371547785,42.21462427985645,1.1044306857738926,0.6631057675582517,A,534.420499985572,Correct,sub_005_day_23_data.csv,1,600,,Button-Switch at home,,,,,,,,,,,,,k
