subject,day,trial,cat,x,y,xt,yt,resp,rt,fb,f_name,acc,n_trials,block,session_type,ns_left_digit,ns_right_digit,ns_left_size,ns_right_size,ns_congruent,ns_cue,ns_correct_side,ns_resp,ns_rt,ns_fb,acc_stroop,acc_stroop_mean,resp_key
10,18,3900,B,54.35542498348072,46.25973926144647,2.7177712491740365,0.7266462851036978,B,753.8129160002427,Correct,sub_010_day_18_data.csv,1,300,156.0,Training at home,,,,,,,,,,,,,
10,18,3901,A,33.118542268067515,53.692086725611695,1.655927113403376,0.8433933260654386,A,464.1581659998337,Correct,sub_010_day_18_data.csv,1,300,156.0,Training at home,,,,,,,,,,,,,
10,18,3902,B,41.908143568115825,33.464720545756784,2.0954071784057913,0.5256626011049246,B,512.270207000256,Correct,sub_010_day_18_data.csv,1,300,156.0,Training at home,,,,,,,,,,,,,
10,18,3903,A,14.580489912044172,41.28055762886072,0.7290244956022086,0.6484334829145945,A,457.4257910007873,Correct,sub_010_day_18_data.csv,1,300,156.0,Training at home,,,,,,,,,,,,,
10,18,3904,B,50.75128065210657,19.887239404021223,2.537564032605329,0.3123880260592727,B,422.98612400009006,Correct,sub_010_day_18_data.csv,1,300,156.0,Training at home,,,,,,,,,,,,,
10,18,3905,A,35.38508238728312,59.92101327935253,1.769254119364156,0.9412370755703516,A,490.0494159992377,Correct,sub_010_day_18_data.csv,1,300,156.0,Training at home,,,,,,,,,,,,,
10,18,3906,A,55.1521099178275,78.40834231133094,2.757605495891375,1.2316353609271553,A,518.2439159998466,Correct,sub_010_day_18_data.csv,1,300,156.0,Training at home,,,,,,,,,,,,,
10,18,3907,A,40.08572499661449,66.02402086584445,2.004286249830725,1.0371028945629808,A,498.73241600107576,Correct,sub_010_day_18_data.csv,1,300,156.0,Training at home,,,,,,,,,,,,,
10,18,3908,B,38.36229612646478,12.124760520845935,1.9181148063232387,0.1904552928941257,B,491.84574900027656,Correct,sub_010_day_18_data.csv,1,300,156.0,Training at home,,,,,,,,,,,,,
10,18,3909,B,46.37029620598254,24.222549726124292,2.318514810299127,0.3804869213540277,B,428.9145410002675,Correct,sub_010_day_18_data.csv,1,300,156.0,Training at home,,,,,,,,,,,,,
10,18,3910,A,40.742086513342215,69.34203455609259,2.0371043256671104,1.08922213173195,A,386.32891599991126,Correct,sub_010_day_18_data.csv,1,300,156.0,Training at home,,,,,,,,,,,,,
10,18,3911,B,73.95678901838508,47.344244504089374,3.6978394509192536,0.7436816536190305,B,518.9472080000996,Correct,sub_010_day_18_data.csv,1,300,156.0,Training at home,,,,,,,,,,,,,
10,18,3912,A,42.55658920808127,61.654087037100794,2.1278294604040635,0.9684601344977076,A,421.9292489997315,Correct,sub_010_day_18_data.csv,1,300,156.0,Training at home,,,,,,,,,,,,,
10,18,3913,A,64.66624534969378,81.04875348723627,3.2333122674846893,1.273110842690558,A,643.0154989993753,Correct,sub_010_day_18_data.csv,1,300,156.0,Training at home,,,,,,,,,,,,,
10,18,3914,B,43.57986984360078,35.38267305590537,2.178993492180039,0.5557897286840091,B,398.708873999567,Correct,sub_010_day_18_data.csv,1,300,156.0,Training at home,,,,,,,,,,,,,
10,18,3915,B,62.50196363524403,34.72078977080586,3.1250981817622017,0.5453928903539966,B,416.58566600017366,Correct,sub_010_day_18_data.csv,1,300,156.0,Training at home,,,,,,,,,,,,,
10,18,3916,B,57.40013707494425,44.755498179394365,2.870006853747212,0.7030177214406834,B,437.2055409985478,Correct,sub_010_day_18_data.csv,1,300,156.0,Training at home,,,,,,,,,,,,,
10,18,3917,A,30.308219855893046,56.17336597054952,1.5154109927946524,0.8823691693024462,A,485.2524159996392,Correct,sub_010_day_18_data.csv,1,300,156.0,Training at home,,,,,,,,,,,,,
10,18,3918,A,52.55876539524412,81.8954024853133,2.627938269762206,1.2864099740531978,A,573.6991240009957,Correct,sub_010_day_18_data.csv,1,300,156.0,Training at home,,,,,,,,,,,,,
10,18,3919,B,66.49411943709175,48.821604886512446,3.3247059718545877,0.7668879762396551,B,582.097041000452,Correct,sub_010_day_18_data.csv,1,300,156.0,Training at home,,,,,,,,,,,,,
10,18,3920,B,61.92215087793897,33.76510000508268,3.0961075438969483,0.5303809506184621,B,454.6574159994634,Correct,sub_010_day_18_data.csv,1,300,156.0,Training at home,,,,,,,,,,,,,
10,18,3921,A,29.283015208246752,40.98970623795531,1.4641507604123376,0.6438647999498206,A,529.3278739991365,Correct,sub_010_day_18_data.csv,1,300,156.0,Training at home,,,,,,,,,,,,,
10,18,3922,A,49.68398812070015,80.53321918365836,2.4841994060350077,1.2650128487865886,A,473.88416600006167,Correct,sub_010_day_18_data.csv,1,300,156.0,Training at home,,,,,,,,,,,,,
10,18,3923,A,48.90850137311256,77.1471969627963,2.445425068655628,1.2118253361168283,A,466.9407079982193,Correct,sub_010_day_18_data.csv,1,300,156.0,Training at home,,,,,,,,,,,,,
10,18,3924,B,55.29628045642669,35.66405985401688,2.7648140228213345,0.5602097421728305,B,661.9867499994143,Correct,sub_010_day_18_data.csv,1,300,156.0,Training at home,,,,,,,,,,,,,
10,18,3925,B,55.85691080897001,25.417444426090416,2.7928455404485004,0.3992562834101624,B,465.6045819992869,Correct,sub_010_day_18_data.csv,1,300,157.0,Training at home,,,,,,,,,,,,,
10,18,3926,A,51.20493015311702,75.11445413304345,2.560246507655851,1.179895086413884,A,555.8477079994191,Correct,sub_010_day_18_data.csv,1,300,157.0,Training at home,,,,,,,,,,,,,
10,18,3927,B,43.39204429760119,27.524388097724795,2.1696022148800593,0.4323520772118328,B,614.616582999588,Correct,sub_010_day_18_data.csv,1,300,157.0,Training at home,,,,,,,,,,,,,
10,18,3928,A,58.496901988447185,69.59654831649772,2.9248450994223596,1.0932200245315815,A,475.4000410011941,Correct,sub_010_day_18_data.csv,1,300,157.0,Training at home,,,,,,,,,,,,,
10,18,3929,A,48.712274147383326,68.4555114790525,2.435613707369166,1.0752966598016154,A,1189.035749999675,Correct,sub_010_day_18_data.csv,1,300,157.0,Training at home,,,,,,,,,,,,,
10,18,3930,B,75.73654878652215,61.15211419151447,3.786827439326107,0.96057516347773,B,729.0742080003838,Correct,sub_010_day_18_data.csv,1,300,157.0,Training at home,,,,,,,,,,,,,
10,18,3931,B,48.23386385459078,27.586685360481155,2.411693192729538,0.4333306403269034,B,801.7215410000063,Correct,sub_010_day_18_data.csv,1,300,157.0,Training at home,,,,,,,,,,,,,
10,18,3932,A,24.92522924927408,51.1599542245442,1.246261462463704,0.8036186817490909,A,450.0619989994448,Correct,sub_010_day_18_data.csv,1,300,157.0,Training at home,,,,,,,,,,,,,
10,18,3933,B,35.69538878243683,11.885920167367058,1.7847694391218414,0.1867035973947755,B,547.821999000007,Correct,sub_010_day_18_data.csv,1,300,157.0,Training at home,,,,,,,,,,,,,
10,18,3934,B,57.893993509007586,38.95462638837938,2.8946996754503793,0.6118978404253389,B,454.37612400019134,Correct,sub_010_day_18_data.csv,1,300,157.0,Training at home,,,,,,,,,,,,,
10,18,3935,B,36.87577548618569,19.219380294308586,1.8437887743092845,0.3018973196957414,B,403.16449899910367,Correct,sub_010_day_18_data.csv,1,300,157.0,Training at home,,,,,,,,,,,,,
10,18,3936,A,54.890781145087146,73.36140393997962,2.7445390572543573,1.1523582383743665,A,607.5523330000578,Correct,sub_010_day_18_data.csv,1,300,157.0,Training at home,,,,,,,,,,,,,
10,18,3937,B,77.7136626390763,45.64545572870544,3.885683131953815,0.7169971419352958,B,546.070915999735,Correct,sub_010_day_18_data.csv,1,300,157.0,Training at home,,,,,,,,,,,,,
10,18,3938,A,22.327834396698037,44.53419006391002,1.1163917198349018,0.6995414216917564,A,459.5927490008762,Correct,sub_010_day_18_data.csv,1,300,157.0,Training at home,,,,,,,,,,,,,
10,18,3939,A,55.932404732852966,75.9692084395956,2.7966202366426485,1.1933215356643263,A,497.6476249994448,Correct,sub_010_day_18_data.csv,1,300,157.0,Training at home,,,,,,,,,,,,,
10,18,3940,A,23.00152571982673,46.694047559067336,1.1500762859913365,0.7334683838896917,A,481.02583199943183,Correct,sub_010_day_18_data.csv,1,300,157.0,Training at home,,,,,,,,,,,,,
10,18,3941,B,59.87895195497776,44.85751785429045,2.9939475977488876,0.7046202427465593,A,541.3624160009931,Incorrect,sub_010_day_18_data.csv,0,300,157.0,Training at home,,,,,,,,,,,,,
10,18,3942,B,74.73604067552529,42.0396097116291,3.736802033776264,0.6603566451491805,B,477.4717069994949,Correct,sub_010_day_18_data.csv,1,300,157.0,Training at home,,,,,,,,,,,,,
10,18,3943,B,67.54940294824623,43.90452367811995,3.377470147412311,0.6896506452327038,B,553.8333330005116,Correct,sub_010_day_18_data.csv,1,300,157.0,Training at home,,,,,,,,,,,,,
10,18,3944,A,46.17329995515093,67.24591344287715,2.308664997757546,1.0562963382803898,A,484.1279159991245,Correct,sub_010_day_18_data.csv,1,300,157.0,Training at home,,,,,,,,,,,,,
10,18,3945,B,42.46436357388166,18.7520634144713,2.123218178694083,0.2945567233127648,B,404.08629099874815,Correct,sub_010_day_18_data.csv,1,300,157.0,Training at home,,,,,,,,,,,,,
10,18,3946,A,66.20435713528937,81.95327480764008,3.3102178567644684,1.2873190303665378,A,558.2205829996383,Correct,sub_010_day_18_data.csv,1,300,157.0,Training at home,,,,,,,,,,,,,
10,18,3947,A,49.951696539569646,67.45075845449429,2.4975848269784824,1.0595140361984945,A,479.27170699949784,Correct,sub_010_day_18_data.csv,1,300,157.0,Training at home,,,,,,,,,,,,,
10,18,3948,B,83.84330450877943,66.08701618724673,4.192165225438971,1.0380924227576205,A,563.9887910001562,Incorrect,sub_010_day_18_data.csv,0,300,157.0,Training at home,,,,,,,,,,,,,
10,18,3949,B,53.893150488886725,27.358247354013535,2.6946575244443363,0.4297423445123066,B,396.6624990007403,Correct,sub_010_day_18_data.csv,1,300,157.0,Training at home,,,,,,,,,,,,,
10,18,3950,A,44.27898674651837,63.36674587144885,2.2139493373259187,0.9953625165581752,A,1362.180582000292,Correct,sub_010_day_18_data.csv,1,300,158.0,Training at home,,,,,,,,,,,,,
10,18,3951,B,72.53483916788493,47.19502152974103,3.626741958394246,0.7413376646192327,B,537.5127070001327,Correct,sub_010_day_18_data.csv,1,300,158.0,Training at home,,,,,,,,,,,,,
10,18,3952,A,33.88543587634772,61.01858477483701,1.694271793817386,0.9584776883053696,A,836.140040999453,Correct,sub_010_day_18_data.csv,1,300,158.0,Training at home,,,,,,,,,,,,,
10,18,3953,B,55.987942422865174,28.806173378269143,2.7993971211432584,0.4524863133160211,B,668.0910410013894,Correct,sub_010_day_18_data.csv,1,300,158.0,Training at home,,,,,,,,,,,,,
10,18,3954,B,76.72960342639372,55.78512176465452,3.8364801713196863,0.8762706435772535,B,848.7107910004852,Correct,sub_010_day_18_data.csv,1,300,158.0,Training at home,,,,,,,,,,,,,
10,18,3955,A,37.997348311897625,50.81091183884488,1.8998674155948811,0.7981359367755687,A,562.7502070001356,Correct,sub_010_day_18_data.csv,1,300,158.0,Training at home,,,,,,,,,,,,,
10,18,3956,A,36.448218597009536,60.8684874672581,1.822410929850477,0.9561199653113022,A,400.2367070006585,Correct,sub_010_day_18_data.csv,1,300,158.0,Training at home,,,,,,,,,,,,,
10,18,3957,A,20.554820191230128,39.027263428011366,1.0277410095615065,0.6130388203757705,A,494.1965830003028,Correct,sub_010_day_18_data.csv,1,300,158.0,Training at home,,,,,,,,,,,,,
10,18,3958,A,32.2573913009297,56.89875304858249,1.6128695650464848,0.8937635228792331,A,425.9945819994755,Correct,sub_010_day_18_data.csv,1,300,158.0,Training at home,,,,,,,,,,,,,
10,18,3959,B,35.75222485245004,22.83119629562564,1.7876112426225022,0.35863159277502,B,578.3867080008349,Correct,sub_010_day_18_data.csv,1,300,158.0,Training at home,,,,,,,,,,,,,
10,18,3960,A,25.815122660460737,43.786185804006266,1.2907561330230368,0.6877917982529189,A,418.9432069997565,Correct,sub_010_day_18_data.csv,1,300,158.0,Training at home,,,,,,,,,,,,,
10,18,3961,A,16.391205541875102,40.15875282536915,0.8195602770937552,0.6308122142675403,A,598.3915819997492,Correct,sub_010_day_18_data.csv,1,300,158.0,Training at home,,,,,,,,,,,,,
10,18,3962,A,11.838963006788866,34.571845267198526,0.5919481503394433,0.5430532755623698,A,717.6044570005615,Correct,sub_010_day_18_data.csv,1,300,158.0,Training at home,,,,,,,,,,,,,
10,18,3963,B,39.07215338036822,14.68189729900789,1.953607669018411,0.230622703476615,B,553.2092079993163,Correct,sub_010_day_18_data.csv,1,300,158.0,Training at home,,,,,,,,,,,,,
10,18,3964,A,45.80514447887591,59.50174962793278,2.2902572239437955,0.9346512975342642,A,676.2589999998454,Correct,sub_010_day_18_data.csv,1,300,158.0,Training at home,,,,,,,,,,,,,
10,18,3965,A,48.706903019274826,59.776180812369496,2.4353451509637414,0.9389620524989756,A,469.89245799886703,Correct,sub_010_day_18_data.csv,1,300,158.0,Training at home,,,,,,,,,,,,,
10,18,3966,A,39.70179236174609,69.08769547762552,1.985089618087304,1.0852269828297854,A,444.0000409995264,Correct,sub_010_day_18_data.csv,1,300,158.0,Training at home,,,,,,,,,,,,,
10,18,3967,B,81.76866024578,56.768193139031226,4.088433012288999,0.8917126926157349,B,623.8327490009397,Correct,sub_010_day_18_data.csv,1,300,158.0,Training at home,,,,,,,,,,,,,
10,18,3968,A,32.01463216479823,43.51736152775563,1.6007316082399117,0.6835691163960409,A,516.7828739995457,Correct,sub_010_day_18_data.csv,1,300,158.0,Training at home,,,,,,,,,,,,,
10,18,3969,B,58.075415777223526,32.02511014493169,2.903770788861176,0.5030492538086068,B,428.69108299964864,Correct,sub_010_day_18_data.csv,1,300,158.0,Training at home,,,,,,,,,,,,,
10,18,3970,B,41.85707062191419,14.936352736435722,2.0928535310957095,0.2346196801410613,B,424.7927080014051,Correct,sub_010_day_18_data.csv,1,300,158.0,Training at home,,,,,,,,,,,,,
10,18,3971,B,34.32697628287994,20.872876859923487,1.716348814143997,0.3278703830121001,B,459.1297079987271,Correct,sub_010_day_18_data.csv,1,300,158.0,Training at home,,,,,,,,,,,,,
10,18,3972,B,40.49721173795291,17.937585952762632,2.0248605868976455,0.2817629412616728,B,434.36220700095873,Correct,sub_010_day_18_data.csv,1,300,158.0,Training at home,,,,,,,,,,,,,
10,18,3973,B,62.03175862289324,32.90227334883355,3.101587931144662,0.5168277011954937,B,410.68958299911174,Correct,sub_010_day_18_data.csv,1,300,158.0,Training at home,,,,,,,,,,,,,
10,18,3974,A,20.986886931804193,38.8557979058853,1.0493443465902097,0.6103454462524945,A,458.3929580003314,Correct,sub_010_day_18_data.csv,1,300,158.0,Training at home,,,,,,,,,,,,,
10,18,3975,B,75.17281835617439,42.97364531066788,3.758640917808719,0.6750284420298382,B,522.6679579991469,Correct,sub_010_day_18_data.csv,1,300,159.0,Training at home,,,,,,,,,,,,,
10,18,3976,B,72.15596680145607,62.05282673557196,3.607798340072804,0.974723523034766,A,509.2461660005938,Incorrect,sub_010_day_18_data.csv,0,300,159.0,Training at home,,,,,,,,,,,,,
10,18,3977,A,37.86583803389929,64.71428414873137,1.8932919016949643,1.0165295983198843,A,838.0147079988092,Correct,sub_010_day_18_data.csv,1,300,159.0,Training at home,,,,,,,,,,,,,
10,18,3978,B,65.282952576573,35.38651344469821,3.26414762882865,0.5558500533701017,B,545.4092489999312,Correct,sub_010_day_18_data.csv,1,300,159.0,Training at home,,,,,,,,,,,,,
10,18,3979,A,50.726007083148104,79.54575679961533,2.536300354157405,1.2495018259295594,A,515.7360829998652,Correct,sub_010_day_18_data.csv,1,300,159.0,Training at home,,,,,,,,,,,,,
10,18,3980,B,62.25560088644476,49.36529003014263,3.1127800443222378,0.7754281625051277,B,515.928499000438,Correct,sub_010_day_18_data.csv,1,300,159.0,Training at home,,,,,,,,,,,,,
10,18,3981,A,21.11600849264014,43.47536842792111,1.055800424632007,0.682909490326333,A,538.0678319997969,Correct,sub_010_day_18_data.csv,1,300,159.0,Training at home,,,,,,,,,,,,,
10,18,3982,A,57.81910426592479,69.35359893187169,2.8909552132962397,1.089403784521905,A,685.9517909997521,Correct,sub_010_day_18_data.csv,1,300,159.0,Training at home,,,,,,,,,,,,,
10,18,3983,A,25.555960414354928,45.21399305904902,1.2777980207177464,0.7102197421688414,A,560.398081999665,Correct,sub_010_day_18_data.csv,1,300,159.0,Training at home,,,,,,,,,,,,,
10,18,3984,A,36.721174701150254,44.30599471839832,1.8360587350575128,0.6959569375865418,A,756.2653740005771,Correct,sub_010_day_18_data.csv,1,300,159.0,Training at home,,,,,,,,,,,,,
10,18,3985,A,32.90523876818447,64.86690945206409,1.6452619384092233,1.0189270309783942,A,549.2526660000294,Correct,sub_010_day_18_data.csv,1,300,159.0,Training at home,,,,,,,,,,,,,
10,18,3986,A,15.207294553244855,41.81028110413354,0.7603647276622428,0.6567543598063504,A,603.4615410007973,Correct,sub_010_day_18_data.csv,1,300,159.0,Training at home,,,,,,,,,,,,,
10,18,3987,B,49.46810917677337,18.37012723304383,2.4734054588386685,0.2885572838042015,B,717.0608330015966,Correct,sub_010_day_18_data.csv,1,300,159.0,Training at home,,,,,,,,,,,,,
10,18,3988,B,77.04035603141637,56.99535907523864,3.852017801570818,0.8952810067974102,B,1712.0480409994343,Correct,sub_010_day_18_data.csv,1,300,159.0,Training at home,,,,,,,,,,,,,
10,18,3989,A,34.29767101454478,61.92694452800312,1.7148835507272393,0.972746169942186,A,529.3506240013812,Correct,sub_010_day_18_data.csv,1,300,159.0,Training at home,,,,,,,,,,,,,
10,18,3990,A,55.91639105779825,64.3377804983602,2.7958195528899124,1.0106154928096052,A,693.7457080002787,Correct,sub_010_day_18_data.csv,1,300,159.0,Training at home,,,,,,,,,,,,,
10,18,3991,A,47.33439720175941,61.19536594433063,2.3667198600879704,0.9612545604222406,A,716.8309159987984,Correct,sub_010_day_18_data.csv,1,300,159.0,Training at home,,,,,,,,,,,,,
10,18,3992,B,68.58592121441359,36.731043070350665,3.4292960607206795,0.5769698753425196,B,438.8398739993136,Correct,sub_010_day_18_data.csv,1,300,159.0,Training at home,,,,,,,,,,,,,
10,18,3993,A,38.57400156893575,66.56506508436654,1.9287000784467876,1.0456015972738617,A,485.1742069986358,Correct,sub_010_day_18_data.csv,1,300,159.0,Training at home,,,,,,,,,,,,,
10,18,3994,A,62.20968437676865,84.8236764940409,3.1104842188384327,1.3324071946207805,A,703.1739570011268,Correct,sub_010_day_18_data.csv,1,300,159.0,Training at home,,,,,,,,,,,,,
10,18,3995,A,21.40877373048833,42.019981717293504,1.0704386865244166,0.6600483293351335,A,590.7557070004259,Correct,sub_010_day_18_data.csv,1,300,159.0,Training at home,,,,,,,,,,,,,
10,18,3996,B,74.61456196738358,55.124983127675904,3.730728098369178,0.8659012101158396,B,599.4831659991178,Correct,sub_010_day_18_data.csv,1,300,159.0,Training at home,,,,,,,,,,,,,
10,18,3997,A,41.81732903435184,48.83782868196603,2.0908664517175923,0.7671428190227068,A,722.4279580004804,Correct,sub_010_day_18_data.csv,1,300,159.0,Training at home,,,,,,,,,,,,,
10,18,3998,A,22.527314648420287,41.875347909636446,1.1263657324210143,0.6577764267971528,A,547.4783329991624,Correct,sub_010_day_18_data.csv,1,300,159.0,Training at home,,,,,,,,,,,,,
10,18,3999,B,45.429713696746234,26.708405851133108,2.2714856848373115,0.419534658055072,B,752.3207080012071,Correct,sub_010_day_18_data.csv,1,300,159.0,Training at home,,,,,,,,,,,,,
10,18,4000,A,55.127620193293986,69.10645881097733,2.7563810096646995,1.08552171658086,A,480.3405410002597,Correct,sub_010_day_18_data.csv,1,300,160.0,Training at home,,,,,,,,,,,,,
10,18,4001,B,77.18052556042895,51.96590295060737,3.8590262780214473,0.8162784947339413,B,676.6827909996209,Correct,sub_010_day_18_data.csv,1,300,160.0,Training at home,,,,,,,,,,,,,
10,18,4002,A,30.016770770943655,59.198368891209874,1.5008385385471827,0.9298858040656174,A,423.08104099902266,Correct,sub_010_day_18_data.csv,1,300,160.0,Training at home,,,,,,,,,,,,,
10,18,4003,A,60.41095532997412,84.23378586510422,3.0205477664987064,1.323141214289336,A,500.706998998794,Correct,sub_010_day_18_data.csv,1,300,160.0,Training at home,,,,,,,,,,,,,
10,18,4004,B,59.69151780532251,37.15826192480853,2.9845758902661252,0.583680613415719,B,722.5020409987337,Correct,sub_010_day_18_data.csv,1,300,160.0,Training at home,,,,,,,,,,,,,
10,18,4005,B,36.13722372657646,13.009184008214628,1.8068611863288229,0.2043477845470244,A,482.5832910009922,Incorrect,sub_010_day_18_data.csv,0,300,160.0,Training at home,,,,,,,,,,,,,
10,18,4006,A,49.0018375190955,64.28046990909999,2.450091875954775,1.0097152601786414,A,777.7835830002005,Correct,sub_010_day_18_data.csv,1,300,160.0,Training at home,,,,,,,,,,,,,
10,18,4007,B,78.5258025949276,57.84749757971085,3.92629012974638,0.9086663671248646,B,610.3792909998447,Correct,sub_010_day_18_data.csv,1,300,160.0,Training at home,,,,,,,,,,,,,
10,18,4008,B,73.72849085312286,53.47650571669778,3.6864245426561433,0.8400069874961515,B,511.83712399870274,Correct,sub_010_day_18_data.csv,1,300,160.0,Training at home,,,,,,,,,,,,,
10,18,4009,A,39.696665874987175,60.062914386074894,1.984833293749359,0.943466052942428,A,815.8573319997231,Correct,sub_010_day_18_data.csv,1,300,160.0,Training at home,,,,,,,,,,,,,
10,18,4010,B,67.56698643532263,45.36612423962136,3.3783493217661316,0.7126094131651814,B,657.399333000285,Correct,sub_010_day_18_data.csv,1,300,160.0,Training at home,,,,,,,,,,,,,
10,18,4011,B,57.262675569679466,28.67714102469784,2.8631337784839737,0.4504594778457459,B,511.378582999896,Correct,sub_010_day_18_data.csv,1,300,160.0,Training at home,,,,,,,,,,,,,
10,18,4012,A,17.4935411252051,33.30894167488573,0.8746770562602549,0.5232156323233597,A,498.89012400126376,Correct,sub_010_day_18_data.csv,1,300,160.0,Training at home,,,,,,,,,,,,,
10,18,4013,B,87.1481466612939,61.27184561620342,4.357407333064694,0.9624559002987632,B,711.3215409990516,Correct,sub_010_day_18_data.csv,1,300,160.0,Training at home,,,,,,,,,,,,,
10,18,4014,A,59.16673486449036,83.61731155185993,2.9583367432245176,1.3134576584212605,A,760.6767500001297,Correct,sub_010_day_18_data.csv,1,300,160.0,Training at home,,,,,,,,,,,,,
10,18,4015,A,39.41179501699739,62.127959170012055,1.970589750849869,0.9759037005551826,A,484.0272500005085,Correct,sub_010_day_18_data.csv,1,300,160.0,Training at home,,,,,,,,,,,,,
10,18,4016,B,66.25073407470937,56.82156174310231,3.3125367037354687,0.8925510046881453,B,620.7052080007998,Correct,sub_010_day_18_data.csv,1,300,160.0,Training at home,,,,,,,,,,,,,
10,18,4017,B,44.180939526485574,29.18275365078516,2.209046976324279,0.4584016224041368,B,826.1552069998288,Correct,sub_010_day_18_data.csv,1,300,160.0,Training at home,,,,,,,,,,,,,
10,18,4018,B,33.76509616415335,15.590282062283675,1.6882548082076676,0.2448915779713156,B,600.8861659993272,Correct,sub_010_day_18_data.csv,1,300,160.0,Training at home,,,,,,,,,,,,,
10,18,4019,B,41.69438922784225,14.076390038525524,2.0847194613921123,0.2211114176704816,B,483.0726660002256,Correct,sub_010_day_18_data.csv,1,300,160.0,Training at home,,,,,,,,,,,,,
10,18,4020,A,45.68663953405448,58.20911134245957,2.284331976702724,0.9143465828273064,A,801.3867500012566,Correct,sub_010_day_18_data.csv,1,300,160.0,Training at home,,,,,,,,,,,,,
10,18,4021,A,24.834264137025084,51.66796489113535,1.2417132068512542,0.8115984946396309,A,487.8912910007784,Correct,sub_010_day_18_data.csv,1,300,160.0,Training at home,,,,,,,,,,,,,
10,18,4022,B,85.99201166715618,60.07030427336855,4.299600583357809,0.943582133020591,B,500.9495819995209,Correct,sub_010_day_18_data.csv,1,300,160.0,Training at home,,,,,,,,,,,,,
10,18,4023,B,53.0264114671823,41.57060122272902,2.651320573359115,0.6529894770331818,B,667.6847909984645,Correct,sub_010_day_18_data.csv,1,300,160.0,Training at home,,,,,,,,,,,,,
10,18,4024,A,46.51353060877943,58.31600468917191,2.3256765304389715,0.916025659591052,B,664.7978749988397,Incorrect,sub_010_day_18_data.csv,0,300,160.0,Training at home,,,,,,,,,,,,,
10,18,4025,A,33.232477917459136,62.43298733069968,1.6616238958729568,0.9806950716989536,A,622.9459990008763,Correct,sub_010_day_18_data.csv,1,300,161.0,Training at home,,,,,,,,,,,,,
10,18,4026,B,59.80718101328407,43.44060732166799,2.9903590506642037,0.6823634641461557,B,552.179916001478,Correct,sub_010_day_18_data.csv,1,300,161.0,Training at home,,,,,,,,,,,,,
10,18,4027,B,71.14423956868207,57.33124544999836,3.557211978434103,0.9005570976343406,B,756.3348740004585,Correct,sub_010_day_18_data.csv,1,300,161.0,Training at home,,,,,,,,,,,,,
10,18,4028,B,40.76609371100768,31.10309607326827,2.038304685550384,0.4885662906383856,B,505.7343319986103,Correct,sub_010_day_18_data.csv,1,300,161.0,Training at home,,,,,,,,,,,,,
10,18,4029,B,45.84336399410165,21.520052694740627,2.2921681997050825,0.3380361972533119,B,782.5754160003271,Correct,sub_010_day_18_data.csv,1,300,161.0,Training at home,,,,,,,,,,,,,
10,18,4030,A,62.71216862766249,80.50151813096363,3.1356084313831247,1.2645148898153045,A,527.4143320002622,Correct,sub_010_day_18_data.csv,1,300,161.0,Training at home,,,,,,,,,,,,,
10,18,4031,A,33.42822999114516,54.25481412652248,1.6714114995572578,0.8522326274088138,A,634.2289570002322,Correct,sub_010_day_18_data.csv,1,300,161.0,Training at home,,,,,,,,,,,,,
10,18,4032,B,49.66306924012475,29.10889038083737,2.4831534620062374,0.4572413808729463,B,527.7802069995232,Correct,sub_010_day_18_data.csv,1,300,161.0,Training at home,,,,,,,,,,,,,
10,18,4033,B,33.56672852949822,15.49978637876198,1.678336426474911,0.2434700750986488,B,535.8043739997811,Correct,sub_010_day_18_data.csv,1,300,161.0,Training at home,,,,,,,,,,,,,
10,18,4034,A,49.51946414336894,66.90221844955673,2.475973207168447,1.0508975899499349,A,530.9216660007223,Correct,sub_010_day_18_data.csv,1,300,161.0,Training at home,,,,,,,,,,,,,
10,18,4035,B,84.24368742469343,59.75971690734285,4.212184371234672,0.9387034380835704,B,1300.2986249994135,Correct,sub_010_day_18_data.csv,1,300,161.0,Training at home,,,,,,,,,,,,,
10,18,4036,A,39.568517770607514,68.96729499815206,1.9784258885303756,1.083335736520773,A,675.9850410016952,Correct,sub_010_day_18_data.csv,1,300,161.0,Training at home,,,,,,,,,,,,,
10,18,4037,B,85.1119660232019,66.8205600901131,4.255598301160095,1.0496149034392732,B,893.3405409989064,Correct,sub_010_day_18_data.csv,1,300,161.0,Training at home,,,,,,,,,,,,,
10,18,4038,B,49.770369570732825,19.53451486118339,2.4885184785366414,0.3068474418966718,B,544.7890409996035,Correct,sub_010_day_18_data.csv,1,300,161.0,Training at home,,,,,,,,,,,,,
10,18,4039,A,23.903659688987776,42.13404496487315,1.1951829844493889,0.6618400306383374,A,584.6175830010907,Correct,sub_010_day_18_data.csv,1,300,161.0,Training at home,,,,,,,,,,,,,
10,18,4040,B,70.93174309907198,39.67254218952068,3.546587154953599,0.6231748354591464,B,589.6319990006305,Correct,sub_010_day_18_data.csv,1,300,161.0,Training at home,,,,,,,,,,,,,
10,18,4041,A,26.519519544101495,57.91983530764949,1.3259759772050748,0.909802645498212,A,460.8582909986581,Correct,sub_010_day_18_data.csv,1,300,161.0,Training at home,,,,,,,,,,,,,
10,18,4042,B,42.9349554870129,34.99045213838966,2.146747774350645,0.549628736918751,B,537.6434160007193,Correct,sub_010_day_18_data.csv,1,300,161.0,Training at home,,,,,,,,,,,,,
10,18,4043,B,40.139375012341056,24.133217566810952,2.0069687506170526,0.3790836950768871,B,570.6134159991052,Correct,sub_010_day_18_data.csv,1,300,161.0,Training at home,,,,,,,,,,,,,
10,18,4044,A,27.418486850175825,52.68621200376566,1.3709243425087914,0.8275930828825229,A,480.71479099962744,Correct,sub_010_day_18_data.csv,1,300,161.0,Training at home,,,,,,,,,,,,,
10,18,4045,A,32.989329349362315,61.715371690735395,1.649466467468116,0.9694227915858892,B,628.8947079992795,Incorrect,sub_010_day_18_data.csv,0,300,161.0,Training at home,,,,,,,,,,,,,
10,18,4046,A,58.60019852563071,76.246553372369,2.9300099262815356,1.1976780596808825,B,582.0148330003576,Incorrect,sub_010_day_18_data.csv,0,300,161.0,Training at home,,,,,,,,,,,,,
10,18,4047,B,63.347784735985805,38.142961991948546,3.1673892367992904,0.5991482459003012,B,531.1109989997931,Correct,sub_010_day_18_data.csv,1,300,161.0,Training at home,,,,,,,,,,,,,
10,18,4048,A,39.9406033685616,61.028937119948424,1.99703016842808,0.9586403025621172,B,633.9488739995431,Incorrect,sub_010_day_18_data.csv,0,300,161.0,Training at home,,,,,,,,,,,,,
10,18,4049,B,51.018040802998335,37.176576463670784,2.550902040149917,0.5839682975194367,B,550.4694999999629,Correct,sub_010_day_18_data.csv,1,300,161.0,Training at home,,,,,,,,,,,,,
10,18,4050,A,40.064763407657765,70.91012460976158,2.0032381703828883,1.1138536326958188,A,587.5257910010987,Correct,sub_010_day_18_data.csv,1,300,162.0,Training at home,,,,,,,,,,,,,
10,18,4051,B,67.95267676446346,47.72099234801496,3.3976338382231734,0.7495995949126927,B,468.6712500006251,Correct,sub_010_day_18_data.csv,1,300,162.0,Training at home,,,,,,,,,,,,,
10,18,4052,B,43.72770853589411,35.685610451704086,2.186385426794706,0.5605482581697036,B,687.807623999106,Correct,sub_010_day_18_data.csv,1,300,162.0,Training at home,,,,,,,,,,,,,
10,18,4053,A,65.27543506385291,76.63488213693742,3.2637717531926453,1.2037779136506117,A,454.8812069988344,Correct,sub_010_day_18_data.csv,1,300,162.0,Training at home,,,,,,,,,,,,,
10,18,4054,B,58.41890737681473,26.51138871301169,2.9209453688407363,0.4164399200863044,B,715.6852490006713,Correct,sub_010_day_18_data.csv,1,300,162.0,Training at home,,,,,,,,,,,,,
10,18,4055,B,64.3869275059837,41.9772665763021,3.2193463752991853,0.6593773614694551,B,804.1280409997853,Correct,sub_010_day_18_data.csv,1,300,162.0,Training at home,,,,,,,,,,,,,
10,18,4056,A,17.01996994354645,35.574518590954455,0.8509984971773225,0.5588032313016802,A,566.1136239996267,Correct,sub_010_day_18_data.csv,1,300,162.0,Training at home,,,,,,,,,,,,,
10,18,4057,A,33.521712400561796,58.65014169763795,1.6760856200280898,0.9212742714464988,A,860.4864999997517,Correct,sub_010_day_18_data.csv,1,300,162.0,Training at home,,,,,,,,,,,,,
10,18,4058,B,43.711545621204024,33.00340727090928,2.185577281060201,0.5184163091286027,B,573.000624000997,Correct,sub_010_day_18_data.csv,1,300,162.0,Training at home,,,,,,,,,,,,,
10,18,4059,B,67.1178193324778,44.82271852636688,3.3558909666238894,0.7040736161817865,B,665.6059159995493,Correct,sub_010_day_18_data.csv,1,300,162.0,Training at home,,,,,,,,,,,,,
10,18,4060,A,34.779553167584595,58.76587033514733,1.7389776583792298,0.923092132633546,A,562.1193749993836,Correct,sub_010_day_18_data.csv,1,300,162.0,Training at home,,,,,,,,,,,,,
10,18,4061,A,48.59358021966688,65.02805857247273,2.429679010983344,1.0214583554424357,B,545.2432909987692,Incorrect,sub_010_day_18_data.csv,0,300,162.0,Training at home,,,,,,,,,,,,,
10,18,4062,B,85.88053564677683,67.17557286136407,4.294026782338841,1.0551914310097363,A,483.52391600019473,Incorrect,sub_010_day_18_data.csv,0,300,162.0,Training at home,,,,,,,,,,,,,
10,18,4063,A,29.486554442591807,55.29700099499547,1.4743277221295903,0.8686032604571263,A,604.9833320012112,Correct,sub_010_day_18_data.csv,1,300,162.0,Training at home,,,,,,,,,,,,,
10,18,4064,B,78.01176631451388,66.07887798839091,3.9005883157256935,1.037964588228926,B,632.0354579984269,Correct,sub_010_day_18_data.csv,1,300,162.0,Training at home,,,,,,,,,,,,,
10,18,4065,B,30.904976212479266,13.037279464995994,1.5452488106239632,0.2047891069501424,B,523.6222069997893,Correct,sub_010_day_18_data.csv,1,300,162.0,Training at home,,,,,,,,,,,,,
10,18,4066,A,35.71900319863748,64.87107385563425,1.785950159931874,1.0189924452767074,A,884.3408319989976,Correct,sub_010_day_18_data.csv,1,300,162.0,Training at home,,,,,,,,,,,,,
10,18,4067,A,51.34720855387605,59.52845497798876,2.567360427693802,0.9350707841920012,A,843.5151249996125,Correct,sub_010_day_18_data.csv,1,300,162.0,Training at home,,,,,,,,,,,,,
10,18,4068,B,47.97244877363414,36.0253442285922,2.398622438681707,0.5658847838579436,B,463.9792069992836,Correct,sub_010_day_18_data.csv,1,300,162.0,Training at home,,,,,,,,,,,,,
10,18,4069,A,38.84640338694666,49.02781967033841,1.942320169347333,0.7701271904893014,A,553.746666000734,Correct,sub_010_day_18_data.csv,1,300,162.0,Training at home,,,,,,,,,,,,,
10,18,4070,B,61.55608013509318,32.77476691504682,3.077804006754659,0.5148248348171445,B,477.2517080000398,Correct,sub_010_day_18_data.csv,1,300,162.0,Training at home,,,,,,,,,,,,,
10,18,4071,B,55.540773889509914,27.783291660421817,2.7770386944754955,0.4364189248646186,B,599.6387079994747,Correct,sub_010_day_18_data.csv,1,300,162.0,Training at home,,,,,,,,,,,,,
10,18,4072,A,46.07250916468006,73.47581138008557,2.303625458234003,1.1541553462411307,A,482.9121250004391,Correct,sub_010_day_18_data.csv,1,300,162.0,Training at home,,,,,,,,,,,,,
10,18,4073,A,24.42671314583793,52.535940612873326,1.2213356572918963,0.8252326253941624,A,461.8445409996639,Correct,sub_010_day_18_data.csv,1,300,162.0,Training at home,,,,,,,,,,,,,
10,18,4074,A,66.43851297965806,82.66208713963825,3.321925648982903,1.2984530284414342,A,573.5914569995657,Correct,sub_010_day_18_data.csv,1,300,162.0,Training at home,,,,,,,,,,,,,
10,18,4075,B,73.37360084802727,45.74756851399962,3.668680042401363,0.7186011258158845,B,588.1749159998435,Correct,sub_010_day_18_data.csv,1,300,163.0,Training at home,,,,,,,,,,,,,
10,18,4076,B,74.41854598116726,57.76096365336899,3.7209272990583626,0.9073070953884554,B,905.117665999569,Correct,sub_010_day_18_data.csv,1,300,163.0,Training at home,,,,,,,,,,,,,
10,18,4077,B,73.57084634594327,49.37300194701514,3.6785423172971634,0.7755493010120866,B,417.3372910008766,Correct,sub_010_day_18_data.csv,1,300,163.0,Training at home,,,,,,,,,,,,,
10,18,4078,A,35.96078609574717,58.59441256940555,1.7980393047873582,0.9203988803472696,A,664.0263330009475,Correct,sub_010_day_18_data.csv,1,300,163.0,Training at home,,,,,,,,,,,,,
10,18,4079,A,38.516517135649714,61.21838035786491,1.9258258567824855,0.9616160699846704,A,728.3944160008105,Correct,sub_010_day_18_data.csv,1,300,163.0,Training at home,,,,,,,,,,,,,
10,18,4080,B,70.60422892374574,47.06655247370595,3.5302114461872867,0.7393196774059654,B,482.8301659999852,Correct,sub_010_day_18_data.csv,1,300,163.0,Training at home,,,,,,,,,,,,,
10,18,4081,A,50.156442846925245,77.02417013718484,2.5078221423462623,1.2098928352591511,A,658.4709990002011,Correct,sub_010_day_18_data.csv,1,300,163.0,Training at home,,,,,,,,,,,,,
10,18,4082,A,50.90690227378047,67.73528168847403,2.5453451136890233,1.0639833167067263,A,502.7189579996047,Correct,sub_010_day_18_data.csv,1,300,163.0,Training at home,,,,,,,,,,,,,
10,18,4083,A,52.46161353281711,68.09336950715344,2.6230806766408556,1.0696081470092424,B,532.5457490016561,Incorrect,sub_010_day_18_data.csv,0,300,163.0,Training at home,,,,,,,,,,,,,
10,18,4084,A,64.97143699325655,87.87257620940883,3.2485718496628273,1.3802991993574405,A,490.0887070016324,Correct,sub_010_day_18_data.csv,1,300,163.0,Training at home,,,,,,,,,,,,,
10,18,4085,A,12.75040839307198,32.57715618596815,0.637520419653599,0.5117207727434241,A,631.6082080011256,Correct,sub_010_day_18_data.csv,1,300,163.0,Training at home,,,,,,,,,,,,,
10,18,4086,B,33.66680471308452,15.07481893621792,1.6833402356542255,0.2367947021210925,B,1466.7530410006293,Correct,sub_010_day_18_data.csv,1,300,163.0,Training at home,,,,,,,,,,,,,
10,18,4087,B,67.32434295459336,37.29348427546243,3.3662171477296683,0.5858046811327963,B,490.897457999381,Correct,sub_010_day_18_data.csv,1,300,163.0,Training at home,,,,,,,,,,,,,
10,18,4088,B,58.70436722154757,25.932406293605716,2.9352183610773785,0.4073452855094872,B,428.71974899935594,Correct,sub_010_day_18_data.csv,1,300,163.0,Training at home,,,,,,,,,,,,,
10,18,4089,B,70.70008703592471,53.17038371569067,3.5350043517962355,0.8351984343488209,B,880.3629570011253,Correct,sub_010_day_18_data.csv,1,300,163.0,Training at home,,,,,,,,,,,,,
10,18,4090,B,57.45849184474941,36.768755805211995,2.872924592237471,0.5775622655964553,B,1396.584291000181,Correct,sub_010_day_18_data.csv,1,300,163.0,Training at home,,,,,,,,,,,,,
10,18,4091,A,51.443892518959075,67.5554912528798,2.5721946259479536,1.0611591751484837,A,646.8502489988168,Correct,sub_010_day_18_data.csv,1,300,163.0,Training at home,,,,,,,,,,,,,
10,18,4092,B,84.59457380283769,59.35487740517081,4.229728690141884,0.9323442340540372,B,772.3768329997256,Correct,sub_010_day_18_data.csv,1,300,163.0,Training at home,,,,,,,,,,,,,
10,18,4093,A,18.396768297686503,48.61929237798928,0.9198384148843252,0.7637100587871267,A,739.1093739988719,Correct,sub_010_day_18_data.csv,1,300,163.0,Training at home,,,,,,,,,,,,,
10,18,4094,A,26.00903887837031,41.864226402937376,1.3004519439185154,0.6576017305784396,A,705.9327909992135,Correct,sub_010_day_18_data.csv,1,300,163.0,Training at home,,,,,,,,,,,,,
10,18,4095,B,71.86940637487695,40.24331909723792,3.593470318743847,0.6321405781597624,B,596.1242909997964,Correct,sub_010_day_18_data.csv,1,300,163.0,Training at home,,,,,,,,,,,,,
10,18,4096,B,84.21066398152416,68.18161247071978,4.210533199076208,1.0709942642395975,B,775.2715820006415,Correct,sub_010_day_18_data.csv,1,300,163.0,Training at home,,,,,,,,,,,,,
10,18,4097,B,38.85670171048621,23.99777334306568,1.9428350855243108,0.3769561421854405,A,473.0914160008979,Incorrect,sub_010_day_18_data.csv,0,300,163.0,Training at home,,,,,,,,,,,,,
10,18,4098,A,30.558604657741327,49.987683053339616,1.5279302328870663,0.7852046892517338,A,549.9041240000224,Correct,sub_010_day_18_data.csv,1,300,163.0,Training at home,,,,,,,,,,,,,
10,18,4099,B,59.522860296157845,34.208739342435166,2.976143014807892,0.5373496210338122,B,500.44449900087784,Correct,sub_010_day_18_data.csv,1,300,163.0,Training at home,,,,,,,,,,,,,
10,18,4100,B,57.02351175172274,36.57463026604465,2.8511755875861367,0.574512948757844,B,689.0615409993188,Correct,sub_010_day_18_data.csv,1,300,164.0,Training at home,,,,,,,,,,,,,
10,18,4101,A,38.881284879418295,49.31772074518448,1.9440642439709148,0.7746809459243226,A,872.9210000001331,Correct,sub_010_day_18_data.csv,1,300,164.0,Training at home,,,,,,,,,,,,,
10,18,4102,B,48.359029341086426,36.588996650478336,2.4179514670543214,0.5747386153968215,B,514.6152489996894,Correct,sub_010_day_18_data.csv,1,300,164.0,Training at home,,,,,,,,,,,,,
10,18,4103,A,41.972159167506895,50.44242053283578,2.0986079583753448,0.7923476888762192,A,348.3636660002958,Correct,sub_010_day_18_data.csv,1,300,164.0,Training at home,,,,,,,,,,,,,
10,18,4104,B,66.99942250537546,52.5870761316826,3.3499711252687736,0.8260358602453063,B,802.1573739988526,Correct,sub_010_day_18_data.csv,1,300,164.0,Training at home,,,,,,,,,,,,,
10,18,4105,A,51.14265209938197,81.33791084894096,2.5571326049690986,1.2776529159068724,A,442.0622069992533,Correct,sub_010_day_18_data.csv,1,300,164.0,Training at home,,,,,,,,,,,,,
10,18,4106,B,67.66237994310052,57.2228413029997,3.3831189971550257,0.8988542892751922,B,571.9817490007699,Correct,sub_010_day_18_data.csv,1,300,164.0,Training at home,,,,,,,,,,,,,
10,18,4107,B,67.9098118067106,59.08870735381815,3.3954905903355295,0.9281632446643614,A,566.3762069998484,Incorrect,sub_010_day_18_data.csv,0,300,164.0,Training at home,,,,,,,,,,,,,
10,18,4108,A,14.960175516821604,32.03008865902317,0.7480087758410803,0.5031274561250847,A,488.8937910000095,Correct,sub_010_day_18_data.csv,1,300,164.0,Training at home,,,,,,,,,,,,,
10,18,4109,B,82.50722296209449,54.94347350836292,4.125361148104725,0.8630500636828917,B,728.647791000185,Correct,sub_010_day_18_data.csv,1,300,164.0,Training at home,,,,,,,,,,,,,
10,18,4110,A,43.28275279609577,69.13315240587322,2.1641376398047885,1.0859410185889742,A,607.7078739999706,Correct,sub_010_day_18_data.csv,1,300,164.0,Training at home,,,,,,,,,,,,,
10,18,4111,A,54.49579798481028,81.35624451399644,2.724789899240514,1.2779409004441304,A,491.3137490002555,Correct,sub_010_day_18_data.csv,1,300,164.0,Training at home,,,,,,,,,,,,,
10,18,4112,B,46.956474563997915,25.635100151814775,2.347823728199896,0.4026752115548995,B,606.0294990002149,Correct,sub_010_day_18_data.csv,1,300,164.0,Training at home,,,,,,,,,,,,,
10,18,4113,B,78.33609726741838,47.21696718612636,3.916804863370919,0.7416823861836245,B,586.5747080006258,Correct,sub_010_day_18_data.csv,1,300,164.0,Training at home,,,,,,,,,,,,,
10,18,4114,B,46.752057381129426,19.961966026787845,2.337602869056471,0.3135618291048286,B,525.3452489996562,Correct,sub_010_day_18_data.csv,1,300,164.0,Training at home,,,,,,,,,,,,,
10,18,4115,A,21.78316373734572,33.70585033964558,1.089158186867286,0.529450259050138,A,737.7586660004454,Correct,sub_010_day_18_data.csv,1,300,164.0,Training at home,,,,,,,,,,,,,
10,18,4116,B,50.59200200635267,22.455462381698283,2.5296001003176336,0.3527295782565264,B,476.1935410006118,Correct,sub_010_day_18_data.csv,1,300,164.0,Training at home,,,,,,,,,,,,,
10,18,4117,B,46.37777189219375,33.858873178752,2.3188885946096875,0.5318539361859789,B,565.2072079992649,Correct,sub_010_day_18_data.csv,1,300,164.0,Training at home,,,,,,,,,,,,,
10,18,4118,B,57.06487818257004,47.24734020998191,2.8532439091285022,0.742159484526684,B,539.3153739987611,Correct,sub_010_day_18_data.csv,1,300,164.0,Training at home,,,,,,,,,,,,,
10,18,4119,B,44.351969296394145,14.767822914737888,2.2175984648197073,0.2319724198922777,B,681.0601239994867,Correct,sub_010_day_18_data.csv,1,300,164.0,Training at home,,,,,,,,,,,,,
10,18,4120,A,19.447255065330346,32.18486669600124,0.9723627532665172,0.5055587038446214,B,1473.4977910011366,Incorrect,sub_010_day_18_data.csv,0,300,164.0,Training at home,,,,,,,,,,,,,
10,18,4121,A,59.42796743720568,86.98796827556978,2.9713983718602837,1.36640381042616,A,611.6544579999754,Correct,sub_010_day_18_data.csv,1,300,164.0,Training at home,,,,,,,,,,,,,
10,18,4122,B,60.695628111282616,52.983132513937086,3.034781405564131,0.8322570993497963,B,657.0527079984458,Correct,sub_010_day_18_data.csv,1,300,164.0,Training at home,,,,,,,,,,,,,
10,18,4123,B,68.6086363214219,42.41041214612884,3.4304318160710947,0.6661811961699685,B,510.4305820004811,Correct,sub_010_day_18_data.csv,1,300,164.0,Training at home,,,,,,,,,,,,,
10,18,4124,B,52.03704661794509,34.704487755125015,2.6018523308972545,0.5451368188904884,B,574.3876239994279,Correct,sub_010_day_18_data.csv,1,300,164.0,Training at home,,,,,,,,,,,,,
10,18,4125,B,50.33397002925829,31.690220245848497,2.516698501462914,0.4977888155750007,B,596.7227490000369,Correct,sub_010_day_18_data.csv,1,300,165.0,Training at home,,,,,,,,,,,,,
10,18,4126,A,55.5932544487673,68.7863215296339,2.779662722438365,1.0804930119248164,A,663.9699580009619,Correct,sub_010_day_18_data.csv,1,300,165.0,Training at home,,,,,,,,,,,,,
10,18,4127,A,39.68911478234957,64.64059441209919,1.9844557391174784,1.0153720826436412,A,563.1355830009852,Correct,sub_010_day_18_data.csv,1,300,165.0,Training at home,,,,,,,,,,,,,
10,18,4128,B,74.09851067999321,53.983416274578815,3.70492553399966,0.8479695199194823,B,536.8053330003022,Correct,sub_010_day_18_data.csv,1,300,165.0,Training at home,,,,,,,,,,,,,
10,18,4129,B,48.62441244830555,29.65122314010863,2.4312206224152777,0.4657603239345848,B,618.4017909999966,Correct,sub_010_day_18_data.csv,1,300,165.0,Training at home,,,,,,,,,,,,,
10,18,4130,A,17.68101860651361,33.77308453743433,0.8840509303256806,0.5305063713593536,A,520.0952909999614,Correct,sub_010_day_18_data.csv,1,300,165.0,Training at home,,,,,,,,,,,,,
10,18,4131,A,55.376882982547045,82.83774162768786,2.7688441491273523,1.301212202687568,A,634.2272910005704,Correct,sub_010_day_18_data.csv,1,300,165.0,Training at home,,,,,,,,,,,,,
10,18,4132,A,54.69162297687586,62.30619263074691,2.734581148843793,0.9787033852095248,A,707.1215409996512,Correct,sub_010_day_18_data.csv,1,300,165.0,Training at home,,,,,,,,,,,,,
10,18,4133,B,62.56043259667459,48.12017007075515,3.128021629833729,0.7558698639188792,B,613.7691659987468,Correct,sub_010_day_18_data.csv,1,300,165.0,Training at home,,,,,,,,,,,,,
10,18,4134,B,47.56253055444555,34.85327109278249,2.3781265277222774,0.5474739020932949,B,634.3422490008379,Correct,sub_010_day_18_data.csv,1,300,165.0,Training at home,,,,,,,,,,,,,
10,18,4135,A,52.023361538401275,82.58105355317724,2.6011680769200636,1.2971801558418343,A,805.4850820008141,Correct,sub_010_day_18_data.csv,1,300,165.0,Training at home,,,,,,,,,,,,,
10,18,4136,B,49.557202003170275,25.61460593601302,2.477860100158514,0.4023532891658801,B,757.6404989995353,Correct,sub_010_day_18_data.csv,1,300,165.0,Training at home,,,,,,,,,,,,,
10,18,4137,A,49.40530147427851,61.83079015256768,2.4702650737139256,0.9712357805447936,A,644.3639160006569,Correct,sub_010_day_18_data.csv,1,300,165.0,Training at home,,,,,,,,,,,,,
10,18,4138,B,42.99201195083118,17.286546285820446,2.149600597541559,0.2715364340873671,B,475.4381660004583,Correct,sub_010_day_18_data.csv,1,300,165.0,Training at home,,,,,,,,,,,,,
10,18,4139,A,33.12135315029653,62.14077016326869,1.6560676575148263,0.9761049351666836,A,499.6186240005045,Correct,sub_010_day_18_data.csv,1,300,165.0,Training at home,,,,,,,,,,,,,
10,18,4140,A,44.49165406832804,65.75374562598745,2.224582703416402,1.0328574210230708,A,874.3884160012385,Correct,sub_010_day_18_data.csv,1,300,165.0,Training at home,,,,,,,,,,,,,
10,18,4141,B,86.34309923284572,65.84275742141219,4.317154961642285,1.034255615036017,B,869.615249999697,Correct,sub_010_day_18_data.csv,1,300,165.0,Training at home,,,,,,,,,,,,,
10,18,4142,B,31.47943126038838,12.298315464282272,1.5739715630194189,0.1931814875705946,B,508.1404989996372,Correct,sub_010_day_18_data.csv,1,300,165.0,Training at home,,,,,,,,,,,,,
10,18,4143,B,55.06433716675676,30.071825031297333,2.7532168583378382,0.4723671229918067,B,543.4758329993201,Correct,sub_010_day_18_data.csv,1,300,165.0,Training at home,,,,,,,,,,,,,
10,18,4144,B,47.047548633466775,29.57975605796986,2.3523774316733386,0.4646377216334815,B,642.486665999968,Correct,sub_010_day_18_data.csv,1,300,165.0,Training at home,,,,,,,,,,,,,
10,18,4145,A,55.425606039081515,79.09283055927662,2.771280301954076,1.2423872771832287,A,500.7222490003187,Correct,sub_010_day_18_data.csv,1,300,165.0,Training at home,,,,,,,,,,,,,
10,18,4146,A,25.508012339279563,37.03054481521974,1.2754006169639782,0.5816744377496097,B,388.08262400016247,Incorrect,sub_010_day_18_data.csv,0,300,165.0,Training at home,,,,,,,,,,,,,
10,18,4147,A,15.414952918685673,42.22284401624442,0.7707476459342836,0.6632348828755061,A,490.75600000105624,Correct,sub_010_day_18_data.csv,1,300,165.0,Training at home,,,,,,,,,,,,,
10,18,4148,A,47.81500693877169,77.41751215487031,2.390750346938584,1.2160714372246957,A,725.9504579997156,Correct,sub_010_day_18_data.csv,1,300,165.0,Training at home,,,,,,,,,,,,,
10,18,4149,B,76.86539048150692,50.57514274223446,3.8432695240753456,0.7944324844662947,B,765.7783749982627,Correct,sub_010_day_18_data.csv,1,300,165.0,Training at home,,,,,,,,,,,,,
10,18,4150,B,73.00861557019383,42.95890199432145,3.650430778509691,0.6747968545582209,B,761.5627910017793,Correct,sub_010_day_18_data.csv,1,300,166.0,Training at home,,,,,,,,,,,,,
10,18,4151,B,75.2452950149424,50.1141736589133,3.76226475074712,0.7871915990378259,B,1257.8725410003244,Correct,sub_010_day_18_data.csv,1,300,166.0,Training at home,,,,,,,,,,,,,
10,18,4152,B,64.20034131618283,52.30326298284477,3.210017065809142,0.8215777337284005,B,899.9099579996255,Correct,sub_010_day_18_data.csv,1,300,166.0,Training at home,,,,,,,,,,,,,
10,18,4153,A,42.614169101965835,65.52555552902723,2.130708455098292,1.0292730193619102,A,646.4312909993168,Correct,sub_010_day_18_data.csv,1,300,166.0,Training at home,,,,,,,,,,,,,
10,18,4154,A,34.69755223569643,61.22824601244026,1.7348776117848217,0.9617710393243544,A,815.4894159997639,Correct,sub_010_day_18_data.csv,1,300,166.0,Training at home,,,,,,,,,,,,,
10,18,4155,B,63.13896540647987,43.53788723059191,3.1569482703239937,0.6838915333822422,B,687.127707999025,Correct,sub_010_day_18_data.csv,1,300,166.0,Training at home,,,,,,,,,,,,,
10,18,4156,B,37.74378337833778,20.65262294522215,1.8871891689168891,0.3244106426103495,B,534.6678749992861,Correct,sub_010_day_18_data.csv,1,300,166.0,Training at home,,,,,,,,,,,,,
10,18,4157,B,70.0312836741781,40.126649603612336,3.501564183708905,0.6303079380394014,B,571.8538330002048,Correct,sub_010_day_18_data.csv,1,300,166.0,Training at home,,,,,,,,,,,,,
10,18,4158,A,61.62927735173428,73.719675322666,3.081463867586714,1.1579859520935616,A,764.5820409998123,Correct,sub_010_day_18_data.csv,1,300,166.0,Training at home,,,,,,,,,,,,,
10,18,4159,A,23.89965736199741,48.223693921895304,1.1949828680998704,0.757496012769945,A,575.5370409988245,Correct,sub_010_day_18_data.csv,1,300,166.0,Training at home,,,,,,,,,,,,,
10,18,4160,A,47.21227233908451,58.533439333787875,2.3606136169542253,0.9194411150018592,B,936.77787499837,Incorrect,sub_010_day_18_data.csv,0,300,166.0,Training at home,,,,,,,,,,,,,
10,18,4161,B,74.2009662298135,41.964230399570326,3.710048311490675,0.659172589684198,B,702.2330409999995,Correct,sub_010_day_18_data.csv,1,300,166.0,Training at home,,,,,,,,,,,,,
10,18,4162,A,34.38525855567159,45.295977086320974,1.7192629277835794,0.7115075442577878,B,845.4058330007683,Incorrect,sub_010_day_18_data.csv,0,300,166.0,Training at home,,,,,,,,,,,,,
10,18,4163,A,42.433954375953725,58.7082191923264,2.1216977187976864,0.9221865505997596,A,672.2131660008017,Correct,sub_010_day_18_data.csv,1,300,166.0,Training at home,,,,,,,,,,,,,
10,18,4164,B,44.55909754309004,36.25826028336844,2.227954877154502,0.5695434206908844,B,483.88129100021615,Correct,sub_010_day_18_data.csv,1,300,166.0,Training at home,,,,,,,,,,,,,
10,18,4165,B,42.33146150731557,16.51708624763056,2.1165730753657783,0.2594497840713258,B,585.9449159997894,Correct,sub_010_day_18_data.csv,1,300,166.0,Training at home,,,,,,,,,,,,,
10,18,4166,B,77.4012218793531,59.414876026887285,3.870061093967655,0.933286690200087,B,568.7816240006214,Correct,sub_010_day_18_data.csv,1,300,166.0,Training at home,,,,,,,,,,,,,
10,18,4167,A,31.79895889627316,53.55386873090655,1.589947944813658,0.8412222028816407,A,680.6097909993696,Correct,sub_010_day_18_data.csv,1,300,166.0,Training at home,,,,,,,,,,,,,
10,18,4168,A,20.202804237192336,50.45654879039993,1.0101402118596168,0.7925696150270768,A,478.32420700069633,Correct,sub_010_day_18_data.csv,1,300,166.0,Training at home,,,,,,,,,,,,,
10,18,4169,B,75.34164667386115,51.92705692164658,3.7670823336930574,0.8156683027379196,B,609.6320409997134,Correct,sub_010_day_18_data.csv,1,300,166.0,Training at home,,,,,,,,,,,,,
10,18,4170,A,42.85434279202218,67.76361054759519,2.142717139601109,1.0644283053852244,A,527.1133740006917,Correct,sub_010_day_18_data.csv,1,300,166.0,Training at home,,,,,,,,,,,,,
10,18,4171,A,13.834273323610208,33.49908933856719,0.6917136661805103,0.5262024648399541,A,755.6153329987865,Correct,sub_010_day_18_data.csv,1,300,166.0,Training at home,,,,,,,,,,,,,
10,18,4172,A,56.113220521264594,63.628805742437486,2.8056610260632295,0.999478943385668,A,939.46245799998,Correct,sub_010_day_18_data.csv,1,300,166.0,Training at home,,,,,,,,,,,,,
10,18,4173,A,35.499581411259705,60.83586293137811,1.774979070562985,0.9556075003000656,A,519.8503740011802,Correct,sub_010_day_18_data.csv,1,300,166.0,Training at home,,,,,,,,,,,,,
10,18,4174,B,57.7165791656555,47.14171357767954,2.885828958282775,0.7405003052663611,A,346.0140830011369,Incorrect,sub_010_day_18_data.csv,0,300,166.0,Training at home,,,,,,,,,,,,,
10,18,4175,B,75.86201517341385,57.59920033574846,3.793100758670693,0.9047661231371708,B,481.0317070005112,Correct,sub_010_day_18_data.csv,1,300,167.0,Training at home,,,,,,,,,,,,,
10,18,4176,A,36.50349991070853,45.015129254344544,1.8251749955354264,0.707095996829219,A,829.8255819991027,Correct,sub_010_day_18_data.csv,1,300,167.0,Training at home,,,,,,,,,,,,,
10,18,4177,A,46.759666260880465,58.08004009065048,2.337983313044023,0.9123191363449408,A,703.5426239999651,Correct,sub_010_day_18_data.csv,1,300,167.0,Training at home,,,,,,,,,,,,,
10,18,4178,A,13.46983328413138,37.80754655539986,0.673491664206569,0.5938795525434913,A,1079.8028739991423,Correct,sub_010_day_18_data.csv,1,300,167.0,Training at home,,,,,,,,,,,,,
10,18,4179,A,57.44560149622384,75.08370300598442,2.872280074811192,1.1794120488395925,A,661.3956249984767,Correct,sub_010_day_18_data.csv,1,300,167.0,Training at home,,,,,,,,,,,,,
10,18,4180,A,47.17723879225336,66.40152185830082,2.358861939612668,1.0430326662860998,A,509.7712910010159,Correct,sub_010_day_18_data.csv,1,300,167.0,Training at home,,,,,,,,,,,,,
10,18,4181,A,43.95810491121681,56.55655909124802,2.1979052455608405,0.8883883527669091,B,901.6235829985816,Incorrect,sub_010_day_18_data.csv,0,300,167.0,Training at home,,,,,,,,,,,,,
10,18,4182,B,81.93184465730745,64.04508175887264,4.0965922328653726,1.00601779176116,B,577.4532069990528,Correct,sub_010_day_18_data.csv,1,300,167.0,Training at home,,,,,,,,,,,,,
10,18,4183,A,46.72585181998289,57.193292241493765,2.3362925909991445,0.8983901337024547,B,516.7203330001939,Incorrect,sub_010_day_18_data.csv,0,300,167.0,Training at home,,,,,,,,,,,,,
10,18,4184,B,53.97389826130997,22.349076973533755,2.6986949130654985,0.3510584801728322,B,484.7397909998108,Correct,sub_010_day_18_data.csv,1,300,167.0,Training at home,,,,,,,,,,,,,
10,18,4185,B,74.06578848648138,45.97116319285579,3.703289424324069,0.7221133428182663,B,662.9574569997203,Correct,sub_010_day_18_data.csv,1,300,167.0,Training at home,,,,,,,,,,,,,
10,18,4186,A,20.566068368787,47.66611963318039,1.02830341843935,0.7487376563236586,A,504.460748999918,Correct,sub_010_day_18_data.csv,1,300,167.0,Training at home,,,,,,,,,,,,,
10,18,4187,B,36.72061121784474,17.05638966706604,1.8360305608922372,0.2679211423740976,B,714.5819580000534,Correct,sub_010_day_18_data.csv,1,300,167.0,Training at home,,,,,,,,,,,,,
10,18,4188,A,32.18197384907264,47.58839994731862,1.609098692453632,0.7475168383529455,A,969.67495699937,Correct,sub_010_day_18_data.csv,1,300,167.0,Training at home,,,,,,,,,,,,,
10,18,4189,A,56.27288453568235,63.82910655970302,2.8136442267841177,1.0026252612658155,A,1106.4775830000144,Correct,sub_010_day_18_data.csv,1,300,167.0,Training at home,,,,,,,,,,,,,
10,18,4190,A,62.224249476978144,75.53718891112959,3.111212473848907,1.1865353887801453,A,715.8688740000798,Correct,sub_010_day_18_data.csv,1,300,167.0,Training at home,,,,,,,,,,,,,
10,18,4191,B,79.26804666772934,59.90028808337503,3.9634023333864663,0.940911524953216,B,585.8186250006838,Correct,sub_010_day_18_data.csv,1,300,167.0,Training at home,,,,,,,,,,,,,
10,18,4192,A,39.07075488177116,56.31746386647024,1.953537744088558,0.8846326537585576,A,553.4602909992827,Correct,sub_010_day_18_data.csv,1,300,167.0,Training at home,,,,,,,,,,,,,
10,18,4193,A,33.950800396157426,47.9819676225443,1.6975400198078714,0.7536989849388424,A,716.0279159998026,Correct,sub_010_day_18_data.csv,1,300,167.0,Training at home,,,,,,,,,,,,,
10,18,4194,B,76.78744572833222,48.32490682559069,3.839372286416611,0.7590858613434349,B,646.0154570013401,Correct,sub_010_day_18_data.csv,1,300,167.0,Training at home,,,,,,,,,,,,,
10,18,4195,B,40.10876716325478,22.94603626672102,2.0054383581627393,0.3604354948226786,B,528.0663740013551,Correct,sub_010_day_18_data.csv,1,300,167.0,Training at home,,,,,,,,,,,,,
10,18,4196,A,34.01420064596293,67.03866632526966,1.7007100322981463,1.053040908169623,A,451.6604990003543,Correct,sub_010_day_18_data.csv,1,300,167.0,Training at home,,,,,,,,,,,,,
10,18,4197,A,51.00329741289238,66.05652297936106,2.550164870644619,1.0376134365682304,A,485.12566600038554,Correct,sub_010_day_18_data.csv,1,300,167.0,Training at home,,,,,,,,,,,,,
10,18,4198,B,42.61144738193758,14.664136927066476,2.130572369096879,0.2303437242065342,B,512.8527500000928,Correct,sub_010_day_18_data.csv,1,300,167.0,Training at home,,,,,,,,,,,,,
10,18,4199,B,51.18572105710141,23.318162381331,2.5592860528550703,0.3662808381620167,B,686.0018330007733,Correct,sub_010_day_18_data.csv,1,300,167.0,Training at home,,,,,,,,,,,,,
