subject,day,trial,cat,x,y,xt,yt,resp,rt,fb,f_name,acc,n_trials,block,session_type,ns_left_digit,ns_right_digit,ns_left_size,ns_right_size,ns_congruent,ns_cue,ns_correct_side,ns_resp,ns_rt,ns_fb,acc_stroop,acc_stroop_mean,resp_key
10,22,0,A,58.900636124625464,79.48856768147652,2.945031806231273,1.2486035013625083,A,1640.7162910036277,Correct,sub_010_day_22_data.csv,1,321,,Dual-Task at home,7.0,3.0,small,big,False,Size,right,right,925.1613329979592,Correct,1.0,0.8317757009345794,
10,22,1,B,61.608106040039054,53.04312270508252,3.080405302001953,0.8331994230687458,A,1155.2349580015289,Incorrect,sub_010_day_22_data.csv,0,321,,Dual-Task at home,6.0,7.0,big,small,False,Size,left,left,1034.8492490011267,Correct,1.0,0.8317757009345794,
10,22,2,A,22.931310694168932,37.192932150947485,1.1465655347084465,0.5842252120544011,B,886.5206659975229,Incorrect,sub_010_day_22_data.csv,0,321,,Dual-Task at home,8.0,4.0,small,big,False,Value,left,left,957.9310000117404,Correct,1.0,0.8317757009345794,
10,22,3,A,43.96731986160379,74.76003064440718,2.1983659930801895,1.1743278152730872,A,1067.9561249999097,Correct,sub_010_day_22_data.csv,1,321,,Dual-Task at home,2.0,3.0,big,small,False,Size,left,left,827.9961660009576,Correct,1.0,0.8317757009345794,
10,22,4,B,69.54731989906557,43.919064266602355,3.4773659949532782,0.6898790482624798,B,756.3638739957241,Correct,sub_010_day_22_data.csv,1,321,,Dual-Task at home,4.0,8.0,big,small,False,Value,right,right,1126.101000001654,Correct,1.0,0.8317757009345794,
10,22,5,A,37.93371746872384,56.117431872250904,1.896685873436192,0.8814905585409458,A,640.4795000125887,Correct,sub_010_day_22_data.csv,1,321,,Dual-Task at home,2.0,7.0,big,small,False,Value,right,left,916.0693750018254,Incorrect,0.0,0.8317757009345794,
10,22,6,A,55.49050278729486,78.82989470724976,2.774525139364743,1.238257090477764,A,742.2446249984205,Correct,sub_010_day_22_data.csv,1,321,,Dual-Task at home,8.0,3.0,small,big,False,Size,right,right,714.0236249979353,Correct,1.0,0.8317757009345794,
10,22,7,A,21.83790175957643,46.59673354509832,1.0918950879788214,0.7319397789328098,A,720.3721660043811,Correct,sub_010_day_22_data.csv,1,321,,Dual-Task at home,7.0,5.0,small,big,False,Size,right,right,881.3909579912433,Correct,1.0,0.8317757009345794,
10,22,8,B,73.89003169893661,50.40149803100231,3.6945015849468303,0.7917048797205866,B,1052.7635409962386,Correct,sub_010_day_22_data.csv,1,321,,Dual-Task at home,5.0,4.0,big,small,True,Value,left,left,628.8016659964342,Correct,1.0,0.8317757009345794,
10,22,9,A,26.678718772471683,43.00582335257276,1.333935938623584,0.6755338935301147,A,775.8605419949163,Correct,sub_010_day_22_data.csv,1,321,,Dual-Task at home,8.0,4.0,small,big,False,Size,right,right,762.3132910084678,Correct,1.0,0.8317757009345794,
10,22,10,B,64.31391456291446,42.54508316286696,3.2156957281457235,0.6682966035541482,B,764.4926240027416,Correct,sub_010_day_22_data.csv,1,321,,Dual-Task at home,5.0,8.0,big,small,False,Value,right,right,816.7159159929724,Correct,1.0,0.8317757009345794,
10,22,11,B,37.074923581546976,19.012836523264472,1.8537461790773488,0.2986529377269568,B,617.0739990047878,Correct,sub_010_day_22_data.csv,1,321,,Dual-Task at home,2.0,4.0,big,small,False,Size,left,left,608.7424990109866,Correct,1.0,0.8317757009345794,
10,22,12,B,73.40800306646551,46.552481348271435,3.670400153323276,0.731244667050527,B,729.8303330026101,Correct,sub_010_day_22_data.csv,1,321,,Dual-Task at home,5.0,4.0,small,big,False,Value,left,right,561.5755000035278,Incorrect,0.0,0.8317757009345794,
10,22,13,B,53.26080829963048,23.844885243487003,2.663040414981524,0.3745545815331522,B,630.3852489945712,Correct,sub_010_day_22_data.csv,1,321,,Dual-Task at home,4.0,5.0,big,small,False,Value,right,right,739.9804169981508,Correct,1.0,0.8317757009345794,
10,22,14,B,63.846356323485374,31.848124716583474,3.1923178161742687,0.5002691732011507,B,656.5805829886813,Correct,sub_010_day_22_data.csv,1,321,,Dual-Task at home,2.0,7.0,big,small,False,Size,left,right,744.6866670070449,Incorrect,0.0,0.8317757009345794,
10,22,15,A,39.93874607640582,51.82756398979195,1.996937303820291,0.8141054714189265,A,862.1112499968149,Correct,sub_010_day_22_data.csv,1,321,,Dual-Task at home,4.0,2.0,small,big,False,Size,right,right,710.3295410051942,Correct,1.0,0.8317757009345794,
10,22,16,A,55.84549994678259,82.340983739954,2.7922749973391294,1.2934091480339802,A,624.5558750088094,Correct,sub_010_day_22_data.csv,1,321,,Dual-Task at home,6.0,5.0,small,big,False,Value,left,left,644.326124995132,Correct,1.0,0.8317757009345794,
10,22,17,A,47.74649387005563,76.8020410853286,2.387324693502782,1.206403640271849,A,604.6400000050198,Correct,sub_010_day_22_data.csv,1,321,,Dual-Task at home,3.0,8.0,big,small,False,Size,left,left,704.0105000050971,Correct,1.0,0.8317757009345794,
10,22,18,B,73.89163245337159,42.385650120377306,3.6945816226685793,0.6657922351790233,B,730.1713750057388,Correct,sub_010_day_22_data.csv,1,321,,Dual-Task at home,5.0,7.0,big,small,False,Value,right,right,947.2284170042258,Correct,1.0,0.8317757009345794,
10,22,19,B,32.49793745418123,15.518635691556408,1.6248968727090616,0.2437661594116498,B,529.3980409915093,Correct,sub_010_day_22_data.csv,1,321,,Dual-Task at home,8.0,5.0,small,big,False,Size,right,right,1284.2167080088984,Correct,1.0,0.8317757009345794,
10,22,20,B,64.92920635406395,54.87026357834583,3.2464603177031974,0.8619000847913343,A,691.7427919979673,Incorrect,sub_010_day_22_data.csv,0,321,,Dual-Task at home,6.0,5.0,small,big,False,Value,left,left,771.7926250043092,Correct,1.0,0.8317757009345794,
10,22,21,A,31.93418553257091,47.54746076693319,1.5967092766285456,0.7468737672112311,A,576.4035829924978,Correct,sub_010_day_22_data.csv,1,321,,Dual-Task at home,4.0,2.0,small,big,False,Size,right,left,871.2318329926347,Incorrect,0.0,0.8317757009345794,
10,22,22,B,47.4399649275553,27.360056528395862,2.371998246377766,0.4297707629570496,B,606.4927500119666,Correct,sub_010_day_22_data.csv,1,321,,Dual-Task at home,4.0,3.0,small,big,False,Size,right,right,1327.530000009574,Correct,1.0,0.8317757009345794,
10,22,23,B,49.09576188987762,33.11439819913156,2.454788094493881,0.520159750552194,B,531.8541660089977,Correct,sub_010_day_22_data.csv,1,321,,Dual-Task at home,2.0,8.0,small,big,True,Size,right,right,1042.1475829934934,Correct,1.0,0.8317757009345794,
10,22,24,B,85.24489283776018,59.02008517659283,4.262244641888008,0.9270853300251396,B,1043.3320829906734,Correct,sub_010_day_22_data.csv,1,321,,Dual-Task at home,2.0,4.0,big,small,False,Size,left,left,1025.3579579875804,Correct,1.0,0.8317757009345794,
10,22,25,A,23.61713701304596,55.04022402651033,1.180856850652298,0.8645698172681063,A,742.1849169913912,Correct,sub_010_day_22_data.csv,1,321,,Dual-Task at home,8.0,7.0,small,big,False,Value,left,left,863.0482080043294,Correct,1.0,0.8317757009345794,
10,22,26,B,82.76218673492178,65.69071592023573,4.138109336746089,1.0318673527203333,A,966.4693750091828,Incorrect,sub_010_day_22_data.csv,0,321,,Dual-Task at home,4.0,6.0,small,big,True,Size,right,right,1262.359833010123,Correct,1.0,0.8317757009345794,
10,22,27,B,62.61489912553212,30.487873505385497,3.1307449562766063,0.4789023971404699,B,752.0956660009688,Correct,sub_010_day_22_data.csv,1,321,,Dual-Task at home,4.0,3.0,small,big,False,Value,left,left,449.3444170075236,Correct,1.0,0.8317757009345794,
10,22,28,A,42.58943845665684,52.66900689364101,2.1294719228328423,0.8273228256446639,A,680.3253749967553,Correct,sub_010_day_22_data.csv,1,321,,Dual-Task at home,2.0,5.0,big,small,False,Size,left,right,1178.3376240055077,Incorrect,0.0,0.8317757009345794,
10,22,29,B,57.02097426500001,43.70534665210766,2.8510487132500004,0.6865219798242834,B,968.558500011568,Correct,sub_010_day_22_data.csv,1,321,,Dual-Task at home,5.0,4.0,small,big,False,Size,right,left,1612.0057499938412,Incorrect,0.0,0.8317757009345794,
10,22,30,A,53.384376891851595,64.35038411096619,2.6692188445925797,1.0108134698934637,A,742.2285409993492,Correct,sub_010_day_22_data.csv,1,321,,Dual-Task at home,6.0,3.0,small,big,False,Size,right,right,547.074625006644,Correct,1.0,0.8317757009345794,
10,22,31,A,20.746062615086277,37.037342180286934,1.037303130754314,0.581781210510404,A,739.9309579923283,Correct,sub_010_day_22_data.csv,1,321,,Dual-Task at home,8.0,3.0,small,big,False,Value,left,left,1053.017541998997,Correct,1.0,0.8317757009345794,
10,22,32,B,41.6652312115388,28.286828309585573,2.08326156057694,0.4443284600537491,B,835.0449989957269,Correct,sub_010_day_22_data.csv,1,321,,Dual-Task at home,8.0,3.0,small,big,False,Value,left,left,475.9382500051288,Correct,1.0,0.8317757009345794,
10,22,33,B,46.22183896514281,19.75769929051942,2.3110919482571406,0.3103532147146604,B,617.8698330040788,Correct,sub_010_day_22_data.csv,1,321,,Dual-Task at home,2.0,5.0,big,small,False,Size,left,left,632.783750013914,Correct,1.0,0.8317757009345794,
10,22,34,A,57.86222454906425,70.18467486758885,2.8931112274532125,1.1024582947930266,A,1102.2827080014397,Correct,sub_010_day_22_data.csv,1,321,,Dual-Task at home,5.0,7.0,big,small,False,Size,left,left,740.9477490000427,Correct,1.0,0.8317757009345794,
10,22,35,A,34.16827376779352,66.46877733942584,1.708413688389676,1.0440891129131795,A,681.4364580059191,Correct,sub_010_day_22_data.csv,1,321,,Dual-Task at home,7.0,4.0,small,big,False,Size,right,right,994.2401250009424,Correct,1.0,0.8317757009345794,
10,22,36,A,32.48104728320511,65.78455936761783,1.6240523641602551,1.0333414421447489,A,609.7565420059254,Correct,sub_010_day_22_data.csv,1,321,,Dual-Task at home,5.0,7.0,big,small,False,Value,right,right,795.7502080098493,Correct,1.0,0.8317757009345794,
10,22,37,B,53.24015740542201,30.07016395903015,2.6620078702711005,0.4723410309296484,B,613.7964169902261,Correct,sub_010_day_22_data.csv,1,321,,Dual-Task at home,4.0,5.0,big,small,False,Value,right,right,1184.1075830016052,Correct,1.0,0.8317757009345794,
10,22,38,B,85.94060407421716,69.8930637945163,4.297030203710858,1.0978776787686757,A,774.0263750019949,Incorrect,sub_010_day_22_data.csv,0,321,,Dual-Task at home,7.0,2.0,small,big,False,Value,left,left,1099.2645829974208,Correct,1.0,0.8317757009345794,
10,22,39,B,47.29982681515618,35.25557345804375,2.364991340757809,0.5537932528694276,B,881.895499987877,Correct,sub_010_day_22_data.csv,1,321,,Dual-Task at home,7.0,2.0,small,big,False,Size,right,right,697.7428749960382,Correct,1.0,0.8317757009345794,
10,22,40,A,57.9303368195238,81.93400949846914,2.89651684097619,1.2870164115977347,A,656.1142490099883,Correct,sub_010_day_22_data.csv,1,321,,Dual-Task at home,6.0,8.0,small,big,True,Size,right,right,873.8102080096724,Correct,1.0,0.8317757009345794,
10,22,41,B,35.60475247839057,19.80158008566337,1.7802376239195286,0.31104249263295,A,967.2125409997534,Incorrect,sub_010_day_22_data.csv,0,321,,Dual-Task at home,5.0,8.0,big,small,False,Value,right,left,749.727582995547,Incorrect,0.0,0.8317757009345794,
10,22,42,B,49.330867028300894,36.80984790510667,2.4665433514150448,0.5782077387922039,A,1236.3575409981422,Incorrect,sub_010_day_22_data.csv,0,321,,Dual-Task at home,3.0,8.0,big,small,False,Size,left,left,768.3707910036901,Correct,1.0,0.8317757009345794,
10,22,43,A,36.18443576135533,59.995822091492904,1.8092217880677663,0.9424121696435716,A,619.0872079896508,Correct,sub_010_day_22_data.csv,1,321,,Dual-Task at home,7.0,2.0,small,big,False,Size,right,right,913.6707080033376,Correct,1.0,0.8317757009345794,
10,22,44,A,23.096484229748867,40.47023163874256,1.1548242114874434,0.6357049120267543,A,686.5460830013035,Correct,sub_010_day_22_data.csv,1,321,,Dual-Task at home,4.0,3.0,small,big,False,Value,left,left,762.393000011798,Correct,1.0,0.8317757009345794,
10,22,45,B,40.23768938285785,24.07632690749307,2.0118844691428928,0.3781900586900323,A,749.8722919990541,Incorrect,sub_010_day_22_data.csv,0,321,,Dual-Task at home,5.0,3.0,small,big,False,Value,left,left,468.5495830053696,Correct,1.0,0.8317757009345794,
10,22,46,B,87.65297140303976,60.153650488476856,4.382648570151988,0.9448913323060348,B,801.9159579998814,Correct,sub_010_day_22_data.csv,1,321,,Dual-Task at home,2.0,8.0,big,small,False,Size,left,left,557.7848749962868,Correct,1.0,0.8317757009345794,
10,22,47,B,65.966935104856,48.99725292399063,3.2983467552428003,0.7696470491604499,B,809.105875014211,Correct,sub_010_day_22_data.csv,1,321,,Dual-Task at home,8.0,7.0,small,big,False,Size,right,right,1045.3355409990763,Correct,1.0,0.8317757009345794,
10,22,48,A,27.531720606120228,40.12940900343643,1.3765860303060111,0.6303512825904799,A,763.5048749943962,Correct,sub_010_day_22_data.csv,1,321,,Dual-Task at home,2.0,7.0,big,small,False,Size,left,left,715.2286659984384,Correct,1.0,0.8317757009345794,
10,22,49,A,29.274357786645425,50.95971323236873,1.463717889332271,0.8004733035992608,A,709.9773329973686,Correct,sub_010_day_22_data.csv,1,321,,Dual-Task at home,2.0,6.0,big,small,False,Size,left,left,479.50549999950454,Correct,1.0,0.8317757009345794,
10,22,50,A,10.624583909964258,35.55038838433527,0.5312291954982129,0.558424194902458,A,560.9755000041332,Correct,sub_010_day_22_data.csv,1,321,,Dual-Task at home,8.0,3.0,small,big,False,Size,right,right,866.7259579960955,Correct,1.0,0.8317757009345794,
10,22,51,A,23.562497505172225,39.89442167672068,1.178124875258611,0.6266601102939955,A,709.9341249995632,Correct,sub_010_day_22_data.csv,1,321,,Dual-Task at home,3.0,4.0,small,big,True,Value,right,right,805.7551249949029,Correct,1.0,0.8317757009345794,
10,22,52,B,74.28676235615971,43.12660781048305,3.7143381178079857,0.6774311713583088,B,856.4840000035474,Correct,sub_010_day_22_data.csv,1,321,,Dual-Task at home,2.0,6.0,small,big,True,Size,right,right,390.1179999957094,Correct,1.0,0.8317757009345794,
10,22,53,A,45.17913665148896,68.0184580725595,2.258956832574448,1.0684314409462914,A,1204.4816249981525,Correct,sub_010_day_22_data.csv,1,321,,Dual-Task at home,2.0,7.0,big,small,False,Value,right,right,565.9472499974072,Correct,1.0,0.8317757009345794,
10,22,54,B,77.56665086415136,65.22251627812246,3.878332543207568,1.024512889939951,B,972.4175410083262,Correct,sub_010_day_22_data.csv,1,321,,Dual-Task at home,5.0,4.0,small,big,False,Value,left,left,456.6961659875233,Correct,1.0,0.8317757009345794,
10,22,55,A,34.54013052395744,46.457436871702136,1.7270065261978718,0.7297517119037551,A,922.255583005608,Correct,sub_010_day_22_data.csv,1,321,,Dual-Task at home,3.0,6.0,small,big,True,Size,right,right,1633.604540998931,Correct,1.0,0.8317757009345794,
10,22,56,A,17.651169082004593,35.31765404004675,0.8825584541002297,0.5547684123711837,A,598.0306240089703,Correct,sub_010_day_22_data.csv,1,321,,Dual-Task at home,7.0,4.0,small,big,False,Size,right,right,1050.847916994826,Correct,1.0,0.8317757009345794,
10,22,57,B,76.8523451417675,64.19375533114,3.842617257088375,1.00835315077325,B,677.5826240045717,Correct,sub_010_day_22_data.csv,1,321,,Dual-Task at home,4.0,8.0,big,small,False,Value,right,right,1059.8793329991167,Correct,1.0,0.8317757009345794,
10,22,58,B,69.29950570528408,44.381932540118825,3.464975285264204,0.6971497661007754,B,729.7421660041437,Correct,sub_010_day_22_data.csv,1,321,,Dual-Task at home,6.0,8.0,big,small,False,Size,left,left,918.6690409987932,Correct,1.0,0.8317757009345794,
10,22,59,A,51.53429913406159,62.73476217677981,2.5767149567030794,0.9854353398963714,A,646.7434999940451,Correct,sub_010_day_22_data.csv,1,321,,Dual-Task at home,7.0,5.0,small,big,False,Size,right,right,794.646708003711,Correct,1.0,0.8317757009345794,
10,22,60,B,80.2405205336419,54.29259203412777,4.012026026682094,0.8528260413938177,B,680.521748989122,Correct,sub_010_day_22_data.csv,1,321,,Dual-Task at home,3.0,4.0,small,big,True,Value,right,right,1024.765165988356,Correct,1.0,0.8317757009345794,
10,22,61,B,59.868360816059706,51.347381178762106,2.993418040802985,0.8065627774613693,B,1193.2125830062432,Correct,sub_010_day_22_data.csv,1,321,,Dual-Task at home,4.0,7.0,big,small,False,Size,left,left,1161.468332997174,Correct,1.0,0.8317757009345794,
10,22,62,A,44.153184311962534,71.23053503652535,2.207659215598127,1.118886627910092,A,883.1841659994097,Correct,sub_010_day_22_data.csv,1,321,,Dual-Task at home,2.0,5.0,big,small,False,Value,right,right,778.2835830003023,Correct,1.0,0.8317757009345794,
10,22,63,A,59.24952769447368,83.72096176619073,2.962476384723684,1.3150857921806836,A,745.77454100654,Correct,sub_010_day_22_data.csv,1,321,,Dual-Task at home,4.0,6.0,big,small,False,Value,right,right,592.4469169985969,Correct,1.0,0.8317757009345794,
10,22,64,B,52.9705547752778,31.018911263540577,2.64852773876389,0.4872439187394637,B,643.483332998585,Correct,sub_010_day_22_data.csv,1,321,,Dual-Task at home,6.0,5.0,small,big,False,Value,left,left,971.6137490031542,Correct,1.0,0.8317757009345794,
10,22,65,A,49.01599378773307,60.22226508941662,2.4507996893866535,0.9459691279372416,A,842.7456250065006,Correct,sub_010_day_22_data.csv,1,321,,Dual-Task at home,3.0,6.0,big,small,False,Size,left,left,1020.9626249998108,Correct,1.0,0.8317757009345794,
10,22,66,B,76.65175620227737,55.01763501296719,3.8325878101138686,0.8642149898731116,B,732.1159580023959,Correct,sub_010_day_22_data.csv,1,321,,Dual-Task at home,3.0,7.0,big,small,False,Size,left,left,912.010542000644,Correct,1.0,0.8317757009345794,
10,22,67,A,11.315468236092542,30.576496047807684,0.5657734118046271,0.4802944767815497,A,624.0504579909611,Correct,sub_010_day_22_data.csv,1,321,,Dual-Task at home,7.0,6.0,small,big,False,Size,right,right,736.8277920031687,Correct,1.0,0.8317757009345794,
10,22,68,B,70.48618653531588,59.03108965209139,3.524309326765794,0.9272581879220538,B,836.915541003691,Correct,sub_010_day_22_data.csv,1,321,,Dual-Task at home,3.0,7.0,big,small,False,Value,right,left,868.124832995818,Incorrect,0.0,0.8317757009345794,
10,22,69,B,54.78607139942874,43.70164345667783,2.7393035699714368,0.6864638101664976,B,781.5835410001455,Correct,sub_010_day_22_data.csv,1,321,,Dual-Task at home,2.0,7.0,big,small,False,Value,right,right,646.3367079995805,Correct,1.0,0.8317757009345794,
10,22,70,A,35.54220604912613,60.56941653016139,1.7771103024563064,0.951422170016876,A,566.5033330005826,Correct,sub_010_day_22_data.csv,1,321,,Dual-Task at home,4.0,7.0,big,small,False,Size,left,left,672.3844160005683,Correct,1.0,0.8317757009345794,
10,22,71,B,32.7553728918262,17.60421844878649,1.63776864459131,0.2765264167544877,B,609.5281660091132,Correct,sub_010_day_22_data.csv,1,321,,Dual-Task at home,4.0,7.0,big,small,False,Size,left,left,1215.6367079878692,Correct,1.0,0.8317757009345794,
10,22,72,B,64.25058383976126,54.348776851217934,3.2125291919880627,0.8537085904368864,A,754.2985409963876,Incorrect,sub_010_day_22_data.csv,0,321,,Dual-Task at home,2.0,5.0,big,small,False,Size,left,left,111.33616599545348,Correct,1.0,0.8317757009345794,
10,22,73,A,50.326124090138435,74.23085622486899,2.5163062045069218,1.166015562928643,A,688.6088749888586,Correct,sub_010_day_22_data.csv,1,321,,Dual-Task at home,8.0,3.0,small,big,False,Value,left,left,485.1273329986725,Correct,1.0,0.8317757009345794,
10,22,74,A,29.08788700897625,46.79385330453483,1.4543943504488124,0.7350361288734253,A,801.5596670011291,Correct,sub_010_day_22_data.csv,1,321,,Dual-Task at home,6.0,7.0,big,small,False,Size,left,left,646.0676249989774,Correct,1.0,0.8317757009345794,
10,22,75,B,46.94914787221506,27.995623304334934,2.347457393610753,0.4397542225278292,B,796.6984169906937,Correct,sub_010_day_22_data.csv,1,321,,Dual-Task at home,8.0,5.0,big,small,True,Value,left,right,722.4657490005484,Incorrect,0.0,0.8317757009345794,
10,22,76,A,52.04656648677051,78.09482822656986,2.6023283243385253,1.2267106931997434,A,592.3468330001924,Correct,sub_010_day_22_data.csv,1,321,,Dual-Task at home,2.0,8.0,big,small,False,Size,left,left,1528.1604579940904,Correct,1.0,0.8317757009345794,
10,22,77,B,60.13293905993143,37.604473524880746,3.006646952996572,0.590689688839386,B,857.5772500043968,Correct,sub_010_day_22_data.csv,1,321,,Dual-Task at home,4.0,7.0,big,small,False,Size,left,left,919.7669999994104,Correct,1.0,0.8317757009345794,
10,22,78,B,76.46251836523824,49.392271258379864,3.823125918261912,0.7758519826472025,B,761.8336659943452,Correct,sub_010_day_22_data.csv,1,321,,Dual-Task at home,5.0,2.0,small,big,False,Value,left,left,639.8339580046013,Correct,1.0,0.8317757009345794,
10,22,79,A,46.632357157813985,54.005394714668995,2.3316178578906994,0.8483147564491056,A,690.8115830010502,Correct,sub_010_day_22_data.csv,1,321,,Dual-Task at home,8.0,5.0,small,big,False,Value,left,left,528.9224579901202,Correct,1.0,0.8317757009345794,
10,22,80,B,36.80322463688127,12.350029925559276,1.8401612318440632,0.1939938164287556,B,899.1160000005038,Correct,sub_010_day_22_data.csv,1,321,,Dual-Task at home,6.0,7.0,big,small,False,Value,right,right,607.4734990106663,Correct,1.0,0.8317757009345794,
10,22,81,A,41.37351875427254,58.2140940313899,2.068675937713627,0.9144248507219996,A,680.0881250092061,Correct,sub_010_day_22_data.csv,1,321,,Dual-Task at home,5.0,3.0,big,small,True,Size,left,right,890.3503329929663,Incorrect,0.0,0.8317757009345794,
10,22,82,A,23.44662363511773,51.51006204970538,1.1723311817558866,0.8091181626065442,A,521.0361250065034,Correct,sub_010_day_22_data.csv,1,321,,Dual-Task at home,6.0,4.0,small,big,False,Size,right,left,594.965541997226,Incorrect,0.0,0.8317757009345794,
10,22,83,B,87.10694768712531,68.23423962361255,4.355347384356265,1.071820929624134,B,723.4715829981724,Correct,sub_010_day_22_data.csv,1,321,,Dual-Task at home,7.0,2.0,small,big,False,Value,left,left,674.7495000017807,Correct,1.0,0.8317757009345794,
10,22,84,B,52.91402863301855,30.949004453405053,2.6457014316509277,0.4861458251336755,B,558.5662910016254,Correct,sub_010_day_22_data.csv,1,321,,Dual-Task at home,4.0,2.0,small,big,False,Size,right,left,669.2302079900401,Incorrect,0.0,0.8317757009345794,
10,22,85,A,67.28903123844907,86.36698569088065,3.3644515619224533,1.3566494387958272,A,643.0397490039468,Correct,sub_010_day_22_data.csv,1,321,,Dual-Task at home,5.0,3.0,small,big,False,Size,right,right,1059.6635000110837,Correct,1.0,0.8317757009345794,
10,22,86,A,35.54397063018046,45.557689135490406,1.777198531509023,0.7156185075129209,A,679.5893329981482,Correct,sub_010_day_22_data.csv,1,321,,Dual-Task at home,8.0,4.0,small,big,False,Value,left,left,772.8613329963991,Correct,1.0,0.8317757009345794,
10,22,87,A,26.425186773544265,51.19875040639893,1.3212593386772131,0.8042280907486016,A,880.0880409980891,Correct,sub_010_day_22_data.csv,1,321,,Dual-Task at home,7.0,6.0,small,big,False,Value,left,left,949.5407920039725,Correct,1.0,0.8317757009345794,
10,22,88,A,28.42049093856044,57.53563061760943,1.421024546928022,0.9037675723396889,A,700.2067499997793,Correct,sub_010_day_22_data.csv,1,321,,Dual-Task at home,3.0,2.0,small,big,False,Value,left,left,1047.6977500075009,Correct,1.0,0.8317757009345794,
10,22,89,A,31.737518858818067,42.62133936260021,1.5868759429409034,0.6694944331385114,A,564.6584170026472,Correct,sub_010_day_22_data.csv,1,321,,Dual-Task at home,8.0,2.0,small,big,False,Value,left,left,766.440874998807,Correct,1.0,0.8317757009345794,
10,22,90,A,56.3558338299381,75.30047394480897,2.8177916914969052,1.1828170787842074,A,758.2112490053987,Correct,sub_010_day_22_data.csv,1,321,,Dual-Task at home,2.0,5.0,big,small,False,Size,left,left,1515.9034579992294,Correct,1.0,0.8317757009345794,
10,22,91,B,60.961897378124505,45.098088489093385,3.048094868906225,0.7083991174413911,B,934.3829580029706,Correct,sub_010_day_22_data.csv,1,321,,Dual-Task at home,4.0,2.0,small,big,False,Size,right,left,995.057457999792,Incorrect,0.0,0.8317757009345794,
10,22,92,A,28.660518669864217,41.97279611432266,1.433025933493211,0.6593071396168915,B,990.3751660021952,Incorrect,sub_010_day_22_data.csv,0,321,,Dual-Task at home,8.0,4.0,big,small,True,Value,left,left,775.6237080029678,Correct,1.0,0.8317757009345794,
10,22,93,B,77.93369005763398,46.88833948444876,3.896684502881699,0.7365203143168423,B,745.5817500012927,Correct,sub_010_day_22_data.csv,1,321,,Dual-Task at home,5.0,7.0,big,small,False,Value,right,right,430.6306670041522,Correct,1.0,0.8317757009345794,
10,22,94,B,32.760226642188336,16.031908755762142,1.638011332109417,0.2518286338506211,B,754.2581239977153,Correct,sub_010_day_22_data.csv,1,321,,Dual-Task at home,2.0,8.0,big,small,False,Size,left,left,417.49433299992234,Correct,1.0,0.8317757009345794,
10,22,95,B,47.55469405281933,29.321000958428144,2.3777347026409665,0.4605732060344856,B,602.7672909985995,Correct,sub_010_day_22_data.csv,1,321,,Dual-Task at home,7.0,4.0,big,small,True,Value,left,left,1061.875790997874,Correct,1.0,0.8317757009345794,
10,22,96,B,83.75353227380978,66.84934039836203,4.187676613690489,1.0500669834640877,B,1210.7849580061156,Correct,sub_010_day_22_data.csv,1,321,,Dual-Task at home,5.0,3.0,big,small,True,Size,left,left,533.7503749906318,Correct,1.0,0.8317757009345794,
10,22,97,B,73.58217147700282,41.28075722877958,3.679108573850141,0.6484366182227883,B,611.2031670054421,Correct,sub_010_day_22_data.csv,1,321,,Dual-Task at home,4.0,2.0,small,big,False,Value,left,left,483.4427910100203,Correct,1.0,0.8317757009345794,
10,22,98,A,17.3050339585417,45.40284267131864,0.865251697927085,0.7131861849415392,A,717.2375829977682,Correct,sub_010_day_22_data.csv,1,321,,Dual-Task at home,7.0,5.0,small,big,False,Value,left,left,541.1869999952614,Correct,1.0,0.8317757009345794,
10,22,99,B,43.0098356499734,31.72433235195339,2.15049178249867,0.4983246472846889,A,594.2519169911975,Incorrect,sub_010_day_22_data.csv,0,321,,Dual-Task at home,2.0,4.0,big,small,False,Value,right,right,494.9880409985781,Correct,1.0,0.8317757009345794,
10,22,100,B,44.04122023571985,21.801861095754415,2.202061011785992,0.3424628332650359,B,687.6205830049003,Correct,sub_010_day_22_data.csv,1,321,,Dual-Task at home,7.0,8.0,small,big,True,Size,right,right,1237.943207990611,Correct,1.0,0.8317757009345794,
10,22,101,B,74.59623802890084,42.14464027570931,3.7298119014450424,0.6620064613917644,B,644.2239160096506,Correct,sub_010_day_22_data.csv,1,321,,Dual-Task at home,7.0,6.0,small,big,False,Size,right,right,730.7937080040574,Correct,1.0,0.8317757009345794,
10,22,102,B,59.925169216921,33.06173357220432,2.99625846084605,0.5193324965269005,B,561.9101240008604,Correct,sub_010_day_22_data.csv,1,321,,Dual-Task at home,3.0,6.0,big,small,False,Value,right,right,722.7148750098422,Correct,1.0,0.8317757009345794,
10,22,103,B,35.39897354524386,19.817834737741983,1.769948677262193,0.3112978201107341,B,611.3237910030875,Correct,sub_010_day_22_data.csv,1,321,,Dual-Task at home,3.0,8.0,big,small,False,Value,right,right,1910.6281669955931,Correct,1.0,0.8317757009345794,
10,22,104,B,74.8133626058673,63.717027161126225,3.740668130293365,1.0008647221898772,A,779.4283330003964,Incorrect,sub_010_day_22_data.csv,0,321,,Dual-Task at home,6.0,3.0,big,small,True,Value,left,left,829.8841659998288,Correct,1.0,0.8317757009345794,
10,22,105,B,69.88269240371486,40.34217552425336,3.4941346201857426,0.6336934112841216,B,865.3203330031829,Correct,sub_010_day_22_data.csv,1,321,,Dual-Task at home,5.0,6.0,small,big,True,Size,right,right,1202.1343329979572,Correct,1.0,0.8317757009345794,
10,22,106,A,24.667060852250856,39.454590131621416,1.2333530426125427,0.6197512525394909,A,647.839124998427,Correct,sub_010_day_22_data.csv,1,321,,Dual-Task at home,8.0,2.0,big,small,True,Size,left,left,1882.0190830010688,Correct,1.0,0.8317757009345794,
10,22,107,B,69.45669839006577,42.26412738505776,3.4728349195032884,0.6638833605164033,B,663.8127919868566,Correct,sub_010_day_22_data.csv,1,321,,Dual-Task at home,7.0,5.0,small,big,False,Value,left,left,475.4783740063431,Correct,1.0,0.8317757009345794,
10,22,108,B,49.026526358564986,34.238779184470545,2.4513263179282494,0.537821485769079,B,904.655708000064,Correct,sub_010_day_22_data.csv,1,321,,Dual-Task at home,7.0,8.0,big,small,False,Size,left,left,744.0772499976447,Correct,1.0,0.8317757009345794,
10,22,109,B,64.3866052887534,38.141318122863034,3.2193302644376702,0.5991224240650886,B,1258.110458002193,Correct,sub_010_day_22_data.csv,1,321,,Dual-Task at home,2.0,8.0,big,small,False,Size,left,left,1207.9802920052316,Correct,1.0,0.8317757009345794,
10,22,110,A,28.92226547470106,49.409043933495425,1.446113273735053,0.7761154472118229,A,616.5535420004744,Correct,sub_010_day_22_data.csv,1,321,,Dual-Task at home,4.0,8.0,big,small,False,Value,right,right,696.9546250038547,Correct,1.0,0.8317757009345794,
10,22,111,A,49.32855091482641,71.95773148632738,2.46642754574132,1.1303094030321652,A,966.9924580084626,Correct,sub_010_day_22_data.csv,1,321,,Dual-Task at home,4.0,8.0,big,small,False,Value,right,right,655.3007079928648,Correct,1.0,0.8317757009345794,
10,22,112,B,35.66586065469042,19.876308760332847,1.7832930327345209,0.3122163279097206,B,735.1069160067709,Correct,sub_010_day_22_data.csv,1,321,,Dual-Task at home,3.0,5.0,big,small,False,Value,right,left,884.5168750121957,Incorrect,0.0,0.8317757009345794,
10,22,113,A,23.184527970824615,38.81385708866387,1.1592263985412308,0.6096866414361527,A,722.2395409917226,Correct,sub_010_day_22_data.csv,1,321,,Dual-Task at home,7.0,5.0,small,big,False,Size,right,right,686.640248997719,Correct,1.0,0.8317757009345794,
10,22,114,A,39.83328654015018,68.30170661667046,1.9916643270075096,1.0728806986728865,A,596.7607079946902,Correct,sub_010_day_22_data.csv,1,321,,Dual-Task at home,6.0,2.0,small,big,False,Size,right,right,439.2495000065537,Correct,1.0,0.8317757009345794,
10,22,115,B,43.14802475040377,26.141464675412116,2.1574012375201885,0.4106291668917589,B,630.4671670077369,Correct,sub_010_day_22_data.csv,1,321,,Dual-Task at home,7.0,2.0,small,big,False,Value,left,left,705.5759159993613,Correct,1.0,0.8317757009345794,
10,22,116,A,59.46605214198196,86.93349412840365,2.973302607099098,1.3655481325234218,A,688.5058330080938,Correct,sub_010_day_22_data.csv,1,321,,Dual-Task at home,2.0,6.0,big,small,False,Value,right,right,794.406707995222,Correct,1.0,0.8317757009345794,
10,22,117,B,36.83063967108133,15.012004052427107,1.8415319835540664,0.235808008233826,B,563.9899159868946,Correct,sub_010_day_22_data.csv,1,321,,Dual-Task at home,5.0,3.0,small,big,False,Size,right,left,1015.3253329917789,Incorrect,0.0,0.8317757009345794,
10,22,118,A,59.10066720677398,67.12859382019464,2.955033360338699,1.0544534859566832,A,730.3930409980239,Correct,sub_010_day_22_data.csv,1,321,,Dual-Task at home,2.0,4.0,big,small,False,Value,right,right,721.4874169876566,Correct,1.0,0.8317757009345794,
10,22,119,B,54.85603237208824,26.418572760967702,2.742801618604412,0.4149819705209178,B,690.3690420003841,Correct,sub_010_day_22_data.csv,1,321,,Dual-Task at home,5.0,4.0,small,big,False,Value,left,left,717.5221659999806,Correct,1.0,0.8317757009345794,
10,22,120,B,65.27291347001427,47.84167216378313,3.2636456735007133,0.7514952290259619,B,1381.8816249986412,Correct,sub_010_day_22_data.csv,1,321,,Dual-Task at home,5.0,7.0,big,small,False,Size,left,left,885.8089989953442,Correct,1.0,0.8317757009345794,
10,22,121,A,45.24304968829172,72.16411410900037,2.2621524844145857,1.1335512536882555,A,637.3069989931537,Correct,sub_010_day_22_data.csv,1,321,,Dual-Task at home,8.0,6.0,small,big,False,Size,right,right,880.4167080088519,Correct,1.0,0.8317757009345794,
10,22,122,B,39.82706185532905,27.72149975384532,1.9913530927664524,0.4354482998658585,B,755.324332989403,Correct,sub_010_day_22_data.csv,1,321,,Dual-Task at home,3.0,6.0,small,big,True,Size,right,right,455.87429200531915,Correct,1.0,0.8317757009345794,
10,22,123,A,49.12044638471011,60.56626903569829,2.4560223192355055,0.9513727292894636,A,646.541125010117,Correct,sub_010_day_22_data.csv,1,321,,Dual-Task at home,8.0,6.0,big,small,True,Value,left,left,331.5706670109648,Correct,1.0,0.8317757009345794,
10,22,124,B,65.31630298633186,35.080256977190885,3.265815149316593,0.5510393880279248,B,680.9485830017366,Correct,sub_010_day_22_data.csv,1,321,,Dual-Task at home,3.0,7.0,big,small,False,Size,left,right,1536.2332079967018,Incorrect,0.0,0.8317757009345794,
10,22,125,B,68.42642454290755,49.09090508927841,3.421321227145378,0.771118133932754,A,699.0682080067927,Incorrect,sub_010_day_22_data.csv,0,321,,Dual-Task at home,8.0,2.0,big,small,True,Value,left,left,1256.1837910034228,Correct,1.0,0.8317757009345794,
10,22,126,B,79.53275099263217,64.82061233379943,3.976637549631608,1.0181997975452812,A,796.721582999453,Incorrect,sub_010_day_22_data.csv,0,321,,Dual-Task at home,5.0,4.0,small,big,False,Value,left,right,1186.2888329924317,Incorrect,0.0,0.8317757009345794,
10,22,127,B,78.44979417975578,52.25284298223417,3.922489708987789,0.8207857382108392,B,993.0495409935248,Correct,sub_010_day_22_data.csv,1,321,,Dual-Task at home,8.0,4.0,big,small,True,Size,left,right,1081.9032500003232,Incorrect,0.0,0.8317757009345794,
10,22,128,A,32.5349365937692,56.67890199325134,1.6267468296884602,0.8903101105776713,A,711.5359169984004,Correct,sub_010_day_22_data.csv,1,321,,Dual-Task at home,7.0,6.0,small,big,False,Size,right,right,799.6246659895405,Correct,1.0,0.8317757009345794,
10,22,129,A,41.21862164589361,69.39477484307844,2.060931082294681,1.090050574222665,A,668.1062499992549,Correct,sub_010_day_22_data.csv,1,321,,Dual-Task at home,8.0,5.0,small,big,False,Value,left,left,574.8867910006084,Correct,1.0,0.8317757009345794,
10,22,130,A,41.33300740049455,62.71671586829822,2.0666503700247274,0.9851518691456204,A,1538.4767909999937,Correct,sub_010_day_22_data.csv,1,321,,Dual-Task at home,2.0,7.0,big,small,False,Size,left,left,3351.6800829966087,Correct,1.0,0.8317757009345794,
10,22,131,A,41.36910984239911,53.32843804650817,2.0684554921199556,0.8376811459716424,B,862.9394989984576,Incorrect,sub_010_day_22_data.csv,0,321,,Dual-Task at home,7.0,5.0,small,big,False,Size,right,right,794.8522490041796,Correct,1.0,0.8317757009345794,
10,22,132,A,37.94042776547418,71.0239148908911,1.897021388273709,1.1156410462520512,A,875.8305829978781,Correct,sub_010_day_22_data.csv,1,321,,Dual-Task at home,4.0,2.0,big,small,True,Value,left,left,1509.425457988982,Correct,1.0,0.8317757009345794,
10,22,133,A,39.309465683220104,67.60120260305834,1.9654732841610052,1.0618772073580165,A,865.3707910125377,Correct,sub_010_day_22_data.csv,1,321,,Dual-Task at home,3.0,6.0,big,small,False,Value,right,right,1454.9497499974675,Correct,1.0,0.8317757009345794,
10,22,134,B,48.23002961545629,33.17123093526345,2.4115014807728143,0.5210524770837707,B,1105.757708006422,Correct,sub_010_day_22_data.csv,1,321,,Dual-Task at home,8.0,4.0,small,big,False,Size,right,right,1854.3465410039064,Correct,1.0,0.8317757009345794,
10,22,135,A,21.576617582543065,37.19222916693471,1.0788308791271533,0.5842141696073506,A,1051.5656240022508,Correct,sub_010_day_22_data.csv,1,321,,Dual-Task at home,2.0,8.0,big,small,False,Size,left,left,634.3186659942148,Correct,1.0,0.8317757009345794,
10,22,136,B,39.4222727793354,13.613690098776942,1.97111363896677,0.2138433440128287,B,576.8388750002487,Correct,sub_010_day_22_data.csv,1,321,,Dual-Task at home,8.0,4.0,small,big,False,Size,right,left,811.1344159988221,Incorrect,0.0,0.8317757009345794,
10,22,137,A,62.3894449927015,81.69499240958388,3.119472249635075,1.283261939945113,A,485.12950001168065,Correct,sub_010_day_22_data.csv,1,321,,Dual-Task at home,6.0,2.0,small,big,False,Value,left,left,1541.1922079947544,Correct,1.0,0.8317757009345794,
10,22,138,B,66.47061544839562,54.78212210251356,3.323530772419781,0.8605155617265783,A,1045.5934990022795,Incorrect,sub_010_day_22_data.csv,0,321,,Dual-Task at home,3.0,2.0,small,big,False,Value,left,left,1566.1596669961,Correct,1.0,0.8317757009345794,
10,22,139,A,22.32123100101279,48.8274904165433,1.1160615500506397,0.7669804259291922,A,1194.5040410064394,Correct,sub_010_day_22_data.csv,1,321,,Dual-Task at home,3.0,6.0,big,small,False,Size,left,left,710.9428750118241,Correct,1.0,0.8317757009345794,
10,22,140,A,25.193618581416786,37.61519880121587,1.259680929070839,0.5908581610860969,A,499.7604579984909,Correct,sub_010_day_22_data.csv,1,321,,Dual-Task at home,2.0,7.0,small,big,True,Value,right,right,952.6022079953692,Correct,1.0,0.8317757009345794,
10,22,141,B,71.8757586026813,40.86426037334069,3.5937879301340647,0.641894300916338,B,737.7207909885328,Correct,sub_010_day_22_data.csv,1,321,,Dual-Task at home,4.0,8.0,small,big,True,Value,right,right,605.9492910135305,Correct,1.0,0.8317757009345794,
10,22,142,A,20.603303188781187,36.48528323233167,1.0301651594390593,0.5731094888341801,A,669.1879580030218,Correct,sub_010_day_22_data.csv,1,321,,Dual-Task at home,6.0,3.0,small,big,False,Size,right,right,3236.925874996814,Correct,1.0,0.8317757009345794,
10,22,143,A,45.30377206595619,55.468436503302875,2.2651886032978097,0.8712961631244411,A,671.851124992827,Correct,sub_010_day_22_data.csv,1,321,,Dual-Task at home,6.0,7.0,big,small,False,Size,left,left,1121.2314579897793,Correct,1.0,0.8317757009345794,
10,22,144,B,76.77900902061724,57.62146826067432,3.838950451030862,0.9051159068839594,B,1206.33179100696,Correct,sub_010_day_22_data.csv,1,321,,Dual-Task at home,3.0,4.0,big,small,False,Value,right,right,1702.494207987911,Correct,1.0,0.8317757009345794,
10,22,145,A,58.865977217860575,75.42276020609575,2.943298860893029,1.1847379468846748,A,671.1019159993157,Correct,sub_010_day_22_data.csv,1,321,,Dual-Task at home,5.0,8.0,big,small,False,Size,left,left,843.9277500001481,Correct,1.0,0.8317757009345794,
10,22,146,A,52.298492762145685,62.891277588679046,2.614924638107284,0.9878938782373524,A,978.7207920016954,Correct,sub_010_day_22_data.csv,1,321,,Dual-Task at home,2.0,4.0,small,big,True,Size,right,right,226.01174999726936,Correct,1.0,0.8317757009345794,
10,22,147,A,35.70940995166403,51.14299137854009,1.7854704975832016,0.8033522299871384,A,657.9783749912167,Correct,sub_010_day_22_data.csv,1,321,,Dual-Task at home,8.0,7.0,small,big,False,Value,left,left,429.2376249941299,Correct,1.0,0.8317757009345794,
10,22,148,A,30.495016932948705,39.48774432134217,1.524750846647435,0.6202720373338031,A,506.51579099940136,Correct,sub_010_day_22_data.csv,1,321,,Dual-Task at home,3.0,5.0,big,small,False,Size,left,left,402.883708011359,Correct,1.0,0.8317757009345794,
10,22,149,B,54.853581729426885,35.52053994372999,2.7426790864713446,0.5579553366938248,B,566.7448750027688,Correct,sub_010_day_22_data.csv,1,321,,Dual-Task at home,8.0,6.0,small,big,False,Value,left,left,408.6900419933954,Correct,1.0,0.8317757009345794,
10,22,150,B,77.1751056999647,49.43551600843702,3.858755284998235,0.7765312695926316,B,596.196749000228,Correct,sub_010_day_22_data.csv,1,321,,Dual-Task at home,5.0,8.0,big,small,False,Size,left,left,397.6721249928232,Correct,1.0,0.8317757009345794,
10,22,151,A,24.67391643148652,40.858718348967784,1.233695821574326,0.6418072470010583,A,736.6551670129411,Correct,sub_010_day_22_data.csv,1,321,,Dual-Task at home,2.0,6.0,big,small,False,Value,right,right,909.4398750021356,Correct,1.0,0.8317757009345794,
10,22,152,A,26.316837022505027,42.93013062879311,1.3158418511252512,0.674344915005333,A,768.0744159879396,Correct,sub_010_day_22_data.csv,1,321,,Dual-Task at home,2.0,7.0,big,small,False,Size,left,left,439.4035410077777,Correct,1.0,0.8317757009345794,
10,22,153,B,69.72703327870974,37.3238128870949,3.4863516639354875,0.5862810818502869,B,1417.4642500001935,Correct,sub_010_day_22_data.csv,1,321,,Dual-Task at home,6.0,2.0,small,big,False,Size,right,right,850.7382489915472,Correct,1.0,0.8317757009345794,
10,22,154,B,39.81114532759924,15.106035622008925,1.990557266379962,0.2372850526748447,B,671.253666994744,Correct,sub_010_day_22_data.csv,1,321,,Dual-Task at home,8.0,7.0,small,big,False,Value,left,right,383.45112500246614,Incorrect,0.0,0.8317757009345794,
10,22,155,A,16.79158296802744,43.87171301938015,0.839579148401372,0.6891352566104219,A,870.688875002088,Correct,sub_010_day_22_data.csv,1,321,,Dual-Task at home,4.0,7.0,big,small,False,Value,right,right,432.8771250002319,Correct,1.0,0.8317757009345794,
10,22,156,B,77.6094779827485,47.31137193255945,3.8804738991374257,0.7431652924729154,B,705.0186250125989,Correct,sub_010_day_22_data.csv,1,321,,Dual-Task at home,6.0,8.0,big,small,False,Size,left,left,697.7890409907559,Correct,1.0,0.8317757009345794,
10,22,157,B,76.19546750113967,53.158061284786285,3.809773375056983,0.835004874056803,B,639.4752500054892,Correct,sub_010_day_22_data.csv,1,321,,Dual-Task at home,2.0,3.0,big,small,False,Value,right,right,919.0730830014218,Correct,1.0,0.8317757009345794,
10,22,158,A,59.06380222773606,69.99505492413671,2.953190111386803,1.09947975168641,A,716.0418329876848,Correct,sub_010_day_22_data.csv,1,321,,Dual-Task at home,5.0,7.0,big,small,False,Value,right,left,1137.199707998661,Incorrect,0.0,0.8317757009345794,
10,22,159,B,46.44192332281942,17.74009336280994,2.3220961661409714,0.2786607349130037,B,570.5906660004985,Correct,sub_010_day_22_data.csv,1,321,,Dual-Task at home,5.0,6.0,big,small,False,Value,right,right,977.5204160105204,Correct,1.0,0.8317757009345794,
10,22,160,A,58.76893374152026,69.90147880650169,2.938446687076013,1.0980098614678415,A,985.6455830013148,Correct,sub_010_day_22_data.csv,1,321,,Dual-Task at home,3.0,4.0,big,small,False,Size,left,left,590.3585000050953,Correct,1.0,0.8317757009345794,
10,22,161,B,70.360758149395,56.67403497243678,3.5180379074697496,0.8902336595934919,B,682.2940409911098,Correct,sub_010_day_22_data.csv,1,321,,Dual-Task at home,2.0,5.0,big,small,False,Size,left,left,1139.2906250111992,Correct,1.0,0.8317757009345794,
10,22,162,A,15.808191452724312,35.31216726195736,0.7904095726362157,0.5546822262624963,A,573.6392909893766,Correct,sub_010_day_22_data.csv,1,321,,Dual-Task at home,2.0,4.0,big,small,False,Size,left,left,656.8492079968564,Correct,1.0,0.8317757009345794,
10,22,163,B,67.85640534622026,47.75672182320779,3.392820267311013,0.7501608321966048,B,694.418749990291,Correct,sub_010_day_22_data.csv,1,321,,Dual-Task at home,2.0,5.0,big,small,False,Value,right,right,481.89958299917635,Correct,1.0,0.8317757009345794,
10,22,164,B,43.06869785909271,29.27189419260609,2.1534348929546354,0.4598018387607452,B,1027.159457997186,Correct,sub_010_day_22_data.csv,1,321,,Dual-Task at home,6.0,5.0,small,big,False,Value,left,right,1183.9002079941563,Incorrect,0.0,0.8317757009345794,
10,22,165,B,47.31303481004539,21.707828903550457,2.3656517405022695,0.3409857790438914,B,443.88449999678414,Correct,sub_010_day_22_data.csv,1,321,,Dual-Task at home,6.0,4.0,small,big,False,Size,right,right,735.0323330028914,Correct,1.0,0.8317757009345794,
10,22,166,A,53.092495341040035,60.87352199513039,2.6546247670520016,0.9561990474901916,A,604.1656660090666,Correct,sub_010_day_22_data.csv,1,321,,Dual-Task at home,4.0,8.0,big,small,False,Size,left,left,597.6809579879045,Correct,1.0,0.8317757009345794,
10,22,167,B,86.38226080961562,65.30446605174741,4.319113040480781,1.0258001539738686,B,840.2354160061805,Correct,sub_010_day_22_data.csv,1,321,,Dual-Task at home,8.0,3.0,small,big,False,Size,right,right,822.6797910028836,Correct,1.0,0.8317757009345794,
10,22,168,B,65.31945364842842,44.27426064539472,3.265972682421421,0.6954584599334587,B,677.1624579996569,Correct,sub_010_day_22_data.csv,1,321,,Dual-Task at home,5.0,3.0,small,big,False,Size,right,right,1380.0197079981444,Correct,1.0,0.8317757009345794,
10,22,169,B,64.12061716941069,34.99201892115405,3.206030858470535,0.549653347884863,B,684.3400409998139,Correct,sub_010_day_22_data.csv,1,321,,Dual-Task at home,7.0,2.0,small,big,False,Size,right,right,1393.626332996064,Correct,1.0,0.8317757009345794,
10,22,170,B,75.75101467860041,49.15905097868088,3.7875507339300207,0.7721885670603499,B,640.213708000374,Correct,sub_010_day_22_data.csv,1,321,,Dual-Task at home,4.0,3.0,small,big,False,Size,right,right,1267.1127909998177,Correct,1.0,0.8317757009345794,
10,22,171,A,33.349598532149706,64.16958496278359,1.6674799266074851,1.0079734835149348,A,535.6544999958714,Correct,sub_010_day_22_data.csv,1,321,,Dual-Task at home,2.0,7.0,small,big,True,Size,right,right,947.6624170056313,Correct,1.0,0.8317757009345794,
10,22,172,A,67.6395135786655,82.74864493347951,3.381975678933275,1.2998126750876475,A,580.8572489913786,Correct,sub_010_day_22_data.csv,1,321,,Dual-Task at home,3.0,7.0,big,small,False,Size,left,left,975.2952910057502,Correct,1.0,0.8317757009345794,
10,22,173,B,48.035569183092534,24.841054884381037,2.401778459154627,0.3902023776609615,B,583.2812500011642,Correct,sub_010_day_22_data.csv,1,321,,Dual-Task at home,2.0,7.0,big,small,False,Value,right,right,462.2690830001374,Correct,1.0,0.8317757009345794,
10,22,174,A,37.734197932702145,48.54353134297524,1.8867098966351077,0.7625200072319845,A,918.2709580054508,Correct,sub_010_day_22_data.csv,1,321,,Dual-Task at home,5.0,8.0,big,small,False,Value,right,right,967.7468739973848,Correct,1.0,0.8317757009345794,
10,22,175,A,41.572197033820814,73.80609766166847,2.078609851691041,1.1593434710201425,A,1367.6458330010064,Correct,sub_010_day_22_data.csv,1,321,,Dual-Task at home,3.0,7.0,big,small,False,Size,left,left,1198.739667001064,Correct,1.0,0.8317757009345794,
10,22,176,B,45.46150569738157,27.95460721369949,2.2730752848690785,0.4391099432827327,B,690.9550000127638,Correct,sub_010_day_22_data.csv,1,321,,Dual-Task at home,8.0,3.0,small,big,False,Size,right,right,1693.453915999271,Correct,1.0,0.8317757009345794,
10,22,177,B,42.68167673169153,24.79445191038631,2.1340838365845767,0.3894703398572752,B,624.5446249959059,Correct,sub_010_day_22_data.csv,1,321,,Dual-Task at home,4.0,7.0,big,small,False,Value,right,left,1057.7360000024782,Incorrect,0.0,0.8317757009345794,
10,22,178,A,24.39528466385172,54.22262642905871,1.2197642331925862,0.8517270242393729,A,992.3704579996412,Correct,sub_010_day_22_data.csv,1,321,,Dual-Task at home,4.0,6.0,big,small,False,Size,left,left,845.7458329939982,Correct,1.0,0.8317757009345794,
10,22,179,B,67.48871166563153,43.60228446398348,3.374435583281576,0.6849030827589144,B,611.4799579954706,Correct,sub_010_day_22_data.csv,1,321,,Dual-Task at home,6.0,2.0,small,big,False,Size,right,left,1398.373707997962,Incorrect,0.0,0.8317757009345794,
10,22,180,B,55.43960039573517,36.287586238956635,2.7719800197867586,0.5700040717240612,B,1171.8544580071466,Correct,sub_010_day_22_data.csv,1,321,,Dual-Task at home,7.0,8.0,big,small,False,Size,left,left,551.2801239965484,Correct,1.0,0.8317757009345794,
10,22,181,B,31.02751202743675,15.682064939358586,1.5513756013718376,0.2463333000330349,B,547.4389160081046,Correct,sub_010_day_22_data.csv,1,321,,Dual-Task at home,7.0,8.0,big,small,False,Size,left,left,679.548000000068,Correct,1.0,0.8317757009345794,
10,22,182,A,42.84585675669235,59.620148256273005,2.1422928378346175,0.936511098839208,A,648.6557080061175,Correct,sub_010_day_22_data.csv,1,321,,Dual-Task at home,6.0,2.0,small,big,False,Size,right,right,1044.6869999868795,Correct,1.0,0.8317757009345794,
10,22,183,A,28.592460290117756,53.00807835008581,1.4296230145058877,0.8326489476277086,A,603.0112500011455,Correct,sub_010_day_22_data.csv,1,321,,Dual-Task at home,7.0,3.0,big,small,True,Value,left,left,182.82195800566112,Correct,1.0,0.8317757009345794,
10,22,184,A,20.327630543628324,41.811437921093344,1.016381527181416,0.6567725310446627,A,648.6960830079624,Correct,sub_010_day_22_data.csv,1,321,,Dual-Task at home,8.0,7.0,big,small,True,Size,left,left,633.9576659956947,Correct,1.0,0.8317757009345794,
10,22,185,B,50.07543906582048,40.81067741242176,2.5037719532910243,0.6410526217344354,B,680.8211239986122,Correct,sub_010_day_22_data.csv,1,321,,Dual-Task at home,3.0,2.0,small,big,False,Size,right,right,755.6200830003945,Correct,1.0,0.8317757009345794,
10,22,186,B,42.673503850747025,13.817937146975968,2.133675192537351,0.217051649143526,B,466.189041006146,Correct,sub_010_day_22_data.csv,1,321,,Dual-Task at home,6.0,8.0,big,small,False,Size,left,left,539.9520829960238,Correct,1.0,0.8317757009345794,
10,22,187,A,38.90154073986989,53.13778721182946,1.9450770369934944,0.8346864096635056,A,546.6931670089252,Correct,sub_010_day_22_data.csv,1,321,,Dual-Task at home,2.0,6.0,big,small,False,Value,right,right,494.3778330052737,Correct,1.0,0.8317757009345794,
10,22,188,A,61.02994982608715,84.73667730026618,3.0514974913043575,1.331040614480626,A,1053.666207997594,Correct,sub_010_day_22_data.csv,1,321,,Dual-Task at home,2.0,4.0,big,small,False,Size,left,right,1896.0391669970704,Incorrect,0.0,0.8317757009345794,
10,22,189,B,79.72432686740953,62.154072609922224,3.9862163433704767,0.9763138895100912,A,1060.241875005886,Incorrect,sub_010_day_22_data.csv,0,321,,Dual-Task at home,3.0,7.0,big,small,False,Value,right,right,898.1611250055721,Correct,1.0,0.8317757009345794,
10,22,190,B,65.91413711494015,48.07865792820655,3.2957068557470075,0.755217792708552,B,842.6231250050478,Correct,sub_010_day_22_data.csv,1,321,,Dual-Task at home,4.0,5.0,small,big,True,Value,right,right,1341.6148329997668,Correct,1.0,0.8317757009345794,
10,22,191,A,42.82292266236898,59.88540433593246,2.1411461331184487,0.9406777315950988,A,702.5816249952186,Correct,sub_010_day_22_data.csv,1,321,,Dual-Task at home,8.0,7.0,small,big,False,Value,left,right,866.6030000022147,Incorrect,0.0,0.8317757009345794,
10,22,192,B,51.271579424813,43.18366056668913,2.5635789712406503,0.6783273539571291,B,551.6065410047304,Correct,sub_010_day_22_data.csv,1,321,,Dual-Task at home,5.0,6.0,big,small,False,Size,left,left,906.003750002128,Correct,1.0,0.8317757009345794,
10,22,193,A,38.184845445297825,51.04869605424565,1.9092422722648912,0.8018710424967821,B,1003.2444579992444,Incorrect,sub_010_day_22_data.csv,0,321,,Dual-Task at home,8.0,7.0,small,big,False,Size,right,right,540.8753329975298,Correct,1.0,0.8317757009345794,
10,22,194,B,64.15069573191847,34.738716470196344,3.2075347865959234,0.545674482289538,A,583.6523329926422,Incorrect,sub_010_day_22_data.csv,0,321,,Dual-Task at home,8.0,4.0,small,big,False,Value,left,left,1167.9384169983678,Correct,1.0,0.8317757009345794,
10,22,195,B,66.84792338639559,52.58907732194565,3.3423961693197795,0.8260672948684503,A,667.5143329921411,Incorrect,sub_010_day_22_data.csv,0,321,,Dual-Task at home,6.0,8.0,big,small,False,Size,left,left,785.262416000478,Correct,1.0,0.8317757009345794,
10,22,196,A,30.80132095896549,63.71121844545363,1.5400660479482746,1.0007734790974585,A,595.0731670018286,Correct,sub_010_day_22_data.csv,1,321,,Dual-Task at home,4.0,5.0,big,small,False,Size,left,left,942.4013740062946,Correct,1.0,0.8317757009345794,
10,22,197,B,72.59846514210922,52.72096207038108,3.6299232571054607,0.8281389356524766,B,946.1684999987484,Correct,sub_010_day_22_data.csv,1,321,,Dual-Task at home,2.0,7.0,big,small,False,Value,right,right,405.73324999422766,Correct,1.0,0.8317757009345794,
10,22,198,B,47.08898477071453,20.505532434666215,2.354449238535727,0.322100150273473,B,897.5877910124836,Correct,sub_010_day_22_data.csv,1,321,,Dual-Task at home,3.0,8.0,big,small,False,Size,left,right,2359.251582995057,Incorrect,0.0,0.8317757009345794,
10,22,199,B,68.04119393695568,53.62002688766442,3.402059696847784,0.8422614127778687,A,911.4063739980338,Incorrect,sub_010_day_22_data.csv,0,321,,Dual-Task at home,5.0,8.0,big,small,False,Value,right,right,597.3907500010682,Correct,1.0,0.8317757009345794,
10,22,200,A,22.02766077352951,51.91330885104142,1.1013830386764756,0.8154523485498485,A,548.5513739986345,Correct,sub_010_day_22_data.csv,1,321,,Dual-Task at home,8.0,6.0,small,big,False,Value,left,left,1287.763083004393,Correct,1.0,0.8317757009345794,
10,22,201,A,12.65400563720495,39.03404581935028,0.6327002818602474,0.6131453579297912,B,1568.9147909870371,Incorrect,sub_010_day_22_data.csv,0,321,,Dual-Task at home,2.0,5.0,big,small,False,Size,left,left,940.3970000130356,Correct,1.0,0.8317757009345794,
10,22,202,B,81.70705070728928,59.938937236890176,4.085352535364464,0.9415186244369694,B,751.115541002946,Correct,sub_010_day_22_data.csv,1,321,,Dual-Task at home,4.0,7.0,big,small,False,Size,left,right,1143.773957999656,Incorrect,0.0,0.8317757009345794,
10,22,203,B,40.205570885651454,14.570588046360244,2.010278544282573,0.2288742618246429,B,1428.8072080089478,Correct,sub_010_day_22_data.csv,1,321,,Dual-Task at home,6.0,3.0,small,big,False,Value,left,left,1056.206374996691,Correct,1.0,0.8317757009345794,
10,22,204,A,47.64013969956171,60.532906780315095,2.3820069849780854,0.9508486762073683,A,1085.1379999949131,Correct,sub_010_day_22_data.csv,1,321,,Dual-Task at home,7.0,4.0,small,big,False,Value,left,left,405.7875830039848,Correct,1.0,0.8317757009345794,
10,22,205,A,20.224205701175404,39.43516830213795,1.0112102850587703,0.6194461751553684,A,710.5917080043582,Correct,sub_010_day_22_data.csv,1,321,,Dual-Task at home,7.0,6.0,big,small,True,Value,left,left,917.8299990016968,Correct,1.0,0.8317757009345794,
10,22,206,B,55.33293650292546,39.45696508952973,2.7666468251462732,0.6197885582910776,B,709.6390829974553,Correct,sub_010_day_22_data.csv,1,321,,Dual-Task at home,8.0,6.0,small,big,False,Value,left,left,2262.489374988945,Correct,1.0,0.8317757009345794,
10,22,207,A,19.51604842942914,39.62599585662528,0.975802421471457,0.6224436873717678,A,1201.509916994837,Correct,sub_010_day_22_data.csv,1,321,,Dual-Task at home,8.0,6.0,small,big,False,Value,left,left,466.9461239973316,Correct,1.0,0.8317757009345794,
10,22,208,A,61.68850611971541,77.89620731205761,3.0844253059857705,1.2235907631703389,A,1186.6744169965386,Correct,sub_010_day_22_data.csv,1,321,,Dual-Task at home,7.0,8.0,big,small,False,Value,right,right,1004.5325419923756,Correct,1.0,0.8317757009345794,
10,22,209,A,32.50739961232012,52.435469773234985,1.625369980616006,0.8236544331356235,A,838.0334159883205,Correct,sub_010_day_22_data.csv,1,321,,Dual-Task at home,8.0,6.0,small,big,False,Size,right,right,1185.7493739953495,Correct,1.0,0.8317757009345794,
10,22,210,B,88.92964989845318,68.75598069782153,4.446482494922659,1.0800164192531887,B,1216.558582993457,Correct,sub_010_day_22_data.csv,1,321,,Dual-Task at home,3.0,2.0,small,big,False,Size,right,right,403.54508299787994,Correct,1.0,0.8317757009345794,
10,22,211,B,78.38173066251355,58.29071431629406,3.919086533125677,0.915628399342854,B,605.2773749979679,Correct,sub_010_day_22_data.csv,1,321,,Dual-Task at home,6.0,2.0,big,small,True,Value,left,left,399.4870829919819,Correct,1.0,0.8317757009345794,
10,22,212,A,41.88738141925161,70.12564530235447,2.09436907096258,1.101531060550602,A,1281.6864990018075,Correct,sub_010_day_22_data.csv,1,321,,Dual-Task at home,3.0,4.0,big,small,False,Size,left,left,1650.3596669936087,Correct,1.0,0.8317757009345794,
10,22,213,B,40.196571461681,29.785499079655708,2.00982857308405,0.4678695254607596,B,1154.1539160098182,Correct,sub_010_day_22_data.csv,1,321,,Dual-Task at home,6.0,2.0,small,big,False,Size,right,left,1595.8623330079718,Incorrect,0.0,0.8317757009345794,
10,22,214,B,69.94569906692638,42.49098877196608,3.4972849533463193,0.6674468908488751,B,638.5604999959469,Correct,sub_010_day_22_data.csv,1,321,,Dual-Task at home,7.0,2.0,big,small,True,Value,left,left,415.02633299387526,Correct,1.0,0.8317757009345794,
10,22,215,A,25.777843491559032,53.662285760990095,1.2888921745779516,0.8429252136078134,B,981.623125000624,Incorrect,sub_010_day_22_data.csv,0,321,,Dual-Task at home,4.0,3.0,small,big,False,Size,right,right,659.9204999947688,Correct,1.0,0.8317757009345794,
10,22,216,A,31.56288628804428,44.97947343271595,1.5781443144022145,0.7065359164927886,B,584.4071669998812,Incorrect,sub_010_day_22_data.csv,0,321,,Dual-Task at home,2.0,8.0,big,small,False,Value,right,right,680.0939160020789,Correct,1.0,0.8317757009345794,
10,22,217,A,24.65315551428898,47.251595851613494,1.232657775714449,0.7422263319891146,A,534.2694580031093,Correct,sub_010_day_22_data.csv,1,321,,Dual-Task at home,6.0,3.0,small,big,False,Size,right,right,638.0175830126973,Correct,1.0,0.8317757009345794,
10,22,218,B,59.38270848828909,45.84269473262655,2.9691354244144543,0.7200953649638954,B,574.2528329865308,Correct,sub_010_day_22_data.csv,1,321,,Dual-Task at home,3.0,5.0,big,small,False,Value,right,right,674.2330420092912,Correct,1.0,0.8317757009345794,
10,22,219,A,41.785759512857645,55.25902483438855,2.089287975642882,0.8680067323212548,A,1431.0823749983683,Correct,sub_010_day_22_data.csv,1,321,,Dual-Task at home,5.0,3.0,small,big,False,Value,left,right,893.0438740062527,Incorrect,0.0,0.8317757009345794,
10,22,220,B,81.07510000826102,58.82631299415328,4.053755000413051,0.9240415637010286,B,539.5892079977784,Correct,sub_010_day_22_data.csv,1,321,,Dual-Task at home,2.0,5.0,small,big,True,Value,right,right,490.0534579937812,Correct,1.0,0.8317757009345794,
10,22,221,B,74.15724485191437,50.384757949192704,3.707862242595718,0.7914419271304186,B,567.7077079890296,Correct,sub_010_day_22_data.csv,1,321,,Dual-Task at home,4.0,6.0,big,small,False,Value,right,left,632.0337079960154,Incorrect,0.0,0.8317757009345794,
10,22,222,B,71.65479990186694,59.30581417595397,3.5827399950933465,0.931573550651692,B,588.6634170019533,Correct,sub_010_day_22_data.csv,1,321,,Dual-Task at home,8.0,7.0,small,big,False,Value,left,left,772.974499996053,Correct,1.0,0.8317757009345794,
10,22,223,B,76.32400335539609,55.65934506463146,3.816200167769805,0.8742949477933275,B,555.3421249933308,Correct,sub_010_day_22_data.csv,1,321,,Dual-Task at home,4.0,7.0,small,big,True,Value,right,left,697.6966249931138,Incorrect,0.0,0.8317757009345794,
10,22,224,B,32.96678506747557,12.906280431531712,1.6483392533737784,0.2027313789443486,B,472.4436670076102,Correct,sub_010_day_22_data.csv,1,321,,Dual-Task at home,8.0,6.0,small,big,False,Value,left,left,709.4186659960542,Correct,1.0,0.8317757009345794,
10,22,225,A,38.99500973256602,65.107329196654,1.9497504866283009,1.0227035354953022,A,521.1631239944836,Correct,sub_010_day_22_data.csv,1,321,,Dual-Task at home,4.0,2.0,small,big,False,Size,right,left,1236.1033740016865,Incorrect,0.0,0.8317757009345794,
10,22,226,B,55.57026716459815,48.16022378605366,2.7785133582299073,0.7564990262075332,A,560.5592080100905,Incorrect,sub_010_day_22_data.csv,0,321,,Dual-Task at home,8.0,5.0,small,big,False,Size,right,right,793.524166001589,Correct,1.0,0.8317757009345794,
10,22,227,B,48.86913575973796,36.10127812979659,2.443456787986898,0.5670775507888541,B,704.3611249973765,Correct,sub_010_day_22_data.csv,1,321,,Dual-Task at home,6.0,3.0,small,big,False,Value,left,left,1479.464458010625,Correct,1.0,0.8317757009345794,
10,22,228,A,46.28778361077559,59.366527146485495,2.3143891805387797,0.9325272277626891,A,593.9295410062186,Correct,sub_010_day_22_data.csv,1,321,,Dual-Task at home,8.0,3.0,small,big,False,Size,right,right,542.8400829987368,Correct,1.0,0.8317757009345794,
10,22,229,B,75.49042051725587,52.795727532125085,3.7745210258627937,0.8293133487792628,B,668.9025420055259,Correct,sub_010_day_22_data.csv,1,321,,Dual-Task at home,2.0,5.0,big,small,False,Value,right,right,1013.9934159960832,Correct,1.0,0.8317757009345794,
10,22,230,B,54.51043529852677,30.44989762717831,2.725521764926339,0.4783058734405233,B,676.7489159974502,Correct,sub_010_day_22_data.csv,1,321,,Dual-Task at home,8.0,2.0,small,big,False,Value,left,left,515.9957079886226,Correct,1.0,0.8317757009345794,
10,22,231,B,47.93191446278857,34.17890200045922,2.3965957231394284,0.5368809371620408,B,550.6511249986943,Correct,sub_010_day_22_data.csv,1,321,,Dual-Task at home,4.0,8.0,big,small,False,Value,right,left,819.8176659934688,Incorrect,0.0,0.8317757009345794,
10,22,232,A,32.02752239308591,65.12430808751994,1.6013761196542955,1.022970239289355,A,626.5448330086656,Correct,sub_010_day_22_data.csv,1,321,,Dual-Task at home,6.0,7.0,big,small,False,Size,left,left,1088.716915997793,Correct,1.0,0.8317757009345794,
10,22,233,A,12.033348891273372,32.74132200091948,0.6016674445636687,0.5142994833345326,A,596.0564159904607,Correct,sub_010_day_22_data.csv,1,321,,Dual-Task at home,4.0,6.0,big,small,False,Value,right,left,568.9811670017662,Incorrect,0.0,0.8317757009345794,
10,22,234,A,42.64216667698261,53.80985626437579,2.1321083338491307,0.8452432456544285,A,658.9287500100909,Correct,sub_010_day_22_data.csv,1,321,,Dual-Task at home,6.0,8.0,big,small,False,Size,left,left,715.5362909979885,Correct,1.0,0.8317757009345794,
10,22,235,B,47.12090654468318,23.86134715828996,2.356045327234159,0.3748131646861971,B,538.15929099801,Correct,sub_010_day_22_data.csv,1,321,,Dual-Task at home,3.0,5.0,big,small,False,Value,right,right,567.2797080042074,Correct,1.0,0.8317757009345794,
10,22,236,A,36.93103080475863,67.47589700884802,1.846551540237931,1.0599089116868925,A,979.4313330057776,Correct,sub_010_day_22_data.csv,1,321,,Dual-Task at home,4.0,2.0,small,big,False,Size,right,right,1540.8480829937616,Correct,1.0,0.8317757009345794,
10,22,237,B,35.76725764707198,14.922209204350512,1.7883628823535989,0.2343975140585878,B,669.9945000000298,Correct,sub_010_day_22_data.csv,1,321,,Dual-Task at home,5.0,4.0,small,big,False,Value,left,left,2207.3827080021147,Correct,1.0,0.8317757009345794,
10,22,238,B,64.50917133464499,49.24161895349498,3.2254585667322493,0.7734855417758388,B,664.8632500000531,Correct,sub_010_day_22_data.csv,1,321,,Dual-Task at home,8.0,2.0,small,big,False,Size,right,right,2160.6097079929896,Correct,1.0,0.8317757009345794,
10,22,239,A,19.995671778501876,36.992181632291754,0.9997835889250938,0.5810718302813352,B,939.9425420124315,Incorrect,sub_010_day_22_data.csv,0,321,,Dual-Task at home,2.0,3.0,big,small,False,Value,right,right,1600.349832995562,Correct,1.0,0.8317757009345794,
10,22,240,A,61.7871609772925,80.37298080821982,3.089358048864625,1.262495830271084,A,494.172916005482,Correct,sub_010_day_22_data.csv,1,321,,Dual-Task at home,6.0,4.0,small,big,False,Value,left,left,1336.647374992026,Correct,1.0,0.8317757009345794,
10,22,241,A,24.784897522245544,42.99041926359152,1.2392448761122772,0.6752919266662213,A,669.3663330079289,Correct,sub_010_day_22_data.csv,1,321,,Dual-Task at home,2.0,3.0,big,small,False,Size,left,left,1653.1015829968965,Correct,1.0,0.8317757009345794,
10,22,242,A,24.652081952242938,36.02489049046543,1.2326040976121468,0.5658776565561149,B,791.4477919985075,Incorrect,sub_010_day_22_data.csv,0,321,,Dual-Task at home,2.0,3.0,big,small,False,Size,left,left,922.1371249877848,Correct,1.0,0.8317757009345794,
10,22,243,B,84.61272862442277,67.38911657423701,4.230636431221138,1.0585457678076458,A,617.0043329912005,Incorrect,sub_010_day_22_data.csv,0,321,,Dual-Task at home,8.0,2.0,small,big,False,Size,right,right,966.3433329988038,Correct,1.0,0.8317757009345794,
10,22,244,B,45.180164376604274,32.650450901381916,2.2590082188302136,0.5128720834408783,B,805.5181660020025,Correct,sub_010_day_22_data.csv,1,321,,Dual-Task at home,3.0,8.0,big,small,False,Size,left,left,1135.7672500016631,Correct,1.0,0.8317757009345794,
10,22,245,B,65.64193128187175,34.734314773279536,3.282096564093587,0.545605340596052,B,785.1444169937167,Correct,sub_010_day_22_data.csv,1,321,,Dual-Task at home,3.0,6.0,small,big,True,Value,right,right,353.4044999978505,Correct,1.0,0.8317757009345794,
10,22,246,B,63.580932934090015,33.110892943359595,3.1790466467045007,0.5201046901232831,B,771.6764999931911,Correct,sub_010_day_22_data.csv,1,321,,Dual-Task at home,6.0,5.0,small,big,False,Value,left,right,3060.684583004331,Incorrect,0.0,0.8317757009345794,
10,22,247,B,38.95498401587846,28.983243671009937,1.947749200793923,0.4552677269702384,B,511.3742489920696,Correct,sub_010_day_22_data.csv,1,321,,Dual-Task at home,3.0,5.0,big,small,False,Value,right,right,1122.530958004063,Correct,1.0,0.8317757009345794,
10,22,248,A,38.095868191833745,52.59122512437855,1.9047934095916872,0.8261010324701731,A,819.968208001228,Correct,sub_010_day_22_data.csv,1,321,,Dual-Task at home,2.0,4.0,big,small,False,Size,left,left,3221.735790997627,Correct,1.0,0.8317757009345794,
10,22,249,A,54.52017818137384,71.4643375231351,2.7260089090686916,1.1225591887817132,A,571.5049160062335,Correct,sub_010_day_22_data.csv,1,321,,Dual-Task at home,3.0,5.0,big,small,False,Value,right,left,801.3498329964932,Incorrect,0.0,0.8317757009345794,
10,22,250,A,57.18127935708476,86.07209572549894,2.859063967854238,1.3520173180515245,A,646.3834159949329,Correct,sub_010_day_22_data.csv,1,321,,Dual-Task at home,3.0,6.0,big,small,False,Size,left,left,513.5305830044672,Correct,1.0,0.8317757009345794,
10,22,251,A,25.318350537128097,55.32173710117776,1.265917526856405,0.8689918143044298,A,584.9299580004299,Correct,sub_010_day_22_data.csv,1,321,,Dual-Task at home,5.0,8.0,small,big,True,Size,right,right,315.0459579919698,Correct,1.0,0.8317757009345794,
10,22,252,A,64.24057202796766,84.15423211244229,3.212028601398383,1.3218915868646948,A,554.8342499969294,Correct,sub_010_day_22_data.csv,1,321,,Dual-Task at home,6.0,2.0,small,big,False,Value,left,right,1140.8158739941427,Incorrect,0.0,0.8317757009345794,
10,22,253,B,71.6287765106081,61.96111724896809,3.581438825530405,0.9732829537878698,B,1025.1397490064846,Correct,sub_010_day_22_data.csv,1,321,,Dual-Task at home,6.0,4.0,small,big,False,Size,right,right,1903.3812080015196,Correct,1.0,0.8317757009345794,
10,22,254,B,65.65740103847781,33.96976285715006,3.282870051923891,0.5335957871810503,B,867.1173330076272,Correct,sub_010_day_22_data.csv,1,321,,Dual-Task at home,2.0,6.0,big,small,False,Size,left,right,1278.5591249994468,Incorrect,0.0,0.8317757009345794,
10,22,255,A,55.03640157219137,68.10250741088083,2.751820078609569,1.0697516848653383,A,575.4645409906516,Correct,sub_010_day_22_data.csv,1,321,,Dual-Task at home,6.0,5.0,small,big,False,Value,left,left,1012.2217080061092,Correct,1.0,0.8317757009345794,
10,22,256,B,51.85116065269243,35.930692752339624,2.5925580326346216,0.564398001945711,B,926.2799999996788,Correct,sub_010_day_22_data.csv,1,321,,Dual-Task at home,3.0,5.0,big,small,False,Size,left,left,2222.7214989979984,Correct,1.0,0.8317757009345794,
10,22,257,A,45.461212599349,58.449018405514,2.27306062996745,0.9181150341614868,B,927.9433750052704,Incorrect,sub_010_day_22_data.csv,0,321,,Dual-Task at home,3.0,4.0,big,small,False,Value,right,right,658.9492500061169,Correct,1.0,0.8317757009345794,
10,22,258,B,42.36501167095507,31.24673141275445,2.118250583547754,0.490822509275014,B,495.06216699955985,Correct,sub_010_day_22_data.csv,1,321,,Dual-Task at home,2.0,3.0,small,big,True,Size,right,right,144.03858299192507,Correct,1.0,0.8317757009345794,
10,22,259,A,22.15353467160263,52.11668159069307,1.1076767335801314,0.8186469200739988,A,660.1499160024105,Correct,sub_010_day_22_data.csv,1,321,,Dual-Task at home,6.0,8.0,big,small,False,Value,right,left,813.3988750050776,Incorrect,0.0,0.8317757009345794,
10,22,260,A,16.070613050959434,37.4860956349174,0.8035306525479717,0.5888302132921045,B,611.4944159926381,Incorrect,sub_010_day_22_data.csv,0,321,,Dual-Task at home,4.0,2.0,small,big,False,Size,right,right,1398.439500000677,Correct,1.0,0.8317757009345794,
10,22,261,A,30.94004972195839,57.02437241870657,1.5470024860979197,0.8957367473308849,A,724.3346659961389,Correct,sub_010_day_22_data.csv,1,321,,Dual-Task at home,4.0,8.0,big,small,False,Size,left,left,472.7200829947833,Correct,1.0,0.8317757009345794,
10,22,262,B,40.457804875333295,18.5936101958504,2.022890243766665,0.2920677459749794,B,531.3097499893047,Correct,sub_010_day_22_data.csv,1,321,,Dual-Task at home,3.0,5.0,small,big,True,Value,right,right,235.85287500463892,Correct,1.0,0.8317757009345794,
10,22,263,B,84.02147358983976,57.74356676796859,4.201073679491987,0.9070338257516092,B,823.3321659936337,Correct,sub_010_day_22_data.csv,1,321,,Dual-Task at home,7.0,8.0,big,small,False,Value,right,left,960.2693740016548,Incorrect,0.0,0.8317757009345794,
10,22,264,A,51.28771122339938,64.53351669673218,2.564385561169969,1.0136901098238402,A,603.9855409908341,Correct,sub_010_day_22_data.csv,1,321,,Dual-Task at home,2.0,5.0,big,small,False,Size,left,left,518.6666240042541,Correct,1.0,0.8317757009345794,
10,22,265,A,34.42077656235515,50.75293818640167,1.7210388281177575,0.7972252887724818,A,949.7928750060964,Correct,sub_010_day_22_data.csv,1,321,,Dual-Task at home,3.0,4.0,big,small,False,Size,left,right,5087.231373996474,Incorrect,0.0,0.8317757009345794,
10,22,266,A,44.180766079051594,75.55908712819192,2.2090383039525796,1.1868793651693943,A,525.9992499923101,Correct,sub_010_day_22_data.csv,1,321,,Dual-Task at home,4.0,2.0,small,big,False,Size,right,right,1232.728415998281,Correct,1.0,0.8317757009345794,
10,22,267,B,69.71732699784474,42.86480197802473,3.4858663498922366,0.6733187349587187,B,591.3551240082597,Correct,sub_010_day_22_data.csv,1,321,,Dual-Task at home,4.0,8.0,small,big,True,Size,right,right,141.63558300060686,Correct,1.0,0.8317757009345794,
10,22,268,A,41.04108821815737,63.01084304749312,2.0520544109078687,0.9897720080725192,A,587.6530410023406,Correct,sub_010_day_22_data.csv,1,321,,Dual-Task at home,6.0,8.0,big,small,False,Size,left,right,132.54891699762084,Incorrect,0.0,0.8317757009345794,
10,22,269,B,56.99419046298517,26.682778832981565,2.8497095231492584,0.4191321097952806,B,490.15625000174623,Correct,sub_010_day_22_data.csv,1,321,,Dual-Task at home,7.0,2.0,small,big,False,Value,left,right,377.46820799657144,Incorrect,0.0,0.8317757009345794,
10,22,270,B,49.86655083923719,34.24082100842426,2.4933275419618597,0.5378535586647436,B,518.3954160020221,Correct,sub_010_day_22_data.csv,1,321,,Dual-Task at home,5.0,3.0,small,big,False,Value,left,left,863.656000001356,Correct,1.0,0.8317757009345794,
10,22,271,A,40.304455701631426,56.280722920327754,2.015222785081571,0.8840555283261218,A,571.1682909895899,Correct,sub_010_day_22_data.csv,1,321,,Dual-Task at home,3.0,4.0,big,small,False,Value,right,left,3407.470958001795,Incorrect,0.0,0.8317757009345794,
10,22,272,A,38.81199568019028,52.56673095534157,1.940599784009514,0.8257162789626613,A,588.8572080002632,Correct,sub_010_day_22_data.csv,1,321,,Dual-Task at home,7.0,2.0,small,big,False,Value,left,left,387.7175000088755,Correct,1.0,0.8317757009345794,
10,22,273,B,60.55946209444304,35.48948012820223,3.027973104722152,0.5574674502524053,B,512.9706659936346,Correct,sub_010_day_22_data.csv,1,321,,Dual-Task at home,2.0,8.0,big,small,False,Size,left,left,1074.5953739969991,Correct,1.0,0.8317757009345794,
10,22,274,B,52.189764990163006,21.235701605767645,2.6094882495081504,0.333569620792523,B,1247.14262400812,Correct,sub_010_day_22_data.csv,1,321,,Dual-Task at home,8.0,2.0,small,big,False,Value,left,left,1228.899707988603,Correct,1.0,0.8317757009345794,
10,22,275,A,57.98826091051899,78.3981385298473,2.8994130455259493,1.231475080302416,A,530.7177490030881,Correct,sub_010_day_22_data.csv,1,321,,Dual-Task at home,7.0,4.0,small,big,False,Value,left,left,2738.3386659930693,Correct,1.0,0.8317757009345794,
10,22,276,B,82.51774335951828,60.845459016286966,4.125887167975914,0.95575823524933,B,1495.075540995458,Correct,sub_010_day_22_data.csv,1,321,,Dual-Task at home,5.0,3.0,small,big,False,Value,left,left,1440.1492909964873,Correct,1.0,0.8317757009345794,
10,22,277,B,58.59700966757238,29.593352857154095,2.929850483378619,0.4648512996556291,B,515.2080419939011,Correct,sub_010_day_22_data.csv,1,321,,Dual-Task at home,4.0,5.0,small,big,True,Value,right,right,998.5588740091772,Correct,1.0,0.8317757009345794,
10,22,278,A,22.916884286498423,45.909781550531896,1.1458442143249212,0.7211491622353162,A,1308.072958010598,Correct,sub_010_day_22_data.csv,1,321,,Dual-Task at home,8.0,6.0,small,big,False,Value,left,left,661.1736250051763,Correct,1.0,0.8317757009345794,
10,22,279,B,47.91402083049555,38.76628005828439,2.3957010415247777,0.6089393031905537,B,628.5285000049043,Correct,sub_010_day_22_data.csv,1,321,,Dual-Task at home,3.0,6.0,big,small,False,Value,right,right,934.7567910008364,Correct,1.0,0.8317757009345794,
10,22,280,A,52.01893102684789,72.12569084560106,2.6009465513423944,1.1329477024781442,A,678.139875002671,Correct,sub_010_day_22_data.csv,1,321,,Dual-Task at home,4.0,6.0,big,small,False,Size,left,left,1198.1790410063695,Correct,1.0,0.8317757009345794,
10,22,281,B,63.02754160197745,42.56396268167394,3.151377080098872,0.6685931623420849,B,1250.104666003608,Correct,sub_010_day_22_data.csv,1,321,,Dual-Task at home,4.0,3.0,small,big,False,Size,right,right,2655.2302909985883,Correct,1.0,0.8317757009345794,
10,22,282,A,35.66711318664495,64.48633780366372,1.7833556593322473,1.0129490255044984,A,1004.4499990035548,Correct,sub_010_day_22_data.csv,1,321,,Dual-Task at home,8.0,4.0,small,big,False,Size,right,right,602.1535830077482,Correct,1.0,0.8317757009345794,
10,22,283,B,66.62955736985916,37.77445537816747,3.331477868492958,0.5933597575470319,B,941.7048750037792,Correct,sub_010_day_22_data.csv,1,321,,Dual-Task at home,3.0,6.0,big,small,False,Value,right,left,3743.671374002588,Incorrect,0.0,0.8317757009345794,
10,22,284,A,23.84422100962885,39.22721635553904,1.1922110504814425,0.6161796736166941,B,619.0120420069434,Incorrect,sub_010_day_22_data.csv,0,321,,Dual-Task at home,3.0,5.0,big,small,False,Value,right,right,919.560124995769,Correct,1.0,0.8317757009345794,
10,22,285,A,28.69462250776776,59.76714120810442,1.434731125388388,0.9388200587272232,A,655.3403330035508,Correct,sub_010_day_22_data.csv,1,321,,Dual-Task at home,4.0,7.0,small,big,True,Value,right,right,947.8397080092692,Correct,1.0,0.8317757009345794,
10,22,286,B,40.72778187477672,27.47901507470203,2.036389093738836,0.4316393594328354,B,1040.358248996199,Correct,sub_010_day_22_data.csv,1,321,,Dual-Task at home,7.0,5.0,small,big,False,Size,right,right,428.5988330084365,Correct,1.0,0.8317757009345794,
10,22,287,A,38.29991785609296,70.29473236423911,1.914995892804648,1.1041870739077713,A,524.1058329993393,Correct,sub_010_day_22_data.csv,1,321,,Dual-Task at home,8.0,2.0,small,big,False,Value,left,left,383.6380409920821,Correct,1.0,0.8317757009345794,
10,22,288,B,68.35542358464008,44.64547241548141,3.417771179232004,0.7012894407826108,B,521.775291999802,Correct,sub_010_day_22_data.csv,1,321,,Dual-Task at home,4.0,7.0,big,small,False,Size,left,left,1199.274874990806,Correct,1.0,0.8317757009345794,
10,22,289,A,17.566557441104862,39.962197191970574,0.8783278720552431,0.6277247255980071,A,608.8452080002753,Correct,sub_010_day_22_data.csv,1,321,,Dual-Task at home,2.0,7.0,big,small,False,Value,right,left,1533.2769579981689,Incorrect,0.0,0.8317757009345794,
10,22,290,B,39.82498446767437,25.18730509078678,1.9912492233837185,0.3956412631847028,B,567.3815000045579,Correct,sub_010_day_22_data.csv,1,321,,Dual-Task at home,8.0,2.0,big,small,True,Value,left,right,1397.9461670096498,Incorrect,0.0,0.8317757009345794,
10,22,291,B,60.6706576541995,38.606869261724,3.033532882709975,0.6064352842536687,B,746.746874996461,Correct,sub_010_day_22_data.csv,1,321,,Dual-Task at home,8.0,2.0,small,big,False,Size,right,right,876.2456249969546,Correct,1.0,0.8317757009345794,
10,22,292,A,51.01016303878336,69.40951012094402,2.550508151939168,1.090282035426121,A,647.4102490028599,Correct,sub_010_day_22_data.csv,1,321,,Dual-Task at home,5.0,3.0,small,big,False,Value,left,left,1652.0625830016795,Correct,1.0,0.8317757009345794,
10,22,293,B,34.79780826604564,19.100189076815195,1.739890413302282,0.3000250684294931,B,651.5908739966108,Correct,sub_010_day_22_data.csv,1,321,,Dual-Task at home,2.0,4.0,small,big,True,Size,right,right,948.5190410050564,Correct,1.0,0.8317757009345794,
10,22,294,B,67.35160412818203,47.82984069677183,3.3675802064091016,0.7513093807767425,B,915.003832997172,Correct,sub_010_day_22_data.csv,1,321,,Dual-Task at home,8.0,4.0,small,big,False,Value,left,right,2618.063207992236,Incorrect,0.0,0.8317757009345794,
10,22,295,B,73.78329397860558,52.99590775266428,3.689164698930279,0.8324577723304624,B,626.0845829965547,Correct,sub_010_day_22_data.csv,1,321,,Dual-Task at home,4.0,7.0,big,small,False,Value,right,right,1359.467375004897,Correct,1.0,0.8317757009345794,
10,22,296,B,33.77155473578462,20.353825337039737,1.6885777367892307,0.3197171407564692,B,498.6042489908869,Correct,sub_010_day_22_data.csv,1,321,,Dual-Task at home,6.0,4.0,big,small,True,Value,left,left,419.5815830025822,Correct,1.0,0.8317757009345794,
10,22,297,B,70.67718395152936,47.905415633092815,3.5338591975764677,0.7524965091004502,B,588.414207988535,Correct,sub_010_day_22_data.csv,1,321,,Dual-Task at home,7.0,5.0,small,big,False,Value,left,left,1033.312332991045,Correct,1.0,0.8317757009345794,
10,22,298,A,63.7138814443524,75.25800404580929,3.18569407221762,1.182149963170727,A,749.0839579986641,Correct,sub_010_day_22_data.csv,1,321,,Dual-Task at home,5.0,2.0,small,big,False,Value,left,left,1538.9189999987138,Correct,1.0,0.8317757009345794,
10,22,299,B,61.062627606718635,52.50835997436217,3.053131380335932,0.8247993897375228,B,1276.6554160043595,Correct,sub_010_day_22_data.csv,1,321,,Dual-Task at home,6.0,2.0,small,big,False,Value,left,left,587.3369579931023,Correct,1.0,0.8317757009345794,
10,22,300,A,40.05502607838858,66.32477392963875,2.002751303919429,1.0418271126417846,A,877.5277910026489,Correct,sub_010_day_22_data.csv,1,321,,Dual-Task at home,2.0,8.0,big,small,False,Size,left,left,528.1453750067158,Correct,1.0,0.8317757009345794,
10,22,301,A,35.21707755405513,44.590291445731935,1.7608538777027565,0.7004226601366962,B,964.967790991068,Incorrect,sub_010_day_22_data.csv,0,321,,Dual-Task at home,3.0,7.0,big,small,False,Value,right,right,494.9953329924029,Correct,1.0,0.8317757009345794,
10,22,302,B,51.67662363789685,35.546789027346634,2.5838311818948427,0.5583676563350923,B,602.6819989929209,Correct,sub_010_day_22_data.csv,1,321,,Dual-Task at home,8.0,4.0,big,small,True,Size,left,right,2323.8552910042927,Incorrect,0.0,0.8317757009345794,
10,22,303,B,40.14601009948585,15.909265322149777,2.0073005049742925,0.2499021553003828,B,530.5057490040781,Correct,sub_010_day_22_data.csv,1,321,,Dual-Task at home,2.0,8.0,big,small,False,Value,right,right,1030.9221240022453,Correct,1.0,0.8317757009345794,
10,22,304,A,15.586246318594291,36.330460009852914,0.7793123159297146,0.5706775313424585,A,541.6221659979783,Correct,sub_010_day_22_data.csv,1,321,,Dual-Task at home,4.0,6.0,small,big,True,Size,right,right,228.93370800011328,Correct,1.0,0.8317757009345794,
10,22,305,A,57.79837636022705,71.64879538089369,2.8899188180113526,1.1254566460358697,A,609.2032079905039,Correct,sub_010_day_22_data.csv,1,321,,Dual-Task at home,4.0,3.0,small,big,False,Value,left,left,474.0307909960393,Correct,1.0,0.8317757009345794,
10,22,306,B,83.33423098041723,55.78975448522421,4.166711549020862,0.876343414181793,B,729.38812400389,Correct,sub_010_day_22_data.csv,1,321,,Dual-Task at home,8.0,7.0,small,big,False,Value,left,left,685.9264989907388,Correct,1.0,0.8317757009345794,
10,22,307,B,85.20900803233705,62.52629320663782,4.260450401616853,0.9821607169708738,B,946.5460420033196,Correct,sub_010_day_22_data.csv,1,321,,Dual-Task at home,4.0,3.0,small,big,False,Size,right,left,2197.425332997227,Incorrect,0.0,0.8317757009345794,
10,22,308,B,57.86215320913022,28.583950144102783,2.8931076604565114,0.448995638916451,B,740.1838750083698,Correct,sub_010_day_22_data.csv,1,321,,Dual-Task at home,5.0,2.0,small,big,False,Value,left,left,2466.35604200128,Correct,1.0,0.8317757009345794,
10,22,309,B,47.38412520963232,20.49182960933119,2.369206260481616,0.3218849067964433,B,557.8891249897424,Correct,sub_010_day_22_data.csv,1,321,,Dual-Task at home,2.0,3.0,big,small,False,Size,left,right,2376.6731250070734,Incorrect,0.0,0.8317757009345794,
10,22,310,B,87.44492637617074,61.32680893060381,4.372246318808537,0.9633192620224492,B,648.2324579992564,Correct,sub_010_day_22_data.csv,1,321,,Dual-Task at home,6.0,7.0,big,small,False,Size,left,left,858.6412489967188,Correct,1.0,0.8317757009345794,
10,22,311,A,22.54719418775927,46.01402940109497,1.1273597093879637,0.7227866836427236,A,741.739040997345,Correct,sub_010_day_22_data.csv,1,321,,Dual-Task at home,5.0,6.0,small,big,True,Size,right,right,1401.601292003761,Correct,1.0,0.8317757009345794,
10,22,312,B,37.98964582881143,13.83220907494038,1.8994822914405716,0.2172758320637538,B,666.9418739911634,Correct,sub_010_day_22_data.csv,1,321,,Dual-Task at home,3.0,4.0,big,small,False,Size,left,right,3042.5287499965634,Incorrect,0.0,0.8317757009345794,
10,22,313,A,19.29162638254951,48.912723069097666,0.9645813191274756,0.768319257304746,A,636.0881669970695,Correct,sub_010_day_22_data.csv,1,321,,Dual-Task at home,2.0,7.0,big,small,False,Size,left,left,742.1686659945408,Correct,1.0,0.8317757009345794,
10,22,314,A,33.75946308285636,55.06106858953634,1.687973154142818,0.8648972428984555,A,1049.3875829997703,Correct,sub_010_day_22_data.csv,1,321,,Dual-Task at home,5.0,6.0,big,small,False,Value,right,right,1794.9661250022473,Correct,1.0,0.8317757009345794,
10,22,315,B,63.1143879279926,39.47585977701978,3.1557193963996304,0.6200853553481308,B,599.9591659929138,Correct,sub_010_day_22_data.csv,1,321,,Dual-Task at home,7.0,5.0,small,big,False,Value,left,left,1280.4253329959463,Correct,1.0,0.8317757009345794,
10,22,316,A,30.90659945408822,41.030262806172104,1.545329972704411,0.6445018610336442,B,1390.0640000065323,Incorrect,sub_010_day_22_data.csv,0,321,,Dual-Task at home,5.0,6.0,small,big,True,Value,right,right,704.4345409958623,Correct,1.0,0.8317757009345794,
10,22,317,B,66.40945279606647,37.594777012284815,3.3204726398033237,0.590537376375702,B,700.2406250103377,Correct,sub_010_day_22_data.csv,1,321,,Dual-Task at home,7.0,2.0,small,big,False,Size,right,right,795.5929580057273,Correct,1.0,0.8317757009345794,
10,22,318,B,83.86844821349642,58.96040994153017,4.193422410674821,0.926147953624769,B,931.0537499986822,Correct,sub_010_day_22_data.csv,1,321,,Dual-Task at home,8.0,4.0,small,big,False,Value,left,left,1452.435207989765,Correct,1.0,0.8317757009345794,
10,22,319,A,23.433995672494454,55.10389145421871,1.1716997836247227,0.8655699028839146,A,920.725791991572,Correct,sub_010_day_22_data.csv,1,321,,Dual-Task at home,7.0,5.0,small,big,False,Size,right,right,3274.6524999965914,Correct,1.0,0.8317757009345794,
10,22,320,A,58.27109945648753,75.9153034444171,2.913554972824377,1.1924747979801036,A,778.1017500092275,Correct,sub_010_day_22_data.csv,1,321,,Dual-Task at home,4.0,7.0,big,small,False,Value,right,left,3223.7492080021184,Incorrect,0.0,0.8317757009345794,
