subject,day,trial,cat,x,y,xt,yt,resp,rt,fb,f_name,acc,n_trials,block,session_type,ns_left_digit,ns_right_digit,ns_left_size,ns_right_size,ns_congruent,ns_cue,ns_correct_side,ns_resp,ns_rt,ns_fb,acc_stroop,acc_stroop_mean,resp_key
10,14,3000,A,67.70888845120636,83.72037328412719,3.385444422560318,1.3150765483260458,A,679.5617920000154,Correct,sub_010_day_14_data.csv,1,300,120.0,Training at home,,,,,,,,,,,,,
10,14,3001,B,36.48655148357569,25.517780411029648,1.8243275741787843,0.4008323573760413,B,491.7988340000079,Correct,sub_010_day_14_data.csv,1,300,120.0,Training at home,,,,,,,,,,,,,
10,14,3002,B,64.48260047322583,45.91502578037266,3.2241300236612913,0.7212315384050234,B,602.2792919999915,Correct,sub_010_day_14_data.csv,1,300,120.0,Training at home,,,,,,,,,,,,,
10,14,3003,A,46.106011195959475,52.78897360003385,2.3053005597979737,0.8292072582620594,B,541.5854579999859,Incorrect,sub_010_day_14_data.csv,0,300,120.0,Training at home,,,,,,,,,,,,,
10,14,3004,A,12.190115790966525,37.41622149100328,0.6095057895483261,0.5877326328061221,A,559.2526249999992,Correct,sub_010_day_14_data.csv,1,300,120.0,Training at home,,,,,,,,,,,,,
10,14,3005,B,46.98257949479273,36.15460118118496,2.3491289747396364,0.5679151473213977,B,451.5909170000043,Correct,sub_010_day_14_data.csv,1,300,120.0,Training at home,,,,,,,,,,,,,
10,14,3006,B,81.56030518556918,59.47152250802323,4.078015259278459,0.9341764910450292,A,725.5517080000118,Incorrect,sub_010_day_14_data.csv,0,300,120.0,Training at home,,,,,,,,,,,,,
10,14,3007,B,69.87988752864578,42.66354245103483,3.493994376432289,0.6701573577014366,B,471.01624999999103,Correct,sub_010_day_14_data.csv,1,300,120.0,Training at home,,,,,,,,,,,,,
10,14,3008,B,79.06561185774447,66.65877290891783,3.953280592887223,1.0470735563398328,A,585.0476669999978,Incorrect,sub_010_day_14_data.csv,0,300,120.0,Training at home,,,,,,,,,,,,,
10,14,3009,A,15.566028525120364,34.14766030305352,0.7783014262560181,0.5363901937267638,A,507.4109169999872,Correct,sub_010_day_14_data.csv,1,300,120.0,Training at home,,,,,,,,,,,,,
10,14,3010,B,54.232589137335154,45.88303541818396,2.7116294568667576,0.720729034970835,B,584.6156670000084,Correct,sub_010_day_14_data.csv,1,300,120.0,Training at home,,,,,,,,,,,,,
10,14,3011,A,32.11580064257633,57.79485983498055,1.6057900321288168,0.9078395353641334,A,445.63058299999625,Correct,sub_010_day_14_data.csv,1,300,120.0,Training at home,,,,,,,,,,,,,
10,14,3012,A,48.033158728303945,56.964219171033626,2.401657936415197,0.8947918623259906,A,438.05683400000817,Correct,sub_010_day_14_data.csv,1,300,120.0,Training at home,,,,,,,,,,,,,
10,14,3013,A,64.12507804314558,84.27156549492265,3.2062539021572785,1.3237346553268006,A,482.845583000028,Correct,sub_010_day_14_data.csv,1,300,120.0,Training at home,,,,,,,,,,,,,
10,14,3014,B,70.93229052857174,53.923810239086464,3.546614526428587,0.8470332305034205,A,509.4269999999881,Incorrect,sub_010_day_14_data.csv,0,300,120.0,Training at home,,,,,,,,,,,,,
10,14,3015,B,59.77286356088816,46.78746733694707,2.9886431780444083,0.7349358183291265,B,532.0353329999818,Correct,sub_010_day_14_data.csv,1,300,120.0,Training at home,,,,,,,,,,,,,
10,14,3016,A,17.392473387632112,31.81357140512062,0.8696236693816055,0.4997264110539062,A,523.3558329999823,Correct,sub_010_day_14_data.csv,1,300,120.0,Training at home,,,,,,,,,,,,,
10,14,3017,A,15.191202128601418,40.45433598125483,0.7595601064300709,0.635455223622817,A,422.7468750000014,Correct,sub_010_day_14_data.csv,1,300,120.0,Training at home,,,,,,,,,,,,,
10,14,3018,A,57.77628992806507,75.85652344347798,2.888814496403254,1.1915514838844614,A,640.7320000000141,Correct,sub_010_day_14_data.csv,1,300,120.0,Training at home,,,,,,,,,,,,,
10,14,3019,A,46.26522882608356,52.94384964504233,2.313261441304178,0.8316400454881379,A,597.2229580000032,Correct,sub_010_day_14_data.csv,1,300,120.0,Training at home,,,,,,,,,,,,,
10,14,3020,B,65.33864951804634,51.06674803613614,3.266932475902317,0.8021546023652315,B,791.8742090000137,Correct,sub_010_day_14_data.csv,1,300,120.0,Training at home,,,,,,,,,,,,,
10,14,3021,A,34.12772463439186,42.689276198648926,1.706386231719593,0.6705615824637053,A,543.8962919999994,Correct,sub_010_day_14_data.csv,1,300,120.0,Training at home,,,,,,,,,,,,,
10,14,3022,B,55.51816256390791,35.89821152165852,2.7759081281953955,0.5638877879672743,B,534.3498750000037,Correct,sub_010_day_14_data.csv,1,300,120.0,Training at home,,,,,,,,,,,,,
10,14,3023,B,67.13680205974383,48.69488406271757,3.3568401029871917,0.764897450194201,B,556.6117080000197,Correct,sub_010_day_14_data.csv,1,300,120.0,Training at home,,,,,,,,,,,,,
10,14,3024,B,74.73599430569753,51.486997992250046,3.7367997152848766,0.8087558732392258,B,487.8412080000203,Correct,sub_010_day_14_data.csv,1,300,120.0,Training at home,,,,,,,,,,,,,
10,14,3025,A,38.216918063744515,49.600352975205546,1.9108459031872256,0.7791205226118318,A,697.4737500000003,Correct,sub_010_day_14_data.csv,1,300,121.0,Training at home,,,,,,,,,,,,,
10,14,3026,A,38.35157409306206,57.88247011281573,1.917578704653103,0.9092157143902632,A,597.4027500000147,Correct,sub_010_day_14_data.csv,1,300,121.0,Training at home,,,,,,,,,,,,,
10,14,3027,B,80.04925759012511,50.39084229276685,4.002462879506255,0.7915374997757908,B,610.805125000013,Correct,sub_010_day_14_data.csv,1,300,121.0,Training at home,,,,,,,,,,,,,
10,14,3028,A,23.670652513675012,34.519089983380454,1.1835326256837506,0.5422245975019653,A,529.28,Correct,sub_010_day_14_data.csv,1,300,121.0,Training at home,,,,,,,,,,,,,
10,14,3029,B,49.46746152110299,24.028021463532184,2.4733730760551493,0.3774312785506529,B,502.2892080000077,Correct,sub_010_day_14_data.csv,1,300,121.0,Training at home,,,,,,,,,,,,,
10,14,3030,B,44.3850569645258,28.407818632552292,2.21925284822629,0.4462289716026876,B,439.98174999998696,Correct,sub_010_day_14_data.csv,1,300,121.0,Training at home,,,,,,,,,,,,,
10,14,3031,A,43.708077040454974,58.95534508284104,2.185403852022749,0.9260683950105228,A,571.6431669999906,Correct,sub_010_day_14_data.csv,1,300,121.0,Training at home,,,,,,,,,,,,,
10,14,3032,B,50.79847952536614,21.567161384357416,2.539923976268307,0.3387761788194136,B,424.0461250000181,Correct,sub_010_day_14_data.csv,1,300,121.0,Training at home,,,,,,,,,,,,,
10,14,3033,A,21.794344475944232,47.63399768459752,1.0897172237972117,0.748233085935224,A,456.9910410000091,Correct,sub_010_day_14_data.csv,1,300,121.0,Training at home,,,,,,,,,,,,,
10,14,3034,B,50.94009546319205,41.87013119671665,2.5470047731596024,0.6576944828622291,B,543.2986669999877,Correct,sub_010_day_14_data.csv,1,300,121.0,Training at home,,,,,,,,,,,,,
10,14,3035,A,67.955927144313,87.0791051995831,3.39779635721565,1.3678353858809151,A,474.5646249999709,Correct,sub_010_day_14_data.csv,1,300,121.0,Training at home,,,,,,,,,,,,,
10,14,3036,B,62.40553583432588,42.028026460890885,3.1202767917162944,0.6601746958720611,B,570.289750000029,Correct,sub_010_day_14_data.csv,1,300,121.0,Training at home,,,,,,,,,,,,,
10,14,3037,A,34.72914970494919,49.80988483315198,1.7364574852474592,0.7824118413399197,A,694.7646250000048,Correct,sub_010_day_14_data.csv,1,300,121.0,Training at home,,,,,,,,,,,,,
10,14,3038,B,55.60805324868315,34.6965291434004,2.780402662434158,0.5450118053098543,B,480.7095410000102,Correct,sub_010_day_14_data.csv,1,300,121.0,Training at home,,,,,,,,,,,,,
10,14,3039,B,38.20019125466072,16.561403703834078,1.910009562733036,0.2601459210454996,B,621.9835840000201,Correct,sub_010_day_14_data.csv,1,300,121.0,Training at home,,,,,,,,,,,,,
10,14,3040,B,72.5498451994509,52.52371845821786,3.627492259972545,0.8250406402377791,B,732.3846670000194,Correct,sub_010_day_14_data.csv,1,300,121.0,Training at home,,,,,,,,,,,,,
10,14,3041,A,56.32085960245206,70.4098215160081,2.816042980122603,1.105994890076298,B,560.8527080000272,Incorrect,sub_010_day_14_data.csv,0,300,121.0,Training at home,,,,,,,,,,,,,
10,14,3042,A,24.67343199767476,42.179064367261475,1.233671599883738,0.6625471937573983,A,459.1732920000027,Correct,sub_010_day_14_data.csv,1,300,121.0,Training at home,,,,,,,,,,,,,
10,14,3043,B,73.28495260635502,44.40100112066287,3.6642476303177514,0.6974492946635333,B,475.6501669999693,Correct,sub_010_day_14_data.csv,1,300,121.0,Training at home,,,,,,,,,,,,,
10,14,3044,B,57.59309903535758,33.55995452658534,2.879654951767879,0.52715853297764,B,485.7243330000074,Correct,sub_010_day_14_data.csv,1,300,121.0,Training at home,,,,,,,,,,,,,
10,14,3045,B,67.18548355054749,38.42160170657217,3.3592741775273742,0.6035251083026009,B,508.7554589999854,Correct,sub_010_day_14_data.csv,1,300,121.0,Training at home,,,,,,,,,,,,,
10,14,3046,A,55.99679092336834,71.6142680267656,2.7998395461684167,1.124914291625486,A,689.7442920000003,Correct,sub_010_day_14_data.csv,1,300,121.0,Training at home,,,,,,,,,,,,,
10,14,3047,A,31.21223290330665,42.426966725955296,1.5606116451653325,0.6664412349017989,A,557.4099170000295,Correct,sub_010_day_14_data.csv,1,300,121.0,Training at home,,,,,,,,,,,,,
10,14,3048,A,56.02810861394533,71.98887669263152,2.801405430697266,1.1307986307887634,A,667.5004580000063,Correct,sub_010_day_14_data.csv,1,300,121.0,Training at home,,,,,,,,,,,,,
10,14,3049,A,60.33202401147502,72.62374415455531,3.016601200573751,1.1407711055606784,A,684.4283750000386,Correct,sub_010_day_14_data.csv,1,300,121.0,Training at home,,,,,,,,,,,,,
10,14,3050,A,38.20350990321812,52.44504073478683,1.9101754951609056,0.8238047734481189,A,670.0247499999819,Correct,sub_010_day_14_data.csv,1,300,122.0,Training at home,,,,,,,,,,,,,
10,14,3051,B,35.35385633245122,18.06168486575437,1.767692816622561,0.2837122824285393,B,446.1457919999816,Correct,sub_010_day_14_data.csv,1,300,122.0,Training at home,,,,,,,,,,,,,
10,14,3052,A,60.25088352069355,78.23010566787951,3.0125441760346776,1.2288356262788176,A,464.56491700001834,Correct,sub_010_day_14_data.csv,1,300,122.0,Training at home,,,,,,,,,,,,,
10,14,3053,B,77.57945754058952,49.40643793519183,3.8789728770294754,0.7760745122861937,B,715.7578750000084,Correct,sub_010_day_14_data.csv,1,300,122.0,Training at home,,,,,,,,,,,,,
10,14,3054,A,54.349191054727946,64.02243981853817,2.717459552736397,1.005662132994071,A,516.86508399996,Correct,sub_010_day_14_data.csv,1,300,122.0,Training at home,,,,,,,,,,,,,
10,14,3055,B,63.99237446479851,42.2678083682123,3.199618723239926,0.6639411812645847,B,470.5435829999942,Correct,sub_010_day_14_data.csv,1,300,122.0,Training at home,,,,,,,,,,,,,
10,14,3056,B,87.76087287428271,62.41416282837008,4.388043643714136,0.980399377107823,B,549.14691700003,Correct,sub_010_day_14_data.csv,1,300,122.0,Training at home,,,,,,,,,,,,,
10,14,3057,B,72.38697002572098,40.54563231980194,3.619348501286049,0.6368893031552132,B,417.1081249999702,Correct,sub_010_day_14_data.csv,1,300,122.0,Training at home,,,,,,,,,,,,,
10,14,3058,A,44.62468261462504,52.304701235342264,2.231234130731252,0.8216003257458011,A,646.6057920000026,Correct,sub_010_day_14_data.csv,1,300,122.0,Training at home,,,,,,,,,,,,,
10,14,3059,A,43.63270959199628,65.7570809663264,2.181635479599814,1.0329098124266012,B,617.2825840000087,Incorrect,sub_010_day_14_data.csv,0,300,122.0,Training at home,,,,,,,,,,,,,
10,14,3060,B,44.01265302221146,21.71298878248596,2.2006326511105727,0.3410668302326774,B,457.8568750000045,Correct,sub_010_day_14_data.csv,1,300,122.0,Training at home,,,,,,,,,,,,,
10,14,3061,A,57.54600711331311,72.04234472927253,2.8773003556656556,1.1316385047443296,A,430.31379199999265,Correct,sub_010_day_14_data.csv,1,300,122.0,Training at home,,,,,,,,,,,,,
10,14,3062,A,13.869405234152616,42.12004945917259,0.6934702617076308,0.6616201897488767,A,501.0801669999978,Correct,sub_010_day_14_data.csv,1,300,122.0,Training at home,,,,,,,,,,,,,
10,14,3063,B,52.903837075459435,44.000658588418105,2.6451918537729715,0.6911607288724347,B,513.0295419999698,Correct,sub_010_day_14_data.csv,1,300,122.0,Training at home,,,,,,,,,,,,,
10,14,3064,A,49.0992791600886,75.78911888613207,2.45496395800443,1.1904926955735795,A,500.3861250000341,Correct,sub_010_day_14_data.csv,1,300,122.0,Training at home,,,,,,,,,,,,,
10,14,3065,A,15.271954222780533,37.94728962424661,0.7635977111390266,0.5960746315358867,A,450.6524999999897,Correct,sub_010_day_14_data.csv,1,300,122.0,Training at home,,,,,,,,,,,,,
10,14,3066,A,21.577315856634172,34.90276504943105,1.0788657928317087,0.548251351346316,A,806.0507919999509,Correct,sub_010_day_14_data.csv,1,300,122.0,Training at home,,,,,,,,,,,,,
10,14,3067,B,80.38123265677719,55.05595653046412,4.019061632838859,0.8648169428623255,B,725.3213330000108,Correct,sub_010_day_14_data.csv,1,300,122.0,Training at home,,,,,,,,,,,,,
10,14,3068,B,32.249774650578026,18.90243747661985,1.6124887325289012,0.2969187935574465,B,698.5147080000047,Correct,sub_010_day_14_data.csv,1,300,122.0,Training at home,,,,,,,,,,,,,
10,14,3069,A,58.15383397589809,73.40844587137781,2.9076916987949044,1.1530971713048226,A,618.0470840000112,Correct,sub_010_day_14_data.csv,1,300,122.0,Training at home,,,,,,,,,,,,,
10,14,3070,A,30.62081054253713,52.85010961621653,1.5310405271268563,0.8301675805586056,A,544.1143329999818,Correct,sub_010_day_14_data.csv,1,300,122.0,Training at home,,,,,,,,,,,,,
10,14,3071,B,56.39905085955024,42.54556648182142,2.819952542977512,0.6683041955105316,B,1035.2042090000282,Correct,sub_010_day_14_data.csv,1,300,122.0,Training at home,,,,,,,,,,,,,
10,14,3072,B,34.5224703432535,21.65397393218448,1.7261235171626752,0.3401398271318782,B,570.0768749999838,Correct,sub_010_day_14_data.csv,1,300,122.0,Training at home,,,,,,,,,,,,,
10,14,3073,A,41.63842609720465,56.34873746530145,2.0819213048602325,0.8851238983002548,A,1104.6139580000158,Correct,sub_010_day_14_data.csv,1,300,122.0,Training at home,,,,,,,,,,,,,
10,14,3074,A,21.165368523181176,51.18131085711171,1.0582684261590587,0.8039541509489883,A,446.98770799999465,Correct,sub_010_day_14_data.csv,1,300,122.0,Training at home,,,,,,,,,,,,,
10,14,3075,B,33.584573460868015,16.385085269252322,1.6792286730434005,0.2573763175516271,B,676.7448329999866,Correct,sub_010_day_14_data.csv,1,300,123.0,Training at home,,,,,,,,,,,,,
10,14,3076,B,48.41624931293583,36.772864737384914,2.4208124656467915,0.577626808552098,B,641.1926249999738,Correct,sub_010_day_14_data.csv,1,300,123.0,Training at home,,,,,,,,,,,,,
10,14,3077,A,32.95737757452534,51.351964938656224,1.647868878726267,0.8066347789934151,A,492.5883750000253,Correct,sub_010_day_14_data.csv,1,300,123.0,Training at home,,,,,,,,,,,,,
10,14,3078,B,38.99757331016703,16.159023693498284,1.949878665508351,0.253825350623388,B,490.307208000047,Correct,sub_010_day_14_data.csv,1,300,123.0,Training at home,,,,,,,,,,,,,
10,14,3079,B,36.83264498766438,14.789651115857191,1.841632249383219,0.2323152964736652,B,442.8332499999783,Correct,sub_010_day_14_data.csv,1,300,123.0,Training at home,,,,,,,,,,,,,
10,14,3080,A,21.992488356372952,50.419827983522,1.0996244178186476,0.7919928059414688,A,462.9796250000026,Correct,sub_010_day_14_data.csv,1,300,123.0,Training at home,,,,,,,,,,,,,
10,14,3081,A,55.10578866671217,79.5798047979947,2.7552894333356086,1.2500366506374496,A,686.2311659999705,Correct,sub_010_day_14_data.csv,1,300,123.0,Training at home,,,,,,,,,,,,,
10,14,3082,B,72.8163695050832,55.447042209438855,3.64081847525416,0.8709601023422814,B,1332.3220409999976,Correct,sub_010_day_14_data.csv,1,300,123.0,Training at home,,,,,,,,,,,,,
10,14,3083,A,18.26648167182869,47.41148420500673,0.9133240835914342,0.7447378523711883,A,541.4176249999514,Correct,sub_010_day_14_data.csv,1,300,123.0,Training at home,,,,,,,,,,,,,
10,14,3084,B,71.7579776670994,43.54480608364016,3.5878988833549696,0.6840002144717804,B,554.8816670000178,Correct,sub_010_day_14_data.csv,1,300,123.0,Training at home,,,,,,,,,,,,,
10,14,3085,A,14.920476255401644,41.418290199501115,0.7460238127700822,0.6505969810750141,A,605.8174589999794,Correct,sub_010_day_14_data.csv,1,300,123.0,Training at home,,,,,,,,,,,,,
10,14,3086,A,42.943103671424154,57.93505767627539,2.1471551835712077,0.9100417579054386,A,803.7071670000273,Correct,sub_010_day_14_data.csv,1,300,123.0,Training at home,,,,,,,,,,,,,
10,14,3087,B,49.66511231708894,37.814155499302295,2.4832556158544468,0.5939833655915508,B,603.5872919999861,Correct,sub_010_day_14_data.csv,1,300,123.0,Training at home,,,,,,,,,,,,,
10,14,3088,A,13.390955654925747,35.5888479925426,0.6695477827462873,0.5590283170154784,A,586.1103749999756,Correct,sub_010_day_14_data.csv,1,300,123.0,Training at home,,,,,,,,,,,,,
10,14,3089,B,82.4038975482023,60.65423497939036,4.120194877410115,0.9527544951018092,B,757.3946250000176,Correct,sub_010_day_14_data.csv,1,300,123.0,Training at home,,,,,,,,,,,,,
10,14,3090,B,49.923686704765394,40.50742813712369,2.49618433523827,0.6362891932570214,B,634.7669999999539,Correct,sub_010_day_14_data.csv,1,300,123.0,Training at home,,,,,,,,,,,,,
10,14,3091,B,53.94457545318748,45.390279970225734,2.697228772659374,0.7129888504942254,B,445.15195799999674,Correct,sub_010_day_14_data.csv,1,300,123.0,Training at home,,,,,,,,,,,,,
10,14,3092,A,37.73332491427493,51.34231736360597,1.8866662457137464,0.8064832352389009,A,833.570624999993,Correct,sub_010_day_14_data.csv,1,300,123.0,Training at home,,,,,,,,,,,,,
10,14,3093,B,57.778938557860954,31.72713128019211,2.8889469278930475,0.4983686127466523,B,446.0035420000281,Correct,sub_010_day_14_data.csv,1,300,123.0,Training at home,,,,,,,,,,,,,
10,14,3094,A,19.400138305213243,37.39036902715663,0.9700069152606622,0.5873265432536331,A,513.7857500000109,Correct,sub_010_day_14_data.csv,1,300,123.0,Training at home,,,,,,,,,,,,,
10,14,3095,B,75.5509647113953,56.550527149583154,3.777548235569765,0.8882936032488029,B,1386.407040999984,Correct,sub_010_day_14_data.csv,1,300,123.0,Training at home,,,,,,,,,,,,,
10,14,3096,A,39.500704367888275,57.36683034588281,1.9750352183944135,0.9011160638717872,A,507.3476669999763,Correct,sub_010_day_14_data.csv,1,300,123.0,Training at home,,,,,,,,,,,,,
10,14,3097,A,22.156043770242267,44.86607809848983,1.1078021885121132,0.7047547067480078,A,525.9442500000091,Correct,sub_010_day_14_data.csv,1,300,123.0,Training at home,,,,,,,,,,,,,
10,14,3098,A,26.110784374346192,41.577744435700424,1.3055392187173096,0.6531016823601518,A,775.5754579999916,Correct,sub_010_day_14_data.csv,1,300,123.0,Training at home,,,,,,,,,,,,,
10,14,3099,A,56.80507725708199,80.04821547191759,2.8402538628540994,1.2573944282977454,A,745.8562080000206,Correct,sub_010_day_14_data.csv,1,300,123.0,Training at home,,,,,,,,,,,,,
10,14,3100,B,63.839809147720544,32.31634718642725,3.191990457386027,0.5076239945586851,B,749.9927499999899,Correct,sub_010_day_14_data.csv,1,300,124.0,Training at home,,,,,,,,,,,,,
10,14,3101,A,14.818077736761571,33.69478214295202,0.7409038868380787,0.5292764002230331,A,509.28183399997806,Correct,sub_010_day_14_data.csv,1,300,124.0,Training at home,,,,,,,,,,,,,
10,14,3102,A,52.88026862205771,71.24380343390017,2.6440134311028856,1.1190950474086805,A,664.3990409999674,Correct,sub_010_day_14_data.csv,1,300,124.0,Training at home,,,,,,,,,,,,,
10,14,3103,A,46.38991740038098,66.71668347703952,2.3194958700190487,1.0479832134167144,A,527.4745000000394,Correct,sub_010_day_14_data.csv,1,300,124.0,Training at home,,,,,,,,,,,,,
10,14,3104,A,30.61680692683771,40.75840556909371,1.5308403463418856,0.6402315375394906,A,782.6220000000035,Correct,sub_010_day_14_data.csv,1,300,124.0,Training at home,,,,,,,,,,,,,
10,14,3105,A,27.303357804232995,52.8525622839736,1.3651678902116495,0.8302061069736422,A,452.3263749999842,Correct,sub_010_day_14_data.csv,1,300,124.0,Training at home,,,,,,,,,,,,,
10,14,3106,B,66.11772992914992,51.63314404919154,3.3058864964574957,0.8110515301334185,A,684.3745830000216,Incorrect,sub_010_day_14_data.csv,0,300,124.0,Training at home,,,,,,,,,,,,,
10,14,3107,A,31.20891208469409,44.10963356047681,1.5604456042347044,0.6928725037306587,A,738.8742089999596,Correct,sub_010_day_14_data.csv,1,300,124.0,Training at home,,,,,,,,,,,,,
10,14,3108,B,48.74067779691172,25.79580138337405,2.4370338898455857,0.4051995005973466,B,498.50624999999127,Correct,sub_010_day_14_data.csv,1,300,124.0,Training at home,,,,,,,,,,,,,
10,14,3109,A,41.76314020517669,49.28912419194923,2.0881570102588345,0.774231752316513,B,885.6618329999719,Incorrect,sub_010_day_14_data.csv,0,300,124.0,Training at home,,,,,,,,,,,,,
10,14,3110,A,49.108282233056755,60.388574359018335,2.4554141116528374,0.9485815078352648,A,646.0951660000092,Correct,sub_010_day_14_data.csv,1,300,124.0,Training at home,,,,,,,,,,,,,
10,14,3111,A,19.23436030470758,49.87508724815605,0.9617180152353788,0.783436038479785,A,535.6988750000937,Correct,sub_010_day_14_data.csv,1,300,124.0,Training at home,,,,,,,,,,,,,
10,14,3112,A,38.45681500128845,69.99140406173262,1.9228407500644225,1.09942240407387,A,481.75895800000035,Correct,sub_010_day_14_data.csv,1,300,124.0,Training at home,,,,,,,,,,,,,
10,14,3113,B,69.01788940957329,47.86791231395801,3.4508944704786644,0.7519074083410544,B,929.9086669999496,Correct,sub_010_day_14_data.csv,1,300,124.0,Training at home,,,,,,,,,,,,,
10,14,3114,A,55.33617730388894,77.8526028741864,2.766808865194447,1.222905826261938,A,970.1244579999866,Correct,sub_010_day_14_data.csv,1,300,124.0,Training at home,,,,,,,,,,,,,
10,14,3115,A,53.33744602070798,75.8710988498289,2.666872301035399,1.1917804338320372,A,770.0384169999097,Correct,sub_010_day_14_data.csv,1,300,124.0,Training at home,,,,,,,,,,,,,
10,14,3116,B,73.92561351368309,52.11505276449226,3.696280675684154,0.8186213345318666,B,603.6712499999339,Correct,sub_010_day_14_data.csv,1,300,124.0,Training at home,,,,,,,,,,,,,
10,14,3117,A,17.109360555952698,42.86501151593407,0.8554680277976349,0.6733220263725018,A,438.1188330000896,Correct,sub_010_day_14_data.csv,1,300,124.0,Training at home,,,,,,,,,,,,,
10,14,3118,A,65.3418603525942,86.34344934052403,3.26709301762971,1.3562797306689638,A,622.7534160000232,Correct,sub_010_day_14_data.csv,1,300,124.0,Training at home,,,,,,,,,,,,,
10,14,3119,A,17.217943362232212,33.01372588825349,0.8608971681116105,0.5185783935908217,A,732.4520419999772,Correct,sub_010_day_14_data.csv,1,300,124.0,Training at home,,,,,,,,,,,,,
10,14,3120,B,70.4661405972844,48.160124499854874,3.5233070298642195,0.7564974666235693,B,583.8055000000395,Correct,sub_010_day_14_data.csv,1,300,124.0,Training at home,,,,,,,,,,,,,
10,14,3121,A,46.02657051403216,66.18640109645533,2.301328525701608,1.0396535572608576,A,633.2428749999508,Correct,sub_010_day_14_data.csv,1,300,124.0,Training at home,,,,,,,,,,,,,
10,14,3122,A,38.755016391781254,70.22311530002561,1.9377508195890627,1.1030621156937472,A,477.6891669999941,Correct,sub_010_day_14_data.csv,1,300,124.0,Training at home,,,,,,,,,,,,,
10,14,3123,A,19.881455942595284,39.30227364705829,0.9940727971297642,0.6173586707948703,A,578.093625000065,Correct,sub_010_day_14_data.csv,1,300,124.0,Training at home,,,,,,,,,,,,,
10,14,3124,A,29.267530085033396,59.41401084113218,1.4633765042516698,0.9332730998940258,A,478.0491250000978,Correct,sub_010_day_14_data.csv,1,300,124.0,Training at home,,,,,,,,,,,,,
10,14,3125,B,42.71454153509644,16.021069098296202,2.1357270767548218,0.251658364909309,B,571.0417090000419,Correct,sub_010_day_14_data.csv,1,300,125.0,Training at home,,,,,,,,,,,,,
10,14,3126,B,33.91079424772116,19.80986643987105,1.6955397123860578,0.3111726543804694,B,574.8619999999391,Correct,sub_010_day_14_data.csv,1,300,125.0,Training at home,,,,,,,,,,,,,
10,14,3127,A,20.56643182457267,33.220795439455905,1.0283215912286336,0.5218310344950199,A,613.0749590000732,Correct,sub_010_day_14_data.csv,1,300,125.0,Training at home,,,,,,,,,,,,,
10,14,3128,B,73.74955661027157,42.645465881322,3.6874778305135782,0.6698734116083768,B,896.1207080000122,Correct,sub_010_day_14_data.csv,1,300,125.0,Training at home,,,,,,,,,,,,,
10,14,3129,A,48.68665724847289,65.92630443899486,2.4343328624236444,1.0355679685193522,A,694.0031249999947,Correct,sub_010_day_14_data.csv,1,300,125.0,Training at home,,,,,,,,,,,,,
10,14,3130,A,39.02068190346024,64.79490737956623,1.9510340951730116,1.0177960250683815,A,710.3725420000728,Correct,sub_010_day_14_data.csv,1,300,125.0,Training at home,,,,,,,,,,,,,
10,14,3131,B,70.03576770127277,45.09611573490562,3.501788385063639,0.7083681294910729,B,806.350875000021,Correct,sub_010_day_14_data.csv,1,300,125.0,Training at home,,,,,,,,,,,,,
10,14,3132,B,80.39264549849713,52.38578380887631,4.019632274924857,0.8228739678325447,B,848.5939170000165,Correct,sub_010_day_14_data.csv,1,300,125.0,Training at home,,,,,,,,,,,,,
10,14,3133,B,76.76275598828656,57.22352102517371,3.838137799414328,0.898864966326134,B,753.6440830000402,Correct,sub_010_day_14_data.csv,1,300,125.0,Training at home,,,,,,,,,,,,,
10,14,3134,A,29.635282260472923,47.75698477261627,1.481764113023646,0.7501649625962543,A,545.06733300002,Correct,sub_010_day_14_data.csv,1,300,125.0,Training at home,,,,,,,,,,,,,
10,14,3135,B,62.52492998804483,44.24447858043729,3.126246499402242,0.6949906443510637,B,535.0427500000023,Correct,sub_010_day_14_data.csv,1,300,125.0,Training at home,,,,,,,,,,,,,
10,14,3136,A,39.88130948526,54.990265520657054,1.994065474263,0.8637850708932415,A,465.24554200004786,Correct,sub_010_day_14_data.csv,1,300,125.0,Training at home,,,,,,,,,,,,,
10,14,3137,B,62.32945453353896,33.330358659887004,3.116472726676948,0.5235520495370698,B,745.2660000000151,Correct,sub_010_day_14_data.csv,1,300,125.0,Training at home,,,,,,,,,,,,,
10,14,3138,B,80.81789011850313,54.46751284067777,4.040894505925156,0.8555736909979051,B,1051.9282090000388,Correct,sub_010_day_14_data.csv,1,300,125.0,Training at home,,,,,,,,,,,,,
10,14,3139,A,64.43076292491033,75.6536711592109,3.221538146245516,1.1883650876543748,A,581.0932089999596,Correct,sub_010_day_14_data.csv,1,300,125.0,Training at home,,,,,,,,,,,,,
10,14,3140,A,40.22357354340417,55.96983405032924,2.0111786771702085,0.8791720973757708,B,834.7414580000532,Incorrect,sub_010_day_14_data.csv,0,300,125.0,Training at home,,,,,,,,,,,,,
10,14,3141,A,32.34902496185665,40.95530516765524,1.6174512480928325,0.6433244292011691,A,482.8908329999422,Correct,sub_010_day_14_data.csv,1,300,125.0,Training at home,,,,,,,,,,,,,
10,14,3142,B,80.83527921990442,61.13972577767755,4.041763960995221,0.9603805667282316,B,564.4958329999099,Correct,sub_010_day_14_data.csv,1,300,125.0,Training at home,,,,,,,,,,,,,
10,14,3143,A,56.632202880614486,85.03903059643437,2.8316101440307246,1.3357899689507795,A,564.6342090000189,Correct,sub_010_day_14_data.csv,1,300,125.0,Training at home,,,,,,,,,,,,,
10,14,3144,A,45.725056702501696,72.0059297717864,2.286252835125085,1.1310664999297335,A,536.8069170000354,Correct,sub_010_day_14_data.csv,1,300,125.0,Training at home,,,,,,,,,,,,,
10,14,3145,B,74.07537182444561,60.827620691148056,3.70376859122228,0.9554780314932864,B,951.6924160000144,Correct,sub_010_day_14_data.csv,1,300,125.0,Training at home,,,,,,,,,,,,,
10,14,3146,A,29.709534112934566,40.79266788686697,1.4854767056467284,0.6407697287685478,A,521.5790409999954,Correct,sub_010_day_14_data.csv,1,300,125.0,Training at home,,,,,,,,,,,,,
10,14,3147,A,23.954979013540378,53.80992680649784,1.197748950677019,0.8452443537274904,A,459.45966699991914,Correct,sub_010_day_14_data.csv,1,300,125.0,Training at home,,,,,,,,,,,,,
10,14,3148,B,51.90035934197168,20.67059584575764,2.595017967098584,0.3246929602717795,B,907.1645840000429,Correct,sub_010_day_14_data.csv,1,300,125.0,Training at home,,,,,,,,,,,,,
10,14,3149,A,22.7260480403214,45.70924489501595,1.13630240201607,0.7179991398165941,A,847.3935000000665,Correct,sub_010_day_14_data.csv,1,300,125.0,Training at home,,,,,,,,,,,,,
10,14,3150,B,45.16925785714539,31.023498220927593,2.2584628928572696,0.4873159704976108,B,699.9020000000655,Correct,sub_010_day_14_data.csv,1,300,126.0,Training at home,,,,,,,,,,,,,
10,14,3151,B,68.97514126826215,59.96018360589652,3.4487570634131077,0.9418523616208984,B,794.2490000000362,Correct,sub_010_day_14_data.csv,1,300,126.0,Training at home,,,,,,,,,,,,,
10,14,3152,A,58.43883743277827,76.05107415449442,2.9219418716389134,1.1946074793068613,A,882.63612500009,Correct,sub_010_day_14_data.csv,1,300,126.0,Training at home,,,,,,,,,,,,,
10,14,3153,A,48.36765079548636,57.67395235269627,2.418382539774318,0.9059403250735918,B,1134.5433750000211,Incorrect,sub_010_day_14_data.csv,0,300,126.0,Training at home,,,,,,,,,,,,,
10,14,3154,B,59.70548899730947,27.701381451637474,2.9852744498654737,0.4351322823137642,B,442.37245800002256,Correct,sub_010_day_14_data.csv,1,300,126.0,Training at home,,,,,,,,,,,,,
10,14,3155,A,47.970047093048365,61.41953484827354,2.3985023546524182,0.9647757973311922,A,540.5756250000877,Correct,sub_010_day_14_data.csv,1,300,126.0,Training at home,,,,,,,,,,,,,
10,14,3156,A,26.658383510214165,51.778187951827846,1.3329191755107082,0.8133298744282697,A,565.6229170000415,Correct,sub_010_day_14_data.csv,1,300,126.0,Training at home,,,,,,,,,,,,,
10,14,3157,B,77.07927458761037,50.307838819168914,3.8539637293805185,0.7902336842614024,B,709.1607500000237,Correct,sub_010_day_14_data.csv,1,300,126.0,Training at home,,,,,,,,,,,,,
10,14,3158,A,38.05996761647287,65.51309378689135,1.9029983808236437,1.0290772707741849,A,690.0920419999466,Correct,sub_010_day_14_data.csv,1,300,126.0,Training at home,,,,,,,,,,,,,
10,14,3159,A,34.923754054768246,52.25754240255966,1.7461877027384125,0.8208595565326926,A,569.3024169999035,Correct,sub_010_day_14_data.csv,1,300,126.0,Training at home,,,,,,,,,,,,,
10,14,3160,A,29.915285995663034,58.89115928955948,1.4957642997831515,0.9250601669273318,A,590.2567499999805,Correct,sub_010_day_14_data.csv,1,300,126.0,Training at home,,,,,,,,,,,,,
10,14,3161,A,26.200658084287102,56.40839856088183,1.310032904214355,0.886061052598157,A,662.0412500000157,Correct,sub_010_day_14_data.csv,1,300,126.0,Training at home,,,,,,,,,,,,,
10,14,3162,B,34.373529171220234,12.427483111232153,1.7186764585610117,0.1952104482242908,B,530.1368330000287,Correct,sub_010_day_14_data.csv,1,300,126.0,Training at home,,,,,,,,,,,,,
10,14,3163,B,70.37923032793182,46.97411284137717,3.5189615163965913,0.7378676390568425,B,635.5990409999777,Correct,sub_010_day_14_data.csv,1,300,126.0,Training at home,,,,,,,,,,,,,
10,14,3164,B,74.41363925918749,49.06037772616517,3.720681962959375,0.770638611234304,B,576.1740829999553,Correct,sub_010_day_14_data.csv,1,300,126.0,Training at home,,,,,,,,,,,,,
10,14,3165,B,57.1920057175688,35.27407544315906,2.8596002858784395,0.5540838813720033,B,672.0132919999742,Correct,sub_010_day_14_data.csv,1,300,126.0,Training at home,,,,,,,,,,,,,
10,14,3166,A,60.60193735154752,87.95425284010946,3.030096867577376,1.3815821728723354,A,543.4180419999848,Correct,sub_010_day_14_data.csv,1,300,126.0,Training at home,,,,,,,,,,,,,
10,14,3167,A,20.768737344361934,37.42385406450107,1.0384368672180968,0.5878525249902654,A,554.1531250000844,Correct,sub_010_day_14_data.csv,1,300,126.0,Training at home,,,,,,,,,,,,,
10,14,3168,A,49.02859416253675,78.30639590547146,2.4514297081268377,1.230033990528615,A,504.5249169999124,Correct,sub_010_day_14_data.csv,1,300,126.0,Training at home,,,,,,,,,,,,,
10,14,3169,B,43.513941167303585,33.878987432475036,2.1756970583651793,0.5321698901446225,B,781.918166999958,Correct,sub_010_day_14_data.csv,1,300,126.0,Training at home,,,,,,,,,,,,,
10,14,3170,B,57.91710475013899,39.80707579436327,2.8958552375069497,0.6252880843823186,B,699.7504170000184,Correct,sub_010_day_14_data.csv,1,300,126.0,Training at home,,,,,,,,,,,,,
10,14,3171,B,62.180033522697144,51.58276917151518,3.1090016761348576,0.8102602434052509,B,517.6994590000277,Correct,sub_010_day_14_data.csv,1,300,126.0,Training at home,,,,,,,,,,,,,
10,14,3172,B,55.79630192245073,28.289639504901597,2.7898150961225365,0.4443726182065122,B,559.9842499999568,Correct,sub_010_day_14_data.csv,1,300,126.0,Training at home,,,,,,,,,,,,,
10,14,3173,B,38.61051942844023,18.607384472597836,1.930525971422011,0.2922841118081707,B,694.7661670000116,Correct,sub_010_day_14_data.csv,1,300,126.0,Training at home,,,,,,,,,,,,,
10,14,3174,B,83.41317513362756,60.30953846613066,4.1706587566813775,0.9473400149329356,B,772.265999999945,Correct,sub_010_day_14_data.csv,1,300,126.0,Training at home,,,,,,,,,,,,,
10,14,3175,B,77.81320173121742,62.449450054699504,3.890660086560871,0.9809536675628334,B,1223.10241699995,Correct,sub_010_day_14_data.csv,1,300,127.0,Training at home,,,,,,,,,,,,,
10,14,3176,B,64.01772310833105,50.19019120012152,3.2008861554165526,0.7883856797828441,B,537.1753750000607,Correct,sub_010_day_14_data.csv,1,300,127.0,Training at home,,,,,,,,,,,,,
10,14,3177,A,30.32041924653553,52.63815926160356,1.5160209623267764,0.8268382721737164,A,727.2562499999822,Correct,sub_010_day_14_data.csv,1,300,127.0,Training at home,,,,,,,,,,,,,
10,14,3178,A,57.54727881408384,84.24626636087294,2.877363940704192,1.3233372574584368,A,1720.929749999982,Correct,sub_010_day_14_data.csv,1,300,127.0,Training at home,,,,,,,,,,,,,
10,14,3179,A,26.069346811201775,53.70802348111171,1.3034673405600887,0.8436436600354432,A,610.4300000000649,Correct,sub_010_day_14_data.csv,1,300,127.0,Training at home,,,,,,,,,,,,,
10,14,3180,B,31.60233813503289,17.05001030448723,1.5801169067516443,0.2678209355810367,B,581.0330840000688,Correct,sub_010_day_14_data.csv,1,300,127.0,Training at home,,,,,,,,,,,,,
10,14,3181,B,40.7796249891437,27.776870676955305,2.0389812494571853,0.4363180642921827,B,826.1251669999865,Correct,sub_010_day_14_data.csv,1,300,127.0,Training at home,,,,,,,,,,,,,
10,14,3182,B,52.669021422454854,22.878663372580867,2.633451071122743,0.3593772038762696,B,440.9732500000701,Correct,sub_010_day_14_data.csv,1,300,127.0,Training at home,,,,,,,,,,,,,
10,14,3183,B,55.50841395826137,35.72217691160495,2.7754206979130687,0.5611226427786651,B,580.8257500000309,Correct,sub_010_day_14_data.csv,1,300,127.0,Training at home,,,,,,,,,,,,,
10,14,3184,A,30.690326420389944,57.09558442790937,1.5345163210194972,0.8968553429556794,A,562.3920419999422,Correct,sub_010_day_14_data.csv,1,300,127.0,Training at home,,,,,,,,,,,,,
10,14,3185,A,52.938272631256744,63.09121540117927,2.646913631562837,0.99103449405198,A,886.9257909999533,Correct,sub_010_day_14_data.csv,1,300,127.0,Training at home,,,,,,,,,,,,,
10,14,3186,B,41.96664697447784,14.96161391240203,2.098332348723892,0.2350164817652452,B,866.4120830000002,Correct,sub_010_day_14_data.csv,1,300,127.0,Training at home,,,,,,,,,,,,,
10,14,3187,A,63.65829766948114,75.25036832805566,3.1829148834740573,1.1820300215967283,A,784.9157919999925,Correct,sub_010_day_14_data.csv,1,300,127.0,Training at home,,,,,,,,,,,,,
10,14,3188,A,47.340914360503845,68.61985978725751,2.3670457180251923,1.0778782369900493,A,690.4538329999923,Correct,sub_010_day_14_data.csv,1,300,127.0,Training at home,,,,,,,,,,,,,
10,14,3189,A,67.828739431982,89.43460328632318,3.3914369715991,1.4048354633051523,A,770.6749999999829,Correct,sub_010_day_14_data.csv,1,300,127.0,Training at home,,,,,,,,,,,,,
10,14,3190,B,62.50892153855231,49.88663923870626,3.125446076927615,0.7836174967230194,B,1525.5975829999215,Correct,sub_010_day_14_data.csv,1,300,127.0,Training at home,,,,,,,,,,,,,
10,14,3191,A,31.86892959585373,53.611403413860366,1.5934464797926864,0.8421259555681123,A,553.886250000005,Correct,sub_010_day_14_data.csv,1,300,127.0,Training at home,,,,,,,,,,,,,
10,14,3192,B,68.90518445470323,52.30655563939413,3.4452592227351615,0.8216294546565319,B,775.2438339999799,Correct,sub_010_day_14_data.csv,1,300,127.0,Training at home,,,,,,,,,,,,,
10,14,3193,B,61.64721375914133,43.96662775979299,3.082360687957067,0.6906261738664136,B,505.5464580000262,Correct,sub_010_day_14_data.csv,1,300,127.0,Training at home,,,,,,,,,,,,,
10,14,3194,B,79.04892306719215,62.56829325175805,3.952446153359608,0.9828204521368746,B,599.6158749999267,Correct,sub_010_day_14_data.csv,1,300,127.0,Training at home,,,,,,,,,,,,,
10,14,3195,A,39.62222882600941,61.33335685975375,1.9811114413004705,0.9634221166530176,A,612.3874160000469,Correct,sub_010_day_14_data.csv,1,300,127.0,Training at home,,,,,,,,,,,,,
10,14,3196,B,30.806052236402817,14.859991828207855,1.5403026118201408,0.2334202057995107,B,732.1679159999803,Correct,sub_010_day_14_data.csv,1,300,127.0,Training at home,,,,,,,,,,,,,
10,14,3197,B,74.42194479540038,41.97730286030112,3.721097239770019,0.659377931417179,B,874.9226249999538,Correct,sub_010_day_14_data.csv,1,300,127.0,Training at home,,,,,,,,,,,,,
10,14,3198,B,48.93720696098208,27.19902760175809,2.446860348049104,0.4272413264923461,B,560.1642909999782,Correct,sub_010_day_14_data.csv,1,300,127.0,Training at home,,,,,,,,,,,,,
10,14,3199,A,37.9984103647776,64.66839357480634,1.89992051823888,1.015808750870325,A,470.9152919999724,Correct,sub_010_day_14_data.csv,1,300,127.0,Training at home,,,,,,,,,,,,,
10,14,3200,B,64.48931336583802,55.2796578571393,3.224465668291901,0.8683308350847304,B,926.5253749999828,Correct,sub_010_day_14_data.csv,1,300,128.0,Training at home,,,,,,,,,,,,,
10,14,3201,A,46.776739931306096,69.94337166189244,2.338836996565305,1.0986679129015091,A,777.7840830000287,Correct,sub_010_day_14_data.csv,1,300,128.0,Training at home,,,,,,,,,,,,,
10,14,3202,B,52.98518062574186,29.682981977268984,2.649259031287093,0.4662591905821323,B,688.8914590000468,Correct,sub_010_day_14_data.csv,1,300,128.0,Training at home,,,,,,,,,,,,,
10,14,3203,A,34.234921754311245,54.694478704093314,1.711746087715562,0.8591388624435148,A,612.8567920000023,Correct,sub_010_day_14_data.csv,1,300,128.0,Training at home,,,,,,,,,,,,,
10,14,3204,B,59.52006381998432,32.30456261512427,2.976003190999216,0.5074388829455294,B,517.8914170001008,Correct,sub_010_day_14_data.csv,1,300,128.0,Training at home,,,,,,,,,,,,,
10,14,3205,A,40.24771415389664,58.517058908390645,2.012385707694832,0.919183811881406,A,503.3123749999504,Correct,sub_010_day_14_data.csv,1,300,128.0,Training at home,,,,,,,,,,,,,
10,14,3206,B,70.96755084060332,49.72094958996941,3.5483775420301664,0.7810148498067816,B,917.713375000062,Correct,sub_010_day_14_data.csv,1,300,128.0,Training at home,,,,,,,,,,,,,
10,14,3207,B,61.61519552859943,34.20918886998064,3.0807597764299715,0.5373566821959845,B,908.8138749999644,Correct,sub_010_day_14_data.csv,1,300,128.0,Training at home,,,,,,,,,,,,,
10,14,3208,B,62.495921868478064,49.13558654579326,3.1247960934239027,0.7718199886104478,B,640.6809160000648,Correct,sub_010_day_14_data.csv,1,300,128.0,Training at home,,,,,,,,,,,,,
10,14,3209,A,49.78030938971759,69.7759593679104,2.4890154694858793,1.096038206737036,A,600.6742089999761,Correct,sub_010_day_14_data.csv,1,300,128.0,Training at home,,,,,,,,,,,,,
10,14,3210,B,84.19492635163968,57.0285770974309,4.209746317581984,0.8958027942698401,B,1253.703666999968,Correct,sub_010_day_14_data.csv,1,300,128.0,Training at home,,,,,,,,,,,,,
10,14,3211,B,70.6410416803926,51.08169717916031,3.5320520840196306,0.8023894229547424,B,803.543999999988,Correct,sub_010_day_14_data.csv,1,300,128.0,Training at home,,,,,,,,,,,,,
10,14,3212,B,78.98310339617164,66.09772772557224,3.9491551698085825,1.0382606792081808,B,599.9625000000606,Correct,sub_010_day_14_data.csv,1,300,128.0,Training at home,,,,,,,,,,,,,
10,14,3213,A,30.421092406729983,48.61253785902117,1.5210546203364992,0.7636039590512829,A,604.1892920000009,Correct,sub_010_day_14_data.csv,1,300,128.0,Training at home,,,,,,,,,,,,,
10,14,3214,B,31.85182858330461,18.53420516258253,1.5925914291652306,0.2911346138944765,B,512.8337920000376,Correct,sub_010_day_14_data.csv,1,300,128.0,Training at home,,,,,,,,,,,,,
10,14,3215,A,35.095243961870594,48.45200965416734,1.7547621980935295,0.7610823879059693,A,573.0561249999937,Correct,sub_010_day_14_data.csv,1,300,128.0,Training at home,,,,,,,,,,,,,
10,14,3216,B,70.9462494063177,61.124370742195715,3.547312470315885,0.9601393703949048,B,674.9555829999281,Correct,sub_010_day_14_data.csv,1,300,128.0,Training at home,,,,,,,,,,,,,
10,14,3217,B,81.18440373305468,50.8464960168498,4.059220186652734,0.7986948917365899,B,886.2634159999061,Correct,sub_010_day_14_data.csv,1,300,128.0,Training at home,,,,,,,,,,,,,
10,14,3218,A,67.10191097172111,81.01938250168348,3.3550955485860556,1.2726494843283511,A,836.0884999999598,Correct,sub_010_day_14_data.csv,1,300,128.0,Training at home,,,,,,,,,,,,,
10,14,3219,B,75.43078352467664,49.414281882401255,3.771539176233832,0.7761977247208349,B,741.3358329999937,Correct,sub_010_day_14_data.csv,1,300,128.0,Training at home,,,,,,,,,,,,,
10,14,3220,B,84.30942220242022,62.39871237779806,4.215471110121012,0.9801566819977644,B,647.369958000013,Correct,sub_010_day_14_data.csv,1,300,128.0,Training at home,,,,,,,,,,,,,
10,14,3221,B,81.47415446503804,64.86027859880645,4.073707723251903,1.018822873778988,B,760.985417000029,Correct,sub_010_day_14_data.csv,1,300,128.0,Training at home,,,,,,,,,,,,,
10,14,3222,B,30.31095522203508,15.099046715382734,1.515547761101754,0.2371752711862775,B,710.2859999999964,Correct,sub_010_day_14_data.csv,1,300,128.0,Training at home,,,,,,,,,,,,,
10,14,3223,B,52.00063512244852,32.232672886892644,2.600031756122426,0.5063096417351242,B,592.0267080000485,Correct,sub_010_day_14_data.csv,1,300,128.0,Training at home,,,,,,,,,,,,,
10,14,3224,A,48.9762114789866,55.96256947870151,2.44881057394933,0.8790579857514852,B,616.4416670000037,Incorrect,sub_010_day_14_data.csv,0,300,128.0,Training at home,,,,,,,,,,,,,
10,14,3225,A,32.874798007774444,49.591790270512725,1.6437399003887223,0.7789860199610429,A,632.4293749999015,Correct,sub_010_day_14_data.csv,1,300,129.0,Training at home,,,,,,,,,,,,,
10,14,3226,B,44.20866354075241,27.58739767638294,2.2104331770376207,0.4333418293589238,B,815.1275000000169,Correct,sub_010_day_14_data.csv,1,300,129.0,Training at home,,,,,,,,,,,,,
10,14,3227,B,67.66617319138417,48.12509734928145,3.383308659569209,0.7559472614289812,B,538.6197919999631,Correct,sub_010_day_14_data.csv,1,300,129.0,Training at home,,,,,,,,,,,,,
10,14,3228,B,80.09893996991843,61.722215870775315,4.004946998495922,0.9695302997145552,B,858.3718749999889,Correct,sub_010_day_14_data.csv,1,300,129.0,Training at home,,,,,,,,,,,,,
10,14,3229,A,25.02017452607364,50.59891087015349,1.251008726303682,0.7948058333465947,A,944.4164999999884,Correct,sub_010_day_14_data.csv,1,300,129.0,Training at home,,,,,,,,,,,,,
10,14,3230,A,59.85721285114843,68.17841556136736,2.992860642557422,1.0709440473049183,A,849.3093749999616,Correct,sub_010_day_14_data.csv,1,300,129.0,Training at home,,,,,,,,,,,,,
10,14,3231,B,65.24952187161854,54.95162124037927,3.262476093580927,0.8631780479581216,B,737.1646249999912,Correct,sub_010_day_14_data.csv,1,300,129.0,Training at home,,,,,,,,,,,,,
10,14,3232,A,28.12723448676816,52.80821637706089,1.406361724338408,0.8295095230967734,A,746.8288340000981,Correct,sub_010_day_14_data.csv,1,300,129.0,Training at home,,,,,,,,,,,,,
10,14,3233,A,50.97833607772539,69.10080699712357,2.5489168038862693,1.0854329380964478,A,636.6336670000692,Correct,sub_010_day_14_data.csv,1,300,129.0,Training at home,,,,,,,,,,,,,
10,14,3234,A,48.81569167782839,73.44646436582579,2.4407845838914195,1.1536943644191142,A,587.6095410000062,Correct,sub_010_day_14_data.csv,1,300,129.0,Training at home,,,,,,,,,,,,,
10,14,3235,B,59.10413836510268,48.52503733745813,2.9552069182551337,0.7622295040726443,B,727.7576669999917,Correct,sub_010_day_14_data.csv,1,300,129.0,Training at home,,,,,,,,,,,,,
10,14,3236,B,37.48788644704803,27.682545254982593,1.874394322352401,0.4348364040286014,B,674.8691660000077,Correct,sub_010_day_14_data.csv,1,300,129.0,Training at home,,,,,,,,,,,,,
10,14,3237,B,68.34856689475778,53.3160518192455,3.417428344737889,0.8374865835687719,B,674.2942500000026,Correct,sub_010_day_14_data.csv,1,300,129.0,Training at home,,,,,,,,,,,,,
10,14,3238,A,47.779540249919194,60.78387998371061,2.3889770124959595,0.9547909540675448,A,918.666499999972,Correct,sub_010_day_14_data.csv,1,300,129.0,Training at home,,,,,,,,,,,,,
10,14,3239,A,50.53237375092347,68.4657530640966,2.526618687546174,1.0754575342432935,A,733.2733330000565,Correct,sub_010_day_14_data.csv,1,300,129.0,Training at home,,,,,,,,,,,,,
10,14,3240,A,26.485373786191133,39.86683902483714,1.3242686893095563,0.6262268430113762,A,659.5256660000359,Correct,sub_010_day_14_data.csv,1,300,129.0,Training at home,,,,,,,,,,,,,
10,14,3241,B,49.35443011891562,19.1477537134722,2.467721505945781,0.3007722119949547,B,751.3648330000251,Correct,sub_010_day_14_data.csv,1,300,129.0,Training at home,,,,,,,,,,,,,
10,14,3242,A,46.83678428824966,72.28264722222048,2.3418392144124827,1.1354131674767525,A,511.1122499999965,Correct,sub_010_day_14_data.csv,1,300,129.0,Training at home,,,,,,,,,,,,,
10,14,3243,B,67.85528237522495,40.585540966226425,3.392764118761247,0.6375161867073227,B,563.6534589999656,Correct,sub_010_day_14_data.csv,1,300,129.0,Training at home,,,,,,,,,,,,,
10,14,3244,A,56.43606424202464,81.16483851407807,2.821803212101232,1.2749343020281478,A,488.74866700009534,Correct,sub_010_day_14_data.csv,1,300,129.0,Training at home,,,,,,,,,,,,,
10,14,3245,B,51.5023790006104,41.6807250738211,2.5751189500305203,0.6547192984410614,A,474.99837500004105,Incorrect,sub_010_day_14_data.csv,0,300,129.0,Training at home,,,,,,,,,,,,,
10,14,3246,B,85.19244759651922,62.88490442743415,4.259622379825961,0.9877937688546168,B,687.649792000002,Correct,sub_010_day_14_data.csv,1,300,129.0,Training at home,,,,,,,,,,,,,
10,14,3247,B,66.54727686440476,41.48612452712236,3.327363843220238,0.6516625202015947,B,542.8178749999688,Correct,sub_010_day_14_data.csv,1,300,129.0,Training at home,,,,,,,,,,,,,
10,14,3248,A,32.991916699715006,46.10949595850977,1.6495958349857502,0.7242862688199128,A,534.0699170000107,Correct,sub_010_day_14_data.csv,1,300,129.0,Training at home,,,,,,,,,,,,,
10,14,3249,B,62.168738810802445,33.713049522596464,3.1084369405401224,0.5295633435514897,B,964.2080000000988,Correct,sub_010_day_14_data.csv,1,300,129.0,Training at home,,,,,,,,,,,,,
10,14,3250,B,82.77942623744696,53.601722024370446,4.138971311872348,0.8419738806576221,B,498.09495900012735,Correct,sub_010_day_14_data.csv,1,300,130.0,Training at home,,,,,,,,,,,,,
10,14,3251,B,89.7716077725587,66.26342882813958,4.488580388627935,1.0408635060407672,B,677.8497500001777,Correct,sub_010_day_14_data.csv,1,300,130.0,Training at home,,,,,,,,,,,,,
10,14,3252,B,63.034251591234465,30.56251343936363,3.1517125795617233,0.4800748384817205,B,676.725499999975,Correct,sub_010_day_14_data.csv,1,300,130.0,Training at home,,,,,,,,,,,,,
10,14,3253,B,44.87538710857199,34.44402088885979,2.2437693554286,0.5410454149226764,B,471.0791669999708,Correct,sub_010_day_14_data.csv,1,300,130.0,Training at home,,,,,,,,,,,,,
10,14,3254,B,61.60276254829197,39.754239985718534,3.0801381274145982,0.6244581414408947,B,542.2206670000378,Correct,sub_010_day_14_data.csv,1,300,130.0,Training at home,,,,,,,,,,,,,
10,14,3255,B,78.87010717342265,53.50517008547955,3.943505358671133,0.8404572463480747,B,516.8597910001154,Correct,sub_010_day_14_data.csv,1,300,130.0,Training at home,,,,,,,,,,,,,
10,14,3256,B,64.91866809680484,32.88659218872516,3.2459334048402417,0.5165813821085122,B,423.91441599988866,Correct,sub_010_day_14_data.csv,1,300,130.0,Training at home,,,,,,,,,,,,,
10,14,3257,B,84.78432043494917,67.07611484377469,4.239216021747458,1.0536291481227391,B,554.4760000000224,Correct,sub_010_day_14_data.csv,1,300,130.0,Training at home,,,,,,,,,,,,,
10,14,3258,A,28.83696094568895,60.72926108104332,1.4418480472844477,0.9539330023507112,A,445.29529200008255,Correct,sub_010_day_14_data.csv,1,300,130.0,Training at home,,,,,,,,,,,,,
10,14,3259,B,74.88265454415907,62.56640442231261,3.7441327272079534,0.982790782473326,B,653.7855419999232,Correct,sub_010_day_14_data.csv,1,300,130.0,Training at home,,,,,,,,,,,,,
10,14,3260,A,44.34241403476469,53.64162189347687,2.217120701738234,0.8426006263359417,A,822.8387919998568,Correct,sub_010_day_14_data.csv,1,300,130.0,Training at home,,,,,,,,,,,,,
10,14,3261,A,46.25199379604124,55.57994964955793,2.3125996898020618,0.873047807529709,B,679.0067500000987,Incorrect,sub_010_day_14_data.csv,0,300,130.0,Training at home,,,,,,,,,,,,,
10,14,3262,B,56.31731864709814,25.188357777354,2.8158659323549067,0.3956577987466332,B,813.8415829998848,Correct,sub_010_day_14_data.csv,1,300,130.0,Training at home,,,,,,,,,,,,,
10,14,3263,A,21.03635214744807,35.77225285674297,1.0518176073724037,0.5619092338855011,A,489.1320420001648,Correct,sub_010_day_14_data.csv,1,300,130.0,Training at home,,,,,,,,,,,,,
10,14,3264,B,35.172557353732245,14.079831215201663,1.7586278676866125,0.221165471547309,B,574.5343750002121,Correct,sub_010_day_14_data.csv,1,300,130.0,Training at home,,,,,,,,,,,,,
10,14,3265,B,51.9514034347127,36.168143997966645,2.5975701717356348,0.568127877389949,B,954.3610000000626,Correct,sub_010_day_14_data.csv,1,300,130.0,Training at home,,,,,,,,,,,,,
10,14,3266,A,32.501390361664036,43.322415422958784,1.625069518083202,0.6805069101426624,B,750.9882500000913,Incorrect,sub_010_day_14_data.csv,0,300,130.0,Training at home,,,,,,,,,,,,,
10,14,3267,A,31.485670857869913,44.630939594242385,1.5742835428934956,0.7010611597604084,A,541.0414169998603,Correct,sub_010_day_14_data.csv,1,300,130.0,Training at home,,,,,,,,,,,,,
10,14,3268,B,72.27548549132395,57.67677368090536,3.613774274566197,0.905984642393467,B,561.8366659998628,Correct,sub_010_day_14_data.csv,1,300,130.0,Training at home,,,,,,,,,,,,,
10,14,3269,B,61.17273594153534,35.77603991209422,3.058636797076767,0.5619687208118521,B,619.4339170001513,Correct,sub_010_day_14_data.csv,1,300,130.0,Training at home,,,,,,,,,,,,,
10,14,3270,B,63.99003891843419,30.96510800590493,3.199501945921709,0.4863987791448271,B,655.5272919999879,Correct,sub_010_day_14_data.csv,1,300,130.0,Training at home,,,,,,,,,,,,,
10,14,3271,A,42.54685172031604,68.50208696045011,2.127342586015802,1.0760282657525964,A,588.2328329998927,Correct,sub_010_day_14_data.csv,1,300,130.0,Training at home,,,,,,,,,,,,,
10,14,3272,B,58.61770066890025,31.131341633664583,2.9308850334450125,0.4890099708635736,B,536.400040999979,Correct,sub_010_day_14_data.csv,1,300,130.0,Training at home,,,,,,,,,,,,,
10,14,3273,A,55.57398286949038,67.94561291041086,2.7786991434745185,1.0672871918150129,A,640.3832089999923,Correct,sub_010_day_14_data.csv,1,300,130.0,Training at home,,,,,,,,,,,,,
10,14,3274,A,31.52580800569839,44.94742753506355,1.5762904002849196,0.706032540709576,A,495.46687499992,Correct,sub_010_day_14_data.csv,1,300,130.0,Training at home,,,,,,,,,,,,,
10,14,3275,A,52.29942285066143,66.77935699220622,2.6149711425330713,1.0489676866908262,A,840.0145840000732,Correct,sub_010_day_14_data.csv,1,300,131.0,Training at home,,,,,,,,,,,,,
10,14,3276,A,35.262938506721824,54.31146950245413,1.763146925336091,0.85312256797288,A,552.876458000128,Correct,sub_010_day_14_data.csv,1,300,131.0,Training at home,,,,,,,,,,,,,
10,14,3277,B,60.59906563789223,41.66181049149558,3.0299532818946115,0.6544221888766634,A,949.7711669998808,Incorrect,sub_010_day_14_data.csv,0,300,131.0,Training at home,,,,,,,,,,,,,
10,14,3278,A,37.67039814289153,59.61429259299342,1.8835199071445765,0.9364191182955028,A,598.3799999999064,Correct,sub_010_day_14_data.csv,1,300,131.0,Training at home,,,,,,,,,,,,,
10,14,3279,A,48.237594558376685,78.8973659818939,2.4118797279188344,1.2393169267815156,A,767.1632909998607,Correct,sub_010_day_14_data.csv,1,300,131.0,Training at home,,,,,,,,,,,,,
10,14,3280,A,63.47191638249375,77.74791455440254,3.1735958191246874,1.22126138598019,B,883.442500000001,Incorrect,sub_010_day_14_data.csv,0,300,131.0,Training at home,,,,,,,,,,,,,
10,14,3281,A,33.334497155050336,48.83229811630719,1.6667248577525169,0.7670559451004869,A,474.7637919999761,Correct,sub_010_day_14_data.csv,1,300,131.0,Training at home,,,,,,,,,,,,,
10,14,3282,A,66.1341004077637,87.59627961805046,3.306705020388185,1.3759591426493232,A,867.1046669999214,Correct,sub_010_day_14_data.csv,1,300,131.0,Training at home,,,,,,,,,,,,,
10,14,3283,B,39.896830826781425,28.548771559925317,1.9948415413390712,0.448443055008373,B,967.6934170001914,Correct,sub_010_day_14_data.csv,1,300,131.0,Training at home,,,,,,,,,,,,,
10,14,3284,B,82.34673906896322,63.77687311171379,4.11733695344816,1.0018047801834422,A,1652.0534159999445,Incorrect,sub_010_day_14_data.csv,0,300,131.0,Training at home,,,,,,,,,,,,,
10,14,3285,A,35.95152207528318,54.06423874189875,1.7975761037641589,0.849239076267369,A,795.3715410001223,Correct,sub_010_day_14_data.csv,1,300,131.0,Training at home,,,,,,,,,,,,,
10,14,3286,B,49.35637256738974,20.43748584805133,2.467818628369487,0.3210312769904171,B,522.6710419999563,Correct,sub_010_day_14_data.csv,1,300,131.0,Training at home,,,,,,,,,,,,,
10,14,3287,B,38.52366364849168,23.355469998558327,1.9261831824245836,0.3668668648430382,B,430.18166699994254,Correct,sub_010_day_14_data.csv,1,300,131.0,Training at home,,,,,,,,,,,,,
10,14,3288,A,29.046186648468566,50.5682006258432,1.4523093324234284,0.7943234379570189,A,509.62362499990377,Correct,sub_010_day_14_data.csv,1,300,131.0,Training at home,,,,,,,,,,,,,
10,14,3289,B,69.0470551936246,47.87735267384797,3.4523527596812302,0.7520556971674422,B,501.76349999992453,Correct,sub_010_day_14_data.csv,1,300,131.0,Training at home,,,,,,,,,,,,,
10,14,3290,B,66.12512379724788,57.34408379116765,3.3062561898623937,0.9007587618258492,B,1166.4847500001088,Correct,sub_010_day_14_data.csv,1,300,131.0,Training at home,,,,,,,,,,,,,
10,14,3291,A,52.330008797950754,71.83437962086545,2.6165004398975378,1.1283717964604565,A,662.4585419999676,Correct,sub_010_day_14_data.csv,1,300,131.0,Training at home,,,,,,,,,,,,,
10,14,3292,B,80.3026920272438,48.95412753403237,4.015134601362189,0.7689696371190695,B,768.0613330001052,Correct,sub_010_day_14_data.csv,1,300,131.0,Training at home,,,,,,,,,,,,,
10,14,3293,B,68.83282278533356,43.85481355481372,3.4416411392666784,0.6888698004417642,B,640.6659579999996,Correct,sub_010_day_14_data.csv,1,300,131.0,Training at home,,,,,,,,,,,,,
10,14,3294,A,24.833466171811228,48.422473183743016,1.2416733085905614,0.7606184301134791,A,494.47570900019855,Correct,sub_010_day_14_data.csv,1,300,131.0,Training at home,,,,,,,,,,,,,
10,14,3295,A,48.525467702459295,73.81609890415146,2.4262733851229648,1.159500570169699,A,1068.056582999816,Correct,sub_010_day_14_data.csv,1,300,131.0,Training at home,,,,,,,,,,,,,
10,14,3296,A,24.85140756656333,53.95683704621278,1.2425703783281663,0.8475520143766183,A,731.9901660000596,Correct,sub_010_day_14_data.csv,1,300,131.0,Training at home,,,,,,,,,,,,,
10,14,3297,A,53.7291923724679,65.17418053705762,2.686459618623395,1.0237536338947757,A,1068.144584000038,Correct,sub_010_day_14_data.csv,1,300,131.0,Training at home,,,,,,,,,,,,,
10,14,3298,B,41.36923252711725,21.13348576056544,2.0684616263558624,0.3319640180506845,B,629.7332500000721,Correct,sub_010_day_14_data.csv,1,300,131.0,Training at home,,,,,,,,,,,,,
10,14,3299,A,26.813976221567533,36.60314990038336,1.3406988110783766,0.5749609341264518,A,826.0691660000248,Correct,sub_010_day_14_data.csv,1,300,131.0,Training at home,,,,,,,,,,,,,
