subject,day,trial,cat,x,y,xt,yt,resp,rt,fb,f_name,acc,n_trials,block,session_type,ns_left_digit,ns_right_digit,ns_left_size,ns_right_size,ns_congruent,ns_cue,ns_correct_side,ns_resp,ns_rt,ns_fb,acc_stroop,acc_stroop_mean,resp_key
10,9,1800,A,37.01281528805627,55.70471961798373,1.850640764402813,0.8750076896106844,A,649.4424999982584,Correct,sub_010_day_09_data.csv,1,300,72.0,Training at home,,,,,,,,,,,,,
10,9,1801,A,64.75919897911263,87.18624174645608,3.237959948955631,1.3695182828238508,A,443.8407920006284,Correct,sub_010_day_09_data.csv,1,300,72.0,Training at home,,,,,,,,,,,,,
10,9,1802,A,41.77255917314214,49.80035947853395,2.0886279586571073,0.7822622174194656,A,593.2462089986075,Correct,sub_010_day_09_data.csv,1,300,72.0,Training at home,,,,,,,,,,,,,
10,9,1803,A,40.18666571728637,47.24850521562344,2.0093332858643183,0.742177784392508,A,1028.250500001377,Correct,sub_010_day_09_data.csv,1,300,72.0,Training at home,,,,,,,,,,,,,
10,9,1804,A,39.514228073380565,61.997849073609736,1.975711403669028,0.9738599359401054,A,615.7406249985797,Correct,sub_010_day_09_data.csv,1,300,72.0,Training at home,,,,,,,,,,,,,
10,9,1805,A,46.00255838724118,75.12295587785943,2.300127919362059,1.1800286315091666,A,548.9819169997645,Correct,sub_010_day_09_data.csv,1,300,72.0,Training at home,,,,,,,,,,,,,
10,9,1806,B,61.05010348459885,47.33416635382579,3.052505174229942,0.7435233464048813,B,684.6720000012283,Correct,sub_010_day_09_data.csv,1,300,72.0,Training at home,,,,,,,,,,,,,
10,9,1807,A,14.87396892970991,33.84703815263626,0.7436984464854955,0.5316680320304775,A,588.0480830001034,Correct,sub_010_day_09_data.csv,1,300,72.0,Training at home,,,,,,,,,,,,,
10,9,1808,B,71.06059537364666,43.33550071067573,3.5530297686823333,0.6807124533614708,B,668.9800419990206,Correct,sub_010_day_09_data.csv,1,300,72.0,Training at home,,,,,,,,,,,,,
10,9,1809,B,83.00517688703879,60.448838468265,4.1502588443519395,0.9495281342496872,B,855.4861669999809,Correct,sub_010_day_09_data.csv,1,300,72.0,Training at home,,,,,,,,,,,,,
10,9,1810,B,47.19715693919888,24.06392570556217,2.359857846959944,0.3779952610656234,B,646.6652079998312,Correct,sub_010_day_09_data.csv,1,300,72.0,Training at home,,,,,,,,,,,,,
10,9,1811,B,72.91944561116554,41.40027800437137,3.645972280558277,0.650314046175541,B,458.30929200019455,Correct,sub_010_day_09_data.csv,1,300,72.0,Training at home,,,,,,,,,,,,,
10,9,1812,A,58.892602700605934,80.23780677072722,2.944630135030297,1.2603725214553698,A,466.1122920006164,Correct,sub_010_day_09_data.csv,1,300,72.0,Training at home,,,,,,,,,,,,,
10,9,1813,A,68.22728326068862,83.80508220510401,3.411364163034431,1.3164071529452177,A,563.0641669995384,Correct,sub_010_day_09_data.csv,1,300,72.0,Training at home,,,,,,,,,,,,,
10,9,1814,B,62.627512835958065,51.14916479489172,3.1313756417979035,0.8034492017844275,B,529.4358329992974,Correct,sub_010_day_09_data.csv,1,300,72.0,Training at home,,,,,,,,,,,,,
10,9,1815,B,53.4599285624211,24.702459940554075,2.672996428121055,0.3880253333742042,B,427.6815419998457,Correct,sub_010_day_09_data.csv,1,300,72.0,Training at home,,,,,,,,,,,,,
10,9,1816,A,34.88243171580206,60.759830250525816,1.7441215857901031,0.954413181742074,A,644.7994579993974,Correct,sub_010_day_09_data.csv,1,300,72.0,Training at home,,,,,,,,,,,,,
10,9,1817,B,53.62872100634483,38.91378680710834,2.6814360503172416,0.6112563337828548,B,538.4108329999435,Correct,sub_010_day_09_data.csv,1,300,72.0,Training at home,,,,,,,,,,,,,
10,9,1818,A,37.55702828319201,45.3546315282294,1.8778514141596008,0.7124288860767873,B,644.9260419994971,Incorrect,sub_010_day_09_data.csv,0,300,72.0,Training at home,,,,,,,,,,,,,
10,9,1819,A,43.603811196100075,66.12900447991845,2.180190559805004,1.0387519733165915,A,697.5150420003047,Correct,sub_010_day_09_data.csv,1,300,72.0,Training at home,,,,,,,,,,,,,
10,9,1820,B,63.73968700549127,41.79579023992085,3.1869843502745634,0.6565267378435765,B,610.2456669996172,Correct,sub_010_day_09_data.csv,1,300,72.0,Training at home,,,,,,,,,,,,,
10,9,1821,B,71.24271519462087,42.19307926287514,3.5621357597310435,0.6627673392229019,B,555.266166000365,Correct,sub_010_day_09_data.csv,1,300,72.0,Training at home,,,,,,,,,,,,,
10,9,1822,A,19.36055055986046,35.310578444475674,0.9680275279930228,0.5546572691758543,A,670.3684580006666,Correct,sub_010_day_09_data.csv,1,300,72.0,Training at home,,,,,,,,,,,,,
10,9,1823,A,50.908576398663605,71.71736886619304,2.5454288199331803,1.126533795824107,A,712.7804579995427,Correct,sub_010_day_09_data.csv,1,300,72.0,Training at home,,,,,,,,,,,,,
10,9,1824,A,54.89884309087971,83.40531897452661,2.7449421545439856,1.3101276868034308,A,2932.6095000014902,Correct,sub_010_day_09_data.csv,1,300,72.0,Training at home,,,,,,,,,,,,,
10,9,1825,B,77.82250905677071,61.01401800494918,3.891125452838536,0.9584059536517184,B,760.9109169989097,Correct,sub_010_day_09_data.csv,1,300,73.0,Training at home,,,,,,,,,,,,,
10,9,1826,A,36.87018954360083,44.618811004092066,1.843509477180041,0.7008706443118352,B,635.6375830000616,Incorrect,sub_010_day_09_data.csv,0,300,73.0,Training at home,,,,,,,,,,,,,
10,9,1827,A,36.49242835285103,51.45914726564059,1.8246214176425513,0.8083183950486587,A,565.9224999999424,Correct,sub_010_day_09_data.csv,1,300,73.0,Training at home,,,,,,,,,,,,,
10,9,1828,A,52.824409086635534,62.84886789239156,2.6412204543317768,0.9872277082858636,A,926.884999998947,Correct,sub_010_day_09_data.csv,1,300,73.0,Training at home,,,,,,,,,,,,,
10,9,1829,B,71.45850378641705,40.708435588479354,3.572925189320853,0.6394466109195002,B,466.4391670012265,Correct,sub_010_day_09_data.csv,1,300,73.0,Training at home,,,,,,,,,,,,,
10,9,1830,A,57.76701290763221,75.52348495759576,2.8883506453816103,1.1863201275814104,A,490.8006669993483,Correct,sub_010_day_09_data.csv,1,300,73.0,Training at home,,,,,,,,,,,,,
10,9,1831,B,61.992724103285255,32.25168686338539,3.0996362051642627,0.5066083125794498,B,469.77083300043887,Correct,sub_010_day_09_data.csv,1,300,73.0,Training at home,,,,,,,,,,,,,
10,9,1832,A,56.70239197440419,65.1474716355394,2.8351195987202096,1.0233340914508002,A,984.1748750004626,Correct,sub_010_day_09_data.csv,1,300,73.0,Training at home,,,,,,,,,,,,,
10,9,1833,B,50.290693792074975,37.01140384606463,2.514534689603749,0.5813737721092082,B,540.3203329988173,Correct,sub_010_day_09_data.csv,1,300,73.0,Training at home,,,,,,,,,,,,,
10,9,1834,A,40.32468761379962,61.73481481315441,2.016234380689981,0.9697282034386612,A,528.1549160008581,Correct,sub_010_day_09_data.csv,1,300,73.0,Training at home,,,,,,,,,,,,,
10,9,1835,B,50.34351555537346,34.84319695905864,2.517175777768673,0.5473156579708041,B,412.8516250002576,Correct,sub_010_day_09_data.csv,1,300,73.0,Training at home,,,,,,,,,,,,,
10,9,1836,A,54.81066059780427,83.85426776341394,2.7405330298902135,1.3171797578884634,A,523.8162499990722,Correct,sub_010_day_09_data.csv,1,300,73.0,Training at home,,,,,,,,,,,,,
10,9,1837,A,24.62828844797876,50.87976580507216,1.2314144223989378,0.7992174923479193,A,519.569791998947,Correct,sub_010_day_09_data.csv,1,300,73.0,Training at home,,,,,,,,,,,,,
10,9,1838,B,86.54746800693717,60.404635095844355,4.3273734003468585,0.948833789299384,B,596.7398329994467,Correct,sub_010_day_09_data.csv,1,300,73.0,Training at home,,,,,,,,,,,,,
10,9,1839,A,35.33285424218004,48.79975925358883,1.766642712109002,0.7665448258401261,A,537.7084169995214,Correct,sub_010_day_09_data.csv,1,300,73.0,Training at home,,,,,,,,,,,,,
10,9,1840,A,65.12639316244153,80.31172123675212,3.256319658122077,1.261533567172659,A,525.438791999477,Correct,sub_010_day_09_data.csv,1,300,73.0,Training at home,,,,,,,,,,,,,
10,9,1841,B,60.016136875001486,47.53769097798455,3.000806843750074,0.7467203037252904,B,736.1720000008063,Correct,sub_010_day_09_data.csv,1,300,73.0,Training at home,,,,,,,,,,,,,
10,9,1842,B,84.41710975610239,61.7906831819712,4.220855487805119,0.9706057817238756,B,616.4608330000192,Correct,sub_010_day_09_data.csv,1,300,73.0,Training at home,,,,,,,,,,,,,
10,9,1843,A,44.686794192525944,57.787583561742565,2.234339709626297,0.9077252399313837,A,596.1933329999738,Correct,sub_010_day_09_data.csv,1,300,73.0,Training at home,,,,,,,,,,,,,
10,9,1844,B,50.91512011798697,27.62152170670532,2.545756005899349,0.4338778483737821,B,610.4732089988829,Correct,sub_010_day_09_data.csv,1,300,73.0,Training at home,,,,,,,,,,,,,
10,9,1845,B,60.82370399742804,51.03091401205769,3.0411851998714017,0.8015917228312646,B,846.8638750000537,Correct,sub_010_day_09_data.csv,1,300,73.0,Training at home,,,,,,,,,,,,,
10,9,1846,B,70.15188467544826,50.869221064538515,3.507594233772413,0.7990518559509467,B,542.8441250005562,Correct,sub_010_day_09_data.csv,1,300,73.0,Training at home,,,,,,,,,,,,,
10,9,1847,B,35.19278022569384,12.905340860124692,1.7596390112846918,0.2027166201911995,A,581.9280410014471,Incorrect,sub_010_day_09_data.csv,0,300,73.0,Training at home,,,,,,,,,,,,,
10,9,1848,A,64.32725221491623,75.52232540519813,3.216362610745812,1.1863019133749413,A,509.41279200014833,Correct,sub_010_day_09_data.csv,1,300,73.0,Training at home,,,,,,,,,,,,,
10,9,1849,A,41.78604606270323,53.588452648683486,2.0893023031351614,0.8417654457917426,A,545.2944579992618,Correct,sub_010_day_09_data.csv,1,300,73.0,Training at home,,,,,,,,,,,,,
10,9,1850,B,64.68195926982611,46.11480545500648,3.2340979634913056,0.7243696701958543,B,860.3120000007038,Correct,sub_010_day_09_data.csv,1,300,74.0,Training at home,,,,,,,,,,,,,
10,9,1851,A,52.7434019294155,65.80982065965972,2.6371700964707747,1.0337382455922437,B,779.2500000014115,Incorrect,sub_010_day_09_data.csv,0,300,74.0,Training at home,,,,,,,,,,,,,
10,9,1852,A,13.996082396085164,38.27235334141656,0.6998041198042583,0.6011807204649352,A,555.5185829998663,Correct,sub_010_day_09_data.csv,1,300,74.0,Training at home,,,,,,,,,,,,,
10,9,1853,B,74.05417948802689,48.121295307501626,3.702708974401344,0.7558875390963605,B,1174.5507920004457,Correct,sub_010_day_09_data.csv,1,300,74.0,Training at home,,,,,,,,,,,,,
10,9,1854,B,73.79297569537037,46.551144037049255,3.689648784768518,0.7312236606149713,B,725.311457999851,Correct,sub_010_day_09_data.csv,1,300,74.0,Training at home,,,,,,,,,,,,,
10,9,1855,A,51.527982141584665,78.30902868051656,2.576399107079234,1.2300753460623162,A,716.662875000111,Correct,sub_010_day_09_data.csv,1,300,74.0,Training at home,,,,,,,,,,,,,
10,9,1856,B,66.31220874187068,58.362703061378966,3.3156104370935338,0.9167591959063534,A,1903.4642909991817,Incorrect,sub_010_day_09_data.csv,0,300,74.0,Training at home,,,,,,,,,,,,,
10,9,1857,A,40.97751603597433,62.51617946819623,2.0488758017987165,0.9820018507389316,A,871.6407080009958,Correct,sub_010_day_09_data.csv,1,300,74.0,Training at home,,,,,,,,,,,,,
10,9,1858,B,30.92470519145932,11.01226019971827,1.546235259572966,0.1729801787142709,B,448.5125000010157,Correct,sub_010_day_09_data.csv,1,300,74.0,Training at home,,,,,,,,,,,,,
10,9,1859,A,55.74948707313118,82.05381702227238,2.7874743536565587,1.28889834378086,A,528.7394169990876,Correct,sub_010_day_09_data.csv,1,300,74.0,Training at home,,,,,,,,,,,,,
10,9,1860,B,51.765548158117454,25.994985379554137,2.5882774079058724,0.4083282754929067,B,414.49154099973384,Correct,sub_010_day_09_data.csv,1,300,74.0,Training at home,,,,,,,,,,,,,
10,9,1861,B,77.58664379570854,58.64135933211611,3.879332189785427,0.921136318371476,B,605.1015829998505,Correct,sub_010_day_09_data.csv,1,300,74.0,Training at home,,,,,,,,,,,,,
10,9,1862,A,57.14753182133047,66.74482802168183,2.8573765910665236,1.048425306890149,B,595.8762080008455,Incorrect,sub_010_day_09_data.csv,0,300,74.0,Training at home,,,,,,,,,,,,,
10,9,1863,A,54.19085046455048,72.40269946152176,2.709542523227524,1.137298943641932,A,509.4646670004295,Correct,sub_010_day_09_data.csv,1,300,74.0,Training at home,,,,,,,,,,,,,
10,9,1864,B,50.59258968140814,37.19474909865625,2.5296294840704068,0.5842537526022704,B,609.3505829994683,Correct,sub_010_day_09_data.csv,1,300,74.0,Training at home,,,,,,,,,,,,,
10,9,1865,B,59.44773369524879,45.90691731236767,2.9723866847624394,0.7211041708874417,B,690.6867910001893,Correct,sub_010_day_09_data.csv,1,300,74.0,Training at home,,,,,,,,,,,,,
10,9,1866,A,14.478815491203315,30.717092123524765,0.7239407745601659,0.4825029547745315,A,530.4244999988441,Correct,sub_010_day_09_data.csv,1,300,74.0,Training at home,,,,,,,,,,,,,
10,9,1867,A,42.805695496316694,50.617893230509544,2.140284774815835,0.7951040075658066,A,604.2872500001977,Correct,sub_010_day_09_data.csv,1,300,74.0,Training at home,,,,,,,,,,,,,
10,9,1868,B,64.55831524447512,56.706627037736965,3.2279157622237564,0.8907456145580538,B,565.3729999994539,Correct,sub_010_day_09_data.csv,1,300,74.0,Training at home,,,,,,,,,,,,,
10,9,1869,B,83.30387578087968,59.56551862207933,4.165193789043984,0.935652978551952,B,736.1431249992165,Correct,sub_010_day_09_data.csv,1,300,74.0,Training at home,,,,,,,,,,,,,
10,9,1870,B,56.564163246072056,33.81832089094844,2.8282081623036026,0.5312169423387293,B,502.31870799871103,Correct,sub_010_day_09_data.csv,1,300,74.0,Training at home,,,,,,,,,,,,,
10,9,1871,A,44.98732361211719,67.80087813821423,2.2493661806058594,1.065013703329753,A,573.795041998892,Correct,sub_010_day_09_data.csv,1,300,74.0,Training at home,,,,,,,,,,,,,
10,9,1872,A,43.64117454882612,55.88661517113431,2.182058727441306,0.877864898278177,A,620.4886249997799,Correct,sub_010_day_09_data.csv,1,300,74.0,Training at home,,,,,,,,,,,,,
10,9,1873,B,46.261445226222726,20.15173485532815,2.3130722613111363,0.3165427108929414,B,472.728583999924,Correct,sub_010_day_09_data.csv,1,300,74.0,Training at home,,,,,,,,,,,,,
10,9,1874,B,72.78579976264099,50.951296247094184,3.6392899881320497,0.8003410899037413,B,605.8493750006164,Correct,sub_010_day_09_data.csv,1,300,74.0,Training at home,,,,,,,,,,,,,
10,9,1875,A,54.850658039139375,80.88519279010328,2.742532901956969,1.2705416372679128,A,517.4260420008068,Correct,sub_010_day_09_data.csv,1,300,75.0,Training at home,,,,,,,,,,,,,
10,9,1876,A,53.67068068035479,69.14332194370898,2.6835340340177396,1.0861007613157505,A,470.86004199991294,Correct,sub_010_day_09_data.csv,1,300,75.0,Training at home,,,,,,,,,,,,,
10,9,1877,B,46.53955453161204,33.19809386298612,2.326977726580602,0.5214744389657079,B,477.5809169987042,Correct,sub_010_day_09_data.csv,1,300,75.0,Training at home,,,,,,,,,,,,,
10,9,1878,B,49.67310743571777,37.36001872980966,2.4836553717858885,0.5868498018977355,B,551.4952079993236,Correct,sub_010_day_09_data.csv,1,300,75.0,Training at home,,,,,,,,,,,,,
10,9,1879,B,81.28090624885102,59.65372056256517,4.064045312442551,0.9370384513932656,B,611.3711250000051,Correct,sub_010_day_09_data.csv,1,300,75.0,Training at home,,,,,,,,,,,,,
10,9,1880,A,32.965395320814956,44.45152270884044,1.648269766040748,0.6982428859148649,A,547.7543750002951,Correct,sub_010_day_09_data.csv,1,300,75.0,Training at home,,,,,,,,,,,,,
10,9,1881,A,31.33937385749632,42.12149455119777,1.566968692874816,0.6616428892013272,A,1191.2813749986526,Correct,sub_010_day_09_data.csv,1,300,75.0,Training at home,,,,,,,,,,,,,
10,9,1882,A,43.71467420140781,63.432848262907086,2.1857337100703904,0.996400850495125,A,571.1850829993637,Correct,sub_010_day_09_data.csv,1,300,75.0,Training at home,,,,,,,,,,,,,
10,9,1883,A,40.35260362625836,59.25948475753084,2.017630181312918,0.930845809848876,A,568.3252920007362,Correct,sub_010_day_09_data.csv,1,300,75.0,Training at home,,,,,,,,,,,,,
10,9,1884,A,35.58724710348645,45.478255142191,1.7793623551743225,0.7143707612639474,A,809.4562080004835,Correct,sub_010_day_09_data.csv,1,300,75.0,Training at home,,,,,,,,,,,,,
10,9,1885,B,49.78709727759522,39.107998558198624,2.489354863879761,0.614307004835185,B,777.5951670009817,Correct,sub_010_day_09_data.csv,1,300,75.0,Training at home,,,,,,,,,,,,,
10,9,1886,B,77.12330518907203,55.47846863038674,3.8561652594536016,0.8714537474081739,B,561.3147499989282,Correct,sub_010_day_09_data.csv,1,300,75.0,Training at home,,,,,,,,,,,,,
10,9,1887,B,70.50683835938082,48.54256887122703,3.5253419179690413,0.7625048887611172,B,598.503167000672,Correct,sub_010_day_09_data.csv,1,300,75.0,Training at home,,,,,,,,,,,,,
10,9,1888,A,49.63649768600165,64.87155935781763,2.481824884300082,1.0190000715271703,A,570.490833999429,Correct,sub_010_day_09_data.csv,1,300,75.0,Training at home,,,,,,,,,,,,,
10,9,1889,B,79.57841800279613,66.04214227561054,3.9789209001398063,1.03738754500195,B,582.4500409999018,Correct,sub_010_day_09_data.csv,1,300,75.0,Training at home,,,,,,,,,,,,,
10,9,1890,B,74.28299891880157,61.758427765077656,3.714149945940078,0.9700991148201196,B,473.7116659998719,Correct,sub_010_day_09_data.csv,1,300,75.0,Training at home,,,,,,,,,,,,,
10,9,1891,A,40.769926229622016,51.79402551234647,2.0384963114811008,0.81357865024715,A,563.0630000014207,Correct,sub_010_day_09_data.csv,1,300,75.0,Training at home,,,,,,,,,,,,,
10,9,1892,A,25.535151357114763,46.78788596970418,1.276757567855738,0.734942394197098,A,558.6383329991804,Correct,sub_010_day_09_data.csv,1,300,75.0,Training at home,,,,,,,,,,,,,
10,9,1893,B,59.75813537446933,27.87065856179006,2.987906768723467,0.4377912809421456,B,663.7864170006651,Correct,sub_010_day_09_data.csv,1,300,75.0,Training at home,,,,,,,,,,,,,
10,9,1894,B,35.72357553458295,14.260858072356775,1.7861787767291477,0.2240090347700137,B,868.818500000998,Correct,sub_010_day_09_data.csv,1,300,75.0,Training at home,,,,,,,,,,,,,
10,9,1895,B,82.78434750409502,55.81445679670601,4.139217375204751,0.8767314371831826,B,837.379915999918,Correct,sub_010_day_09_data.csv,1,300,75.0,Training at home,,,,,,,,,,,,,
10,9,1896,A,27.668324555406087,46.7664146955139,1.3834162277703044,0.734605124210801,A,572.7579579997837,Correct,sub_010_day_09_data.csv,1,300,75.0,Training at home,,,,,,,,,,,,,
10,9,1897,A,43.55609308941805,53.62165900884865,2.1778046544709024,0.8422870500774795,B,692.2709590016893,Incorrect,sub_010_day_09_data.csv,0,300,75.0,Training at home,,,,,,,,,,,,,
10,9,1898,A,61.742573407348175,78.34651182141366,3.087128670367409,1.230664129862695,A,515.520666998782,Correct,sub_010_day_09_data.csv,1,300,75.0,Training at home,,,,,,,,,,,,,
10,9,1899,A,42.8405961687628,72.485963482388,2.14202980843814,1.1386068518232408,A,504.75145899872587,Correct,sub_010_day_09_data.csv,1,300,75.0,Training at home,,,,,,,,,,,,,
10,9,1900,A,62.335341960079006,82.90437102317276,3.11676709800395,1.30225881478441,A,593.1373750008788,Correct,sub_010_day_09_data.csv,1,300,76.0,Training at home,,,,,,,,,,,,,
10,9,1901,A,50.52790643247618,59.61110304297122,2.526395321623809,0.9363690169609128,A,958.7282499996944,Correct,sub_010_day_09_data.csv,1,300,76.0,Training at home,,,,,,,,,,,,,
10,9,1902,B,74.84381737193542,63.349871572095125,3.742190868596771,0.9950974556837544,B,905.4903750002268,Correct,sub_010_day_09_data.csv,1,300,76.0,Training at home,,,,,,,,,,,,,
10,9,1903,B,53.90949019913427,44.73235955625704,2.6954745099567132,0.7026542607983715,B,740.4446669988829,Correct,sub_010_day_09_data.csv,1,300,76.0,Training at home,,,,,,,,,,,,,
10,9,1904,B,51.20752905347104,41.56670383847588,2.560376452673552,0.6529282570644923,B,625.2163330009353,Correct,sub_010_day_09_data.csv,1,300,76.0,Training at home,,,,,,,,,,,,,
10,9,1905,B,46.226529152530155,17.453043285311637,2.311326457626508,0.2741517628395985,B,768.5959999998886,Correct,sub_010_day_09_data.csv,1,300,76.0,Training at home,,,,,,,,,,,,,
10,9,1906,A,13.867262918486158,42.48764746299109,0.6933631459243079,0.6673944056902291,A,530.9237500005111,Correct,sub_010_day_09_data.csv,1,300,76.0,Training at home,,,,,,,,,,,,,
10,9,1907,A,44.641562086552646,65.09886626689526,2.2320781043276323,1.0225706001055128,A,537.9685000007157,Correct,sub_010_day_09_data.csv,1,300,76.0,Training at home,,,,,,,,,,,,,
10,9,1908,B,34.03281216165469,12.55111124058578,1.7016406080827349,0.1971523943390628,B,582.8269169996929,Correct,sub_010_day_09_data.csv,1,300,76.0,Training at home,,,,,,,,,,,,,
10,9,1909,A,59.16516332118456,78.41303033672199,2.958258166059228,1.231709000257797,A,827.993458000492,Correct,sub_010_day_09_data.csv,1,300,76.0,Training at home,,,,,,,,,,,,,
10,9,1910,A,16.934622674126988,38.68935445994093,0.8467311337063493,0.6077309587174096,A,418.7178329993913,Correct,sub_010_day_09_data.csv,1,300,76.0,Training at home,,,,,,,,,,,,,
10,9,1911,B,72.0307526295485,57.72063483984925,3.601537631477425,0.9066736118670472,A,557.6807920006104,Incorrect,sub_010_day_09_data.csv,0,300,76.0,Training at home,,,,,,,,,,,,,
10,9,1912,B,44.09767343147611,35.92972292586911,2.204883671573805,0.5643827679471357,B,850.071916998786,Correct,sub_010_day_09_data.csv,1,300,76.0,Training at home,,,,,,,,,,,,,
10,9,1913,B,62.66698784007094,31.27871634703889,3.133349392003547,0.4913249274478817,B,487.5220410012844,Correct,sub_010_day_09_data.csv,1,300,76.0,Training at home,,,,,,,,,,,,,
10,9,1914,B,75.5480792878619,61.088061241640474,3.7774039643930952,0.9595690220939052,A,700.6784579989471,Incorrect,sub_010_day_09_data.csv,0,300,76.0,Training at home,,,,,,,,,,,,,
10,9,1915,A,52.50100794689024,61.11837314014883,2.625050397344512,0.9600451602822566,B,661.6982079995068,Incorrect,sub_010_day_09_data.csv,0,300,76.0,Training at home,,,,,,,,,,,,,
10,9,1916,A,26.358875512833507,54.314109919637936,1.3179437756416752,0.8531640435490153,A,608.6931669997284,Correct,sub_010_day_09_data.csv,1,300,76.0,Training at home,,,,,,,,,,,,,
10,9,1917,B,75.56680612874528,52.44352847415882,3.778340306437264,0.8237810189137225,B,844.9607910006307,Correct,sub_010_day_09_data.csv,1,300,76.0,Training at home,,,,,,,,,,,,,
10,9,1918,A,32.92628520784258,60.41008695426424,1.646314260392129,0.9489194268911858,A,547.732333001477,Correct,sub_010_day_09_data.csv,1,300,76.0,Training at home,,,,,,,,,,,,,
10,9,1919,A,43.09438191705806,74.32798375784482,2.154719095852903,1.1675412386489337,A,464.4545419996575,Correct,sub_010_day_09_data.csv,1,300,76.0,Training at home,,,,,,,,,,,,,
10,9,1920,A,44.312116078912965,73.72387475505423,2.2156058039456483,1.158051916623262,A,479.1105000003882,Correct,sub_010_day_09_data.csv,1,300,76.0,Training at home,,,,,,,,,,,,,
10,9,1921,B,53.79271126378906,35.1212504813361,2.689635563189453,0.5516833124852624,B,749.0434170013032,Correct,sub_010_day_09_data.csv,1,300,76.0,Training at home,,,,,,,,,,,,,
10,9,1922,A,41.356223220763326,59.38868291852193,2.067811161038166,0.9328752498160108,A,538.0120000008901,Correct,sub_010_day_09_data.csv,1,300,76.0,Training at home,,,,,,,,,,,,,
10,9,1923,B,61.784929329374634,42.95463397619675,3.0892464664687314,0.6747298126862912,B,748.9488330011227,Correct,sub_010_day_09_data.csv,1,300,76.0,Training at home,,,,,,,,,,,,,
10,9,1924,B,62.504211838296655,51.10391355361427,3.1252105919148327,0.8027383969486123,B,736.6416250006296,Correct,sub_010_day_09_data.csv,1,300,76.0,Training at home,,,,,,,,,,,,,
10,9,1925,B,47.72635229608761,30.040617117537124,2.3863176148043808,0.4718769102287921,B,625.4987079992134,Correct,sub_010_day_09_data.csv,1,300,77.0,Training at home,,,,,,,,,,,,,
10,9,1926,A,39.06319438426589,50.69034818308478,1.9531597192132943,0.7962421272994393,B,599.0865420008049,Incorrect,sub_010_day_09_data.csv,0,300,77.0,Training at home,,,,,,,,,,,,,
10,9,1927,B,71.39574214057507,59.70991955300066,3.5697871070287532,0.937921223070722,B,581.2738750009885,Correct,sub_010_day_09_data.csv,1,300,77.0,Training at home,,,,,,,,,,,,,
10,9,1928,A,27.881003211759992,54.17386727723906,1.3940501605879996,0.8509611172736136,A,646.1438339993038,Correct,sub_010_day_09_data.csv,1,300,77.0,Training at home,,,,,,,,,,,,,
10,9,1929,A,34.99493274151715,54.3322020352757,1.7497466370758574,0.8534482338368927,A,668.1229999994684,Correct,sub_010_day_09_data.csv,1,300,77.0,Training at home,,,,,,,,,,,,,
10,9,1930,B,44.02001283160331,29.424916271430845,2.2010006415801655,0.4622055039541095,B,506.4130409991776,Correct,sub_010_day_09_data.csv,1,300,77.0,Training at home,,,,,,,,,,,,,
10,9,1931,B,55.514700869976835,43.78860248855905,2.7757350434988415,0.6878297594451043,B,616.7779589995916,Correct,sub_010_day_09_data.csv,1,300,77.0,Training at home,,,,,,,,,,,,,
10,9,1932,B,49.51244931430807,37.91704218285949,2.4756224657154036,0.5955995058376283,B,512.236041999131,Correct,sub_010_day_09_data.csv,1,300,77.0,Training at home,,,,,,,,,,,,,
10,9,1933,A,64.68593996576186,84.55679800133717,3.234296998288093,1.3282150770603849,A,582.3077080003713,Correct,sub_010_day_09_data.csv,1,300,77.0,Training at home,,,,,,,,,,,,,
10,9,1934,B,88.70421660941963,63.36316449280269,4.435210830470981,0.9953062603939528,B,603.8405420003983,Correct,sub_010_day_09_data.csv,1,300,77.0,Training at home,,,,,,,,,,,,,
10,9,1935,A,23.17804255007678,50.16320708516257,1.158902127503839,0.7879618142962509,A,573.9505000001373,Correct,sub_010_day_09_data.csv,1,300,77.0,Training at home,,,,,,,,,,,,,
10,9,1936,B,50.069487689203655,29.209289639191972,2.5034743844601826,0.4588184487353097,B,529.8218339994492,Correct,sub_010_day_09_data.csv,1,300,77.0,Training at home,,,,,,,,,,,,,
10,9,1937,B,76.2337693199151,54.50249071454496,3.811688465995755,0.8561231221558019,B,576.4555840014509,Correct,sub_010_day_09_data.csv,1,300,77.0,Training at home,,,,,,,,,,,,,
10,9,1938,B,75.43557941643567,50.99441980100902,3.7717789708217833,0.8010184731046192,B,512.8950420003093,Correct,sub_010_day_09_data.csv,1,300,77.0,Training at home,,,,,,,,,,,,,
10,9,1939,B,57.518979733899904,39.55563759163225,2.875948986694995,0.6213385023296606,B,541.9188750001922,Correct,sub_010_day_09_data.csv,1,300,77.0,Training at home,,,,,,,,,,,,,
10,9,1940,A,45.1500191150802,72.46086041992578,2.25750095575401,1.1382125338401712,A,599.0077909991669,Correct,sub_010_day_09_data.csv,1,300,77.0,Training at home,,,,,,,,,,,,,
10,9,1941,B,62.87610933295592,52.22259866395256,3.1438054666477964,0.8203106615702075,A,611.7469580003672,Incorrect,sub_010_day_09_data.csv,0,300,77.0,Training at home,,,,,,,,,,,,,
10,9,1942,A,52.56089205653827,65.32501874895036,2.6280446028269138,1.0261229949865895,A,812.3892920011713,Correct,sub_010_day_09_data.csv,1,300,77.0,Training at home,,,,,,,,,,,,,
10,9,1943,B,35.39769013540531,14.878985707906477,1.7698845067702655,0.2337185609641325,B,609.4777499984048,Correct,sub_010_day_09_data.csv,1,300,77.0,Training at home,,,,,,,,,,,,,
10,9,1944,B,71.81314309737245,60.69442500736339,3.5906571548686226,0.9533857985849472,B,568.3065419998456,Correct,sub_010_day_09_data.csv,1,300,77.0,Training at home,,,,,,,,,,,,,
10,9,1945,A,17.813033659991657,39.75630170729646,0.8906516829995829,0.6244905268877096,A,738.0952080002317,Correct,sub_010_day_09_data.csv,1,300,77.0,Training at home,,,,,,,,,,,,,
10,9,1946,B,52.33786331602546,42.89491082436666,2.616893165801273,0.673791683611098,B,662.4829170013982,Correct,sub_010_day_09_data.csv,1,300,77.0,Training at home,,,,,,,,,,,,,
10,9,1947,B,52.720981163437855,24.83195344015476,2.6360490581718925,0.3900594125093699,B,898.4559160016943,Correct,sub_010_day_09_data.csv,1,300,77.0,Training at home,,,,,,,,,,,,,
10,9,1948,B,61.75570040827108,46.54063487894712,3.087785020413554,0.731058583145526,B,522.2209999992629,Correct,sub_010_day_09_data.csv,1,300,77.0,Training at home,,,,,,,,,,,,,
10,9,1949,A,28.69336297194213,41.24175273293773,1.4346681485971065,0.6478239370348197,B,847.5644999998622,Incorrect,sub_010_day_09_data.csv,0,300,77.0,Training at home,,,,,,,,,,,,,
10,9,1950,A,37.50812079228084,50.238971496202865,1.875406039614042,0.7891519188818896,B,909.8031670000636,Incorrect,sub_010_day_09_data.csv,0,300,78.0,Training at home,,,,,,,,,,,,,
10,9,1951,B,45.57578975448764,17.79684611500759,2.278789487724382,0.2795522050598794,B,493.8896660005412,Correct,sub_010_day_09_data.csv,1,300,78.0,Training at home,,,,,,,,,,,,,
10,9,1952,A,43.23778832402285,74.94961690934488,2.161889416201143,1.177305829358836,A,488.5107079990121,Correct,sub_010_day_09_data.csv,1,300,78.0,Training at home,,,,,,,,,,,,,
10,9,1953,B,42.41788675422258,15.723437317601782,2.120894337711129,0.2469831758307868,B,479.4958329985093,Correct,sub_010_day_09_data.csv,1,300,78.0,Training at home,,,,,,,,,,,,,
10,9,1954,A,65.05382426598803,88.92322512910953,3.2526912132994017,1.396802753995609,A,513.6612919995969,Correct,sub_010_day_09_data.csv,1,300,78.0,Training at home,,,,,,,,,,,,,
10,9,1955,B,38.56200489016332,26.10568507092897,1.9281002445081663,0.410067142178796,B,648.3696670002246,Correct,sub_010_day_09_data.csv,1,300,78.0,Training at home,,,,,,,,,,,,,
10,9,1956,A,35.23688293065117,55.44564099126032,1.7618441465325585,0.8709380920586025,A,629.8192920003203,Correct,sub_010_day_09_data.csv,1,300,78.0,Training at home,,,,,,,,,,,,,
10,9,1957,A,30.883265758353904,46.382867636620304,1.5441632879176952,0.7285803810981706,A,671.978542000943,Correct,sub_010_day_09_data.csv,1,300,78.0,Training at home,,,,,,,,,,,,,
10,9,1958,B,55.29604447063044,22.88374622381693,2.764802223531522,0.3594570451167823,B,510.8857089999219,Correct,sub_010_day_09_data.csv,1,300,78.0,Training at home,,,,,,,,,,,,,
10,9,1959,B,78.71166416035054,55.33371403760651,3.935583208017527,0.8691799475819151,B,606.430834001003,Correct,sub_010_day_09_data.csv,1,300,78.0,Training at home,,,,,,,,,,,,,
10,9,1960,A,23.149792224188953,48.85249413422317,1.1574896112094477,0.7673731834080699,A,593.2468750015687,Correct,sub_010_day_09_data.csv,1,300,78.0,Training at home,,,,,,,,,,,,,
10,9,1961,B,36.589471705747314,15.287455306953156,1.8294735852873656,0.2401347864220316,B,563.9428750000661,Correct,sub_010_day_09_data.csv,1,300,78.0,Training at home,,,,,,,,,,,,,
10,9,1962,B,41.82565685365382,20.06745297782303,2.091282842682691,0.3152188142569372,B,486.1647500001709,Correct,sub_010_day_09_data.csv,1,300,78.0,Training at home,,,,,,,,,,,,,
10,9,1963,A,36.54898718778145,69.25178041996652,1.8274493593890724,1.0878044230769015,A,852.7238750011747,Correct,sub_010_day_09_data.csv,1,300,78.0,Training at home,,,,,,,,,,,,,
10,9,1964,A,53.64120906984233,69.77271375362378,2.6820604534921166,1.09598722474704,A,1346.9746250011667,Correct,sub_010_day_09_data.csv,1,300,78.0,Training at home,,,,,,,,,,,,,
10,9,1965,B,79.71307365055719,60.019248420468614,3.98565368252786,0.942780149558625,B,741.309667000678,Correct,sub_010_day_09_data.csv,1,300,78.0,Training at home,,,,,,,,,,,,,
10,9,1966,A,48.93287392608942,68.6674599079465,2.4466436963044713,1.078625937937382,A,716.0993750003399,Correct,sub_010_day_09_data.csv,1,300,78.0,Training at home,,,,,,,,,,,,,
10,9,1967,A,20.46213121771784,37.503293947131496,1.023106560885892,0.5891003637486343,A,684.9216249993333,Correct,sub_010_day_09_data.csv,1,300,78.0,Training at home,,,,,,,,,,,,,
10,9,1968,B,57.45447618280161,46.20983093972117,2.872723809140081,0.7258623270192718,B,852.6423340008478,Correct,sub_010_day_09_data.csv,1,300,78.0,Training at home,,,,,,,,,,,,,
10,9,1969,B,45.133040847407415,19.365901170603397,2.25665204237037,0.304198864238568,B,605.1014579988987,Correct,sub_010_day_09_data.csv,1,300,78.0,Training at home,,,,,,,,,,,,,
10,9,1970,B,60.87247785376178,36.52680324477475,3.043623892688089,0.5737616836645208,B,656.0307910003758,Correct,sub_010_day_09_data.csv,1,300,78.0,Training at home,,,,,,,,,,,,,
10,9,1971,A,37.842945217216766,52.2741845443872,1.8921472608608385,0.8211209706852196,A,722.0180000003893,Correct,sub_010_day_09_data.csv,1,300,78.0,Training at home,,,,,,,,,,,,,
10,9,1972,B,35.243225773675945,23.87285830475809,1.7621612886837972,0.3749939813520904,B,629.9622500009718,Correct,sub_010_day_09_data.csv,1,300,78.0,Training at home,,,,,,,,,,,,,
10,9,1973,A,39.961392600513136,62.870620634610425,1.9980696300256569,0.9875693995616148,B,685.7252909994713,Incorrect,sub_010_day_09_data.csv,0,300,78.0,Training at home,,,,,,,,,,,,,
10,9,1974,A,56.95143380751081,69.15103283276454,2.84757169037554,1.0862218836777984,A,941.8650419993356,Correct,sub_010_day_09_data.csv,1,300,78.0,Training at home,,,,,,,,,,,,,
10,9,1975,A,45.83426935388333,61.275125153241405,2.291713467694166,0.9625074151460916,A,1253.4582919997774,Correct,sub_010_day_09_data.csv,1,300,79.0,Training at home,,,,,,,,,,,,,
10,9,1976,A,20.851313050271692,42.24068844153748,1.042565652513585,0.6635151824525471,A,584.0594580004108,Correct,sub_010_day_09_data.csv,1,300,79.0,Training at home,,,,,,,,,,,,,
10,9,1977,A,36.03112998364954,45.26930696377198,1.8015564991824773,0.7110886109524366,A,569.5442500000354,Correct,sub_010_day_09_data.csv,1,300,79.0,Training at home,,,,,,,,,,,,,
10,9,1978,A,26.954203787343445,55.96691249798354,1.347710189367172,0.8791262057388394,A,596.8689159999485,Correct,sub_010_day_09_data.csv,1,300,79.0,Training at home,,,,,,,,,,,,,
10,9,1979,A,51.81425691057656,59.226922212926496,2.5907128455288277,0.93033431859432,B,1195.5281249993277,Incorrect,sub_010_day_09_data.csv,0,300,79.0,Training at home,,,,,,,,,,,,,
10,9,1980,B,72.83386842161975,44.33716705486762,3.641693421080987,0.6964465915027777,B,633.3267080008227,Correct,sub_010_day_09_data.csv,1,300,79.0,Training at home,,,,,,,,,,,,,
10,9,1981,A,32.628385660402294,49.974401718130146,1.6314192830201149,0.7849960665261141,A,583.9692079989618,Correct,sub_010_day_09_data.csv,1,300,79.0,Training at home,,,,,,,,,,,,,
10,9,1982,A,28.83772129224356,57.560968709560235,1.441886064612178,0.904165582157332,A,562.2249159987405,Correct,sub_010_day_09_data.csv,1,300,79.0,Training at home,,,,,,,,,,,,,
10,9,1983,B,55.938881923225594,44.08608287236057,2.7969440961612797,0.6925025703867939,B,581.500333000804,Correct,sub_010_day_09_data.csv,1,300,79.0,Training at home,,,,,,,,,,,,,
10,9,1984,A,35.73644204553027,68.39270090841364,1.7868221022765136,1.0743100336651814,A,552.9804159996274,Correct,sub_010_day_09_data.csv,1,300,79.0,Training at home,,,,,,,,,,,,,
10,9,1985,B,82.56470131206834,67.04260573542267,4.128235065603417,1.0531027882796038,B,616.1350410002342,Correct,sub_010_day_09_data.csv,1,300,79.0,Training at home,,,,,,,,,,,,,
10,9,1986,B,78.98031127199795,49.57888607942226,3.9490155635998976,0.7787833214013912,B,589.5382079997944,Correct,sub_010_day_09_data.csv,1,300,79.0,Training at home,,,,,,,,,,,,,
10,9,1987,B,51.59500010488778,29.49723562311165,2.5797500052443887,0.4633414936738735,B,618.9389999999548,Correct,sub_010_day_09_data.csv,1,300,79.0,Training at home,,,,,,,,,,,,,
10,9,1988,A,46.95076332248431,78.90108086398672,2.3475381661242154,1.2393752800129745,A,485.1256250003644,Correct,sub_010_day_09_data.csv,1,300,79.0,Training at home,,,,,,,,,,,,,
10,9,1989,A,32.53198692150313,46.244968250259426,1.6265993460751564,0.7264142626025412,B,574.0544159998535,Incorrect,sub_010_day_09_data.csv,0,300,79.0,Training at home,,,,,,,,,,,,,
10,9,1990,A,47.4029323398143,57.56411287402464,2.370146616990715,0.9042149705772472,B,598.0497499986086,Incorrect,sub_010_day_09_data.csv,0,300,79.0,Training at home,,,,,,,,,,,,,
10,9,1991,A,17.536022623257928,35.05683777301324,0.8768011311628965,0.5506715200289378,A,585.8262500005367,Correct,sub_010_day_09_data.csv,1,300,79.0,Training at home,,,,,,,,,,,,,
10,9,1992,B,48.39248534086736,40.885545982235506,2.419624267043368,0.6422286544789937,A,910.9827499996754,Incorrect,sub_010_day_09_data.csv,0,300,79.0,Training at home,,,,,,,,,,,,,
10,9,1993,A,52.53357586782754,81.43640560076604,2.626678793391377,1.2792000678506263,A,579.9765419997129,Correct,sub_010_day_09_data.csv,1,300,79.0,Training at home,,,,,,,,,,,,,
10,9,1994,A,22.42534647456472,40.64891468646793,1.121267323728236,0.6385116587770295,A,564.7945420005271,Correct,sub_010_day_09_data.csv,1,300,79.0,Training at home,,,,,,,,,,,,,
10,9,1995,B,43.86375434693088,27.021612200058495,2.193187717346544,0.4244544918792804,B,573.2041250012117,Correct,sub_010_day_09_data.csv,1,300,79.0,Training at home,,,,,,,,,,,,,
10,9,1996,B,45.109667958957104,19.195007404420583,2.2554833979478555,0.3015144712366469,B,584.882834000382,Correct,sub_010_day_09_data.csv,1,300,79.0,Training at home,,,,,,,,,,,,,
10,9,1997,B,57.35514044545752,28.855867689667,2.8677570222728765,0.4532669097340846,B,553.5097920001135,Correct,sub_010_day_09_data.csv,1,300,79.0,Training at home,,,,,,,,,,,,,
10,9,1998,A,68.74288356859174,89.01531699531242,3.437144178429587,1.3982493296472007,A,607.3331659990799,Correct,sub_010_day_09_data.csv,1,300,79.0,Training at home,,,,,,,,,,,,,
10,9,1999,B,36.20589071800959,11.369503140201292,1.8102945359004792,0.1785917377011123,B,703.8435419999587,Correct,sub_010_day_09_data.csv,1,300,79.0,Training at home,,,,,,,,,,,,,
10,9,2000,B,84.86432716338429,58.934148419192105,4.243216358169215,0.9257354385965224,B,741.2326670000766,Correct,sub_010_day_09_data.csv,1,300,80.0,Training at home,,,,,,,,,,,,,
10,9,2001,A,55.65204579672077,66.49724809198653,2.7826022898360385,1.0445363304486135,A,814.423166000779,Correct,sub_010_day_09_data.csv,1,300,80.0,Training at home,,,,,,,,,,,,,
10,9,2002,B,53.52638504288963,40.107783492522216,2.676319252144482,0.6300115898593889,B,575.6994169987593,Correct,sub_010_day_09_data.csv,1,300,80.0,Training at home,,,,,,,,,,,,,
10,9,2003,B,86.53286582256122,59.92700896461956,4.326643291128061,0.9413312555742924,B,736.0673339990171,Correct,sub_010_day_09_data.csv,1,300,80.0,Training at home,,,,,,,,,,,,,
10,9,2004,A,59.849970135894445,72.56535924879698,2.992498506794722,1.1398539976056237,A,1141.532500001631,Correct,sub_010_day_09_data.csv,1,300,80.0,Training at home,,,,,,,,,,,,,
10,9,2005,A,53.27552833451826,61.21586068238895,2.6637764167259133,0.9615764910148468,B,1249.646374999429,Incorrect,sub_010_day_09_data.csv,0,300,80.0,Training at home,,,,,,,,,,,,,
10,9,2006,B,48.20621382689869,39.2751360029626,2.4103106913449346,0.6169323936782365,B,871.2755839987949,Correct,sub_010_day_09_data.csv,1,300,80.0,Training at home,,,,,,,,,,,,,
10,9,2007,B,86.13323602938706,65.3601493448133,4.306661801469353,1.0266748250959858,B,1005.1003339995076,Correct,sub_010_day_09_data.csv,1,300,80.0,Training at home,,,,,,,,,,,,,
10,9,2008,A,53.76604249241375,64.93387479218235,2.6883021246206873,1.0199789200811975,A,1083.737208000457,Correct,sub_010_day_09_data.csv,1,300,80.0,Training at home,,,,,,,,,,,,,
10,9,2009,B,33.81225346355555,19.674091874569164,1.6906126731777775,0.3090399124959856,B,847.5392499985901,Correct,sub_010_day_09_data.csv,1,300,80.0,Training at home,,,,,,,,,,,,,
10,9,2010,A,25.03382765031383,37.78615344592548,1.2516913825156917,0.5935435103656806,A,880.7467500009807,Correct,sub_010_day_09_data.csv,1,300,80.0,Training at home,,,,,,,,,,,,,
10,9,2011,B,61.32917736393692,31.20960211563727,3.0664588681968463,0.4902392836397325,B,547.1853750004811,Correct,sub_010_day_09_data.csv,1,300,80.0,Training at home,,,,,,,,,,,,,
10,9,2012,B,69.01870167932782,58.58356385948322,3.450935083966391,0.9202284692103052,A,815.3485830007412,Incorrect,sub_010_day_09_data.csv,0,300,80.0,Training at home,,,,,,,,,,,,,
10,9,2013,B,40.703238472439665,17.55192346196311,2.0351619236219833,0.2757049690223682,B,589.3599589999212,Correct,sub_010_day_09_data.csv,1,300,80.0,Training at home,,,,,,,,,,,,,
10,9,2014,A,38.12538130191656,60.552732026236185,1.906269065095828,0.951160090442075,A,890.810208999028,Correct,sub_010_day_09_data.csv,1,300,80.0,Training at home,,,,,,,,,,,,,
10,9,2015,B,43.82280497873529,30.997553804750908,2.1911402489367644,0.486908436561299,B,1597.450499999468,Correct,sub_010_day_09_data.csv,1,300,80.0,Training at home,,,,,,,,,,,,,
10,9,2016,B,71.41306994197134,55.8839508267297,3.5706534970985673,0.8778230468541364,A,632.4751669999387,Incorrect,sub_010_day_09_data.csv,0,300,80.0,Training at home,,,,,,,,,,,,,
10,9,2017,B,60.47666931744307,39.46050832520568,3.023833465872154,0.6198442153069251,B,608.1944170000497,Correct,sub_010_day_09_data.csv,1,300,80.0,Training at home,,,,,,,,,,,,,
10,9,2018,A,28.59589504653412,54.86918234119359,1.4297947523267058,0.861883100757863,A,633.3660839991353,Correct,sub_010_day_09_data.csv,1,300,80.0,Training at home,,,,,,,,,,,,,
10,9,2019,B,67.0179124774361,37.2412297604741,3.350895623871805,0.5849838691307749,B,583.9759170012258,Correct,sub_010_day_09_data.csv,1,300,80.0,Training at home,,,,,,,,,,,,,
10,9,2020,B,31.17547972775433,12.482707548502136,1.5587739863877164,0.1960779116564208,B,811.9727089997468,Correct,sub_010_day_09_data.csv,1,300,80.0,Training at home,,,,,,,,,,,,,
10,9,2021,B,51.49501917887838,30.730376423040312,2.574750958943919,0.4827116240633621,B,584.9731660000543,Correct,sub_010_day_09_data.csv,1,300,80.0,Training at home,,,,,,,,,,,,,
10,9,2022,A,36.737681617726224,58.8044822023643,1.8368840808863112,0.923698646425497,A,566.8075840003439,Correct,sub_010_day_09_data.csv,1,300,80.0,Training at home,,,,,,,,,,,,,
10,9,2023,B,88.09428674044788,68.51094607883286,4.404714337022394,1.0761674244587387,A,863.5207090010226,Incorrect,sub_010_day_09_data.csv,0,300,80.0,Training at home,,,,,,,,,,,,,
10,9,2024,B,44.945822932775854,30.301319185365664,2.247291146638793,0.4759720087341211,B,557.4447079998208,Correct,sub_010_day_09_data.csv,1,300,80.0,Training at home,,,,,,,,,,,,,
10,9,2025,B,82.06124177045632,60.8685867919485,4.103062088522816,0.9561215254998908,B,678.1106670005101,Correct,sub_010_day_09_data.csv,1,300,81.0,Training at home,,,,,,,,,,,,,
10,9,2026,B,39.25522849777843,21.10246028707687,1.9627614248889216,0.3314766710527553,B,471.16833300060534,Correct,sub_010_day_09_data.csv,1,300,81.0,Training at home,,,,,,,,,,,,,
10,9,2027,A,31.708425034017047,51.76932567921378,1.5854212517008524,0.8131906661755772,A,1450.164459000007,Correct,sub_010_day_09_data.csv,1,300,81.0,Training at home,,,,,,,,,,,,,
10,9,2028,A,37.17304771084584,46.32420934910408,1.8586523855422925,0.7276589788725049,B,651.79583400095,Incorrect,sub_010_day_09_data.csv,0,300,81.0,Training at home,,,,,,,,,,,,,
10,9,2029,B,81.30765835142003,59.663164777430325,4.065382917571002,0.937186800773462,B,626.7748750015016,Correct,sub_010_day_09_data.csv,1,300,81.0,Training at home,,,,,,,,,,,,,
10,9,2030,B,84.44469991983999,65.29937501955865,4.222234995991999,1.0257201842272516,B,757.1991250006249,Correct,sub_010_day_09_data.csv,1,300,81.0,Training at home,,,,,,,,,,,,,
10,9,2031,A,11.1971529217482,32.64995086599379,0.55985764608741,0.512864228903369,A,536.249583999961,Correct,sub_010_day_09_data.csv,1,300,81.0,Training at home,,,,,,,,,,,,,
10,9,2032,B,60.50689971073514,40.78285882401536,3.0253449855367567,0.6406156483695817,B,525.8163329999661,Correct,sub_010_day_09_data.csv,1,300,81.0,Training at home,,,,,,,,,,,,,
10,9,2033,A,57.01515385994722,68.05549851398104,2.8507576929973606,1.0690132708395694,B,737.197833999744,Incorrect,sub_010_day_09_data.csv,0,300,81.0,Training at home,,,,,,,,,,,,,
10,9,2034,B,45.291022458681034,21.33306164714296,2.264551122934052,0.3350989487462125,B,530.9713749993534,Correct,sub_010_day_09_data.csv,1,300,81.0,Training at home,,,,,,,,,,,,,
10,9,2035,A,28.5939602846712,46.32886192438363,1.4296980142335602,0.7277320613540973,A,824.7267909991933,Correct,sub_010_day_09_data.csv,1,300,81.0,Training at home,,,,,,,,,,,,,
10,9,2036,A,23.02187171653005,54.399682001353305,1.1510935858265026,0.8545082066653623,A,594.4782080005098,Correct,sub_010_day_09_data.csv,1,300,81.0,Training at home,,,,,,,,,,,,,
10,9,2037,B,62.21725578876162,47.078594711762626,3.110862789438081,0.7395088364390238,B,1014.0562500000668,Correct,sub_010_day_09_data.csv,1,300,81.0,Training at home,,,,,,,,,,,,,
10,9,2038,A,53.81296469655703,82.20511636736333,2.690648234827852,1.2912749483360135,A,545.5570419999276,Correct,sub_010_day_09_data.csv,1,300,81.0,Training at home,,,,,,,,,,,,,
10,9,2039,A,31.09221718529934,54.560000322363344,1.554610859264967,0.8570264809629671,A,600.771249999525,Correct,sub_010_day_09_data.csv,1,300,81.0,Training at home,,,,,,,,,,,,,
10,9,2040,B,55.38037960895214,42.13162551662852,2.769018980447606,0.661802026034182,B,965.670334000606,Correct,sub_010_day_09_data.csv,1,300,81.0,Training at home,,,,,,,,,,,,,
10,9,2041,A,20.797031530358957,46.5022214974929,1.039851576517948,0.7304551871606451,A,517.6839579999069,Correct,sub_010_day_09_data.csv,1,300,81.0,Training at home,,,,,,,,,,,,,
10,9,2042,B,61.51132656803747,48.445954958647185,3.075566328401873,0.76098728097114,B,598.2876669986581,Correct,sub_010_day_09_data.csv,1,300,81.0,Training at home,,,,,,,,,,,,,
10,9,2043,A,11.601801125436731,34.40115236153411,0.5800900562718367,0.5403720376700937,A,527.7260420007224,Correct,sub_010_day_09_data.csv,1,300,81.0,Training at home,,,,,,,,,,,,,
10,9,2044,B,42.16085726913852,17.708519383424893,2.1080428634569257,0.2781647720046005,B,475.19775000000664,Correct,sub_010_day_09_data.csv,1,300,81.0,Training at home,,,,,,,,,,,,,
10,9,2045,A,42.97370809108267,59.03939069588992,2.1486854045541337,0.9273885804131268,A,690.0485000005574,Correct,sub_010_day_09_data.csv,1,300,81.0,Training at home,,,,,,,,,,,,,
10,9,2046,B,49.546163919138536,40.45089735185571,2.477308195956927,0.6354012097585238,B,561.2828749999608,Correct,sub_010_day_09_data.csv,1,300,81.0,Training at home,,,,,,,,,,,,,
10,9,2047,B,50.84161342448559,25.42859869333842,2.542080671224279,0.3994314942303749,B,499.575833999188,Correct,sub_010_day_09_data.csv,1,300,81.0,Training at home,,,,,,,,,,,,,
10,9,2048,B,63.221662574227615,53.51104573900537,3.1610831287113808,0.8405495408978333,B,726.1804160007159,Correct,sub_010_day_09_data.csv,1,300,81.0,Training at home,,,,,,,,,,,,,
10,9,2049,B,52.3190350177576,34.29223972744282,2.61595175088788,0.538661242014372,B,405.8600829994248,Correct,sub_010_day_09_data.csv,1,300,81.0,Training at home,,,,,,,,,,,,,
10,9,2050,A,15.292707098739651,40.17382801630524,0.7646353549369826,0.6310490148130217,A,605.8893749996059,Correct,sub_010_day_09_data.csv,1,300,82.0,Training at home,,,,,,,,,,,,,
10,9,2051,B,36.59295108711269,24.061362073390953,1.8296475543556343,0.3779549916256454,B,561.9591250015219,Correct,sub_010_day_09_data.csv,1,300,82.0,Training at home,,,,,,,,,,,,,
10,9,2052,A,54.75363002421852,76.97635426225973,2.7376815012109263,1.2091417452522026,A,548.8227080004435,Correct,sub_010_day_09_data.csv,1,300,82.0,Training at home,,,,,,,,,,,,,
10,9,2053,A,36.39122775057648,69.02096833302157,1.819561387528824,1.0841788352933717,A,493.2963329993072,Correct,sub_010_day_09_data.csv,1,300,82.0,Training at home,,,,,,,,,,,,,
10,9,2054,A,46.65112005731333,74.20032720348148,2.3325560028656667,1.1655360141820816,A,442.1993329997349,Correct,sub_010_day_09_data.csv,1,300,82.0,Training at home,,,,,,,,,,,,,
10,9,2055,A,66.69270219119852,82.745720442645,3.334635109559926,1.2997667372930413,B,958.5875000011584,Incorrect,sub_010_day_09_data.csv,0,300,82.0,Training at home,,,,,,,,,,,,,
10,9,2056,A,18.326037433526366,33.24433427312847,0.9163018716763184,0.522200781629719,A,534.0454580000369,Correct,sub_010_day_09_data.csv,1,300,82.0,Training at home,,,,,,,,,,,,,
10,9,2057,B,43.75360323687629,29.945102758628735,2.187680161843814,0.4703765741874974,B,542.2879999987344,Correct,sub_010_day_09_data.csv,1,300,82.0,Training at home,,,,,,,,,,,,,
10,9,2058,B,89.29695556775988,66.1730071038288,4.464847778387994,1.0394431649166689,B,620.1953339987085,Correct,sub_010_day_09_data.csv,1,300,82.0,Training at home,,,,,,,,,,,,,
10,9,2059,A,28.68300286568898,57.97667072140607,1.434150143284449,0.9106954140898188,A,661.2462920002145,Correct,sub_010_day_09_data.csv,1,300,82.0,Training at home,,,,,,,,,,,,,
10,9,2060,A,44.15679185322431,74.41687298780937,2.2078395926612155,1.1689375074081332,A,623.6657079989527,Correct,sub_010_day_09_data.csv,1,300,82.0,Training at home,,,,,,,,,,,,,
10,9,2061,A,50.645905846300565,73.46490483742981,2.532295292315028,1.1539840266697137,A,488.9334590006911,Correct,sub_010_day_09_data.csv,1,300,82.0,Training at home,,,,,,,,,,,,,
10,9,2062,A,11.356193737092571,36.964199095143805,0.5678096868546285,0.5806322816156713,A,570.5142080005317,Correct,sub_010_day_09_data.csv,1,300,82.0,Training at home,,,,,,,,,,,,,
10,9,2063,A,37.094570288102574,51.00104594312606,1.8547285144051289,0.8011225563016017,A,650.6425829993532,Correct,sub_010_day_09_data.csv,1,300,82.0,Training at home,,,,,,,,,,,,,
10,9,2064,A,22.563521425064955,37.608483006090296,1.1281760712532476,0.5907526696229493,A,938.0694160008716,Correct,sub_010_day_09_data.csv,1,300,82.0,Training at home,,,,,,,,,,,,,
10,9,2065,B,40.84647776671881,26.10005451339075,2.0423238883359405,0.4099786975878075,B,527.1880410000449,Correct,sub_010_day_09_data.csv,1,300,82.0,Training at home,,,,,,,,,,,,,
10,9,2066,B,86.16457679290875,58.805922179066044,4.308228839645437,0.9237212655266348,B,592.034875000536,Correct,sub_010_day_09_data.csv,1,300,82.0,Training at home,,,,,,,,,,,,,
10,9,2067,A,44.65231525327524,59.40594917667256,2.232615762663762,0.9331464675648158,B,581.1394159991323,Incorrect,sub_010_day_09_data.csv,0,300,82.0,Training at home,,,,,,,,,,,,,
10,9,2068,A,19.377573035487007,47.36171755514828,0.9688786517743504,0.743956119663243,A,494.0274580003461,Correct,sub_010_day_09_data.csv,1,300,82.0,Training at home,,,,,,,,,,,,,
10,9,2069,B,39.75983841696271,25.91436533043784,1.9879919208481351,0.4070618987227277,B,972.4890419984148,Correct,sub_010_day_09_data.csv,1,300,82.0,Training at home,,,,,,,,,,,,,
10,9,2070,B,52.567702322786104,40.239855176722855,2.628385116139305,0.6320861670235486,B,866.4987499996641,Correct,sub_010_day_09_data.csv,1,300,82.0,Training at home,,,,,,,,,,,,,
10,9,2071,A,13.049252878356512,35.91761063915595,0.6524626439178256,0.5641925085923548,A,525.7107079996786,Correct,sub_010_day_09_data.csv,1,300,82.0,Training at home,,,,,,,,,,,,,
10,9,2072,B,72.68054192098292,50.816633047355296,3.634027096049146,0.7982258053086985,B,680.5020419997163,Correct,sub_010_day_09_data.csv,1,300,82.0,Training at home,,,,,,,,,,,,,
10,9,2073,B,53.816966467390785,32.80552196382287,2.690848323369539,0.5153079339936226,B,507.6177920000191,Correct,sub_010_day_09_data.csv,1,300,82.0,Training at home,,,,,,,,,,,,,
10,9,2074,A,31.128903377096226,43.088291922159115,1.5564451688548109,0.6768293067919375,A,709.4889999989391,Correct,sub_010_day_09_data.csv,1,300,82.0,Training at home,,,,,,,,,,,,,
10,9,2075,B,74.8228939371557,53.394341972649855,3.741144696857785,0.8387163624226895,B,659.2697920004866,Correct,sub_010_day_09_data.csv,1,300,83.0,Training at home,,,,,,,,,,,,,
10,9,2076,B,88.23342290190445,66.60021682185646,4.411671145095222,1.046153759475158,B,649.0912089993799,Correct,sub_010_day_09_data.csv,1,300,83.0,Training at home,,,,,,,,,,,,,
10,9,2077,B,63.97061438185481,49.413843555709775,3.1985307190927403,0.7761908395012659,B,981.209374998798,Correct,sub_010_day_09_data.csv,1,300,83.0,Training at home,,,,,,,,,,,,,
10,9,2078,B,68.91591958971031,53.19548850314905,3.4457959794855157,0.8355927794280669,B,623.6820829999488,Correct,sub_010_day_09_data.csv,1,300,83.0,Training at home,,,,,,,,,,,,,
10,9,2079,A,60.56468093445557,78.71273510397471,3.028234046722779,1.2364167517330318,A,495.4237500005547,Correct,sub_010_day_09_data.csv,1,300,83.0,Training at home,,,,,,,,,,,,,
10,9,2080,A,38.33985544860673,50.260412714117706,1.9169927724303364,0.7894887167453162,B,616.2982500009093,Incorrect,sub_010_day_09_data.csv,0,300,83.0,Training at home,,,,,,,,,,,,,
10,9,2081,B,46.238628379536635,30.80967243738445,2.311931418976832,0.4839572029439746,B,527.3342500004219,Correct,sub_010_day_09_data.csv,1,300,83.0,Training at home,,,,,,,,,,,,,
10,9,2082,A,42.02207108513672,48.953365715969234,2.1011035542568357,0.768957670508917,A,856.741958999919,Correct,sub_010_day_09_data.csv,1,300,83.0,Training at home,,,,,,,,,,,,,
10,9,2083,B,64.64081831964822,42.75402885807682,3.2320409159824113,0.6715787148595007,B,608.737624999776,Correct,sub_010_day_09_data.csv,1,300,83.0,Training at home,,,,,,,,,,,,,
10,9,2084,B,32.530595156423175,13.948477562932894,1.6265297578211588,0.2191021732023602,B,794.145292000394,Correct,sub_010_day_09_data.csv,1,300,83.0,Training at home,,,,,,,,,,,,,
10,9,2085,A,27.793111478574936,51.03168596515698,1.3896555739287466,0.8016038486421928,A,538.420374999987,Correct,sub_010_day_09_data.csv,1,300,83.0,Training at home,,,,,,,,,,,,,
10,9,2086,B,43.51979878597064,18.157882887104172,2.175989939298532,0.2852233574143515,B,477.3566669991851,Correct,sub_010_day_09_data.csv,1,300,83.0,Training at home,,,,,,,,,,,,,
10,9,2087,B,54.678681698330955,23.599910062328195,2.7339340849165477,0.3707065203859505,B,540.001041999858,Correct,sub_010_day_09_data.csv,1,300,83.0,Training at home,,,,,,,,,,,,,
10,9,2088,B,61.80045328986461,53.65320061816883,3.090022664493231,0.8427825045180928,B,923.5982910013264,Correct,sub_010_day_09_data.csv,1,300,83.0,Training at home,,,,,,,,,,,,,
10,9,2089,A,46.74008493849029,62.24593054189339,2.3370042469245145,0.977756790531364,A,554.5017089989415,Correct,sub_010_day_09_data.csv,1,300,83.0,Training at home,,,,,,,,,,,,,
10,9,2090,A,57.20600633520207,78.5831884678859,2.8603003167601035,1.2343818379318623,B,1034.497915999964,Incorrect,sub_010_day_09_data.csv,0,300,83.0,Training at home,,,,,,,,,,,,,
10,9,2091,A,53.94129978639241,82.75076075921935,2.697064989319621,1.2998459104006503,A,580.8634169989091,Correct,sub_010_day_09_data.csv,1,300,83.0,Training at home,,,,,,,,,,,,,
10,9,2092,A,68.4083511614027,87.56241234763101,3.4204175580701355,1.3754271568095888,A,1308.4010420006962,Correct,sub_010_day_09_data.csv,1,300,83.0,Training at home,,,,,,,,,,,,,
10,9,2093,A,22.43101814568601,49.5377388558941,1.1215509072843006,0.7781369823256327,A,645.1650420003716,Correct,sub_010_day_09_data.csv,1,300,83.0,Training at home,,,,,,,,,,,,,
10,9,2094,A,27.473411869089823,57.306117728604846,1.3736705934544913,0.9001623923096841,A,836.887958999796,Correct,sub_010_day_09_data.csv,1,300,83.0,Training at home,,,,,,,,,,,,,
10,9,2095,A,29.55848774584554,60.66922603731533,1.477924387292277,0.9529899740890422,A,888.3016250001674,Correct,sub_010_day_09_data.csv,1,300,83.0,Training at home,,,,,,,,,,,,,
10,9,2096,A,59.80143979539201,82.73700188754434,2.9900719897696,1.2996297865497708,A,729.5257090008818,Correct,sub_010_day_09_data.csv,1,300,83.0,Training at home,,,,,,,,,,,,,
10,9,2097,A,37.36137040198316,68.13723929704501,1.8680685200991576,1.070297252057432,A,1005.0434580007276,Correct,sub_010_day_09_data.csv,1,300,83.0,Training at home,,,,,,,,,,,,,
10,9,2098,B,52.01065474065441,23.42038974403856,2.6005327370327205,0.3678866218204064,B,715.7731669994973,Correct,sub_010_day_09_data.csv,1,300,83.0,Training at home,,,,,,,,,,,,,
10,9,2099,B,36.70235303553694,24.73903089728939,1.8351176517768468,0.3885997886192763,B,500.51287499991304,Correct,sub_010_day_09_data.csv,1,300,83.0,Training at home,,,,,,,,,,,,,
