subject,day,trial,cat,x,y,xt,yt,resp,rt,fb,f_name,acc,n_trials,block,session_type,ns_left_digit,ns_right_digit,ns_left_size,ns_right_size,ns_congruent,ns_cue,ns_correct_side,ns_resp,ns_rt,ns_fb,acc_stroop,acc_stroop_mean,resp_key
10,23,0,A,11.94297555709944,36.523224915829886,0.5971487778549721,0.5737054754048944,A,1466.8226659996435,Correct,sub_010_day_23_data.csv,1,600,,Button-Switch at home,,,,,,,,,,,,,k
10,23,1,A,50.276994355549945,78.50247503051916,2.5138497177774974,1.2331139942224758,A,1184.295291000126,Correct,sub_010_day_23_data.csv,1,600,,Button-Switch at home,,,,,,,,,,,,,k
10,23,2,B,54.78609338113036,35.502132518647784,2.7393046690565175,0.5576661935367759,A,645.2215819999765,Incorrect,sub_010_day_23_data.csv,0,600,,Button-Switch at home,,,,,,,,,,,,,k
10,23,3,B,37.42579728366981,14.083011562544597,1.8712898641834903,0.221215428326551,B,525.310790999356,Correct,sub_010_day_23_data.csv,1,600,,Button-Switch at home,,,,,,,,,,,,,d
10,23,4,B,45.3251579166233,26.522510422551896,2.266257895831165,0.4166146194912388,B,610.6925820004108,Correct,sub_010_day_23_data.csv,1,600,,Button-Switch at home,,,,,,,,,,,,,d
10,23,5,A,45.496276084051715,62.43557113708371,2.274813804202586,0.9807356580347256,A,722.3024570002963,Correct,sub_010_day_23_data.csv,1,600,,Button-Switch at home,,,,,,,,,,,,,k
10,23,6,A,40.308495275714385,50.19930878737203,2.015424763785719,0.7885288985084677,A,640.3359159994579,Correct,sub_010_day_23_data.csv,1,600,,Button-Switch at home,,,,,,,,,,,,,k
10,23,7,A,38.45378097039867,69.53950915947506,1.9226890485199335,1.092324055548235,A,465.301207000266,Correct,sub_010_day_23_data.csv,1,600,,Button-Switch at home,,,,,,,,,,,,,k
10,23,8,A,67.98893467089584,81.08085359340092,3.399446733544792,1.2736150699790894,A,523.2099580007343,Correct,sub_010_day_23_data.csv,1,600,,Button-Switch at home,,,,,,,,,,,,,k
10,23,9,A,19.94071943330729,41.6839582769785,0.9970359716653644,0.6547700854774955,A,498.36779099950945,Correct,sub_010_day_23_data.csv,1,600,,Button-Switch at home,,,,,,,,,,,,,k
10,23,10,A,59.94349281099902,78.6922837166006,2.997174640549951,1.2360955020913809,A,866.2213320003502,Correct,sub_010_day_23_data.csv,1,600,,Button-Switch at home,,,,,,,,,,,,,k
10,23,11,A,52.782878935806835,80.1814101468012,2.6391439467903415,1.2594866453583036,A,604.1578740005207,Correct,sub_010_day_23_data.csv,1,600,,Button-Switch at home,,,,,,,,,,,,,k
10,23,12,B,42.96072797835192,20.222591334872774,2.1480363989175957,0.3176557218709246,B,635.4419990002498,Correct,sub_010_day_23_data.csv,1,600,,Button-Switch at home,,,,,,,,,,,,,d
10,23,13,A,39.780143599342125,49.36664675544911,1.9890071799671063,0.7754494738964066,A,476.0506239999813,Correct,sub_010_day_23_data.csv,1,600,,Button-Switch at home,,,,,,,,,,,,,k
10,23,14,A,58.91161841106005,72.43784788878328,2.9455809205530024,1.1378510538462825,A,493.7233319997176,Correct,sub_010_day_23_data.csv,1,600,,Button-Switch at home,,,,,,,,,,,,,k
10,23,15,A,49.10981849584573,66.36579447428241,2.4554909247922865,1.0424714618502786,A,472.409166000034,Correct,sub_010_day_23_data.csv,1,600,,Button-Switch at home,,,,,,,,,,,,,k
10,23,16,B,73.72556302348775,51.07834259435897,3.686278151174388,0.802336729259904,A,687.2188739998819,Incorrect,sub_010_day_23_data.csv,0,600,,Button-Switch at home,,,,,,,,,,,,,k
10,23,17,B,53.27055283802025,41.35449096829828,2.6635276419010125,0.6495948250947566,A,828.3356660003847,Incorrect,sub_010_day_23_data.csv,0,600,,Button-Switch at home,,,,,,,,,,,,,k
10,23,18,B,71.19592676223003,50.56091072751809,3.559796338111502,0.7942089285019011,B,606.4475829998628,Correct,sub_010_day_23_data.csv,1,600,,Button-Switch at home,,,,,,,,,,,,,d
10,23,19,A,22.46934444044999,51.96188074197388,1.1234672220224995,0.8162153140284705,A,669.8640000004161,Correct,sub_010_day_23_data.csv,1,600,,Button-Switch at home,,,,,,,,,,,,,k
10,23,20,B,46.76887133713939,24.21812566465315,2.338443566856969,0.3804174283589438,A,859.4431239998812,Incorrect,sub_010_day_23_data.csv,0,600,,Button-Switch at home,,,,,,,,,,,,,k
10,23,21,B,60.88090814043554,44.58896680016018,3.0440454070217764,0.700401852652712,B,745.6985409999106,Correct,sub_010_day_23_data.csv,1,600,,Button-Switch at home,,,,,,,,,,,,,d
10,23,22,B,85.30873212866787,69.38569669262064,4.2654366064333935,1.089907974968733,B,1076.3607910002977,Correct,sub_010_day_23_data.csv,1,600,,Button-Switch at home,,,,,,,,,,,,,d
10,23,23,B,52.45080204344932,41.88719880742355,2.6225401021724664,0.6579625802642849,B,933.2409990001906,Correct,sub_010_day_23_data.csv,1,600,,Button-Switch at home,,,,,,,,,,,,,d
10,23,24,A,50.102287130632426,67.42390322516994,2.5051143565316214,1.059092195242715,A,668.5882500005391,Correct,sub_010_day_23_data.csv,1,600,,Button-Switch at home,,,,,,,,,,,,,k
10,23,25,A,30.741058131636535,48.14408521797638,1.5370529065818266,0.7562455221729776,A,714.9954989999969,Correct,sub_010_day_23_data.csv,1,600,,Button-Switch at home,,,,,,,,,,,,,k
10,23,26,A,49.75117627966647,76.85569379454847,2.4875588139833233,1.2072464150575006,A,687.3754580001332,Correct,sub_010_day_23_data.csv,1,600,,Button-Switch at home,,,,,,,,,,,,,k
10,23,27,A,22.7658048694784,52.84358962021084,1.1382902434739202,0.8300651647008411,A,426.73199900036707,Correct,sub_010_day_23_data.csv,1,600,,Button-Switch at home,,,,,,,,,,,,,k
10,23,28,A,27.06649923618467,42.75249330490423,1.3533249618092331,0.6715545944466697,A,581.6272489992116,Correct,sub_010_day_23_data.csv,1,600,,Button-Switch at home,,,,,,,,,,,,,k
10,23,29,B,72.14211280055994,50.389236918294664,3.6071056400279975,0.7915122826125505,A,439.09220800014737,Incorrect,sub_010_day_23_data.csv,0,600,,Button-Switch at home,,,,,,,,,,,,,k
10,23,30,B,52.90126919268763,46.16300202314527,2.6450634596343816,0.7251267401178196,A,737.7200829996582,Incorrect,sub_010_day_23_data.csv,0,600,,Button-Switch at home,,,,,,,,,,,,,k
10,23,31,B,66.91231726164345,50.95339608638162,3.345615863082173,0.8003740741021371,B,596.3874990002296,Correct,sub_010_day_23_data.csv,1,600,,Button-Switch at home,,,,,,,,,,,,,d
10,23,32,A,52.72822091071267,66.7955263605462,2.6364110455356338,1.0492216745347769,A,594.6265410002525,Correct,sub_010_day_23_data.csv,1,600,,Button-Switch at home,,,,,,,,,,,,,k
10,23,33,B,74.99722972076695,52.15188536584791,3.749861486038347,0.8191998996810241,B,610.780457999681,Correct,sub_010_day_23_data.csv,1,600,,Button-Switch at home,,,,,,,,,,,,,d
10,23,34,B,38.2999170482502,28.79863097832891,1.91499585241251,0.4523678375748076,A,570.5261660004908,Incorrect,sub_010_day_23_data.csv,0,600,,Button-Switch at home,,,,,,,,,,,,,k
10,23,35,B,69.91200020755828,56.37205307731628,3.4956000103779137,0.8854901390773534,A,946.8908739991092,Incorrect,sub_010_day_23_data.csv,0,600,,Button-Switch at home,,,,,,,,,,,,,k
10,23,36,A,64.3239011513125,78.77387332195921,3.216195057565625,1.2373771086154004,A,566.4727080002194,Correct,sub_010_day_23_data.csv,1,600,,Button-Switch at home,,,,,,,,,,,,,k
10,23,37,A,44.35097837084918,57.41131101568263,2.217548918542459,0.9018147645991366,A,591.9717490005496,Correct,sub_010_day_23_data.csv,1,600,,Button-Switch at home,,,,,,,,,,,,,k
10,23,38,A,37.2026559124705,58.59164380015544,1.860132795623525,0.9203553886215914,A,623.4884160003276,Correct,sub_010_day_23_data.csv,1,600,,Button-Switch at home,,,,,,,,,,,,,k
10,23,39,B,79.18822370501263,64.37241008422153,3.959411185250632,1.0111594530722994,B,1042.7674160000606,Correct,sub_010_day_23_data.csv,1,600,,Button-Switch at home,,,,,,,,,,,,,d
10,23,40,B,80.42595178610884,55.19517708377935,4.021297589305442,0.8670038141999444,B,753.5706660000869,Correct,sub_010_day_23_data.csv,1,600,,Button-Switch at home,,,,,,,,,,,,,d
10,23,41,A,30.04036908234488,61.81388084504222,1.502018454117244,0.9709701697632972,A,490.6954569996742,Correct,sub_010_day_23_data.csv,1,600,,Button-Switch at home,,,,,,,,,,,,,k
10,23,42,B,54.676258544447286,29.83905633156445,2.733812927222364,0.4687108008064744,B,661.2640410003223,Correct,sub_010_day_23_data.csv,1,600,,Button-Switch at home,,,,,,,,,,,,,d
10,23,43,A,63.67662491531716,82.44976701802861,3.1838312457658584,1.2951179117701437,A,562.7568740001152,Correct,sub_010_day_23_data.csv,1,600,,Button-Switch at home,,,,,,,,,,,,,k
10,23,44,A,17.369399787877924,35.339990925822406,0.8684699893938962,0.5551192793524681,A,515.9714569999778,Correct,sub_010_day_23_data.csv,1,600,,Button-Switch at home,,,,,,,,,,,,,k
10,23,45,B,41.608639096113315,13.747764429809171,2.0804319548056656,0.2159493786798578,B,844.0747909999118,Correct,sub_010_day_23_data.csv,1,600,,Button-Switch at home,,,,,,,,,,,,,d
10,23,46,A,29.24195873587172,54.38613046545444,1.462097936793586,0.8542953396372386,A,568.0142490000435,Correct,sub_010_day_23_data.csv,1,600,,Button-Switch at home,,,,,,,,,,,,,k
10,23,47,B,55.1976007729543,42.443074529229506,2.7598800386477147,0.6666942556839573,B,833.3585410000524,Correct,sub_010_day_23_data.csv,1,600,,Button-Switch at home,,,,,,,,,,,,,d
10,23,48,A,33.20054287739097,65.76679412212536,1.6600271438695486,1.033062386321107,A,517.0319579992793,Correct,sub_010_day_23_data.csv,1,600,,Button-Switch at home,,,,,,,,,,,,,k
10,23,49,A,51.65729400162611,70.05632292059586,2.5828647000813056,1.100442147124291,A,546.0838320004768,Correct,sub_010_day_23_data.csv,1,600,,Button-Switch at home,,,,,,,,,,,,,k
10,23,50,A,61.83404169116292,74.22752685325678,3.0917020845581464,1.165963265281653,A,463.87200000026496,Correct,sub_010_day_23_data.csv,1,600,,Button-Switch at home,,,,,,,,,,,,,k
10,23,51,B,89.74964782146108,68.11336547385966,4.487482391073054,1.0699222429197708,B,560.0987489997351,Correct,sub_010_day_23_data.csv,1,600,,Button-Switch at home,,,,,,,,,,,,,d
10,23,52,B,66.29164871131584,36.946089160746205,3.314582435565792,0.5803478114313688,B,694.3815829999949,Correct,sub_010_day_23_data.csv,1,600,,Button-Switch at home,,,,,,,,,,,,,d
10,23,53,B,79.38465593362108,56.258275741500086,3.9692327966810534,0.8837029288656277,B,563.712666000356,Correct,sub_010_day_23_data.csv,1,600,,Button-Switch at home,,,,,,,,,,,,,d
10,23,54,B,51.76843894043559,44.25783704466449,2.5884219470217795,0.6952004786164607,A,904.9254569999904,Incorrect,sub_010_day_23_data.csv,0,600,,Button-Switch at home,,,,,,,,,,,,,k
10,23,55,B,63.20473534291022,43.679148373973995,3.160236767145511,0.6861104582336763,B,604.3389160004153,Correct,sub_010_day_23_data.csv,1,600,,Button-Switch at home,,,,,,,,,,,,,d
10,23,56,B,66.56342904406222,39.721121183139694,3.3281714522031107,0.6239379125065078,B,456.74550000057934,Correct,sub_010_day_23_data.csv,1,600,,Button-Switch at home,,,,,,,,,,,,,d
10,23,57,B,80.12949854679573,51.501245060536704,4.006474927339786,0.8089796656645487,B,565.2533319998838,Correct,sub_010_day_23_data.csv,1,600,,Button-Switch at home,,,,,,,,,,,,,d
10,23,58,A,57.927692625723566,77.4329846192255,2.8963846312861783,1.2163144781264512,A,563.288666000517,Correct,sub_010_day_23_data.csv,1,600,,Button-Switch at home,,,,,,,,,,,,,k
10,23,59,A,26.58240070452327,39.6644977695679,1.3291200352261634,0.6230484740060163,A,583.0032499998197,Correct,sub_010_day_23_data.csv,1,600,,Button-Switch at home,,,,,,,,,,,,,k
10,23,60,A,29.56094893717988,57.98073077382709,1.478047446858994,0.910759189244114,A,510.7476659995882,Correct,sub_010_day_23_data.csv,1,600,,Button-Switch at home,,,,,,,,,,,,,k
10,23,61,A,34.201801751231955,61.22899111832661,1.7100900875615976,0.961782743420248,A,552.0756660007464,Correct,sub_010_day_23_data.csv,1,600,,Button-Switch at home,,,,,,,,,,,,,k
10,23,62,A,62.01277954715019,83.79253690570812,3.1006389773575096,1.3162100918431214,A,722.9678739995506,Correct,sub_010_day_23_data.csv,1,600,,Button-Switch at home,,,,,,,,,,,,,k
10,23,63,A,56.99086221829975,81.21748070661607,2.8495431109149876,1.275761203654879,A,546.9520830001784,Correct,sub_010_day_23_data.csv,1,600,,Button-Switch at home,,,,,,,,,,,,,k
10,23,64,A,26.394581877219892,48.69539822464506,1.3197290938609945,0.764905526630872,A,522.5281659995744,Correct,sub_010_day_23_data.csv,1,600,,Button-Switch at home,,,,,,,,,,,,,k
10,23,65,A,28.867583422454334,43.82487660442323,1.443379171122717,0.6883995519246762,A,657.4231249996956,Correct,sub_010_day_23_data.csv,1,600,,Button-Switch at home,,,,,,,,,,,,,k
10,23,66,A,29.347944140107863,53.520338555593085,1.4673972070053931,0.840695512119449,A,682.859790999828,Correct,sub_010_day_23_data.csv,1,600,,Button-Switch at home,,,,,,,,,,,,,k
10,23,67,A,19.668473315864254,48.41950486593668,0.9834236657932126,0.7605718038864095,A,480.5786659999285,Correct,sub_010_day_23_data.csv,1,600,,Button-Switch at home,,,,,,,,,,,,,k
10,23,68,B,30.077377751807905,12.47166015117918,1.5038688875903952,0.1959043795450654,B,1176.3762070004304,Correct,sub_010_day_23_data.csv,1,600,,Button-Switch at home,,,,,,,,,,,,,d
10,23,69,B,61.115122306892985,35.4184038355951,3.0557561153446495,0.5563509864589106,B,544.76324999996,Correct,sub_010_day_23_data.csv,1,600,,Button-Switch at home,,,,,,,,,,,,,d
10,23,70,A,53.613473394379525,79.68683614650499,2.6806736697189764,1.2517178951283685,A,554.7600410000086,Correct,sub_010_day_23_data.csv,1,600,,Button-Switch at home,,,,,,,,,,,,,k
10,23,71,B,78.7342251924785,48.08286632909348,3.9367112596239258,0.7552838981151004,B,614.4324999995661,Correct,sub_010_day_23_data.csv,1,600,,Button-Switch at home,,,,,,,,,,,,,d
10,23,72,A,56.5282541483768,83.81110434380084,2.82641270741884,1.3165017484786616,A,549.7219989993027,Correct,sub_010_day_23_data.csv,1,600,,Button-Switch at home,,,,,,,,,,,,,k
10,23,73,A,59.361712207892154,78.43760563207748,2.9680856103946076,1.2320950280945395,A,524.0854579997176,Correct,sub_010_day_23_data.csv,1,600,,Button-Switch at home,,,,,,,,,,,,,k
10,23,74,B,38.89335237004013,22.537849716916735,1.9446676185020064,0.3540237154918821,B,596.8791240002247,Correct,sub_010_day_23_data.csv,1,600,,Button-Switch at home,,,,,,,,,,,,,d
10,23,75,B,70.31552239333635,58.57920789988312,3.515776119666817,0.92016004595691,B,820.3989159992489,Correct,sub_010_day_23_data.csv,1,600,,Button-Switch at home,,,,,,,,,,,,,d
10,23,76,B,57.37493674446192,35.287285906754626,2.868746837223096,0.5542913908489149,B,577.7095409994217,Correct,sub_010_day_23_data.csv,1,600,,Button-Switch at home,,,,,,,,,,,,,d
10,23,77,A,44.57611367050318,60.678041785372805,2.228805683525159,0.9531284515357084,A,984.8929579993636,Correct,sub_010_day_23_data.csv,1,600,,Button-Switch at home,,,,,,,,,,,,,k
10,23,78,B,54.25381771070596,46.69522427778551,2.712690885535298,0.7334868677440936,B,483.954540999548,Correct,sub_010_day_23_data.csv,1,600,,Button-Switch at home,,,,,,,,,,,,,d
10,23,79,B,88.62561636090089,63.46130887179028,4.431280818045044,0.9968479086940456,B,578.2646240004397,Correct,sub_010_day_23_data.csv,1,600,,Button-Switch at home,,,,,,,,,,,,,d
10,23,80,B,65.19919656988115,53.38485186022482,3.2599598284940576,0.8385672920853086,B,721.2841250002384,Correct,sub_010_day_23_data.csv,1,600,,Button-Switch at home,,,,,,,,,,,,,d
10,23,81,B,58.31099479342684,46.31202260754762,2.9155497396713423,0.7274675499837799,B,604.1298320005808,Correct,sub_010_day_23_data.csv,1,600,,Button-Switch at home,,,,,,,,,,,,,d
10,23,82,A,65.27559637485982,86.09146714315862,3.2637798187429907,1.3523216035685708,A,664.192999000079,Correct,sub_010_day_23_data.csv,1,600,,Button-Switch at home,,,,,,,,,,,,,k
10,23,83,B,63.863910888901025,37.0973215833837,3.193195544445051,0.5827233647710816,B,571.1490410003535,Correct,sub_010_day_23_data.csv,1,600,,Button-Switch at home,,,,,,,,,,,,,d
10,23,84,A,29.795495973828835,53.49864524951434,1.4897747986914418,0.8403547544644037,A,631.6026249987772,Correct,sub_010_day_23_data.csv,1,600,,Button-Switch at home,,,,,,,,,,,,,k
10,23,85,B,67.18776450172882,58.377525551523064,3.3593882250864406,0.9169920270370764,B,681.0449989989138,Correct,sub_010_day_23_data.csv,1,600,,Button-Switch at home,,,,,,,,,,,,,d
10,23,86,A,39.69764133016184,58.88493910904837,1.984882066508092,0.9249624605603431,A,507.1838329986349,Correct,sub_010_day_23_data.csv,1,600,,Button-Switch at home,,,,,,,,,,,,,k
10,23,87,B,76.64840698485888,59.47576578660732,3.832420349242944,0.9342431443091636,B,554.4285410014709,Correct,sub_010_day_23_data.csv,1,600,,Button-Switch at home,,,,,,,,,,,,,d
10,23,88,B,65.62091983079242,43.96921791580938,3.2810459915396213,0.6906668599419773,B,581.405208000433,Correct,sub_010_day_23_data.csv,1,600,,Button-Switch at home,,,,,,,,,,,,,d
10,23,89,A,58.78502147884067,70.62558332668749,2.939251073942034,1.109384068673076,A,1024.970000000394,Correct,sub_010_day_23_data.csv,1,600,,Button-Switch at home,,,,,,,,,,,,,k
10,23,90,B,72.98675141112392,53.160582073158416,3.649337570556196,0.8350444705079586,B,768.9842489999137,Correct,sub_010_day_23_data.csv,1,600,,Button-Switch at home,,,,,,,,,,,,,d
10,23,91,B,64.87440731100176,36.46689103865315,3.2437203655500877,0.572820584931461,B,626.1617910004134,Correct,sub_010_day_23_data.csv,1,600,,Button-Switch at home,,,,,,,,,,,,,d
10,23,92,A,63.06638220159979,78.67031294724475,3.1533191100799893,1.2357503860533707,A,1144.61558199946,Correct,sub_010_day_23_data.csv,1,600,,Button-Switch at home,,,,,,,,,,,,,k
10,23,93,B,48.20022848264264,36.437668469433746,2.410011424132132,0.5723615578875676,B,594.5049160000053,Correct,sub_010_day_23_data.csv,1,600,,Button-Switch at home,,,,,,,,,,,,,d
10,23,94,A,39.18159118067636,50.62375028051686,1.9590795590338177,0.7951960098921801,A,690.4935410002508,Correct,sub_010_day_23_data.csv,1,600,,Button-Switch at home,,,,,,,,,,,,,k
10,23,95,A,34.17426962637461,54.177597608068496,1.7087134813187306,0.8510197131732596,A,867.9342070008715,Correct,sub_010_day_23_data.csv,1,600,,Button-Switch at home,,,,,,,,,,,,,k
10,23,96,A,37.45076130405995,54.180185361785625,1.8725380652029977,0.8510603615135949,A,590.6922499998473,Correct,sub_010_day_23_data.csv,1,600,,Button-Switch at home,,,,,,,,,,,,,k
10,23,97,B,56.1327052876687,42.23851156877398,2.806635264383435,0.663480988215139,A,746.6690829987783,Incorrect,sub_010_day_23_data.csv,0,600,,Button-Switch at home,,,,,,,,,,,,,k
10,23,98,A,61.980741802800864,76.93516057273092,3.0990370901400435,1.208494676290213,A,764.7472079988802,Correct,sub_010_day_23_data.csv,1,600,,Button-Switch at home,,,,,,,,,,,,,k
10,23,99,B,68.62440082164989,48.6692175211367,3.4312200410824945,0.7644942811018336,B,797.6767910004128,Correct,sub_010_day_23_data.csv,1,600,,Button-Switch at home,,,,,,,,,,,,,d
10,23,100,B,75.16657153780915,61.55305954962628,3.7583285768904577,0.9668731984354048,A,737.3457489993598,Incorrect,sub_010_day_23_data.csv,0,600,,Button-Switch at home,,,,,,,,,,,,,k
10,23,101,B,42.62412428121252,26.444267191856785,2.131206214060626,0.4153855776975144,B,462.4364989995229,Correct,sub_010_day_23_data.csv,1,600,,Button-Switch at home,,,,,,,,,,,,,d
10,23,102,B,49.42055109728471,39.16690343642717,2.4710275548642353,0.615232280498702,B,748.4009579984559,Correct,sub_010_day_23_data.csv,1,600,,Button-Switch at home,,,,,,,,,,,,,d
10,23,103,A,21.523418188082935,46.63403490774609,1.0761709094041467,0.7325257073671254,A,547.4382489992422,Correct,sub_010_day_23_data.csv,1,600,,Button-Switch at home,,,,,,,,,,,,,k
10,23,104,B,40.43003722110272,16.23086872837647,2.0215018610551363,0.2549538897922391,B,568.3336239999335,Correct,sub_010_day_23_data.csv,1,600,,Button-Switch at home,,,,,,,,,,,,,d
10,23,105,B,48.00153947339196,31.729461127641493,2.400076973669598,0.4984052099048071,B,562.528000000384,Correct,sub_010_day_23_data.csv,1,600,,Button-Switch at home,,,,,,,,,,,,,d
10,23,106,A,40.811460275511784,64.86521204739526,2.0405730137755893,1.0189003682082054,A,1559.7463329995662,Correct,sub_010_day_23_data.csv,1,600,,Button-Switch at home,,,,,,,,,,,,,k
10,23,107,A,65.35441984418662,86.20289611767787,3.2677209922093313,1.3540719258073044,A,664.507458001026,Correct,sub_010_day_23_data.csv,1,600,,Button-Switch at home,,,,,,,,,,,,,k
10,23,108,A,53.81970775293941,77.03211743820424,2.69098538764697,1.210017671171643,A,692.9826240011607,Correct,sub_010_day_23_data.csv,1,600,,Button-Switch at home,,,,,,,,,,,,,k
10,23,109,A,33.102595035413046,50.38138910181977,1.6551297517706525,0.7913890093996293,A,631.1558319994219,Correct,sub_010_day_23_data.csv,1,600,,Button-Switch at home,,,,,,,,,,,,,k
10,23,110,A,18.27294346885756,48.302717005313994,0.913647173442878,0.7587373044616061,A,588.8756240001385,Correct,sub_010_day_23_data.csv,1,600,,Button-Switch at home,,,,,,,,,,,,,k
10,23,111,A,51.86829169845139,62.59016660721171,2.5934145849225696,0.9831640380008874,A,621.8565409999428,Correct,sub_010_day_23_data.csv,1,600,,Button-Switch at home,,,,,,,,,,,,,k
10,23,112,A,49.13016191399548,62.50770476348199,2.4565080956997742,0.9818687303885736,A,468.4224159991573,Correct,sub_010_day_23_data.csv,1,600,,Button-Switch at home,,,,,,,,,,,,,k
10,23,113,B,53.386585386375096,42.54917031344611,2.669329269318755,0.6683608043653161,B,916.6172909990564,Correct,sub_010_day_23_data.csv,1,600,,Button-Switch at home,,,,,,,,,,,,,d
10,23,114,A,48.5873597985991,70.6555689669862,2.429367989929955,1.109855082009454,A,624.1519989998778,Correct,sub_010_day_23_data.csv,1,600,,Button-Switch at home,,,,,,,,,,,,,k
10,23,115,B,36.76142253182907,23.29524553718249,1.838071126591453,0.3659208612159145,B,524.8579159997462,Correct,sub_010_day_23_data.csv,1,600,,Button-Switch at home,,,,,,,,,,,,,d
10,23,116,B,71.95385462513116,39.709745367731706,3.597692731256558,0.6237592216159362,B,568.2929989998229,Correct,sub_010_day_23_data.csv,1,600,,Button-Switch at home,,,,,,,,,,,,,d
10,23,117,B,40.96026834662432,28.008800102542768,2.048013417331216,0.4399612031900669,B,588.4208330007823,Correct,sub_010_day_23_data.csv,1,600,,Button-Switch at home,,,,,,,,,,,,,d
10,23,118,A,64.76202052606483,76.13485240105621,3.2381010263032413,1.1959234649265071,A,633.8690409993433,Correct,sub_010_day_23_data.csv,1,600,,Button-Switch at home,,,,,,,,,,,,,k
10,23,119,B,68.05169505229603,44.62146519703767,3.4025847526148016,0.7009123362771309,B,569.8368329994992,Correct,sub_010_day_23_data.csv,1,600,,Button-Switch at home,,,,,,,,,,,,,d
10,23,120,B,42.27141321392627,24.265655849147873,2.113570660696314,0.3811640307511058,B,480.2305829998659,Correct,sub_010_day_23_data.csv,1,600,,Button-Switch at home,,,,,,,,,,,,,d
10,23,121,A,37.550181158612034,69.58701594447874,1.8775090579306015,1.0930702903820508,A,809.4714580001892,Correct,sub_010_day_23_data.csv,1,600,,Button-Switch at home,,,,,,,,,,,,,k
10,23,122,B,47.30740357330508,35.92980348297309,2.3653701786652537,0.5643840333351661,B,647.5722909999604,Correct,sub_010_day_23_data.csv,1,600,,Button-Switch at home,,,,,,,,,,,,,d
10,23,123,A,22.9142872209556,38.49813056374924,1.14571436104778,0.6047272207800765,A,481.9335409993073,Correct,sub_010_day_23_data.csv,1,600,,Button-Switch at home,,,,,,,,,,,,,k
10,23,124,A,41.3311840817779,56.36501047499059,2.066559204088895,0.885379514138711,A,588.5492910001631,Correct,sub_010_day_23_data.csv,1,600,,Button-Switch at home,,,,,,,,,,,,,k
10,23,125,A,35.34846208291791,67.91788400220318,1.7674231041458954,1.066851627143426,A,568.754957001147,Correct,sub_010_day_23_data.csv,1,600,,Button-Switch at home,,,,,,,,,,,,,k
10,23,126,A,47.26001057777889,63.90464289681501,2.3630005288889446,1.003811783274566,A,599.594874000104,Correct,sub_010_day_23_data.csv,1,600,,Button-Switch at home,,,,,,,,,,,,,k
10,23,127,A,55.67982631679333,72.52669392417545,2.7839913158396667,1.1392466441067253,A,496.62570799955574,Correct,sub_010_day_23_data.csv,1,600,,Button-Switch at home,,,,,,,,,,,,,k
10,23,128,A,22.09547118658435,45.914708334104766,1.1047735593292176,0.7212265519707077,A,770.9554989996832,Correct,sub_010_day_23_data.csv,1,600,,Button-Switch at home,,,,,,,,,,,,,k
10,23,129,A,39.51778505085854,67.50256453598502,1.9758892525429272,1.0603278042236073,A,661.4644159999443,Correct,sub_010_day_23_data.csv,1,600,,Button-Switch at home,,,,,,,,,,,,,k
10,23,130,B,38.25177678679734,25.160308223703773,1.9125888393398671,0.3952171973882132,B,984.9895820007076,Correct,sub_010_day_23_data.csv,1,600,,Button-Switch at home,,,,,,,,,,,,,d
10,23,131,A,59.18774451070112,82.21755344060027,2.9593872255350555,1.2914703094255802,A,494.494874999873,Correct,sub_010_day_23_data.csv,1,600,,Button-Switch at home,,,,,,,,,,,,,k
10,23,132,B,76.12448694249832,51.549640417967915,3.806224347124916,0.8097398581614174,B,712.3324160002085,Correct,sub_010_day_23_data.csv,1,600,,Button-Switch at home,,,,,,,,,,,,,d
10,23,133,A,30.969236952861284,42.67037376230625,1.5484618476430645,0.6702646636879599,B,419.75204099981056,Incorrect,sub_010_day_23_data.csv,0,600,,Button-Switch at home,,,,,,,,,,,,,d
10,23,134,B,52.22447961271152,36.82377095622853,2.611223980635576,0.5784264415678037,B,738.9763750015845,Correct,sub_010_day_23_data.csv,1,600,,Button-Switch at home,,,,,,,,,,,,,d
10,23,135,B,87.58104636713642,68.35679729020762,4.3790523183568215,1.0737460609492149,B,927.6627490016836,Correct,sub_010_day_23_data.csv,1,600,,Button-Switch at home,,,,,,,,,,,,,d
10,23,136,A,40.21776011120278,72.12664365979427,2.010888005560139,1.1329626692484926,A,529.6954990008089,Correct,sub_010_day_23_data.csv,1,600,,Button-Switch at home,,,,,,,,,,,,,k
10,23,137,B,89.09142453614692,68.56525255262076,4.454571226807346,1.077020468554211,B,696.9582500005345,Correct,sub_010_day_23_data.csv,1,600,,Button-Switch at home,,,,,,,,,,,,,d
10,23,138,B,89.36639386714644,63.914599335049246,4.468319693357322,1.003968178640629,B,823.4108750002633,Correct,sub_010_day_23_data.csv,1,600,,Button-Switch at home,,,,,,,,,,,,,d
10,23,139,B,39.26504534722572,23.66840778965281,1.9632522673612864,0.3717824801707036,B,496.781623998686,Correct,sub_010_day_23_data.csv,1,600,,Button-Switch at home,,,,,,,,,,,,,d
10,23,140,A,20.95849118433848,35.888411515407284,1.0479245592169242,0.5637338498290543,B,604.7467080006754,Incorrect,sub_010_day_23_data.csv,0,600,,Button-Switch at home,,,,,,,,,,,,,d
10,23,141,A,62.333220235037714,79.21332780779858,3.116661011751886,1.2442800435369004,A,714.5337910005765,Correct,sub_010_day_23_data.csv,1,600,,Button-Switch at home,,,,,,,,,,,,,k
10,23,142,B,64.63180489069528,51.99137577221712,3.2315902445347637,0.8166786208801183,B,752.6467909992789,Correct,sub_010_day_23_data.csv,1,600,,Button-Switch at home,,,,,,,,,,,,,d
10,23,143,A,33.51243445042047,65.70177505831053,1.6756217225210237,1.0320410692549873,A,788.327082998876,Correct,sub_010_day_23_data.csv,1,600,,Button-Switch at home,,,,,,,,,,,,,k
10,23,144,B,76.29639234675227,64.82580681754274,3.8148196173376134,1.0182813923051168,B,615.1897910003754,Correct,sub_010_day_23_data.csv,1,600,,Button-Switch at home,,,,,,,,,,,,,d
10,23,145,B,55.82412569907967,38.530235815399664,2.791206284953984,0.6052315288937097,B,638.4054579993972,Correct,sub_010_day_23_data.csv,1,600,,Button-Switch at home,,,,,,,,,,,,,d
10,23,146,A,52.7181116156011,70.0361007780959,2.6359055807800553,1.1001244984527023,A,647.0077490012045,Correct,sub_010_day_23_data.csv,1,600,,Button-Switch at home,,,,,,,,,,,,,k
10,23,147,A,23.66501343791168,47.80032375563185,1.1832506718955842,0.7508457297495335,A,581.7612080008985,Correct,sub_010_day_23_data.csv,1,600,,Button-Switch at home,,,,,,,,,,,,,k
10,23,148,A,21.56117299875881,43.49937528416556,1.0780586499379403,0.6832865891423997,A,604.2143750000832,Correct,sub_010_day_23_data.csv,1,600,,Button-Switch at home,,,,,,,,,,,,,k
10,23,149,B,49.94085685103026,33.38005493839384,2.4970428425515134,0.5243326768544089,B,678.8362909992429,Correct,sub_010_day_23_data.csv,1,600,,Button-Switch at home,,,,,,,,,,,,,d
10,23,150,A,26.194950836306287,52.823769686372074,1.3097475418153144,0.8297538339081286,A,660.0741660004132,Correct,sub_010_day_23_data.csv,1,600,,Button-Switch at home,,,,,,,,,,,,,k
10,23,151,A,41.66969001831006,68.61883910685957,2.0834845009155027,1.07786220417985,A,507.4075409993384,Correct,sub_010_day_23_data.csv,1,600,,Button-Switch at home,,,,,,,,,,,,,k
10,23,152,B,83.84375642032288,56.94492658467986,4.192187821016144,0.8944888150882018,B,1256.5598750006757,Correct,sub_010_day_23_data.csv,1,600,,Button-Switch at home,,,,,,,,,,,,,d
10,23,153,A,26.56243671034649,49.283518622511146,1.3281218355173243,0.774143700237684,A,797.6074999987759,Correct,sub_010_day_23_data.csv,1,600,,Button-Switch at home,,,,,,,,,,,,,k
10,23,154,B,45.12379862236005,28.95788294627116,2.2561899311180027,0.4548693616375932,B,585.6558320010663,Correct,sub_010_day_23_data.csv,1,600,,Button-Switch at home,,,,,,,,,,,,,d
10,23,155,B,35.17361586110056,22.584454130240086,1.758680793055028,0.3547557759044896,B,609.7981660004734,Correct,sub_010_day_23_data.csv,1,600,,Button-Switch at home,,,,,,,,,,,,,d
10,23,156,B,53.332732689258926,37.33795744764923,2.666636634462946,0.5865032640879155,B,706.7084580012306,Correct,sub_010_day_23_data.csv,1,600,,Button-Switch at home,,,,,,,,,,,,,d
10,23,157,B,48.272930811859155,22.145960163454134,2.413646540592958,0.3478679287809986,B,795.9367910007131,Correct,sub_010_day_23_data.csv,1,600,,Button-Switch at home,,,,,,,,,,,,,d
10,23,158,B,75.72715798804444,60.82532882177688,3.786357899402222,0.9554420308933886,A,629.283915999622,Incorrect,sub_010_day_23_data.csv,0,600,,Button-Switch at home,,,,,,,,,,,,,k
10,23,159,A,17.62803938940165,34.032700645983965,0.8814019694700825,0.5345844116562192,A,533.4629570006655,Correct,sub_010_day_23_data.csv,1,600,,Button-Switch at home,,,,,,,,,,,,,k
10,23,160,B,50.36498200784199,42.88391959602141,2.5182491003920995,0.6736190337999811,B,1269.787123999777,Correct,sub_010_day_23_data.csv,1,600,,Button-Switch at home,,,,,,,,,,,,,d
10,23,161,B,37.17677805635874,13.089115397509868,1.858838902817937,0.2056033438740302,B,575.0807499989605,Correct,sub_010_day_23_data.csv,1,600,,Button-Switch at home,,,,,,,,,,,,,d
10,23,162,B,48.31130790889267,26.263494511670046,2.4155653954446334,0.4125460070772924,B,572.8790829998616,Correct,sub_010_day_23_data.csv,1,600,,Button-Switch at home,,,,,,,,,,,,,d
10,23,163,A,54.70582483341413,70.7814308762339,2.7352912416707063,1.1118321162567506,A,512.5633749994449,Correct,sub_010_day_23_data.csv,1,600,,Button-Switch at home,,,,,,,,,,,,,k
10,23,164,A,33.26405192014266,44.21886252856192,1.663202596007133,0.6945882683491356,A,565.4775820003124,Correct,sub_010_day_23_data.csv,1,600,,Button-Switch at home,,,,,,,,,,,,,k
10,23,165,B,72.96708312448293,41.03360865314747,3.6483541562241464,0.6445544174750333,B,591.5684160008823,Correct,sub_010_day_23_data.csv,1,600,,Button-Switch at home,,,,,,,,,,,,,d
10,23,166,A,49.23230586474921,62.91764733112582,2.46161529323746,0.9883080931830918,A,570.9127069985698,Correct,sub_010_day_23_data.csv,1,600,,Button-Switch at home,,,,,,,,,,,,,k
10,23,167,B,66.27427559789956,40.773230814887995,3.313713779894978,0.6404644119558655,B,517.0114159991499,Correct,sub_010_day_23_data.csv,1,600,,Button-Switch at home,,,,,,,,,,,,,d
10,23,168,A,27.96609311953427,58.54461233546068,1.3983046559767134,0.9196166201017282,A,812.9283739999664,Correct,sub_010_day_23_data.csv,1,600,,Button-Switch at home,,,,,,,,,,,,,k
10,23,169,B,70.03617338753337,59.20218747669023,3.5018086693766683,0.9299457862660784,B,1081.842831999893,Correct,sub_010_day_23_data.csv,1,600,,Button-Switch at home,,,,,,,,,,,,,d
10,23,170,B,34.25967974025568,19.346555750419515,1.712983987012784,0.3038949870889166,B,935.4184160001752,Correct,sub_010_day_23_data.csv,1,600,,Button-Switch at home,,,,,,,,,,,,,d
10,23,171,B,46.55862972702255,28.10991243068972,2.3279314863511273,0.4415494719265361,B,745.3354160006711,Correct,sub_010_day_23_data.csv,1,600,,Button-Switch at home,,,,,,,,,,,,,d
10,23,172,B,72.38426890520529,61.634721014269815,3.619213445260265,0.9681559337224324,B,938.6581239996304,Correct,sub_010_day_23_data.csv,1,600,,Button-Switch at home,,,,,,,,,,,,,d
10,23,173,A,38.026445544481994,61.532927023802344,1.9013222772240996,0.9665569574592716,B,937.4324990003516,Incorrect,sub_010_day_23_data.csv,0,600,,Button-Switch at home,,,,,,,,,,,,,d
10,23,174,B,61.659464874902184,36.81622073940184,3.0829732437451094,0.578307843039225,B,522.653915999399,Correct,sub_010_day_23_data.csv,1,600,,Button-Switch at home,,,,,,,,,,,,,d
10,23,175,A,44.119606446333705,58.03070871337067,2.205980322316685,0.9115442408826724,A,674.4911240002693,Correct,sub_010_day_23_data.csv,1,600,,Button-Switch at home,,,,,,,,,,,,,k
10,23,176,A,22.826253808697818,37.16897735906736,1.141312690434891,0.5838489310634569,A,765.7286659996316,Correct,sub_010_day_23_data.csv,1,600,,Button-Switch at home,,,,,,,,,,,,,k
10,23,177,A,64.56376805189254,82.4038877304456,3.2281884025946272,1.29439724160603,A,781.8553739998606,Correct,sub_010_day_23_data.csv,1,600,,Button-Switch at home,,,,,,,,,,,,,k
10,23,178,B,74.92222893864266,45.16237300785751,3.746111446932133,0.7094088963008356,B,605.127082000763,Correct,sub_010_day_23_data.csv,1,600,,Button-Switch at home,,,,,,,,,,,,,d
10,23,179,A,25.31570189171339,50.69635331739181,1.2657850945856697,0.7963364557285533,A,742.2610819994588,Correct,sub_010_day_23_data.csv,1,600,,Button-Switch at home,,,,,,,,,,,,,k
10,23,180,B,64.44774349658069,55.96341473887596,3.2223871748290343,0.8790712630672572,B,811.2740409997059,Correct,sub_010_day_23_data.csv,1,600,,Button-Switch at home,,,,,,,,,,,,,d
10,23,181,A,31.64313257367933,62.024870570530254,1.5821566286839666,0.974284388621178,A,516.9509160004964,Correct,sub_010_day_23_data.csv,1,600,,Button-Switch at home,,,,,,,,,,,,,k
10,23,182,B,67.81463982412288,39.868541700412145,3.390731991206144,0.6262535885767656,B,909.165708000728,Correct,sub_010_day_23_data.csv,1,600,,Button-Switch at home,,,,,,,,,,,,,d
10,23,183,B,68.71151109482241,58.8173815235812,3.4355755547411206,0.9239012684893538,B,559.36174999988,Correct,sub_010_day_23_data.csv,1,600,,Button-Switch at home,,,,,,,,,,,,,d
10,23,184,A,54.560658909887074,82.86389745462762,2.7280329454943537,1.3016230574563803,A,884.5555410007364,Correct,sub_010_day_23_data.csv,1,600,,Button-Switch at home,,,,,,,,,,,,,k
10,23,185,B,55.04358724905013,35.98349383864714,2.7521793624525066,0.5652273994699373,B,453.77333299984457,Correct,sub_010_day_23_data.csv,1,600,,Button-Switch at home,,,,,,,,,,,,,d
10,23,186,B,70.01838812977175,51.74595300599067,3.500919406488588,0.8128235290831147,B,463.51429099922825,Correct,sub_010_day_23_data.csv,1,600,,Button-Switch at home,,,,,,,,,,,,,d
10,23,187,A,20.844537306179415,35.857972107204155,1.0422268653089708,0.5632557087231015,A,883.0959160004568,Correct,sub_010_day_23_data.csv,1,600,,Button-Switch at home,,,,,,,,,,,,,k
10,23,188,B,67.5156805711628,40.16036278551853,3.37578402855814,0.6308375034624297,B,621.826583001166,Correct,sub_010_day_23_data.csv,1,600,,Button-Switch at home,,,,,,,,,,,,,d
10,23,189,A,20.488495914592328,41.89506212829146,1.0244247957296164,0.658086097019642,A,574.9789159999636,Correct,sub_010_day_23_data.csv,1,600,,Button-Switch at home,,,,,,,,,,,,,k
10,23,190,B,59.22837171015773,45.132101804779566,2.9614185855078863,0.7089333973548106,B,619.0542910007935,Correct,sub_010_day_23_data.csv,1,600,,Button-Switch at home,,,,,,,,,,,,,d
10,23,191,A,59.08757898400172,85.87999588663362,2.954378949200086,1.3489998208388492,A,753.1983739991119,Correct,sub_010_day_23_data.csv,1,600,,Button-Switch at home,,,,,,,,,,,,,k
10,23,192,B,71.1729974664275,54.47612284493978,3.558649873321375,0.8557089366285895,B,760.3564580003876,Correct,sub_010_day_23_data.csv,1,600,,Button-Switch at home,,,,,,,,,,,,,d
10,23,193,A,51.46967737784048,81.80993980262622,2.573483868892024,1.2850675293727685,A,564.3269990014232,Correct,sub_010_day_23_data.csv,1,600,,Button-Switch at home,,,,,,,,,,,,,k
10,23,194,B,45.92876334381084,24.16297350428969,2.296438167190542,0.3795511002498065,B,537.1397909984807,Correct,sub_010_day_23_data.csv,1,600,,Button-Switch at home,,,,,,,,,,,,,d
10,23,195,B,60.98738584751313,31.93390052429966,3.049369292375657,0.5016165364380353,B,551.5510820005147,Correct,sub_010_day_23_data.csv,1,600,,Button-Switch at home,,,,,,,,,,,,,d
10,23,196,B,71.57233686864298,44.976897100436965,3.5786168434321493,0.7064954475599842,B,962.2578749986131,Correct,sub_010_day_23_data.csv,1,600,,Button-Switch at home,,,,,,,,,,,,,d
10,23,197,A,38.41864495998982,65.43132971433822,1.920932247999491,1.0277929237258825,A,748.1613740001194,Correct,sub_010_day_23_data.csv,1,600,,Button-Switch at home,,,,,,,,,,,,,k
10,23,198,A,14.760114802673344,30.985580881499075,0.7380057401336672,0.4867203663226493,A,579.3592070003797,Correct,sub_010_day_23_data.csv,1,600,,Button-Switch at home,,,,,,,,,,,,,k
10,23,199,A,13.438346493835738,39.30495604652316,0.6719173246917869,0.6174008058271344,A,639.2653330003668,Correct,sub_010_day_23_data.csv,1,600,,Button-Switch at home,,,,,,,,,,,,,k
10,23,200,A,16.96646094424916,42.4390488455026,0.8483230472124581,0.6666310203918467,A,581.2114569998812,Correct,sub_010_day_23_data.csv,1,600,,Button-Switch at home,,,,,,,,,,,,,k
10,23,201,B,70.89177730353687,52.891183521539006,3.544588865176843,0.8308127679546824,B,883.0392910003866,Correct,sub_010_day_23_data.csv,1,600,,Button-Switch at home,,,,,,,,,,,,,d
10,23,202,B,51.264984547772784,37.81290360593824,2.563249227388639,0.5939637008965728,B,533.4722080006031,Correct,sub_010_day_23_data.csv,1,600,,Button-Switch at home,,,,,,,,,,,,,d
10,23,203,B,38.88993507384223,21.45417849937937,1.9444967536921112,0.3370014478122716,B,489.30783300056646,Correct,sub_010_day_23_data.csv,1,600,,Button-Switch at home,,,,,,,,,,,,,d
10,23,204,B,44.62872889038041,28.62747657785409,2.2314364445190207,0.4496793505390015,B,568.2309580006404,Correct,sub_010_day_23_data.csv,1,600,,Button-Switch at home,,,,,,,,,,,,,d
10,23,205,B,72.06099298616203,55.6300163705988,3.603049649308102,0.8738342537447655,B,695.8022079998045,Correct,sub_010_day_23_data.csv,1,600,,Button-Switch at home,,,,,,,,,,,,,d
10,23,206,A,36.81813623519366,68.36582343699413,1.8409068117596832,1.0738878433313883,A,567.750457999864,Correct,sub_010_day_23_data.csv,1,600,,Button-Switch at home,,,,,,,,,,,,,k
10,23,207,B,62.469722463068834,33.851705577284484,3.1234861231534414,0.5317413477654078,B,565.9439579994796,Correct,sub_010_day_23_data.csv,1,600,,Button-Switch at home,,,,,,,,,,,,,d
10,23,208,B,83.87287328405372,63.309124807158554,4.193643664202686,0.9944574069968432,B,590.6808319996344,Correct,sub_010_day_23_data.csv,1,600,,Button-Switch at home,,,,,,,,,,,,,d
10,23,209,A,46.66278894282644,67.16222045862322,2.333139447141322,1.0549816919579442,A,618.2514159991115,Correct,sub_010_day_23_data.csv,1,600,,Button-Switch at home,,,,,,,,,,,,,k
10,23,210,B,75.66419460783229,50.72431959658271,3.7832097303916146,0.7967757490148253,B,551.9285829996079,Correct,sub_010_day_23_data.csv,1,600,,Button-Switch at home,,,,,,,,,,,,,d
10,23,211,B,77.14112711107175,45.4069306671297,3.857056355553587,0.7132503990295789,B,474.3964990011591,Correct,sub_010_day_23_data.csv,1,600,,Button-Switch at home,,,,,,,,,,,,,d
10,23,212,A,27.850745766034493,51.02282686756222,1.3925372883017246,0.801464690262587,A,550.596498998857,Correct,sub_010_day_23_data.csv,1,600,,Button-Switch at home,,,,,,,,,,,,,k
10,23,213,B,55.70648203397897,37.701025786421155,2.785324101698949,0.5922063282171004,B,626.1954580004385,Correct,sub_010_day_23_data.csv,1,600,,Button-Switch at home,,,,,,,,,,,,,d
10,23,214,B,71.63027049209406,40.19959749713793,3.5815135246047025,0.6314538008713758,B,640.0733739992575,Correct,sub_010_day_23_data.csv,1,600,,Button-Switch at home,,,,,,,,,,,,,d
10,23,215,B,62.69587703267466,50.42193767639563,3.134793851633733,0.7920259449196345,B,628.2048739994934,Correct,sub_010_day_23_data.csv,1,600,,Button-Switch at home,,,,,,,,,,,,,d
10,23,216,A,54.64758590580963,62.75442721520982,2.7323792952904813,0.9857442375976928,A,767.2535410001728,Correct,sub_010_day_23_data.csv,1,600,,Button-Switch at home,,,,,,,,,,,,,k
10,23,217,B,70.44562924353559,52.29556330222025,3.5222814621767795,0.8214567874279758,B,534.4951660008519,Correct,sub_010_day_23_data.csv,1,600,,Button-Switch at home,,,,,,,,,,,,,d
10,23,218,A,34.811317124975886,43.1011625702877,1.7405658562487942,0.677031478459976,A,603.0669160008983,Correct,sub_010_day_23_data.csv,1,600,,Button-Switch at home,,,,,,,,,,,,,k
10,23,219,A,56.51588153719847,73.47104016217682,2.8257940768599235,1.1540804001254767,B,572.3340410004312,Incorrect,sub_010_day_23_data.csv,0,600,,Button-Switch at home,,,,,,,,,,,,,d
10,23,220,B,48.753338465346985,19.303736966962138,2.43766692326735,0.3032223912111897,B,437.7094989995385,Correct,sub_010_day_23_data.csv,1,600,,Button-Switch at home,,,,,,,,,,,,,d
10,23,221,B,45.20439461540063,29.100769391966196,2.260219730770032,0.4571138166780585,B,418.5544989995833,Correct,sub_010_day_23_data.csv,1,600,,Button-Switch at home,,,,,,,,,,,,,d
10,23,222,B,79.90829871976818,60.599296782731464,3.9954149359884097,0.9518915279266836,B,926.8329579990676,Correct,sub_010_day_23_data.csv,1,600,,Button-Switch at home,,,,,,,,,,,,,d
10,23,223,B,87.25340519140676,66.08865202648894,4.362670259570337,1.0381181184603494,B,558.6204579994956,Correct,sub_010_day_23_data.csv,1,600,,Button-Switch at home,,,,,,,,,,,,,d
10,23,224,A,51.34298798341585,67.82154796937752,2.567149399170793,1.0653383842784208,A,695.5896660001599,Correct,sub_010_day_23_data.csv,1,600,,Button-Switch at home,,,,,,,,,,,,,k
10,23,225,A,40.862677808620965,62.236351373934816,2.043133890431048,0.9776063213129332,A,512.1201239999209,Correct,sub_010_day_23_data.csv,1,600,,Button-Switch at home,,,,,,,,,,,,,k
10,23,226,B,63.81569347700582,51.610915148827,3.190784673850291,0.8107023593830053,A,842.6362079990213,Incorrect,sub_010_day_23_data.csv,0,600,,Button-Switch at home,,,,,,,,,,,,,k
10,23,227,B,79.10820688507387,62.92282269827753,3.955410344253693,0.9883893876602088,B,639.9286659998324,Correct,sub_010_day_23_data.csv,1,600,,Button-Switch at home,,,,,,,,,,,,,d
10,23,228,A,63.118495688051766,79.49094059722236,3.1559247844025884,1.248640775035882,B,1011.4213739998376,Incorrect,sub_010_day_23_data.csv,0,600,,Button-Switch at home,,,,,,,,,,,,,d
10,23,229,A,37.28543561108088,62.13072199292542,1.864271780554044,0.9759470988760216,A,597.7215410002827,Correct,sub_010_day_23_data.csv,1,600,,Button-Switch at home,,,,,,,,,,,,,k
10,23,230,B,81.85314317004051,59.07041997763755,4.092657158502026,0.9278759872310494,B,639.7299999989627,Correct,sub_010_day_23_data.csv,1,600,,Button-Switch at home,,,,,,,,,,,,,d
10,23,231,A,42.64617256913281,74.06851605794975,2.13230862845664,1.163465529549763,A,624.4008329995268,Correct,sub_010_day_23_data.csv,1,600,,Button-Switch at home,,,,,,,,,,,,,k
10,23,232,A,59.06552220336657,86.8019774997491,2.9532761101683285,1.3634822741513914,A,696.17979099894,Correct,sub_010_day_23_data.csv,1,600,,Button-Switch at home,,,,,,,,,,,,,k
10,23,233,B,49.52975928049485,34.042337776582244,2.476487964024742,0.5347357913496654,B,588.3565830008592,Correct,sub_010_day_23_data.csv,1,600,,Button-Switch at home,,,,,,,,,,,,,d
10,23,234,A,18.730744929990017,37.09354943221808,0.9365372464995008,0.5826641119591308,A,633.6277080008585,Correct,sub_010_day_23_data.csv,1,600,,Button-Switch at home,,,,,,,,,,,,,k
10,23,235,B,61.02779128993975,49.16737590940544,3.0513895644969877,0.7723193347663796,B,732.5597909984936,Correct,sub_010_day_23_data.csv,1,600,,Button-Switch at home,,,,,,,,,,,,,d
10,23,236,B,63.50538298017635,55.06385126979321,3.175269149008818,0.8649409531377169,B,646.5913749998435,Correct,sub_010_day_23_data.csv,1,600,,Button-Switch at home,,,,,,,,,,,,,d
10,23,237,B,68.79587088202209,41.56884688089411,3.4397935441011045,0.6529619198960795,B,629.0481240012014,Correct,sub_010_day_23_data.csv,1,600,,Button-Switch at home,,,,,,,,,,,,,d
10,23,238,B,43.735117861718614,30.029502998327317,2.1867558930859308,0.4717023300524887,B,559.8259159996815,Correct,sub_010_day_23_data.csv,1,600,,Button-Switch at home,,,,,,,,,,,,,d
10,23,239,B,73.33306832756946,54.468270490690074,3.6666534163784728,0.8555855921364683,B,583.7547909995919,Correct,sub_010_day_23_data.csv,1,600,,Button-Switch at home,,,,,,,,,,,,,d
10,23,240,A,33.6216260044551,63.92293076486449,1.681081300222755,1.0040990484341363,A,490.76091599999927,Correct,sub_010_day_23_data.csv,1,600,,Button-Switch at home,,,,,,,,,,,,,k
10,23,241,A,50.8193102233922,67.50064174197742,2.54096551116961,1.060297601045964,A,677.83795700052,Correct,sub_010_day_23_data.csv,1,600,,Button-Switch at home,,,,,,,,,,,,,k
10,23,242,A,61.194114070524535,75.80127845705118,3.0597057035262263,1.190683697666931,A,714.1492909995577,Correct,sub_010_day_23_data.csv,1,600,,Button-Switch at home,,,,,,,,,,,,,k
10,23,243,A,24.184528551703036,49.833069295974006,1.209226427585152,0.782776022030315,B,1129.9309159985569,Incorrect,sub_010_day_23_data.csv,0,600,,Button-Switch at home,,,,,,,,,,,,,d
10,23,244,A,32.07241726379958,49.94895398462454,1.603620863189979,0.7845963344629554,B,695.4196240003512,Incorrect,sub_010_day_23_data.csv,0,600,,Button-Switch at home,,,,,,,,,,,,,d
10,23,245,A,29.12887805252432,45.28238628201423,1.456443902626216,0.7112940604029557,A,1045.4917080005544,Correct,sub_010_day_23_data.csv,1,600,,Button-Switch at home,,,,,,,,,,,,,k
10,23,246,A,24.47648462514236,40.704351747412986,1.223824231257118,0.6393824620940375,A,675.617916000192,Correct,sub_010_day_23_data.csv,1,600,,Button-Switch at home,,,,,,,,,,,,,k
10,23,247,A,25.58450523877257,49.66579143661508,1.2792252619386286,0.7801484275599638,A,981.5509990003192,Correct,sub_010_day_23_data.csv,1,600,,Button-Switch at home,,,,,,,,,,,,,k
10,23,248,B,34.53099131173933,23.48942690319733,1.7265495655869665,0.3689710549805959,B,612.0924990009371,Correct,sub_010_day_23_data.csv,1,600,,Button-Switch at home,,,,,,,,,,,,,d
10,23,249,B,49.910469798546295,29.926986230188113,2.4955234899273147,0.4700920004242093,B,562.9911240012007,Correct,sub_010_day_23_data.csv,1,600,,Button-Switch at home,,,,,,,,,,,,,d
10,23,250,A,17.711917634614146,36.69303537791046,0.8855958817307072,0.5763728519057695,A,609.3356239998684,Correct,sub_010_day_23_data.csv,1,600,,Button-Switch at home,,,,,,,,,,,,,k
10,23,251,A,59.757861580560686,84.76796195573957,2.9878930790280345,1.3315320326996525,A,840.3872909984784,Correct,sub_010_day_23_data.csv,1,600,,Button-Switch at home,,,,,,,,,,,,,k
10,23,252,A,25.75519303758472,49.908245031014175,1.2877596518792358,0.783956879714967,A,699.0058739993401,Correct,sub_010_day_23_data.csv,1,600,,Button-Switch at home,,,,,,,,,,,,,k
10,23,253,B,60.25789943693577,40.94830660857612,3.012894971846789,0.6432144960922256,B,624.6239989995956,Correct,sub_010_day_23_data.csv,1,600,,Button-Switch at home,,,,,,,,,,,,,d
10,23,254,B,42.614492821501486,23.59681728886135,2.130724641075074,0.3706579392139372,B,552.0449989999179,Correct,sub_010_day_23_data.csv,1,600,,Button-Switch at home,,,,,,,,,,,,,d
10,23,255,A,37.43607184144231,50.67917025606376,1.8718035920721152,0.7960665448323814,A,640.7301240014931,Correct,sub_010_day_23_data.csv,1,600,,Button-Switch at home,,,,,,,,,,,,,k
10,23,256,B,48.792124788725,28.46950563913838,2.43960623943625,0.4471979488362516,B,434.01950000043144,Correct,sub_010_day_23_data.csv,1,600,,Button-Switch at home,,,,,,,,,,,,,d
10,23,257,B,75.67848734735918,64.94386566766698,3.783924367367959,1.020135856386325,B,695.4237499994633,Correct,sub_010_day_23_data.csv,1,600,,Button-Switch at home,,,,,,,,,,,,,d
10,23,258,A,24.20616448457072,45.14877269430366,1.210308224228536,0.7091952630750992,A,576.3917910007876,Correct,sub_010_day_23_data.csv,1,600,,Button-Switch at home,,,,,,,,,,,,,k
10,23,259,B,76.98789057065403,60.34343962533519,3.849394528532702,0.9478725330964612,B,587.8052499992918,Correct,sub_010_day_23_data.csv,1,600,,Button-Switch at home,,,,,,,,,,,,,d
10,23,260,B,74.46897236271855,58.69437791309957,3.723448618135927,0.9219691322940832,B,589.8309990006965,Correct,sub_010_day_23_data.csv,1,600,,Button-Switch at home,,,,,,,,,,,,,d
10,23,261,A,62.89102799613056,85.67734057936023,3.144551399806528,1.345816518716144,A,555.5849570009741,Correct,sub_010_day_23_data.csv,1,600,,Button-Switch at home,,,,,,,,,,,,,k
10,23,262,B,38.817458212572014,18.026957882019975,1.940872910628601,0.2831667922436328,B,482.60408300120616,Correct,sub_010_day_23_data.csv,1,600,,Button-Switch at home,,,,,,,,,,,,,d
10,23,263,A,63.81616725977716,82.91884493213878,3.190808362988858,1.3024861704147923,A,574.0723319995595,Correct,sub_010_day_23_data.csv,1,600,,Button-Switch at home,,,,,,,,,,,,,k
10,23,264,A,19.74259221699586,33.63677850401421,0.987129610849793,0.5283652811931905,A,666.6884990008839,Correct,sub_010_day_23_data.csv,1,600,,Button-Switch at home,,,,,,,,,,,,,k
10,23,265,B,88.58894913501771,69.32242717332565,4.429447456750886,1.0889141396836666,B,1058.7507910004206,Correct,sub_010_day_23_data.csv,1,600,,Button-Switch at home,,,,,,,,,,,,,d
10,23,266,B,86.1577286478612,60.92816490601055,4.30788643239306,0.9570573763271508,B,651.6922080008953,Correct,sub_010_day_23_data.csv,1,600,,Button-Switch at home,,,,,,,,,,,,,d
10,23,267,B,77.9865571226224,49.08578005833834,3.89932785613112,0.7710376301350004,B,660.6287080012407,Correct,sub_010_day_23_data.csv,1,600,,Button-Switch at home,,,,,,,,,,,,,d
10,23,268,A,44.459913955878214,65.66373083907096,2.2229956977939107,1.0314434720566146,A,806.3251659987145,Correct,sub_010_day_23_data.csv,1,600,,Button-Switch at home,,,,,,,,,,,,,k
10,23,269,A,34.589965487957855,54.50896797993297,1.7294982743978926,0.8562248668025934,B,939.3102489993908,Incorrect,sub_010_day_23_data.csv,0,600,,Button-Switch at home,,,,,,,,,,,,,d
10,23,270,B,64.51361581031136,31.38592726639704,3.225680790515568,0.4930089926310826,B,651.9775410015427,Correct,sub_010_day_23_data.csv,1,600,,Button-Switch at home,,,,,,,,,,,,,d
10,23,271,A,48.063693005191105,76.49269310320372,2.4031846502595555,1.2015444135316171,A,584.4657500001631,Correct,sub_010_day_23_data.csv,1,600,,Button-Switch at home,,,,,,,,,,,,,k
10,23,272,A,69.44203961845972,88.29620783326153,3.472101980922986,1.38695358934406,A,878.3525409999129,Correct,sub_010_day_23_data.csv,1,600,,Button-Switch at home,,,,,,,,,,,,,k
10,23,273,B,76.40512367342669,49.01059222970025,3.8202561836713342,0.7698565824845566,B,665.1281660015229,Correct,sub_010_day_23_data.csv,1,600,,Button-Switch at home,,,,,,,,,,,,,d
10,23,274,B,33.52337994105508,22.038637160611664,1.6761689970527542,0.3461821029945431,B,616.5484159992047,Correct,sub_010_day_23_data.csv,1,600,,Button-Switch at home,,,,,,,,,,,,,d
10,23,275,B,36.02819461280809,20.51580699676243,1.8014097306404044,0.3222615427174746,B,752.6857910015678,Correct,sub_010_day_23_data.csv,1,600,,Button-Switch at home,,,,,,,,,,,,,d
10,23,276,B,49.3458577951524,39.72396142098745,2.46729288975762,0.6239825268582926,B,546.9829579997167,Correct,sub_010_day_23_data.csv,1,600,,Button-Switch at home,,,,,,,,,,,,,d
10,23,277,A,26.76584347575215,36.60879569814081,1.3382921737876077,0.575049618110244,A,882.7402910010278,Correct,sub_010_day_23_data.csv,1,600,,Button-Switch at home,,,,,,,,,,,,,k
10,23,278,A,62.1483879874386,74.56079316522904,3.1074193993719303,1.171198200268558,A,929.1727489999176,Correct,sub_010_day_23_data.csv,1,600,,Button-Switch at home,,,,,,,,,,,,,k
10,23,279,A,43.1317026987408,66.92443997428538,2.15658513493704,1.0512466448441302,A,619.8946660006186,Correct,sub_010_day_23_data.csv,1,600,,Button-Switch at home,,,,,,,,,,,,,k
10,23,280,B,61.64214668659046,41.280454889734095,3.082107334329523,0.6484318690921674,B,779.0367910001805,Correct,sub_010_day_23_data.csv,1,600,,Button-Switch at home,,,,,,,,,,,,,d
10,23,281,B,46.491761508400586,26.604272462060173,2.3245880754200297,0.4178989346045474,B,626.1812490010925,Correct,sub_010_day_23_data.csv,1,600,,Button-Switch at home,,,,,,,,,,,,,d
10,23,282,B,51.30389802514959,43.25225628062652,2.5651949012574793,0.6794048529119963,B,525.5016249993787,Correct,sub_010_day_23_data.csv,1,600,,Button-Switch at home,,,,,,,,,,,,,d
10,23,283,B,63.73187458278094,40.73788508068917,3.1865937291390467,0.6399092024613916,B,745.5366659996798,Correct,sub_010_day_23_data.csv,1,600,,Button-Switch at home,,,,,,,,,,,,,d
10,23,284,B,56.239457093372,26.561670223281897,2.8119728546686,0.4172297402026857,B,422.7769580011227,Correct,sub_010_day_23_data.csv,1,600,,Button-Switch at home,,,,,,,,,,,,,d
10,23,285,A,25.85635149496947,41.21161187759239,1.2928175747484736,0.6473504855861905,B,817.4744999996619,Incorrect,sub_010_day_23_data.csv,0,600,,Button-Switch at home,,,,,,,,,,,,,d
10,23,286,A,40.3593521269536,59.54271982408387,2.0179676063476797,0.935294855870486,A,633.0818740007089,Correct,sub_010_day_23_data.csv,1,600,,Button-Switch at home,,,,,,,,,,,,,k
10,23,287,A,50.92934370877725,78.07711527757644,2.5464671854388627,1.2264324588475877,A,516.6583320005884,Correct,sub_010_day_23_data.csv,1,600,,Button-Switch at home,,,,,,,,,,,,,k
10,23,288,A,32.91907471501583,45.503888615516274,1.6459537357507914,0.7147734109213707,A,495.60858299992105,Correct,sub_010_day_23_data.csv,1,600,,Button-Switch at home,,,,,,,,,,,,,k
10,23,289,B,76.4150363305034,61.0005476593233,3.82075181652517,0.9581943619574208,B,670.9954569996626,Correct,sub_010_day_23_data.csv,1,600,,Button-Switch at home,,,,,,,,,,,,,d
10,23,290,B,43.95196620821398,19.491989515224432,2.197598310410699,0.3061794553243917,B,536.6853330015147,Correct,sub_010_day_23_data.csv,1,600,,Button-Switch at home,,,,,,,,,,,,,d
10,23,291,B,38.14774345693547,11.909169085337012,1.9073871728467735,0.1870687905442671,B,475.9762080011569,Correct,sub_010_day_23_data.csv,1,600,,Button-Switch at home,,,,,,,,,,,,,d
10,23,292,B,49.756359654770186,25.124813893674343,2.4878179827385094,0.3946596537558904,B,378.6686240000563,Correct,sub_010_day_23_data.csv,1,600,,Button-Switch at home,,,,,,,,,,,,,d
10,23,293,A,13.032922272013089,31.459084859913933,0.6516461136006544,0.4941581494228174,A,606.8544999998267,Correct,sub_010_day_23_data.csv,1,600,,Button-Switch at home,,,,,,,,,,,,,k
10,23,294,B,46.13753602914913,26.239924122974372,2.3068768014574568,0.4121757642774494,B,453.07225000033213,Correct,sub_010_day_23_data.csv,1,600,,Button-Switch at home,,,,,,,,,,,,,d
10,23,295,B,79.84037113088579,57.96270809773131,3.992018556544289,0.9104760897100116,A,607.3532909995265,Incorrect,sub_010_day_23_data.csv,0,600,,Button-Switch at home,,,,,,,,,,,,,k
10,23,296,A,58.90468364971014,67.11281378333138,2.945234182485507,1.0542056137172682,A,705.9410410001874,Correct,sub_010_day_23_data.csv,1,600,,Button-Switch at home,,,,,,,,,,,,,k
10,23,297,B,73.1352872354098,63.10678300733113,3.6567643617704904,0.9912790294375834,B,680.5417079995095,Correct,sub_010_day_23_data.csv,1,600,,Button-Switch at home,,,,,,,,,,,,,d
10,23,298,B,48.10102440432159,34.89864704609665,2.40505122021608,0.5481866659012019,B,524.6257079998031,Correct,sub_010_day_23_data.csv,1,600,,Button-Switch at home,,,,,,,,,,,,,d
10,23,299,B,48.120484469689266,22.016858603304648,2.4060242234844633,0.3458400062163356,B,448.0477910001355,Correct,sub_010_day_23_data.csv,1,600,,Button-Switch at home,,,,,,,,,,,,,d
10,23,300,B,68.60453341590002,35.21880938656838,3.4302266707950015,0.5532157641851124,B,485.3924580002058,Correct,sub_010_day_23_data.csv,1,600,,Button-Switch at home,,,,,,,,,,,,,d
10,23,301,A,38.526442186210325,54.64125511143498,1.926322109310516,0.8583028282050493,A,531.2807910013362,Correct,sub_010_day_23_data.csv,1,600,,Button-Switch at home,,,,,,,,,,,,,k
10,23,302,A,48.248183145978494,64.59337984898266,2.412409157298925,1.014630438020495,A,710.9289160016488,Correct,sub_010_day_23_data.csv,1,600,,Button-Switch at home,,,,,,,,,,,,,k
10,23,303,B,78.11547535308624,47.941797397098505,3.905773767654312,0.7530679925130748,B,552.7902909998375,Correct,sub_010_day_23_data.csv,1,600,,Button-Switch at home,,,,,,,,,,,,,d
10,23,304,B,52.40780065646551,38.95347494489705,2.620390032823275,0.6118797535934133,B,561.6378739996435,Correct,sub_010_day_23_data.csv,1,600,,Button-Switch at home,,,,,,,,,,,,,d
10,23,305,A,34.119864597930366,65.08339600254408,1.705993229896518,1.022327593761339,A,551.9717079987458,Correct,sub_010_day_23_data.csv,1,600,,Button-Switch at home,,,,,,,,,,,,,k
10,23,306,B,74.69868047789612,41.878624345272456,3.734934023894806,0.657827892927773,B,604.1424160011957,Correct,sub_010_day_23_data.csv,1,600,,Button-Switch at home,,,,,,,,,,,,,d
10,23,307,A,13.217949256456698,32.60427016655487,0.660897462822835,0.5121466781545282,A,588.6566240005777,Correct,sub_010_day_23_data.csv,1,600,,Button-Switch at home,,,,,,,,,,,,,k
10,23,308,A,51.42880094058915,68.60662120158835,2.571440047029457,1.0776702857726386,A,929.1938740007026,Correct,sub_010_day_23_data.csv,1,600,,Button-Switch at home,,,,,,,,,,,,,k
10,23,309,A,46.144816453090336,78.3138456853485,2.3072408226545167,1.2301510113972778,A,822.388623999359,Correct,sub_010_day_23_data.csv,1,600,,Button-Switch at home,,,,,,,,,,,,,k
10,23,310,A,44.39574453393188,51.5346374764321,2.219787226696594,0.8095041925068616,A,774.7389569994994,Correct,sub_010_day_23_data.csv,1,600,,Button-Switch at home,,,,,,,,,,,,,k
10,23,311,B,58.58516795749715,26.228756100367065,2.9292583978748574,0.4120003373885582,B,731.4244159988448,Correct,sub_010_day_23_data.csv,1,600,,Button-Switch at home,,,,,,,,,,,,,d
10,23,312,B,36.46492159062365,11.955793836531168,1.823246079531183,0.1878011704234022,B,436.05354099963733,Correct,sub_010_day_23_data.csv,1,600,,Button-Switch at home,,,,,,,,,,,,,d
10,23,313,B,82.08858283542473,61.88874119677133,4.104429141771237,0.972146073418484,B,598.2171249997918,Correct,sub_010_day_23_data.csv,1,600,,Button-Switch at home,,,,,,,,,,,,,d
10,23,314,A,28.819787003536668,47.20787823528534,1.4409893501768334,0.7415396172776697,B,678.5567489987443,Incorrect,sub_010_day_23_data.csv,0,600,,Button-Switch at home,,,,,,,,,,,,,d
10,23,315,B,37.9373054914023,27.7617207033312,1.896865274570115,0.4360800890629848,B,450.996125000529,Correct,sub_010_day_23_data.csv,1,600,,Button-Switch at home,,,,,,,,,,,,,d
10,23,316,B,38.34576478965252,26.196654895713184,1.917288239482626,0.4114960928449981,B,473.4777489993576,Correct,sub_010_day_23_data.csv,1,600,,Button-Switch at home,,,,,,,,,,,,,d
10,23,317,A,39.05457036741407,46.5222023061309,1.9527285183707035,0.7307690449687949,B,797.5278750000143,Incorrect,sub_010_day_23_data.csv,0,600,,Button-Switch at home,,,,,,,,,,,,,d
10,23,318,B,88.68969334544597,68.84835182123592,4.434484667272298,1.081467381466801,B,792.5313750001806,Correct,sub_010_day_23_data.csv,1,600,,Button-Switch at home,,,,,,,,,,,,,d
10,23,319,A,48.7946232872317,72.87500295593023,2.439731164361585,1.1447178695834244,A,629.8504160004086,Correct,sub_010_day_23_data.csv,1,600,,Button-Switch at home,,,,,,,,,,,,,k
10,23,320,A,26.958539102328736,51.12520783462338,1.3479269551164368,0.8030728867325208,A,546.1519569998927,Correct,sub_010_day_23_data.csv,1,600,,Button-Switch at home,,,,,,,,,,,,,k
10,23,321,B,75.86759316081368,54.239451678172486,3.793379658040684,0.8519913146344262,B,592.1273320000182,Correct,sub_010_day_23_data.csv,1,600,,Button-Switch at home,,,,,,,,,,,,,d
10,23,322,B,42.645392243617934,29.700294389436984,2.132269612180897,0.4665311333165469,B,531.7528750001657,Correct,sub_010_day_23_data.csv,1,600,,Button-Switch at home,,,,,,,,,,,,,d
10,23,323,A,41.86759363558065,55.56971516528901,2.0933796817790324,0.8728870446267463,A,815.5226660001063,Correct,sub_010_day_23_data.csv,1,600,,Button-Switch at home,,,,,,,,,,,,,k
10,23,324,A,58.96799278607168,76.85012538997667,2.948399639303584,1.2071589467630257,A,626.7782499999157,Correct,sub_010_day_23_data.csv,1,600,,Button-Switch at home,,,,,,,,,,,,,k
10,23,325,A,30.95251488514607,53.08738227854296,1.5476257442573036,0.8338946508229177,A,683.8888749989565,Correct,sub_010_day_23_data.csv,1,600,,Button-Switch at home,,,,,,,,,,,,,k
10,23,326,B,66.34674508568048,40.242163541748525,3.3173372542840243,0.6321224267365808,B,657.4370830003318,Correct,sub_010_day_23_data.csv,1,600,,Button-Switch at home,,,,,,,,,,,,,d
10,23,327,B,30.32251129902592,14.660622235927654,1.516125564951296,0.2302885155672274,B,466.0305410016008,Correct,sub_010_day_23_data.csv,1,600,,Button-Switch at home,,,,,,,,,,,,,d
10,23,328,A,61.494014524139715,79.1473602620164,3.074700726206986,1.2432438277508773,A,1525.0889159997314,Correct,sub_010_day_23_data.csv,1,600,,Button-Switch at home,,,,,,,,,,,,,k
10,23,329,A,44.420859920484226,58.13191385885829,2.2210429960242113,0.9131339675905192,A,805.6365830016148,Correct,sub_010_day_23_data.csv,1,600,,Button-Switch at home,,,,,,,,,,,,,k
10,23,330,B,66.95322232120105,40.3736323721924,3.3476611160600527,0.6341875342960734,B,717.2806660000788,Correct,sub_010_day_23_data.csv,1,600,,Button-Switch at home,,,,,,,,,,,,,d
10,23,331,B,62.539434158313654,49.709544215040886,3.1269717079156827,0.7808356945963472,B,568.8912910009094,Correct,sub_010_day_23_data.csv,1,600,,Button-Switch at home,,,,,,,,,,,,,d
10,23,332,A,49.23730437783739,62.05749669737503,2.4618652188918695,0.9747968786232312,A,781.4223740006128,Correct,sub_010_day_23_data.csv,1,600,,Button-Switch at home,,,,,,,,,,,,,k
10,23,333,A,60.37515416561021,87.51074263928442,3.01875770828051,1.3746155309288148,A,772.0332070002769,Correct,sub_010_day_23_data.csv,1,600,,Button-Switch at home,,,,,,,,,,,,,k
10,23,334,A,42.14864946479483,49.202430686345515,2.107432473239742,0.7728699739149203,A,678.1169990008493,Correct,sub_010_day_23_data.csv,1,600,,Button-Switch at home,,,,,,,,,,,,,k
10,23,335,B,70.76408038616026,58.42968733683328,3.538204019308013,0.91781138244472,A,1173.228998999548,Incorrect,sub_010_day_23_data.csv,0,600,,Button-Switch at home,,,,,,,,,,,,,k
10,23,336,B,80.95692244469913,60.174108799750066,4.047846122234956,0.9452126907080388,A,466.47112400023616,Incorrect,sub_010_day_23_data.csv,0,600,,Button-Switch at home,,,,,,,,,,,,,k
10,23,337,B,81.13624716033388,66.04520450478877,4.056812358016694,1.0374356463853995,B,625.6802490006521,Correct,sub_010_day_23_data.csv,1,600,,Button-Switch at home,,,,,,,,,,,,,d
10,23,338,B,38.73045655438218,20.455907946904816,1.936522827719109,0.3213206506425262,B,846.9080000013491,Correct,sub_010_day_23_data.csv,1,600,,Button-Switch at home,,,,,,,,,,,,,d
10,23,339,A,52.96483761335102,80.95075147686447,2.6482418806675514,1.2715714307114525,A,495.4897080006049,Correct,sub_010_day_23_data.csv,1,600,,Button-Switch at home,,,,,,,,,,,,,k
10,23,340,A,39.33794974709183,65.6267882031971,1.9668974873545917,1.0308631784892863,A,626.3822079999954,Correct,sub_010_day_23_data.csv,1,600,,Button-Switch at home,,,,,,,,,,,,,k
10,23,341,A,35.38290108408688,46.84578945443918,1.769145054204344,0.7358519400084016,A,608.841332999873,Correct,sub_010_day_23_data.csv,1,600,,Button-Switch at home,,,,,,,,,,,,,k
10,23,342,B,55.680340113711225,31.9548970423309,2.7840170056855613,0.5019463489720248,B,666.4919989998452,Correct,sub_010_day_23_data.csv,1,600,,Button-Switch at home,,,,,,,,,,,,,d
10,23,343,B,76.4370578034401,49.38576349734116,3.821852890172005,0.7757497589758499,B,816.242290999071,Correct,sub_010_day_23_data.csv,1,600,,Button-Switch at home,,,,,,,,,,,,,d
10,23,344,B,77.02962319490901,57.31959270948022,3.8514811597454504,0.9003740568143106,B,558.5495000013907,Correct,sub_010_day_23_data.csv,1,600,,Button-Switch at home,,,,,,,,,,,,,d
10,23,345,B,74.16825164786538,50.64141283483849,3.7084125823932688,0.7954734526466822,B,795.1005830000213,Correct,sub_010_day_23_data.csv,1,600,,Button-Switch at home,,,,,,,,,,,,,d
10,23,346,A,15.641748989574577,44.5431021852929,0.7820874494787289,0.6996814129670781,A,505.7887910006684,Correct,sub_010_day_23_data.csv,1,600,,Button-Switch at home,,,,,,,,,,,,,k
10,23,347,B,70.4105284905377,51.48067555824512,3.5205264245268846,0.8086565606781123,B,658.7163740005053,Correct,sub_010_day_23_data.csv,1,600,,Button-Switch at home,,,,,,,,,,,,,d
10,23,348,A,46.63431813715646,74.52075153040398,2.331715906857823,1.1705692277395374,A,641.4392490005412,Correct,sub_010_day_23_data.csv,1,600,,Button-Switch at home,,,,,,,,,,,,,k
10,23,349,A,25.542260815296828,50.82699166250792,1.2771130407648414,0.7983885180550229,A,524.1531659994507,Correct,sub_010_day_23_data.csv,1,600,,Button-Switch at home,,,,,,,,,,,,,k
10,23,350,A,38.20493497285721,65.35249687506291,1.9102467486428605,1.0265546203822378,A,532.2441660009645,Correct,sub_010_day_23_data.csv,1,600,,Button-Switch at home,,,,,,,,,,,,,k
10,23,351,A,58.65814036559135,74.86795683853398,2.9329070182795673,1.1760231159660803,A,530.0693330009381,Correct,sub_010_day_23_data.csv,1,600,,Button-Switch at home,,,,,,,,,,,,,k
10,23,352,B,86.92447099249027,61.2603501655806,4.346223549624514,0.9622753301826312,B,630.0399160008965,Correct,sub_010_day_23_data.csv,1,600,,Button-Switch at home,,,,,,,,,,,,,d
10,23,353,B,60.96741242841045,39.375030616584056,3.0483706214205224,0.6185015345996683,B,642.7696239989018,Correct,sub_010_day_23_data.csv,1,600,,Button-Switch at home,,,,,,,,,,,,,d
10,23,354,B,75.03995517759351,55.27022961635036,3.751997758879676,0.8681827366247364,B,541.6714160000993,Correct,sub_010_day_23_data.csv,1,600,,Button-Switch at home,,,,,,,,,,,,,d
10,23,355,B,37.03170166042817,26.79639157824517,1.851585083021408,0.4209167346246521,B,533.0304990002332,Correct,sub_010_day_23_data.csv,1,600,,Button-Switch at home,,,,,,,,,,,,,d
10,23,356,B,54.07097562588197,46.2592319553916,2.7035487812940984,0.726638316358822,B,382.440207999025,Correct,sub_010_day_23_data.csv,1,600,,Button-Switch at home,,,,,,,,,,,,,d
10,23,357,A,42.83992487149573,70.54028785065324,2.1419962435747864,1.1080442504686077,A,591.5998330001457,Correct,sub_010_day_23_data.csv,1,600,,Button-Switch at home,,,,,,,,,,,,,k
10,23,358,A,24.836019473118657,51.36318206716916,1.2418009736559328,0.8068109772360682,B,760.2859159997024,Incorrect,sub_010_day_23_data.csv,0,600,,Button-Switch at home,,,,,,,,,,,,,d
10,23,359,A,58.32216124880219,68.85068447962351,2.91610806244011,1.08150402277907,A,783.18249899894,Correct,sub_010_day_23_data.csv,1,600,,Button-Switch at home,,,,,,,,,,,,,k
10,23,360,B,72.42163543648056,41.29544514085735,3.621081771824027,0.6486673354061888,B,645.8350409993727,Correct,sub_010_day_23_data.csv,1,600,,Button-Switch at home,,,,,,,,,,,,,d
10,23,361,B,52.29004239181868,39.89440293559773,2.614502119590934,0.6266598159091246,B,553.7529989996983,Correct,sub_010_day_23_data.csv,1,600,,Button-Switch at home,,,,,,,,,,,,,d
10,23,362,B,73.19912396274674,53.319233352451086,3.659956198137337,0.8375365589755009,B,586.369623999417,Correct,sub_010_day_23_data.csv,1,600,,Button-Switch at home,,,,,,,,,,,,,d
10,23,363,A,66.32901276768868,85.57102938101912,3.3164506383844343,1.3441465863176298,A,1112.4981659995683,Correct,sub_010_day_23_data.csv,1,600,,Button-Switch at home,,,,,,,,,,,,,k
10,23,364,A,41.98803271967185,51.450159435525926,2.0994016359835923,0.8081772145433591,A,860.5513740003516,Correct,sub_010_day_23_data.csv,1,600,,Button-Switch at home,,,,,,,,,,,,,k
10,23,365,B,50.03220349139946,41.58130780647689,2.501610174569973,0.6531576556574186,A,647.9604579999432,Incorrect,sub_010_day_23_data.csv,0,600,,Button-Switch at home,,,,,,,,,,,,,k
10,23,366,B,44.672468946317785,35.88032877641315,2.23362344731589,0.56360688646183,B,828.3895410004334,Correct,sub_010_day_23_data.csv,1,600,,Button-Switch at home,,,,,,,,,,,,,d
10,23,367,A,47.5122998153613,57.99605422162238,2.375614990768065,0.9109998893992208,A,1251.2606660002348,Correct,sub_010_day_23_data.csv,1,600,,Button-Switch at home,,,,,,,,,,,,,k
10,23,368,A,17.374724899075577,46.90011490090533,0.8687362449537788,0.7367052821260069,A,1108.8167489997431,Correct,sub_010_day_23_data.csv,1,600,,Button-Switch at home,,,,,,,,,,,,,k
10,23,369,A,14.567642170285604,31.7284742951417,0.7283821085142803,0.4983897087761488,B,539.075208000213,Incorrect,sub_010_day_23_data.csv,0,600,,Button-Switch at home,,,,,,,,,,,,,d
10,23,370,A,22.07814095720633,43.989340666535995,1.1039070478603166,0.690982947371241,A,580.7042489996093,Correct,sub_010_day_23_data.csv,1,600,,Button-Switch at home,,,,,,,,,,,,,k
10,23,371,B,68.13349052778229,34.84736210163487,3.4066745263891143,0.5473810838773975,B,478.1775409992406,Correct,sub_010_day_23_data.csv,1,600,,Button-Switch at home,,,,,,,,,,,,,d
10,23,372,B,39.586872639286256,25.34422847304285,1.9793436319643127,0.3981062099090633,B,484.9569990001328,Correct,sub_010_day_23_data.csv,1,600,,Button-Switch at home,,,,,,,,,,,,,d
10,23,373,B,82.2141540290993,57.39818129404352,4.110707701454965,0.9016085234139112,B,644.3754159990931,Correct,sub_010_day_23_data.csv,1,600,,Button-Switch at home,,,,,,,,,,,,,d
10,23,374,A,65.88631018054198,77.70218053257254,3.294315509027099,1.2205429976451887,A,977.7706239983672,Correct,sub_010_day_23_data.csv,1,600,,Button-Switch at home,,,,,,,,,,,,,k
10,23,375,A,41.61797332811863,71.39464578915877,2.0808986664059317,1.121464473584333,A,849.837750000006,Correct,sub_010_day_23_data.csv,1,600,,Button-Switch at home,,,,,,,,,,,,,k
10,23,376,A,31.1751146613863,45.75646603186076,1.558755733069315,0.7187408876996234,A,678.2525830003578,Correct,sub_010_day_23_data.csv,1,600,,Button-Switch at home,,,,,,,,,,,,,k
10,23,377,A,37.66719983984236,66.72089643049846,1.8833599919921185,1.048049390334897,A,539.5333750002465,Correct,sub_010_day_23_data.csv,1,600,,Button-Switch at home,,,,,,,,,,,,,k
10,23,378,A,34.56804077881409,51.59285654080234,1.7284020389407044,0.8104186954314836,A,720.4377910002222,Correct,sub_010_day_23_data.csv,1,600,,Button-Switch at home,,,,,,,,,,,,,k
10,23,379,A,11.84956883267166,38.65766380550831,0.5924784416335831,0.6072331630816447,A,551.1215409987926,Correct,sub_010_day_23_data.csv,1,600,,Button-Switch at home,,,,,,,,,,,,,k
10,23,380,B,30.3927793829374,14.42196431375064,1.51963896914687,0.2265396856920658,B,733.7822489989776,Correct,sub_010_day_23_data.csv,1,600,,Button-Switch at home,,,,,,,,,,,,,d
10,23,381,B,48.76651011007526,21.10838608445853,2.438325505503763,0.3315697532603597,B,660.8775820004666,Correct,sub_010_day_23_data.csv,1,600,,Button-Switch at home,,,,,,,,,,,,,d
10,23,382,B,55.89386109192521,23.862136227492,2.7946930545962605,0.3748255593562385,B,487.216499999704,Correct,sub_010_day_23_data.csv,1,600,,Button-Switch at home,,,,,,,,,,,,,d
10,23,383,B,35.5203502474546,15.321485790027236,1.77601751237273,0.2406693360001499,B,572.7619579993188,Correct,sub_010_day_23_data.csv,1,600,,Button-Switch at home,,,,,,,,,,,,,d
10,23,384,B,74.21719498246401,52.93797256127968,3.7108597491232,0.8315477284722714,B,794.3084990001807,Correct,sub_010_day_23_data.csv,1,600,,Button-Switch at home,,,,,,,,,,,,,d
10,23,385,A,37.78341207917981,49.91684737051349,1.8891706039589904,0.7840920049478408,B,499.0370409996103,Incorrect,sub_010_day_23_data.csv,0,600,,Button-Switch at home,,,,,,,,,,,,,d
10,23,386,A,37.77415786847236,67.62513051807225,1.8887078934236177,1.0622530661681335,A,607.1917910012417,Correct,sub_010_day_23_data.csv,1,600,,Button-Switch at home,,,,,,,,,,,,,k
10,23,387,B,81.54663689855408,63.43730706827321,4.077331844927704,0.9964708892460348,B,544.0357910010789,Correct,sub_010_day_23_data.csv,1,600,,Button-Switch at home,,,,,,,,,,,,,d
10,23,388,A,28.5015265963021,52.76840537627152,1.4250763298151048,0.8288841733587137,A,539.0843320001295,Correct,sub_010_day_23_data.csv,1,600,,Button-Switch at home,,,,,,,,,,,,,k
10,23,389,B,86.91448308345262,62.85219474341064,4.345724154172632,0.9872799663394696,B,594.3078740001511,Correct,sub_010_day_23_data.csv,1,600,,Button-Switch at home,,,,,,,,,,,,,d
10,23,390,B,55.22324539960743,41.70255263716841,2.761162269980371,0.6550621650043497,B,442.7508740009216,Correct,sub_010_day_23_data.csv,1,600,,Button-Switch at home,,,,,,,,,,,,,d
10,23,391,B,64.22876033146824,48.04662475554284,3.211438016573412,0.7547146168089944,B,480.3615829987393,Correct,sub_010_day_23_data.csv,1,600,,Button-Switch at home,,,,,,,,,,,,,d
10,23,392,A,47.58480363171,60.03580093552781,2.3792401815855,0.943040155857167,B,798.7537490007526,Incorrect,sub_010_day_23_data.csv,0,600,,Button-Switch at home,,,,,,,,,,,,,d
10,23,393,B,53.39282442114905,21.82898811546331,2.6696412210574527,0.3428889434941923,B,755.1759159996436,Correct,sub_010_day_23_data.csv,1,600,,Button-Switch at home,,,,,,,,,,,,,d
10,23,394,A,47.75449836838991,73.87680002429863,2.3877249184194955,1.1604540611352945,A,887.6782080005796,Correct,sub_010_day_23_data.csv,1,600,,Button-Switch at home,,,,,,,,,,,,,k
10,23,395,A,53.03635983877003,63.582092203821965,2.651817991938502,0.9987451688369796,A,694.6492490005767,Correct,sub_010_day_23_data.csv,1,600,,Button-Switch at home,,,,,,,,,,,,,k
10,23,396,A,63.267318146867055,77.4219536296967,3.163365907343353,1.216141203748124,A,536.2739989996044,Correct,sub_010_day_23_data.csv,1,600,,Button-Switch at home,,,,,,,,,,,,,k
10,23,397,B,78.41458735209706,52.16227479208273,3.920729367604853,0.8193630964066958,B,676.8346240005485,Correct,sub_010_day_23_data.csv,1,600,,Button-Switch at home,,,,,,,,,,,,,d
10,23,398,B,81.68387868056894,61.25932464922008,4.0841939340284465,0.9622592214093098,B,467.07833300024504,Correct,sub_010_day_23_data.csv,1,600,,Button-Switch at home,,,,,,,,,,,,,d
10,23,399,A,19.342759250885965,37.076556140766606,0.9671379625442982,0.5823971819612095,A,569.4993329998397,Correct,sub_010_day_23_data.csv,1,600,,Button-Switch at home,,,,,,,,,,,,,k
10,23,400,B,59.72909566895693,49.64115118420792,2.9864547834478463,0.7797613793802392,B,922.7045830011776,Correct,sub_010_day_23_data.csv,1,600,,Button-Switch at home,,,,,,,,,,,,,d
10,23,401,B,80.40703833718827,59.55688955742375,4.020351916859414,0.9355174335213056,B,680.4823750007927,Correct,sub_010_day_23_data.csv,1,600,,Button-Switch at home,,,,,,,,,,,,,d
10,23,402,B,36.14966540574062,15.434047654763798,1.807483270287031,0.2424374536368036,B,600.2419160013233,Correct,sub_010_day_23_data.csv,1,600,,Button-Switch at home,,,,,,,,,,,,,d
10,23,403,A,27.03632183460783,37.88098045746993,1.3518160917303914,0.5950330495798303,A,858.7686660011968,Correct,sub_010_day_23_data.csv,1,600,,Button-Switch at home,,,,,,,,,,,,,k
10,23,404,A,34.65710033052485,55.91074097110026,1.7328550165262424,0.8782438654578523,A,703.9988320011616,Correct,sub_010_day_23_data.csv,1,600,,Button-Switch at home,,,,,,,,,,,,,k
10,23,405,B,64.80849934158759,39.14585956375185,3.2404249670793797,0.6149017241197028,B,536.9330829998944,Correct,sub_010_day_23_data.csv,1,600,,Button-Switch at home,,,,,,,,,,,,,d
10,23,406,B,57.89058086887498,26.284400847690833,2.8945290434437485,0.4128744030355742,B,576.6249569987849,Correct,sub_010_day_23_data.csv,1,600,,Button-Switch at home,,,,,,,,,,,,,d
10,23,407,B,55.00842874507707,26.855192696241453,2.750421437253854,0.421840380426252,B,542.9374579998694,Correct,sub_010_day_23_data.csv,1,600,,Button-Switch at home,,,,,,,,,,,,,d
10,23,408,A,13.630503326589531,37.867182146206346,0.6815251663294767,0.5948163062133421,A,529.2973739997251,Correct,sub_010_day_23_data.csv,1,600,,Button-Switch at home,,,,,,,,,,,,,k
10,23,409,B,53.65813628964439,23.38390043097725,2.6829068144822195,0.3673134490311665,B,659.4381239992799,Correct,sub_010_day_23_data.csv,1,600,,Button-Switch at home,,,,,,,,,,,,,d
10,23,410,B,39.71600855483082,26.911162972267785,1.9858004277415409,0.4227195594661706,B,686.4207910002733,Correct,sub_010_day_23_data.csv,1,600,,Button-Switch at home,,,,,,,,,,,,,d
10,23,411,A,37.63973917209293,45.08015860638858,1.8819869586046465,0.7081174755024653,B,584.3687500000669,Incorrect,sub_010_day_23_data.csv,0,600,,Button-Switch at home,,,,,,,,,,,,,d
10,23,412,B,48.95098305488905,29.729690101901863,2.447549152744452,0.4669928800881804,B,567.848500000764,Correct,sub_010_day_23_data.csv,1,600,,Button-Switch at home,,,,,,,,,,,,,d
10,23,413,B,77.34712495183956,46.53865041876046,3.8673562475919776,0.7310274113178072,B,638.336624000658,Correct,sub_010_day_23_data.csv,1,600,,Button-Switch at home,,,,,,,,,,,,,d
10,23,414,A,17.691030940125145,39.75041991141797,0.8845515470062573,0.6243981358541005,A,494.29462400075863,Correct,sub_010_day_23_data.csv,1,600,,Button-Switch at home,,,,,,,,,,,,,k
10,23,415,B,55.523369663744546,42.80828652218336,2.776168483187228,0.672430992254291,B,629.0594160000182,Correct,sub_010_day_23_data.csv,1,600,,Button-Switch at home,,,,,,,,,,,,,d
10,23,416,B,60.54111507794648,41.16385147185025,3.027055753897324,0.6466002668871306,B,457.81549899948,Correct,sub_010_day_23_data.csv,1,600,,Button-Switch at home,,,,,,,,,,,,,d
10,23,417,B,82.14848731633356,57.37802584110801,4.107424365816678,0.9012919222995512,B,624.0080409988877,Correct,sub_010_day_23_data.csv,1,600,,Button-Switch at home,,,,,,,,,,,,,d
10,23,418,B,81.33553804943072,63.44035932775982,4.066776902471537,0.9965188340259348,B,582.3840409993863,Correct,sub_010_day_23_data.csv,1,600,,Button-Switch at home,,,,,,,,,,,,,d
10,23,419,A,36.61118086441285,54.44547222966423,1.830559043220643,0.8552274778897012,A,628.2774159990367,Correct,sub_010_day_23_data.csv,1,600,,Button-Switch at home,,,,,,,,,,,,,k
10,23,420,A,28.09598000381356,52.215675267358904,1.404799000190678,0.820201909110825,A,498.90279099963664,Correct,sub_010_day_23_data.csv,1,600,,Button-Switch at home,,,,,,,,,,,,,k
10,23,421,B,57.21267537246335,40.71110726855185,2.860633768623168,0.6394885775719426,B,894.0566660003242,Correct,sub_010_day_23_data.csv,1,600,,Button-Switch at home,,,,,,,,,,,,,d
10,23,422,B,56.940423529022304,36.06628269052592,2.8470211764511153,0.5665278437142448,B,941.9066660011596,Correct,sub_010_day_23_data.csv,1,600,,Button-Switch at home,,,,,,,,,,,,,d
10,23,423,B,48.82876581651324,29.561805340087343,2.441438290825662,0.4643557524163496,B,457.02841599995736,Correct,sub_010_day_23_data.csv,1,600,,Button-Switch at home,,,,,,,,,,,,,d
10,23,424,B,47.63227404773347,28.348025045135778,2.3816137023866735,0.44528973612789,B,418.625708000036,Correct,sub_010_day_23_data.csv,1,600,,Button-Switch at home,,,,,,,,,,,,,d
10,23,425,B,44.39432911284679,27.716528492573108,2.219716455642339,0.4353702114763992,B,614.1463330004626,Correct,sub_010_day_23_data.csv,1,600,,Button-Switch at home,,,,,,,,,,,,,d
10,23,426,B,61.14816984176147,52.58017631496956,3.057408492088074,0.8259274781778222,B,723.7040830004844,Correct,sub_010_day_23_data.csv,1,600,,Button-Switch at home,,,,,,,,,,,,,d
10,23,427,A,52.951537113689675,60.07904744035178,2.6475768556844836,0.943719470366409,B,615.7667080005922,Incorrect,sub_010_day_23_data.csv,0,600,,Button-Switch at home,,,,,,,,,,,,,d
10,23,428,A,56.382491655672254,69.94163011273228,2.819124582783613,1.098640556711272,A,826.6757080000389,Correct,sub_010_day_23_data.csv,1,600,,Button-Switch at home,,,,,,,,,,,,,k
10,23,429,A,21.478070002746485,43.20978783143121,1.073903500137324,0.6787377600719896,A,627.0662079987233,Correct,sub_010_day_23_data.csv,1,600,,Button-Switch at home,,,,,,,,,,,,,k
10,23,430,B,43.78037364996647,28.766432435876418,2.1890186824983235,0.4518620640526824,B,569.9329159997433,Correct,sub_010_day_23_data.csv,1,600,,Button-Switch at home,,,,,,,,,,,,,d
10,23,431,A,37.45617928566041,67.73336366321307,1.8728089642830208,1.06395318843638,A,572.0176240010915,Correct,sub_010_day_23_data.csv,1,600,,Button-Switch at home,,,,,,,,,,,,,k
10,23,432,B,42.10192336720273,18.800687126607592,2.105096168360137,0.295320502796953,B,500.1192909985548,Correct,sub_010_day_23_data.csv,1,600,,Button-Switch at home,,,,,,,,,,,,,d
10,23,433,B,50.58317260219371,24.909604438323303,2.5291586301096856,0.391279151536321,B,419.6458320002421,Correct,sub_010_day_23_data.csv,1,600,,Button-Switch at home,,,,,,,,,,,,,d
10,23,434,A,38.93848807435928,48.19466550634088,1.946924403717964,0.7570400354846896,B,549.512000001414,Incorrect,sub_010_day_23_data.csv,0,600,,Button-Switch at home,,,,,,,,,,,,,d
10,23,435,A,53.439524080728965,73.7237515254183,2.671976204036448,1.1580499809366671,A,529.4608750009502,Correct,sub_010_day_23_data.csv,1,600,,Button-Switch at home,,,,,,,,,,,,,k
10,23,436,A,35.39951948497625,56.38276011363256,1.7699759742488126,0.8856583248105181,A,461.2548319983034,Correct,sub_010_day_23_data.csv,1,600,,Button-Switch at home,,,,,,,,,,,,,k
10,23,437,A,47.30017820431566,77.59834944108464,2.365008910215783,1.2189120226740255,A,613.3915829996113,Correct,sub_010_day_23_data.csv,1,600,,Button-Switch at home,,,,,,,,,,,,,k
10,23,438,B,53.13520224214789,26.30778332152636,2.6567601121073943,0.4132416940756964,B,478.2622490001813,Correct,sub_010_day_23_data.csv,1,600,,Button-Switch at home,,,,,,,,,,,,,d
10,23,439,A,34.871348467257775,52.988850716253005,1.7435674233628888,0.8323469206617334,A,706.1670820003201,Correct,sub_010_day_23_data.csv,1,600,,Button-Switch at home,,,,,,,,,,,,,k
10,23,440,B,51.007930097651794,28.56686442327686,2.55039650488259,0.448727257041311,B,631.7636240000866,Correct,sub_010_day_23_data.csv,1,600,,Button-Switch at home,,,,,,,,,,,,,d
10,23,441,A,60.727996703995494,76.77004962361215,3.036399835199775,1.205901119566319,A,528.1717910002044,Correct,sub_010_day_23_data.csv,1,600,,Button-Switch at home,,,,,,,,,,,,,k
10,23,442,A,37.402726364503806,52.98158522961132,1.8701363182251904,0.8322327946644421,A,543.6730410001474,Correct,sub_010_day_23_data.csv,1,600,,Button-Switch at home,,,,,,,,,,,,,k
10,23,443,A,20.69435760388889,45.091977820946774,1.0347178801944443,0.7083031312906014,A,593.8389570001164,Correct,sub_010_day_23_data.csv,1,600,,Button-Switch at home,,,,,,,,,,,,,k
10,23,444,A,30.376108842934592,48.664766105510736,1.5188054421467296,0.7644243584286905,A,560.5872079995606,Correct,sub_010_day_23_data.csv,1,600,,Button-Switch at home,,,,,,,,,,,,,k
10,23,445,B,34.20317739535614,21.219795094649957,1.710158869767807,0.3333197619001651,B,504.324916000769,Correct,sub_010_day_23_data.csv,1,600,,Button-Switch at home,,,,,,,,,,,,,d
10,23,446,B,35.148000419844834,19.399291528198944,1.7574000209922418,0.3047233587491826,B,1195.5001240003185,Correct,sub_010_day_23_data.csv,1,600,,Button-Switch at home,,,,,,,,,,,,,d
10,23,447,B,35.933249602907324,18.159303672704453,1.796662480145366,0.2852456750623723,B,670.7430409987865,Correct,sub_010_day_23_data.csv,1,600,,Button-Switch at home,,,,,,,,,,,,,d
10,23,448,A,42.14183284209406,54.723763671179825,2.1070916421047032,0.8595988696308128,A,921.0181659982482,Correct,sub_010_day_23_data.csv,1,600,,Button-Switch at home,,,,,,,,,,,,,k
10,23,449,A,65.42410352326954,78.33763772143624,3.271205176163477,1.2305247358262137,A,966.472332000194,Correct,sub_010_day_23_data.csv,1,600,,Button-Switch at home,,,,,,,,,,,,,k
10,23,450,B,74.77157424030048,64.03518920827773,3.738578712015024,1.0058623999397884,B,1099.2254159991717,Correct,sub_010_day_23_data.csv,1,600,,Button-Switch at home,,,,,,,,,,,,,d
10,23,451,B,34.01182102886881,12.542596706008304,1.7005910514434404,0.1970186483426761,B,506.2161240002752,Correct,sub_010_day_23_data.csv,1,600,,Button-Switch at home,,,,,,,,,,,,,d
10,23,452,B,74.59267222224702,47.625151463922506,3.7296336111123503,0.7480941298258007,B,842.5538739993499,Correct,sub_010_day_23_data.csv,1,600,,Button-Switch at home,,,,,,,,,,,,,d
10,23,453,B,61.51409002132108,53.064352574093824,3.075704501066054,0.8335329010713589,B,598.2229999990523,Correct,sub_010_day_23_data.csv,1,600,,Button-Switch at home,,,,,,,,,,,,,d
10,23,454,A,25.823371776898924,56.081759420311016,1.291168588844946,0.8809302169761963,A,590.0105410000833,Correct,sub_010_day_23_data.csv,1,600,,Button-Switch at home,,,,,,,,,,,,,k
10,23,455,B,63.70004353540511,41.0233719866157,3.1850021767702557,0.644393620293166,B,480.8801239996683,Correct,sub_010_day_23_data.csv,1,600,,Button-Switch at home,,,,,,,,,,,,,d
10,23,456,B,79.93646317687833,62.7485362650984,3.996823158843916,0.9856517027697294,B,1033.360082999934,Correct,sub_010_day_23_data.csv,1,600,,Button-Switch at home,,,,,,,,,,,,,d
10,23,457,B,49.49126695590914,35.70753177807928,2.474563347795457,0.5608925975591897,B,774.7600410002633,Correct,sub_010_day_23_data.csv,1,600,,Button-Switch at home,,,,,,,,,,,,,d
10,23,458,B,82.70435977704798,52.20976378447446,4.1352179888524,0.820109051754817,B,720.09024900035,Correct,sub_010_day_23_data.csv,1,600,,Button-Switch at home,,,,,,,,,,,,,d
10,23,459,A,58.340780458171096,75.43120229562459,2.9170390229085545,1.1848705549168983,A,521.029498999269,Correct,sub_010_day_23_data.csv,1,600,,Button-Switch at home,,,,,,,,,,,,,k
10,23,460,B,69.28720098121372,54.429132876506074,3.4643600490606854,0.8549708199304707,B,545.0840409994271,Correct,sub_010_day_23_data.csv,1,600,,Button-Switch at home,,,,,,,,,,,,,d
10,23,461,B,54.818758845577946,39.31030472392529,2.740937942278897,0.6174848226552991,B,542.0361660017079,Correct,sub_010_day_23_data.csv,1,600,,Button-Switch at home,,,,,,,,,,,,,d
10,23,462,B,67.69871775943477,36.45085189453245,3.3849358879717384,0.5725686426447638,B,434.3316659997072,Correct,sub_010_day_23_data.csv,1,600,,Button-Switch at home,,,,,,,,,,,,,d
10,23,463,B,66.8839610562201,39.016039020948305,3.344198052811005,0.6128625078019195,B,427.5776659997064,Correct,sub_010_day_23_data.csv,1,600,,Button-Switch at home,,,,,,,,,,,,,d
10,23,464,B,55.0851194376702,31.14227597503646,2.75425597188351,0.4891817270962022,B,413.2514579996496,Correct,sub_010_day_23_data.csv,1,600,,Button-Switch at home,,,,,,,,,,,,,d
10,23,465,B,69.50646764037675,41.932637175600235,3.4753233820188374,0.6586763244825596,B,389.9131239995768,Correct,sub_010_day_23_data.csv,1,600,,Button-Switch at home,,,,,,,,,,,,,d
10,23,466,B,46.380558600188344,37.04614631113063,2.319027930009417,0.5819195054743029,B,393.62645800065366,Correct,sub_010_day_23_data.csv,1,600,,Button-Switch at home,,,,,,,,,,,,,d
10,23,467,B,88.05177631791499,68.597042717627,4.402588815895749,1.0775198272984112,B,726.6661659996316,Correct,sub_010_day_23_data.csv,1,600,,Button-Switch at home,,,,,,,,,,,,,d
10,23,468,B,50.53505763033646,26.50596319767424,2.526752881516823,0.416354696290674,B,443.4524159987632,Correct,sub_010_day_23_data.csv,1,600,,Button-Switch at home,,,,,,,,,,,,,d
10,23,469,A,53.79180941740526,61.80212786750355,2.689590470870263,0.9707855544238309,A,506.4457080006832,Correct,sub_010_day_23_data.csv,1,600,,Button-Switch at home,,,,,,,,,,,,,k
10,23,470,B,75.34161572900561,54.30713710993877,3.767080786450281,0.8530545149103864,B,597.2107909983606,Correct,sub_010_day_23_data.csv,1,600,,Button-Switch at home,,,,,,,,,,,,,d
10,23,471,A,41.027930341432345,59.32139499684029,2.0513965170716175,0.9318182936138588,A,510.0845409997419,Correct,sub_010_day_23_data.csv,1,600,,Button-Switch at home,,,,,,,,,,,,,k
10,23,472,B,76.70321323021541,46.27890150589231,3.8351606615107703,0.7269472849355846,B,563.3848319994286,Correct,sub_010_day_23_data.csv,1,600,,Button-Switch at home,,,,,,,,,,,,,d
10,23,473,A,44.26575252670674,58.48840253978701,2.213287626335337,0.9187336786959872,A,599.3632909994631,Correct,sub_010_day_23_data.csv,1,600,,Button-Switch at home,,,,,,,,,,,,,k
10,23,474,B,76.78366001420554,65.61458160469455,3.839183000710277,1.030671437688382,B,814.1263740017166,Correct,sub_010_day_23_data.csv,1,600,,Button-Switch at home,,,,,,,,,,,,,d
10,23,475,B,79.1596303683233,49.990650109545385,3.9579815184161657,0.7852512956616279,B,527.3905410012958,Correct,sub_010_day_23_data.csv,1,600,,Button-Switch at home,,,,,,,,,,,,,d
10,23,476,B,89.59260601304979,66.86868480936059,4.47963030065249,1.050370844761493,B,715.9767079992889,Correct,sub_010_day_23_data.csv,1,600,,Button-Switch at home,,,,,,,,,,,,,d
10,23,477,B,54.104642931388845,41.902655575797965,2.705232146569442,0.6582053746141514,B,663.5247070007608,Correct,sub_010_day_23_data.csv,1,600,,Button-Switch at home,,,,,,,,,,,,,d
10,23,478,B,74.1261694556172,54.45904103245433,3.70630847278086,0.8554406161455181,B,774.0667069992924,Correct,sub_010_day_23_data.csv,1,600,,Button-Switch at home,,,,,,,,,,,,,d
10,23,479,A,29.975907205355465,53.937983593949326,1.4987953602677733,0.84725586504099,A,725.1660410001932,Correct,sub_010_day_23_data.csv,1,600,,Button-Switch at home,,,,,,,,,,,,,k
10,23,480,A,27.339725810644524,50.6868158952317,1.366986290532226,0.7961866422515914,A,574.315748999652,Correct,sub_010_day_23_data.csv,1,600,,Button-Switch at home,,,,,,,,,,,,,k
10,23,481,A,26.72335266638417,52.98561251736472,1.3361676333192083,0.832296055152542,A,842.9373750004743,Correct,sub_010_day_23_data.csv,1,600,,Button-Switch at home,,,,,,,,,,,,,k
10,23,482,A,25.681634601853744,45.406758323861325,1.2840817300926872,0.7132476918678496,A,481.1137079996115,Correct,sub_010_day_23_data.csv,1,600,,Button-Switch at home,,,,,,,,,,,,,k
10,23,483,B,82.72859507373427,53.84750613072531,4.136429753686714,0.8458346483720898,B,654.7238750008546,Correct,sub_010_day_23_data.csv,1,600,,Button-Switch at home,,,,,,,,,,,,,d
10,23,484,B,42.976087962138266,31.824885899377065,2.148804398106913,0.4999041387140819,B,796.8378740006301,Correct,sub_010_day_23_data.csv,1,600,,Button-Switch at home,,,,,,,,,,,,,d
10,23,485,A,38.597621657904185,61.069836316835726,1.929881082895209,0.9592827456445112,A,537.9360000006272,Correct,sub_010_day_23_data.csv,1,600,,Button-Switch at home,,,,,,,,,,,,,k
10,23,486,B,71.35574652574223,39.88838600901235,3.5677873262871116,0.6265653022473354,B,944.6267069997702,Correct,sub_010_day_23_data.csv,1,600,,Button-Switch at home,,,,,,,,,,,,,d
10,23,487,B,48.514573886604346,22.80182933300297,2.425728694330217,0.3581702976048519,B,663.4109990009165,Correct,sub_010_day_23_data.csv,1,600,,Button-Switch at home,,,,,,,,,,,,,d
10,23,488,A,25.64563917216513,54.275742972765755,1.282281958608256,0.8525613769568435,A,740.3182489997562,Correct,sub_010_day_23_data.csv,1,600,,Button-Switch at home,,,,,,,,,,,,,k
10,23,489,B,75.83977411144664,47.56636073208927,3.791988705572333,0.7471706471696682,B,590.7567909998761,Correct,sub_010_day_23_data.csv,1,600,,Button-Switch at home,,,,,,,,,,,,,d
10,23,490,B,65.57946870800957,45.952924454993266,3.278973435400479,0.7218268493938679,B,594.3534580001142,Correct,sub_010_day_23_data.csv,1,600,,Button-Switch at home,,,,,,,,,,,,,d
10,23,491,A,41.31958855521638,68.05955410137801,2.0659794277608188,1.0690769758574312,A,652.4030410000705,Correct,sub_010_day_23_data.csv,1,600,,Button-Switch at home,,,,,,,,,,,,,k
10,23,492,A,38.01049532481858,60.678587373179646,1.9005247662409288,0.9531370216089378,A,784.920999998576,Correct,sub_010_day_23_data.csv,1,600,,Button-Switch at home,,,,,,,,,,,,,k
10,23,493,B,67.7714999575353,40.95462031844805,3.388574997876765,0.6433136716149784,B,561.9985410012305,Correct,sub_010_day_23_data.csv,1,600,,Button-Switch at home,,,,,,,,,,,,,d
10,23,494,A,35.938553111584994,63.37346809858236,1.79692765557925,0.9954681090550672,A,1305.6032069998764,Correct,sub_010_day_23_data.csv,1,600,,Button-Switch at home,,,,,,,,,,,,,k
10,23,495,A,46.75598803448623,67.18324522837369,2.3377994017243116,1.0553119482689015,B,656.8377490002604,Incorrect,sub_010_day_23_data.csv,0,600,,Button-Switch at home,,,,,,,,,,,,,d
10,23,496,A,40.544080898456166,72.31591311419342,2.0272040449228084,1.135935706885939,A,576.8864990004658,Correct,sub_010_day_23_data.csv,1,600,,Button-Switch at home,,,,,,,,,,,,,k
10,23,497,A,69.06592093760871,83.46628735743792,3.4532960468804355,1.311085375922708,A,622.688831999767,Correct,sub_010_day_23_data.csv,1,600,,Button-Switch at home,,,,,,,,,,,,,k
10,23,498,B,74.96208671474629,60.61961375962287,3.748104335737315,0.9522106662534098,B,628.593457999159,Correct,sub_010_day_23_data.csv,1,600,,Button-Switch at home,,,,,,,,,,,,,d
10,23,499,A,22.852395862517195,37.50995980775842,1.1426197931258597,0.5892050708425113,B,818.7321660007001,Incorrect,sub_010_day_23_data.csv,0,600,,Button-Switch at home,,,,,,,,,,,,,d
10,23,500,A,45.259548932671215,57.05330469247234,2.2629774466335606,0.8961912144244558,B,884.5826240012684,Incorrect,sub_010_day_23_data.csv,0,600,,Button-Switch at home,,,,,,,,,,,,,d
10,23,501,B,32.0528570631095,12.262886908118515,1.602642853155475,0.1926249771117379,B,808.2375830017554,Correct,sub_010_day_23_data.csv,1,600,,Button-Switch at home,,,,,,,,,,,,,d
10,23,502,B,56.941391246084756,36.4781629339384,2.8470695623042377,0.5729976434485617,B,559.9459989989555,Correct,sub_010_day_23_data.csv,1,600,,Button-Switch at home,,,,,,,,,,,,,d
10,23,503,A,56.497286902126376,75.39983769881309,2.8248643451063185,1.1843778809822698,A,2241.517375001422,Correct,sub_010_day_23_data.csv,1,600,,Button-Switch at home,,,,,,,,,,,,,k
10,23,504,A,51.322657782481954,70.0099527379463,2.5661328891240975,1.0997137659985037,A,530.4851239998243,Correct,sub_010_day_23_data.csv,1,600,,Button-Switch at home,,,,,,,,,,,,,k
10,23,505,B,39.206700398948634,27.355625302584365,1.960335019947432,0.4297011574247705,B,810.8836240007804,Correct,sub_010_day_23_data.csv,1,600,,Button-Switch at home,,,,,,,,,,,,,d
10,23,506,B,40.16838240881169,14.130909722391838,2.008419120440584,0.2219678108620338,B,449.269083001127,Correct,sub_010_day_23_data.csv,1,600,,Button-Switch at home,,,,,,,,,,,,,d
10,23,507,A,60.917877900532986,82.53097384790428,3.045893895026649,1.2963935056709373,A,563.0147489991941,Correct,sub_010_day_23_data.csv,1,600,,Button-Switch at home,,,,,,,,,,,,,k
10,23,508,A,65.07239814567708,84.01989069640463,3.2536199072838543,1.319781356836211,A,553.4338319994276,Correct,sub_010_day_23_data.csv,1,600,,Button-Switch at home,,,,,,,,,,,,,k
10,23,509,B,49.38939961476929,31.814173419814143,2.4694699807384644,0.4997358674785989,B,600.1358740013529,Correct,sub_010_day_23_data.csv,1,600,,Button-Switch at home,,,,,,,,,,,,,d
10,23,510,B,44.56168021895205,33.01666737491196,2.2280840109476028,0.5186245983552061,B,659.4076239998685,Correct,sub_010_day_23_data.csv,1,600,,Button-Switch at home,,,,,,,,,,,,,d
10,23,511,A,42.625644259233624,62.01008396352101,2.1312822129616813,0.9740521211414191,A,1004.4615820006584,Correct,sub_010_day_23_data.csv,1,600,,Button-Switch at home,,,,,,,,,,,,,k
10,23,512,A,41.825486413718465,59.900870669378776,2.091274320685923,0.9409206761927632,A,547.1265819996916,Correct,sub_010_day_23_data.csv,1,600,,Button-Switch at home,,,,,,,,,,,,,k
10,23,513,B,73.3655141094387,63.27969766954543,3.668275705471935,0.9939951666001352,A,598.3861249987967,Incorrect,sub_010_day_23_data.csv,0,600,,Button-Switch at home,,,,,,,,,,,,,k
10,23,514,A,44.91264835670266,63.37528391710954,2.2456324178351332,0.9954966318657936,A,843.8837079993391,Correct,sub_010_day_23_data.csv,1,600,,Button-Switch at home,,,,,,,,,,,,,k
10,23,515,B,70.12948470976424,55.46333590914208,3.5064742354882124,0.8712160431787186,B,735.0897489995987,Correct,sub_010_day_23_data.csv,1,600,,Button-Switch at home,,,,,,,,,,,,,d
10,23,516,A,32.50964644582932,40.6589792802352,1.625482322291466,0.6386697530462325,A,609.3864160011435,Correct,sub_010_day_23_data.csv,1,600,,Button-Switch at home,,,,,,,,,,,,,k
10,23,517,A,52.56998773558003,78.05304610969088,2.6284993867790014,1.2260543812425513,A,673.339874998419,Correct,sub_010_day_23_data.csv,1,600,,Button-Switch at home,,,,,,,,,,,,,k
10,23,518,B,36.8083441252201,25.06579262739405,1.8404172062610056,0.3937325498731316,B,925.5576659998042,Correct,sub_010_day_23_data.csv,1,600,,Button-Switch at home,,,,,,,,,,,,,d
10,23,519,A,56.1530407268459,77.04459645206147,2.807652036342295,1.2102136910629329,A,561.4282909991744,Correct,sub_010_day_23_data.csv,1,600,,Button-Switch at home,,,,,,,,,,,,,k
10,23,520,A,43.343320330780514,51.02198003785209,2.1671660165390256,0.8014513882926061,A,706.740499001171,Correct,sub_010_day_23_data.csv,1,600,,Button-Switch at home,,,,,,,,,,,,,k
10,23,521,B,39.93266033862895,23.507158121949693,1.9966330169314477,0.3692495763134539,B,633.1492909994267,Correct,sub_010_day_23_data.csv,1,600,,Button-Switch at home,,,,,,,,,,,,,d
10,23,522,A,44.501639836350094,73.46263666092912,2.2250819918175044,1.1539483982365557,A,620.2563330007251,Correct,sub_010_day_23_data.csv,1,600,,Button-Switch at home,,,,,,,,,,,,,k
10,23,523,A,39.93468378246115,67.80535853594256,1.9967341891230577,1.0650840812526956,A,613.357748999988,Correct,sub_010_day_23_data.csv,1,600,,Button-Switch at home,,,,,,,,,,,,,k
10,23,524,B,70.18217144564366,59.67651645580452,3.5091085722821833,0.9373965284469294,A,679.9511240005813,Incorrect,sub_010_day_23_data.csv,0,600,,Button-Switch at home,,,,,,,,,,,,,k
10,23,525,A,17.117152037588603,41.12122665694943,0.85585760187943,0.6459307178603654,A,567.2887910004647,Correct,sub_010_day_23_data.csv,1,600,,Button-Switch at home,,,,,,,,,,,,,k
10,23,526,A,43.94334313173849,73.74612247740306,2.197167156586924,1.158401383028713,A,609.7045410006103,Correct,sub_010_day_23_data.csv,1,600,,Button-Switch at home,,,,,,,,,,,,,k
10,23,527,A,52.86110857038643,66.13236206833093,2.6430554285193217,1.0388047141920438,B,679.6974569988379,Incorrect,sub_010_day_23_data.csv,0,600,,Button-Switch at home,,,,,,,,,,,,,d
10,23,528,B,67.14104408317674,56.98346416884171,3.357052204158837,0.8950941620446514,B,687.2016659999645,Correct,sub_010_day_23_data.csv,1,600,,Button-Switch at home,,,,,,,,,,,,,d
10,23,529,A,47.21827747253558,77.03178719623845,2.3609138736267794,1.2100124837429749,A,731.2339159998373,Correct,sub_010_day_23_data.csv,1,600,,Button-Switch at home,,,,,,,,,,,,,k
10,23,530,A,26.865571655859117,56.70143602978288,1.343278582792956,0.8906640743957875,B,631.2356239996006,Incorrect,sub_010_day_23_data.csv,0,600,,Button-Switch at home,,,,,,,,,,,,,d
10,23,531,A,38.17284226412674,60.166765310154645,1.9086421132063376,0.9450973394432152,A,503.080749000219,Correct,sub_010_day_23_data.csv,1,600,,Button-Switch at home,,,,,,,,,,,,,k
10,23,532,A,48.04146552354591,77.19965225850986,2.402073276177296,1.2126493019751063,A,523.2846239996434,Correct,sub_010_day_23_data.csv,1,600,,Button-Switch at home,,,,,,,,,,,,,k
10,23,533,B,52.69231358481669,29.991525322365277,2.6346156792408344,0.471105778113475,B,544.3237910003518,Correct,sub_010_day_23_data.csv,1,600,,Button-Switch at home,,,,,,,,,,,,,d
10,23,534,A,55.360524075829275,69.59964499407424,2.768026203791464,1.0932686670292062,A,721.8146660015918,Correct,sub_010_day_23_data.csv,1,600,,Button-Switch at home,,,,,,,,,,,,,k
10,23,535,B,56.59686653001173,46.553115355403406,2.829843326500586,0.7312546260112677,B,516.165416000149,Correct,sub_010_day_23_data.csv,1,600,,Button-Switch at home,,,,,,,,,,,,,d
10,23,536,A,46.54668402999047,78.52538747640367,2.3273342014995237,1.2334739020808083,A,567.0635409987881,Correct,sub_010_day_23_data.csv,1,600,,Button-Switch at home,,,,,,,,,,,,,k
10,23,537,B,65.16155375766367,54.438229291884895,3.2580776878831834,0.8551137060891114,B,515.5761249989155,Correct,sub_010_day_23_data.csv,1,600,,Button-Switch at home,,,,,,,,,,,,,d
10,23,538,A,44.98720809419314,66.42656055077336,2.249360404709657,1.0434259731477358,A,610.7679159995314,Correct,sub_010_day_23_data.csv,1,600,,Button-Switch at home,,,,,,,,,,,,,k
10,23,539,B,69.84966696202025,41.9825470812838,3.4924833481010125,0.659460307447744,B,652.678290998665,Correct,sub_010_day_23_data.csv,1,600,,Button-Switch at home,,,,,,,,,,,,,d
10,23,540,A,43.3394393319338,61.721417536128186,2.1669719665966896,0.9695177595032428,B,736.9120409985044,Incorrect,sub_010_day_23_data.csv,0,600,,Button-Switch at home,,,,,,,,,,,,,d
10,23,541,A,43.18173129077012,69.77119775843371,2.159086564538506,1.09596341155028,A,572.7981660002115,Correct,sub_010_day_23_data.csv,1,600,,Button-Switch at home,,,,,,,,,,,,,k
10,23,542,B,65.03629314943906,56.26575172024482,3.2518146574719533,0.8838203612651421,B,746.7005830003473,Correct,sub_010_day_23_data.csv,1,600,,Button-Switch at home,,,,,,,,,,,,,d
10,23,543,A,49.270857708576614,79.52316427684622,2.4635428854288306,1.2491469434117717,A,763.8839580013155,Correct,sub_010_day_23_data.csv,1,600,,Button-Switch at home,,,,,,,,,,,,,k
10,23,544,A,42.43071382498509,59.341527458580714,2.121535691249255,0.9321345335833708,A,606.7797069990775,Correct,sub_010_day_23_data.csv,1,600,,Button-Switch at home,,,,,,,,,,,,,k
10,23,545,A,59.686249583215655,80.76661720732886,2.984312479160783,1.2686790563692163,A,609.1323319997173,Correct,sub_010_day_23_data.csv,1,600,,Button-Switch at home,,,,,,,,,,,,,k
10,23,546,A,68.04008809268808,89.36092628651092,3.4020044046344036,1.4036781476984086,A,657.3363329989661,Correct,sub_010_day_23_data.csv,1,600,,Button-Switch at home,,,,,,,,,,,,,k
10,23,547,A,50.83057405929456,71.31054352183538,2.541528702964728,1.1201433982584663,A,472.89454100064177,Correct,sub_010_day_23_data.csv,1,600,,Button-Switch at home,,,,,,,,,,,,,k
10,23,548,A,55.668085485614824,84.6656844319946,2.783404274280741,1.3299254611135298,A,485.1755820000107,Correct,sub_010_day_23_data.csv,1,600,,Button-Switch at home,,,,,,,,,,,,,k
10,23,549,A,42.82241210009784,55.72567616532636,2.141120605004892,0.8753368742865656,A,753.2122079992405,Correct,sub_010_day_23_data.csv,1,600,,Button-Switch at home,,,,,,,,,,,,,k
10,23,550,A,17.28031929561448,42.69357718991347,0.864015964780724,0.6706291422765045,A,660.4260410003917,Correct,sub_010_day_23_data.csv,1,600,,Button-Switch at home,,,,,,,,,,,,,k
10,23,551,B,65.62451524374127,42.44551188521755,3.2812257621870633,0.6667325415822885,B,518.019749000814,Correct,sub_010_day_23_data.csv,1,600,,Button-Switch at home,,,,,,,,,,,,,d
