subject,day,trial,cat,x,y,xt,yt,resp,rt,fb,f_name,acc,n_trials,block,session_type,ns_left_digit,ns_right_digit,ns_left_size,ns_right_size,ns_congruent,ns_cue,ns_correct_side,ns_resp,ns_rt,ns_fb,acc_stroop,acc_stroop_mean,resp_key
10,12,2400,A,53.7940052998656,65.40904569305835,2.6897002649932795,1.027442887138156,A,687.8482500005703,Correct,sub_010_day_12_data.csv,1,300,96.0,Training at home,,,,,,,,,,,,,
10,12,2401,A,58.4700552381821,70.68840182268886,2.923502761909105,1.110370819300813,A,489.2614999998841,Correct,sub_010_day_12_data.csv,1,300,96.0,Training at home,,,,,,,,,,,,,
10,12,2402,A,61.0355714158608,82.07528789342925,3.0517785707930396,1.2892356074363231,A,531.8100829999821,Correct,sub_010_day_12_data.csv,1,300,96.0,Training at home,,,,,,,,,,,,,
10,12,2403,B,46.609258485415126,25.53067361983333,2.330462924270756,0.4010348834263356,B,714.5750830004545,Correct,sub_010_day_12_data.csv,1,300,96.0,Training at home,,,,,,,,,,,,,
10,12,2404,A,55.88755239740654,75.3838394857379,2.7943776198703265,1.1841265816389317,A,449.562374999914,Correct,sub_010_day_12_data.csv,1,300,96.0,Training at home,,,,,,,,,,,,,
10,12,2405,B,84.81951438629494,67.95155247639424,4.240975719314747,1.0673804902993071,A,512.9597499999363,Incorrect,sub_010_day_12_data.csv,0,300,96.0,Training at home,,,,,,,,,,,,,
10,12,2406,A,19.11438947179007,34.1697274729396,0.9557194735895036,0.5367368240207618,A,520.3366249997998,Correct,sub_010_day_12_data.csv,1,300,96.0,Training at home,,,,,,,,,,,,,
10,12,2407,A,29.905488162278033,46.98638311648371,1.4952744081139016,0.7380603800875036,A,850.0467080002636,Correct,sub_010_day_12_data.csv,1,300,96.0,Training at home,,,,,,,,,,,,,
10,12,2408,A,66.6189113630028,83.79207353419102,3.3309455681501396,1.3162028132203512,B,1481.012623999959,Incorrect,sub_010_day_12_data.csv,0,300,96.0,Training at home,,,,,,,,,,,,,
10,12,2409,B,65.83326000053917,38.61159066340052,3.291663000026958,0.6065094478577766,B,516.6141659992718,Correct,sub_010_day_12_data.csv,1,300,96.0,Training at home,,,,,,,,,,,,,
10,12,2410,B,71.82065464208505,53.51441674058166,3.591032732104253,0.84060249246677,B,628.2982080001602,Correct,sub_010_day_12_data.csv,1,300,96.0,Training at home,,,,,,,,,,,,,
10,12,2411,B,81.09567564496291,51.34882115911918,4.054783782248146,0.8065853966199247,B,565.4798330006088,Correct,sub_010_day_12_data.csv,1,300,96.0,Training at home,,,,,,,,,,,,,
10,12,2412,A,22.07092967398991,33.44812820567114,1.1035464836994957,0.52540196923633,A,503.6159579995001,Correct,sub_010_day_12_data.csv,1,300,96.0,Training at home,,,,,,,,,,,,,
10,12,2413,A,47.119030983772774,69.2723072166487,2.3559515491886387,1.088126857245194,A,614.1271249998681,Correct,sub_010_day_12_data.csv,1,300,96.0,Training at home,,,,,,,,,,,,,
10,12,2414,A,24.840170816495597,49.061574203296246,1.2420085408247798,0.77065740545313,A,500.3098739998677,Correct,sub_010_day_12_data.csv,1,300,96.0,Training at home,,,,,,,,,,,,,
10,12,2415,B,67.78608434819725,51.96065478824266,3.3893042174098627,0.8161960567922921,B,613.2487080003557,Correct,sub_010_day_12_data.csv,1,300,96.0,Training at home,,,,,,,,,,,,,
10,12,2416,B,84.51381047565907,64.19092534436068,4.225690523782953,1.0083086974448718,B,624.5323330003885,Correct,sub_010_day_12_data.csv,1,300,96.0,Training at home,,,,,,,,,,,,,
10,12,2417,B,47.86277907878189,20.426072769043433,2.3931389539390944,0.3208520007645868,B,538.0582910001976,Correct,sub_010_day_12_data.csv,1,300,96.0,Training at home,,,,,,,,,,,,,
10,12,2418,B,61.786181995321755,35.26007043774487,3.0893090997660875,0.5538638912613897,B,571.0629579998567,Correct,sub_010_day_12_data.csv,1,300,96.0,Training at home,,,,,,,,,,,,,
10,12,2419,B,75.71412322081717,60.85755893115955,3.785706161040858,0.9559483002676938,B,525.0776249995397,Correct,sub_010_day_12_data.csv,1,300,96.0,Training at home,,,,,,,,,,,,,
10,12,2420,B,58.29656300420887,43.90862811751069,2.9148281502104436,0.689715117615889,B,425.0235830004385,Correct,sub_010_day_12_data.csv,1,300,96.0,Training at home,,,,,,,,,,,,,
10,12,2421,A,51.688546024695505,60.193796451104824,2.584427301234775,0.9455219436123514,A,552.192374999322,Correct,sub_010_day_12_data.csv,1,300,96.0,Training at home,,,,,,,,,,,,,
10,12,2422,A,54.30435867530263,72.315250766359,2.715217933765131,1.1359253027504854,A,526.1272489997282,Correct,sub_010_day_12_data.csv,1,300,96.0,Training at home,,,,,,,,,,,,,
10,12,2423,B,30.168531745452892,12.556828941646591,1.5084265872726446,0.1972422077773031,B,526.0356670005422,Correct,sub_010_day_12_data.csv,1,300,96.0,Training at home,,,,,,,,,,,,,
10,12,2424,B,77.89735139336733,57.55538460000155,3.8948675696683663,0.9040778671695,B,617.7309169997898,Correct,sub_010_day_12_data.csv,1,300,96.0,Training at home,,,,,,,,,,,,,
10,12,2425,A,69.45436165501857,85.92883359458617,3.4727180827509287,1.3497669617614585,A,822.5204580003265,Correct,sub_010_day_12_data.csv,1,300,97.0,Training at home,,,,,,,,,,,,,
10,12,2426,A,31.083183629864664,47.1402250959028,1.5541591814932332,0.7404769242492872,A,515.9876249999797,Correct,sub_010_day_12_data.csv,1,300,97.0,Training at home,,,,,,,,,,,,,
10,12,2427,B,84.66826105212823,55.16884615778575,4.233413052606411,0.866590208981626,B,604.5233329996336,Correct,sub_010_day_12_data.csv,1,300,97.0,Training at home,,,,,,,,,,,,,
10,12,2428,B,55.99425429961351,41.38320822233483,2.7997127149806755,0.6500459146663192,A,946.0937079993528,Incorrect,sub_010_day_12_data.csv,0,300,97.0,Training at home,,,,,,,,,,,,,
10,12,2429,A,17.437646733690435,48.29521560540125,0.8718823366845218,0.7586194727473187,A,496.91579099999217,Correct,sub_010_day_12_data.csv,1,300,97.0,Training at home,,,,,,,,,,,,,
10,12,2430,B,58.777781842819905,41.374170905185345,2.938889092140995,0.6499039568204941,B,547.2869579998587,Correct,sub_010_day_12_data.csv,1,300,97.0,Training at home,,,,,,,,,,,,,
10,12,2431,B,56.63854683124716,25.79608676726186,2.8319273415623583,0.4052039833969736,B,470.38079199955973,Correct,sub_010_day_12_data.csv,1,300,97.0,Training at home,,,,,,,,,,,,,
10,12,2432,A,16.762013368011797,42.82187876651851,0.8381006684005898,0.6726444987290365,A,505.0964580004802,Correct,sub_010_day_12_data.csv,1,300,97.0,Training at home,,,,,,,,,,,,,
10,12,2433,B,59.42610092994408,48.49257470708184,2.9713050464972044,0.7617195822671124,A,687.2504580005625,Incorrect,sub_010_day_12_data.csv,0,300,97.0,Training at home,,,,,,,,,,,,,
10,12,2434,B,60.69025234034127,44.47657079721979,3.0345126170170635,0.6986363403670601,B,500.7076669999151,Correct,sub_010_day_12_data.csv,1,300,97.0,Training at home,,,,,,,,,,,,,
10,12,2435,B,76.26478021381337,65.20953279049016,3.813239010690668,1.024308945793133,B,731.6413329999705,Correct,sub_010_day_12_data.csv,1,300,97.0,Training at home,,,,,,,,,,,,,
10,12,2436,A,41.510299144276736,74.29382321731961,2.0755149572138367,1.1670046461331505,A,467.9092500000479,Correct,sub_010_day_12_data.csv,1,300,97.0,Training at home,,,,,,,,,,,,,
10,12,2437,A,53.32552647056535,62.98438795814015,2.6662763235282676,0.9893564525007124,A,519.9898740002027,Correct,sub_010_day_12_data.csv,1,300,97.0,Training at home,,,,,,,,,,,,,
10,12,2438,A,63.75160589035329,83.89985239557492,3.187580294517665,1.317895799616031,A,459.2748329996539,Correct,sub_010_day_12_data.csv,1,300,97.0,Training at home,,,,,,,,,,,,,
10,12,2439,A,67.67676942286553,85.51291979934709,3.3838384711432763,1.34323380314321,A,558.8006660000246,Correct,sub_010_day_12_data.csv,1,300,97.0,Training at home,,,,,,,,,,,,,
10,12,2440,B,54.70745472714728,31.0935841446788,2.735372736357364,0.4884168776134949,B,515.3564579995873,Correct,sub_010_day_12_data.csv,1,300,97.0,Training at home,,,,,,,,,,,,,
10,12,2441,B,76.59760105477795,60.13173767763898,3.829880052738898,0.944547126678296,B,779.246332999719,Correct,sub_010_day_12_data.csv,1,300,97.0,Training at home,,,,,,,,,,,,,
10,12,2442,A,15.930159448281955,38.35403899052517,0.7965079724140978,0.6024638356406519,A,581.0342920003677,Correct,sub_010_day_12_data.csv,1,300,97.0,Training at home,,,,,,,,,,,,,
10,12,2443,B,77.31976835004964,63.64851379119358,3.865988417502482,0.9997885166916118,B,647.8190000007089,Correct,sub_010_day_12_data.csv,1,300,97.0,Training at home,,,,,,,,,,,,,
10,12,2444,A,46.95845421742508,63.35339342593116,2.347922710871254,0.9951527768344464,A,668.3223749996614,Correct,sub_010_day_12_data.csv,1,300,97.0,Training at home,,,,,,,,,,,,,
10,12,2445,A,46.605008414255515,69.52181130350378,2.3302504207127757,1.0920460582767166,A,660.9710829998221,Correct,sub_010_day_12_data.csv,1,300,97.0,Training at home,,,,,,,,,,,,,
10,12,2446,A,34.211530188417285,51.53857907641451,1.710576509420864,0.8095661070146022,A,474.7887080002329,Correct,sub_010_day_12_data.csv,1,300,97.0,Training at home,,,,,,,,,,,,,
10,12,2447,A,41.1007759652668,62.029015332599776,2.05503879826334,0.9743494943915204,A,562.9359989998193,Correct,sub_010_day_12_data.csv,1,300,97.0,Training at home,,,,,,,,,,,,,
10,12,2448,B,59.21949568549375,29.79383449022291,2.960974784274687,0.4680004577837725,B,485.88199999994686,Correct,sub_010_day_12_data.csv,1,300,97.0,Training at home,,,,,,,,,,,,,
10,12,2449,B,58.30933199587409,41.010996284680424,2.915466599793705,0.6441992232217516,B,482.5594579997414,Correct,sub_010_day_12_data.csv,1,300,97.0,Training at home,,,,,,,,,,,,,
10,12,2450,B,77.14270519535192,65.3418365046079,3.857135259767596,1.0263871676747078,B,536.26924999935,Correct,sub_010_day_12_data.csv,1,300,98.0,Training at home,,,,,,,,,,,,,
10,12,2451,B,83.49822445608072,55.98483969975703,4.174911222804036,0.8794078055657946,B,466.2857080002141,Correct,sub_010_day_12_data.csv,1,300,98.0,Training at home,,,,,,,,,,,,,
10,12,2452,A,21.265958002445913,36.266648586375865,1.0632979001222955,0.5696751838464054,A,520.1059170003646,Correct,sub_010_day_12_data.csv,1,300,98.0,Training at home,,,,,,,,,,,,,
10,12,2453,A,40.36688460243735,53.21645117426881,2.0183442301218677,0.8359220602960142,A,524.606875000245,Correct,sub_010_day_12_data.csv,1,300,98.0,Training at home,,,,,,,,,,,,,
10,12,2454,B,87.47609466745149,68.40049646319814,4.373804733372575,1.0744324859533894,B,633.4473329998218,Correct,sub_010_day_12_data.csv,1,300,98.0,Training at home,,,,,,,,,,,,,
10,12,2455,A,42.930725409921294,53.83944466402565,2.146536270496065,0.845708019149286,A,507.8753749994576,Correct,sub_010_day_12_data.csv,1,300,98.0,Training at home,,,,,,,,,,,,,
10,12,2456,B,38.83296012912919,15.483877739851998,1.9416480064564596,0.2432201827830078,B,384.56708299963793,Correct,sub_010_day_12_data.csv,1,300,98.0,Training at home,,,,,,,,,,,,,
10,12,2457,B,67.0091641788257,49.24847133143703,3.350458208941285,0.7735931786768506,B,548.5424580001563,Correct,sub_010_day_12_data.csv,1,300,98.0,Training at home,,,,,,,,,,,,,
10,12,2458,A,29.33863616543667,47.49525008617368,1.4669318082718337,0.746053643755666,A,556.5393739998399,Correct,sub_010_day_12_data.csv,1,300,98.0,Training at home,,,,,,,,,,,,,
10,12,2459,B,35.24918994153803,17.556763094055402,1.7624594970769012,0.2757809897855043,B,527.1269579998261,Correct,sub_010_day_12_data.csv,1,300,98.0,Training at home,,,,,,,,,,,,,
10,12,2460,B,33.2872302084972,19.75646424048387,1.66436151042486,0.3103338145940678,B,551.6740829998525,Correct,sub_010_day_12_data.csv,1,300,98.0,Training at home,,,,,,,,,,,,,
10,12,2461,B,67.28494226432821,52.422583068656,3.3642471132164102,0.823452009253452,B,516.014374000406,Correct,sub_010_day_12_data.csv,1,300,98.0,Training at home,,,,,,,,,,,,,
10,12,2462,B,45.40212246262479,15.878010009470408,2.2701061231312396,0.2494111979968871,B,460.08316700044816,Correct,sub_010_day_12_data.csv,1,300,98.0,Training at home,,,,,,,,,,,,,
10,12,2463,A,57.79702315005773,73.22498083255263,2.889851157502887,1.1502153092140035,A,626.9131239996568,Correct,sub_010_day_12_data.csv,1,300,98.0,Training at home,,,,,,,,,,,,,
10,12,2464,A,46.779151558866545,75.12846185985292,2.338957577943327,1.1801151192720745,A,602.523000000474,Correct,sub_010_day_12_data.csv,1,300,98.0,Training at home,,,,,,,,,,,,,
10,12,2465,B,81.13588215269465,58.42283084584017,4.056794107634732,0.9177036809360531,B,657.4997079997047,Correct,sub_010_day_12_data.csv,1,300,98.0,Training at home,,,,,,,,,,,,,
10,12,2466,A,14.460541017157748,37.12904384675347,0.7230270508578874,0.5832216569188702,A,456.003457999941,Correct,sub_010_day_12_data.csv,1,300,98.0,Training at home,,,,,,,,,,,,,
10,12,2467,B,65.2548838077754,40.61328250748608,3.26274419038877,0.6379519498184255,B,575.6334580000839,Correct,sub_010_day_12_data.csv,1,300,98.0,Training at home,,,,,,,,,,,,,
10,12,2468,B,83.70146046697803,57.603938087540314,4.1850730233489015,0.9048405435682896,B,583.2767490001061,Correct,sub_010_day_12_data.csv,1,300,98.0,Training at home,,,,,,,,,,,,,
10,12,2469,B,47.82428712826987,37.66575454662725,2.3912143564134936,0.5916522888780027,B,649.9991670007148,Correct,sub_010_day_12_data.csv,1,300,98.0,Training at home,,,,,,,,,,,,,
10,12,2470,A,53.33724642988604,72.99312023529663,2.6668623214943015,1.146573251469022,A,489.13487499976327,Correct,sub_010_day_12_data.csv,1,300,98.0,Training at home,,,,,,,,,,,,,
10,12,2471,A,24.911491365200188,36.07198451220183,1.2455745682600097,0.5666174077196904,A,643.4608749996187,Correct,sub_010_day_12_data.csv,1,300,98.0,Training at home,,,,,,,,,,,,,
10,12,2472,A,33.96095332437779,60.19665768989792,1.6980476662188897,0.9455668878462142,A,466.1925420004991,Correct,sub_010_day_12_data.csv,1,300,98.0,Training at home,,,,,,,,,,,,,
10,12,2473,A,43.86660869534074,66.05778794581408,2.193330434767037,1.0376333066148098,A,1138.9923749993611,Correct,sub_010_day_12_data.csv,1,300,98.0,Training at home,,,,,,,,,,,,,
10,12,2474,B,68.4810562023062,53.487345107664446,3.4240528101153105,0.8401772522513029,B,548.4417500001655,Correct,sub_010_day_12_data.csv,1,300,98.0,Training at home,,,,,,,,,,,,,
10,12,2475,B,65.19574826572234,34.456720257313954,3.259787413286117,0.5412448961358807,B,463.25208300004306,Correct,sub_010_day_12_data.csv,1,300,99.0,Training at home,,,,,,,,,,,,,
10,12,2476,A,26.340472651935688,39.822428973097104,1.3170236325967843,0.6255292515499159,A,491.8016250003347,Correct,sub_010_day_12_data.csv,1,300,99.0,Training at home,,,,,,,,,,,,,
10,12,2477,B,40.7143809637851,15.673044470213496,2.0357190481892555,0.2461916068350443,B,463.4124169997449,Correct,sub_010_day_12_data.csv,1,300,99.0,Training at home,,,,,,,,,,,,,
10,12,2478,A,24.393460575107017,39.16149303094397,1.2196730287553508,0.6151472940481074,A,511.20170800004416,Correct,sub_010_day_12_data.csv,1,300,99.0,Training at home,,,,,,,,,,,,,
10,12,2479,A,18.291511617973008,39.7676113574456,0.9145755808986504,0.6246681784568255,A,526.8099579998307,Correct,sub_010_day_12_data.csv,1,300,99.0,Training at home,,,,,,,,,,,,,
10,12,2480,B,38.49852124737241,11.830406293170448,1.9249260623686208,0.1858315874980336,B,505.1979580002808,Correct,sub_010_day_12_data.csv,1,300,99.0,Training at home,,,,,,,,,,,,,
10,12,2481,A,36.99151977319254,54.66581917422297,1.8495759886596272,0.8586886796010346,A,505.6027079999694,Correct,sub_010_day_12_data.csv,1,300,99.0,Training at home,,,,,,,,,,,,,
10,12,2482,A,29.07169789729634,61.57483652637925,1.453584894864817,0.9672152703863276,A,521.7363749998185,Correct,sub_010_day_12_data.csv,1,300,99.0,Training at home,,,,,,,,,,,,,
10,12,2483,A,58.41865099104617,73.27947996528687,2.9209325495523086,1.1510713795891283,A,528.9856250001321,Correct,sub_010_day_12_data.csv,1,300,99.0,Training at home,,,,,,,,,,,,,
10,12,2484,B,74.2433871112907,41.49498460535248,3.712169355564535,0.6518016939849846,B,539.6395830002803,Correct,sub_010_day_12_data.csv,1,300,99.0,Training at home,,,,,,,,,,,,,
10,12,2485,B,49.61672187460917,38.00977216458864,2.4808360937304585,0.5970561049844675,B,501.52820799939946,Correct,sub_010_day_12_data.csv,1,300,99.0,Training at home,,,,,,,,,,,,,
10,12,2486,A,16.754969808600627,40.53425954325294,0.8377484904300314,0.636710659998927,A,443.8086669997574,Correct,sub_010_day_12_data.csv,1,300,99.0,Training at home,,,,,,,,,,,,,
10,12,2487,A,59.0062723505869,68.92788154793907,2.9503136175293445,1.0827166314925645,B,683.8247920004505,Incorrect,sub_010_day_12_data.csv,0,300,99.0,Training at home,,,,,,,,,,,,,
10,12,2488,B,80.53900368420436,50.96758448769663,4.026950184210218,0.800596944988824,B,549.1978749996633,Correct,sub_010_day_12_data.csv,1,300,99.0,Training at home,,,,,,,,,,,,,
10,12,2489,B,39.80219642872963,18.54958576931577,1.9901098214364816,0.2913762119000809,B,635.466333000295,Correct,sub_010_day_12_data.csv,1,300,99.0,Training at home,,,,,,,,,,,,,
10,12,2490,A,21.652684564944717,40.184270039638626,1.082634228247236,0.6312130377319858,A,481.93104099937045,Correct,sub_010_day_12_data.csv,1,300,99.0,Training at home,,,,,,,,,,,,,
10,12,2491,A,35.63449674903929,64.63463603453648,1.7817248374519647,1.0152784886677495,A,555.6455409996488,Correct,sub_010_day_12_data.csv,1,300,99.0,Training at home,,,,,,,,,,,,,
10,12,2492,B,49.1096496138552,29.079524927296575,2.45548248069276,0.4567801094073808,B,428.418124000018,Correct,sub_010_day_12_data.csv,1,300,99.0,Training at home,,,,,,,,,,,,,
10,12,2493,B,75.30320671480173,51.21562267842754,3.7651603357400862,0.8044931197778739,B,679.1055000003325,Correct,sub_010_day_12_data.csv,1,300,99.0,Training at home,,,,,,,,,,,,,
10,12,2494,B,75.98484157271761,62.37156639983674,3.799242078635881,0.9797302739730752,B,738.9593329999116,Correct,sub_010_day_12_data.csv,1,300,99.0,Training at home,,,,,,,,,,,,,
10,12,2495,B,66.25651670890345,44.07212878760918,3.3128258354451727,0.6922833801360812,B,527.6117909997993,Correct,sub_010_day_12_data.csv,1,300,99.0,Training at home,,,,,,,,,,,,,
10,12,2496,B,64.05540592288517,36.35795362512798,3.202770296144258,0.5711094000413023,B,466.8546249995416,Correct,sub_010_day_12_data.csv,1,300,99.0,Training at home,,,,,,,,,,,,,
10,12,2497,B,55.36023044509573,38.764190294530664,2.7680115222547865,0.6089064772582714,B,409.8077489998104,Correct,sub_010_day_12_data.csv,1,300,99.0,Training at home,,,,,,,,,,,,,
10,12,2498,A,16.71330604229774,41.40721602724411,0.8356653021148871,0.6504230283839781,A,488.65999999998166,Correct,sub_010_day_12_data.csv,1,300,99.0,Training at home,,,,,,,,,,,,,
10,12,2499,B,45.63360473280056,32.919903245775416,2.281680236640028,0.5171046309690741,B,423.97962500035646,Correct,sub_010_day_12_data.csv,1,300,99.0,Training at home,,,,,,,,,,,,,
10,12,2500,B,45.26050302952107,21.863739261102054,2.2630251514760533,0.3434348132134047,B,422.8331249996699,Correct,sub_010_day_12_data.csv,1,300,100.0,Training at home,,,,,,,,,,,,,
10,12,2501,B,70.70143517864486,37.83092365321909,3.5350717589322427,0.5942467591373471,B,497.5947080001788,Correct,sub_010_day_12_data.csv,1,300,100.0,Training at home,,,,,,,,,,,,,
10,12,2502,A,32.15521247765218,49.593595634029384,1.607760623882609,0.7790143785448478,A,457.5227490004181,Correct,sub_010_day_12_data.csv,1,300,100.0,Training at home,,,,,,,,,,,,,
10,12,2503,B,83.16533791847303,65.08630236583332,4.158266895923651,1.0223732468091296,B,572.5734999996348,Correct,sub_010_day_12_data.csv,1,300,100.0,Training at home,,,,,,,,,,,,,
10,12,2504,A,58.13037336652411,77.73065903647941,2.9065186683262056,1.220990336938484,A,438.8797499996144,Correct,sub_010_day_12_data.csv,1,300,100.0,Training at home,,,,,,,,,,,,,
10,12,2505,A,68.72399208320098,83.14093528642137,3.4361996041600493,1.3059747575420289,A,419.4373749996885,Correct,sub_010_day_12_data.csv,1,300,100.0,Training at home,,,,,,,,,,,,,
10,12,2506,A,49.35304905778731,76.77542827489836,2.4676524528893653,1.205985607223154,A,526.4602910001486,Correct,sub_010_day_12_data.csv,1,300,100.0,Training at home,,,,,,,,,,,,,
10,12,2507,A,65.68785098554676,76.38971413620224,3.2843925492773383,1.199926823700587,A,518.0622079997192,Correct,sub_010_day_12_data.csv,1,300,100.0,Training at home,,,,,,,,,,,,,
10,12,2508,A,35.608211697946246,60.07691304005867,1.7804105848973122,0.9436859432850058,A,487.90312399978575,Correct,sub_010_day_12_data.csv,1,300,100.0,Training at home,,,,,,,,,,,,,
10,12,2509,A,48.77737647979024,78.58871340373301,2.438868823989512,1.2344686234212068,A,551.2112079995859,Correct,sub_010_day_12_data.csv,1,300,100.0,Training at home,,,,,,,,,,,,,
10,12,2510,B,41.45646356595661,29.866159317549503,2.0728231782978304,0.4691365335147794,B,475.8726249992833,Correct,sub_010_day_12_data.csv,1,300,100.0,Training at home,,,,,,,,,,,,,
10,12,2511,A,50.367566743830515,75.95033302481656,2.5183783371915256,1.1930250413423098,A,483.14962499989633,Correct,sub_010_day_12_data.csv,1,300,100.0,Training at home,,,,,,,,,,,,,
10,12,2512,B,44.92680392537686,18.887754385554384,2.246340196268843,0.2966881521023303,B,455.68162499967,Correct,sub_010_day_12_data.csv,1,300,100.0,Training at home,,,,,,,,,,,,,
10,12,2513,A,36.75039338876806,68.60305590037507,1.837519669438403,1.0776142821521413,A,423.0197910001152,Correct,sub_010_day_12_data.csv,1,300,100.0,Training at home,,,,,,,,,,,,,
10,12,2514,A,50.45686571966745,66.31692409703618,2.5228432859833725,1.041703807759604,A,435.8094160006658,Correct,sub_010_day_12_data.csv,1,300,100.0,Training at home,,,,,,,,,,,,,
10,12,2515,A,44.28747489307345,68.84726974196032,2.2143737446536726,1.081450384205287,A,472.4086249998436,Correct,sub_010_day_12_data.csv,1,300,100.0,Training at home,,,,,,,,,,,,,
10,12,2516,B,50.025040997629944,33.9137154233848,2.501252049881497,0.5327153961502027,B,577.6166249997914,Correct,sub_010_day_12_data.csv,1,300,100.0,Training at home,,,,,,,,,,,,,
10,12,2517,A,60.396356577192435,73.69173698968766,3.0198178288596216,1.1575470977853697,B,757.4288330006311,Incorrect,sub_010_day_12_data.csv,0,300,100.0,Training at home,,,,,,,,,,,,,
10,12,2518,B,47.68751162378558,25.26097024490634,2.3843755811892793,0.3967983927197406,B,445.5339579999418,Correct,sub_010_day_12_data.csv,1,300,100.0,Training at home,,,,,,,,,,,,,
10,12,2519,B,78.57712507802474,52.63820126811014,3.9288562539012366,0.8268389320103787,B,708.585165999466,Correct,sub_010_day_12_data.csv,1,300,100.0,Training at home,,,,,,,,,,,,,
10,12,2520,A,46.98232448225688,72.78198657642402,2.349116224112844,1.143256771710823,A,423.7150000008114,Correct,sub_010_day_12_data.csv,1,300,100.0,Training at home,,,,,,,,,,,,,
10,12,2521,B,71.33351671549597,49.09634775971075,3.5666758357747987,0.7712036271999851,B,583.4896670003218,Correct,sub_010_day_12_data.csv,1,300,100.0,Training at home,,,,,,,,,,,,,
10,12,2522,A,51.235337761348205,62.356513345819295,2.5617668880674103,0.9794938211534988,A,476.45270799966966,Correct,sub_010_day_12_data.csv,1,300,100.0,Training at home,,,,,,,,,,,,,
10,12,2523,B,55.04867569338682,37.54935660239382,2.752433784669341,0.589823914245519,B,518.3987079999497,Correct,sub_010_day_12_data.csv,1,300,100.0,Training at home,,,,,,,,,,,,,
10,12,2524,A,14.926535296411853,40.227693171652405,0.7463267648205927,0.6318951266946373,A,511.7194579997886,Correct,sub_010_day_12_data.csv,1,300,100.0,Training at home,,,,,,,,,,,,,
10,12,2525,B,52.12610963285708,40.85585273367579,2.6063054816428544,0.6417622340213117,B,628.3433329999752,Correct,sub_010_day_12_data.csv,1,300,101.0,Training at home,,,,,,,,,,,,,
10,12,2526,A,44.81717446764602,65.47249704550185,2.240858723382301,1.0284395786516405,A,447.8602490007688,Correct,sub_010_day_12_data.csv,1,300,101.0,Training at home,,,,,,,,,,,,,
10,12,2527,A,34.3055041281215,48.98521136986716,1.715275206406075,0.7694579008705893,B,574.2632490000688,Incorrect,sub_010_day_12_data.csv,0,300,101.0,Training at home,,,,,,,,,,,,,
10,12,2528,A,19.022212172122305,39.959854515675374,0.9511106086061152,0.6276879269248135,A,516.3073329995314,Correct,sub_010_day_12_data.csv,1,300,101.0,Training at home,,,,,,,,,,,,,
10,12,2529,A,30.92851820978688,53.65651362073632,1.546425910489344,0.8428345450407295,A,529.8430000002554,Correct,sub_010_day_12_data.csv,1,300,101.0,Training at home,,,,,,,,,,,,,
10,12,2530,B,72.46310895003195,63.03424057445932,3.623155447501597,0.9901395355666652,B,533.1499579997399,Correct,sub_010_day_12_data.csv,1,300,101.0,Training at home,,,,,,,,,,,,,
10,12,2531,B,60.907426428570574,28.45109182725857,3.045371321428529,0.4469087053556206,B,510.358749000261,Correct,sub_010_day_12_data.csv,1,300,101.0,Training at home,,,,,,,,,,,,,
10,12,2532,B,74.36600944177279,47.119799031862605,3.718300472088639,0.7401560723856351,B,542.8530409999439,Correct,sub_010_day_12_data.csv,1,300,101.0,Training at home,,,,,,,,,,,,,
10,12,2533,B,44.11954322236012,32.96103418915744,2.205977161118006,0.5177507143168951,B,512.5995420003164,Correct,sub_010_day_12_data.csv,1,300,101.0,Training at home,,,,,,,,,,,,,
10,12,2534,B,81.74891346582531,67.96703932625672,4.087445673291265,1.067623757168083,A,611.450665999655,Incorrect,sub_010_day_12_data.csv,0,300,101.0,Training at home,,,,,,,,,,,,,
10,12,2535,B,44.37474472988487,24.73374227529975,2.2187372364942433,0.3885167151393249,B,427.4994990000778,Correct,sub_010_day_12_data.csv,1,300,101.0,Training at home,,,,,,,,,,,,,
10,12,2536,B,34.012877401923795,17.488900543492303,1.7006438700961897,0.2747150073339897,B,480.1197910001065,Correct,sub_010_day_12_data.csv,1,300,101.0,Training at home,,,,,,,,,,,,,
10,12,2537,B,68.39603878047637,45.69501961923119,3.419801939023819,0.7177756897070908,B,444.6546670005773,Correct,sub_010_day_12_data.csv,1,300,101.0,Training at home,,,,,,,,,,,,,
10,12,2538,B,66.16424634523821,51.51391861630627,3.3082123172619107,0.8091787414130514,B,490.4627079995407,Correct,sub_010_day_12_data.csv,1,300,101.0,Training at home,,,,,,,,,,,,,
10,12,2539,A,51.74978619379712,77.91106892641642,2.587489309689856,1.223824208862789,A,509.4831249998606,Correct,sub_010_day_12_data.csv,1,300,101.0,Training at home,,,,,,,,,,,,,
10,12,2540,B,37.771737734508186,22.849276811678397,1.8885868867254092,0.3589156008570424,B,509.6784170000319,Correct,sub_010_day_12_data.csv,1,300,101.0,Training at home,,,,,,,,,,,,,
10,12,2541,A,30.93093623242433,59.53529530381694,1.5465468116212164,0.935178231778851,A,494.2800830003762,Correct,sub_010_day_12_data.csv,1,300,101.0,Training at home,,,,,,,,,,,,,
10,12,2542,A,42.09874131175595,65.58858367228004,2.1049370655877975,1.030263063120972,A,500.8277500000986,Correct,sub_010_day_12_data.csv,1,300,101.0,Training at home,,,,,,,,,,,,,
10,12,2543,B,87.66966122536051,66.27003029552453,4.383483061268026,1.0409672016479643,B,691.4353749998554,Correct,sub_010_day_12_data.csv,1,300,101.0,Training at home,,,,,,,,,,,,,
10,12,2544,B,81.44047545497656,66.30660801363165,4.072023772748828,1.0415417631004165,B,676.6570419995332,Correct,sub_010_day_12_data.csv,1,300,101.0,Training at home,,,,,,,,,,,,,
10,12,2545,A,30.197311165348783,44.759625279933786,1.5098655582674394,0.7030825497843598,A,673.8082909996592,Correct,sub_010_day_12_data.csv,1,300,101.0,Training at home,,,,,,,,,,,,,
10,12,2546,A,53.94546609122184,69.8117078908696,2.697273304561092,1.0965997432225627,A,634.2982910000501,Correct,sub_010_day_12_data.csv,1,300,101.0,Training at home,,,,,,,,,,,,,
10,12,2547,B,49.178663250902666,26.17323990735602,2.4589331625451334,0.4111282910679644,B,532.7877489999082,Correct,sub_010_day_12_data.csv,1,300,101.0,Training at home,,,,,,,,,,,,,
10,12,2548,A,67.61988960523922,81.37395696971704,3.380994480261961,1.2782191270479748,A,528.8964999999735,Correct,sub_010_day_12_data.csv,1,300,101.0,Training at home,,,,,,,,,,,,,
10,12,2549,A,51.75430484824902,67.92452944069206,2.587715242412451,1.0669560134471088,B,841.5183329998399,Incorrect,sub_010_day_12_data.csv,0,300,101.0,Training at home,,,,,,,,,,,,,
10,12,2550,B,46.12388920085155,31.71870814692298,2.3061944600425774,0.4982363024786598,B,488.993582999683,Correct,sub_010_day_12_data.csv,1,300,102.0,Training at home,,,,,,,,,,,,,
10,12,2551,B,72.98259693260728,52.2509745555348,3.649129846630364,0.8207563890328766,B,930.9368750000432,Correct,sub_010_day_12_data.csv,1,300,102.0,Training at home,,,,,,,,,,,,,
10,12,2552,A,43.35902499302097,61.856520763654366,2.167951249651048,0.9716399560386052,A,492.8787909993843,Correct,sub_010_day_12_data.csv,1,300,102.0,Training at home,,,,,,,,,,,,,
10,12,2553,B,86.20832782451133,65.05756422749946,4.310416391225567,1.021921829187792,B,909.3530410000312,Correct,sub_010_day_12_data.csv,1,300,102.0,Training at home,,,,,,,,,,,,,
10,12,2554,A,49.604191699818486,67.16333030952356,2.4802095849909245,1.0549991254551196,A,475.8225000005041,Correct,sub_010_day_12_data.csv,1,300,102.0,Training at home,,,,,,,,,,,,,
10,12,2555,B,66.4446177847514,55.64952409024189,3.32223088923757,0.8741406802883608,B,560.5977489994984,Correct,sub_010_day_12_data.csv,1,300,102.0,Training at home,,,,,,,,,,,,,
10,12,2556,A,22.702040529983343,38.235012837910645,1.1351020264991671,0.6005941772074576,A,555.9157910001886,Correct,sub_010_day_12_data.csv,1,300,102.0,Training at home,,,,,,,,,,,,,
10,12,2557,A,48.72284634496439,76.73660580200178,2.4361423172482195,1.2053757852449234,A,445.9654170004797,Correct,sub_010_day_12_data.csv,1,300,102.0,Training at home,,,,,,,,,,,,,
10,12,2558,A,46.96767442516078,59.14922172522702,2.348383721258039,0.929113802187635,A,499.0658329998041,Correct,sub_010_day_12_data.csv,1,300,102.0,Training at home,,,,,,,,,,,,,
10,12,2559,A,48.48559521459547,60.936222050462504,2.4242797607297732,0.9571839376562468,A,511.99004099999,Correct,sub_010_day_12_data.csv,1,300,102.0,Training at home,,,,,,,,,,,,,
10,12,2560,B,43.689378173206926,35.4376032751812,2.1844689086603464,0.5566525705506944,B,616.2804999994478,Correct,sub_010_day_12_data.csv,1,300,102.0,Training at home,,,,,,,,,,,,,
10,12,2561,B,71.08368881224068,41.347544120258746,3.5541844406120338,0.6494857042609236,B,490.70095799925184,Correct,sub_010_day_12_data.csv,1,300,102.0,Training at home,,,,,,,,,,,,,
10,12,2562,B,58.7596847697717,49.37795007479333,2.9379842384885855,0.7756270260214717,B,586.0123739994378,Correct,sub_010_day_12_data.csv,1,300,102.0,Training at home,,,,,,,,,,,,,
10,12,2563,B,43.571837501072295,15.712128591614851,2.178591875053615,0.2468055387783768,B,498.2177079991743,Correct,sub_010_day_12_data.csv,1,300,102.0,Training at home,,,,,,,,,,,,,
10,12,2564,B,56.97453128327212,32.38365436074358,2.848726564163606,0.5086812531805154,B,450.6515829998534,Correct,sub_010_day_12_data.csv,1,300,102.0,Training at home,,,,,,,,,,,,,
10,12,2565,B,74.56606866734836,60.21426495041865,3.728303433367418,0.945843462047723,B,590.7369579999795,Correct,sub_010_day_12_data.csv,1,300,102.0,Training at home,,,,,,,,,,,,,
10,12,2566,B,38.712601660344575,20.557999190424475,1.9356300830172288,0.3229242961457122,B,598.3808750006574,Correct,sub_010_day_12_data.csv,1,300,102.0,Training at home,,,,,,,,,,,,,
10,12,2567,B,54.92900215588598,28.600572245505735,2.746450107794299,0.4492567382747247,B,515.8185410000442,Correct,sub_010_day_12_data.csv,1,300,102.0,Training at home,,,,,,,,,,,,,
10,12,2568,B,77.79438022655717,54.06121607168268,3.889719011327858,0.8491915962746439,B,630.9020409998993,Correct,sub_010_day_12_data.csv,1,300,102.0,Training at home,,,,,,,,,,,,,
10,12,2569,A,37.52353514836359,59.13174370259399,1.8761767574181796,0.9288392580501188,A,544.4580829998813,Correct,sub_010_day_12_data.csv,1,300,102.0,Training at home,,,,,,,,,,,,,
10,12,2570,A,29.33797823615074,62.27104163582213,1.466898911807537,0.9781512346724144,A,516.108207999423,Correct,sub_010_day_12_data.csv,1,300,102.0,Training at home,,,,,,,,,,,,,
10,12,2571,B,80.93916513310806,66.07168962747483,4.046958256655404,1.0378516737196992,B,716.5392910001174,Correct,sub_010_day_12_data.csv,1,300,102.0,Training at home,,,,,,,,,,,,,
10,12,2572,B,38.05909157789672,27.95844049663193,1.9029545788948357,0.439170156350231,B,666.2736660000519,Correct,sub_010_day_12_data.csv,1,300,102.0,Training at home,,,,,,,,,,,,,
10,12,2573,B,69.24053721983884,40.310912658535955,3.4620268609919425,0.6332023353377818,B,454.7767909998583,Correct,sub_010_day_12_data.csv,1,300,102.0,Training at home,,,,,,,,,,,,,
10,12,2574,A,11.946059113581416,35.05631534613117,0.5973029556790708,0.5506633137666641,A,500.0794580000729,Correct,sub_010_day_12_data.csv,1,300,102.0,Training at home,,,,,,,,,,,,,
10,12,2575,B,53.135161562647546,42.71879475593765,2.6567580781323774,0.6710252588773195,B,428.525250000348,Correct,sub_010_day_12_data.csv,1,300,103.0,Training at home,,,,,,,,,,,,,
10,12,2576,A,39.467556175233,61.90595180230644,1.97337780876165,0.9724164169780486,A,485.6350410000232,Correct,sub_010_day_12_data.csv,1,300,103.0,Training at home,,,,,,,,,,,,,
10,12,2577,A,55.485747427346226,84.19470140880726,2.7742873713673113,1.3225272770854757,A,511.98962399939774,Correct,sub_010_day_12_data.csv,1,300,103.0,Training at home,,,,,,,,,,,,,
10,12,2578,B,31.98839758378172,12.94453573627693,1.599419879189086,0.2033322918660907,B,505.3285419999156,Correct,sub_010_day_12_data.csv,1,300,103.0,Training at home,,,,,,,,,,,,,
10,12,2579,A,64.64238801502314,78.40446431646174,3.232119400751157,1.2315744455261963,A,595.0674159994378,Correct,sub_010_day_12_data.csv,1,300,103.0,Training at home,,,,,,,,,,,,,
10,12,2580,B,50.67112128680998,40.62391891413639,2.533556064340499,0.6381190261033917,B,526.7120409998824,Correct,sub_010_day_12_data.csv,1,300,103.0,Training at home,,,,,,,,,,,,,
10,12,2581,A,31.985211682266897,55.66433426223637,1.5992605841133447,0.874373317926042,A,483.66770800021186,Correct,sub_010_day_12_data.csv,1,300,103.0,Training at home,,,,,,,,,,,,,
10,12,2582,B,50.62170127763589,21.07049700957803,2.531085063881795,0.3309745930638802,B,417.3047909998786,Correct,sub_010_day_12_data.csv,1,300,103.0,Training at home,,,,,,,,,,,,,
10,12,2583,A,51.609330682656015,60.802172842066966,2.5804665341328006,0.9550782976146722,B,732.9234159997213,Incorrect,sub_010_day_12_data.csv,0,300,103.0,Training at home,,,,,,,,,,,,,
10,12,2584,A,37.09993308851225,49.219728883869166,1.8549966544256125,0.7731416933662236,A,479.7978329997932,Correct,sub_010_day_12_data.csv,1,300,103.0,Training at home,,,,,,,,,,,,,
10,12,2585,A,63.11053715096421,80.34285835676438,3.1555268575482107,1.2620226679100814,A,476.521208000122,Correct,sub_010_day_12_data.csv,1,300,103.0,Training at home,,,,,,,,,,,,,
10,12,2586,B,68.67109789951056,57.91179042175884,3.4335548949755275,0.9096762767261464,B,690.3494159996626,Correct,sub_010_day_12_data.csv,1,300,103.0,Training at home,,,,,,,,,,,,,
10,12,2587,B,89.05877937747837,63.850913029549815,4.4529389688739185,1.0029677964931725,B,573.2765829998243,Correct,sub_010_day_12_data.csv,1,300,103.0,Training at home,,,,,,,,,,,,,
10,12,2588,A,47.89710639697083,55.44991263461493,2.394855319848541,0.8710051908755106,B,517.6647079997565,Incorrect,sub_010_day_12_data.csv,0,300,103.0,Training at home,,,,,,,,,,,,,
10,12,2589,B,52.41358049292929,27.70412643568682,2.620679024646465,0.4351754004223825,B,696.8757909999113,Correct,sub_010_day_12_data.csv,1,300,103.0,Training at home,,,,,,,,,,,,,
10,12,2590,B,62.600949173669306,40.3407968922846,3.1300474586834652,0.6336717557837963,B,448.0031250004686,Correct,sub_010_day_12_data.csv,1,300,103.0,Training at home,,,,,,,,,,,,,
10,12,2591,B,41.32618394024303,27.001759991916572,2.066309197012151,0.4241426541229994,B,519.8729159992581,Correct,sub_010_day_12_data.csv,1,300,103.0,Training at home,,,,,,,,,,,,,
10,12,2592,B,30.687970751374035,13.259167158716547,1.5343985375687017,0.2082745106927147,B,563.5666669995771,Correct,sub_010_day_12_data.csv,1,300,103.0,Training at home,,,,,,,,,,,,,
10,12,2593,B,66.26515804822081,46.011128124164195,3.3132579024110407,0.7227411104912648,B,627.3474999998143,Correct,sub_010_day_12_data.csv,1,300,103.0,Training at home,,,,,,,,,,,,,
10,12,2594,A,18.70189258659015,35.08074884361767,0.9350946293295076,0.5510471142476895,A,574.4276249997711,Correct,sub_010_day_12_data.csv,1,300,103.0,Training at home,,,,,,,,,,,,,
10,12,2595,B,75.18551161749036,43.13126314409162,3.759275580874518,0.6775042971676322,B,495.4675829994813,Correct,sub_010_day_12_data.csv,1,300,103.0,Training at home,,,,,,,,,,,,,
10,12,2596,A,20.626763091359216,37.75028798141926,1.0313381545679607,0.5929801369666291,A,649.9804169998242,Correct,sub_010_day_12_data.csv,1,300,103.0,Training at home,,,,,,,,,,,,,
10,12,2597,B,62.37874975778972,30.699845527427357,3.118937487889486,0.4822320458765363,B,868.5424579998653,Correct,sub_010_day_12_data.csv,1,300,103.0,Training at home,,,,,,,,,,,,,
10,12,2598,A,68.22383783089354,89.3837425493765,3.4111918915446773,1.4040365447174132,A,682.0559990001129,Correct,sub_010_day_12_data.csv,1,300,103.0,Training at home,,,,,,,,,,,,,
10,12,2599,A,31.744859835519144,62.08067664049901,1.5872429917759572,0.9751609883183758,A,791.434417000346,Correct,sub_010_day_12_data.csv,1,300,103.0,Training at home,,,,,,,,,,,,,
10,12,2600,B,39.90851921253787,21.38000796729021,1.9954259606268936,0.3358363798186509,B,1108.842999999979,Correct,sub_010_day_12_data.csv,1,300,104.0,Training at home,,,,,,,,,,,,,
10,12,2601,B,72.53122894643556,55.10722321243527,3.6265614473217784,0.8656222380195978,B,983.5492490001344,Correct,sub_010_day_12_data.csv,1,300,104.0,Training at home,,,,,,,,,,,,,
10,12,2602,A,44.33454945277433,73.87558688914096,2.2167274726387167,1.1604350052527983,A,531.3605410001401,Correct,sub_010_day_12_data.csv,1,300,104.0,Training at home,,,,,,,,,,,,,
10,12,2603,B,59.36013623945372,47.4921989699077,2.968006811972686,0.7460057169334338,B,511.64637399961066,Correct,sub_010_day_12_data.csv,1,300,104.0,Training at home,,,,,,,,,,,,,
10,12,2604,A,47.51043069756659,56.17536662393778,2.3755215348783296,0.8824005954923808,B,561.0064990005412,Incorrect,sub_010_day_12_data.csv,0,300,104.0,Training at home,,,,,,,,,,,,,
10,12,2605,A,23.16748870720618,37.04311141981891,1.158374435360309,0.5818718335130564,A,577.9840830000467,Correct,sub_010_day_12_data.csv,1,300,104.0,Training at home,,,,,,,,,,,,,
10,12,2606,B,86.82253134405073,61.75878556709499,4.3411265672025365,0.9701047351610648,B,603.9001239996651,Correct,sub_010_day_12_data.csv,1,300,104.0,Training at home,,,,,,,,,,,,,
10,12,2607,B,41.14872450277372,32.06707824412196,2.057436225138686,0.5037084871691131,B,550.2907500003857,Correct,sub_010_day_12_data.csv,1,300,104.0,Training at home,,,,,,,,,,,,,
10,12,2608,A,31.677189800583875,63.190814865107704,1.5838594900291938,0.9925989987728754,A,522.5241250000181,Correct,sub_010_day_12_data.csv,1,300,104.0,Training at home,,,,,,,,,,,,,
10,12,2609,B,48.41315033816169,19.657452582923693,2.4206575169080846,0.3087785431140138,B,419.7323750004216,Correct,sub_010_day_12_data.csv,1,300,104.0,Training at home,,,,,,,,,,,,,
10,12,2610,A,59.352494721194546,75.06857942710201,2.967624736059727,1.1791744882180275,A,645.886082999823,Correct,sub_010_day_12_data.csv,1,300,104.0,Training at home,,,,,,,,,,,,,
10,12,2611,B,72.26220862056665,49.904615497010674,3.613110431028333,0.7838998671281604,B,608.6027499995907,Correct,sub_010_day_12_data.csv,1,300,104.0,Training at home,,,,,,,,,,,,,
10,12,2612,B,47.85490898005646,23.02770681684423,2.3927454490028226,0.3617183728240871,B,382.84166599987657,Correct,sub_010_day_12_data.csv,1,300,104.0,Training at home,,,,,,,,,,,,,
10,12,2613,A,31.346418808249496,46.469827225232066,1.5673209404124748,0.7299463391218801,A,478.6581660000593,Correct,sub_010_day_12_data.csv,1,300,104.0,Training at home,,,,,,,,,,,,,
10,12,2614,B,33.4794889019055,16.28252096178946,1.6739744450952747,0.2557652411773979,B,491.5496240000721,Correct,sub_010_day_12_data.csv,1,300,104.0,Training at home,,,,,,,,,,,,,
10,12,2615,B,63.56058913131407,33.334468390604634,3.1780294565657035,0.5236166050362235,B,483.49045800023305,Correct,sub_010_day_12_data.csv,1,300,104.0,Training at home,,,,,,,,,,,,,
10,12,2616,B,67.58045879363686,43.93064562516978,3.3790229396818434,0.6900609678174499,B,729.5278330002475,Correct,sub_010_day_12_data.csv,1,300,104.0,Training at home,,,,,,,,,,,,,
10,12,2617,A,61.65857853806004,72.37441346883975,3.0829289269030022,1.1368546283078855,A,727.6826239994989,Correct,sub_010_day_12_data.csv,1,300,104.0,Training at home,,,,,,,,,,,,,
10,12,2618,B,45.586725816158285,29.20378734663674,2.2793362908079144,0.4587320189259627,B,467.2591239996109,Correct,sub_010_day_12_data.csv,1,300,104.0,Training at home,,,,,,,,,,,,,
10,12,2619,B,83.3929322098764,65.99129014867933,4.16964661049382,1.0365887616600171,A,699.8269159994379,Incorrect,sub_010_day_12_data.csv,0,300,104.0,Training at home,,,,,,,,,,,,,
10,12,2620,A,27.75909919124509,42.099041920072025,1.387954959562255,0.6612902040963351,A,648.5492080000768,Correct,sub_010_day_12_data.csv,1,300,104.0,Training at home,,,,,,,,,,,,,
10,12,2621,B,39.139810399661016,13.618407772100312,1.9569905199830508,0.2139174490521024,B,452.59437400000024,Correct,sub_010_day_12_data.csv,1,300,104.0,Training at home,,,,,,,,,,,,,
10,12,2622,A,32.498420225568616,63.647571808166255,1.624921011278431,0.9997737200568196,A,461.4759160003814,Correct,sub_010_day_12_data.csv,1,300,104.0,Training at home,,,,,,,,,,,,,
10,12,2623,B,46.09479287363962,31.08250798551193,2.304739643681981,0.4882428937121519,B,549.6039170002405,Correct,sub_010_day_12_data.csv,1,300,104.0,Training at home,,,,,,,,,,,,,
10,12,2624,A,57.23588922202548,81.82783283288624,2.8617944611012742,1.2853485924348451,A,560.6968330002928,Correct,sub_010_day_12_data.csv,1,300,104.0,Training at home,,,,,,,,,,,,,
10,12,2625,B,31.022398097282608,12.500999467035676,1.5511199048641304,0.196365240440846,B,556.922248999399,Correct,sub_010_day_12_data.csv,1,300,105.0,Training at home,,,,,,,,,,,,,
10,12,2626,A,48.55800325163977,64.46758748973377,2.4279001625819885,1.0126544962620243,A,465.93366700017214,Correct,sub_010_day_12_data.csv,1,300,105.0,Training at home,,,,,,,,,,,,,
10,12,2627,A,38.02988460427705,59.75017709249971,1.9014942302138524,0.9385535870224312,A,768.9042490001157,Correct,sub_010_day_12_data.csv,1,300,105.0,Training at home,,,,,,,,,,,,,
10,12,2628,A,33.337156290551476,61.33669850435835,1.666857814527574,0.9634746070837212,A,908.2964579993132,Correct,sub_010_day_12_data.csv,1,300,105.0,Training at home,,,,,,,,,,,,,
10,12,2629,A,43.559908955694816,73.18212733404637,2.177995447784741,1.1495421680335645,A,923.2839579999564,Correct,sub_010_day_12_data.csv,1,300,105.0,Training at home,,,,,,,,,,,,,
10,12,2630,B,46.62770725694179,16.517046471496652,2.3313853628470893,0.2594491592692755,B,555.5473329995948,Correct,sub_010_day_12_data.csv,1,300,105.0,Training at home,,,,,,,,,,,,,
10,12,2631,A,34.92230441262498,55.457023556744474,1.7461152206312491,0.8711168889791226,A,951.6747489997216,Correct,sub_010_day_12_data.csv,1,300,105.0,Training at home,,,,,,,,,,,,,
10,12,2632,B,81.2752314934126,52.854341889284385,4.063761574670631,0.8302340609484955,B,571.1818330000824,Correct,sub_010_day_12_data.csv,1,300,105.0,Training at home,,,,,,,,,,,,,
10,12,2633,A,63.10254624428379,86.35705360233209,3.1551273122141894,1.3564934259137322,A,483.79516699969827,Correct,sub_010_day_12_data.csv,1,300,105.0,Training at home,,,,,,,,,,,,,
10,12,2634,B,71.85281255196647,56.077264660415025,3.592640627598323,0.8808596134528519,B,491.2550420003754,Correct,sub_010_day_12_data.csv,1,300,105.0,Training at home,,,,,,,,,,,,,
10,12,2635,B,41.02587250393369,28.05446459312972,2.0512936251966845,0.4406784993308565,B,519.3388749994483,Correct,sub_010_day_12_data.csv,1,300,105.0,Training at home,,,,,,,,,,,,,
10,12,2636,B,53.08183781026044,29.63785401910058,2.6540918905130217,0.4655503222728655,B,567.0529579992944,Correct,sub_010_day_12_data.csv,1,300,105.0,Training at home,,,,,,,,,,,,,
10,12,2637,A,24.694408112469723,50.92382803322299,1.2347204056234862,0.7999096202092167,A,588.8452919998599,Correct,sub_010_day_12_data.csv,1,300,105.0,Training at home,,,,,,,,,,,,,
10,12,2638,A,59.97368699808975,75.06957217716035,2.9986843499044875,1.1791900822994783,A,967.4354159997164,Correct,sub_010_day_12_data.csv,1,300,105.0,Training at home,,,,,,,,,,,,,
10,12,2639,B,51.857327817692266,23.965912532752306,2.5928663908846135,0.376455673747351,B,535.4577500002051,Correct,sub_010_day_12_data.csv,1,300,105.0,Training at home,,,,,,,,,,,,,
10,12,2640,A,20.555999632764205,33.102425234847495,1.0277999816382104,0.5199716796690114,A,535.3664169997501,Correct,sub_010_day_12_data.csv,1,300,105.0,Training at home,,,,,,,,,,,,,
10,12,2641,A,14.598097467819972,34.67006334511803,0.7299048733909985,0.5445960815225779,A,742.883165999956,Correct,sub_010_day_12_data.csv,1,300,105.0,Training at home,,,,,,,,,,,,,
10,12,2642,B,83.0416923650049,62.758380984752904,4.152084618250245,0.9858063432644456,B,686.6930410005807,Correct,sub_010_day_12_data.csv,1,300,105.0,Training at home,,,,,,,,,,,,,
10,12,2643,A,40.52352260196247,71.27939216401064,2.0261761300981234,1.1196540738740086,A,530.5209999996805,Correct,sub_010_day_12_data.csv,1,300,105.0,Training at home,,,,,,,,,,,,,
10,12,2644,B,67.8445123880789,46.02226603069427,3.392225619403945,0.7229160643179212,B,458.7833329997011,Correct,sub_010_day_12_data.csv,1,300,105.0,Training at home,,,,,,,,,,,,,
10,12,2645,B,87.86810024520064,69.72424325753767,4.393405012260032,1.09522585197494,B,628.7000829997851,Correct,sub_010_day_12_data.csv,1,300,105.0,Training at home,,,,,,,,,,,,,
10,12,2646,A,36.283954469699054,56.7427078317456,1.814197723484953,0.89131237034502,A,665.3039169996191,Correct,sub_010_day_12_data.csv,1,300,105.0,Training at home,,,,,,,,,,,,,
10,12,2647,A,21.920255079732417,50.89512271934845,1.096012753986621,0.7994587181932802,A,455.30883300034475,Correct,sub_010_day_12_data.csv,1,300,105.0,Training at home,,,,,,,,,,,,,
10,12,2648,B,61.47042303633052,33.010789411424945,3.073521151816526,0.5185322675206616,B,458.6952919999021,Correct,sub_010_day_12_data.csv,1,300,105.0,Training at home,,,,,,,,,,,,,
10,12,2649,A,62.45242633024667,80.98642883248006,3.1226213165123333,1.27213184930296,A,627.1026659997005,Correct,sub_010_day_12_data.csv,1,300,105.0,Training at home,,,,,,,,,,,,,
10,12,2650,A,48.21603555819726,72.38266519589254,2.410801777909863,1.1369842461333282,A,684.5864580000125,Correct,sub_010_day_12_data.csv,1,300,106.0,Training at home,,,,,,,,,,,,,
10,12,2651,B,74.89478303496094,60.64947011884167,3.744739151748047,0.9526796488473336,B,566.1463330006882,Correct,sub_010_day_12_data.csv,1,300,106.0,Training at home,,,,,,,,,,,,,
10,12,2652,B,56.80004395359688,24.904054819362663,2.8400021976798437,0.3911919783255361,B,475.73958300017694,Correct,sub_010_day_12_data.csv,1,300,106.0,Training at home,,,,,,,,,,,,,
10,12,2653,B,78.86305600418515,48.721616305153745,3.943152800209258,0.7653173592764585,B,590.2157499995155,Correct,sub_010_day_12_data.csv,1,300,106.0,Training at home,,,,,,,,,,,,,
10,12,2654,A,38.950859837825526,64.22664729656367,1.9475429918912763,1.008869816557936,A,527.2704990002239,Correct,sub_010_day_12_data.csv,1,300,106.0,Training at home,,,,,,,,,,,,,
10,12,2655,A,13.81073055877012,33.11722109238823,0.6905365279385061,0.520204092455779,A,562.6224990000992,Correct,sub_010_day_12_data.csv,1,300,106.0,Training at home,,,,,,,,,,,,,
10,12,2656,A,49.01416519759311,76.04940571417278,2.4507082598796557,1.1945812715075743,A,580.0819999994928,Correct,sub_010_day_12_data.csv,1,300,106.0,Training at home,,,,,,,,,,,,,
10,12,2657,A,41.99362871911307,63.40621439385487,2.0996814359556537,0.9959824866583694,A,709.0018740000232,Correct,sub_010_day_12_data.csv,1,300,106.0,Training at home,,,,,,,,,,,,,
10,12,2658,B,66.66147573952473,49.07721435219882,3.333073786976237,0.770903080337597,B,620.5164579996563,Correct,sub_010_day_12_data.csv,1,300,106.0,Training at home,,,,,,,,,,,,,
10,12,2659,A,41.41516190223106,71.64526131921424,2.070758095111553,1.1254011331248222,A,503.7579580002785,Correct,sub_010_day_12_data.csv,1,300,106.0,Training at home,,,,,,,,,,,,,
10,12,2660,A,26.681042267614423,45.636788125459354,1.3340521133807213,0.7168609915418852,A,592.7884579996316,Correct,sub_010_day_12_data.csv,1,300,106.0,Training at home,,,,,,,,,,,,,
10,12,2661,B,35.42503293177883,18.4794588920914,1.7712516465889416,0.2902746614885446,B,486.4499170007548,Correct,sub_010_day_12_data.csv,1,300,106.0,Training at home,,,,,,,,,,,,,
10,12,2662,A,52.737410294321734,81.39336160159311,2.636870514716087,1.2785239342927126,A,425.75420800039865,Correct,sub_010_day_12_data.csv,1,300,106.0,Training at home,,,,,,,,,,,,,
10,12,2663,A,27.763131068335476,43.2179827142794,1.3881565534167737,0.6788664849907542,A,607.5265409999702,Correct,sub_010_day_12_data.csv,1,300,106.0,Training at home,,,,,,,,,,,,,
10,12,2664,B,53.13840339093662,21.80600551973078,2.6569201695468307,0.3425279337246234,B,452.88224999967497,Correct,sub_010_day_12_data.csv,1,300,106.0,Training at home,,,,,,,,,,,,,
10,12,2665,A,47.19621872317441,73.08137032226642,2.3598109361587207,1.1479594805935367,A,520.365249999486,Correct,sub_010_day_12_data.csv,1,300,106.0,Training at home,,,,,,,,,,,,,
10,12,2666,A,39.20603909463751,61.054574446289365,1.9603019547318752,0.9590430127425688,A,529.8081250002724,Correct,sub_010_day_12_data.csv,1,300,106.0,Training at home,,,,,,,,,,,,,
10,12,2667,A,24.410710378561184,41.76745288272976,1.2205355189280591,0.6560816156777082,A,602.0012919998408,Correct,sub_010_day_12_data.csv,1,300,106.0,Training at home,,,,,,,,,,,,,
10,12,2668,A,51.259255031946815,72.05414489466708,2.562962751597341,1.1318238613089031,A,904.0192910006226,Correct,sub_010_day_12_data.csv,1,300,106.0,Training at home,,,,,,,,,,,,,
10,12,2669,A,34.11018367593833,44.68019652358531,1.7055091837969167,0.7018348857972192,B,816.1447920001592,Incorrect,sub_010_day_12_data.csv,0,300,106.0,Training at home,,,,,,,,,,,,,
10,12,2670,B,51.74234262021961,27.732334911800276,2.5871171310109804,0.4356184981290175,B,520.7161250000354,Correct,sub_010_day_12_data.csv,1,300,106.0,Training at home,,,,,,,,,,,,,
10,12,2671,B,55.03421480587094,32.718540585591164,2.751710740293547,0.5139416336993634,B,459.2375829997763,Correct,sub_010_day_12_data.csv,1,300,106.0,Training at home,,,,,,,,,,,,,
10,12,2672,A,15.578561707469037,42.75651511176704,0.7789280853734517,0.6716177688411415,A,498.84595799994713,Correct,sub_010_day_12_data.csv,1,300,106.0,Training at home,,,,,,,,,,,,,
10,12,2673,B,63.045525024847706,51.10440810107929,3.1522762512423856,0.802746165282027,B,516.5461249998771,Correct,sub_010_day_12_data.csv,1,300,106.0,Training at home,,,,,,,,,,,,,
10,12,2674,A,57.32222523819769,82.24483214652379,2.8661112619098845,1.291898802336224,A,561.7477919995508,Correct,sub_010_day_12_data.csv,1,300,106.0,Training at home,,,,,,,,,,,,,
10,12,2675,A,17.24303925247683,41.98191149493428,0.8621519626238415,0.6594503236807122,A,548.8475410002138,Correct,sub_010_day_12_data.csv,1,300,107.0,Training at home,,,,,,,,,,,,,
10,12,2676,A,20.731885584098183,42.65114073573187,1.0365942792049092,0.669962552012998,A,591.4292500001466,Correct,sub_010_day_12_data.csv,1,300,107.0,Training at home,,,,,,,,,,,,,
10,12,2677,B,57.302413727716946,39.86014909322827,2.865120686385847,0.626121757811399,B,563.7739169997076,Correct,sub_010_day_12_data.csv,1,300,107.0,Training at home,,,,,,,,,,,,,
10,12,2678,A,30.69059879338738,53.94714831189034,1.534529939669369,0.8473998240937685,A,695.1134169994475,Correct,sub_010_day_12_data.csv,1,300,107.0,Training at home,,,,,,,,,,,,,
10,12,2679,A,55.26772252753481,74.69354777534218,2.7633861263767403,1.1732835048078665,A,632.0555829997829,Correct,sub_010_day_12_data.csv,1,300,107.0,Training at home,,,,,,,,,,,,,
10,12,2680,B,84.33139270986979,69.50461449144417,4.216569635493489,1.0917759313845583,B,1861.150040999746,Correct,sub_010_day_12_data.csv,1,300,107.0,Training at home,,,,,,,,,,,,,
10,12,2681,A,12.350369303969355,34.84893278781093,0.6175184651984678,0.5474057561581565,A,528.5747490006543,Correct,sub_010_day_12_data.csv,1,300,107.0,Training at home,,,,,,,,,,,,,
10,12,2682,B,47.87853510156637,23.207621218778005,2.3939267550783185,0.3645444616410378,B,636.3473749997866,Correct,sub_010_day_12_data.csv,1,300,107.0,Training at home,,,,,,,,,,,,,
10,12,2683,A,56.343114079242056,83.58992153871958,2.817155703962103,1.3130274171009435,A,514.3945419995362,Correct,sub_010_day_12_data.csv,1,300,107.0,Training at home,,,,,,,,,,,,,
10,12,2684,B,64.0704538345797,52.88911108658611,3.2035226917289843,0.8307802142225671,B,560.6587080001191,Correct,sub_010_day_12_data.csv,1,300,107.0,Training at home,,,,,,,,,,,,,
10,12,2685,A,58.40256393014799,79.87048856435828,2.9201281965073997,1.2546027005620777,A,549.445083000137,Correct,sub_010_day_12_data.csv,1,300,107.0,Training at home,,,,,,,,,,,,,
10,12,2686,A,54.27693974672876,83.58108558319222,2.713846987336438,1.3128886222360825,A,492.4050420004278,Correct,sub_010_day_12_data.csv,1,300,107.0,Training at home,,,,,,,,,,,,,
10,12,2687,A,59.37004846089965,84.72606642517746,2.9685024230449826,1.3308739392444917,A,575.9148750003078,Correct,sub_010_day_12_data.csv,1,300,107.0,Training at home,,,,,,,,,,,,,
10,12,2688,B,63.485867198501175,48.02632526382784,3.1742933599250587,0.7543957531387773,B,554.8092909994011,Correct,sub_010_day_12_data.csv,1,300,107.0,Training at home,,,,,,,,,,,,,
10,12,2689,A,18.29596609947334,47.16014787337437,0.9147983049736668,0.7407898705060062,A,532.8844989999197,Correct,sub_010_day_12_data.csv,1,300,107.0,Training at home,,,,,,,,,,,,,
10,12,2690,B,82.68998376433973,52.99961737631967,4.134499188216987,0.8325160429625791,B,896.6633740001271,Correct,sub_010_day_12_data.csv,1,300,107.0,Training at home,,,,,,,,,,,,,
10,12,2691,B,63.381048505147305,50.750454526617546,3.169052425257365,0.7971862755358228,B,725.0622909996309,Correct,sub_010_day_12_data.csv,1,300,107.0,Training at home,,,,,,,,,,,,,
10,12,2692,A,42.00298792315925,60.3453073900129,2.1001493961579625,0.947901871875412,A,578.7600000003295,Correct,sub_010_day_12_data.csv,1,300,107.0,Training at home,,,,,,,,,,,,,
10,12,2693,B,52.55271224388025,27.030617621384245,2.6276356121940125,0.4245959487066778,B,549.9555830001555,Correct,sub_010_day_12_data.csv,1,300,107.0,Training at home,,,,,,,,,,,,,
10,12,2694,B,59.18056782881815,45.53457406207918,2.9590283914409077,0.7152554167888414,B,510.16641600017465,Correct,sub_010_day_12_data.csv,1,300,107.0,Training at home,,,,,,,,,,,,,
10,12,2695,A,17.130539775691542,35.598644386326114,0.8565269887845771,0.5591821984091881,A,554.4296250000116,Correct,sub_010_day_12_data.csv,1,300,107.0,Training at home,,,,,,,,,,,,,
10,12,2696,A,24.343226942300575,37.50070930619442,1.2171613471150289,0.589059764303734,A,585.7165420002275,Correct,sub_010_day_12_data.csv,1,300,107.0,Training at home,,,,,,,,,,,,,
10,12,2697,A,15.931200836553211,39.26711352094024,0.7965600418276607,0.6168063768253115,A,530.7560410001315,Correct,sub_010_day_12_data.csv,1,300,107.0,Training at home,,,,,,,,,,,,,
10,12,2698,A,41.946188795341754,56.75696544107747,2.0973094397670877,0.8915363283486938,A,797.9485420000856,Correct,sub_010_day_12_data.csv,1,300,107.0,Training at home,,,,,,,,,,,,,
10,12,2699,A,25.20799187430637,53.653109569494696,1.2603995937153183,0.842781074328864,A,520.5296659996748,Correct,sub_010_day_12_data.csv,1,300,107.0,Training at home,,,,,,,,,,,,,
