subject,day,trial,cat,x,y,xt,yt,resp,rt,fb,f_name,acc,n_trials,block,session_type,ns_left_digit,ns_right_digit,ns_left_size,ns_right_size,ns_congruent,ns_cue,ns_correct_side,ns_resp,ns_rt,ns_fb,acc_stroop,acc_stroop_mean,resp_key
10,3,300,A,16.48815877517442,43.41949183353633,0.8244079387587209,0.6820317828341987,A,1604.6518329994797,Correct,sub_010_day_03_data.csv,1,300,12.0,Training at home,,,,,,,,,,,,,
10,3,301,A,26.107998397482135,56.83963308323948,1.3053999198741066,0.8928348686352225,A,855.2927920000002,Correct,sub_010_day_03_data.csv,1,300,12.0,Training at home,,,,,,,,,,,,,
10,3,302,B,73.12128851381378,59.67590161307107,3.656064425690689,0.9373868705198568,B,835.4589170003237,Correct,sub_010_day_03_data.csv,1,300,12.0,Training at home,,,,,,,,,,,,,
10,3,303,A,60.057358580461496,73.56847886997117,3.002867929023074,1.155610963768387,A,612.0885830005136,Correct,sub_010_day_03_data.csv,1,300,12.0,Training at home,,,,,,,,,,,,,
10,3,304,B,67.61315385523643,50.29222838161172,3.3806576927618215,0.7899884760816573,B,653.4666249999646,Correct,sub_010_day_03_data.csv,1,300,12.0,Training at home,,,,,,,,,,,,,
10,3,305,B,43.59514931141662,15.922983551357069,2.1797574655708307,0.2501176407408724,B,631.910125000104,Correct,sub_010_day_03_data.csv,1,300,12.0,Training at home,,,,,,,,,,,,,
10,3,306,B,47.48882229941214,35.056273215621175,2.374441114970607,0.5506626519821606,B,697.0349589992111,Correct,sub_010_day_03_data.csv,1,300,12.0,Training at home,,,,,,,,,,,,,
10,3,307,A,42.35449114342297,49.89108233034241,2.1177245571711483,0.7836872886432363,B,621.5976250005042,Incorrect,sub_010_day_03_data.csv,0,300,12.0,Training at home,,,,,,,,,,,,,
10,3,308,A,30.235883224745315,51.713064742063615,1.5117941612372658,0.8123069214414022,A,523.7938749996829,Correct,sub_010_day_03_data.csv,1,300,12.0,Training at home,,,,,,,,,,,,,
10,3,309,A,36.27494958407586,64.1291726634452,1.813747479203793,1.0073386886013542,A,510.2866659999563,Correct,sub_010_day_03_data.csv,1,300,12.0,Training at home,,,,,,,,,,,,,
10,3,310,B,79.81578716119316,61.44996722176015,3.990789358059658,0.9652538279360764,B,743.1635000002643,Correct,sub_010_day_03_data.csv,1,300,12.0,Training at home,,,,,,,,,,,,,
10,3,311,B,52.17755557382608,24.334980120206325,2.6088777786913044,0.3822529738544692,B,705.894624999928,Correct,sub_010_day_03_data.csv,1,300,12.0,Training at home,,,,,,,,,,,,,
10,3,312,A,28.515281082245124,39.38886306678301,1.425764054112256,0.6187188142192992,A,513.751874999798,Correct,sub_010_day_03_data.csv,1,300,12.0,Training at home,,,,,,,,,,,,,
10,3,313,A,35.62858354015075,66.90073800151944,1.7814291770075374,1.050874335126545,A,506.5963750002993,Correct,sub_010_day_03_data.csv,1,300,12.0,Training at home,,,,,,,,,,,,,
10,3,314,A,55.88914983214946,69.25441850056558,2.7944574916074725,1.0878458619500493,A,563.7364160002107,Correct,sub_010_day_03_data.csv,1,300,12.0,Training at home,,,,,,,,,,,,,
10,3,315,B,48.92045944853549,30.8240886164808,2.4460229724267744,0.4841836517556842,B,570.0390829997559,Correct,sub_010_day_03_data.csv,1,300,12.0,Training at home,,,,,,,,,,,,,
10,3,316,A,38.46121460221279,66.9789290921554,1.9230607301106395,1.0521025579061354,A,544.4895829996312,Correct,sub_010_day_03_data.csv,1,300,12.0,Training at home,,,,,,,,,,,,,
10,3,317,A,38.46453990384939,45.81862600458881,1.9232269951924696,0.7197172942679722,A,742.643916999441,Correct,sub_010_day_03_data.csv,1,300,12.0,Training at home,,,,,,,,,,,,,
10,3,318,A,66.79308970109702,82.99645411650236,3.339654485054851,1.303705252632031,A,689.2299580003964,Correct,sub_010_day_03_data.csv,1,300,12.0,Training at home,,,,,,,,,,,,,
10,3,319,A,36.94867488623094,61.73448914690731,1.8474337443115472,0.969723087885214,A,521.7071659999419,Correct,sub_010_day_03_data.csv,1,300,12.0,Training at home,,,,,,,,,,,,,
10,3,320,B,56.2832361557003,27.778486933302933,2.814161807785015,0.4363434523875228,B,558.7472910001452,Correct,sub_010_day_03_data.csv,1,300,12.0,Training at home,,,,,,,,,,,,,
10,3,321,A,55.3927788257442,77.43493478721636,2.76963894128721,1.216345111293618,A,554.2335420004747,Correct,sub_010_day_03_data.csv,1,300,12.0,Training at home,,,,,,,,,,,,,
10,3,322,A,45.98441098186986,77.58122768349457,2.299220549093493,1.218643074734718,A,527.5964160000512,Correct,sub_010_day_03_data.csv,1,300,12.0,Training at home,,,,,,,,,,,,,
10,3,323,B,56.07100793656518,45.26845041801894,2.803550396828259,0.7110751563632106,B,918.3791670002392,Correct,sub_010_day_03_data.csv,1,300,12.0,Training at home,,,,,,,,,,,,,
10,3,324,B,56.78960311416552,36.20397614438306,2.8394801557082756,0.5686907274296699,B,581.7113749999407,Correct,sub_010_day_03_data.csv,1,300,12.0,Training at home,,,,,,,,,,,,,
10,3,325,B,46.75580549130772,20.531059665677592,2.337790274565386,0.3225011310805322,B,539.7250420001001,Correct,sub_010_day_03_data.csv,1,300,13.0,Training at home,,,,,,,,,,,,,
10,3,326,B,63.8823905210889,42.82343556572838,3.194119526054445,0.6726689528738409,B,474.4877499997529,Correct,sub_010_day_03_data.csv,1,300,13.0,Training at home,,,,,,,,,,,,,
10,3,327,A,46.55392629720085,66.47155957945188,2.327696314860043,1.0441328162373114,A,475.94416700030706,Correct,sub_010_day_03_data.csv,1,300,13.0,Training at home,,,,,,,,,,,,,
10,3,328,B,46.9996336620372,16.65005840875172,2.3499816831018596,0.2615385058938768,B,493.4767919994556,Correct,sub_010_day_03_data.csv,1,300,13.0,Training at home,,,,,,,,,,,,,
10,3,329,B,32.5901345441801,18.98645123725029,1.6295067272090051,0.2982384786234316,B,446.1582500007353,Correct,sub_010_day_03_data.csv,1,300,13.0,Training at home,,,,,,,,,,,,,
10,3,330,B,85.78672200311198,60.75226345116393,4.289336100155599,0.9542943227356414,B,665.4308750003111,Correct,sub_010_day_03_data.csv,1,300,13.0,Training at home,,,,,,,,,,,,,
10,3,331,B,70.1196098839664,54.15353116840063,3.50598049419832,0.8506416784229667,B,606.693875000019,Correct,sub_010_day_03_data.csv,1,300,13.0,Training at home,,,,,,,,,,,,,
10,3,332,A,53.761669865252195,76.75064050688644,2.6880834932626096,1.2055962418737285,A,709.6165830007521,Correct,sub_010_day_03_data.csv,1,300,13.0,Training at home,,,,,,,,,,,,,
10,3,333,B,71.40180667282998,45.29025192582959,3.570090333641499,0.711417613647086,B,581.1127919996579,Correct,sub_010_day_03_data.csv,1,300,13.0,Training at home,,,,,,,,,,,,,
10,3,334,A,11.57336266033618,33.88522605414241,0.578668133016809,0.5322678861846162,A,566.553250000652,Correct,sub_010_day_03_data.csv,1,300,13.0,Training at home,,,,,,,,,,,,,
10,3,335,A,14.025684883884288,39.896277451819515,0.7012842441942143,0.6266892607410816,A,575.8364579996851,Correct,sub_010_day_03_data.csv,1,300,13.0,Training at home,,,,,,,,,,,,,
10,3,336,A,16.075854224401233,43.263389495052806,0.8037927112200617,0.6795797330352588,A,517.2682920001535,Correct,sub_010_day_03_data.csv,1,300,13.0,Training at home,,,,,,,,,,,,,
10,3,337,B,46.312746574237025,17.346595443693314,2.3156373287118512,0.2724796840535055,B,1045.471041000383,Correct,sub_010_day_03_data.csv,1,300,13.0,Training at home,,,,,,,,,,,,,
10,3,338,B,76.75545723731388,52.55059669008031,3.8377728618656937,0.825462842516582,B,614.9093750000247,Correct,sub_010_day_03_data.csv,1,300,13.0,Training at home,,,,,,,,,,,,,
10,3,339,B,55.72082994532999,44.83339480836852,2.7860414972664995,0.7042413188273065,B,601.6986670001643,Correct,sub_010_day_03_data.csv,1,300,13.0,Training at home,,,,,,,,,,,,,
10,3,340,B,61.336863523444705,37.78465911344446,3.0668431761722355,0.5935200374459587,B,671.4465000004566,Correct,sub_010_day_03_data.csv,1,300,13.0,Training at home,,,,,,,,,,,,,
10,3,341,B,70.46330758839579,46.89823596980842,3.5231653794197895,0.7366757679453536,B,543.2534999999916,Correct,sub_010_day_03_data.csv,1,300,13.0,Training at home,,,,,,,,,,,,,
10,3,342,A,39.52554636906314,52.9216122494058,1.976277318453157,0.8312907412943044,A,730.469666999852,Correct,sub_010_day_03_data.csv,1,300,13.0,Training at home,,,,,,,,,,,,,
10,3,343,A,45.42892273467755,60.1851700505687,2.2714461367338776,0.9453864404295952,A,753.5154170000169,Correct,sub_010_day_03_data.csv,1,300,13.0,Training at home,,,,,,,,,,,,,
10,3,344,A,54.737980442095925,62.679920433219635,2.736899022104796,0.984573887802978,A,576.5032080007586,Correct,sub_010_day_03_data.csv,1,300,13.0,Training at home,,,,,,,,,,,,,
10,3,345,A,52.15277294216319,71.33917203404424,2.607638647108159,1.120593093876659,A,615.7247080000161,Correct,sub_010_day_03_data.csv,1,300,13.0,Training at home,,,,,,,,,,,,,
10,3,346,A,28.371736078344423,49.06588714199061,1.4185868039172214,0.770725152935718,A,586.2411670004803,Correct,sub_010_day_03_data.csv,1,300,13.0,Training at home,,,,,,,,,,,,,
10,3,347,B,70.98301878174317,37.724518156018966,3.5491509390871583,0.5925753454958198,B,644.8180000006687,Correct,sub_010_day_03_data.csv,1,300,13.0,Training at home,,,,,,,,,,,,,
10,3,348,A,39.22293248726071,56.91712377424394,1.9611466243630356,0.8940520895631285,A,551.3828749999448,Correct,sub_010_day_03_data.csv,1,300,13.0,Training at home,,,,,,,,,,,,,
10,3,349,A,64.65883489896656,77.73400233013389,3.232941744948328,1.2210428532724025,A,558.8335829997959,Correct,sub_010_day_03_data.csv,1,300,13.0,Training at home,,,,,,,,,,,,,
10,3,350,A,34.524608902680654,48.76332169783669,1.726230445134033,0.7659724660527976,A,631.8162090001351,Correct,sub_010_day_03_data.csv,1,300,14.0,Training at home,,,,,,,,,,,,,
10,3,351,A,54.10690730290943,71.10944117442678,2.7053453651454715,1.1169844899722736,A,890.5780420000156,Correct,sub_010_day_03_data.csv,1,300,14.0,Training at home,,,,,,,,,,,,,
10,3,352,B,67.42586551289494,37.1665040256258,3.371293275644747,0.5838100800326075,B,774.2059590000281,Correct,sub_010_day_03_data.csv,1,300,14.0,Training at home,,,,,,,,,,,,,
10,3,353,A,23.689407912022848,35.60185327388721,1.1844703956011424,0.5592326034971289,A,920.163083999796,Correct,sub_010_day_03_data.csv,1,300,14.0,Training at home,,,,,,,,,,,,,
10,3,354,B,51.23861835699635,34.09100190462203,2.5619309178498173,0.5355002056853811,B,642.462083999817,Correct,sub_010_day_03_data.csv,1,300,14.0,Training at home,,,,,,,,,,,,,
10,3,355,B,48.19129628663512,36.69477508037309,2.4095648143317563,0.5764001790881496,B,808.0344169993623,Correct,sub_010_day_03_data.csv,1,300,14.0,Training at home,,,,,,,,,,,,,
10,3,356,B,40.153253371669514,14.901548475564203,2.0076626685834755,0.2340729760897234,B,616.7217499996696,Correct,sub_010_day_03_data.csv,1,300,14.0,Training at home,,,,,,,,,,,,,
10,3,357,A,56.9500997729225,74.41362835217166,2.847504988646125,1.168886540790718,A,622.6028749997568,Correct,sub_010_day_03_data.csv,1,300,14.0,Training at home,,,,,,,,,,,,,
10,3,358,A,52.464024470837046,75.5735153206153,2.6232012235418525,1.1871060026860034,A,938.5999999994964,Correct,sub_010_day_03_data.csv,1,300,14.0,Training at home,,,,,,,,,,,,,
10,3,359,B,52.41936209151498,31.402548312703132,2.6209681045757485,0.4932700754159336,B,629.9072499996328,Correct,sub_010_day_03_data.csv,1,300,14.0,Training at home,,,,,,,,,,,,,
10,3,360,B,74.92637475043784,49.52215790413709,3.746318737521892,0.7778922373077539,B,721.8232079994777,Correct,sub_010_day_03_data.csv,1,300,14.0,Training at home,,,,,,,,,,,,,
10,3,361,A,24.734884372466105,54.45612992601218,1.236744218623305,0.8553948885924557,A,595.8929580001495,Correct,sub_010_day_03_data.csv,1,300,14.0,Training at home,,,,,,,,,,,,,
10,3,362,A,57.1847213661994,72.20103613119927,2.85923606830997,1.1341312234567342,A,551.0092079994138,Correct,sub_010_day_03_data.csv,1,300,14.0,Training at home,,,,,,,,,,,,,
10,3,363,A,56.2370858062452,83.86279527460174,2.8118542903122603,1.3173137077209682,A,558.1725000001825,Correct,sub_010_day_03_data.csv,1,300,14.0,Training at home,,,,,,,,,,,,,
10,3,364,B,80.07071792669534,52.15956956055058,4.003535896334767,0.8193206027291574,B,815.4394590001175,Correct,sub_010_day_03_data.csv,1,300,14.0,Training at home,,,,,,,,,,,,,
10,3,365,A,35.370374675455885,46.31573009912089,1.768518733772794,0.7275257871252293,A,559.1163749995758,Correct,sub_010_day_03_data.csv,1,300,14.0,Training at home,,,,,,,,,,,,,
10,3,366,B,69.99232858543229,55.8250189334755,3.4996164292716143,0.8768973468395886,A,790.9059999992678,Incorrect,sub_010_day_03_data.csv,0,300,14.0,Training at home,,,,,,,,,,,,,
10,3,367,A,25.106429563773887,49.97177998567997,1.2553214781886943,0.7849548844490883,B,763.3195000007618,Incorrect,sub_010_day_03_data.csv,0,300,14.0,Training at home,,,,,,,,,,,,,
10,3,368,A,16.851603501085563,38.28734674014335,0.8425801750542782,0.6014162362213973,A,593.4999580003932,Correct,sub_010_day_03_data.csv,1,300,14.0,Training at home,,,,,,,,,,,,,
10,3,369,A,37.97212931762389,58.45082038683064,1.8986064658811943,0.9181433396178184,A,683.4070419999989,Correct,sub_010_day_03_data.csv,1,300,14.0,Training at home,,,,,,,,,,,,,
10,3,370,A,34.46626869783353,44.49158294194628,1.7233134348916763,0.698872150584997,A,859.0706249997311,Correct,sub_010_day_03_data.csv,1,300,14.0,Training at home,,,,,,,,,,,,,
10,3,371,B,54.18345211855518,45.46998309067281,2.709172605927759,0.7142408241825493,B,738.4382089994688,Correct,sub_010_day_03_data.csv,1,300,14.0,Training at home,,,,,,,,,,,,,
10,3,372,B,82.66343363091403,55.9779363994265,4.133171681545702,0.8792993687777749,A,635.2666669999962,Incorrect,sub_010_day_03_data.csv,0,300,14.0,Training at home,,,,,,,,,,,,,
10,3,373,B,56.91143909377256,36.23135592087621,2.845571954688628,0.5691208079531088,B,526.7166669991639,Correct,sub_010_day_03_data.csv,1,300,14.0,Training at home,,,,,,,,,,,,,
10,3,374,A,41.07027440990494,70.94158279537776,2.0535137204952467,1.114347776719954,A,554.0650000002643,Correct,sub_010_day_03_data.csv,1,300,14.0,Training at home,,,,,,,,,,,,,
10,3,375,A,37.43525733546558,54.16955839181549,1.8717628667732789,0.8508934334596544,A,596.7842919999384,Correct,sub_010_day_03_data.csv,1,300,15.0,Training at home,,,,,,,,,,,,,
10,3,376,A,54.01823798970583,80.75774384901466,2.7009118994852916,1.268539673982754,A,555.0890419999632,Correct,sub_010_day_03_data.csv,1,300,15.0,Training at home,,,,,,,,,,,,,
10,3,377,A,29.701539402200215,61.61830799419113,1.4850769701100108,0.9678981186059202,A,452.2256250002102,Correct,sub_010_day_03_data.csv,1,300,15.0,Training at home,,,,,,,,,,,,,
10,3,378,B,34.568849069791575,22.78932993778428,1.7284424534895788,0.3579739575638851,B,772.9390839995176,Correct,sub_010_day_03_data.csv,1,300,15.0,Training at home,,,,,,,,,,,,,
10,3,379,A,46.8307429194637,74.75426945169447,2.3415371459731853,1.174237318669576,A,599.2111670002487,Correct,sub_010_day_03_data.csv,1,300,15.0,Training at home,,,,,,,,,,,,,
10,3,380,B,65.73861700352708,56.49471557889923,3.2869308501763546,0.8874169171465734,A,627.7469999995446,Incorrect,sub_010_day_03_data.csv,0,300,15.0,Training at home,,,,,,,,,,,,,
10,3,381,B,76.4132823950609,47.41670126370511,3.820664119753045,0.7448198017375892,B,622.3505829993883,Correct,sub_010_day_03_data.csv,1,300,15.0,Training at home,,,,,,,,,,,,,
10,3,382,B,49.30190887337919,42.02376809551458,2.4650954436689596,0.6601078056251488,B,634.3373750005412,Correct,sub_010_day_03_data.csv,1,300,15.0,Training at home,,,,,,,,,,,,,
10,3,383,A,33.57783917120352,61.60104829163116,1.678891958560176,0.9676270038320924,A,831.6299589996561,Correct,sub_010_day_03_data.csv,1,300,15.0,Training at home,,,,,,,,,,,,,
10,3,384,B,61.105440643268345,41.492613562469,3.0552720321634173,0.6517644497304641,B,540.6233749999956,Correct,sub_010_day_03_data.csv,1,300,15.0,Training at home,,,,,,,,,,,,,
10,3,385,A,13.599533311288123,39.691104393490996,0.6799766655644062,0.6234664098772843,A,653.3327920005831,Correct,sub_010_day_03_data.csv,1,300,15.0,Training at home,,,,,,,,,,,,,
10,3,386,A,58.3627922831109,82.29156993308979,2.918139614155545,1.292632957770828,A,634.4442500003424,Correct,sub_010_day_03_data.csv,1,300,15.0,Training at home,,,,,,,,,,,,,
10,3,387,B,40.26523214479491,22.741230658641356,2.0132616072397456,0.3572184158538933,B,522.306292000394,Correct,sub_010_day_03_data.csv,1,300,15.0,Training at home,,,,,,,,,,,,,
10,3,388,A,52.09295505056908,73.23545346465123,2.604647752528454,1.1503798129343272,A,461.6338750001887,Correct,sub_010_day_03_data.csv,1,300,15.0,Training at home,,,,,,,,,,,,,
10,3,389,B,45.83334313344717,23.00322937525282,2.2916671566723585,0.3613338820706759,B,535.4969589998291,Correct,sub_010_day_03_data.csv,1,300,15.0,Training at home,,,,,,,,,,,,,
10,3,390,B,60.994266008941786,42.81172562750426,3.049713300447089,0.6724850135943463,B,558.6059999995996,Correct,sub_010_day_03_data.csv,1,300,15.0,Training at home,,,,,,,,,,,,,
10,3,391,B,49.71553792835618,38.94328883968902,2.485776896417809,0.611719750626962,B,731.2933749999502,Correct,sub_010_day_03_data.csv,1,300,15.0,Training at home,,,,,,,,,,,,,
10,3,392,A,26.635151408226942,56.85268225645726,1.3317575704113471,0.8930398445688046,A,555.4847079993124,Correct,sub_010_day_03_data.csv,1,300,15.0,Training at home,,,,,,,,,,,,,
10,3,393,B,67.16068665358785,51.32903685366134,3.3580343326793924,0.8062746254765112,A,724.6950419994391,Incorrect,sub_010_day_03_data.csv,0,300,15.0,Training at home,,,,,,,,,,,,,
10,3,394,B,45.12304183362444,21.290933642771524,2.256152091681222,0.3344372036009939,B,505.9718749998865,Correct,sub_010_day_03_data.csv,1,300,15.0,Training at home,,,,,,,,,,,,,
10,3,395,A,44.84306070000302,54.558265341883185,2.2421530350001513,0.8569992279533144,A,563.4411670007466,Correct,sub_010_day_03_data.csv,1,300,15.0,Training at home,,,,,,,,,,,,,
10,3,396,A,20.13019338436944,37.449395351595115,1.0065096692184718,0.5882537265897548,A,646.0024580001118,Correct,sub_010_day_03_data.csv,1,300,15.0,Training at home,,,,,,,,,,,,,
10,3,397,A,49.20702472549506,79.62274849149338,2.460351236274753,1.250711208597517,A,2071.7738339999414,Correct,sub_010_day_03_data.csv,1,300,15.0,Training at home,,,,,,,,,,,,,
10,3,398,A,30.45556058946555,57.82610400221246,1.5227780294732776,0.90833031759535,A,613.0364580003516,Correct,sub_010_day_03_data.csv,1,300,15.0,Training at home,,,,,,,,,,,,,
10,3,399,B,49.27246067617367,21.24363640557176,2.4636230338086835,0.3336942603363846,B,548.9210409996303,Correct,sub_010_day_03_data.csv,1,300,15.0,Training at home,,,,,,,,,,,,,
10,3,400,A,31.782362467840223,41.29847040163976,1.589118123392011,0.6487148560914349,A,565.7784579998406,Correct,sub_010_day_03_data.csv,1,300,16.0,Training at home,,,,,,,,,,,,,
10,3,401,A,19.97859523179753,44.125051436153726,0.9989297615898765,0.6931146871554615,A,719.2398329998468,Correct,sub_010_day_03_data.csv,1,300,16.0,Training at home,,,,,,,,,,,,,
10,3,402,B,65.9668291296077,54.697311617033336,3.2983414564803852,0.8591833617359177,B,909.2145409995284,Correct,sub_010_day_03_data.csv,1,300,16.0,Training at home,,,,,,,,,,,,,
10,3,403,B,36.12580961712246,17.0155782304397,1.8062904808561229,0.2672800778266589,B,607.6720840001144,Correct,sub_010_day_03_data.csv,1,300,16.0,Training at home,,,,,,,,,,,,,
10,3,404,B,60.1207355884314,29.01428786821417,3.00603677942157,0.4557553680796055,B,482.85366699929,Correct,sub_010_day_03_data.csv,1,300,16.0,Training at home,,,,,,,,,,,,,
10,3,405,B,48.08879592006869,37.49952266807945,2.4044397960034343,0.5890411246358116,B,499.6002079997197,Correct,sub_010_day_03_data.csv,1,300,16.0,Training at home,,,,,,,,,,,,,
10,3,406,A,47.99806824323561,55.42311506970755,2.3999034121617804,0.870584255710275,B,614.0962500003297,Incorrect,sub_010_day_03_data.csv,0,300,16.0,Training at home,,,,,,,,,,,,,
10,3,407,B,39.640338019074726,27.795844243140728,1.9820169009537365,0.4366161003728853,B,428.23145799957274,Correct,sub_010_day_03_data.csv,1,300,16.0,Training at home,,,,,,,,,,,,,
10,3,408,B,49.3228420078478,28.305745783407488,2.4661421003923896,0.4446256150376661,B,500.0733749993742,Correct,sub_010_day_03_data.csv,1,300,16.0,Training at home,,,,,,,,,,,,,
10,3,409,B,75.7701989725019,55.28093631426004,3.7885099486250953,0.8683509170422228,B,669.0103749997434,Correct,sub_010_day_03_data.csv,1,300,16.0,Training at home,,,,,,,,,,,,,
10,3,410,B,38.40847682457549,21.160180925925296,1.9204238412287744,0.3323833447275888,B,645.8019170004263,Correct,sub_010_day_03_data.csv,1,300,16.0,Training at home,,,,,,,,,,,,,
10,3,411,A,25.122281707680628,57.27561374200248,1.2561140853840314,0.899683236808608,A,572.97275000019,Correct,sub_010_day_03_data.csv,1,300,16.0,Training at home,,,,,,,,,,,,,
10,3,412,B,37.947474688875886,25.91527614835072,1.8973737344437944,0.4070762058170472,B,580.3141670003242,Correct,sub_010_day_03_data.csv,1,300,16.0,Training at home,,,,,,,,,,,,,
10,3,413,B,48.332860906565585,29.23699569765865,2.416643045328279,0.4592536544840039,B,522.5779170004898,Correct,sub_010_day_03_data.csv,1,300,16.0,Training at home,,,,,,,,,,,,,
10,3,414,B,49.70278983320712,32.31939413506708,2.485139491660356,0.5076718559159988,B,440.4717079996771,Correct,sub_010_day_03_data.csv,1,300,16.0,Training at home,,,,,,,,,,,,,
10,3,415,A,35.56851661674576,59.81160075057417,1.7784258308372882,0.939518427587248,A,728.5031249994063,Correct,sub_010_day_03_data.csv,1,300,16.0,Training at home,,,,,,,,,,,,,
10,3,416,B,42.647943589853014,26.43622513237972,2.1323971794926506,0.4152592533226498,B,614.2341660006423,Correct,sub_010_day_03_data.csv,1,300,16.0,Training at home,,,,,,,,,,,,,
10,3,417,B,72.13784620147395,55.03833829406014,3.6068923100736976,0.8645401962520456,A,632.1157920001497,Incorrect,sub_010_day_03_data.csv,0,300,16.0,Training at home,,,,,,,,,,,,,
10,3,418,B,39.41352600067079,16.736235678773955,1.9706763000335397,0.2628921752859182,B,420.585167000354,Correct,sub_010_day_03_data.csv,1,300,16.0,Training at home,,,,,,,,,,,,,
10,3,419,B,35.30707187392599,13.78132905918173,1.7653535936962996,0.2164766106451443,B,445.0404999997773,Correct,sub_010_day_03_data.csv,1,300,16.0,Training at home,,,,,,,,,,,,,
10,3,420,A,43.82731524766623,70.13912208058316,2.1913657623833114,1.1017427532879889,A,699.5504169999549,Correct,sub_010_day_03_data.csv,1,300,16.0,Training at home,,,,,,,,,,,,,
10,3,421,A,43.41908066037763,58.6608890825203,2.1709540330188815,0.9214430909734574,A,584.6840419999353,Correct,sub_010_day_03_data.csv,1,300,16.0,Training at home,,,,,,,,,,,,,
10,3,422,B,62.84313936299074,38.5636831804009,3.142156968149538,0.6057569188745586,B,654.2697499999122,Correct,sub_010_day_03_data.csv,1,300,16.0,Training at home,,,,,,,,,,,,,
10,3,423,B,47.260124935790465,38.240774368965205,2.363006246789523,0.6006846791256297,B,730.5617499996515,Correct,sub_010_day_03_data.csv,1,300,16.0,Training at home,,,,,,,,,,,,,
10,3,424,B,76.5874376239569,65.47070417241872,3.8293718811978454,1.0284114162671063,A,699.6584580001581,Incorrect,sub_010_day_03_data.csv,0,300,16.0,Training at home,,,,,,,,,,,,,
10,3,425,A,33.89482086958799,63.06337752430183,1.6947410434793997,0.9905972177045314,A,941.1501669992504,Correct,sub_010_day_03_data.csv,1,300,17.0,Training at home,,,,,,,,,,,,,
10,3,426,A,62.870716234125,76.30657021810383,3.1435358117062497,1.1986208020891431,B,507.2486669996578,Incorrect,sub_010_day_03_data.csv,0,300,17.0,Training at home,,,,,,,,,,,,,
10,3,427,B,77.75612137592887,49.82424583090573,3.887806068796443,0.7826374233651265,B,461.5111249995607,Correct,sub_010_day_03_data.csv,1,300,17.0,Training at home,,,,,,,,,,,,,
10,3,428,A,33.542384159121724,50.5296780806996,1.6771192079560862,0.7937183272329152,A,624.4505409995327,Correct,sub_010_day_03_data.csv,1,300,17.0,Training at home,,,,,,,,,,,,,
10,3,429,A,26.21401626830781,51.2504736008638,1.3107008134153904,0.8050405567873566,A,673.7691669995911,Correct,sub_010_day_03_data.csv,1,300,17.0,Training at home,,,,,,,,,,,,,
10,3,430,B,43.12698629927712,15.553107020779503,2.156349314963856,0.2443076337848836,B,572.4843329999203,Correct,sub_010_day_03_data.csv,1,300,17.0,Training at home,,,,,,,,,,,,,
10,3,431,A,34.87052765531067,66.47512056749032,1.7435263827655334,1.0441887521066169,A,644.1680829993857,Correct,sub_010_day_03_data.csv,1,300,17.0,Training at home,,,,,,,,,,,,,
10,3,432,A,52.242773956776674,62.8341479962327,2.6121386978388337,0.9869964886976924,B,660.6205000007321,Incorrect,sub_010_day_03_data.csv,0,300,17.0,Training at home,,,,,,,,,,,,,
10,3,433,A,40.72332525935282,53.48205173377063,2.0361662629676407,0.8400941041286154,A,830.6774170005156,Correct,sub_010_day_03_data.csv,1,300,17.0,Training at home,,,,,,,,,,,,,
10,3,434,A,43.833997437225534,63.57987927126936,2.191699871861277,0.9987104081737288,A,683.29654199988,Correct,sub_010_day_03_data.csv,1,300,17.0,Training at home,,,,,,,,,,,,,
10,3,435,A,34.03966871137584,52.60665427354411,1.701983435568792,0.8263433929785214,A,748.2371670002976,Correct,sub_010_day_03_data.csv,1,300,17.0,Training at home,,,,,,,,,,,,,
10,3,436,B,67.28576144286069,47.61287806319396,3.3642880721430344,0.7479013396979838,B,519.4673749992944,Correct,sub_010_day_03_data.csv,1,300,17.0,Training at home,,,,,,,,,,,,,
10,3,437,B,45.94999043186254,32.92091618039362,2.297499521593127,0.5171205421088497,B,584.7082079999382,Correct,sub_010_day_03_data.csv,1,300,17.0,Training at home,,,,,,,,,,,,,
10,3,438,A,26.413534925021153,41.45120480432707,1.3206767462510578,0.6511140024785992,A,604.3859579995114,Correct,sub_010_day_03_data.csv,1,300,17.0,Training at home,,,,,,,,,,,,,
10,3,439,A,28.257662608631648,56.827056308931,1.4128831304315823,0.8926373131263556,A,585.4056250000212,Correct,sub_010_day_03_data.csv,1,300,17.0,Training at home,,,,,,,,,,,,,
10,3,440,B,49.674653135583675,19.902932327118336,2.483732656779184,0.3126345299188488,B,508.7415420002799,Correct,sub_010_day_03_data.csv,1,300,17.0,Training at home,,,,,,,,,,,,,
10,3,441,A,43.909249211400756,72.99453155626043,2.1954624605700377,1.1465954204468805,A,578.4095839999281,Correct,sub_010_day_03_data.csv,1,300,17.0,Training at home,,,,,,,,,,,,,
10,3,442,A,24.40173699667773,36.430044916328185,1.2200868498338864,0.572241807395414,A,662.6332919995548,Correct,sub_010_day_03_data.csv,1,300,17.0,Training at home,,,,,,,,,,,,,
10,3,443,A,52.08024576085071,67.57112110753638,2.6040122880425356,1.0614046883313126,A,926.6476660004628,Correct,sub_010_day_03_data.csv,1,300,17.0,Training at home,,,,,,,,,,,,,
10,3,444,B,77.10495993962934,48.21794979698116,3.855247996981467,0.7574057842667873,B,1131.8768749997616,Correct,sub_010_day_03_data.csv,1,300,17.0,Training at home,,,,,,,,,,,,,
10,3,445,A,53.54861709871342,76.59883560641623,2.677430854935671,1.2032116960732473,A,773.4955830001127,Correct,sub_010_day_03_data.csv,1,300,17.0,Training at home,,,,,,,,,,,,,
10,3,446,A,28.508764963246666,39.29713614899319,1.425438248162333,0.6172779711639744,A,779.6312090003994,Correct,sub_010_day_03_data.csv,1,300,17.0,Training at home,,,,,,,,,,,,,
10,3,447,A,37.078905103587225,60.10922520066607,1.8539452551793616,0.9441935015169348,A,729.3309999995472,Correct,sub_010_day_03_data.csv,1,300,17.0,Training at home,,,,,,,,,,,,,
10,3,448,B,43.03733756720261,26.980294783756115,2.1518668783601305,0.4238054794216761,B,519.6799169998485,Correct,sub_010_day_03_data.csv,1,300,17.0,Training at home,,,,,,,,,,,,,
10,3,449,B,44.19869897760668,21.931953068234503,2.209934948880334,0.3445063131902082,B,651.8917909997981,Correct,sub_010_day_03_data.csv,1,300,17.0,Training at home,,,,,,,,,,,,,
10,3,450,B,62.592674981264175,32.15420937423333,3.129633749063209,0.5050771397603975,B,454.1725420003786,Correct,sub_010_day_03_data.csv,1,300,18.0,Training at home,,,,,,,,,,,,,
10,3,451,A,39.35497242349179,65.30664566470452,1.9677486211745896,1.0258343912541372,A,636.6729170003964,Correct,sub_010_day_03_data.csv,1,300,18.0,Training at home,,,,,,,,,,,,,
10,3,452,A,42.09099067599763,70.73566789213696,2.1045495337998816,1.1111132729835242,A,654.3638749999445,Correct,sub_010_day_03_data.csv,1,300,18.0,Training at home,,,,,,,,,,,,,
10,3,453,B,45.65917012910812,35.61025023463574,2.2829585064554063,0.5593645026481293,B,598.2664580005803,Correct,sub_010_day_03_data.csv,1,300,18.0,Training at home,,,,,,,,,,,,,
10,3,454,B,55.21544828628628,31.767128554350045,2.7607724143143137,0.4989968884599431,B,546.7162499999176,Correct,sub_010_day_03_data.csv,1,300,18.0,Training at home,,,,,,,,,,,,,
10,3,455,A,28.739782829792816,59.018435521555105,1.436989141489641,0.927059417304402,A,539.2117499995948,Correct,sub_010_day_03_data.csv,1,300,18.0,Training at home,,,,,,,,,,,,,
10,3,456,B,64.45016014943681,42.31273201333297,3.2225080074718404,0.6646468402320026,B,602.2548330001882,Correct,sub_010_day_03_data.csv,1,300,18.0,Training at home,,,,,,,,,,,,,
10,3,457,A,14.401629560429154,41.101942688062394,0.7200814780214577,0.6456278059854277,A,633.4984160002932,Correct,sub_010_day_03_data.csv,1,300,18.0,Training at home,,,,,,,,,,,,,
10,3,458,A,42.738137747270514,71.05160364903219,2.1369068873635255,1.1160759802478664,A,1633.581499999309,Correct,sub_010_day_03_data.csv,1,300,18.0,Training at home,,,,,,,,,,,,,
10,3,459,B,50.31488860396624,32.18217553714806,2.515744430198312,0.5055164312202076,B,701.5911250000499,Correct,sub_010_day_03_data.csv,1,300,18.0,Training at home,,,,,,,,,,,,,
10,3,460,A,26.55473900424152,49.89959171522162,1.327736950212076,0.7838209537483517,A,640.3182089998154,Correct,sub_010_day_03_data.csv,1,300,18.0,Training at home,,,,,,,,,,,,,
10,3,461,B,60.857064035187896,44.3130215382358,3.042853201759395,0.6960673146144394,B,440.456374999485,Correct,sub_010_day_03_data.csv,1,300,18.0,Training at home,,,,,,,,,,,,,
10,3,462,B,52.40481509807585,44.2419056920037,2.6202407549037923,0.6949502295140563,B,634.7352910006521,Correct,sub_010_day_03_data.csv,1,300,18.0,Training at home,,,,,,,,,,,,,
10,3,463,B,68.73351730278529,41.9886251603136,3.4366758651392644,0.6595557816898838,B,587.3572079999576,Correct,sub_010_day_03_data.csv,1,300,18.0,Training at home,,,,,,,,,,,,,
10,3,464,B,43.10933835898943,28.933271401236976,2.1554669179494717,0.4544827643922287,B,489.86874999991414,Correct,sub_010_day_03_data.csv,1,300,18.0,Training at home,,,,,,,,,,,,,
10,3,465,A,33.17753777443069,45.237632645949674,1.6588768887215344,0.7105910719315465,A,634.6034580001287,Correct,sub_010_day_03_data.csv,1,300,18.0,Training at home,,,,,,,,,,,,,
10,3,466,A,19.651341607880585,51.16242665982273,0.9825670803940292,0.8036575186716284,A,660.2649160004148,Correct,sub_010_day_03_data.csv,1,300,18.0,Training at home,,,,,,,,,,,,,
10,3,467,A,34.82298113234623,57.16137140430372,1.7411490566173111,0.8978887223643912,A,702.9463749995557,Correct,sub_010_day_03_data.csv,1,300,18.0,Training at home,,,,,,,,,,,,,
10,3,468,B,40.542412123908726,24.33686876687282,2.027120606195436,0.3822826406469326,B,490.6763749995662,Correct,sub_010_day_03_data.csv,1,300,18.0,Training at home,,,,,,,,,,,,,
10,3,469,A,55.38156859146662,82.70583008620588,2.7690784295733306,1.2991401410393502,A,571.6419999998834,Correct,sub_010_day_03_data.csv,1,300,18.0,Training at home,,,,,,,,,,,,,
10,3,470,B,62.80350031639874,48.76338579774624,3.140175015819937,0.7659734729318222,A,654.9383339997803,Incorrect,sub_010_day_03_data.csv,0,300,18.0,Training at home,,,,,,,,,,,,,
10,3,471,A,30.99251203391001,44.392671915213526,1.5496256016955003,0.6973184598102837,A,641.02183399973,Correct,sub_010_day_03_data.csv,1,300,18.0,Training at home,,,,,,,,,,,,,
10,3,472,A,59.010616683359544,85.29929308024853,2.9505308341679775,1.3398781624865574,A,578.0480829998851,Correct,sub_010_day_03_data.csv,1,300,18.0,Training at home,,,,,,,,,,,,,
10,3,473,A,10.413088940864968,34.763439921665636,0.5206544470432484,0.5460628373570745,A,727.3483749995648,Correct,sub_010_day_03_data.csv,1,300,18.0,Training at home,,,,,,,,,,,,,
10,3,474,B,81.37505694478705,58.49293808624492,4.068752847239352,0.9188049228931482,B,719.0087500002846,Correct,sub_010_day_03_data.csv,1,300,18.0,Training at home,,,,,,,,,,,,,
10,3,475,B,75.38047886689463,62.30898281447253,3.769023943344732,0.9787472133129976,B,633.7210420006159,Correct,sub_010_day_03_data.csv,1,300,19.0,Training at home,,,,,,,,,,,,,
10,3,476,B,60.99466914245449,27.92460555198792,3.049733457122725,0.43863867828259,B,495.2217499994731,Correct,sub_010_day_03_data.csv,1,300,19.0,Training at home,,,,,,,,,,,,,
10,3,477,A,47.719338070142456,75.90258134817051,2.3859669035071227,1.1922749597595708,A,831.8914999999834,Correct,sub_010_day_03_data.csv,1,300,19.0,Training at home,,,,,,,,,,,,,
10,3,478,B,50.8271494228482,27.636307223672713,2.54135747114241,0.4341100987312036,B,473.46604199992726,Correct,sub_010_day_03_data.csv,1,300,19.0,Training at home,,,,,,,,,,,,,
10,3,479,A,41.23739046720503,55.66866908484343,2.061869523360252,0.8744414091603268,B,588.8497910000297,Incorrect,sub_010_day_03_data.csv,0,300,19.0,Training at home,,,,,,,,,,,,,
10,3,480,B,63.69415294630272,46.63311809225039,3.184707647315136,0.7325113060629955,B,524.4113329999891,Correct,sub_010_day_03_data.csv,1,300,19.0,Training at home,,,,,,,,,,,,,
10,3,481,A,23.277597671894025,36.94019525727355,1.1638798835947013,0.5802552302121156,A,611.6248329999507,Correct,sub_010_day_03_data.csv,1,300,19.0,Training at home,,,,,,,,,,,,,
10,3,482,A,37.62361403680017,63.057380780774345,1.8811807018400089,0.9905030210774745,A,662.2265839996544,Correct,sub_010_day_03_data.csv,1,300,19.0,Training at home,,,,,,,,,,,,,
10,3,483,B,44.52419842884506,17.34027052371229,2.226209921442253,0.2723803324427709,B,648.2079999996131,Correct,sub_010_day_03_data.csv,1,300,19.0,Training at home,,,,,,,,,,,,,
10,3,484,B,73.17951243943848,54.36464025425529,3.658975621971925,0.8539577721891018,B,1079.5975000000908,Correct,sub_010_day_03_data.csv,1,300,19.0,Training at home,,,,,,,,,,,,,
10,3,485,A,32.31291098290156,43.3283525569015,1.6156455491450783,0.6806001704245515,B,944.160541999736,Incorrect,sub_010_day_03_data.csv,0,300,19.0,Training at home,,,,,,,,,,,,,
10,3,486,B,40.64068852989568,20.433943784307775,2.032034426494784,0.3209756383832406,B,1009.386749999976,Correct,sub_010_day_03_data.csv,1,300,19.0,Training at home,,,,,,,,,,,,,
10,3,487,A,33.09092475720435,55.44533976677838,1.6545462378602174,0.870933360435505,A,645.2948340001967,Correct,sub_010_day_03_data.csv,1,300,19.0,Training at home,,,,,,,,,,,,,
10,3,488,B,51.546342398437005,25.592100757852563,2.57731711992185,0.401999778653997,B,473.5614169994733,Correct,sub_010_day_03_data.csv,1,300,19.0,Training at home,,,,,,,,,,,,,
10,3,489,A,46.316311886684645,74.4116515084918,2.315815594334232,1.1688554886028086,A,514.2495000000054,Correct,sub_010_day_03_data.csv,1,300,19.0,Training at home,,,,,,,,,,,,,
10,3,490,B,54.72249994836823,27.48529505082442,2.736124997418411,0.4317380050670895,B,590.6265000003259,Correct,sub_010_day_03_data.csv,1,300,19.0,Training at home,,,,,,,,,,,,,
10,3,491,B,50.08955011222624,28.277413726705756,2.504477505611312,0.4441805761316899,B,580.203249999613,Correct,sub_010_day_03_data.csv,1,300,19.0,Training at home,,,,,,,,,,,,,
10,3,492,B,64.66446334041089,35.787499428082036,3.233223167020544,0.5621487264680572,B,554.6639160002087,Correct,sub_010_day_03_data.csv,1,300,19.0,Training at home,,,,,,,,,,,,,
10,3,493,B,57.89661615896876,27.07945298335388,2.894830807948438,0.4253630527786738,B,460.5472080002073,Correct,sub_010_day_03_data.csv,1,300,19.0,Training at home,,,,,,,,,,,,,
10,3,494,B,42.37128222015389,22.069468004937235,2.1185641110076943,0.3466663927647291,B,533.4835829999065,Correct,sub_010_day_03_data.csv,1,300,19.0,Training at home,,,,,,,,,,,,,
10,3,495,A,25.18666165023364,47.52518987908046,1.259333082511682,0.7465239369228956,A,524.3911249999655,Correct,sub_010_day_03_data.csv,1,300,19.0,Training at home,,,,,,,,,,,,,
10,3,496,B,55.873532854266514,34.03758300726494,2.7936766427133257,0.5346611036078817,B,467.22637500079145,Correct,sub_010_day_03_data.csv,1,300,19.0,Training at home,,,,,,,,,,,,,
10,3,497,A,31.60336052097319,54.85147415870158,1.5801680260486597,0.8616049412777362,A,477.7895830002308,Correct,sub_010_day_03_data.csv,1,300,19.0,Training at home,,,,,,,,,,,,,
10,3,498,A,26.372306342512857,46.32208371111652,1.3186153171256427,0.7276255894290754,A,745.635250000305,Correct,sub_010_day_03_data.csv,1,300,19.0,Training at home,,,,,,,,,,,,,
10,3,499,A,14.458743170353724,32.18979211671221,0.7229371585176863,0.5056360721722286,A,585.0331669998923,Correct,sub_010_day_03_data.csv,1,300,19.0,Training at home,,,,,,,,,,,,,
10,3,500,A,27.049553686536747,37.063759718113594,1.3524776843268371,0.5821961762242148,B,590.8849170000394,Incorrect,sub_010_day_03_data.csv,0,300,20.0,Training at home,,,,,,,,,,,,,
10,3,501,A,64.71333812594898,87.77731873422215,3.2356669062974492,1.3788028984362102,A,812.0147499994346,Correct,sub_010_day_03_data.csv,1,300,20.0,Training at home,,,,,,,,,,,,,
10,3,502,A,60.99342850518784,84.8199241466529,3.0496714252593917,1.332348252885841,A,582.0340410000426,Correct,sub_010_day_03_data.csv,1,300,20.0,Training at home,,,,,,,,,,,,,
10,3,503,A,54.579820704764096,80.97755190438596,2.728991035238205,1.2719924108425251,A,609.526499999447,Correct,sub_010_day_03_data.csv,1,300,20.0,Training at home,,,,,,,,,,,,,
10,3,504,B,45.83400129628785,38.22542149782333,2.2917000648143926,0.6004435167896757,B,626.0650419999365,Correct,sub_010_day_03_data.csv,1,300,20.0,Training at home,,,,,,,,,,,,,
10,3,505,A,24.84583136023949,37.29000743932334,1.2422915680119744,0.5857500671184347,A,589.2432500004361,Correct,sub_010_day_03_data.csv,1,300,20.0,Training at home,,,,,,,,,,,,,
10,3,506,B,84.77755941788274,65.40618183704838,4.238877970894137,1.027397901793147,B,769.9527499999022,Correct,sub_010_day_03_data.csv,1,300,20.0,Training at home,,,,,,,,,,,,,
10,3,507,B,54.1835325226382,47.39603705245191,2.70917662613191,0.7444952090662628,B,946.2962919997152,Correct,sub_010_day_03_data.csv,1,300,20.0,Training at home,,,,,,,,,,,,,
10,3,508,A,67.99840303616759,85.65675682192116,3.3999201518083795,1.3454931898103748,A,564.9361250007132,Correct,sub_010_day_03_data.csv,1,300,20.0,Training at home,,,,,,,,,,,,,
10,3,509,B,70.74330495910418,53.987473417065246,3.537165247955209,0.848033249364632,B,591.317583000091,Correct,sub_010_day_03_data.csv,1,300,20.0,Training at home,,,,,,,,,,,,,
10,3,510,A,27.921198426900176,40.842343536793024,1.396059921345009,0.6415500320528976,A,649.8230000006515,Correct,sub_010_day_03_data.csv,1,300,20.0,Training at home,,,,,,,,,,,,,
10,3,511,B,85.07993516707731,62.61450734355593,4.253996758353866,0.9835463813932972,B,984.2580840004302,Correct,sub_010_day_03_data.csv,1,300,20.0,Training at home,,,,,,,,,,,,,
10,3,512,B,38.27046989008426,16.113699003490964,1.9135234945042128,0.2531133920576219,B,760.9623750004175,Correct,sub_010_day_03_data.csv,1,300,20.0,Training at home,,,,,,,,,,,,,
10,3,513,A,49.83118723083411,76.20804133572327,2.4915593615417055,1.1970731140238773,A,542.2854580001513,Correct,sub_010_day_03_data.csv,1,300,20.0,Training at home,,,,,,,,,,,,,
10,3,514,B,60.08014203733284,37.627688054574854,3.004007101866642,0.5910543418191039,B,473.93716700025834,Correct,sub_010_day_03_data.csv,1,300,20.0,Training at home,,,,,,,,,,,,,
10,3,515,B,66.65984662249454,56.487748679667895,3.332992331124727,0.8873074813493561,B,564.701457999945,Correct,sub_010_day_03_data.csv,1,300,20.0,Training at home,,,,,,,,,,,,,
10,3,516,B,59.17892019142152,37.226393940565686,2.9589460095710756,0.5847508286166037,B,428.3979589999944,Correct,sub_010_day_03_data.csv,1,300,20.0,Training at home,,,,,,,,,,,,,
10,3,517,B,59.739811449896195,32.87670391500855,2.98699057249481,0.5164260574681883,B,545.0331250003728,Correct,sub_010_day_03_data.csv,1,300,20.0,Training at home,,,,,,,,,,,,,
10,3,518,A,54.88177731905891,68.1055202754042,2.744088865952946,1.0697990108306026,A,757.0420000001832,Correct,sub_010_day_03_data.csv,1,300,20.0,Training at home,,,,,,,,,,,,,
10,3,519,A,29.221412006557237,57.038762192710415,1.461070600327862,0.8959627813723715,A,590.5478750000839,Correct,sub_010_day_03_data.csv,1,300,20.0,Training at home,,,,,,,,,,,,,
10,3,520,B,85.707851440826,56.728744304144314,4.2853925720413,0.891093031766368,A,556.1581669999214,Incorrect,sub_010_day_03_data.csv,0,300,20.0,Training at home,,,,,,,,,,,,,
10,3,521,B,81.17598524273144,51.08232923793624,4.058799262136572,0.8023993513107778,B,585.7236250003552,Correct,sub_010_day_03_data.csv,1,300,20.0,Training at home,,,,,,,,,,,,,
10,3,522,A,35.7998924609473,47.50149173538053,1.789994623047365,0.7461516873521387,A,633.7610410000707,Correct,sub_010_day_03_data.csv,1,300,20.0,Training at home,,,,,,,,,,,,,
10,3,523,A,63.783711947371465,76.92889874495876,3.1891855973685734,1.2083963157295774,A,625.6254999998418,Correct,sub_010_day_03_data.csv,1,300,20.0,Training at home,,,,,,,,,,,,,
10,3,524,B,43.48463190738131,23.32798674348266,2.1742315953690654,0.3664351588818261,B,495.9600409993072,Correct,sub_010_day_03_data.csv,1,300,20.0,Training at home,,,,,,,,,,,,,
10,3,525,A,20.675971747021435,52.53125708934553,1.0337985873510718,0.8251590567786233,A,510.1276659997893,Correct,sub_010_day_03_data.csv,1,300,21.0,Training at home,,,,,,,,,,,,,
10,3,526,B,66.57314702124037,58.465567800061635,3.3286573510620188,0.918374991443148,B,876.490499999818,Correct,sub_010_day_03_data.csv,1,300,21.0,Training at home,,,,,,,,,,,,,
10,3,527,B,62.061627304652525,32.09576585163423,3.1030813652326263,0.5041591110541613,B,457.1891659998073,Correct,sub_010_day_03_data.csv,1,300,21.0,Training at home,,,,,,,,,,,,,
10,3,528,A,20.981150462834396,38.14776242636808,1.0490575231417198,0.5992236509478335,A,625.5229580001469,Correct,sub_010_day_03_data.csv,1,300,21.0,Training at home,,,,,,,,,,,,,
10,3,529,B,48.46298808245031,28.964254944324946,2.423149404122515,0.4549694527489654,B,610.7360409996545,Correct,sub_010_day_03_data.csv,1,300,21.0,Training at home,,,,,,,,,,,,,
10,3,530,B,45.99211176878602,32.531852729107385,2.2996055884393005,0.5110091477071441,B,501.7539999998917,Correct,sub_010_day_03_data.csv,1,300,21.0,Training at home,,,,,,,,,,,,,
10,3,531,B,66.90993745879945,42.210257567180896,3.345496872939973,0.6630371753959423,B,486.7270830000052,Correct,sub_010_day_03_data.csv,1,300,21.0,Training at home,,,,,,,,,,,,,
10,3,532,B,39.37297856582043,20.603029018942436,1.9686489282910216,0.3236316230380343,B,429.442999999992,Correct,sub_010_day_03_data.csv,1,300,21.0,Training at home,,,,,,,,,,,,,
10,3,533,B,85.78307080965858,61.060500884291315,4.289153540482929,0.9591361050130134,B,685.2225000002363,Correct,sub_010_day_03_data.csv,1,300,21.0,Training at home,,,,,,,,,,,,,
10,3,534,A,21.87965495569054,48.26379105193328,1.093982747784527,0.758125857015732,A,554.6970409995993,Correct,sub_010_day_03_data.csv,1,300,21.0,Training at home,,,,,,,,,,,,,
10,3,535,B,37.93415957165804,27.838302206696227,1.896707978582902,0.437283028504847,B,971.1488749999262,Correct,sub_010_day_03_data.csv,1,300,21.0,Training at home,,,,,,,,,,,,,
10,3,536,A,49.43778293413996,71.10420537964004,2.471889146706998,1.1169022463000848,A,2311.3662919995477,Correct,sub_010_day_03_data.csv,1,300,21.0,Training at home,,,,,,,,,,,,,
10,3,537,A,41.61685423951953,72.69777238007214,2.080842711975977,1.141933938207888,A,1254.5736669999314,Correct,sub_010_day_03_data.csv,1,300,21.0,Training at home,,,,,,,,,,,,,
10,3,538,B,61.045202615092514,35.558086489695604,3.0522601307546258,0.5585451164586909,B,758.8387910000165,Correct,sub_010_day_03_data.csv,1,300,21.0,Training at home,,,,,,,,,,,,,
10,3,539,B,42.963968906516925,26.39602621034652,2.1481984453258463,0.4146278101319411,B,522.5061659994026,Correct,sub_010_day_03_data.csv,1,300,21.0,Training at home,,,,,,,,,,,,,
10,3,540,A,58.60091006713808,81.11055143545791,2.930045503356904,1.274081562591258,A,573.7025419994097,Correct,sub_010_day_03_data.csv,1,300,21.0,Training at home,,,,,,,,,,,,,
10,3,541,B,50.306746892620794,26.953360043081915,2.51533734463104,0.423382389504534,B,619.1630419998546,Correct,sub_010_day_03_data.csv,1,300,21.0,Training at home,,,,,,,,,,,,,
10,3,542,A,20.34437582209609,44.91280832199058,1.0172187911048045,0.7054887433822606,A,631.2622920004287,Correct,sub_010_day_03_data.csv,1,300,21.0,Training at home,,,,,,,,,,,,,
10,3,543,B,70.35155119536272,57.05536502524769,3.517577559768136,0.8962235780560107,B,1482.0586659998298,Correct,sub_010_day_03_data.csv,1,300,21.0,Training at home,,,,,,,,,,,,,
10,3,544,B,51.88758030973256,35.56079761042207,2.594379015486628,0.5585877026434772,B,787.6242499996806,Correct,sub_010_day_03_data.csv,1,300,21.0,Training at home,,,,,,,,,,,,,
10,3,545,A,42.03990492608963,69.18689730566084,2.1019952463044818,1.0867852415006776,A,625.9454580003876,Correct,sub_010_day_03_data.csv,1,300,21.0,Training at home,,,,,,,,,,,,,
10,3,546,B,67.53023889330082,42.45272962468526,3.3765119446650407,0.6668459175687249,B,631.2879170000087,Correct,sub_010_day_03_data.csv,1,300,21.0,Training at home,,,,,,,,,,,,,
10,3,547,B,72.58008515107522,53.98780734839778,3.629004257553761,0.8480384947457374,B,751.1842499998238,Correct,sub_010_day_03_data.csv,1,300,21.0,Training at home,,,,,,,,,,,,,
10,3,548,A,40.86851134418492,63.27292244766444,2.043425567209246,0.9938887416636968,A,634.6086250005101,Correct,sub_010_day_03_data.csv,1,300,21.0,Training at home,,,,,,,,,,,,,
10,3,549,A,27.350309114822124,54.85697385609551,1.3675154557411062,0.8616913303223849,A,622.6319160005005,Correct,sub_010_day_03_data.csv,1,300,21.0,Training at home,,,,,,,,,,,,,
10,3,550,A,61.65009162668745,80.23601252609309,3.0825045813343723,1.2603443375265633,A,628.4775829999489,Correct,sub_010_day_03_data.csv,1,300,22.0,Training at home,,,,,,,,,,,,,
10,3,551,A,41.40496156502585,67.03764517864894,2.0702480782512924,1.0530248680360137,A,595.5876660000285,Correct,sub_010_day_03_data.csv,1,300,22.0,Training at home,,,,,,,,,,,,,
10,3,552,A,50.887966936750715,78.94156371202774,2.5443983468375357,1.2400111831029847,A,500.51983299999847,Correct,sub_010_day_03_data.csv,1,300,22.0,Training at home,,,,,,,,,,,,,
10,3,553,B,69.48586065122912,41.84116699624362,3.474293032561456,0.6572395142651134,B,579.645542000435,Correct,sub_010_day_03_data.csv,1,300,22.0,Training at home,,,,,,,,,,,,,
10,3,554,A,42.10279184301348,62.01080127156106,2.1051395921506737,0.974063388589764,A,538.6545000001206,Correct,sub_010_day_03_data.csv,1,300,22.0,Training at home,,,,,,,,,,,,,
10,3,555,A,13.885926410046448,37.72700782574258,0.6942963205023225,0.5926144531363876,A,597.4294160005229,Correct,sub_010_day_03_data.csv,1,300,22.0,Training at home,,,,,,,,,,,,,
10,3,556,A,48.199854536511275,76.61788150779665,2.4099927268255636,1.203510868392536,A,549.562459000299,Correct,sub_010_day_03_data.csv,1,300,22.0,Training at home,,,,,,,,,,,,,
10,3,557,B,31.723701015489997,16.009487872668586,1.5861850507745,0.2514764474425526,B,438.6545409997779,Correct,sub_010_day_03_data.csv,1,300,22.0,Training at home,,,,,,,,,,,,,
10,3,558,B,70.9929284716074,51.004352404538366,3.54964642358037,0.8011744940760133,B,426.34616699979233,Correct,sub_010_day_03_data.csv,1,300,22.0,Training at home,,,,,,,,,,,,,
10,3,559,B,56.57663342164287,49.09079642978093,2.8288316710821437,0.7711164271133591,B,981.3889999995808,Correct,sub_010_day_03_data.csv,1,300,22.0,Training at home,,,,,,,,,,,,,
10,3,560,B,46.03674512752586,37.83799140278913,2.3018372563762934,0.5943577790879804,B,858.264916000735,Correct,sub_010_day_03_data.csv,1,300,22.0,Training at home,,,,,,,,,,,,,
10,3,561,B,34.80301698469745,24.199966099203372,1.7401508492348725,0.3801321785718967,B,669.8023750004722,Correct,sub_010_day_03_data.csv,1,300,22.0,Training at home,,,,,,,,,,,,,
10,3,562,A,67.80361953547833,81.9388676485525,3.390180976773917,1.2870927232407945,A,687.9379579995657,Correct,sub_010_day_03_data.csv,1,300,22.0,Training at home,,,,,,,,,,,,,
10,3,563,B,85.62025038123974,67.73779342966924,4.281012519061988,1.0640227710451593,A,513.4371249996548,Incorrect,sub_010_day_03_data.csv,0,300,22.0,Training at home,,,,,,,,,,,,,
10,3,564,A,13.323892169180862,30.62232933974699,0.6661946084590431,0.4810144244477816,A,636.6535420002037,Correct,sub_010_day_03_data.csv,1,300,22.0,Training at home,,,,,,,,,,,,,
10,3,565,B,45.81582751918661,26.776122007982757,2.2907913759593304,0.420598340959513,B,557.5821250004083,Correct,sub_010_day_03_data.csv,1,300,22.0,Training at home,,,,,,,,,,,,,
10,3,566,B,61.29124549264352,49.60865178709362,3.064562274632176,0.7792508800441375,B,626.3567920004789,Correct,sub_010_day_03_data.csv,1,300,22.0,Training at home,,,,,,,,,,,,,
10,3,567,A,60.53816222409561,82.25791598867347,3.02690811120478,1.2921043228481148,A,518.6618750003618,Correct,sub_010_day_03_data.csv,1,300,22.0,Training at home,,,,,,,,,,,,,
10,3,568,B,52.60308210074722,38.34886005239004,2.630154105037361,0.6023824850706581,B,559.5484589994157,Correct,sub_010_day_03_data.csv,1,300,22.0,Training at home,,,,,,,,,,,,,
10,3,569,A,39.321282874386725,69.91460625004261,1.966064143719336,1.0982160668687846,A,498.9885420000064,Correct,sub_010_day_03_data.csv,1,300,22.0,Training at home,,,,,,,,,,,,,
10,3,570,A,44.835595069920394,64.20433885651956,2.24177975349602,1.0085193964011576,A,584.0575419997549,Correct,sub_010_day_03_data.csv,1,300,22.0,Training at home,,,,,,,,,,,,,
10,3,571,B,77.12639223750844,56.042737073014,3.856319611875422,0.8803172553782255,B,738.602790999721,Correct,sub_010_day_03_data.csv,1,300,22.0,Training at home,,,,,,,,,,,,,
10,3,572,B,57.914039435965925,43.62340753349092,2.8957019717982964,0.6852348831588435,B,751.0404169997855,Correct,sub_010_day_03_data.csv,1,300,22.0,Training at home,,,,,,,,,,,,,
10,3,573,B,76.10861512523687,60.52327350471121,3.8054307562618432,0.9506973570680324,B,684.9339580003289,Correct,sub_010_day_03_data.csv,1,300,22.0,Training at home,,,,,,,,,,,,,
10,3,574,A,42.79109676590309,64.93931997837221,2.1395548382951546,1.0200644528658551,A,534.3518330000734,Correct,sub_010_day_03_data.csv,1,300,22.0,Training at home,,,,,,,,,,,,,
10,3,575,B,38.392826850140096,25.731394772388903,1.919641342507005,0.404187803917779,B,553.1608339997547,Correct,sub_010_day_03_data.csv,1,300,23.0,Training at home,,,,,,,,,,,,,
10,3,576,B,36.44624798736352,18.35299164977662,1.822312399368176,0.2882881186916652,B,518.7493749999703,Correct,sub_010_day_03_data.csv,1,300,23.0,Training at home,,,,,,,,,,,,,
10,3,577,A,57.64985056320424,66.47663235496074,2.882492528160212,1.044212499208671,A,633.1392910005889,Correct,sub_010_day_03_data.csv,1,300,23.0,Training at home,,,,,,,,,,,,,
10,3,578,A,61.53351032995606,87.82961571887293,3.076675516497803,1.3796243775501291,A,527.0147499995801,Correct,sub_010_day_03_data.csv,1,300,23.0,Training at home,,,,,,,,,,,,,
10,3,579,A,51.60167363158155,80.73262043356794,2.5800836815790773,1.2681450362957511,A,605.2762500003155,Correct,sub_010_day_03_data.csv,1,300,23.0,Training at home,,,,,,,,,,,,,
10,3,580,A,50.5732521444382,63.23925420798623,2.52866260722191,0.9933598821915348,A,639.8464160001822,Correct,sub_010_day_03_data.csv,1,300,23.0,Training at home,,,,,,,,,,,,,
10,3,581,A,66.49433134362548,82.460805207346,3.324716567181274,1.295291299242486,A,549.3856250004683,Correct,sub_010_day_03_data.csv,1,300,23.0,Training at home,,,,,,,,,,,,,
10,3,582,A,21.52171859337168,48.33007970134585,1.076085929668584,0.7591671166857866,A,633.3518330002335,Correct,sub_010_day_03_data.csv,1,300,23.0,Training at home,,,,,,,,,,,,,
10,3,583,A,39.17729298923325,54.94470800457981,1.9588646494616624,0.8630694551041214,B,677.9770419998385,Incorrect,sub_010_day_03_data.csv,0,300,23.0,Training at home,,,,,,,,,,,,,
10,3,584,B,74.87364164863062,60.10508576897081,3.743682082431531,0.9441284794759156,B,670.9460829997624,Correct,sub_010_day_03_data.csv,1,300,23.0,Training at home,,,,,,,,,,,,,
10,3,585,B,49.66579992327006,25.50278422485672,2.483289996163503,0.4005967978344777,B,569.6824159995231,Correct,sub_010_day_03_data.csv,1,300,23.0,Training at home,,,,,,,,,,,,,
10,3,586,B,53.703803522326325,39.8053705847787,2.685190176116316,0.6252612990128,B,492.24675000004936,Correct,sub_010_day_03_data.csv,1,300,23.0,Training at home,,,,,,,,,,,,,
10,3,587,B,73.15302009428669,48.84257682678273,3.6576510047143342,0.7672174027070786,B,615.460833000725,Correct,sub_010_day_03_data.csv,1,300,23.0,Training at home,,,,,,,,,,,,,
10,3,588,A,54.486105982711365,72.1897650988369,2.724305299135568,1.1339541784943945,A,589.807958000165,Correct,sub_010_day_03_data.csv,1,300,23.0,Training at home,,,,,,,,,,,,,
10,3,589,A,56.63261511882398,81.08549871778683,2.831630755941199,1.2736880354223186,A,567.4722499998097,Correct,sub_010_day_03_data.csv,1,300,23.0,Training at home,,,,,,,,,,,,,
10,3,590,B,72.1753096983488,53.5426699833821,3.608765484917439,0.8410462933668796,B,709.0818329998001,Correct,sub_010_day_03_data.csv,1,300,23.0,Training at home,,,,,,,,,,,,,
10,3,591,B,42.32301435890439,32.29702218651446,2.1161507179452195,0.5073204381699019,B,691.9417500002965,Correct,sub_010_day_03_data.csv,1,300,23.0,Training at home,,,,,,,,,,,,,
10,3,592,B,53.82899646911715,43.14309114359876,2.6914498234558573,0.6776900909494236,B,564.6882080000069,Correct,sub_010_day_03_data.csv,1,300,23.0,Training at home,,,,,,,,,,,,,
10,3,593,A,12.0472793768364,36.115072874605815,0.60236396884182,0.5672942381336081,A,593.0988330001128,Correct,sub_010_day_03_data.csv,1,300,23.0,Training at home,,,,,,,,,,,,,
10,3,594,A,32.8912716629777,61.30795217544216,1.6445635831488852,0.9630230608050172,A,576.1555420003788,Correct,sub_010_day_03_data.csv,1,300,23.0,Training at home,,,,,,,,,,,,,
10,3,595,B,41.93152857348058,33.31072522424865,2.096576428674029,0.5232436482512388,B,594.5181670003876,Correct,sub_010_day_03_data.csv,1,300,23.0,Training at home,,,,,,,,,,,,,
10,3,596,A,59.521046324117286,79.1441985894985,2.9760523162058643,1.2431941643151003,A,638.825375000124,Correct,sub_010_day_03_data.csv,1,300,23.0,Training at home,,,,,,,,,,,,,
10,3,597,B,60.55008927074245,44.13182783965949,3.027504463537122,0.6932211306528189,B,527.0757079997566,Correct,sub_010_day_03_data.csv,1,300,23.0,Training at home,,,,,,,,,,,,,
10,3,598,A,19.838325937785825,50.23757996590457,0.9919162968892912,0.7891300607750777,A,535.5218329996205,Correct,sub_010_day_03_data.csv,1,300,23.0,Training at home,,,,,,,,,,,,,
10,3,599,A,34.79912614483393,45.63821880028185,1.7399563072416964,0.7168834645294453,B,771.0212080000929,Incorrect,sub_010_day_03_data.csv,0,300,23.0,Training at home,,,,,,,,,,,,,
