subject,day,trial,cat,x,y,xt,yt,resp,rt,fb,f_name,acc,n_trials,block,session_type,ns_left_digit,ns_right_digit,ns_left_size,ns_right_size,ns_congruent,ns_cue,ns_correct_side,ns_resp,ns_rt,ns_fb,acc_stroop,acc_stroop_mean,resp_key
10,17,3600,A,40.94300623935633,61.38648758544065,2.0471503119678163,0.9642566921405068,A,550.7654580001144,Correct,sub_010_day_17_data.csv,1,300,144.0,Training at home,,,,,,,,,,,,,
10,17,3601,B,65.55191675733393,47.24462398219758,3.2775958378666963,0.7421168181204204,B,680.9176660003686,Correct,sub_010_day_17_data.csv,1,300,144.0,Training at home,,,,,,,,,,,,,
10,17,3602,A,41.153425248007466,69.09921014506904,2.0576712624003735,1.085407854803031,A,480.94329200012,Correct,sub_010_day_17_data.csv,1,300,144.0,Training at home,,,,,,,,,,,,,
10,17,3603,B,70.05458204238383,58.911505112866294,3.5027291021191913,0.9253797583724914,B,650.3815829996711,Correct,sub_010_day_17_data.csv,1,300,144.0,Training at home,,,,,,,,,,,,,
10,17,3604,B,65.57197687542093,33.038190531691306,3.2785988437710465,0.5189626833113063,B,522.6659999998446,Correct,sub_010_day_17_data.csv,1,300,144.0,Training at home,,,,,,,,,,,,,
10,17,3605,A,66.74452456659482,89.16501834307401,3.3372262283297407,1.4006008329190025,A,391.6181249996953,Correct,sub_010_day_17_data.csv,1,300,144.0,Training at home,,,,,,,,,,,,,
10,17,3606,B,83.16482926264462,54.31837019034053,4.158241463132231,0.8532309637247232,B,546.2274159999652,Correct,sub_010_day_17_data.csv,1,300,144.0,Training at home,,,,,,,,,,,,,
10,17,3607,B,48.70811535850077,40.37526700216824,2.4354057679250385,0.6342132110036907,A,708.3883329996752,Incorrect,sub_010_day_17_data.csv,0,300,144.0,Training at home,,,,,,,,,,,,,
10,17,3608,B,48.54082387450386,21.542750257104625,2.4270411937251932,0.3383927297291975,B,416.6816659999313,Correct,sub_010_day_17_data.csv,1,300,144.0,Training at home,,,,,,,,,,,,,
10,17,3609,A,20.892794793408974,45.79264601398398,1.0446397396704483,0.7193092015298501,A,470.55345900025713,Correct,sub_010_day_17_data.csv,1,300,144.0,Training at home,,,,,,,,,,,,,
10,17,3610,A,58.79333168380329,86.77280607993029,2.939666584190164,1.3630240505604037,A,480.41966700020566,Correct,sub_010_day_17_data.csv,1,300,144.0,Training at home,,,,,,,,,,,,,
10,17,3611,A,47.63246966121431,58.08215967045256,2.3816234830607157,0.9123524306266156,A,515.314292000312,Correct,sub_010_day_17_data.csv,1,300,144.0,Training at home,,,,,,,,,,,,,
10,17,3612,A,40.00545876818906,48.22477091716236,2.0002729384094526,0.7575129301720398,A,644.3571250001696,Correct,sub_010_day_17_data.csv,1,300,144.0,Training at home,,,,,,,,,,,,,
10,17,3613,A,17.07097960402602,40.23723951750519,0.8535489802013011,0.632045080344636,A,503.56066699987423,Correct,sub_010_day_17_data.csv,1,300,144.0,Training at home,,,,,,,,,,,,,
10,17,3614,A,29.973258376312856,50.8359919925501,1.4986629188156428,0.7985298949087247,A,415.5418750001445,Correct,sub_010_day_17_data.csv,1,300,144.0,Training at home,,,,,,,,,,,,,
10,17,3615,A,35.38210871210338,48.79600480743695,1.7691054356051692,0.7664858511378807,A,511.426666999796,Correct,sub_010_day_17_data.csv,1,300,144.0,Training at home,,,,,,,,,,,,,
10,17,3616,A,11.181612008713316,36.91280416170101,0.5590806004356658,0.5798249718889932,A,599.4917499997428,Correct,sub_010_day_17_data.csv,1,300,144.0,Training at home,,,,,,,,,,,,,
10,17,3617,B,50.52467955705452,42.52036731958982,2.526233977852726,0.6679083679958147,B,952.8931660001944,Correct,sub_010_day_17_data.csv,1,300,144.0,Training at home,,,,,,,,,,,,,
10,17,3618,B,89.33934482360235,64.38634278298706,4.466967241180117,1.0113783073927316,B,625.6367080000018,Correct,sub_010_day_17_data.csv,1,300,144.0,Training at home,,,,,,,,,,,,,
10,17,3619,A,48.03067369561531,67.65792528972416,2.4015336847807656,1.0627682052366223,A,693.8349170000038,Correct,sub_010_day_17_data.csv,1,300,144.0,Training at home,,,,,,,,,,,,,
10,17,3620,A,21.616558398799032,47.28709930669147,1.0808279199399515,0.7427840189573647,A,487.4815829998624,Correct,sub_010_day_17_data.csv,1,300,144.0,Training at home,,,,,,,,,,,,,
10,17,3621,B,59.755093850182035,52.259597431364696,2.987754692509102,0.8208918368496768,B,662.1154999997998,Correct,sub_010_day_17_data.csv,1,300,144.0,Training at home,,,,,,,,,,,,,
10,17,3622,A,45.24970719688688,69.83170450634022,2.262485359844344,1.0969138493238584,A,580.5690419997518,Correct,sub_010_day_17_data.csv,1,300,144.0,Training at home,,,,,,,,,,,,,
10,17,3623,B,67.0674434539283,34.697872257994476,3.3533721726964156,0.5450329029045626,B,495.5751669999699,Correct,sub_010_day_17_data.csv,1,300,144.0,Training at home,,,,,,,,,,,,,
10,17,3624,A,27.714333588825347,45.18215321960865,1.3857166794412674,0.7097196031404547,A,396.86287499989703,Correct,sub_010_day_17_data.csv,1,300,144.0,Training at home,,,,,,,,,,,,,
10,17,3625,A,27.683808122877444,44.69425942896933,1.3841904061438723,0.702055785398432,A,562.6389999997627,Correct,sub_010_day_17_data.csv,1,300,145.0,Training at home,,,,,,,,,,,,,
10,17,3626,A,11.194384460233174,36.983453058442905,0.5597192230116587,0.5809347221639359,A,479.4680420000077,Correct,sub_010_day_17_data.csv,1,300,145.0,Training at home,,,,,,,,,,,,,
10,17,3627,B,33.413543088713936,11.56715741475307,1.6706771544356969,0.1816964837855247,B,821.0579999999936,Correct,sub_010_day_17_data.csv,1,300,145.0,Training at home,,,,,,,,,,,,,
10,17,3628,A,51.111567382940265,65.32546829675714,2.5555783691470135,1.0261300564670257,A,611.5762919998815,Correct,sub_010_day_17_data.csv,1,300,145.0,Training at home,,,,,,,,,,,,,
10,17,3629,A,20.52256994758805,47.03138674687013,1.0261284973794025,0.7387672954605378,A,459.56554199983657,Correct,sub_010_day_17_data.csv,1,300,145.0,Training at home,,,,,,,,,,,,,
10,17,3630,B,63.69696174428134,44.78553853536136,3.1848480872140668,0.7034895942487692,B,495.987249999871,Correct,sub_010_day_17_data.csv,1,300,145.0,Training at home,,,,,,,,,,,,,
10,17,3631,A,54.389550292384094,73.16796711354552,2.7194775146192045,1.1493197398100707,A,466.75616699985767,Correct,sub_010_day_17_data.csv,1,300,145.0,Training at home,,,,,,,,,,,,,
10,17,3632,B,83.25933631570408,60.79036357085975,4.162966815785204,0.954892798016328,B,648.5562090001622,Correct,sub_010_day_17_data.csv,1,300,145.0,Training at home,,,,,,,,,,,,,
10,17,3633,B,63.782623358604546,44.63936920299325,3.189131167930227,0.7011935717450303,B,647.9168750001918,Correct,sub_010_day_17_data.csv,1,300,145.0,Training at home,,,,,,,,,,,,,
10,17,3634,A,37.81133247222478,57.835900145752746,1.8905666236112384,0.9084841950582484,A,473.67595900004744,Correct,sub_010_day_17_data.csv,1,300,145.0,Training at home,,,,,,,,,,,,,
10,17,3635,A,21.86017831448225,42.86201641375454,1.0930089157241123,0.6732749794174819,A,409.06425000002855,Correct,sub_010_day_17_data.csv,1,300,145.0,Training at home,,,,,,,,,,,,,
10,17,3636,A,58.5924473271771,73.94150614067932,2.9296223663588545,1.1614704624346135,A,466.53120900009526,Correct,sub_010_day_17_data.csv,1,300,145.0,Training at home,,,,,,,,,,,,,
10,17,3637,A,36.19957898801865,68.39941811398847,1.8099789494009328,1.074415547283614,A,425.96324999976787,Correct,sub_010_day_17_data.csv,1,300,145.0,Training at home,,,,,,,,,,,,,
10,17,3638,A,52.55596939394853,66.97152040971639,2.6277984696974266,1.0519861825945196,B,783.00579200004,Incorrect,sub_010_day_17_data.csv,0,300,145.0,Training at home,,,,,,,,,,,,,
10,17,3639,A,22.781525299881793,47.23999639825173,1.1390762649940895,0.7420441282017797,A,469.4862500000454,Correct,sub_010_day_17_data.csv,1,300,145.0,Training at home,,,,,,,,,,,,,
10,17,3640,B,81.1789102252068,53.050260542337405,4.05894551126034,0.8333115439541583,B,541.163874999711,Correct,sub_010_day_17_data.csv,1,300,145.0,Training at home,,,,,,,,,,,,,
10,17,3641,B,62.77201813287128,31.609835156186584,3.138600906643564,0.4965261295393007,B,559.0042920002816,Correct,sub_010_day_17_data.csv,1,300,145.0,Training at home,,,,,,,,,,,,,
10,17,3642,A,44.33010071225428,70.72085961832855,2.216505035612714,1.11088066516248,A,397.2880000001169,Correct,sub_010_day_17_data.csv,1,300,145.0,Training at home,,,,,,,,,,,,,
10,17,3643,A,29.20387703358325,46.36091925337063,1.4601938516791626,0.7282356167002939,A,521.7915410003116,Correct,sub_010_day_17_data.csv,1,300,145.0,Training at home,,,,,,,,,,,,,
10,17,3644,B,82.59699808213153,62.921462738368376,4.129849904106577,0.98836802545991,B,503.7151670003368,Correct,sub_010_day_17_data.csv,1,300,145.0,Training at home,,,,,,,,,,,,,
10,17,3645,B,89.77017559412326,65.27900397826708,4.488508779706163,1.025400196658914,B,633.0140420000134,Correct,sub_010_day_17_data.csv,1,300,145.0,Training at home,,,,,,,,,,,,,
10,17,3646,A,29.44424309484896,62.596500463988995,1.472212154742448,0.9832635299904896,A,414.1382499997235,Correct,sub_010_day_17_data.csv,1,300,145.0,Training at home,,,,,,,,,,,,,
10,17,3647,A,31.293202176805348,59.22365966900976,1.5646601088402674,0.930283070674316,A,465.3808329999265,Correct,sub_010_day_17_data.csv,1,300,145.0,Training at home,,,,,,,,,,,,,
10,17,3648,A,16.74507551099744,33.4517501658745,0.837253775549872,0.5254588628541623,A,424.290041000404,Correct,sub_010_day_17_data.csv,1,300,145.0,Training at home,,,,,,,,,,,,,
10,17,3649,A,40.11588181156102,50.27068288170334,2.005794090578051,0.7896500401605069,A,537.6103749999857,Correct,sub_010_day_17_data.csv,1,300,145.0,Training at home,,,,,,,,,,,,,
10,17,3650,B,83.02800982632087,66.32818940265396,4.151400491316043,1.0418807627664504,B,462.9375829999845,Correct,sub_010_day_17_data.csv,1,300,146.0,Training at home,,,,,,,,,,,,,
10,17,3651,A,34.142971191439486,41.94540459342204,1.7071485595719742,0.6588768746127313,A,541.4582909997989,Correct,sub_010_day_17_data.csv,1,300,146.0,Training at home,,,,,,,,,,,,,
10,17,3652,A,49.23294740624631,63.35737746944048,2.461647370312315,0.9952153580435484,B,754.0200000003097,Incorrect,sub_010_day_17_data.csv,0,300,146.0,Training at home,,,,,,,,,,,,,
10,17,3653,A,30.70939708116164,42.71264290829794,1.5354698540580818,0.6709286258805649,B,404.51949999987846,Incorrect,sub_010_day_17_data.csv,0,300,146.0,Training at home,,,,,,,,,,,,,
10,17,3654,A,26.26660334531895,37.53267601575644,1.3133301672659474,0.5895618962033312,A,452.3587500002577,Correct,sub_010_day_17_data.csv,1,300,146.0,Training at home,,,,,,,,,,,,,
10,17,3655,B,33.36706946383508,14.20046953596124,1.6683534731917542,0.2230604538585074,B,622.9808329999287,Correct,sub_010_day_17_data.csv,1,300,146.0,Training at home,,,,,,,,,,,,,
10,17,3656,A,35.462889939821345,64.87662315400759,1.7731444969910672,1.0190796134517186,A,548.430959000143,Correct,sub_010_day_17_data.csv,1,300,146.0,Training at home,,,,,,,,,,,,,
10,17,3657,B,45.61711786603506,33.74652370577654,2.2808558933017533,0.5300891547913069,B,401.685291999911,Correct,sub_010_day_17_data.csv,1,300,146.0,Training at home,,,,,,,,,,,,,
10,17,3658,B,44.3149525770683,17.76596967374617,2.215747628853415,0.2790671990547001,B,613.6937090000174,Correct,sub_010_day_17_data.csv,1,300,146.0,Training at home,,,,,,,,,,,,,
10,17,3659,A,43.22167578667659,65.94363660407402,2.1610837893338295,1.0358402215317697,A,433.3237499999995,Correct,sub_010_day_17_data.csv,1,300,146.0,Training at home,,,,,,,,,,,,,
10,17,3660,B,65.50932477023208,44.58943939302839,3.275466238511604,0.7004092761241266,B,659.1675419999774,Correct,sub_010_day_17_data.csv,1,300,146.0,Training at home,,,,,,,,,,,,,
10,17,3661,A,36.17035948077376,62.56083452195553,1.808517974038688,0.9827032906831112,A,702.2682919996441,Correct,sub_010_day_17_data.csv,1,300,146.0,Training at home,,,,,,,,,,,,,
10,17,3662,A,62.60673159657233,80.62657948731226,3.1303365798286165,1.2664793490070687,A,859.5575829999689,Correct,sub_010_day_17_data.csv,1,300,146.0,Training at home,,,,,,,,,,,,,
10,17,3663,A,25.950107253408856,44.0458378278976,1.297505362670443,0.6918704027066526,A,511.3742079997792,Correct,sub_010_day_17_data.csv,1,300,146.0,Training at home,,,,,,,,,,,,,
10,17,3664,A,11.332477345084293,37.24848875579488,0.5666238672542147,0.585097893162636,A,484.12291700014976,Correct,sub_010_day_17_data.csv,1,300,146.0,Training at home,,,,,,,,,,,,,
10,17,3665,A,32.6035874566662,59.5929192446311,1.6301793728333098,0.9360833865245144,A,919.8927500001446,Correct,sub_010_day_17_data.csv,1,300,146.0,Training at home,,,,,,,,,,,,,
10,17,3666,A,37.92041499112312,48.300952102458325,1.896020749556156,0.7587095814323778,A,932.5088750001668,Correct,sub_010_day_17_data.csv,1,300,146.0,Training at home,,,,,,,,,,,,,
10,17,3667,B,63.02362729949367,41.390641400264826,3.1511813649746836,0.6501626747522078,B,578.1752080001752,Correct,sub_010_day_17_data.csv,1,300,146.0,Training at home,,,,,,,,,,,,,
10,17,3668,B,69.68531149267537,39.82332837903016,3.4842655746337687,0.6255433793852754,B,465.8247910001592,Correct,sub_010_day_17_data.csv,1,300,146.0,Training at home,,,,,,,,,,,,,
10,17,3669,B,78.4145356275022,47.02435257520309,3.9207267813751105,0.7386568029503715,B,607.7776250003808,Correct,sub_010_day_17_data.csv,1,300,146.0,Training at home,,,,,,,,,,,,,
10,17,3670,B,69.57754717245301,46.71842731326608,3.4788773586226505,0.7338513401731274,B,416.9814159999987,Correct,sub_010_day_17_data.csv,1,300,146.0,Training at home,,,,,,,,,,,,,
10,17,3671,A,37.364884384898325,68.33361984940328,1.868244219244916,1.073381990560415,A,424.6447499999704,Correct,sub_010_day_17_data.csv,1,300,146.0,Training at home,,,,,,,,,,,,,
10,17,3672,A,68.36420315622198,83.39850175950858,3.4182101578110986,1.310020602240338,A,475.66733299981934,Correct,sub_010_day_17_data.csv,1,300,146.0,Training at home,,,,,,,,,,,,,
10,17,3673,A,23.531972844205587,35.620306836801845,1.1765986422102792,0.5595224713855548,A,513.2109159999345,Correct,sub_010_day_17_data.csv,1,300,146.0,Training at home,,,,,,,,,,,,,
10,17,3674,B,72.89387982091037,57.26292043439664,3.6446939910455183,0.8994838507989867,A,750.4273750000721,Incorrect,sub_010_day_17_data.csv,0,300,146.0,Training at home,,,,,,,,,,,,,
10,17,3675,A,26.792381781244327,52.64011654827124,1.3396190890622162,0.8268690171607972,A,464.629708999837,Correct,sub_010_day_17_data.csv,1,300,147.0,Training at home,,,,,,,,,,,,,
10,17,3676,B,65.35513601582214,57.08588642100089,3.267756800791107,0.8967030070193888,B,704.2880829999376,Correct,sub_010_day_17_data.csv,1,300,147.0,Training at home,,,,,,,,,,,,,
10,17,3677,A,45.841555567255355,75.47941967412794,2.2920777783627675,1.185627951727306,A,529.9137500001052,Correct,sub_010_day_17_data.csv,1,300,147.0,Training at home,,,,,,,,,,,,,
10,17,3678,A,48.21607877399501,66.1298534573025,2.4108039386997504,1.0387653090221556,A,687.975916999676,Correct,sub_010_day_17_data.csv,1,300,147.0,Training at home,,,,,,,,,,,,,
10,17,3679,B,73.01936638524728,54.320662465224565,3.650968319262364,0.8532669706944015,B,620.2225420001923,Correct,sub_010_day_17_data.csv,1,300,147.0,Training at home,,,,,,,,,,,,,
10,17,3680,B,64.71926739681292,41.711922984821165,3.2359633698406465,0.655209354081087,B,584.8887910001395,Correct,sub_010_day_17_data.csv,1,300,147.0,Training at home,,,,,,,,,,,,,
10,17,3681,B,64.94556040362383,46.29464866446507,3.247278020181192,0.72719464072402,B,576.6196670001591,Correct,sub_010_day_17_data.csv,1,300,147.0,Training at home,,,,,,,,,,,,,
10,17,3682,A,63.08042930009833,82.7952855548185,3.1540214650049165,1.3005453042544348,A,695.1822910000374,Correct,sub_010_day_17_data.csv,1,300,147.0,Training at home,,,,,,,,,,,,,
10,17,3683,A,65.056053644401,82.81412633081452,3.25280268222005,1.3008412544717194,A,739.0624580002623,Correct,sub_010_day_17_data.csv,1,300,147.0,Training at home,,,,,,,,,,,,,
10,17,3684,A,42.92256203042232,51.69967554230766,2.146128101521116,0.8120966043834484,A,748.1086249999862,Correct,sub_010_day_17_data.csv,1,300,147.0,Training at home,,,,,,,,,,,,,
10,17,3685,A,43.12300253033834,52.51909106190898,2.156150126516917,0.824967953266533,B,561.2663329998213,Incorrect,sub_010_day_17_data.csv,0,300,147.0,Training at home,,,,,,,,,,,,,
10,17,3686,A,29.48269641267411,38.63593758138513,1.4741348206337053,0.6068918883511666,A,823.6908330000006,Correct,sub_010_day_17_data.csv,1,300,147.0,Training at home,,,,,,,,,,,,,
10,17,3687,B,45.19603397920002,36.08361407340703,2.259801698960001,0.5668000844399239,B,707.8353339998102,Correct,sub_010_day_17_data.csv,1,300,147.0,Training at home,,,,,,,,,,,,,
10,17,3688,A,51.542488094369155,81.30387487484596,2.5771244047184574,1.277118280075999,A,573.7322499999209,Correct,sub_010_day_17_data.csv,1,300,147.0,Training at home,,,,,,,,,,,,,
10,17,3689,B,39.90230820862341,26.880412031984857,1.9951154104311704,0.4222365248257515,B,586.4528749998499,Correct,sub_010_day_17_data.csv,1,300,147.0,Training at home,,,,,,,,,,,,,
10,17,3690,B,47.98776933117907,20.482088875124788,2.3993884665589533,0.3217318997013263,B,781.5858339999977,Correct,sub_010_day_17_data.csv,1,300,147.0,Training at home,,,,,,,,,,,,,
10,17,3691,B,69.50644349370687,57.33857852809723,3.4753221746853433,0.9006722853557586,A,635.0762910001322,Incorrect,sub_010_day_17_data.csv,0,300,147.0,Training at home,,,,,,,,,,,,,
10,17,3692,A,56.25114750642622,70.8755180201418,2.812557375321311,1.1133100336572423,A,809.3495000002804,Correct,sub_010_day_17_data.csv,1,300,147.0,Training at home,,,,,,,,,,,,,
10,17,3693,B,53.82852816546436,40.391594966947544,2.691426408273218,0.6344696900746843,B,650.367875000029,Correct,sub_010_day_17_data.csv,1,300,147.0,Training at home,,,,,,,,,,,,,
10,17,3694,A,62.36224652329372,83.04096456922235,3.118112326164686,1.3044044211883965,A,521.3989999997466,Correct,sub_010_day_17_data.csv,1,300,147.0,Training at home,,,,,,,,,,,,,
10,17,3695,B,61.32184617736472,33.93364430493958,3.0660923088682357,0.5330284382896365,B,815.1944159999402,Correct,sub_010_day_17_data.csv,1,300,147.0,Training at home,,,,,,,,,,,,,
10,17,3696,A,18.779601040455695,42.70260581608295,0.9389800520227848,0.6707709636047349,A,415.58500000019194,Correct,sub_010_day_17_data.csv,1,300,147.0,Training at home,,,,,,,,,,,,,
10,17,3697,B,66.38793052569976,33.24407701331286,3.319396526284988,0.522196740601985,B,517.2320420001597,Correct,sub_010_day_17_data.csv,1,300,147.0,Training at home,,,,,,,,,,,,,
10,17,3698,B,73.53436365455059,49.97852907995112,3.6767181827275297,0.7850608989739912,B,538.1840000000011,Correct,sub_010_day_17_data.csv,1,300,147.0,Training at home,,,,,,,,,,,,,
10,17,3699,B,56.5951044337804,48.16320363456678,2.82975522168902,0.756545833558521,B,850.3539170001204,Correct,sub_010_day_17_data.csv,1,300,147.0,Training at home,,,,,,,,,,,,,
10,17,3700,A,33.38582208322992,61.23187309510656,1.669291104161496,0.9618280134056464,A,545.101749999958,Correct,sub_010_day_17_data.csv,1,300,148.0,Training at home,,,,,,,,,,,,,
10,17,3701,A,33.66954247786109,66.63053230438545,1.6834771238930546,1.0466299539611736,A,605.8437500000764,Correct,sub_010_day_17_data.csv,1,300,148.0,Training at home,,,,,,,,,,,,,
10,17,3702,B,86.93282898886264,67.19366480510843,4.346641449443132,1.0554756185975185,A,699.7239169995737,Incorrect,sub_010_day_17_data.csv,0,300,148.0,Training at home,,,,,,,,,,,,,
10,17,3703,B,64.1118318812404,51.29653609559686,3.20559159406202,0.8057641047626537,B,406.0895829998117,Correct,sub_010_day_17_data.csv,1,300,148.0,Training at home,,,,,,,,,,,,,
10,17,3704,B,56.27089861536554,32.22506668585863,2.813544930768277,0.5061901638086732,B,491.10650000011447,Correct,sub_010_day_17_data.csv,1,300,148.0,Training at home,,,,,,,,,,,,,
10,17,3705,A,58.07762097577297,67.16328892027079,2.9038810487886484,1.0549984753142572,A,730.1020410000092,Correct,sub_010_day_17_data.csv,1,300,148.0,Training at home,,,,,,,,,,,,,
10,17,3706,A,17.425620321186738,41.475514259332535,0.8712810160593369,0.651495854504889,A,574.4118749998961,Correct,sub_010_day_17_data.csv,1,300,148.0,Training at home,,,,,,,,,,,,,
10,17,3707,B,43.15215369651964,28.94305503716877,2.1576076848259818,0.4546364453860723,B,563.8221660001363,Correct,sub_010_day_17_data.csv,1,300,148.0,Training at home,,,,,,,,,,,,,
10,17,3708,A,43.92137324390425,75.4791472428943,2.1960686621952124,1.185623672387495,A,519.4870000000265,Correct,sub_010_day_17_data.csv,1,300,148.0,Training at home,,,,,,,,,,,,,
10,17,3709,B,47.38622348155825,24.003066965521683,2.3693111740779127,0.3770392942125338,B,472.4028750001707,Correct,sub_010_day_17_data.csv,1,300,148.0,Training at home,,,,,,,,,,,,,
10,17,3710,A,41.37557389584303,67.59030261676828,2.068778694792152,1.0617059907737512,A,521.9373750001068,Correct,sub_010_day_17_data.csv,1,300,148.0,Training at home,,,,,,,,,,,,,
10,17,3711,B,76.07054844151348,53.17510750795415,3.8035274220756743,0.8352726355041812,B,828.7072920002174,Correct,sub_010_day_17_data.csv,1,300,148.0,Training at home,,,,,,,,,,,,,
10,17,3712,A,56.989521033418015,67.83609015041381,2.849476051670901,1.0655668123239743,A,763.4242080002878,Correct,sub_010_day_17_data.csv,1,300,148.0,Training at home,,,,,,,,,,,,,
10,17,3713,A,53.753487033608,74.18571850562874,2.6876743516804,1.1653065412928183,A,981.9099579999602,Correct,sub_010_day_17_data.csv,1,300,148.0,Training at home,,,,,,,,,,,,,
10,17,3714,B,42.23294941341883,26.56050075459986,2.1116474706709414,0.4172113702315855,B,727.4812910000037,Correct,sub_010_day_17_data.csv,1,300,148.0,Training at home,,,,,,,,,,,,,
10,17,3715,A,47.513693067853005,66.91726538087177,2.3756846533926503,1.0511339465943266,A,686.2822080001934,Correct,sub_010_day_17_data.csv,1,300,148.0,Training at home,,,,,,,,,,,,,
10,17,3716,B,60.80143681287582,30.244792386931536,3.0400718406437908,0.4750840878606631,B,465.39529200026664,Correct,sub_010_day_17_data.csv,1,300,148.0,Training at home,,,,,,,,,,,,,
10,17,3717,B,63.79910759068976,47.24368071923628,3.1899553795344877,0.7421020013804723,B,553.6959589999242,Correct,sub_010_day_17_data.csv,1,300,148.0,Training at home,,,,,,,,,,,,,
10,17,3718,B,80.71045186576875,51.80781251030952,4.035522593288437,0.8137952159047288,B,666.3939589998336,Correct,sub_010_day_17_data.csv,1,300,148.0,Training at home,,,,,,,,,,,,,
10,17,3719,B,37.26160638251416,16.014238719558833,1.863080319125708,0.2515510735709962,B,549.5952920000491,Correct,sub_010_day_17_data.csv,1,300,148.0,Training at home,,,,,,,,,,,,,
10,17,3720,B,40.056669923861776,27.831690376264547,2.0028334961930887,0.4371791701152922,B,493.7908339998103,Correct,sub_010_day_17_data.csv,1,300,148.0,Training at home,,,,,,,,,,,,,
10,17,3721,A,46.82970557483219,71.80296861449494,2.3414852787416094,1.127878393526179,A,500.2375829999437,Correct,sub_010_day_17_data.csv,1,300,148.0,Training at home,,,,,,,,,,,,,
10,17,3722,B,77.94899615928443,61.88613796012338,3.8974498079642217,0.97210518187284,B,577.4790829996164,Correct,sub_010_day_17_data.csv,1,300,148.0,Training at home,,,,,,,,,,,,,
10,17,3723,B,65.84858084056107,38.57322193436812,3.2924290420280533,0.6059067532714978,B,955.9260000000904,Correct,sub_010_day_17_data.csv,1,300,148.0,Training at home,,,,,,,,,,,,,
10,17,3724,B,85.45715499160828,61.305733489346466,4.272857749580414,0.9629882097653232,A,498.7382079998497,Incorrect,sub_010_day_17_data.csv,0,300,148.0,Training at home,,,,,,,,,,,,,
10,17,3725,A,30.55642558765182,45.13529275196224,1.527821279382591,0.708983520635946,A,480.63474999980826,Correct,sub_010_day_17_data.csv,1,300,149.0,Training at home,,,,,,,,,,,,,
10,17,3726,B,47.36856310639499,30.22236983532754,2.3684281553197493,0.4747318752436938,B,373.6836250000124,Correct,sub_010_day_17_data.csv,1,300,149.0,Training at home,,,,,,,,,,,,,
10,17,3727,A,40.05257293470381,57.871161573840105,2.002628646735191,0.90903808027542,A,477.21237500036295,Correct,sub_010_day_17_data.csv,1,300,149.0,Training at home,,,,,,,,,,,,,
10,17,3728,A,23.59802217337998,50.30756676508503,1.179901108668999,0.7902294108458459,A,458.3263330000591,Correct,sub_010_day_17_data.csv,1,300,149.0,Training at home,,,,,,,,,,,,,
10,17,3729,B,67.24906828613689,36.60069976799575,3.3624534143068443,0.5749224475369055,B,491.8975410000712,Correct,sub_010_day_17_data.csv,1,300,149.0,Training at home,,,,,,,,,,,,,
10,17,3730,B,34.84515614972726,13.434659451903867,1.7422578074863628,0.2110311371879093,B,648.6652499997945,Correct,sub_010_day_17_data.csv,1,300,149.0,Training at home,,,,,,,,,,,,,
10,17,3731,A,63.29537166281871,74.77762883477361,3.164768583140935,1.1746042470009452,B,638.0518749997464,Incorrect,sub_010_day_17_data.csv,0,300,149.0,Training at home,,,,,,,,,,,,,
10,17,3732,A,55.66071711238214,66.47474265543345,2.7830358556191066,1.044182815877909,B,712.454500000149,Incorrect,sub_010_day_17_data.csv,0,300,149.0,Training at home,,,,,,,,,,,,,
10,17,3733,B,44.41235973372915,31.953126310577257,2.2206179866864573,0.5019185343826811,B,618.66262500007,Correct,sub_010_day_17_data.csv,1,300,149.0,Training at home,,,,,,,,,,,,,
10,17,3734,B,75.59318970082387,60.968034880835546,3.7796594850411935,0.957683652427196,B,452.05829199994696,Correct,sub_010_day_17_data.csv,1,300,149.0,Training at home,,,,,,,,,,,,,
10,17,3735,A,33.44734964067049,41.652518892405936,1.6723674820335246,0.6542762367794628,A,638.3330409998962,Correct,sub_010_day_17_data.csv,1,300,149.0,Training at home,,,,,,,,,,,,,
10,17,3736,B,44.28791540645621,17.865520966039572,2.21439577032281,0.2806309470973216,B,483.6475829997653,Correct,sub_010_day_17_data.csv,1,300,149.0,Training at home,,,,,,,,,,,,,
10,17,3737,B,38.402160963244974,27.26499474245821,1.9201080481622488,0.4282775359153552,B,499.8452919999181,Correct,sub_010_day_17_data.csv,1,300,149.0,Training at home,,,,,,,,,,,,,
10,17,3738,A,30.0740794485505,42.10063641154082,1.503703972427525,0.661315250309758,A,734.6872909997728,Correct,sub_010_day_17_data.csv,1,300,149.0,Training at home,,,,,,,,,,,,,
10,17,3739,B,76.54606641291079,65.61287012352673,3.827303320645539,1.030644553805064,B,772.913625000001,Correct,sub_010_day_17_data.csv,1,300,149.0,Training at home,,,,,,,,,,,,,
10,17,3740,A,61.11412960987494,74.56009405356446,3.0557064804937464,1.1711872186482106,B,1847.3939159998736,Incorrect,sub_010_day_17_data.csv,0,300,149.0,Training at home,,,,,,,,,,,,,
10,17,3741,A,50.05766781443419,70.02368671738364,2.5028833907217094,1.0999294988430282,A,830.5157079998935,Correct,sub_010_day_17_data.csv,1,300,149.0,Training at home,,,,,,,,,,,,,
10,17,3742,A,30.084773078922083,39.411628747003945,1.504238653946104,0.6190764166879794,A,525.2540419996876,Correct,sub_010_day_17_data.csv,1,300,149.0,Training at home,,,,,,,,,,,,,
10,17,3743,B,56.59344678553134,34.97336313518437,2.8296723392765673,0.5493603034841166,B,741.9792499999858,Correct,sub_010_day_17_data.csv,1,300,149.0,Training at home,,,,,,,,,,,,,
10,17,3744,A,21.74045960795539,41.49858011805249,1.0870229803977696,0.6518581721664056,A,731.992375000118,Correct,sub_010_day_17_data.csv,1,300,149.0,Training at home,,,,,,,,,,,,,
10,17,3745,B,37.42544268481856,21.467936764516825,1.871272134240928,0.3372175621356814,B,617.9504589999851,Correct,sub_010_day_17_data.csv,1,300,149.0,Training at home,,,,,,,,,,,,,
10,17,3746,B,59.47359622094551,32.858566686293486,2.9736798110472757,0.5161411585457496,B,466.07475000018894,Correct,sub_010_day_17_data.csv,1,300,149.0,Training at home,,,,,,,,,,,,,
10,17,3747,A,45.25653146070326,52.182718477865826,2.262826573035163,0.8196842250720381,B,523.1424160001552,Incorrect,sub_010_day_17_data.csv,0,300,149.0,Training at home,,,,,,,,,,,,,
10,17,3748,B,53.93236029484559,25.7374866606229,2.6966180147422794,0.404283495074391,B,415.7525840000744,Correct,sub_010_day_17_data.csv,1,300,149.0,Training at home,,,,,,,,,,,,,
10,17,3749,A,69.25144934250683,89.16572600947345,3.4625724671253413,1.4006119489168103,A,700.6347920000735,Correct,sub_010_day_17_data.csv,1,300,149.0,Training at home,,,,,,,,,,,,,
10,17,3750,A,47.85271157427562,63.273403378009135,2.3926355787137807,0.9938962960998854,A,3313.524333999794,Correct,sub_010_day_17_data.csv,1,300,150.0,Training at home,,,,,,,,,,,,,
10,17,3751,B,82.2699219617651,61.99508185021786,4.113496098088255,0.9738164684967116,B,522.5577090000115,Correct,sub_010_day_17_data.csv,1,300,150.0,Training at home,,,,,,,,,,,,,
10,17,3752,B,63.196782165653694,30.545079582725208,3.1598391082826844,0.4798009881020255,B,589.7422499997447,Correct,sub_010_day_17_data.csv,1,300,150.0,Training at home,,,,,,,,,,,,,
10,17,3753,B,58.64057055489235,51.37101482721506,2.932028527744618,0.8069340139431559,B,513.2484159998967,Correct,sub_010_day_17_data.csv,1,300,150.0,Training at home,,,,,,,,,,,,,
10,17,3754,B,76.54522693416678,52.00807720606457,3.8272613467083385,0.816940966389516,B,579.2062909999913,Correct,sub_010_day_17_data.csv,1,300,150.0,Training at home,,,,,,,,,,,,,
10,17,3755,B,35.93227383466201,25.31171633562506,1.7966136917331006,0.3975955104487422,B,405.4518749999261,Correct,sub_010_day_17_data.csv,1,300,150.0,Training at home,,,,,,,,,,,,,
10,17,3756,A,58.22595056968339,78.36741973809568,2.9112975284841696,1.2309925506499455,A,539.1349999999875,Correct,sub_010_day_17_data.csv,1,300,150.0,Training at home,,,,,,,,,,,,,
10,17,3757,B,39.495660654305986,28.680312893126107,1.974783032715299,0.450509301438508,B,416.28804199990554,Correct,sub_010_day_17_data.csv,1,300,150.0,Training at home,,,,,,,,,,,,,
10,17,3758,B,39.45623437995162,28.37790163376964,1.972811718997581,0.4457590364847225,B,459.8412919999646,Correct,sub_010_day_17_data.csv,1,300,150.0,Training at home,,,,,,,,,,,,,
10,17,3759,B,48.79667459027278,25.826570774328765,2.439833729513639,0.4056828250602405,B,417.06779200012534,Correct,sub_010_day_17_data.csv,1,300,150.0,Training at home,,,,,,,,,,,,,
10,17,3760,B,46.4122279408133,29.2847961542147,2.320611397040665,0.4600045022997777,B,430.6297089997315,Correct,sub_010_day_17_data.csv,1,300,150.0,Training at home,,,,,,,,,,,,,
10,17,3761,B,53.65150860533247,29.622340957687,2.6825754302666236,0.4653066436740075,B,780.7476670000142,Correct,sub_010_day_17_data.csv,1,300,150.0,Training at home,,,,,,,,,,,,,
10,17,3762,B,44.27213975566867,34.9513617767283,2.2136069877834332,0.5490147069536436,B,1135.9495829997286,Correct,sub_010_day_17_data.csv,1,300,150.0,Training at home,,,,,,,,,,,,,
10,17,3763,A,15.796631702072148,41.46738339997097,0.7898315851036074,0.6513681352647006,A,516.832499999964,Correct,sub_010_day_17_data.csv,1,300,150.0,Training at home,,,,,,,,,,,,,
10,17,3764,B,56.03850959593407,48.73785981378436,2.801925479796704,0.7655725117133708,B,445.576833999894,Correct,sub_010_day_17_data.csv,1,300,150.0,Training at home,,,,,,,,,,,,,
10,17,3765,B,66.3582310669088,49.179629959676795,3.3179115533454397,0.7725118209379255,B,586.3957080000546,Correct,sub_010_day_17_data.csv,1,300,150.0,Training at home,,,,,,,,,,,,,
10,17,3766,A,18.707306396939067,49.99145964502644,0.9353653198469531,0.7852640118152283,A,477.30200000023615,Correct,sub_010_day_17_data.csv,1,300,150.0,Training at home,,,,,,,,,,,,,
10,17,3767,A,51.437054478048466,82.1628338979512,2.5718527239024236,1.2906107768596096,A,598.8126249999368,Correct,sub_010_day_17_data.csv,1,300,150.0,Training at home,,,,,,,,,,,,,
10,17,3768,A,21.916951461006512,44.67609234073321,1.0958475730503254,0.7017704174437334,A,571.5527910001583,Correct,sub_010_day_17_data.csv,1,300,150.0,Training at home,,,,,,,,,,,,,
10,17,3769,B,46.33561210746861,31.32137844472489,2.3167806053734306,0.491995062111267,B,398.6554579996664,Correct,sub_010_day_17_data.csv,1,300,150.0,Training at home,,,,,,,,,,,,,
10,17,3770,A,39.48663163066541,69.32772708884993,1.9743315815332705,1.0889973905620451,A,638.2286670000212,Correct,sub_010_day_17_data.csv,1,300,150.0,Training at home,,,,,,,,,,,,,
10,17,3771,A,42.13276531953952,57.84013140395892,2.106638265976976,0.9085506595067282,A,480.4108339999402,Correct,sub_010_day_17_data.csv,1,300,150.0,Training at home,,,,,,,,,,,,,
10,17,3772,B,35.183379479996944,11.48400223125656,1.7591689739998473,0.180390285217622,B,423.42941600009,Correct,sub_010_day_17_data.csv,1,300,150.0,Training at home,,,,,,,,,,,,,
10,17,3773,B,50.36812839133309,22.320271380732144,2.518406419566654,0.3506060029791931,B,454.20370900001217,Correct,sub_010_day_17_data.csv,1,300,150.0,Training at home,,,,,,,,,,,,,
10,17,3774,A,26.45260665553501,43.82655468160232,1.3226303327767506,0.688425911099366,A,778.1737919999614,Correct,sub_010_day_17_data.csv,1,300,150.0,Training at home,,,,,,,,,,,,,
10,17,3775,A,27.44244994879142,41.16291946517227,1.372122497439571,0.6465856269604675,A,1239.0514160001658,Correct,sub_010_day_17_data.csv,1,300,151.0,Training at home,,,,,,,,,,,,,
10,17,3776,B,60.11955450031003,35.03374915384414,3.0059777250155015,0.550308844847122,B,485.1550829998814,Correct,sub_010_day_17_data.csv,1,300,151.0,Training at home,,,,,,,,,,,,,
10,17,3777,A,62.71762046765281,78.31481735460422,3.13588102338264,1.230166274342255,A,803.2497079998393,Correct,sub_010_day_17_data.csv,1,300,151.0,Training at home,,,,,,,,,,,,,
10,17,3778,A,62.72156951739144,84.11769861858129,3.136078475869573,1.3213177200850763,A,1032.9519160000018,Correct,sub_010_day_17_data.csv,1,300,151.0,Training at home,,,,,,,,,,,,,
10,17,3779,B,41.47248102204781,18.084936854300302,2.0736240511023905,0.2840775238105257,B,1966.679749999912,Correct,sub_010_day_17_data.csv,1,300,151.0,Training at home,,,,,,,,,,,,,
10,17,3780,B,72.82504079453793,63.26939129495443,3.641252039726896,0.9938332744466344,B,578.3163749997584,Correct,sub_010_day_17_data.csv,1,300,151.0,Training at home,,,,,,,,,,,,,
10,17,3781,A,59.961607844834674,81.62135111289251,2.998080392241734,1.282105185161681,A,534.824374999971,Correct,sub_010_day_17_data.csv,1,300,151.0,Training at home,,,,,,,,,,,,,
10,17,3782,A,28.18713313530307,53.986387966642134,1.4093566567651536,0.8480161991492569,A,504.5647919996554,Correct,sub_010_day_17_data.csv,1,300,151.0,Training at home,,,,,,,,,,,,,
10,17,3783,B,32.353093454857344,15.565640975331709,1.6176546727428671,0.2445045166825917,A,503.4675830002016,Incorrect,sub_010_day_17_data.csv,0,300,151.0,Training at home,,,,,,,,,,,,,
10,17,3784,B,42.586796644956266,27.131238169476397,2.1293398322478136,0.4261764925801101,B,578.8591669997913,Correct,sub_010_day_17_data.csv,1,300,151.0,Training at home,,,,,,,,,,,,,
10,17,3785,A,38.25629765300651,69.35941248672792,1.9128148826503255,1.089495103628043,A,515.4173330001868,Correct,sub_010_day_17_data.csv,1,300,151.0,Training at home,,,,,,,,,,,,,
10,17,3786,A,31.12953737706205,50.07734848788439,1.5564768688531023,0.7866131506039675,A,1666.768458000206,Correct,sub_010_day_17_data.csv,1,300,151.0,Training at home,,,,,,,,,,,,,
10,17,3787,B,43.39455992721473,24.112745003962512,2.1697279963607365,0.378762112811663,B,600.805125000079,Correct,sub_010_day_17_data.csv,1,300,151.0,Training at home,,,,,,,,,,,,,
10,17,3788,B,55.61337992087099,38.920299170645386,2.7806689960435493,0.6113586297500823,B,604.390125000009,Correct,sub_010_day_17_data.csv,1,300,151.0,Training at home,,,,,,,,,,,,,
10,17,3789,A,36.43280081659942,62.79638395397786,1.8216400408299709,0.986403292509104,A,602.0947500001057,Correct,sub_010_day_17_data.csv,1,300,151.0,Training at home,,,,,,,,,,,,,
10,17,3790,A,66.6545235534738,81.57958093670901,3.3327261776736896,1.2814490607684947,A,482.17529099974854,Correct,sub_010_day_17_data.csv,1,300,151.0,Training at home,,,,,,,,,,,,,
10,17,3791,B,55.383641429691615,28.625184030325016,2.7691820714845807,0.4496433392866246,B,586.0654590001104,Correct,sub_010_day_17_data.csv,1,300,151.0,Training at home,,,,,,,,,,,,,
10,17,3792,B,70.93066982868069,56.01765652936896,3.546533491434035,0.8799232911199092,B,693.5105829998065,Correct,sub_010_day_17_data.csv,1,300,151.0,Training at home,,,,,,,,,,,,,
10,17,3793,A,16.37316757509596,34.06446006172401,0.818658378754798,0.5350832873920753,A,454.02870799989614,Correct,sub_010_day_17_data.csv,1,300,151.0,Training at home,,,,,,,,,,,,,
10,17,3794,B,45.699370981669915,20.958465549172487,2.2849685490834957,0.3292148069989752,B,483.8116670002819,Correct,sub_010_day_17_data.csv,1,300,151.0,Training at home,,,,,,,,,,,,,
10,17,3795,B,53.30910648524454,31.498064501862466,2.6654553242622274,0.4947704402067429,B,480.9157090003282,Correct,sub_010_day_17_data.csv,1,300,151.0,Training at home,,,,,,,,,,,,,
10,17,3796,A,17.816491584586313,48.53838209274228,0.8908245792293157,0.7624391229984676,A,636.4508329997989,Correct,sub_010_day_17_data.csv,1,300,151.0,Training at home,,,,,,,,,,,,,
10,17,3797,A,37.23413712900847,49.08800838504084,1.861706856450423,0.7710726326089923,A,819.0052080003625,Correct,sub_010_day_17_data.csv,1,300,151.0,Training at home,,,,,,,,,,,,,
10,17,3798,A,17.354857786390905,45.77221978149086,0.8677428893195454,0.7189883470201456,A,476.7540419998113,Correct,sub_010_day_17_data.csv,1,300,151.0,Training at home,,,,,,,,,,,,,
10,17,3799,B,73.7166249888815,59.326075606969574,3.685831249444075,0.9318918164658412,B,550.164040999789,Correct,sub_010_day_17_data.csv,1,300,151.0,Training at home,,,,,,,,,,,,,
10,17,3800,B,70.18676130184564,38.30792439211257,3.509338065092282,0.6017394692226704,B,695.4777499995544,Correct,sub_010_day_17_data.csv,1,300,152.0,Training at home,,,,,,,,,,,,,
10,17,3801,B,47.40545741464902,31.24790903937501,2.370272870732451,0.490841007390713,B,602.362125000127,Correct,sub_010_day_17_data.csv,1,300,152.0,Training at home,,,,,,,,,,,,,
10,17,3802,A,62.832859761930955,84.57981778195338,3.1416429880965477,1.3285766709287403,A,522.6655420001407,Correct,sub_010_day_17_data.csv,1,300,152.0,Training at home,,,,,,,,,,,,,
10,17,3803,B,77.07153816489986,46.03478947109198,3.853576908244993,0.7231127820596767,B,721.0040840000147,Correct,sub_010_day_17_data.csv,1,300,152.0,Training at home,,,,,,,,,,,,,
10,17,3804,B,74.28231252203344,55.74769745280021,3.714115626101671,0.8756827838613179,B,996.3047910000568,Correct,sub_010_day_17_data.csv,1,300,152.0,Training at home,,,,,,,,,,,,,
10,17,3805,B,41.58641008394823,21.84207672697525,2.079320504197411,0.3430945389230502,B,636.0471670000152,Correct,sub_010_day_17_data.csv,1,300,152.0,Training at home,,,,,,,,,,,,,
10,17,3806,B,72.83572900808954,52.11738016758341,3.641786450404477,0.8186578932941321,B,730.6251670001984,Correct,sub_010_day_17_data.csv,1,300,152.0,Training at home,,,,,,,,,,,,,
10,17,3807,A,24.37196857522912,45.49007590224778,1.218598428761456,0.7145564413287187,A,636.2184170002365,Correct,sub_010_day_17_data.csv,1,300,152.0,Training at home,,,,,,,,,,,,,
10,17,3808,A,51.9833911289528,73.80978983918828,2.5991695564476403,1.1594014676090023,A,925.6781670001146,Correct,sub_010_day_17_data.csv,1,300,152.0,Training at home,,,,,,,,,,,,,
10,17,3809,A,33.53590687103197,59.1002216306162,1.6767953435515983,0.928344110501362,A,482.58445800001937,Correct,sub_010_day_17_data.csv,1,300,152.0,Training at home,,,,,,,,,,,,,
10,17,3810,B,72.70487940170504,44.4355121676528,3.635243970085252,0.6979913929219895,B,534.1968750003616,Correct,sub_010_day_17_data.csv,1,300,152.0,Training at home,,,,,,,,,,,,,
10,17,3811,B,38.276942841798146,21.019541069496533,1.9138471420899072,0.3301741790287962,B,635.4673750001893,Correct,sub_010_day_17_data.csv,1,300,152.0,Training at home,,,,,,,,,,,,,
10,17,3812,B,68.27818913229885,38.41954704207585,3.4139094566149426,0.6034928337081646,B,555.6182909999734,Correct,sub_010_day_17_data.csv,1,300,152.0,Training at home,,,,,,,,,,,,,
10,17,3813,B,44.02047616110728,18.495498700617517,2.201023808055364,0.2905266142116977,B,467.5851249999141,Correct,sub_010_day_17_data.csv,1,300,152.0,Training at home,,,,,,,,,,,,,
10,17,3814,B,80.2832723875593,51.38256015818672,4.014163619377965,0.807115367577975,B,508.1044159996963,Correct,sub_010_day_17_data.csv,1,300,152.0,Training at home,,,,,,,,,,,,,
10,17,3815,B,48.70517134751017,36.00914521055741,2.4352585673755085,0.5656303302776762,B,456.8890420000571,Correct,sub_010_day_17_data.csv,1,300,152.0,Training at home,,,,,,,,,,,,,
10,17,3816,A,40.85680661680935,72.61501597777595,2.042840330840468,1.140634003680432,A,592.8508750002948,Correct,sub_010_day_17_data.csv,1,300,152.0,Training at home,,,,,,,,,,,,,
10,17,3817,B,44.88494559938077,23.636952114816932,2.2442472799690387,0.3712883755858129,B,431.2656659999448,Correct,sub_010_day_17_data.csv,1,300,152.0,Training at home,,,,,,,,,,,,,
10,17,3818,B,56.45156458895578,39.75611456335014,2.8225782294477892,0.6244875872374749,B,578.3982079997259,Correct,sub_010_day_17_data.csv,1,300,152.0,Training at home,,,,,,,,,,,,,
10,17,3819,A,40.22489142692316,53.65046727037841,2.011244571346158,0.8427395691914022,B,552.7243749997979,Incorrect,sub_010_day_17_data.csv,0,300,152.0,Training at home,,,,,,,,,,,,,
10,17,3820,A,29.421704064076582,41.03698151713404,1.4710852032038293,0.6446073982986421,B,884.1576670001814,Incorrect,sub_010_day_17_data.csv,0,300,152.0,Training at home,,,,,,,,,,,,,
10,17,3821,A,36.31706197704824,60.729462697947056,1.815853098852412,0.9539361693416292,A,692.5147500001003,Correct,sub_010_day_17_data.csv,1,300,152.0,Training at home,,,,,,,,,,,,,
10,17,3822,A,12.394399178392856,36.54542909235267,0.6197199589196428,0.5740542577941092,A,619.7547080000732,Correct,sub_010_day_17_data.csv,1,300,152.0,Training at home,,,,,,,,,,,,,
10,17,3823,A,27.435374572380137,60.33214894379191,1.3717687286190068,0.9476951794855094,A,606.719165999948,Correct,sub_010_day_17_data.csv,1,300,152.0,Training at home,,,,,,,,,,,,,
10,17,3824,B,79.24246167486314,52.21359181090986,3.962123083743157,0.8201691822534529,B,757.2927500000333,Correct,sub_010_day_17_data.csv,1,300,152.0,Training at home,,,,,,,,,,,,,
10,17,3825,B,71.95346811965884,40.94776547761305,3.597673405982942,0.6432059960269346,B,429.78754200021285,Correct,sub_010_day_17_data.csv,1,300,153.0,Training at home,,,,,,,,,,,,,
10,17,3826,A,48.73437794596835,56.592268098140465,2.4367188972984173,0.8889492685355105,B,537.8467499999715,Incorrect,sub_010_day_17_data.csv,0,300,153.0,Training at home,,,,,,,,,,,,,
10,17,3827,B,56.90988550920371,39.05639577448461,2.8454942754601853,0.6134964302040815,B,610.1005830000759,Correct,sub_010_day_17_data.csv,1,300,153.0,Training at home,,,,,,,,,,,,,
10,17,3828,B,64.4769818218119,35.74618089718548,3.2238490910905955,0.5614996965024486,B,462.4017090000052,Correct,sub_010_day_17_data.csv,1,300,153.0,Training at home,,,,,,,,,,,,,
10,17,3829,B,70.33699540024317,43.8062615084764,3.516849770012158,0.688107146681314,B,466.9312089999949,Correct,sub_010_day_17_data.csv,1,300,153.0,Training at home,,,,,,,,,,,,,
10,17,3830,B,79.70122177375173,64.38243660998832,3.9850610886875866,1.0113169493707492,B,573.1043750001845,Correct,sub_010_day_17_data.csv,1,300,153.0,Training at home,,,,,,,,,,,,,
10,17,3831,A,25.685763536984588,36.90851583564964,1.2842881768492294,0.5797576110208972,A,478.4267079999154,Correct,sub_010_day_17_data.csv,1,300,153.0,Training at home,,,,,,,,,,,,,
10,17,3832,B,36.793652047013055,15.000177890695298,1.8396826023506525,0.2356222433197419,B,420.70883399992454,Correct,sub_010_day_17_data.csv,1,300,153.0,Training at home,,,,,,,,,,,,,
10,17,3833,B,40.567806053436584,16.619355261037434,2.0283903026718293,0.2610562219773704,B,476.64033299997755,Correct,sub_010_day_17_data.csv,1,300,153.0,Training at home,,,,,,,,,,,,,
10,17,3834,B,58.37175440533642,40.16224635523603,2.9185877202668213,0.6308670905063647,B,606.8632080000498,Correct,sub_010_day_17_data.csv,1,300,153.0,Training at home,,,,,,,,,,,,,
10,17,3835,A,53.34719789760646,61.49261884631427,2.667359894880323,0.965923798087891,A,639.17041600007,Correct,sub_010_day_17_data.csv,1,300,153.0,Training at home,,,,,,,,,,,,,
10,17,3836,B,38.553923586384315,14.027376216460835,1.927696179319216,0.2203415103538678,B,465.3244999999515,Correct,sub_010_day_17_data.csv,1,300,153.0,Training at home,,,,,,,,,,,,,
10,17,3837,A,50.68149012104997,58.38717350436471,2.5340745060524985,0.9171435767259238,A,714.6945839999717,Correct,sub_010_day_17_data.csv,1,300,153.0,Training at home,,,,,,,,,,,,,
10,17,3838,B,48.91985852532993,41.14919541123037,2.4459929262664963,0.6463700500252608,A,595.485125000323,Incorrect,sub_010_day_17_data.csv,0,300,153.0,Training at home,,,,,,,,,,,,,
10,17,3839,B,52.98551785160049,33.359012095429726,2.6492758925800244,0.5240021366500754,B,425.1505829997768,Correct,sub_010_day_17_data.csv,1,300,153.0,Training at home,,,,,,,,,,,,,
10,17,3840,A,28.152011393898217,60.71689790816622,1.4076005696949108,0.9537388020852824,A,498.8482080002541,Correct,sub_010_day_17_data.csv,1,300,153.0,Training at home,,,,,,,,,,,,,
10,17,3841,B,69.9677721815302,46.98918784527895,3.49838860907651,0.7381044366643956,B,1050.2976249999847,Correct,sub_010_day_17_data.csv,1,300,153.0,Training at home,,,,,,,,,,,,,
10,17,3842,A,12.876565522727528,36.141279163451614,0.6438282761363765,0.5677058855561873,A,662.6962920004189,Correct,sub_010_day_17_data.csv,1,300,153.0,Training at home,,,,,,,,,,,,,
10,17,3843,B,60.53810275452213,42.674620970498786,3.0269051377261063,0.6703313786782396,A,748.1575420001718,Incorrect,sub_010_day_17_data.csv,0,300,153.0,Training at home,,,,,,,,,,,,,
10,17,3844,B,57.00947858831051,24.59238572298174,2.850473929415525,0.3862962916078297,B,770.3218330002528,Correct,sub_010_day_17_data.csv,1,300,153.0,Training at home,,,,,,,,,,,,,
10,17,3845,B,44.65227339402979,32.37744284649892,2.2326136697014896,0.5085836829429221,B,581.6028750000442,Correct,sub_010_day_17_data.csv,1,300,153.0,Training at home,,,,,,,,,,,,,
10,17,3846,A,27.335529331066187,44.209978655084385,1.3667764665533093,0.6944487207908733,A,1483.7153329999635,Correct,sub_010_day_17_data.csv,1,300,153.0,Training at home,,,,,,,,,,,,,
10,17,3847,A,53.2384321368387,82.74890324890508,2.6619216068419354,1.2998167326968637,A,1106.933165999635,Correct,sub_010_day_17_data.csv,1,300,153.0,Training at home,,,,,,,,,,,,,
10,17,3848,A,49.076835280759944,78.26476658953862,2.4538417640379975,1.2293800787630722,A,434.7672919998331,Correct,sub_010_day_17_data.csv,1,300,153.0,Training at home,,,,,,,,,,,,,
10,17,3849,A,40.64537338629229,58.32886111727101,2.0322686693146146,0.9162276078913896,A,619.6650830002,Correct,sub_010_day_17_data.csv,1,300,153.0,Training at home,,,,,,,,,,,,,
10,17,3850,A,26.224271062769255,54.02459388751227,1.3112135531384626,0.8486163363509029,A,498.1410840000535,Correct,sub_010_day_17_data.csv,1,300,154.0,Training at home,,,,,,,,,,,,,
10,17,3851,B,85.70894311995107,68.87917324986455,4.285447155997554,1.0819515233355652,B,665.728666999712,Correct,sub_010_day_17_data.csv,1,300,154.0,Training at home,,,,,,,,,,,,,
10,17,3852,A,61.39962408772336,87.14260158093644,3.0699812043861683,1.3688327847068609,A,721.9367499997134,Correct,sub_010_day_17_data.csv,1,300,154.0,Training at home,,,,,,,,,,,,,
10,17,3853,A,52.562409882020305,76.4828129665209,2.6281204941010152,1.201389216707521,A,1120.4094999998233,Correct,sub_010_day_17_data.csv,1,300,154.0,Training at home,,,,,,,,,,,,,
10,17,3854,B,37.690828471848874,17.257483860994668,1.884541423592444,0.2710799225857263,B,783.5865830002149,Correct,sub_010_day_17_data.csv,1,300,154.0,Training at home,,,,,,,,,,,,,
10,17,3855,A,61.26596985781688,84.96877305751636,3.0632984928908447,1.334686366110159,A,556.989958000031,Correct,sub_010_day_17_data.csv,1,300,154.0,Training at home,,,,,,,,,,,,,
10,17,3856,B,62.09254742302254,48.14850917361215,3.104627371151127,0.7563150135056033,B,470.97366600019086,Correct,sub_010_day_17_data.csv,1,300,154.0,Training at home,,,,,,,,,,,,,
10,17,3857,B,81.12665395333829,61.30916501753129,4.056332697666915,0.963042112084003,A,1037.6854170003753,Incorrect,sub_010_day_17_data.csv,0,300,154.0,Training at home,,,,,,,,,,,,,
10,17,3858,B,79.50534077370872,52.20697332172987,3.975267038685436,0.8200652192685245,B,520.6037499997365,Correct,sub_010_day_17_data.csv,1,300,154.0,Training at home,,,,,,,,,,,,,
10,17,3859,A,27.935244491368337,44.178025041377595,1.3967622245684168,0.6939467946004888,A,523.1108339999082,Correct,sub_010_day_17_data.csv,1,300,154.0,Training at home,,,,,,,,,,,,,
10,17,3860,A,19.2534949825616,47.62305955691332,0.9626747491280798,0.7480612702273403,A,577.7209170000788,Correct,sub_010_day_17_data.csv,1,300,154.0,Training at home,,,,,,,,,,,,,
10,17,3861,A,27.6829757281216,58.22062556139531,1.3841487864060795,0.9145274477554082,A,908.11420800037,Correct,sub_010_day_17_data.csv,1,300,154.0,Training at home,,,,,,,,,,,,,
10,17,3862,A,30.403470867479264,46.501824743816215,1.5201735433739632,0.7304489549684656,A,579.3827500001498,Correct,sub_010_day_17_data.csv,1,300,154.0,Training at home,,,,,,,,,,,,,
10,17,3863,B,78.91020349974768,65.50924240950911,3.945510174987384,1.0290167734797335,B,751.6061250003077,Correct,sub_010_day_17_data.csv,1,300,154.0,Training at home,,,,,,,,,,,,,
10,17,3864,A,38.313976097668274,52.08441743754299,1.9156988048834136,0.818140115941446,A,465.6717500001832,Correct,sub_010_day_17_data.csv,1,300,154.0,Training at home,,,,,,,,,,,,,
10,17,3865,B,78.34104477462496,47.992921029559035,3.917052238731248,0.7538710406538888,B,886.5903340001751,Correct,sub_010_day_17_data.csv,1,300,154.0,Training at home,,,,,,,,,,,,,
10,17,3866,A,39.32441313457146,54.05710389963911,1.9662206567285727,0.849127002427232,A,1040.2277500002128,Correct,sub_010_day_17_data.csv,1,300,154.0,Training at home,,,,,,,,,,,,,
10,17,3867,B,46.391892975713766,25.340460337199932,2.319594648785688,0.3980470201696541,B,609.820000000127,Correct,sub_010_day_17_data.csv,1,300,154.0,Training at home,,,,,,,,,,,,,
10,17,3868,B,65.43494512309621,50.36817491106392,3.2717472561548107,0.7911814413766205,B,1307.8001250000852,Correct,sub_010_day_17_data.csv,1,300,154.0,Training at home,,,,,,,,,,,,,
10,17,3869,B,37.816585892151174,11.506545901930291,1.8908292946075589,0.1807444003684897,B,624.1927080000096,Correct,sub_010_day_17_data.csv,1,300,154.0,Training at home,,,,,,,,,,,,,
10,17,3870,A,31.37674638686638,48.90888948523543,1.5688373193433192,0.7682590395102535,A,886.6566249998868,Correct,sub_010_day_17_data.csv,1,300,154.0,Training at home,,,,,,,,,,,,,
10,17,3871,A,16.376777165563897,34.48813201458934,0.8188388582781948,0.5417383108653442,A,1149.5167079997373,Correct,sub_010_day_17_data.csv,1,300,154.0,Training at home,,,,,,,,,,,,,
10,17,3872,B,45.38832903011274,21.42255527768437,2.269416451505637,0.3365047114074723,B,1712.1956250002768,Correct,sub_010_day_17_data.csv,1,300,154.0,Training at home,,,,,,,,,,,,,
10,17,3873,A,56.509011876772746,76.05306375412744,2.8254505938386374,1.1946387318648148,A,736.7812910001703,Correct,sub_010_day_17_data.csv,1,300,154.0,Training at home,,,,,,,,,,,,,
10,17,3874,B,37.05935564504546,26.8396452420076,1.8529677822522728,0.4215961615862366,A,671.931541000049,Incorrect,sub_010_day_17_data.csv,0,300,154.0,Training at home,,,,,,,,,,,,,
10,17,3875,A,35.71085261449734,46.55416554087097,1.7855426307248672,0.7312711222860169,B,600.8494590000737,Incorrect,sub_010_day_17_data.csv,0,300,155.0,Training at home,,,,,,,,,,,,,
10,17,3876,A,18.408974589691944,46.625832944219,0.9204487294845972,0.7323968712253168,A,530.0817080001252,Correct,sub_010_day_17_data.csv,1,300,155.0,Training at home,,,,,,,,,,,,,
10,17,3877,A,27.611213175835708,43.90948075417073,1.3805606587917854,0.6897285108012259,A,530.7353749999493,Correct,sub_010_day_17_data.csv,1,300,155.0,Training at home,,,,,,,,,,,,,
10,17,3878,A,25.490786592034407,56.62062565142878,1.2745393296017204,0.8893947079409323,A,904.8421249999592,Correct,sub_010_day_17_data.csv,1,300,155.0,Training at home,,,,,,,,,,,,,
10,17,3879,B,50.32674470414042,42.60294242687003,2.516337235207021,0.669205454747819,B,549.6687909999309,Correct,sub_010_day_17_data.csv,1,300,155.0,Training at home,,,,,,,,,,,,,
10,17,3880,A,28.34699656536504,59.508735052370845,1.417349828268252,0.9347610243247484,A,648.6792919999971,Correct,sub_010_day_17_data.csv,1,300,155.0,Training at home,,,,,,,,,,,,,
10,17,3881,A,68.62267050304438,87.71684384068482,3.431133525152219,1.3778529610298926,A,656.3093750000917,Correct,sub_010_day_17_data.csv,1,300,155.0,Training at home,,,,,,,,,,,,,
10,17,3882,A,52.298008587791855,62.62050995215385,2.6149004293895928,0.9836406701486652,B,628.8812500001768,Incorrect,sub_010_day_17_data.csv,0,300,155.0,Training at home,,,,,,,,,,,,,
10,17,3883,A,32.3825540505033,64.92042467922752,1.6191277025251651,1.0197676462009535,A,476.38991600024383,Correct,sub_010_day_17_data.csv,1,300,155.0,Training at home,,,,,,,,,,,,,
10,17,3884,A,61.38072599822677,72.06747738698871,3.0690362999113385,1.1320332876085617,A,928.9814160001696,Correct,sub_010_day_17_data.csv,1,300,155.0,Training at home,,,,,,,,,,,,,
10,17,3885,B,63.58436550208307,44.60268640945364,3.1792182751041533,0.7006173597715443,B,480.9726660000706,Correct,sub_010_day_17_data.csv,1,300,155.0,Training at home,,,,,,,,,,,,,
10,17,3886,B,42.988513572492735,20.8346992355119,2.149425678624637,0.3272706902901853,B,440.0266669999837,Correct,sub_010_day_17_data.csv,1,300,155.0,Training at home,,,,,,,,,,,,,
10,17,3887,B,42.765010745799216,32.395164169465026,2.1382505372899607,0.5088620488331331,B,1073.2276250000723,Correct,sub_010_day_17_data.csv,1,300,155.0,Training at home,,,,,,,,,,,,,
10,17,3888,A,26.656429243962904,47.51354323876035,1.3328214621981451,0.7463409919245526,A,560.7790829999431,Correct,sub_010_day_17_data.csv,1,300,155.0,Training at home,,,,,,,,,,,,,
10,17,3889,B,62.61470490103706,40.471968614640424,3.1307352450518526,0.6357321963803552,B,651.7062919997443,Correct,sub_010_day_17_data.csv,1,300,155.0,Training at home,,,,,,,,,,,,,
10,17,3890,B,84.55126222250759,57.65044677815097,4.22756311112538,0.9055711003720422,A,1111.7155840001942,Incorrect,sub_010_day_17_data.csv,0,300,155.0,Training at home,,,,,,,,,,,,,
10,17,3891,B,74.31843800936159,56.89075479441777,3.715921900468079,0.8936378865966058,B,431.6892080000798,Correct,sub_010_day_17_data.csv,1,300,155.0,Training at home,,,,,,,,,,,,,
10,17,3892,A,14.580729823469674,43.05972475009077,0.7290364911734838,0.6763805747024187,A,510.49574999979086,Correct,sub_010_day_17_data.csv,1,300,155.0,Training at home,,,,,,,,,,,,,
10,17,3893,B,81.07176705270538,54.98157761543037,4.053588352635269,0.8636486015970652,B,525.5204999998568,Correct,sub_010_day_17_data.csv,1,300,155.0,Training at home,,,,,,,,,,,,,
10,17,3894,B,72.8258716415066,61.93877720775636,3.6412935820753294,0.9729320372411114,B,472.39487500019095,Correct,sub_010_day_17_data.csv,1,300,155.0,Training at home,,,,,,,,,,,,,
10,17,3895,A,52.077772841657136,62.34591336664923,2.6038886420828566,0.9793273170700544,B,916.8127079997248,Incorrect,sub_010_day_17_data.csv,0,300,155.0,Training at home,,,,,,,,,,,,,
10,17,3896,B,64.0469245175565,40.53193214310435,3.202346225877825,0.6366741012828832,B,810.415292000016,Correct,sub_010_day_17_data.csv,1,300,155.0,Training at home,,,,,,,,,,,,,
10,17,3897,B,65.472388402082,41.8169221750608,3.2736194201041,0.6568586775045357,B,936.335124999914,Correct,sub_010_day_17_data.csv,1,300,155.0,Training at home,,,,,,,,,,,,,
10,17,3898,B,58.895345356385334,50.0738076459368,2.944767267819267,0.7865575311887172,B,443.4077079999952,Correct,sub_010_day_17_data.csv,1,300,155.0,Training at home,,,,,,,,,,,,,
10,17,3899,A,29.58136059908684,43.33499368568518,1.4790680299543422,0.6807044890315431,A,1017.098709000038,Correct,sub_010_day_17_data.csv,1,300,155.0,Training at home,,,,,,,,,,,,,
