subject,day,trial,cat,x,y,xt,yt,resp,rt,fb,f_name,acc,n_trials,block,session_type,ns_left_digit,ns_right_digit,ns_left_size,ns_right_size,ns_congruent,ns_cue,ns_correct_side,ns_resp,ns_rt,ns_fb,acc_stroop,acc_stroop_mean,resp_key
10,10,2100,A,22.08432265113105,40.22436078325416,1.1042161325565525,0.6318427816600832,A,1046.719291000045,Correct,sub_010_day_10_data.csv,1,300,84.0,Training at home,,,,,,,,,,,,,
10,10,2101,B,37.79950954872301,19.76161931285297,1.8899754774361504,0.3104147902814853,B,537.1665830025449,Correct,sub_010_day_10_data.csv,1,300,84.0,Training at home,,,,,,,,,,,,,
10,10,2102,A,45.67197731821272,62.31935141481073,2.283598865910636,0.9789100829062504,A,576.3712089974433,Correct,sub_010_day_10_data.csv,1,300,84.0,Training at home,,,,,,,,,,,,,
10,10,2103,B,80.1576477672049,67.3484641920904,4.007882388360246,1.0579072016821325,B,907.7306250037508,Correct,sub_010_day_10_data.csv,1,300,84.0,Training at home,,,,,,,,,,,,,
10,10,2104,B,33.484372873015275,14.998002715007445,1.6742186436507638,0.2355880757399358,B,725.8779169933405,Correct,sub_010_day_10_data.csv,1,300,84.0,Training at home,,,,,,,,,,,,,
10,10,2105,A,52.73118814903196,64.06684731140369,2.636559407451598,1.0063596842608242,B,1023.7059999999474,Incorrect,sub_010_day_10_data.csv,0,300,84.0,Training at home,,,,,,,,,,,,,
10,10,2106,B,87.67398089118748,69.51806860404477,4.383699044559375,1.0919872680910916,B,572.3647080012597,Correct,sub_010_day_10_data.csv,1,300,84.0,Training at home,,,,,,,,,,,,,
10,10,2107,B,77.20721858824017,62.50753982406229,3.860360929412008,0.9818661395262276,B,641.0549169959268,Correct,sub_010_day_10_data.csv,1,300,84.0,Training at home,,,,,,,,,,,,,
10,10,2108,B,62.56901859349486,35.63121037877688,3.1284509296747434,0.5596937438223892,B,846.8467500060797,Correct,sub_010_day_10_data.csv,1,300,84.0,Training at home,,,,,,,,,,,,,
10,10,2109,B,56.855531527451376,42.8747994083006,2.842776576372569,0.6734757742262659,B,485.58387499360833,Correct,sub_010_day_10_data.csv,1,300,84.0,Training at home,,,,,,,,,,,,,
10,10,2110,A,39.86586445234352,57.070594933518834,1.993293222617176,0.8964628088957082,A,493.418207996001,Correct,sub_010_day_10_data.csv,1,300,84.0,Training at home,,,,,,,,,,,,,
10,10,2111,A,31.417498805575697,58.22653965918573,1.5708749402787847,0.9146203461862632,A,612.0986250025453,Correct,sub_010_day_10_data.csv,1,300,84.0,Training at home,,,,,,,,,,,,,
10,10,2112,A,61.3478504979191,80.69385380811654,3.067392524895955,1.2675360915671383,A,618.6742909994791,Correct,sub_010_day_10_data.csv,1,300,84.0,Training at home,,,,,,,,,,,,,
10,10,2113,A,64.88903237728024,85.20127688769769,3.2444516188640127,1.3383385277343045,A,520.3106249973644,Correct,sub_010_day_10_data.csv,1,300,84.0,Training at home,,,,,,,,,,,,,
10,10,2114,B,57.426673870897346,36.0523331255522,2.8713336935448672,0.5663087244600337,A,1046.6094169969438,Incorrect,sub_010_day_10_data.csv,0,300,84.0,Training at home,,,,,,,,,,,,,
10,10,2115,B,47.72539642249006,18.02045958462629,2.386269821124503,0.2830647172268686,B,497.6730409980519,Correct,sub_010_day_10_data.csv,1,300,84.0,Training at home,,,,,,,,,,,,,
10,10,2116,A,18.743988674098414,47.206991058531614,0.9371994337049208,0.7415256815378097,A,480.1188330020522,Correct,sub_010_day_10_data.csv,1,300,84.0,Training at home,,,,,,,,,,,,,
10,10,2117,B,45.69518475460294,25.241606060343756,2.284759237730147,0.3964942208199177,B,576.7360419995384,Correct,sub_010_day_10_data.csv,1,300,84.0,Training at home,,,,,,,,,,,,,
10,10,2118,A,56.063334285254825,81.65064826485994,2.8031667142627414,1.2825653837486408,A,485.5130419964553,Correct,sub_010_day_10_data.csv,1,300,84.0,Training at home,,,,,,,,,,,,,
10,10,2119,B,68.74143877259459,51.305358346063514,3.43707193862973,0.8059026843489244,B,956.7032080012724,Correct,sub_010_day_10_data.csv,1,300,84.0,Training at home,,,,,,,,,,,,,
10,10,2120,B,80.9253355772284,54.42812899702898,4.04626677886142,0.8549550510285191,B,738.8995419969433,Correct,sub_010_day_10_data.csv,1,300,84.0,Training at home,,,,,,,,,,,,,
10,10,2121,B,65.9653792938111,35.979698432194795,3.298268964690555,0.5651677813647967,B,450.0502079972648,Correct,sub_010_day_10_data.csv,1,300,84.0,Training at home,,,,,,,,,,,,,
10,10,2122,A,25.485775220674476,38.95287066388488,1.2742887610337237,0.6118702615694706,A,482.4688340013381,Correct,sub_010_day_10_data.csv,1,300,84.0,Training at home,,,,,,,,,,,,,
10,10,2123,A,29.809273783732863,63.02456943178039,1.4904636891866432,0.9899876216127056,A,464.4725420002942,Correct,sub_010_day_10_data.csv,1,300,84.0,Training at home,,,,,,,,,,,,,
10,10,2124,B,42.769709093942915,18.008285055946445,2.1384854546971455,0.282873480177561,B,527.2676659951685,Correct,sub_010_day_10_data.csv,1,300,84.0,Training at home,,,,,,,,,,,,,
10,10,2125,B,54.81028294888699,43.94351628475164,2.7405141474443497,0.6902631396653959,B,604.5476250001229,Correct,sub_010_day_10_data.csv,1,300,85.0,Training at home,,,,,,,,,,,,,
10,10,2126,A,18.674168321156102,31.903257234406393,0.9337084160578052,0.5011351927659828,A,538.9622500006226,Correct,sub_010_day_10_data.csv,1,300,85.0,Training at home,,,,,,,,,,,,,
10,10,2127,B,41.83482689993348,26.586572284556787,2.091741344996674,0.417620900866488,B,660.1654590049293,Correct,sub_010_day_10_data.csv,1,300,85.0,Training at home,,,,,,,,,,,,,
10,10,2128,A,24.210813547212855,48.056680981110205,1.2105406773606426,0.7548725796308208,A,427.4050410022028,Correct,sub_010_day_10_data.csv,1,300,85.0,Training at home,,,,,,,,,,,,,
10,10,2129,B,76.59952431296465,58.11731739530554,3.829976215648232,0.9129046868771908,B,654.7730840029544,Correct,sub_010_day_10_data.csv,1,300,85.0,Training at home,,,,,,,,,,,,,
10,10,2130,A,22.203983761338833,38.23955967089394,1.1101991880669415,0.6006655986929446,A,473.44395800610073,Correct,sub_010_day_10_data.csv,1,300,85.0,Training at home,,,,,,,,,,,,,
10,10,2131,B,76.35282110456707,44.065041177138106,3.8176410552283535,0.692172048211144,B,587.3084999984712,Correct,sub_010_day_10_data.csv,1,300,85.0,Training at home,,,,,,,,,,,,,
10,10,2132,B,71.7072167337912,58.56356162483098,3.58536083668956,0.9199142748431108,B,609.7816250039614,Correct,sub_010_day_10_data.csv,1,300,85.0,Training at home,,,,,,,,,,,,,
10,10,2133,B,42.50109612515799,27.092105938917385,2.1250548062578996,0.4255618049398963,B,533.2475420000264,Correct,sub_010_day_10_data.csv,1,300,85.0,Training at home,,,,,,,,,,,,,
10,10,2134,A,15.928202199746464,36.40346320031136,0.7964101099873233,0.5718242627766229,A,506.0901249962626,Correct,sub_010_day_10_data.csv,1,300,85.0,Training at home,,,,,,,,,,,,,
10,10,2135,A,66.45638265424188,79.31031210036657,3.322819132712094,1.2458034692421267,A,535.237624993897,Correct,sub_010_day_10_data.csv,1,300,85.0,Training at home,,,,,,,,,,,,,
10,10,2136,B,43.069573182730224,33.574457708432625,2.153478659136511,0.5273863484253657,B,532.878707999771,Correct,sub_010_day_10_data.csv,1,300,85.0,Training at home,,,,,,,,,,,,,
10,10,2137,A,54.013422799757365,64.70276419655464,2.700671139987868,1.0163486433342437,A,528.8861250010086,Correct,sub_010_day_10_data.csv,1,300,85.0,Training at home,,,,,,,,,,,,,
10,10,2138,A,57.70979057644913,82.84456552787846,2.8854895288224567,1.301319392261106,B,547.7600000012899,Incorrect,sub_010_day_10_data.csv,0,300,85.0,Training at home,,,,,,,,,,,,,
10,10,2139,B,33.10589497395807,14.960220682284763,1.6552947486979035,0.2349945969577395,B,506.4055000038934,Correct,sub_010_day_10_data.csv,1,300,85.0,Training at home,,,,,,,,,,,,,
10,10,2140,B,56.44038520976308,41.800476802263574,2.8220192604881538,0.6566003541927091,B,518.4028329967987,Correct,sub_010_day_10_data.csv,1,300,85.0,Training at home,,,,,,,,,,,,,
10,10,2141,B,53.02504473903351,40.79033463748674,2.6512522369516756,0.6407330781729881,B,582.8645420042449,Correct,sub_010_day_10_data.csv,1,300,85.0,Training at home,,,,,,,,,,,,,
10,10,2142,B,59.843437374092886,43.786264243623194,2.992171868704645,0.6877930303795404,B,446.9535000025644,Correct,sub_010_day_10_data.csv,1,300,85.0,Training at home,,,,,,,,,,,,,
10,10,2143,A,34.93802308987338,61.13145658119036,1.7469011544936692,0.9602506744935552,A,512.1422910015099,Correct,sub_010_day_10_data.csv,1,300,85.0,Training at home,,,,,,,,,,,,,
10,10,2144,A,23.439240206224103,51.41549928485986,1.1719620103112052,0.807632774169835,A,525.0091249981779,Correct,sub_010_day_10_data.csv,1,300,85.0,Training at home,,,,,,,,,,,,,
10,10,2145,B,66.17094999555003,43.452123793088546,3.3085474997775015,0.6825443644562061,B,602.6894169990555,Correct,sub_010_day_10_data.csv,1,300,85.0,Training at home,,,,,,,,,,,,,
10,10,2146,A,40.754203441642424,57.977414995333085,2.037710172082121,0.9107071051173258,A,518.4201250012848,Correct,sub_010_day_10_data.csv,1,300,85.0,Training at home,,,,,,,,,,,,,
10,10,2147,A,50.87327765594785,61.01432252166522,2.5436638827973925,0.9584107369891086,A,558.4361250002985,Correct,sub_010_day_10_data.csv,1,300,85.0,Training at home,,,,,,,,,,,,,
10,10,2148,B,37.531500321067085,19.447950928677898,1.8765750160533543,0.3054876988245463,B,556.2927079954534,Correct,sub_010_day_10_data.csv,1,300,85.0,Training at home,,,,,,,,,,,,,
10,10,2149,B,48.22530935238642,31.63798235711395,2.4112654676193213,0.4969682647375634,B,513.9247500046622,Correct,sub_010_day_10_data.csv,1,300,85.0,Training at home,,,,,,,,,,,,,
10,10,2150,A,62.35316006528571,76.87020760361946,3.1176580032642853,1.2074743974372657,A,530.4443339991849,Correct,sub_010_day_10_data.csv,1,300,86.0,Training at home,,,,,,,,,,,,,
10,10,2151,A,21.603579380421714,44.531312570438416,1.0801789690210857,0.6994962221300007,A,462.1646250016056,Correct,sub_010_day_10_data.csv,1,300,86.0,Training at home,,,,,,,,,,,,,
10,10,2152,A,42.003992500531155,55.67185045425533,2.1001996250265575,0.8744913819941906,A,934.15954199736,Correct,sub_010_day_10_data.csv,1,300,86.0,Training at home,,,,,,,,,,,,,
10,10,2153,B,54.10782183084211,36.53403896931149,2.7053910915421056,0.573875342159761,B,487.6343750001979,Correct,sub_010_day_10_data.csv,1,300,86.0,Training at home,,,,,,,,,,,,,
10,10,2154,B,54.6693626730735,22.589779091051607,2.733468133653675,0.3548394201933202,B,694.4058329972904,Correct,sub_010_day_10_data.csv,1,300,86.0,Training at home,,,,,,,,,,,,,
10,10,2155,B,71.06336642115461,47.32050416399123,3.553168321057731,0.7433087412288003,B,548.9341670036083,Correct,sub_010_day_10_data.csv,1,300,86.0,Training at home,,,,,,,,,,,,,
10,10,2156,A,69.2440999852247,87.88944507581965,3.4622049992612345,1.3805641748913933,A,538.7495409959229,Correct,sub_010_day_10_data.csv,1,300,86.0,Training at home,,,,,,,,,,,,,
10,10,2157,A,57.27080130726358,72.02470394965503,2.8635400653631793,1.13136140402608,A,514.1350410049199,Correct,sub_010_day_10_data.csv,1,300,86.0,Training at home,,,,,,,,,,,,,
10,10,2158,A,17.670835385699796,35.63802674543791,0.8835417692849898,0.5598008150595215,A,645.4653340042569,Correct,sub_010_day_10_data.csv,1,300,86.0,Training at home,,,,,,,,,,,,,
10,10,2159,A,10.536110824253068,32.24433513498134,0.5268055412126534,0.5064928318997233,A,478.0159579968313,Correct,sub_010_day_10_data.csv,1,300,86.0,Training at home,,,,,,,,,,,,,
10,10,2160,A,50.20541339537595,68.83665649159647,2.5102706697687975,1.081283671658418,A,550.3823749968433,Correct,sub_010_day_10_data.csv,1,300,86.0,Training at home,,,,,,,,,,,,,
10,10,2161,B,64.02458978098217,46.400331044574074,3.2012294890491084,0.7288546956688416,B,728.0613330003689,Correct,sub_010_day_10_data.csv,1,300,86.0,Training at home,,,,,,,,,,,,,
10,10,2162,B,59.587107029535744,39.64388720193357,2.979355351476787,0.6227247239666848,B,750.3404159942875,Correct,sub_010_day_10_data.csv,1,300,86.0,Training at home,,,,,,,,,,,,,
10,10,2163,B,82.36197439395035,53.11094000892237,4.118098719697517,0.8342646947863938,B,832.8204999997979,Correct,sub_010_day_10_data.csv,1,300,86.0,Training at home,,,,,,,,,,,,,
10,10,2164,B,69.9288338733527,61.20904691122283,3.496441693667635,0.9614694605476533,B,621.1100410000654,Correct,sub_010_day_10_data.csv,1,300,86.0,Training at home,,,,,,,,,,,,,
10,10,2165,B,71.41816759095008,40.37736377717909,3.570908379547504,0.6342461470685423,B,472.54995799448807,Correct,sub_010_day_10_data.csv,1,300,86.0,Training at home,,,,,,,,,,,,,
10,10,2166,B,62.549972425009045,46.30309476963417,3.1274986212504525,0.7273273118337735,B,651.4288750040578,Correct,sub_010_day_10_data.csv,1,300,86.0,Training at home,,,,,,,,,,,,,
10,10,2167,A,25.04381688272848,46.11500114610146,1.252190844136424,0.724372744104386,A,570.853833000001,Correct,sub_010_day_10_data.csv,1,300,86.0,Training at home,,,,,,,,,,,,,
10,10,2168,A,34.36060762823905,51.025027689048656,1.7180303814119526,0.801499260685655,A,676.8146670001443,Correct,sub_010_day_10_data.csv,1,300,86.0,Training at home,,,,,,,,,,,,,
10,10,2169,A,29.962324652996188,51.84474893418203,1.4981162326498094,0.8143754118941676,A,522.2490839951206,Correct,sub_010_day_10_data.csv,1,300,86.0,Training at home,,,,,,,,,,,,,
10,10,2170,A,31.76881946689592,48.398790444542165,1.5884409733447962,0.7602464225160276,A,505.40095799806295,Correct,sub_010_day_10_data.csv,1,300,86.0,Training at home,,,,,,,,,,,,,
10,10,2171,A,64.37432618627676,80.71434242374029,3.2187163093138382,1.2678579259887677,B,735.5477500022971,Incorrect,sub_010_day_10_data.csv,0,300,86.0,Training at home,,,,,,,,,,,,,
10,10,2172,B,48.731767007232854,30.76622435895537,2.436588350361643,0.4832747221239476,B,551.3237909981399,Correct,sub_010_day_10_data.csv,1,300,86.0,Training at home,,,,,,,,,,,,,
10,10,2173,B,64.17715079425331,44.51046191467558,3.2088575397126653,0.6991687007951654,B,677.907375000359,Correct,sub_010_day_10_data.csv,1,300,86.0,Training at home,,,,,,,,,,,,,
10,10,2174,A,26.80121601625078,41.656054259852766,1.3400608008125392,0.6543317702014563,A,713.0482920038048,Correct,sub_010_day_10_data.csv,1,300,86.0,Training at home,,,,,,,,,,,,,
10,10,2175,A,27.68404139497652,54.77627475095636,1.384202069748826,0.860423711743103,A,446.4327500027139,Correct,sub_010_day_10_data.csv,1,300,87.0,Training at home,,,,,,,,,,,,,
10,10,2176,A,23.833674402133106,50.89889033511935,1.191683720106655,0.7995178997634174,A,475.5059579983936,Correct,sub_010_day_10_data.csv,1,300,87.0,Training at home,,,,,,,,,,,,,
10,10,2177,B,58.035269167124696,38.5888773264257,2.9017634583562346,0.6061526675948836,B,727.9378750026808,Correct,sub_010_day_10_data.csv,1,300,87.0,Training at home,,,,,,,,,,,,,
10,10,2178,B,77.4269505426719,61.61237271076303,3.871347527133595,0.967804887391847,B,706.0647910038824,Correct,sub_010_day_10_data.csv,1,300,87.0,Training at home,,,,,,,,,,,,,
10,10,2179,B,52.82750027386933,44.88176674978446,2.6413750136934664,0.7050011435062675,B,594.2146249944926,Correct,sub_010_day_10_data.csv,1,300,87.0,Training at home,,,,,,,,,,,,,
10,10,2180,A,62.1320094231762,75.0000984726442,3.10660047115881,1.1780987919008503,A,530.9833749997779,Correct,sub_010_day_10_data.csv,1,300,87.0,Training at home,,,,,,,,,,,,,
10,10,2181,A,30.286519487876927,44.43998938772456,1.5143259743938464,0.6980617209304192,A,525.9065409991308,Correct,sub_010_day_10_data.csv,1,300,87.0,Training at home,,,,,,,,,,,,,
10,10,2182,B,49.67772941426202,34.42152331401141,2.483886470713101,0.5406920238433401,B,515.7067500040284,Correct,sub_010_day_10_data.csv,1,300,87.0,Training at home,,,,,,,,,,,,,
10,10,2183,A,20.36605938126553,45.614933960625365,1.0183029690632766,0.716517707123421,A,491.6924580029445,Correct,sub_010_day_10_data.csv,1,300,87.0,Training at home,,,,,,,,,,,,,
10,10,2184,B,69.52744283706332,53.72115313891555,3.4763721418531657,0.8438499002179466,B,622.758541998337,Correct,sub_010_day_10_data.csv,1,300,87.0,Training at home,,,,,,,,,,,,,
10,10,2185,A,46.89560510829943,61.787128957538656,2.3447802554149715,0.9705499520970432,A,553.839334002987,Correct,sub_010_day_10_data.csv,1,300,87.0,Training at home,,,,,,,,,,,,,
10,10,2186,A,32.32421699478312,44.03867967080092,1.616210849739156,0.6917579626379117,A,612.5949580018641,Correct,sub_010_day_10_data.csv,1,300,87.0,Training at home,,,,,,,,,,,,,
10,10,2187,B,32.25016510646664,15.714576677957568,1.612508255323332,0.2468439932287249,B,488.80020799697377,Correct,sub_010_day_10_data.csv,1,300,87.0,Training at home,,,,,,,,,,,,,
10,10,2188,B,70.94684273378392,57.310405625807405,3.547342136689196,0.9002297464414385,B,605.2540419987054,Correct,sub_010_day_10_data.csv,1,300,87.0,Training at home,,,,,,,,,,,,,
10,10,2189,B,78.75007626128686,65.42936555288948,3.937503813064343,1.0277620707499933,B,549.8317910023616,Correct,sub_010_day_10_data.csv,1,300,87.0,Training at home,,,,,,,,,,,,,
10,10,2190,B,63.17769567263712,44.24373290696116,3.158884783631856,0.6949789313394907,B,503.3209590037586,Correct,sub_010_day_10_data.csv,1,300,87.0,Training at home,,,,,,,,,,,,,
10,10,2191,B,47.69373313840957,37.75306707342881,2.3846866569204788,0.5930237908418332,B,487.4773749979795,Correct,sub_010_day_10_data.csv,1,300,87.0,Training at home,,,,,,,,,,,,,
10,10,2192,B,38.1338385921899,24.647904071518077,1.906691929609495,0.3871683717873357,B,523.154666996561,Correct,sub_010_day_10_data.csv,1,300,87.0,Training at home,,,,,,,,,,,,,
10,10,2193,B,69.06745304688755,43.98798456367984,3.453372652344377,0.6909616457573889,B,536.692875000881,Correct,sub_010_day_10_data.csv,1,300,87.0,Training at home,,,,,,,,,,,,,
10,10,2194,A,60.10071696557888,87.04857616337961,3.0050358482789443,1.3673558369016248,A,570.9900419969927,Correct,sub_010_day_10_data.csv,1,300,87.0,Training at home,,,,,,,,,,,,,
10,10,2195,B,61.29374268416373,53.733287479867315,3.0646871342081865,0.8440405059998979,B,557.4060830040253,Correct,sub_010_day_10_data.csv,1,300,87.0,Training at home,,,,,,,,,,,,,
10,10,2196,B,73.96237980474788,46.49231679176789,3.6981189902373943,0.7302996044069368,B,507.1047079982236,Correct,sub_010_day_10_data.csv,1,300,87.0,Training at home,,,,,,,,,,,,,
10,10,2197,A,22.763804436439784,48.93225911624893,1.1381902218219893,0.7686261288157992,A,573.3626670044032,Correct,sub_010_day_10_data.csv,1,300,87.0,Training at home,,,,,,,,,,,,,
10,10,2198,B,38.85592784186231,19.903945984932538,1.9427963920931155,0.3126504524185605,B,582.9587920015911,Correct,sub_010_day_10_data.csv,1,300,87.0,Training at home,,,,,,,,,,,,,
10,10,2199,A,38.57983188873486,69.70032131224573,1.928991594436743,1.0948500869369966,A,527.2471249991213,Correct,sub_010_day_10_data.csv,1,300,87.0,Training at home,,,,,,,,,,,,,
10,10,2200,B,83.02461753503482,53.27870880231493,4.151230876751741,0.8369000008305122,B,507.809750000888,Correct,sub_010_day_10_data.csv,1,300,88.0,Training at home,,,,,,,,,,,,,
10,10,2201,A,21.22553701849573,48.72657101438426,1.0612768509247863,0.7653951876670547,A,451.7991250031628,Correct,sub_010_day_10_data.csv,1,300,88.0,Training at home,,,,,,,,,,,,,
10,10,2202,A,30.449555977375574,63.18267199636763,1.5224777988687788,0.9924710908898104,A,448.9155830015079,Correct,sub_010_day_10_data.csv,1,300,88.0,Training at home,,,,,,,,,,,,,
10,10,2203,A,57.0537481587442,83.6435267509134,2.85268740793721,1.3138694458050544,A,470.03633299755165,Correct,sub_010_day_10_data.csv,1,300,88.0,Training at home,,,,,,,,,,,,,
10,10,2204,A,19.17017298623767,45.76264373263203,0.9585086493118836,0.718837926796419,A,547.8015839980799,Correct,sub_010_day_10_data.csv,1,300,88.0,Training at home,,,,,,,,,,,,,
10,10,2205,A,38.05148733920142,62.31641748257741,1.9025743669600712,0.9788639968064986,A,981.0283749975496,Correct,sub_010_day_10_data.csv,1,300,88.0,Training at home,,,,,,,,,,,,,
10,10,2206,B,40.111061406924634,31.526727275908527,2.005553070346232,0.4952206740086159,B,645.9696659949259,Correct,sub_010_day_10_data.csv,1,300,88.0,Training at home,,,,,,,,,,,,,
10,10,2207,A,16.430135289049673,41.798736897725256,0.8215067644524836,0.6565730238361314,A,490.04579200118314,Correct,sub_010_day_10_data.csv,1,300,88.0,Training at home,,,,,,,,,,,,,
10,10,2208,A,58.85894612305228,68.93693310505154,2.942947306152614,1.0828588130192045,B,823.6715000020922,Incorrect,sub_010_day_10_data.csv,0,300,88.0,Training at home,,,,,,,,,,,,,
10,10,2209,A,23.84764389791742,40.57103877695688,1.192382194895871,0.6372883868509718,A,697.0697920041857,Correct,sub_010_day_10_data.csv,1,300,88.0,Training at home,,,,,,,,,,,,,
10,10,2210,A,24.60784339075029,43.563232096435186,1.2303921695375144,0.6842896496039392,A,522.1102080031415,Correct,sub_010_day_10_data.csv,1,300,88.0,Training at home,,,,,,,,,,,,,
10,10,2211,A,37.37831443174433,59.19940361426866,1.8689157215872163,0.9299020574574174,A,696.4170419960283,Correct,sub_010_day_10_data.csv,1,300,88.0,Training at home,,,,,,,,,,,,,
10,10,2212,A,15.859419959751587,45.901954633055055,0.7929709979875794,0.7210262173030887,A,427.46900000202,Correct,sub_010_day_10_data.csv,1,300,88.0,Training at home,,,,,,,,,,,,,
10,10,2213,A,24.53917736932848,38.93818466076545,1.226958868466424,0.6116395743719175,A,503.24937499681255,Correct,sub_010_day_10_data.csv,1,300,88.0,Training at home,,,,,,,,,,,,,
10,10,2214,A,51.437953817531394,69.12835384220504,2.5718976908765696,1.0858656429271356,A,786.9662089942722,Correct,sub_010_day_10_data.csv,1,300,88.0,Training at home,,,,,,,,,,,,,
10,10,2215,A,62.48479742763336,75.09719466507332,3.124239871381668,1.1796239753249846,B,614.33300000499,Incorrect,sub_010_day_10_data.csv,0,300,88.0,Training at home,,,,,,,,,,,,,
10,10,2216,A,17.097848092914564,46.92954944837382,0.8548924046457281,0.7371676389164505,A,482.85145899717463,Correct,sub_010_day_10_data.csv,1,300,88.0,Training at home,,,,,,,,,,,,,
10,10,2217,B,81.4718875748273,51.07824571083479,4.073594378741365,0.8023352074170648,B,617.6019999984419,Correct,sub_010_day_10_data.csv,1,300,88.0,Training at home,,,,,,,,,,,,,
10,10,2218,A,32.10080617096124,44.859322570279794,1.6050403085480622,0.7046485911590291,A,510.4942920006579,Correct,sub_010_day_10_data.csv,1,300,88.0,Training at home,,,,,,,,,,,,,
10,10,2219,A,12.255249259289377,39.810450316053334,0.6127624629644687,0.6253410912450731,A,537.449542003742,Correct,sub_010_day_10_data.csv,1,300,88.0,Training at home,,,,,,,,,,,,,
10,10,2220,A,48.50472329250877,68.44650823750057,2.4252361646254386,1.0751552372140254,A,647.0650840055896,Correct,sub_010_day_10_data.csv,1,300,88.0,Training at home,,,,,,,,,,,,,
10,10,2221,A,28.032026212618785,52.81566159329578,1.4016013106309393,0.829626472279913,A,1026.8926659991848,Correct,sub_010_day_10_data.csv,1,300,88.0,Training at home,,,,,,,,,,,,,
10,10,2222,B,43.15182486988119,29.995884815729045,2.157591243494059,0.4711742568751,B,631.2235840014182,Correct,sub_010_day_10_data.csv,1,300,88.0,Training at home,,,,,,,,,,,,,
10,10,2223,A,61.71047586670829,77.03777998251823,3.0855237933354145,1.2101066182097304,A,735.7887079997454,Correct,sub_010_day_10_data.csv,1,300,88.0,Training at home,,,,,,,,,,,,,
10,10,2224,A,39.138039348307565,48.38029797465527,1.9569019674153785,0.7599559434783107,B,718.8827499994659,Incorrect,sub_010_day_10_data.csv,0,300,88.0,Training at home,,,,,,,,,,,,,
10,10,2225,B,46.05466006727761,23.910780022008357,2.3027330033638806,0.3755896542937152,B,632.3449999981676,Correct,sub_010_day_10_data.csv,1,300,89.0,Training at home,,,,,,,,,,,,,
10,10,2226,B,69.51671087668858,55.29738092968866,3.475835543834429,0.868609228457331,B,684.2414999991888,Correct,sub_010_day_10_data.csv,1,300,89.0,Training at home,,,,,,,,,,,,,
10,10,2227,A,39.105225592418066,65.5607855758314,1.9552612796209032,1.029826411643038,A,530.2119580010185,Correct,sub_010_day_10_data.csv,1,300,89.0,Training at home,,,,,,,,,,,,,
10,10,2228,B,38.66358784283807,28.632852750584444,1.9331793921419032,0.4497637992627719,B,585.9717909988831,Correct,sub_010_day_10_data.csv,1,300,89.0,Training at home,,,,,,,,,,,,,
10,10,2229,A,34.671310537454396,60.5805422254267,1.7335655268727197,0.951596932029434,A,506.2265000015031,Correct,sub_010_day_10_data.csv,1,300,89.0,Training at home,,,,,,,,,,,,,
10,10,2230,A,31.19759157184499,61.80007583794192,1.5598795785922492,0.970753321218852,A,661.7443329960224,Correct,sub_010_day_10_data.csv,1,300,89.0,Training at home,,,,,,,,,,,,,
10,10,2231,A,48.72861972775089,61.61263143369593,2.4364309863875446,0.9678089514021736,A,748.3850419957889,Correct,sub_010_day_10_data.csv,1,300,89.0,Training at home,,,,,,,,,,,,,
10,10,2232,A,27.06078934817446,51.47258106010308,1.3530394674087232,0.8085294125986248,A,518.7608749984065,Correct,sub_010_day_10_data.csv,1,300,89.0,Training at home,,,,,,,,,,,,,
10,10,2233,A,29.498542419293127,52.17931151370798,1.4749271209646562,0.8196307086041915,A,516.9715420051944,Correct,sub_010_day_10_data.csv,1,300,89.0,Training at home,,,,,,,,,,,,,
10,10,2234,B,60.15292214184548,32.08441921225797,3.007646107092274,0.5039808784596242,B,535.7886669953587,Correct,sub_010_day_10_data.csv,1,300,89.0,Training at home,,,,,,,,,,,,,
10,10,2235,A,47.16940310473631,65.70098846754257,2.3584701552368155,1.0320287135160973,A,1052.6570000001811,Correct,sub_010_day_10_data.csv,1,300,89.0,Training at home,,,,,,,,,,,,,
10,10,2236,A,44.55754235735717,59.268721428449645,2.2278771178678585,0.9309908991363868,A,850.3399579931283,Correct,sub_010_day_10_data.csv,1,300,89.0,Training at home,,,,,,,,,,,,,
10,10,2237,A,37.09386829268342,45.92003076796971,1.854693414634171,0.7213101565663546,A,562.81129099807,Correct,sub_010_day_10_data.csv,1,300,89.0,Training at home,,,,,,,,,,,,,
10,10,2238,B,39.587036085062294,27.859245089036488,1.9793518042531144,0.4376119985313728,B,461.9867500005057,Correct,sub_010_day_10_data.csv,1,300,89.0,Training at home,,,,,,,,,,,,,
10,10,2239,A,65.75311485008085,78.68421673784573,3.2876557425040427,1.235968786285416,A,559.8120419963379,Correct,sub_010_day_10_data.csv,1,300,89.0,Training at home,,,,,,,,,,,,,
10,10,2240,B,38.34053736895342,27.365952232520673,1.917026868447671,0.4298633724608807,B,441.73487499938346,Correct,sub_010_day_10_data.csv,1,300,89.0,Training at home,,,,,,,,,,,,,
10,10,2241,B,39.95698454441228,17.20634158965685,1.997849227220614,0.2702765816661124,B,643.9965829995344,Correct,sub_010_day_10_data.csv,1,300,89.0,Training at home,,,,,,,,,,,,,
10,10,2242,B,84.42245360941482,64.97623351118804,4.2211226804707405,1.0206442892834164,B,712.4564590048976,Correct,sub_010_day_10_data.csv,1,300,89.0,Training at home,,,,,,,,,,,,,
10,10,2243,B,61.72477506221279,51.54373237086665,3.086238753110639,0.8096470547745653,B,1172.2178330019233,Correct,sub_010_day_10_data.csv,1,300,89.0,Training at home,,,,,,,,,,,,,
10,10,2244,A,50.527558737898445,73.54239791944752,2.526377936894922,1.1552012851555682,A,634.9525830009952,Correct,sub_010_day_10_data.csv,1,300,89.0,Training at home,,,,,,,,,,,,,
10,10,2245,B,54.75513913938365,29.17651226427003,2.737756956969182,0.4583035829340161,B,487.889832998917,Correct,sub_010_day_10_data.csv,1,300,89.0,Training at home,,,,,,,,,,,,,
10,10,2246,A,47.4326640940832,78.77042822210564,2.37163320470416,1.2373229931134455,A,491.1643750019721,Correct,sub_010_day_10_data.csv,1,300,89.0,Training at home,,,,,,,,,,,,,
10,10,2247,B,56.96504200058476,33.3553420838505,2.848252100029238,0.523944488242996,B,497.504040999047,Correct,sub_010_day_10_data.csv,1,300,89.0,Training at home,,,,,,,,,,,,,
10,10,2248,B,75.9361462524705,64.85556648136539,3.7968073126235247,1.0187488560113098,B,680.7617499944172,Correct,sub_010_day_10_data.csv,1,300,89.0,Training at home,,,,,,,,,,,,,
10,10,2249,A,60.06374917570905,79.21868392007883,3.003187458785453,1.2443641771518577,A,568.1350000013481,Correct,sub_010_day_10_data.csv,1,300,89.0,Training at home,,,,,,,,,,,,,
10,10,2250,A,33.538310590943624,49.34096976689742,1.6769155295471814,0.775046140703405,A,768.2440419957857,Correct,sub_010_day_10_data.csv,1,300,90.0,Training at home,,,,,,,,,,,,,
10,10,2251,B,48.278662371452995,21.24771864950688,2.4139331185726496,0.3337583840741682,B,782.3017089976929,Correct,sub_010_day_10_data.csv,1,300,90.0,Training at home,,,,,,,,,,,,,
10,10,2252,A,33.811897870570604,62.60706418018578,1.69059489352853,0.9834294644564816,A,1793.2950419999545,Correct,sub_010_day_10_data.csv,1,300,90.0,Training at home,,,,,,,,,,,,,
10,10,2253,A,36.903816476906606,60.23426490639391,1.8451908238453305,0.946157620621543,A,610.9496249991935,Correct,sub_010_day_10_data.csv,1,300,90.0,Training at home,,,,,,,,,,,,,
10,10,2254,A,41.125163696101126,50.7504597270196,2.0562581848050563,0.7971863572235472,A,521.7166669972357,Correct,sub_010_day_10_data.csv,1,300,90.0,Training at home,,,,,,,,,,,,,
10,10,2255,A,19.199740408236032,45.48270706852474,0.9599870204118016,0.7144406919592693,A,471.8925839988515,Correct,sub_010_day_10_data.csv,1,300,90.0,Training at home,,,,,,,,,,,,,
10,10,2256,A,41.36771670629539,71.3044965308066,2.0683858353147695,1.1200484123455046,A,752.8745410018018,Correct,sub_010_day_10_data.csv,1,300,90.0,Training at home,,,,,,,,,,,,,
10,10,2257,B,39.96275887576158,17.855420605778924,1.998137943788079,0.2804722910093544,B,537.2074589977274,Correct,sub_010_day_10_data.csv,1,300,90.0,Training at home,,,,,,,,,,,,,
10,10,2258,A,33.982931206913214,63.6170715956456,1.6991465603456606,0.9992946238388806,A,638.0896249975194,Correct,sub_010_day_10_data.csv,1,300,90.0,Training at home,,,,,,,,,,,,,
10,10,2259,A,22.028575426416342,41.53224857453671,1.1014287713208173,0.6523870350441483,A,538.5892910053371,Correct,sub_010_day_10_data.csv,1,300,90.0,Training at home,,,,,,,,,,,,,
10,10,2260,B,64.68641682626492,49.23648088660326,3.234320841313246,0.7734048332098353,B,516.009083003155,Correct,sub_010_day_10_data.csv,1,300,90.0,Training at home,,,,,,,,,,,,,
10,10,2261,B,52.8681650875864,40.541310270268866,2.64340825437932,0.6368214125599055,B,573.0639169996721,Correct,sub_010_day_10_data.csv,1,300,90.0,Training at home,,,,,,,,,,,,,
10,10,2262,A,47.956886174622,56.90865319812277,2.3978443087311003,0.8939190340645589,A,713.062249997165,Correct,sub_010_day_10_data.csv,1,300,90.0,Training at home,,,,,,,,,,,,,
10,10,2263,B,58.82613390679986,43.63982235319848,2.941306695339993,0.6854927265438598,B,543.2476250061882,Correct,sub_010_day_10_data.csv,1,300,90.0,Training at home,,,,,,,,,,,,,
10,10,2264,B,71.26700024602397,38.23407559827556,3.563350012301198,0.6005794550816963,B,1150.9333750000224,Correct,sub_010_day_10_data.csv,1,300,90.0,Training at home,,,,,,,,,,,,,
10,10,2265,A,16.300884868798807,40.43837328207433,0.8150442434399403,0.6352044821304325,A,657.6296659986838,Correct,sub_010_day_10_data.csv,1,300,90.0,Training at home,,,,,,,,,,,,,
10,10,2266,B,88.5128227304279,63.601827965759966,4.425641136521395,0.9990551774605668,B,580.2838750023511,Correct,sub_010_day_10_data.csv,1,300,90.0,Training at home,,,,,,,,,,,,,
10,10,2267,A,54.48289449349712,83.23982955483166,2.724144724674856,1.3075281850776284,A,700.4553750011837,Correct,sub_010_day_10_data.csv,1,300,90.0,Training at home,,,,,,,,,,,,,
10,10,2268,A,37.265858901601234,61.01465643913038,1.8632929450800615,0.9584159821523858,A,463.2186250019003,Correct,sub_010_day_10_data.csv,1,300,90.0,Training at home,,,,,,,,,,,,,
10,10,2269,B,79.66088110710967,61.26501886965785,3.983044055355484,0.9623486660147856,B,667.654582997784,Correct,sub_010_day_10_data.csv,1,300,90.0,Training at home,,,,,,,,,,,,,
10,10,2270,B,76.98183121583287,59.877507336299374,3.8490915607916434,0.9405536858149356,B,697.1390409962623,Correct,sub_010_day_10_data.csv,1,300,90.0,Training at home,,,,,,,,,,,,,
10,10,2271,A,26.87556814282674,46.5287573594229,1.343778407141337,0.730872011505125,A,494.0137079975102,Correct,sub_010_day_10_data.csv,1,300,90.0,Training at home,,,,,,,,,,,,,
10,10,2272,A,21.416763495574695,43.17413237453739,1.0708381747787348,0.6781776854647997,A,1285.8217079992755,Correct,sub_010_day_10_data.csv,1,300,90.0,Training at home,,,,,,,,,,,,,
10,10,2273,A,37.62334763105235,55.51216112411118,1.8811673815526175,0.8719829878620029,B,1102.6625410013366,Incorrect,sub_010_day_10_data.csv,0,300,90.0,Training at home,,,,,,,,,,,,,
10,10,2274,A,12.274270938580102,37.968411050023825,0.6137135469290051,0.5964064061161619,A,1508.316292005475,Correct,sub_010_day_10_data.csv,1,300,90.0,Training at home,,,,,,,,,,,,,
10,10,2275,B,59.95029057307285,50.26239031598485,2.9975145286536424,0.7895197808428038,B,801.0462079982972,Correct,sub_010_day_10_data.csv,1,300,91.0,Training at home,,,,,,,,,,,,,
10,10,2276,A,56.88819732337463,80.53675689367502,2.8444098661687316,1.265068419005583,A,732.818791999307,Correct,sub_010_day_10_data.csv,1,300,91.0,Training at home,,,,,,,,,,,,,
10,10,2277,A,53.41039359829712,62.39352359566368,2.6705196799148556,0.980075176798592,A,1159.014249999018,Correct,sub_010_day_10_data.csv,1,300,91.0,Training at home,,,,,,,,,,,,,
10,10,2278,B,39.071140185250215,28.52689257991784,1.9535570092625107,0.4480993807940753,B,792.6299169994309,Correct,sub_010_day_10_data.csv,1,300,91.0,Training at home,,,,,,,,,,,,,
10,10,2279,B,65.751562252364,51.56036437796488,3.2875781126182,0.8099083097311366,B,682.321583997691,Correct,sub_010_day_10_data.csv,1,300,91.0,Training at home,,,,,,,,,,,,,
10,10,2280,B,50.23187417998292,32.7664558112819,2.511593708999146,0.514694284304489,B,509.8963749987888,Correct,sub_010_day_10_data.csv,1,300,91.0,Training at home,,,,,,,,,,,,,
10,10,2281,B,62.90324891827231,46.26209522133093,3.1451624459136154,0.7266832924350237,B,863.5730839960161,Correct,sub_010_day_10_data.csv,1,300,91.0,Training at home,,,,,,,,,,,,,
10,10,2282,B,43.640259798531815,23.941417985599017,2.1820129899265908,0.3760709143004021,B,609.5307920040796,Correct,sub_010_day_10_data.csv,1,300,91.0,Training at home,,,,,,,,,,,,,
10,10,2283,A,64.05177167160855,84.41031612806569,3.2025885835804275,1.325914145175616,A,604.7672920030891,Correct,sub_010_day_10_data.csv,1,300,91.0,Training at home,,,,,,,,,,,,,
10,10,2284,B,64.49973320479874,49.76885748277519,3.2249866602399373,0.7817673852272197,B,496.1811250032042,Correct,sub_010_day_10_data.csv,1,300,91.0,Training at home,,,,,,,,,,,,,
10,10,2285,B,66.0951971392216,39.28984590338067,3.3047598569610797,0.6171634562536787,B,463.9628340009949,Correct,sub_010_day_10_data.csv,1,300,91.0,Training at home,,,,,,,,,,,,,
10,10,2286,A,52.4432228105476,66.7002834922191,2.62216114052738,1.0477256030575606,A,758.3317500029807,Correct,sub_010_day_10_data.csv,1,300,91.0,Training at home,,,,,,,,,,,,,
10,10,2287,B,43.31028553257798,18.906121289767732,2.165514276628899,0.2969766587590595,B,599.1971670009661,Correct,sub_010_day_10_data.csv,1,300,91.0,Training at home,,,,,,,,,,,,,
10,10,2288,A,44.95053968088247,59.715424607273285,2.247526984044123,0.9380076962610244,A,471.4362919985433,Correct,sub_010_day_10_data.csv,1,300,91.0,Training at home,,,,,,,,,,,,,
10,10,2289,B,53.989526809048705,45.20008787608772,2.6994763404524353,0.7100013200656512,B,663.7142079998739,Correct,sub_010_day_10_data.csv,1,300,91.0,Training at home,,,,,,,,,,,,,
10,10,2290,B,69.7438627722199,55.895882838096966,3.487193138610995,0.8780104744504061,A,722.0026659997529,Incorrect,sub_010_day_10_data.csv,0,300,91.0,Training at home,,,,,,,,,,,,,
10,10,2291,A,40.90513842407466,53.15593682463831,2.045256921203733,0.8349715031148344,B,849.8039580008481,Incorrect,sub_010_day_10_data.csv,0,300,91.0,Training at home,,,,,,,,,,,,,
10,10,2292,B,56.26588922548511,49.26616147852448,2.8132944612742556,0.7738710548575048,B,459.38316600222606,Correct,sub_010_day_10_data.csv,1,300,91.0,Training at home,,,,,,,,,,,,,
10,10,2293,A,38.40247819059166,51.890443972994994,1.920123909529583,0.8150931878853692,B,682.6772499989602,Incorrect,sub_010_day_10_data.csv,0,300,91.0,Training at home,,,,,,,,,,,,,
10,10,2294,B,55.19885270338703,42.27740611440339,2.759942635169352,0.6640919423092094,B,882.335582995438,Correct,sub_010_day_10_data.csv,1,300,91.0,Training at home,,,,,,,,,,,,,
10,10,2295,B,75.39666187850328,55.069331506475024,3.769833093925164,0.8650270364942143,B,580.9704580024118,Correct,sub_010_day_10_data.csv,1,300,91.0,Training at home,,,,,,,,,,,,,
10,10,2296,B,40.52713297829579,22.89798988306333,2.02635664891479,0.3596807839930258,B,751.4254999987315,Correct,sub_010_day_10_data.csv,1,300,91.0,Training at home,,,,,,,,,,,,,
10,10,2297,B,72.06992875774198,47.90306481354493,3.603496437887099,0.7524595825133422,B,729.8087500021211,Correct,sub_010_day_10_data.csv,1,300,91.0,Training at home,,,,,,,,,,,,,
10,10,2298,A,26.063977412754227,53.2826891913579,1.3031988706377116,0.8369625246353913,A,478.43995899893343,Correct,sub_010_day_10_data.csv,1,300,91.0,Training at home,,,,,,,,,,,,,
10,10,2299,A,46.8071670734804,76.90542639253147,2.34035835367402,1.208027612879837,A,536.4324999973178,Correct,sub_010_day_10_data.csv,1,300,91.0,Training at home,,,,,,,,,,,,,
10,10,2300,B,65.05759021099594,50.12437225192997,3.252879510549797,0.7873517981623164,A,426.43708400282776,Incorrect,sub_010_day_10_data.csv,0,300,92.0,Training at home,,,,,,,,,,,,,
10,10,2301,A,35.792284257181656,53.14380225582618,1.7896142128590826,0.8347808937536609,A,593.2921249986975,Correct,sub_010_day_10_data.csv,1,300,92.0,Training at home,,,,,,,,,,,,,
10,10,2302,A,29.75583686312196,61.82636873740675,1.487791843156098,0.9711663291178536,A,422.9924589963048,Correct,sub_010_day_10_data.csv,1,300,92.0,Training at home,,,,,,,,,,,,,
10,10,2303,B,70.82667242239525,52.05429861128991,3.541333621119762,0.8176670105249888,B,654.1658339992864,Correct,sub_010_day_10_data.csv,1,300,92.0,Training at home,,,,,,,,,,,,,
10,10,2304,A,52.4864148940136,69.09843127654973,2.62432074470068,1.0853956203649393,A,511.1789169968688,Correct,sub_010_day_10_data.csv,1,300,92.0,Training at home,,,,,,,,,,,,,
10,10,2305,A,22.922068965203795,39.67209363161329,1.1461034482601895,0.6231677895280137,A,551.8346250028117,Correct,sub_010_day_10_data.csv,1,300,92.0,Training at home,,,,,,,,,,,,,
10,10,2306,B,84.61236218820169,68.2447744262266,4.230618109410084,1.0719864099166303,A,766.1162500007777,Incorrect,sub_010_day_10_data.csv,0,300,92.0,Training at home,,,,,,,,,,,,,
10,10,2307,B,70.47796092065002,51.506969372514874,3.5238980460325013,0.8090695829468361,B,439.5713749981951,Correct,sub_010_day_10_data.csv,1,300,92.0,Training at home,,,,,,,,,,,,,
10,10,2308,A,44.886521393642056,69.2265543136909,2.244326069682103,1.0874081723261306,A,465.8277080015978,Correct,sub_010_day_10_data.csv,1,300,92.0,Training at home,,,,,,,,,,,,,
10,10,2309,A,62.14902886826764,77.52115930982777,3.107451443413382,1.2176995229275944,A,647.6248750041123,Correct,sub_010_day_10_data.csv,1,300,92.0,Training at home,,,,,,,,,,,,,
10,10,2310,A,20.461141574545948,48.93403588444964,1.0230570787272977,0.7686540382254317,A,506.44095800089417,Correct,sub_010_day_10_data.csv,1,300,92.0,Training at home,,,,,,,,,,,,,
10,10,2311,B,77.09774930594125,55.893038620430616,3.8548874652970624,0.8779657975837771,B,783.7454580003396,Correct,sub_010_day_10_data.csv,1,300,92.0,Training at home,,,,,,,,,,,,,
10,10,2312,B,69.16686996418477,36.07509642860577,3.458343498209239,0.5666662895882563,B,577.9870839978685,Correct,sub_010_day_10_data.csv,1,300,92.0,Training at home,,,,,,,,,,,,,
10,10,2313,B,78.05781099195006,62.34417129826738,3.9028905495975033,0.9792999527239024,B,694.800416000362,Correct,sub_010_day_10_data.csv,1,300,92.0,Training at home,,,,,,,,,,,,,
10,10,2314,B,61.57640475718005,49.72121350524367,3.078820237859002,0.7810189953782155,B,498.3257919957395,Correct,sub_010_day_10_data.csv,1,300,92.0,Training at home,,,,,,,,,,,,,
10,10,2315,B,73.19313307528068,41.62281393698115,3.659656653764034,0.6538096324307742,B,563.9995829988038,Correct,sub_010_day_10_data.csv,1,300,92.0,Training at home,,,,,,,,,,,,,
10,10,2316,B,88.68237705992162,65.37862169515614,4.4341188529960816,1.0269649880966438,B,467.505375003384,Correct,sub_010_day_10_data.csv,1,300,92.0,Training at home,,,,,,,,,,,,,
10,10,2317,B,65.36020799604867,54.463210814632234,3.2680103998024332,0.8555061149308039,B,610.3367499963497,Correct,sub_010_day_10_data.csv,1,300,92.0,Training at home,,,,,,,,,,,,,
10,10,2318,A,60.7570510336499,84.45790005319856,3.037852551682495,1.326661591723748,A,503.513457995723,Correct,sub_010_day_10_data.csv,1,300,92.0,Training at home,,,,,,,,,,,,,
10,10,2319,A,29.387854417238707,44.06094287382835,1.4693927208619355,0.6921076722132935,A,512.5765830016462,Correct,sub_010_day_10_data.csv,1,300,92.0,Training at home,,,,,,,,,,,,,
10,10,2320,A,41.08794653025891,68.29643124756095,2.054397326512946,1.0727978333686894,A,514.6688329987228,Correct,sub_010_day_10_data.csv,1,300,92.0,Training at home,,,,,,,,,,,,,
10,10,2321,A,22.245830528033196,43.67485118142929,1.1122915264016595,0.6860429580910288,A,704.6978330035927,Correct,sub_010_day_10_data.csv,1,300,92.0,Training at home,,,,,,,,,,,,,
10,10,2322,A,28.66377021286677,46.353405406783914,1.4331885106433384,0.7281175894741087,A,478.2579579987214,Correct,sub_010_day_10_data.csv,1,300,92.0,Training at home,,,,,,,,,,,,,
10,10,2323,A,28.57003126136771,48.62186366718415,1.4285015630683855,0.763750448503351,A,545.6410000042524,Correct,sub_010_day_10_data.csv,1,300,92.0,Training at home,,,,,,,,,,,,,
10,10,2324,B,68.54250573246625,43.9265243451892,3.4271252866233124,0.6899962309028981,B,607.1126250026282,Correct,sub_010_day_10_data.csv,1,300,92.0,Training at home,,,,,,,,,,,,,
10,10,2325,B,55.810552224288166,42.57785140842804,2.7905276112144084,0.6688113259517767,B,583.6194169969531,Correct,sub_010_day_10_data.csv,1,300,93.0,Training at home,,,,,,,,,,,,,
10,10,2326,B,73.13198544397352,48.412466817270214,3.656599272198676,0.7604612504764787,B,527.1407089967397,Correct,sub_010_day_10_data.csv,1,300,93.0,Training at home,,,,,,,,,,,,,
10,10,2327,A,18.14090317062561,46.28989897427037,0.9070451585312804,0.7271200327649076,A,508.712041999388,Correct,sub_010_day_10_data.csv,1,300,93.0,Training at home,,,,,,,,,,,,,
10,10,2328,B,76.71290370482471,53.14072441448766,3.835645185241236,0.8347325471349709,B,450.27624999784166,Correct,sub_010_day_10_data.csv,1,300,93.0,Training at home,,,,,,,,,,,,,
10,10,2329,A,56.53235840711575,84.9494228636747,2.8266179203557873,1.3343824139760665,A,666.0091669982648,Correct,sub_010_day_10_data.csv,1,300,93.0,Training at home,,,,,,,,,,,,,
10,10,2330,A,56.19626760969206,84.77908678877463,2.809813380484603,1.3317067811683296,A,619.8497910008882,Correct,sub_010_day_10_data.csv,1,300,93.0,Training at home,,,,,,,,,,,,,
10,10,2331,A,45.38616895688569,65.48903447531181,2.2693084478442844,1.0286993479916413,A,1425.7293749979,Correct,sub_010_day_10_data.csv,1,300,93.0,Training at home,,,,,,,,,,,,,
10,10,2332,B,50.75151997544431,25.600251265539853,2.5375759987722155,0.4021278065293641,B,527.1922500032815,Correct,sub_010_day_10_data.csv,1,300,93.0,Training at home,,,,,,,,,,,,,
10,10,2333,B,72.02012450500678,55.854865351289206,3.6010062252503388,0.8773661732742863,B,546.2623749990598,Correct,sub_010_day_10_data.csv,1,300,93.0,Training at home,,,,,,,,,,,,,
10,10,2334,B,86.50913965782007,63.734974300479394,4.325456982891003,1.0011466351956018,B,461.369292002928,Correct,sub_010_day_10_data.csv,1,300,93.0,Training at home,,,,,,,,,,,,,
10,10,2335,B,38.991457054185105,26.897785298518496,1.9495728527092553,0.4225094234583062,B,438.0335829991964,Correct,sub_010_day_10_data.csv,1,300,93.0,Training at home,,,,,,,,,,,,,
10,10,2336,B,34.138597297858055,17.707389098440352,1.7069298648929023,0.278147017529581,B,435.820958999102,Correct,sub_010_day_10_data.csv,1,300,93.0,Training at home,,,,,,,,,,,,,
10,10,2337,B,53.03633737892096,24.872252944771848,2.651816868946048,0.3906924356476117,B,503.1255840003723,Correct,sub_010_day_10_data.csv,1,300,93.0,Training at home,,,,,,,,,,,,,
10,10,2338,A,22.425793005413475,47.44328901910321,1.1212896502706735,0.7452374412227597,A,523.0374579987256,Correct,sub_010_day_10_data.csv,1,300,93.0,Training at home,,,,,,,,,,,,,
10,10,2339,B,58.24605729532697,31.609405917120615,2.9123028647663483,0.4965193870678193,B,464.7813749979832,Correct,sub_010_day_10_data.csv,1,300,93.0,Training at home,,,,,,,,,,,,,
10,10,2340,A,56.11641961610117,65.61685111187118,2.8058209808050583,1.0307070870237487,A,551.5436669957126,Correct,sub_010_day_10_data.csv,1,300,93.0,Training at home,,,,,,,,,,,,,
10,10,2341,A,51.163786204092986,71.80367653294593,2.558189310204649,1.127889513483204,A,537.0544589968631,Correct,sub_010_day_10_data.csv,1,300,93.0,Training at home,,,,,,,,,,,,,
10,10,2342,B,62.1743317047539,36.20924379496577,3.108716585237695,0.5687734714915313,B,452.33858300343854,Correct,sub_010_day_10_data.csv,1,300,93.0,Training at home,,,,,,,,,,,,,
10,10,2343,B,40.47850618842929,21.26303294586675,2.0239253094214646,0.3339989404788636,B,380.2722079999512,Correct,sub_010_day_10_data.csv,1,300,93.0,Training at home,,,,,,,,,,,,,
10,10,2344,A,55.52512294393082,64.02799018949726,2.776256147196541,1.0057493180172197,B,716.5142500016373,Incorrect,sub_010_day_10_data.csv,0,300,93.0,Training at home,,,,,,,,,,,,,
10,10,2345,A,52.47301021426807,80.09839383119368,2.6236505107134036,1.2581826281221002,A,929.1317910028738,Correct,sub_010_day_10_data.csv,1,300,93.0,Training at home,,,,,,,,,,,,,
10,10,2346,B,41.96185738978643,21.936646710038957,2.0980928694893213,0.3445800407432655,B,720.3057080041617,Correct,sub_010_day_10_data.csv,1,300,93.0,Training at home,,,,,,,,,,,,,
10,10,2347,B,70.78303067359644,61.587319035840224,3.539151533679822,0.9674113451864323,B,748.3839159976924,Correct,sub_010_day_10_data.csv,1,300,93.0,Training at home,,,,,,,,,,,,,
10,10,2348,B,60.047864943944184,50.008846644956265,3.002393247197209,0.785537126171466,B,698.6519999991287,Correct,sub_010_day_10_data.csv,1,300,93.0,Training at home,,,,,,,,,,,,,
10,10,2349,B,59.01123995546716,26.467765553119907,2.9505619977733577,0.4157546890930924,B,474.21816700079944,Correct,sub_010_day_10_data.csv,1,300,93.0,Training at home,,,,,,,,,,,,,
10,10,2350,B,84.48560174522987,65.19932914221287,4.224280087261493,1.0241486672607942,B,606.8610000002082,Correct,sub_010_day_10_data.csv,1,300,94.0,Training at home,,,,,,,,,,,,,
10,10,2351,A,12.90753880817646,30.36112668671628,0.6453769404088231,0.4769114627684844,A,546.7104169947561,Correct,sub_010_day_10_data.csv,1,300,94.0,Training at home,,,,,,,,,,,,,
10,10,2352,A,39.28689865103728,68.1394524777424,1.964344932551864,1.0703320166185315,A,537.7039999948465,Correct,sub_010_day_10_data.csv,1,300,94.0,Training at home,,,,,,,,,,,,,
10,10,2353,A,24.45982205727512,45.788611943879765,1.222991102863756,0.7192458345048326,A,606.7222920028144,Correct,sub_010_day_10_data.csv,1,300,94.0,Training at home,,,,,,,,,,,,,
10,10,2354,B,73.17782935317672,53.65300504065177,3.658891467658836,0.8427794323936387,B,1009.1924160005874,Correct,sub_010_day_10_data.csv,1,300,94.0,Training at home,,,,,,,,,,,,,
10,10,2355,B,60.976803184279476,30.381507963631876,3.0488401592139733,0.4772316111176284,B,497.7603330044076,Correct,sub_010_day_10_data.csv,1,300,94.0,Training at home,,,,,,,,,,,,,
10,10,2356,B,68.5211010060104,40.02284861263173,3.4260550503005196,0.6286774358859014,B,579.770541000471,Correct,sub_010_day_10_data.csv,1,300,94.0,Training at home,,,,,,,,,,,,,
10,10,2357,A,26.345949395606528,42.757033698863175,1.3172974697803264,0.6716259147881988,A,530.9342079999624,Correct,sub_010_day_10_data.csv,1,300,94.0,Training at home,,,,,,,,,,,,,
10,10,2358,A,62.55304694088037,72.22655628119759,3.1276523470440183,1.1345320930355005,B,838.0057910035248,Incorrect,sub_010_day_10_data.csv,0,300,94.0,Training at home,,,,,,,,,,,,,
10,10,2359,B,47.992972310106765,20.853854376789585,2.3996486155053383,0.3275715785457675,B,415.3929579988471,Correct,sub_010_day_10_data.csv,1,300,94.0,Training at home,,,,,,,,,,,,,
10,10,2360,A,51.567279898714574,60.39722316353075,2.5783639949357284,0.9487173629388572,B,631.4756669962662,Incorrect,sub_010_day_10_data.csv,0,300,94.0,Training at home,,,,,,,,,,,,,
10,10,2361,B,82.32364505865007,64.99060934390107,4.116182252932504,1.0208701043356188,B,501.8361670008744,Correct,sub_010_day_10_data.csv,1,300,94.0,Training at home,,,,,,,,,,,,,
10,10,2362,B,66.39837261333467,33.1027325221484,3.319918630666734,0.5199765065266466,B,517.012167001667,Correct,sub_010_day_10_data.csv,1,300,94.0,Training at home,,,,,,,,,,,,,
10,10,2363,A,43.764938163259245,66.93816964745108,2.188246908162962,1.0514623100458975,A,441.3615410012426,Correct,sub_010_day_10_data.csv,1,300,94.0,Training at home,,,,,,,,,,,,,
10,10,2364,B,46.23531460793602,20.38237925913123,2.3117657303968007,0.3201656647158383,B,447.4458330005291,Correct,sub_010_day_10_data.csv,1,300,94.0,Training at home,,,,,,,,,,,,,
10,10,2365,B,78.49997148411268,49.00280161952922,3.9249985742056337,0.7697342078661551,B,533.0786670019734,Correct,sub_010_day_10_data.csv,1,300,94.0,Training at home,,,,,,,,,,,,,
10,10,2366,A,18.68661908950882,49.23664324847993,0.934330954475441,0.7734073835842301,A,756.0909590029041,Correct,sub_010_day_10_data.csv,1,300,94.0,Training at home,,,,,,,,,,,,,
10,10,2367,B,81.32108161611357,66.27859153729145,4.066054080805679,1.0411016813191671,B,565.2719999998226,Correct,sub_010_day_10_data.csv,1,300,94.0,Training at home,,,,,,,,,,,,,
10,10,2368,B,83.13400435819125,64.47916407040205,4.156700217909562,1.0128363407659302,B,806.3640420004958,Correct,sub_010_day_10_data.csv,1,300,94.0,Training at home,,,,,,,,,,,,,
10,10,2369,B,59.11942788570365,26.938374396777988,2.955971394285182,0.4231469955228455,B,474.31970800244017,Correct,sub_010_day_10_data.csv,1,300,94.0,Training at home,,,,,,,,,,,,,
10,10,2370,A,34.805194545258665,66.51871672436087,1.7402597272629334,1.0448735589373632,A,476.45441699569346,Correct,sub_010_day_10_data.csv,1,300,94.0,Training at home,,,,,,,,,,,,,
10,10,2371,A,36.62543836389452,52.86033174580783,1.831271918194726,0.830328149394746,A,532.029166999564,Correct,sub_010_day_10_data.csv,1,300,94.0,Training at home,,,,,,,,,,,,,
10,10,2372,B,81.94084548248637,65.28994694483971,4.097042274124318,1.025572088375879,B,781.1783330034814,Correct,sub_010_day_10_data.csv,1,300,94.0,Training at home,,,,,,,,,,,,,
10,10,2373,B,63.65156114228368,40.476887445315214,3.1825780571141835,0.6358094611919161,B,586.9566250039497,Correct,sub_010_day_10_data.csv,1,300,94.0,Training at home,,,,,,,,,,,,,
10,10,2374,A,58.19114800163192,73.73247804432175,2.909557400081596,1.1581870567750596,A,709.3014589991071,Correct,sub_010_day_10_data.csv,1,300,94.0,Training at home,,,,,,,,,,,,,
10,10,2375,B,35.09321605694792,13.2883822736399,1.7546608028473958,0.2087334206447997,B,446.82325000030687,Correct,sub_010_day_10_data.csv,1,300,95.0,Training at home,,,,,,,,,,,,,
10,10,2376,A,42.21151086093406,61.46324925394682,2.110575543046703,0.9654624616097884,A,554.0440420008963,Correct,sub_010_day_10_data.csv,1,300,95.0,Training at home,,,,,,,,,,,,,
10,10,2377,A,41.221582208946614,52.37998738021783,2.0610791104473307,0.8227829177440921,A,1003.5856670001522,Correct,sub_010_day_10_data.csv,1,300,95.0,Training at home,,,,,,,,,,,,,
10,10,2378,A,37.93871072574079,61.12918703078074,1.8969355362870397,0.960215024479086,A,636.8206670013024,Correct,sub_010_day_10_data.csv,1,300,95.0,Training at home,,,,,,,,,,,,,
10,10,2379,A,15.65162292892407,41.49399712304864,0.7825811464462035,0.6517861826492282,A,540.11837500002,Correct,sub_010_day_10_data.csv,1,300,95.0,Training at home,,,,,,,,,,,,,
10,10,2380,B,51.15921198435584,42.84710811737805,2.557960599217792,0.6730408004456124,B,523.0139589984901,Correct,sub_010_day_10_data.csv,1,300,95.0,Training at home,,,,,,,,,,,,,
10,10,2381,A,37.82381097989014,56.703504337677884,1.8911905489945071,0.8906965633002292,A,526.4653329941211,Correct,sub_010_day_10_data.csv,1,300,95.0,Training at home,,,,,,,,,,,,,
10,10,2382,B,69.00843241457689,41.489929559108624,3.4504216207288443,0.6517222895042682,B,637.1712910040515,Correct,sub_010_day_10_data.csv,1,300,95.0,Training at home,,,,,,,,,,,,,
10,10,2383,A,22.79647513448169,38.906587592441056,1.1398237567240843,0.6111432487833031,A,501.6918330002227,Correct,sub_010_day_10_data.csv,1,300,95.0,Training at home,,,,,,,,,,,,,
10,10,2384,B,37.8661850707485,23.87142572547268,1.893309253537425,0.3749714784492969,B,502.0998330001021,Correct,sub_010_day_10_data.csv,1,300,95.0,Training at home,,,,,,,,,,,,,
10,10,2385,A,53.30561450449348,78.57792282221902,2.6652807252246737,1.234299125363145,A,468.250916004763,Correct,sub_010_day_10_data.csv,1,300,95.0,Training at home,,,,,,,,,,,,,
10,10,2386,B,37.14704354951835,23.62599405472221,1.8573521774759176,0.3711162467803571,B,425.389832998917,Correct,sub_010_day_10_data.csv,1,300,95.0,Training at home,,,,,,,,,,,,,
10,10,2387,B,76.86565783238748,56.671502005186376,3.8432828916193738,0.8901938718369639,B,593.1414580045384,Correct,sub_010_day_10_data.csv,1,300,95.0,Training at home,,,,,,,,,,,,,
10,10,2388,B,87.44737442959331,68.80727736681499,4.372368721479665,1.080822185445506,B,689.4584170004237,Correct,sub_010_day_10_data.csv,1,300,95.0,Training at home,,,,,,,,,,,,,
10,10,2389,B,61.333536143448825,37.6844722413572,3.0666768071724415,0.5919463057392813,B,565.0065420049941,Correct,sub_010_day_10_data.csv,1,300,95.0,Training at home,,,,,,,,,,,,,
10,10,2390,B,78.23675533574624,62.199742627083936,3.911837766787312,0.977031272462114,B,572.410916996887,Correct,sub_010_day_10_data.csv,1,300,95.0,Training at home,,,,,,,,,,,,,
10,10,2391,B,74.07726500078937,49.622326353545176,3.703863250039468,0.7794656796316635,B,467.8490420046728,Correct,sub_010_day_10_data.csv,1,300,95.0,Training at home,,,,,,,,,,,,,
10,10,2392,A,42.382107122282974,74.13405219360578,2.1191053561141486,1.164494968761371,A,841.5584169997601,Correct,sub_010_day_10_data.csv,1,300,95.0,Training at home,,,,,,,,,,,,,
10,10,2393,B,54.25028101268469,45.953102453435235,2.7125140506342342,0.7218296453868562,A,716.6686249984195,Incorrect,sub_010_day_10_data.csv,0,300,95.0,Training at home,,,,,,,,,,,,,
10,10,2394,A,19.34411696970669,42.07519897503012,0.9672058484853344,0.6609156799914171,A,568.6462500016205,Correct,sub_010_day_10_data.csv,1,300,95.0,Training at home,,,,,,,,,,,,,
10,10,2395,B,64.58100862637905,39.16653152453459,3.2290504313189525,0.6152264385203545,B,492.3972079996019,Correct,sub_010_day_10_data.csv,1,300,95.0,Training at home,,,,,,,,,,,,,
10,10,2396,A,31.91426962634349,42.118655838679786,1.5957134813171745,0.6615982988093664,A,523.9820830029203,Correct,sub_010_day_10_data.csv,1,300,95.0,Training at home,,,,,,,,,,,,,
10,10,2397,B,72.65716670392271,57.52792481799857,3.632858335196135,0.9036465299224512,B,684.7581670008367,Correct,sub_010_day_10_data.csv,1,300,95.0,Training at home,,,,,,,,,,,,,
10,10,2398,A,53.80341067242374,77.78676959624637,2.690170533621187,1.221871719550247,A,681.1978749974514,Correct,sub_010_day_10_data.csv,1,300,95.0,Training at home,,,,,,,,,,,,,
10,10,2399,A,40.06197714700794,73.03272946108413,2.003098857350397,1.147195431732764,A,559.1619170008926,Correct,sub_010_day_10_data.csv,1,300,95.0,Training at home,,,,,,,,,,,,,
