subject,day,trial,cat,x,y,xt,yt,resp,rt,fb,f_name,acc,n_trials,block,session_type,ns_left_digit,ns_right_digit,ns_left_size,ns_right_size,ns_congruent,ns_cue,ns_correct_side,ns_resp,ns_rt,ns_fb,acc_stroop,acc_stroop_mean,resp_key
10,15,3300,A,50.44920726699809,64.88062579607585,2.5224603633499045,1.0191424868063017,A,796.0054159998435,Correct,sub_010_day_15_data.csv,1,300,132.0,Training at home,,,,,,,,,,,,,
10,15,3301,B,57.12403412608175,47.135185454046926,2.8562017063040877,0.7403977617401316,A,813.8848749999852,Incorrect,sub_010_day_15_data.csv,0,300,132.0,Training at home,,,,,,,,,,,,,
10,15,3302,A,25.99366424343618,43.325907058419816,1.299683212171809,0.6805617566242294,A,551.3179160000163,Correct,sub_010_day_15_data.csv,1,300,132.0,Training at home,,,,,,,,,,,,,
10,15,3303,B,42.95051492860611,18.933069976643814,2.1475257464303055,0.2973999677426284,B,475.2827909999269,Correct,sub_010_day_15_data.csv,1,300,132.0,Training at home,,,,,,,,,,,,,
10,15,3304,A,61.8577135874482,81.29406393252538,3.0928856793724098,1.2769641701544034,A,460.2142069998081,Correct,sub_010_day_15_data.csv,1,300,132.0,Training at home,,,,,,,,,,,,,
10,15,3305,A,39.5588180851849,51.239152878267575,1.977940904259245,0.8048627312926486,A,423.2978749998893,Correct,sub_010_day_15_data.csv,1,300,132.0,Training at home,,,,,,,,,,,,,
10,15,3306,A,38.172458150486904,66.7267450019442,1.9086229075243453,1.0481412594803368,A,443.3488329998454,Correct,sub_010_day_15_data.csv,1,300,132.0,Training at home,,,,,,,,,,,,,
10,15,3307,A,58.274089171364416,77.001599158032,2.913704458568221,1.2095382911476966,A,485.9908319999704,Correct,sub_010_day_15_data.csv,1,300,132.0,Training at home,,,,,,,,,,,,,
10,15,3308,A,49.1757824080138,62.09488050033427,2.4587891204006898,0.9753841020269312,A,388.43212400001903,Correct,sub_010_day_15_data.csv,1,300,132.0,Training at home,,,,,,,,,,,,,
10,15,3309,B,31.867793157768972,11.756023277406609,1.5933896578884486,0.184663181818656,B,462.8237490001083,Correct,sub_010_day_15_data.csv,1,300,132.0,Training at home,,,,,,,,,,,,,
10,15,3310,A,34.39801904734594,58.69094606356292,1.719900952367297,0.9219152249276203,A,520.8623739999894,Correct,sub_010_day_15_data.csv,1,300,132.0,Training at home,,,,,,,,,,,,,
10,15,3311,A,19.57223215034104,39.35623443571059,0.978611607517052,0.6182062848809301,A,728.9501660000042,Correct,sub_010_day_15_data.csv,1,300,132.0,Training at home,,,,,,,,,,,,,
10,15,3312,B,32.243204470383745,15.009074545273378,1.6121602235191872,0.235761991643062,B,656.6225829999439,Correct,sub_010_day_15_data.csv,1,300,132.0,Training at home,,,,,,,,,,,,,
10,15,3313,A,49.87388061709146,71.73208546089242,2.4936940308545728,1.126764963553074,A,448.1795820001935,Correct,sub_010_day_15_data.csv,1,300,132.0,Training at home,,,,,,,,,,,,,
10,15,3314,B,53.437489812659955,36.672015940129896,2.6718744906329976,0.5760426793491993,B,835.863874999859,Correct,sub_010_day_15_data.csv,1,300,132.0,Training at home,,,,,,,,,,,,,
10,15,3315,A,56.59703334465378,73.90736423532614,2.8298516672326888,1.160934162639428,A,476.54541600013545,Correct,sub_010_day_15_data.csv,1,300,132.0,Training at home,,,,,,,,,,,,,
10,15,3316,B,69.76780611129207,56.75387163965757,3.4883903055646037,0.8914877310296316,B,791.3032080000448,Correct,sub_010_day_15_data.csv,1,300,132.0,Training at home,,,,,,,,,,,,,
10,15,3317,B,60.130142132470695,34.05824778784822,3.006507106623535,0.5349857052222239,B,474.0296239999679,Correct,sub_010_day_15_data.csv,1,300,132.0,Training at home,,,,,,,,,,,,,
10,15,3318,B,61.22793161702834,32.96959036092661,3.061396580851417,0.5178851143487595,B,518.3233739999196,Correct,sub_010_day_15_data.csv,1,300,132.0,Training at home,,,,,,,,,,,,,
10,15,3319,B,45.107730293251855,21.179175943896237,2.2553865146625927,0.3326817177721504,B,507.7805000000808,Correct,sub_010_day_15_data.csv,1,300,132.0,Training at home,,,,,,,,,,,,,
10,15,3320,B,71.15318368944838,58.372208045220944,3.5576591844724192,0.9169084998434056,A,513.0567910000536,Incorrect,sub_010_day_15_data.csv,0,300,132.0,Training at home,,,,,,,,,,,,,
10,15,3321,B,81.87591843974614,55.69461544240959,4.093795921987307,0.8748489735919132,B,452.1818739999617,Correct,sub_010_day_15_data.csv,1,300,132.0,Training at home,,,,,,,,,,,,,
10,15,3322,B,85.72760327351307,69.35537031764176,4.286380163675654,1.0894316093845149,A,755.9471239999311,Incorrect,sub_010_day_15_data.csv,0,300,132.0,Training at home,,,,,,,,,,,,,
10,15,3323,A,68.05894695426686,89.80874147799108,3.4029473477133427,1.4107124122770085,A,504.633166000076,Correct,sub_010_day_15_data.csv,1,300,132.0,Training at home,,,,,,,,,,,,,
10,15,3324,B,44.81449521215696,18.16188753491663,2.2407247606078484,0.2852862622750906,B,504.89945800018177,Correct,sub_010_day_15_data.csv,1,300,132.0,Training at home,,,,,,,,,,,,,
10,15,3325,B,72.15312763125488,57.58159289755069,3.607656381562744,0.9044895461447172,B,523.8045819999115,Correct,sub_010_day_15_data.csv,1,300,133.0,Training at home,,,,,,,,,,,,,
10,15,3326,A,11.708559533381576,37.989684825691285,0.5854279766690788,0.5967405738029169,A,475.77512499992736,Correct,sub_010_day_15_data.csv,1,300,133.0,Training at home,,,,,,,,,,,,,
10,15,3327,A,36.25826441954071,69.20938640965872,1.8129132209770351,1.0871384995202054,A,606.5556239998386,Correct,sub_010_day_15_data.csv,1,300,133.0,Training at home,,,,,,,,,,,,,
10,15,3328,B,67.46723078880288,47.23070432190116,3.373361539440144,0.7418981686077818,B,803.1429989998742,Correct,sub_010_day_15_data.csv,1,300,133.0,Training at home,,,,,,,,,,,,,
10,15,3329,A,67.98624378504712,80.6509952470078,3.399312189252356,1.2668628708635254,A,506.3040820000424,Correct,sub_010_day_15_data.csv,1,300,133.0,Training at home,,,,,,,,,,,,,
10,15,3330,B,34.19757342671765,19.196642174297573,1.709878671335883,0.3015401501418262,B,449.966791000179,Correct,sub_010_day_15_data.csv,1,300,133.0,Training at home,,,,,,,,,,,,,
10,15,3331,B,57.195695675499806,47.22737697390254,2.85978478377499,0.7418459027476397,A,629.6572489998198,Incorrect,sub_010_day_15_data.csv,0,300,133.0,Training at home,,,,,,,,,,,,,
10,15,3332,B,36.63295061817428,24.659117199587733,1.831647530908714,0.3873445071911726,B,386.1619580000024,Correct,sub_010_day_15_data.csv,1,300,133.0,Training at home,,,,,,,,,,,,,
10,15,3333,A,37.82250229800929,66.13579712309524,1.8911251149004644,1.038858671906105,A,427.2481660000267,Correct,sub_010_day_15_data.csv,1,300,133.0,Training at home,,,,,,,,,,,,,
10,15,3334,B,53.26098808682245,22.127265090746505,2.663049404341122,0.3475742672656156,B,428.3631240000432,Correct,sub_010_day_15_data.csv,1,300,133.0,Training at home,,,,,,,,,,,,,
10,15,3335,A,16.120382527915886,34.65696004331667,0.8060191263957944,0.5443902553391933,A,439.4169579998106,Correct,sub_010_day_15_data.csv,1,300,133.0,Training at home,,,,,,,,,,,,,
10,15,3336,A,57.607224161569725,83.50979466700052,2.8803612080784866,1.3117687871432049,A,511.6412909999326,Correct,sub_010_day_15_data.csv,1,300,133.0,Training at home,,,,,,,,,,,,,
10,15,3337,A,36.753398932090846,52.368609872689376,1.8376699466045423,0.8226042002737541,A,595.1907490000394,Correct,sub_010_day_15_data.csv,1,300,133.0,Training at home,,,,,,,,,,,,,
10,15,3338,B,58.8076220005301,36.5394981549677,2.940381100026505,0.5739610948475218,B,576.9112069999665,Correct,sub_010_day_15_data.csv,1,300,133.0,Training at home,,,,,,,,,,,,,
10,15,3339,A,25.789917898958883,57.797836491938995,1.2894958949479445,0.907886292582298,A,493.2136239999636,Correct,sub_010_day_15_data.csv,1,300,133.0,Training at home,,,,,,,,,,,,,
10,15,3340,B,53.497422255171536,30.38199579221038,2.6748711127585767,0.4772392739110207,B,503.4825410000394,Correct,sub_010_day_15_data.csv,1,300,133.0,Training at home,,,,,,,,,,,,,
10,15,3341,B,85.21227381124022,65.99712100207417,4.260613690562011,1.0366803524909642,B,1058.8439569999082,Correct,sub_010_day_15_data.csv,1,300,133.0,Training at home,,,,,,,,,,,,,
10,15,3342,A,63.84703996828789,83.52662635757615,3.1923519984143947,1.3120331787205042,A,560.4141250000794,Correct,sub_010_day_15_data.csv,1,300,133.0,Training at home,,,,,,,,,,,,,
10,15,3343,B,55.440852346362135,30.965414645039345,2.7720426173181067,0.486403595821087,B,620.0569999998606,Correct,sub_010_day_15_data.csv,1,300,133.0,Training at home,,,,,,,,,,,,,
10,15,3344,B,64.78509432880573,55.55302025828556,3.239254716440286,0.8726248016407744,A,684.21379099982,Incorrect,sub_010_day_15_data.csv,0,300,133.0,Training at home,,,,,,,,,,,,,
10,15,3345,A,44.13157022029319,57.25864711963414,2.2065785110146594,0.899416725727665,A,494.8454159998618,Correct,sub_010_day_15_data.csv,1,300,133.0,Training at home,,,,,,,,,,,,,
10,15,3346,B,85.13524952213602,66.68050190783856,4.256762476106801,1.047414874656729,B,645.0887490000241,Correct,sub_010_day_15_data.csv,1,300,133.0,Training at home,,,,,,,,,,,,,
10,15,3347,B,54.22463125289733,41.05084003222625,2.711231562644867,0.6448250873446588,B,457.2141660000853,Correct,sub_010_day_15_data.csv,1,300,133.0,Training at home,,,,,,,,,,,,,
10,15,3348,B,43.53970456694721,23.633414622431157,2.1769852283473603,0.3712328087853565,B,588.9393329998711,Correct,sub_010_day_15_data.csv,1,300,133.0,Training at home,,,,,,,,,,,,,
10,15,3349,B,72.79295880644068,60.98579721404454,3.6396479403220336,0.957962662504796,B,663.6093750000782,Correct,sub_010_day_15_data.csv,1,300,133.0,Training at home,,,,,,,,,,,,,
10,15,3350,B,52.89375167700611,35.92193782639934,2.6446875838503052,0.5642604798906274,B,430.4711250001674,Correct,sub_010_day_15_data.csv,1,300,134.0,Training at home,,,,,,,,,,,,,
10,15,3351,B,83.2733816733751,59.63896672805929,4.163669083668754,0.9368066987027858,B,563.8286240000525,Correct,sub_010_day_15_data.csv,1,300,134.0,Training at home,,,,,,,,,,,,,
10,15,3352,B,64.07950607540897,39.69804532301474,3.2039753037704486,0.6235754377432887,B,507.7035830001933,Correct,sub_010_day_15_data.csv,1,300,134.0,Training at home,,,,,,,,,,,,,
10,15,3353,A,57.447487735392734,74.45807295681047,2.872374386769637,1.1695846750078431,A,644.7141240000747,Correct,sub_010_day_15_data.csv,1,300,134.0,Training at home,,,,,,,,,,,,,
10,15,3354,A,26.93939558686679,50.63854666537405,1.3469697793433395,0.7954284309620151,A,485.5914990000656,Correct,sub_010_day_15_data.csv,1,300,134.0,Training at home,,,,,,,,,,,,,
10,15,3355,B,44.10999208452468,35.17754587628086,2.2054996042262336,0.5525675984812093,A,707.1445819999553,Incorrect,sub_010_day_15_data.csv,0,300,134.0,Training at home,,,,,,,,,,,,,
10,15,3356,A,55.4425231194749,69.11896559387434,2.772126155973745,1.0857181726672065,A,555.4390820000208,Correct,sub_010_day_15_data.csv,1,300,134.0,Training at home,,,,,,,,,,,,,
10,15,3357,A,58.784657755711024,84.1821373908459,2.939232887785551,1.3223299219528404,A,467.6550409999436,Correct,sub_010_day_15_data.csv,1,300,134.0,Training at home,,,,,,,,,,,,,
10,15,3358,A,25.11179518395623,37.406333831141716,1.2555897591978116,0.5875773178082108,A,694.1457909999826,Correct,sub_010_day_15_data.csv,1,300,134.0,Training at home,,,,,,,,,,,,,
10,15,3359,A,31.727074672985264,50.522843102475754,1.5863537336492632,0.7936109636460379,A,525.6554159998359,Correct,sub_010_day_15_data.csv,1,300,134.0,Training at home,,,,,,,,,,,,,
10,15,3360,B,51.92219994458435,25.26401995691196,2.5961099972292176,0.3968462974839026,B,455.56933199986815,Correct,sub_010_day_15_data.csv,1,300,134.0,Training at home,,,,,,,,,,,,,
10,15,3361,A,33.83290720824933,66.18813567485624,1.6916453604124666,1.0396808039546643,A,434.2112490001,Correct,sub_010_day_15_data.csv,1,300,134.0,Training at home,,,,,,,,,,,,,
10,15,3362,B,70.29345737894468,49.6811186177725,3.514672868947234,0.7803891863585858,A,633.1266659999528,Incorrect,sub_010_day_15_data.csv,0,300,134.0,Training at home,,,,,,,,,,,,,
10,15,3363,A,36.62921341333416,47.4170067512442,1.831460670666708,0.7448246003246319,A,677.4798740000278,Correct,sub_010_day_15_data.csv,1,300,134.0,Training at home,,,,,,,,,,,,,
10,15,3364,A,33.75971717859625,42.49519818694711,1.6879858589298125,0.6675130121847767,A,653.7835409999389,Correct,sub_010_day_15_data.csv,1,300,134.0,Training at home,,,,,,,,,,,,,
10,15,3365,B,75.78791003161416,51.09910265284755,3.789395501580708,0.8026628274960828,B,516.6702910000822,Correct,sub_010_day_15_data.csv,1,300,134.0,Training at home,,,,,,,,,,,,,
10,15,3366,A,62.73316133207024,88.45172558741132,3.136658066603512,1.3893964565137589,A,511.7191249998996,Correct,sub_010_day_15_data.csv,1,300,134.0,Training at home,,,,,,,,,,,,,
10,15,3367,A,44.71139391015299,72.05151823240917,2.2355696955076496,1.1317826017946384,A,852.597249000155,Correct,sub_010_day_15_data.csv,1,300,134.0,Training at home,,,,,,,,,,,,,
10,15,3368,B,42.220775322482424,17.389314253228214,2.1110387661241212,0.2731507095445302,B,926.7149579998204,Correct,sub_010_day_15_data.csv,1,300,134.0,Training at home,,,,,,,,,,,,,
10,15,3369,A,39.53407201254673,67.28874038473505,1.9767036006273369,1.0569690623099723,A,648.9574570000514,Correct,sub_010_day_15_data.csv,1,300,134.0,Training at home,,,,,,,,,,,,,
10,15,3370,A,58.80265616030117,67.51752719229596,2.9401328080150586,1.0605628370793303,A,1015.0877490000312,Correct,sub_010_day_15_data.csv,1,300,134.0,Training at home,,,,,,,,,,,,,
10,15,3371,B,63.77182010652411,45.2796918309695,3.188591005326206,0.7112517360649177,B,1139.3451659998846,Correct,sub_010_day_15_data.csv,1,300,134.0,Training at home,,,,,,,,,,,,,
10,15,3372,A,23.76496678263231,45.74327103139535,1.1882483391316156,0.718533621116992,A,615.4464159999407,Correct,sub_010_day_15_data.csv,1,300,134.0,Training at home,,,,,,,,,,,,,
10,15,3373,B,76.30760374757146,61.704026393451954,3.8153801873785738,0.9692445800728968,B,857.0272490001116,Correct,sub_010_day_15_data.csv,1,300,134.0,Training at home,,,,,,,,,,,,,
10,15,3374,B,81.93042194996374,57.091743031212346,4.0965210974981865,0.8967950024374648,B,882.0433319999665,Correct,sub_010_day_15_data.csv,1,300,134.0,Training at home,,,,,,,,,,,,,
10,15,3375,B,68.92989271784168,50.221924871042354,3.446494635892084,0.788884151120026,B,674.4192489998113,Correct,sub_010_day_15_data.csv,1,300,135.0,Training at home,,,,,,,,,,,,,
10,15,3376,A,12.722283722182002,38.053065839453126,0.6361141861091001,0.5977361604389734,A,666.0636659999,Correct,sub_010_day_15_data.csv,1,300,135.0,Training at home,,,,,,,,,,,,,
10,15,3377,A,38.24644419565277,52.016718506285486,1.9123222097826384,0.8170767036159735,A,1182.1814580000591,Correct,sub_010_day_15_data.csv,1,300,135.0,Training at home,,,,,,,,,,,,,
10,15,3378,B,43.87210438069221,33.36106473367588,2.1936052190346103,0.5240343794162484,B,575.7348330000696,Correct,sub_010_day_15_data.csv,1,300,135.0,Training at home,,,,,,,,,,,,,
10,15,3379,A,33.11135513956334,54.63362348894235,1.6555677569781668,0.8581829509592602,A,454.29474899992783,Correct,sub_010_day_15_data.csv,1,300,135.0,Training at home,,,,,,,,,,,,,
10,15,3380,A,34.00484990497298,50.16830082777235,1.700242495248649,0.7880418266180617,A,729.8824990000412,Correct,sub_010_day_15_data.csv,1,300,135.0,Training at home,,,,,,,,,,,,,
10,15,3381,A,37.908323570117744,52.58108382412472,1.8954161785058872,0.8259417332982966,A,717.499749000126,Correct,sub_010_day_15_data.csv,1,300,135.0,Training at home,,,,,,,,,,,,,
10,15,3382,B,67.07830299480874,48.41013458581847,3.3539151497404367,0.7604246158705023,B,871.8898740000895,Correct,sub_010_day_15_data.csv,1,300,135.0,Training at home,,,,,,,,,,,,,
10,15,3383,B,56.00838340428071,46.73802263087524,2.8004191702140355,0.7341591427023557,B,788.2269159999851,Correct,sub_010_day_15_data.csv,1,300,135.0,Training at home,,,,,,,,,,,,,
10,15,3384,A,33.852791924819016,51.5408565648502,1.6926395962409508,0.8096018817192933,A,483.091874000138,Correct,sub_010_day_15_data.csv,1,300,135.0,Training at home,,,,,,,,,,,,,
10,15,3385,B,71.35620890107657,48.660523388293555,3.5678104450538286,0.7643577139824868,B,527.3338329998296,Correct,sub_010_day_15_data.csv,1,300,135.0,Training at home,,,,,,,,,,,,,
10,15,3386,B,81.19930351094932,53.454905666567576,4.059965175547466,0.8396676947021205,B,605.7872080000379,Correct,sub_010_day_15_data.csv,1,300,135.0,Training at home,,,,,,,,,,,,,
10,15,3387,A,32.16684195245884,53.615748470838135,1.608342097622942,0.8421942075635165,A,484.8387490001187,Correct,sub_010_day_15_data.csv,1,300,135.0,Training at home,,,,,,,,,,,,,
10,15,3388,A,50.03403467596,79.85699182311119,2.5017017337980003,1.2543906942463314,A,540.5004159999862,Correct,sub_010_day_15_data.csv,1,300,135.0,Training at home,,,,,,,,,,,,,
10,15,3389,B,78.2317693354425,46.21516541582377,3.911588466772125,0.725946120773945,B,581.7337080000016,Correct,sub_010_day_15_data.csv,1,300,135.0,Training at home,,,,,,,,,,,,,
10,15,3390,A,39.79382517419423,62.35544119470462,1.989691258709712,0.979476979843172,A,520.507791,Correct,sub_010_day_15_data.csv,1,300,135.0,Training at home,,,,,,,,,,,,,
10,15,3391,B,56.748861534548624,37.795567077070906,2.837443076727431,0.5936913793379311,B,613.3481659999234,Correct,sub_010_day_15_data.csv,1,300,135.0,Training at home,,,,,,,,,,,,,
10,15,3392,B,46.95588561427414,25.860900613942775,2.347794280713707,0.406222076919892,B,477.13512400014224,Correct,sub_010_day_15_data.csv,1,300,135.0,Training at home,,,,,,,,,,,,,
10,15,3393,B,33.33904920646159,16.43990832280318,1.6669524603230794,0.2582374760630408,B,680.051666000054,Correct,sub_010_day_15_data.csv,1,300,135.0,Training at home,,,,,,,,,,,,,
10,15,3394,A,51.60307293891351,63.56521092826799,2.5801536469456754,0.9984799983806618,A,1824.0363739998884,Correct,sub_010_day_15_data.csv,1,300,135.0,Training at home,,,,,,,,,,,,,
10,15,3395,A,38.641190685482734,68.27098355213799,1.932059534274137,1.0723981019037316,A,674.21212499994,Correct,sub_010_day_15_data.csv,1,300,135.0,Training at home,,,,,,,,,,,,,
10,15,3396,B,55.09260602983894,45.63338222082131,2.754630301491947,0.7168074917169365,B,836.717249000003,Correct,sub_010_day_15_data.csv,1,300,135.0,Training at home,,,,,,,,,,,,,
10,15,3397,B,64.15696028103973,40.62491746410083,3.2078480140519865,0.6381347112895543,B,516.3431660000697,Correct,sub_010_day_15_data.csv,1,300,135.0,Training at home,,,,,,,,,,,,,
10,15,3398,A,17.24579101562217,36.94058752624983,0.8622895507811086,0.580261391958786,A,569.6393319999515,Correct,sub_010_day_15_data.csv,1,300,135.0,Training at home,,,,,,,,,,,,,
10,15,3399,B,39.60085656254997,17.838011101867018,1.980042828127498,0.280198823161393,B,530.0195410000015,Correct,sub_010_day_15_data.csv,1,300,135.0,Training at home,,,,,,,,,,,,,
10,15,3400,B,65.41386879830021,45.948741559585216,3.2706934399150107,0.7217611446264447,B,526.822583000012,Correct,sub_010_day_15_data.csv,1,300,136.0,Training at home,,,,,,,,,,,,,
10,15,3401,B,71.5625947319535,54.27352012350506,3.5781297365976745,0.8525264605223065,B,677.3578739998811,Correct,sub_010_day_15_data.csv,1,300,136.0,Training at home,,,,,,,,,,,,,
10,15,3402,B,53.853294770221694,32.10189424900565,2.6926647385110845,0.5042553756949629,B,701.0031239999535,Correct,sub_010_day_15_data.csv,1,300,136.0,Training at home,,,,,,,,,,,,,
10,15,3403,B,69.20219545631785,47.48601839096469,3.4601097728158923,0.7459086326264224,B,716.6072909999457,Correct,sub_010_day_15_data.csv,1,300,136.0,Training at home,,,,,,,,,,,,,
10,15,3404,A,51.496468073163115,66.45754767553969,2.5748234036581557,1.0439127177653444,A,519.7752910000872,Correct,sub_010_day_15_data.csv,1,300,136.0,Training at home,,,,,,,,,,,,,
10,15,3405,A,28.48485844084378,52.10343668325231,1.4242429220421888,0.818438869554432,A,524.8434989998714,Correct,sub_010_day_15_data.csv,1,300,136.0,Training at home,,,,,,,,,,,,,
10,15,3406,B,59.51968907316298,45.01354746603344,2.975984453658149,0.7070711501565305,B,550.6393329999355,Correct,sub_010_day_15_data.csv,1,300,136.0,Training at home,,,,,,,,,,,,,
10,15,3407,A,55.84018598273925,80.40240003151764,2.7920092991369625,1.2629579463500178,A,818.9113739999812,Correct,sub_010_day_15_data.csv,1,300,136.0,Training at home,,,,,,,,,,,,,
10,15,3408,B,58.315060628751205,38.64636506405201,2.91575303143756,0.6070556828658751,B,959.29304099991,Correct,sub_010_day_15_data.csv,1,300,136.0,Training at home,,,,,,,,,,,,,
10,15,3409,A,20.52241781867148,51.05029128116203,1.0261208909335735,0.8018961002625886,A,567.1682489999057,Correct,sub_010_day_15_data.csv,1,300,136.0,Training at home,,,,,,,,,,,,,
10,15,3410,B,62.11674312078929,31.670367175671338,3.105837156039464,0.497476964277902,B,680.5429159999221,Correct,sub_010_day_15_data.csv,1,300,136.0,Training at home,,,,,,,,,,,,,
10,15,3411,A,27.058358719830476,53.642964887433486,1.3529179359915238,0.8426217220356814,A,656.8634160000784,Correct,sub_010_day_15_data.csv,1,300,136.0,Training at home,,,,,,,,,,,,,
10,15,3412,A,59.56724410500986,85.40512998489108,2.9783622052504932,1.341540644697076,A,451.0921250000592,Correct,sub_010_day_15_data.csv,1,300,136.0,Training at home,,,,,,,,,,,,,
10,15,3413,B,57.464280133395576,27.235769806630067,2.8732140066697784,0.4278184716968586,B,430.81637399996,Correct,sub_010_day_15_data.csv,1,300,136.0,Training at home,,,,,,,,,,,,,
10,15,3414,A,21.591342848953577,34.51987234981687,1.0795671424476787,0.5422368868852107,A,761.416749999853,Correct,sub_010_day_15_data.csv,1,300,136.0,Training at home,,,,,,,,,,,,,
10,15,3415,B,40.37247917920996,22.454951793013404,2.018623958960498,0.3527215579482193,B,897.1044160000474,Correct,sub_010_day_15_data.csv,1,300,136.0,Training at home,,,,,,,,,,,,,
10,15,3416,A,52.27935796415792,82.97015027862709,2.6139678982078967,1.30329207291288,A,450.3703329999098,Correct,sub_010_day_15_data.csv,1,300,136.0,Training at home,,,,,,,,,,,,,
10,15,3417,A,46.88648420557646,65.94046162348863,2.344324210278823,1.0357903490533578,A,630.0857910000559,Correct,sub_010_day_15_data.csv,1,300,136.0,Training at home,,,,,,,,,,,,,
10,15,3418,A,43.36533525599198,68.53183534538624,2.168266762799598,1.0764955522904536,A,492.1792909999567,Correct,sub_010_day_15_data.csv,1,300,136.0,Training at home,,,,,,,,,,,,,
10,15,3419,A,11.66990527952568,36.6592058511098,0.5834952639762839,0.5758414589414126,A,771.4557499998591,Correct,sub_010_day_15_data.csv,1,300,136.0,Training at home,,,,,,,,,,,,,
10,15,3420,B,84.45194136058345,55.98878075242625,4.222597068029172,0.8794697114763597,B,764.2081240001062,Correct,sub_010_day_15_data.csv,1,300,136.0,Training at home,,,,,,,,,,,,,
10,15,3421,A,29.13745355228892,51.533754702330285,1.4568726776144458,0.8094903259236964,A,603.0202490001102,Correct,sub_010_day_15_data.csv,1,300,136.0,Training at home,,,,,,,,,,,,,
10,15,3422,A,41.784900352736294,74.4800081765034,2.0892450176368147,1.1699292326330542,A,601.4972080001826,Correct,sub_010_day_15_data.csv,1,300,136.0,Training at home,,,,,,,,,,,,,
10,15,3423,A,39.50343939320635,69.25027122184177,1.9751719696603176,1.087780716648194,A,833.5505830000329,Correct,sub_010_day_15_data.csv,1,300,136.0,Training at home,,,,,,,,,,,,,
10,15,3424,A,33.79401002118373,42.44569029696483,1.6897005010591866,0.6667353440674614,A,670.1420409999628,Correct,sub_010_day_15_data.csv,1,300,136.0,Training at home,,,,,,,,,,,,,
10,15,3425,A,61.14739622544414,72.42160659000257,3.057369811272207,1.137595936121611,A,610.0727499997447,Correct,sub_010_day_15_data.csv,1,300,137.0,Training at home,,,,,,,,,,,,,
10,15,3426,A,32.97482731434196,52.614738464735616,1.6487413657170975,0.8264703791568085,A,622.491957999955,Correct,sub_010_day_15_data.csv,1,300,137.0,Training at home,,,,,,,,,,,,,
10,15,3427,A,46.02255358261361,62.458655818704464,2.3011276791306807,0.9810982713656768,A,833.9365410001847,Correct,sub_010_day_15_data.csv,1,300,137.0,Training at home,,,,,,,,,,,,,
10,15,3428,A,45.2614676496214,61.60693580450656,2.2630733824810703,0.9677194846680792,A,932.0343319996028,Correct,sub_010_day_15_data.csv,1,300,137.0,Training at home,,,,,,,,,,,,,
10,15,3429,A,44.7539838650809,56.18728623295915,2.237699193254045,0.8825878282730569,A,846.6273330000149,Correct,sub_010_day_15_data.csv,1,300,137.0,Training at home,,,,,,,,,,,,,
10,15,3430,B,45.97860906728032,31.71790828549212,2.298930453364016,0.4982237382846844,B,950.556332999895,Correct,sub_010_day_15_data.csv,1,300,137.0,Training at home,,,,,,,,,,,,,
10,15,3431,A,49.94588859202496,66.74577247268799,2.497294429601248,1.048440142291862,A,542.9252909998468,Correct,sub_010_day_15_data.csv,1,300,137.0,Training at home,,,,,,,,,,,,,
10,15,3432,B,83.14173978311135,54.12592270940521,4.157086989155568,0.8502080057631818,B,611.9672489999175,Correct,sub_010_day_15_data.csv,1,300,137.0,Training at home,,,,,,,,,,,,,
10,15,3433,A,30.2053644450954,41.87350217513074,1.51026822225477,0.6577474340673348,A,484.50279099961335,Correct,sub_010_day_15_data.csv,1,300,137.0,Training at home,,,,,,,,,,,,,
10,15,3434,A,36.315961504448886,43.76302476277248,1.8157980752224443,0.6874279854679711,B,855.9544160002588,Incorrect,sub_010_day_15_data.csv,0,300,137.0,Training at home,,,,,,,,,,,,,
10,15,3435,A,13.016687957368184,36.49750939747889,0.6508343978684092,0.5733015369872206,A,463.2904999998573,Correct,sub_010_day_15_data.csv,1,300,137.0,Training at home,,,,,,,,,,,,,
10,15,3436,B,50.81891094334324,26.441538042042836,2.540945547167162,0.415342708312484,B,578.8661240003421,Correct,sub_010_day_15_data.csv,1,300,137.0,Training at home,,,,,,,,,,,,,
10,15,3437,A,39.62098940081873,68.41641772279259,1.9810494700409365,1.074682576514279,A,467.3700829998779,Correct,sub_010_day_15_data.csv,1,300,137.0,Training at home,,,,,,,,,,,,,
10,15,3438,A,50.92986358660954,67.32713612082719,2.546493179330477,1.0575721811221537,A,792.6089160000629,Correct,sub_010_day_15_data.csv,1,300,137.0,Training at home,,,,,,,,,,,,,
10,15,3439,B,63.512866569683105,30.221465980738856,3.175643328484155,0.4747176775290152,B,588.6851660002321,Correct,sub_010_day_15_data.csv,1,300,137.0,Training at home,,,,,,,,,,,,,
10,15,3440,B,70.35996632500532,46.749234419765585,3.5179983162502655,0.7343352570704134,B,1527.767873999892,Correct,sub_010_day_15_data.csv,1,300,137.0,Training at home,,,,,,,,,,,,,
10,15,3441,A,51.89505152690677,60.85560804579792,2.5947525763453383,0.9559176558320932,A,651.8429990001096,Correct,sub_010_day_15_data.csv,1,300,137.0,Training at home,,,,,,,,,,,,,
10,15,3442,B,50.43611535666538,30.728442450079832,2.521805767833269,0.4826812452871377,B,462.6092079997761,Correct,sub_010_day_15_data.csv,1,300,137.0,Training at home,,,,,,,,,,,,,
10,15,3443,B,75.43433840246249,43.93458966582179,3.771716920123124,0.6901229206631389,B,507.95824900023945,Correct,sub_010_day_15_data.csv,1,300,137.0,Training at home,,,,,,,,,,,,,
10,15,3444,B,63.11727613974949,34.52963948186969,3.1558638069874747,0.5423903086367293,B,644.7257489999174,Correct,sub_010_day_15_data.csv,1,300,137.0,Training at home,,,,,,,,,,,,,
10,15,3445,B,63.898214494754704,50.2887646827746,3.194910724737735,0.7899340684275526,B,714.5715410001685,Correct,sub_010_day_15_data.csv,1,300,137.0,Training at home,,,,,,,,,,,,,
10,15,3446,A,56.149914301964245,71.38281013119402,2.8074957150982125,1.1212785595037706,A,693.8771659997656,Correct,sub_010_day_15_data.csv,1,300,137.0,Training at home,,,,,,,,,,,,,
10,15,3447,A,40.02080845852574,61.24780231936847,2.001040422926287,0.9620782290752394,A,1612.7593749997686,Correct,sub_010_day_15_data.csv,1,300,137.0,Training at home,,,,,,,,,,,,,
10,15,3448,A,50.184276244367325,78.03482098576927,2.5092138122183663,1.2257681016654367,A,1181.8752079998376,Correct,sub_010_day_15_data.csv,1,300,137.0,Training at home,,,,,,,,,,,,,
10,15,3449,A,54.57753616991289,63.066412526108394,2.7288768084956443,0.9906448914014272,A,1051.606040999559,Correct,sub_010_day_15_data.csv,1,300,137.0,Training at home,,,,,,,,,,,,,
10,15,3450,A,39.199878689431394,52.668043043680335,1.9599939344715696,0.8273076855248859,A,1009.52579099976,Correct,sub_010_day_15_data.csv,1,300,138.0,Training at home,,,,,,,,,,,,,
10,15,3451,B,56.00473615523068,24.550937294269517,2.800236807761534,0.385645221212104,B,796.763249000378,Correct,sub_010_day_15_data.csv,1,300,138.0,Training at home,,,,,,,,,,,,,
10,15,3452,A,19.172831116414812,40.5891201929541,0.9586415558207406,0.6375724090692886,A,725.8517079999365,Correct,sub_010_day_15_data.csv,1,300,138.0,Training at home,,,,,,,,,,,,,
10,15,3453,B,74.47107061902538,62.44720337005384,3.7235535309512695,0.9809183767229448,B,784.8221250001188,Correct,sub_010_day_15_data.csv,1,300,138.0,Training at home,,,,,,,,,,,,,
10,15,3454,A,42.57051982352303,52.5175463580377,2.1285259911761516,0.8249436891148632,A,720.0419999999212,Correct,sub_010_day_15_data.csv,1,300,138.0,Training at home,,,,,,,,,,,,,
10,15,3455,B,82.9140709400467,60.67072164530115,4.145703547002335,0.9530134670443468,B,615.6026660000862,Correct,sub_010_day_15_data.csv,1,300,138.0,Training at home,,,,,,,,,,,,,
10,15,3456,B,40.39019655112641,14.430207968618962,2.01950982755632,0.2266691767199311,B,770.2891240001009,Correct,sub_010_day_15_data.csv,1,300,138.0,Training at home,,,,,,,,,,,,,
10,15,3457,B,75.45688258408418,64.48875431201829,3.7728441292042088,1.012986983928969,B,703.4788740002114,Correct,sub_010_day_15_data.csv,1,300,138.0,Training at home,,,,,,,,,,,,,
10,15,3458,B,52.8837757494064,23.302292728388647,2.6441887874703194,0.3660315582365231,B,758.7417489999098,Correct,sub_010_day_15_data.csv,1,300,138.0,Training at home,,,,,,,,,,,,,
10,15,3459,B,88.08111246221921,65.97232042507011,4.404055623110961,1.0362907859383603,B,1059.6947489998456,Correct,sub_010_day_15_data.csv,1,300,138.0,Training at home,,,,,,,,,,,,,
10,15,3460,B,33.483225805237964,19.050555821836333,1.6741612902618983,0.2992454310834164,B,375.0553330000912,Correct,sub_010_day_15_data.csv,1,300,138.0,Training at home,,,,,,,,,,,,,
10,15,3461,B,42.92571046926573,24.005743812245115,2.146285523463286,0.3770813420225394,B,1760.6923319999623,Correct,sub_010_day_15_data.csv,1,300,138.0,Training at home,,,,,,,,,,,,,
10,15,3462,A,42.58385060264335,67.32751844146128,2.1291925301321672,1.0575781866006304,A,1937.95445700016,Correct,sub_010_day_15_data.csv,1,300,138.0,Training at home,,,,,,,,,,,,,
10,15,3463,B,79.11052867878774,53.08139663173582,3.9555264339393874,0.8338006285027362,B,1000.9336240000266,Correct,sub_010_day_15_data.csv,1,300,138.0,Training at home,,,,,,,,,,,,,
10,15,3464,B,56.19319108812359,38.09232898590681,2.8096595544061795,0.5983529045012519,B,917.0414579998578,Correct,sub_010_day_15_data.csv,1,300,138.0,Training at home,,,,,,,,,,,,,
10,15,3465,A,56.23945980817652,75.09383582631955,2.8119729904088264,1.1795712148092174,A,662.288166000053,Correct,sub_010_day_15_data.csv,1,300,138.0,Training at home,,,,,,,,,,,,,
10,15,3466,A,50.21357498966021,68.63819171221125,2.5106787494830103,1.0781661941938534,A,575.3805819999798,Correct,sub_010_day_15_data.csv,1,300,138.0,Training at home,,,,,,,,,,,,,
10,15,3467,A,58.36203760666498,69.66641638865875,2.918101880333249,1.0943175096426894,A,788.1849159998637,Correct,sub_010_day_15_data.csv,1,300,138.0,Training at home,,,,,,,,,,,,,
10,15,3468,B,85.9268762741408,63.93163924060075,4.29634381370704,1.0042358408511214,B,605.9187079999901,Correct,sub_010_day_15_data.csv,1,300,138.0,Training at home,,,,,,,,,,,,,
10,15,3469,A,38.05149528218264,64.98941388485191,1.902574764109132,1.0208513261087864,A,801.7328740002085,Correct,sub_010_day_15_data.csv,1,300,138.0,Training at home,,,,,,,,,,,,,
10,15,3470,B,52.32179248868091,37.37824422576983,2.6160896244340455,0.5871360873188181,B,491.8804160001855,Correct,sub_010_day_15_data.csv,1,300,138.0,Training at home,,,,,,,,,,,,,
10,15,3471,B,59.59592152640502,34.65508719533138,2.9797960763202513,0.5443608367118339,B,499.992291000126,Correct,sub_010_day_15_data.csv,1,300,138.0,Training at home,,,,,,,,,,,,,
10,15,3472,B,31.950152322615097,17.665122221262205,1.5975076161307549,0.2774830909754157,B,486.21891599987066,Correct,sub_010_day_15_data.csv,1,300,138.0,Training at home,,,,,,,,,,,,,
10,15,3473,A,12.876402804830498,36.35456884756532,0.6438201402415248,0.5710562320796778,A,468.7609160000647,Correct,sub_010_day_15_data.csv,1,300,138.0,Training at home,,,,,,,,,,,,,
10,15,3474,A,24.507638735892844,56.59104183596702,1.225381936794642,0.8889300064543332,A,560.7585829998243,Correct,sub_010_day_15_data.csv,1,300,138.0,Training at home,,,,,,,,,,,,,
10,15,3475,B,54.92899132838743,44.35345548869297,2.7464495664193715,0.6967024496229985,B,690.3198330001032,Correct,sub_010_day_15_data.csv,1,300,139.0,Training at home,,,,,,,,,,,,,
10,15,3476,B,56.82850282348337,29.59960091554444,2.8414251411741684,0.4649494439273205,B,603.9309160000812,Correct,sub_010_day_15_data.csv,1,300,139.0,Training at home,,,,,,,,,,,,,
10,15,3477,B,73.76653081266146,60.19439282479995,3.688326540633073,0.9455313114284484,A,767.5295409999308,Incorrect,sub_010_day_15_data.csv,0,300,139.0,Training at home,,,,,,,,,,,,,
10,15,3478,A,27.71424034468223,43.1438864081641,1.3857120172341115,0.6777025829360043,A,628.0259159998423,Correct,sub_010_day_15_data.csv,1,300,139.0,Training at home,,,,,,,,,,,,,
10,15,3479,A,36.81955372894195,65.98064510318198,1.8409776864470973,1.0364215496763596,A,556.111582000085,Correct,sub_010_day_15_data.csv,1,300,139.0,Training at home,,,,,,,,,,,,,
10,15,3480,B,50.8262107381702,41.94491729701056,2.54131053690851,0.6588692201785992,B,952.8955000000678,Correct,sub_010_day_15_data.csv,1,300,139.0,Training at home,,,,,,,,,,,,,
10,15,3481,A,40.40037069239221,54.613199570018665,2.0200185346196107,0.8578621327910195,A,1077.9156239996155,Correct,sub_010_day_15_data.csv,1,300,139.0,Training at home,,,,,,,,,,,,,
10,15,3482,B,66.88470066071636,44.21608007977368,3.344235033035818,0.694544561745775,B,846.9899159999841,Correct,sub_010_day_15_data.csv,1,300,139.0,Training at home,,,,,,,,,,,,,
10,15,3483,A,58.48844326503983,86.75715475485264,2.9244221632519913,1.3627782001209892,A,811.110706999898,Correct,sub_010_day_15_data.csv,1,300,139.0,Training at home,,,,,,,,,,,,,
10,15,3484,B,60.975957119922334,45.250004994179946,3.048797855996117,0.7107854163230859,B,715.3560409997226,Correct,sub_010_day_15_data.csv,1,300,139.0,Training at home,,,,,,,,,,,,,
10,15,3485,B,68.79717799369531,52.360432673274744,3.4398588996847654,0.8224757531257144,A,1261.62475000001,Incorrect,sub_010_day_15_data.csv,0,300,139.0,Training at home,,,,,,,,,,,,,
10,15,3486,B,68.92543485227054,60.31197444985996,3.446271742613527,0.9473782792758768,B,1208.0729570002404,Correct,sub_010_day_15_data.csv,1,300,139.0,Training at home,,,,,,,,,,,,,
10,15,3487,A,51.97932712766341,68.84287014842602,2.5989663563831704,1.0813812755516563,B,785.0899999998546,Incorrect,sub_010_day_15_data.csv,0,300,139.0,Training at home,,,,,,,,,,,,,
10,15,3488,B,55.00818996745592,30.937497835540736,2.750409498372796,0.4859650796029245,B,567.0426660003614,Correct,sub_010_day_15_data.csv,1,300,139.0,Training at home,,,,,,,,,,,,,
10,15,3489,B,63.17621070265994,31.325772697595102,3.1588105351329965,0.4920640868739425,B,608.7479580000945,Correct,sub_010_day_15_data.csv,1,300,139.0,Training at home,,,,,,,,,,,,,
10,15,3490,B,68.96049012056066,44.33140136196343,3.4480245060280335,0.6963560242104243,B,764.5446659998925,Correct,sub_010_day_15_data.csv,1,300,139.0,Training at home,,,,,,,,,,,,,
10,15,3491,A,22.716827845139388,36.01769438220744,1.1358413922569697,0.5657646203519262,A,755.9459999997671,Correct,sub_010_day_15_data.csv,1,300,139.0,Training at home,,,,,,,,,,,,,
10,15,3492,A,39.348217466547965,68.6107348319066,1.9674108733273985,1.0777349025265754,A,611.0359569997854,Correct,sub_010_day_15_data.csv,1,300,139.0,Training at home,,,,,,,,,,,,,
10,15,3493,B,33.9957618032324,20.977005056617596,1.6997880901616198,0.3295060249009289,B,593.752540999958,Correct,sub_010_day_15_data.csv,1,300,139.0,Training at home,,,,,,,,,,,,,
10,15,3494,A,31.20572606717846,62.62377885054772,1.560286303358923,0.983692017884563,A,820.8605410000018,Correct,sub_010_day_15_data.csv,1,300,139.0,Training at home,,,,,,,,,,,,,
10,15,3495,A,53.42832385277232,71.91145648341984,2.6714161926386164,1.1295825169862694,A,922.8643750002448,Correct,sub_010_day_15_data.csv,1,300,139.0,Training at home,,,,,,,,,,,,,
10,15,3496,A,35.21414974491287,68.31042994906792,1.7607074872456436,1.0730177244577597,A,793.7185830000999,Correct,sub_010_day_15_data.csv,1,300,139.0,Training at home,,,,,,,,,,,,,
10,15,3497,B,76.74522800642474,48.071396809026126,3.837261400321237,0.7551037353151816,B,805.7407070000409,Correct,sub_010_day_15_data.csv,1,300,139.0,Training at home,,,,,,,,,,,,,
10,15,3498,A,43.631626795173155,63.18145107133402,2.1815813397586576,0.9924519126442296,A,670.4534989999047,Correct,sub_010_day_15_data.csv,1,300,139.0,Training at home,,,,,,,,,,,,,
10,15,3499,B,45.15695962863279,26.634965957260995,2.2578479814316395,0.4183810668997269,B,829.4370409998919,Correct,sub_010_day_15_data.csv,1,300,139.0,Training at home,,,,,,,,,,,,,
10,15,3500,A,34.47977701635288,65.15367287450252,1.7239888508176435,1.0234315002846484,A,633.0946660000336,Correct,sub_010_day_15_data.csv,1,300,140.0,Training at home,,,,,,,,,,,,,
10,15,3501,A,26.20266653707929,43.29886907115811,1.3101333268539646,0.6801370449134831,A,697.3473320003905,Correct,sub_010_day_15_data.csv,1,300,140.0,Training at home,,,,,,,,,,,,,
10,15,3502,B,36.3261230679128,22.015641748275353,1.8163061533956404,0.345820891902233,B,428.6740829998053,Correct,sub_010_day_15_data.csv,1,300,140.0,Training at home,,,,,,,,,,,,,
10,15,3503,B,65.59146998048635,51.79804282358192,3.2795734990243175,0.8136417540244724,B,561.822957000004,Correct,sub_010_day_15_data.csv,1,300,140.0,Training at home,,,,,,,,,,,,,
10,15,3504,B,38.526524257629525,14.87724772748746,1.926326212881476,0.2336912608315502,B,629.8323329997402,Correct,sub_010_day_15_data.csv,1,300,140.0,Training at home,,,,,,,,,,,,,
10,15,3505,A,37.5696842340575,57.59742585672907,1.8784842117028748,0.904738249685914,A,1169.7967079999216,Correct,sub_010_day_15_data.csv,1,300,140.0,Training at home,,,,,,,,,,,,,
10,15,3506,B,51.31352776307702,34.28435891952192,2.5656763881538507,0.5385374505730288,B,800.0303329999952,Correct,sub_010_day_15_data.csv,1,300,140.0,Training at home,,,,,,,,,,,,,
10,15,3507,A,12.436214579760712,33.552953269896875,0.6218107289880357,0.5270485574947483,A,1797.9261239997868,Correct,sub_010_day_15_data.csv,1,300,140.0,Training at home,,,,,,,,,,,,,
10,15,3508,B,38.0987666488492,12.420000474295232,1.90493833244246,0.1950929112381382,B,1754.2005000000245,Correct,sub_010_day_15_data.csv,1,300,140.0,Training at home,,,,,,,,,,,,,
10,15,3509,B,62.682540030029635,54.3274153919044,3.1341270015014815,0.8533730454186396,B,696.9580410000162,Correct,sub_010_day_15_data.csv,1,300,140.0,Training at home,,,,,,,,,,,,,
10,15,3510,A,30.43127528955688,43.83603737766657,1.521563764477844,0.6885748649408244,A,1349.2494160000206,Correct,sub_010_day_15_data.csv,1,300,140.0,Training at home,,,,,,,,,,,,,
10,15,3511,B,67.40160699419852,57.44648454424204,3.3700803497099256,0.9023672690937518,B,1139.2193329998008,Correct,sub_010_day_15_data.csv,1,300,140.0,Training at home,,,,,,,,,,,,,
10,15,3512,A,49.56551344002601,68.38109394955752,2.4782756720013004,1.074127711981817,A,699.4936660003077,Correct,sub_010_day_15_data.csv,1,300,140.0,Training at home,,,,,,,,,,,,,
10,15,3513,B,31.894459275305657,16.028190385600052,1.5947229637652829,0.2517702258286984,B,589.4129160001285,Correct,sub_010_day_15_data.csv,1,300,140.0,Training at home,,,,,,,,,,,,,
10,15,3514,A,24.5537703582159,51.32637005385474,1.227688517910795,0.8062327354831061,A,518.57870799995,Correct,sub_010_day_15_data.csv,1,300,140.0,Training at home,,,,,,,,,,,,,
10,15,3515,A,45.972445999262995,71.23818366780057,2.29862229996315,1.1190067723292132,A,592.6835830000527,Correct,sub_010_day_15_data.csv,1,300,140.0,Training at home,,,,,,,,,,,,,
10,15,3516,A,22.134911024991336,51.69480598928327,1.1067455512495668,0.8120201136234096,A,793.9743330002784,Correct,sub_010_day_15_data.csv,1,300,140.0,Training at home,,,,,,,,,,,,,
10,15,3517,B,68.60590350032233,45.50961415829208,3.4302951750161164,0.7148633475369822,B,819.6579579998797,Correct,sub_010_day_15_data.csv,1,300,140.0,Training at home,,,,,,,,,,,,,
10,15,3518,A,20.741039256842164,51.02323322700696,1.0370519628421082,0.8014710733418186,A,1264.7008330000062,Correct,sub_010_day_15_data.csv,1,300,140.0,Training at home,,,,,,,,,,,,,
10,15,3519,A,35.199512295239394,65.24708997883617,1.7599756147619698,1.0248988927281195,A,2104.5814999997674,Correct,sub_010_day_15_data.csv,1,300,140.0,Training at home,,,,,,,,,,,,,
10,15,3520,B,64.53377007499772,50.47416998480489,3.226688503749886,0.7928464081015275,A,1607.3961239999337,Incorrect,sub_010_day_15_data.csv,0,300,140.0,Training at home,,,,,,,,,,,,,
10,15,3521,B,35.594477927352116,19.97979455744113,1.7797238963676056,0.313841879009452,B,773.990416000288,Correct,sub_010_day_15_data.csv,1,300,140.0,Training at home,,,,,,,,,,,,,
10,15,3522,B,73.02134939603795,43.13048825005291,3.6510674698018977,0.6774921251605357,B,820.6364579996261,Correct,sub_010_day_15_data.csv,1,300,140.0,Training at home,,,,,,,,,,,,,
10,15,3523,B,80.09244942091901,61.66459748781829,4.004622471045951,0.968625232271508,B,977.5541659996634,Correct,sub_010_day_15_data.csv,1,300,140.0,Training at home,,,,,,,,,,,,,
10,15,3524,B,60.70055428941811,37.1180252938789,3.0350277144709055,0.5830485778950505,B,967.336165999768,Correct,sub_010_day_15_data.csv,1,300,140.0,Training at home,,,,,,,,,,,,,
10,15,3525,B,35.85119902845467,18.06796162690474,1.7925599514227335,0.2838108775621311,B,600.3074999998717,Correct,sub_010_day_15_data.csv,1,300,141.0,Training at home,,,,,,,,,,,,,
10,15,3526,B,74.75203423218605,42.35444472524321,3.7376017116093023,0.6653020619784952,B,436.6360409999288,Correct,sub_010_day_15_data.csv,1,300,141.0,Training at home,,,,,,,,,,,,,
10,15,3527,A,39.091395225237314,50.79274507681686,1.9545697612618655,0.7978505739449347,A,509.91620800004966,Correct,sub_010_day_15_data.csv,1,300,141.0,Training at home,,,,,,,,,,,,,
10,15,3528,B,38.73132903338808,14.128059699640858,1.936566451669404,0.2219230428093487,B,560.0365830000555,Correct,sub_010_day_15_data.csv,1,300,141.0,Training at home,,,,,,,,,,,,,
10,15,3529,B,75.46127485402543,44.96195214487361,3.773063742701272,0.7062606927469539,B,633.8303739998992,Correct,sub_010_day_15_data.csv,1,300,141.0,Training at home,,,,,,,,,,,,,
10,15,3530,A,56.24964883602418,81.34899169691116,2.8124824418012087,1.2778269734597658,A,461.7621659999714,Correct,sub_010_day_15_data.csv,1,300,141.0,Training at home,,,,,,,,,,,,,
10,15,3531,B,74.91588613777489,57.04762502669901,3.7457943068887447,0.8961019984431142,B,765.9366240000054,Correct,sub_010_day_15_data.csv,1,300,141.0,Training at home,,,,,,,,,,,,,
10,15,3532,B,49.46401373665595,32.27485489637254,2.4732006868327976,0.5069722351906027,B,604.0625410000757,Correct,sub_010_day_15_data.csv,1,300,141.0,Training at home,,,,,,,,,,,,,
10,15,3533,B,56.05502288543643,39.42249622767047,2.802751144271822,0.6192471226751043,B,459.8426239999754,Correct,sub_010_day_15_data.csv,1,300,141.0,Training at home,,,,,,,,,,,,,
10,15,3534,A,44.33726735930771,51.62623024171299,2.2168633679653853,0.8109429282995038,B,504.2585829996824,Incorrect,sub_010_day_15_data.csv,0,300,141.0,Training at home,,,,,,,,,,,,,
10,15,3535,B,47.30979939125477,31.709436063392005,2.3654899695627387,0.4980906569311378,B,881.7567910000434,Correct,sub_010_day_15_data.csv,1,300,141.0,Training at home,,,,,,,,,,,,,
10,15,3536,A,40.73344225220758,72.75750516206405,2.036672112610379,1.1428722185533096,A,801.8384580000202,Correct,sub_010_day_15_data.csv,1,300,141.0,Training at home,,,,,,,,,,,,,
10,15,3537,B,45.57798931904429,32.873546701890255,2.2788994659522146,0.5163764640804971,B,896.3098330000321,Correct,sub_010_day_15_data.csv,1,300,141.0,Training at home,,,,,,,,,,,,,
10,15,3538,A,55.394909221789625,71.36578741465735,2.769745461089481,1.1210111672976923,A,634.7278739999638,Correct,sub_010_day_15_data.csv,1,300,141.0,Training at home,,,,,,,,,,,,,
10,15,3539,A,45.65324636221212,52.340307754869194,2.282662318110606,0.8221596316466295,A,537.8957080001783,Correct,sub_010_day_15_data.csv,1,300,141.0,Training at home,,,,,,,,,,,,,
10,15,3540,B,61.32688844548932,34.10591994854516,3.066344422274466,0.5357345377713553,B,395.0038329999188,Correct,sub_010_day_15_data.csv,1,300,141.0,Training at home,,,,,,,,,,,,,
10,15,3541,B,73.28620582693108,63.22663855151882,3.6643102913465544,0.9931617159231436,A,824.0997910002079,Incorrect,sub_010_day_15_data.csv,0,300,141.0,Training at home,,,,,,,,,,,,,
10,15,3542,B,34.97727369698593,14.521355687540186,1.7488636848492969,0.228100921740703,B,707.4140830000033,Correct,sub_010_day_15_data.csv,1,300,141.0,Training at home,,,,,,,,,,,,,
10,15,3543,A,49.64260485780368,73.3647725816118,2.482130242890184,1.1524111528733876,A,509.02274999998554,Correct,sub_010_day_15_data.csv,1,300,141.0,Training at home,,,,,,,,,,,,,
10,15,3544,B,43.201993534918415,33.03411982948074,2.160099676745921,0.518898740870508,B,509.5404580001741,Correct,sub_010_day_15_data.csv,1,300,141.0,Training at home,,,,,,,,,,,,,
10,15,3545,A,47.46334424882783,68.00094529227243,2.3731672124413916,1.0681563508368226,A,731.5997069999867,Correct,sub_010_day_15_data.csv,1,300,141.0,Training at home,,,,,,,,,,,,,
10,15,3546,A,15.731581701556372,40.997170945230096,0.7865790850778186,0.6439820552974989,A,597.6152910002384,Correct,sub_010_day_15_data.csv,1,300,141.0,Training at home,,,,,,,,,,,,,
10,15,3547,A,26.09625220323234,36.98566843038845,1.3048126101616169,0.5809695211450816,B,604.9104990001979,Incorrect,sub_010_day_15_data.csv,0,300,141.0,Training at home,,,,,,,,,,,,,
10,15,3548,B,63.821973077259955,38.038364258611715,3.1910986538629977,0.5975052285471356,B,678.4193329999653,Correct,sub_010_day_15_data.csv,1,300,141.0,Training at home,,,,,,,,,,,,,
10,15,3549,B,89.04108509385503,65.20106969888403,4.452054254692752,1.024176007861051,A,1001.4783740002712,Incorrect,sub_010_day_15_data.csv,0,300,141.0,Training at home,,,,,,,,,,,,,
10,15,3550,A,66.23916525393594,82.70200579820673,3.311958262696797,1.2990800692639335,A,1091.3058739997723,Correct,sub_010_day_15_data.csv,1,300,142.0,Training at home,,,,,,,,,,,,,
10,15,3551,A,51.24312344896242,79.95121367798438,2.562156172448121,1.2558707276817176,A,666.6170819999024,Correct,sub_010_day_15_data.csv,1,300,142.0,Training at home,,,,,,,,,,,,,
10,15,3552,B,33.17860524441679,17.877060308942575,1.6589302622208393,0.2808122066717783,B,751.7914159998327,Correct,sub_010_day_15_data.csv,1,300,142.0,Training at home,,,,,,,,,,,,,
10,15,3553,A,18.284023207173338,46.59904246510535,0.9142011603586668,0.7319760473634689,A,726.048916000309,Correct,sub_010_day_15_data.csv,1,300,142.0,Training at home,,,,,,,,,,,,,
10,15,3554,A,33.686732386418235,53.84665066311885,1.684336619320912,0.8458212107183507,A,791.9642499996371,Correct,sub_010_day_15_data.csv,1,300,142.0,Training at home,,,,,,,,,,,,,
10,15,3555,B,81.72636358040852,53.61965750091853,4.086318179020426,0.8422556104644325,B,731.1665409997659,Correct,sub_010_day_15_data.csv,1,300,142.0,Training at home,,,,,,,,,,,,,
10,15,3556,A,26.58091545600718,45.89114047491076,1.329045772800359,0.7208563489041844,A,962.848957999995,Correct,sub_010_day_15_data.csv,1,300,142.0,Training at home,,,,,,,,,,,,,
10,15,3557,B,43.45181904057742,18.794460626887236,2.172590952028871,0.2952226971680578,B,501.693332999821,Correct,sub_010_day_15_data.csv,1,300,142.0,Training at home,,,,,,,,,,,,,
10,15,3558,B,76.55923391711208,61.6055925766655,3.827961695855604,0.9676983852944911,A,909.261790999608,Incorrect,sub_010_day_15_data.csv,0,300,142.0,Training at home,,,,,,,,,,,,,
10,15,3559,A,46.44608248912481,54.00385665461195,2.322304124456241,0.8482905966582259,A,767.3487070001102,Correct,sub_010_day_15_data.csv,1,300,142.0,Training at home,,,,,,,,,,,,,
10,15,3560,B,57.09030321741897,31.5862396368683,2.8545151608709483,0.4961554919885609,B,445.1116660002299,Correct,sub_010_day_15_data.csv,1,300,142.0,Training at home,,,,,,,,,,,,,
10,15,3561,A,64.52607746790795,83.51731230547402,3.2263038733953975,1.311886873932208,A,701.7949990004126,Correct,sub_010_day_15_data.csv,1,300,142.0,Training at home,,,,,,,,,,,,,
10,15,3562,B,77.73088164525879,52.459313632850225,3.88654408226294,0.8240289716066258,B,1353.1484579998505,Correct,sub_010_day_15_data.csv,1,300,142.0,Training at home,,,,,,,,,,,,,
10,15,3563,A,56.73538110745008,65.37347348841834,2.836769055372504,1.0268841202543109,A,858.9014579997638,Correct,sub_010_day_15_data.csv,1,300,142.0,Training at home,,,,,,,,,,,,,
10,15,3564,B,76.60282424180477,45.25743606197987,3.8301412120902385,0.7109021432631286,B,666.0333740001079,Correct,sub_010_day_15_data.csv,1,300,142.0,Training at home,,,,,,,,,,,,,
10,15,3565,B,60.08390337714973,45.56466051460794,3.0041951688574864,0.7157280136800263,B,442.2324579995802,Correct,sub_010_day_15_data.csv,1,300,142.0,Training at home,,,,,,,,,,,,,
10,15,3566,A,60.87339877823017,84.29604563471891,3.0436699389115085,1.3241191884635144,A,1131.17820799971,Correct,sub_010_day_15_data.csv,1,300,142.0,Training at home,,,,,,,,,,,,,
10,15,3567,A,30.859924514568917,55.2026929789546,1.5429962257284455,0.8671218736052831,A,659.8194580001291,Correct,sub_010_day_15_data.csv,1,300,142.0,Training at home,,,,,,,,,,,,,
10,15,3568,B,84.54185835403213,60.34037991429271,4.227092917701606,0.9478244712677956,B,753.9439580000362,Correct,sub_010_day_15_data.csv,1,300,142.0,Training at home,,,,,,,,,,,,,
10,15,3569,B,72.40021196503103,56.31385015053888,3.620010598251552,0.8845758896414471,B,861.2952910002605,Correct,sub_010_day_15_data.csv,1,300,142.0,Training at home,,,,,,,,,,,,,
10,15,3570,A,17.35472189610418,41.52874950110099,0.8677360948052091,0.6523320717271482,A,893.7887910001336,Correct,sub_010_day_15_data.csv,1,300,142.0,Training at home,,,,,,,,,,,,,
10,15,3571,A,33.64022795263876,48.59527461691342,1.682011397631938,0.7633327886783688,A,920.4789580003307,Correct,sub_010_day_15_data.csv,1,300,142.0,Training at home,,,,,,,,,,,,,
10,15,3572,B,61.42773097085785,40.13904130629134,3.0713865485428924,0.6305025864499108,B,901.4705409999806,Correct,sub_010_day_15_data.csv,1,300,142.0,Training at home,,,,,,,,,,,,,
10,15,3573,B,43.68100244266883,29.62665739636667,2.1840501221334416,0.4653744461342363,B,784.3864159999612,Correct,sub_010_day_15_data.csv,1,300,142.0,Training at home,,,,,,,,,,,,,
10,15,3574,B,39.248653603651945,23.37852675142932,1.9624326801825973,0.3672290394702139,B,968.1892910002716,Correct,sub_010_day_15_data.csv,1,300,142.0,Training at home,,,,,,,,,,,,,
10,15,3575,B,57.90854682059446,28.4253862499758,2.895427341029723,0.4465049230918814,B,536.603082000056,Correct,sub_010_day_15_data.csv,1,300,143.0,Training at home,,,,,,,,,,,,,
10,15,3576,B,53.63502168537538,46.79851939351536,2.6817510842687686,0.7351094236277367,B,745.6755829998656,Correct,sub_010_day_15_data.csv,1,300,143.0,Training at home,,,,,,,,,,,,,
10,15,3577,A,54.50557932096451,74.85861298995766,2.7252789660482257,1.175876343135862,A,798.6490829998729,Correct,sub_010_day_15_data.csv,1,300,143.0,Training at home,,,,,,,,,,,,,
10,15,3578,A,61.042252128727064,70.43111752802781,3.0521126064363533,1.1063294070508574,A,1042.223708000165,Correct,sub_010_day_15_data.csv,1,300,143.0,Training at home,,,,,,,,,,,,,
10,15,3579,B,33.60491744726427,15.650059391204415,1.6802458723632134,0.2458305580582586,B,1844.3534990001351,Correct,sub_010_day_15_data.csv,1,300,143.0,Training at home,,,,,,,,,,,,,
10,15,3580,A,60.09644614664202,69.09244415887942,3.0048223073321014,1.085301574940493,A,727.8145000000222,Correct,sub_010_day_15_data.csv,1,300,143.0,Training at home,,,,,,,,,,,,,
10,15,3581,A,37.19426448948207,58.701504752652504,1.8597132244741037,0.9220810804279972,A,1616.3227070001085,Correct,sub_010_day_15_data.csv,1,300,143.0,Training at home,,,,,,,,,,,,,
10,15,3582,A,43.19455153524273,70.79524246573844,2.1597275767621364,1.1120490681973605,A,992.562332000034,Correct,sub_010_day_15_data.csv,1,300,143.0,Training at home,,,,,,,,,,,,,
10,15,3583,A,34.205792800644055,59.56662538477715,1.7102896400322027,0.935670363539756,A,862.882165999963,Correct,sub_010_day_15_data.csv,1,300,143.0,Training at home,,,,,,,,,,,,,
10,15,3584,A,32.07576674480732,60.621070738615785,1.6037883372403658,0.9522335524259126,A,804.6590830003879,Correct,sub_010_day_15_data.csv,1,300,143.0,Training at home,,,,,,,,,,,,,
10,15,3585,A,16.07534096583307,36.91923026673817,0.8037670482916536,0.5799259129108728,A,622.2455000001901,Correct,sub_010_day_15_data.csv,1,300,143.0,Training at home,,,,,,,,,,,,,
10,15,3586,A,54.004512509943496,72.02211555427274,2.7002256254971746,1.131320745606492,A,1260.6905819998246,Correct,sub_010_day_15_data.csv,1,300,143.0,Training at home,,,,,,,,,,,,,
10,15,3587,A,24.609629835524647,53.02589196890739,1.2304814917762323,0.8329287632978274,A,1178.1339580002168,Correct,sub_010_day_15_data.csv,1,300,143.0,Training at home,,,,,,,,,,,,,
10,15,3588,A,12.999482333094182,38.80734602978616,0.649974116654709,0.6095843659624662,A,845.9869580001396,Correct,sub_010_day_15_data.csv,1,300,143.0,Training at home,,,,,,,,,,,,,
10,15,3589,A,37.76016897472391,65.45838675590966,1.8880084487361952,1.028217934741026,A,767.5196239997604,Correct,sub_010_day_15_data.csv,1,300,143.0,Training at home,,,,,,,,,,,,,
10,15,3590,B,77.45291907239834,45.785419073228496,3.872645953619917,0.7191956810099231,B,1337.6954999998816,Correct,sub_010_day_15_data.csv,1,300,143.0,Training at home,,,,,,,,,,,,,
10,15,3591,A,47.97714828483149,72.62761783656101,2.3988574142415744,1.1408319532153357,A,595.980581999811,Correct,sub_010_day_15_data.csv,1,300,143.0,Training at home,,,,,,,,,,,,,
10,15,3592,A,28.222711328826023,57.24872090267119,1.4111355664413014,0.8992608050762212,B,679.9932909998461,Incorrect,sub_010_day_15_data.csv,0,300,143.0,Training at home,,,,,,,,,,,,,
10,15,3593,A,58.04197546084587,85.31655149103352,2.902098773042294,1.340149256969231,A,656.5045410002313,Correct,sub_010_day_15_data.csv,1,300,143.0,Training at home,,,,,,,,,,,,,
10,15,3594,A,23.343827595286225,41.35012950933597,1.1671913797643112,0.649526315457582,A,891.6267489998972,Correct,sub_010_day_15_data.csv,1,300,143.0,Training at home,,,,,,,,,,,,,
10,15,3595,B,60.89657458684368,38.40193448077837,3.0448287293421843,0.6032161762422494,B,738.0358320001505,Correct,sub_010_day_15_data.csv,1,300,143.0,Training at home,,,,,,,,,,,,,
10,15,3596,B,54.46156823485966,32.475546285800434,2.723078411742983,0.5101246881639296,B,539.6949989999484,Correct,sub_010_day_15_data.csv,1,300,143.0,Training at home,,,,,,,,,,,,,
10,15,3597,A,62.5453909749276,80.21750720368757,3.12726954874638,1.260053656601956,A,490.9045409999635,Correct,sub_010_day_15_data.csv,1,300,143.0,Training at home,,,,,,,,,,,,,
10,15,3598,B,76.26323393637489,47.21686542603547,3.813161696818745,0.7416807877398546,B,794.8426250000011,Correct,sub_010_day_15_data.csv,1,300,143.0,Training at home,,,,,,,,,,,,,
10,15,3599,B,40.065858716513034,15.106917350284462,2.0032929358256517,0.2372989028302092,B,663.103165999928,Correct,sub_010_day_15_data.csv,1,300,143.0,Training at home,,,,,,,,,,,,,
