subject,day,trial,cat,x,y,xt,yt,resp,rt,fb,f_name,acc,n_trials,block,session_type,ns_left_digit,ns_right_digit,ns_left_size,ns_right_size,ns_congruent,ns_cue,ns_correct_side,ns_resp,ns_rt,ns_fb,acc_stroop,acc_stroop_mean,resp_key
10,20,4500,B,54.15716663945953,22.146231237832595,2.707858331972977,0.3478721868073783,B,627.2788750002292,Correct,sub_010_day_20_data.csv,1,300,180.0,Training at home,,,,,,,,,,,,,
10,20,4501,B,77.20349839550909,49.74379796720922,3.8601749197754542,0.7813737512771968,B,545.9157919999598,Correct,sub_010_day_20_data.csv,1,300,180.0,Training at home,,,,,,,,,,,,,
10,20,4502,B,53.94148930262892,41.056552780761145,2.6970744651314464,0.644914822988804,B,571.3285830001951,Correct,sub_010_day_20_data.csv,1,300,180.0,Training at home,,,,,,,,,,,,,
10,20,4503,B,65.65822990942202,48.47394689024827,3.282911495471101,0.7614269772045287,B,404.5942909997393,Correct,sub_010_day_20_data.csv,1,300,180.0,Training at home,,,,,,,,,,,,,
10,20,4504,B,68.12612656805149,44.71725825159661,3.4063063284025747,0.7024170500594673,B,509.6272499999941,Correct,sub_010_day_20_data.csv,1,300,180.0,Training at home,,,,,,,,,,,,,
10,20,4505,A,42.70622502955361,51.68686843277073,2.13531125147768,0.8118954307772737,A,370.6841250000252,Correct,sub_010_day_20_data.csv,1,300,180.0,Training at home,,,,,,,,,,,,,
10,20,4506,B,67.46381297316837,54.60371045712135,3.3731906486584187,0.857713078154183,B,501.6185829999813,Correct,sub_010_day_20_data.csv,1,300,180.0,Training at home,,,,,,,,,,,,,
10,20,4507,B,49.41602828594721,30.89686166888152,2.4708014142973607,0.4853267681896913,B,483.1208340001467,Correct,sub_010_day_20_data.csv,1,300,180.0,Training at home,,,,,,,,,,,,,
10,20,4508,A,34.819986046624784,54.13868745671174,1.7409993023312391,0.8504085139449974,A,418.36354199995185,Correct,sub_010_day_20_data.csv,1,300,180.0,Training at home,,,,,,,,,,,,,
10,20,4509,A,48.70077812375226,71.82783255045763,2.435038906187613,1.1282689553189775,A,398.9098330002889,Correct,sub_010_day_20_data.csv,1,300,180.0,Training at home,,,,,,,,,,,,,
10,20,4510,B,66.41252864636799,55.733082208064815,3.3206264323183996,0.8754532081338621,B,701.3265410000713,Correct,sub_010_day_20_data.csv,1,300,180.0,Training at home,,,,,,,,,,,,,
10,20,4511,B,37.06285863494895,23.5934009074914,1.8531429317474477,0.3706042748208686,B,400.5037910001192,Correct,sub_010_day_20_data.csv,1,300,180.0,Training at home,,,,,,,,,,,,,
10,20,4512,A,48.47685860207865,58.4471349062986,2.4238429301039326,0.9180854482249964,A,424.8243749998437,Correct,sub_010_day_20_data.csv,1,300,180.0,Training at home,,,,,,,,,,,,,
10,20,4513,A,63.24046571955709,77.44329395746495,3.1620232859778548,1.2164764168328337,A,506.6697090001071,Correct,sub_010_day_20_data.csv,1,300,180.0,Training at home,,,,,,,,,,,,,
10,20,4514,A,64.83512837140853,80.64606542008147,3.2417564185704264,1.2667854333232489,A,469.19187500043336,Correct,sub_010_day_20_data.csv,1,300,180.0,Training at home,,,,,,,,,,,,,
10,20,4515,A,58.76875122747891,68.55299027932757,2.9384375613739455,1.07682785321574,A,396.7168750000382,Correct,sub_010_day_20_data.csv,1,300,180.0,Training at home,,,,,,,,,,,,,
10,20,4516,B,52.23295677950817,25.29179170540572,2.6116478389754088,0.3972825350891293,B,390.491541999836,Correct,sub_010_day_20_data.csv,1,300,180.0,Training at home,,,,,,,,,,,,,
10,20,4517,A,63.76706693034507,84.29201144116023,3.1883533465172538,1.3240558194992789,A,427.2726670001248,Correct,sub_010_day_20_data.csv,1,300,180.0,Training at home,,,,,,,,,,,,,
10,20,4518,A,15.07629732689809,37.83834415065078,0.7538148663449045,0.594363320038434,A,493.78299999989395,Correct,sub_010_day_20_data.csv,1,300,180.0,Training at home,,,,,,,,,,,,,
10,20,4519,B,88.4513264152831,68.92705533704205,4.4225663207641555,1.0827036534021424,B,635.6877500002156,Correct,sub_010_day_20_data.csv,1,300,180.0,Training at home,,,,,,,,,,,,,
10,20,4520,A,50.518710465734074,61.03206152075648,2.525935523286704,0.9586893805352444,A,467.3156670000935,Correct,sub_010_day_20_data.csv,1,300,180.0,Training at home,,,,,,,,,,,,,
10,20,4521,A,37.02894226091677,64.7901795743802,1.8514471130458388,1.0177217608781814,A,491.2679999997635,Correct,sub_010_day_20_data.csv,1,300,180.0,Training at home,,,,,,,,,,,,,
10,20,4522,B,48.26440703540723,38.881557648639536,2.4132203517703616,0.61075007934547,B,393.27587500019945,Correct,sub_010_day_20_data.csv,1,300,180.0,Training at home,,,,,,,,,,,,,
10,20,4523,B,35.024688529144726,22.124111157680456,1.7512344264572364,0.3475247254008645,B,372.7102909997484,Correct,sub_010_day_20_data.csv,1,300,180.0,Training at home,,,,,,,,,,,,,
10,20,4524,A,50.13041651133057,60.16609343914926,2.506520825566529,0.9450867857181416,A,400.88587499985806,Correct,sub_010_day_20_data.csv,1,300,180.0,Training at home,,,,,,,,,,,,,
10,20,4525,A,28.90960061032888,51.95041915063001,1.445480030516444,0.8160352757726487,A,432.5635000000147,Correct,sub_010_day_20_data.csv,1,300,181.0,Training at home,,,,,,,,,,,,,
10,20,4526,A,35.056107907182295,43.86838227122,1.752805395359115,0.6890829373406674,B,494.2243329996927,Incorrect,sub_010_day_20_data.csv,0,300,181.0,Training at home,,,,,,,,,,,,,
10,20,4527,B,37.68240633305858,28.340017124577724,1.8841203166529288,0.4451639480059115,B,452.9665000000022,Correct,sub_010_day_20_data.csv,1,300,181.0,Training at home,,,,,,,,,,,,,
10,20,4528,A,51.37155228258612,69.94055700670442,2.568577614129306,1.0986237004012036,A,482.73766599959345,Correct,sub_010_day_20_data.csv,1,300,181.0,Training at home,,,,,,,,,,,,,
10,20,4529,A,33.937085822797854,57.72851911677783,1.6968542911398927,0.906797457799436,A,483.2616250000683,Correct,sub_010_day_20_data.csv,1,300,181.0,Training at home,,,,,,,,,,,,,
10,20,4530,A,51.06476552797627,69.09075381577185,2.5532382763988135,1.085275023093049,A,409.5501250003508,Correct,sub_010_day_20_data.csv,1,300,181.0,Training at home,,,,,,,,,,,,,
10,20,4531,B,60.630740137760746,31.25300282990104,3.0315370068880374,0.4909210204651906,B,380.44658300032097,Correct,sub_010_day_20_data.csv,1,300,181.0,Training at home,,,,,,,,,,,,,
10,20,4532,A,51.42649747350796,58.62319974511171,2.571324873675398,0.9208510682458498,A,387.09512500008714,Correct,sub_010_day_20_data.csv,1,300,181.0,Training at home,,,,,,,,,,,,,
10,20,4533,A,29.49852604840934,40.325421434581536,1.4749263024204669,0.6334302386589687,A,479.72954199985907,Correct,sub_010_day_20_data.csv,1,300,181.0,Training at home,,,,,,,,,,,,,
10,20,4534,A,67.47986976625273,88.25115171970039,3.373993488312637,1.3862458495672447,A,607.8568749999249,Correct,sub_010_day_20_data.csv,1,300,181.0,Training at home,,,,,,,,,,,,,
10,20,4535,A,17.564544925600323,37.08779270873279,0.8782272462800162,0.5825736855580802,A,575.099666999904,Correct,sub_010_day_20_data.csv,1,300,181.0,Training at home,,,,,,,,,,,,,
10,20,4536,B,55.34803564334852,29.20401359090768,2.767401782167426,0.4587355727626602,B,415.8511669998006,Correct,sub_010_day_20_data.csv,1,300,181.0,Training at home,,,,,,,,,,,,,
10,20,4537,B,54.650972137065075,29.341956221853533,2.7325486068532534,0.4609023705426419,B,379.4200419997651,Correct,sub_010_day_20_data.csv,1,300,181.0,Training at home,,,,,,,,,,,,,
10,20,4538,A,45.78366183093647,77.16491324686982,2.289183091546823,1.2121036228562996,A,476.609499999995,Correct,sub_010_day_20_data.csv,1,300,181.0,Training at home,,,,,,,,,,,,,
10,20,4539,B,41.42899103830798,25.16668174123658,2.0714495519153986,0.3953173123675061,B,422.1963749996576,Correct,sub_010_day_20_data.csv,1,300,181.0,Training at home,,,,,,,,,,,,,
10,20,4540,A,24.670741068252195,37.55351349128943,1.2335370534126098,0.5898892105036002,B,541.9507919996249,Incorrect,sub_010_day_20_data.csv,0,300,181.0,Training at home,,,,,,,,,,,,,
10,20,4541,A,42.17815123108371,67.31746391460993,2.1089075615541857,1.0574202504621728,A,403.3177910000631,Correct,sub_010_day_20_data.csv,1,300,181.0,Training at home,,,,,,,,,,,,,
10,20,4542,A,59.46856870828206,82.19093228153994,2.973428435414103,1.29105214523691,A,503.40641699995103,Correct,sub_010_day_20_data.csv,1,300,181.0,Training at home,,,,,,,,,,,,,
10,20,4543,A,32.871400624906656,49.996942927236994,1.6435700312453327,0.7853501430107797,A,580.4197500001465,Correct,sub_010_day_20_data.csv,1,300,181.0,Training at home,,,,,,,,,,,,,
10,20,4544,A,22.737834966801884,34.58374071266644,1.1368917483400942,0.5432401287828357,A,485.0679999999557,Correct,sub_010_day_20_data.csv,1,300,181.0,Training at home,,,,,,,,,,,,,
10,20,4545,B,52.00419232122848,23.70443410171037,2.600209616061424,0.3723483801571833,B,391.70570899977974,Correct,sub_010_day_20_data.csv,1,300,181.0,Training at home,,,,,,,,,,,,,
10,20,4546,A,43.98595779069036,55.116211669531,2.1992978895345177,0.865763428373493,A,406.4747499996883,Correct,sub_010_day_20_data.csv,1,300,181.0,Training at home,,,,,,,,,,,,,
10,20,4547,B,74.80242029046204,43.02949540904176,3.7401210145231016,0.6759057333236066,B,466.23937499998647,Correct,sub_010_day_20_data.csv,1,300,181.0,Training at home,,,,,,,,,,,,,
10,20,4548,B,70.54651407613242,40.50180996439801,3.5273257038066212,0.6362009432062133,B,603.8349159998688,Correct,sub_010_day_20_data.csv,1,300,181.0,Training at home,,,,,,,,,,,,,
10,20,4549,A,14.184172343694268,39.02316494091866,0.7092086171847134,0.6129744414910642,A,462.0768330000829,Correct,sub_010_day_20_data.csv,1,300,181.0,Training at home,,,,,,,,,,,,,
10,20,4550,B,56.73569097509808,38.67347201231036,2.836784548754904,0.6074814778134235,B,602.3827499998333,Correct,sub_010_day_20_data.csv,1,300,182.0,Training at home,,,,,,,,,,,,,
10,20,4551,B,54.24023608173721,44.187588705889354,2.71201180408686,0.6940970202913466,B,489.66216700000587,Correct,sub_010_day_20_data.csv,1,300,182.0,Training at home,,,,,,,,,,,,,
10,20,4552,A,51.40572217304722,68.41777996613244,2.5702861086523607,1.0747039745826232,B,535.3950829999121,Incorrect,sub_010_day_20_data.csv,0,300,182.0,Training at home,,,,,,,,,,,,,
10,20,4553,B,76.08275006286736,44.40151419091918,3.804137503143368,0.6974573539522733,B,562.754459000189,Correct,sub_010_day_20_data.csv,1,300,182.0,Training at home,,,,,,,,,,,,,
10,20,4554,A,17.619203698985608,37.7155890031474,0.8809601849492804,0.5924350866904994,A,471.687292000297,Correct,sub_010_day_20_data.csv,1,300,182.0,Training at home,,,,,,,,,,,,,
10,20,4555,A,51.92094601722915,80.29335754555157,2.5960473008614575,1.261245110985817,A,506.1744169997837,Correct,sub_010_day_20_data.csv,1,300,182.0,Training at home,,,,,,,,,,,,,
10,20,4556,A,59.83638752930646,80.38947948358174,2.991819376465323,1.262754990857639,A,593.5807079999904,Correct,sub_010_day_20_data.csv,1,300,182.0,Training at home,,,,,,,,,,,,,
10,20,4557,B,71.582259771565,54.29073631748864,3.5791129885782507,0.8527968918650144,B,449.3209160000333,Correct,sub_010_day_20_data.csv,1,300,182.0,Training at home,,,,,,,,,,,,,
10,20,4558,B,40.13424837028897,21.23955217387507,2.0067124185144483,0.3336301053749151,B,451.0285840001416,Correct,sub_010_day_20_data.csv,1,300,182.0,Training at home,,,,,,,,,,,,,
10,20,4559,A,61.553140518300566,78.7166588276442,3.077657025915028,1.236478385440306,A,442.8962090000823,Correct,sub_010_day_20_data.csv,1,300,182.0,Training at home,,,,,,,,,,,,,
10,20,4560,B,80.06777230994567,64.54193425074202,4.0033886154972835,1.0138223324530329,B,996.604541999659,Correct,sub_010_day_20_data.csv,1,300,182.0,Training at home,,,,,,,,,,,,,
10,20,4561,A,57.4108817678124,69.3885110452089,2.87054408839062,1.0899521827158123,A,581.3482080002359,Correct,sub_010_day_20_data.csv,1,300,182.0,Training at home,,,,,,,,,,,,,
10,20,4562,A,40.617322098697265,68.72374187946855,2.030866104934863,1.079510013078698,A,506.664415999694,Correct,sub_010_day_20_data.csv,1,300,182.0,Training at home,,,,,,,,,,,,,
10,20,4563,A,35.12218732372879,63.39170853980416,1.756109366186439,0.9957546292357704,A,452.6282910001101,Correct,sub_010_day_20_data.csv,1,300,182.0,Training at home,,,,,,,,,,,,,
10,20,4564,A,42.63513603129952,70.64749213261922,2.131756801564976,1.1097282113918965,A,479.79245799979253,Correct,sub_010_day_20_data.csv,1,300,182.0,Training at home,,,,,,,,,,,,,
10,20,4565,A,55.46760181758745,63.42655570386114,2.773380090879373,0.9963020072087698,B,558.2181250001668,Incorrect,sub_010_day_20_data.csv,0,300,182.0,Training at home,,,,,,,,,,,,,
10,20,4566,B,74.91839759951506,45.88941830035176,3.745919879975753,0.7208292970494704,B,588.4503329998552,Correct,sub_010_day_20_data.csv,1,300,182.0,Training at home,,,,,,,,,,,,,
10,20,4567,A,49.7154209845754,60.93663629692161,2.48577104922877,0.9571904446244104,A,499.5726659999491,Correct,sub_010_day_20_data.csv,1,300,182.0,Training at home,,,,,,,,,,,,,
10,20,4568,A,34.834471315885345,50.4582723283209,1.7417235657942671,0.7925966882974305,B,444.0655839998726,Incorrect,sub_010_day_20_data.csv,0,300,182.0,Training at home,,,,,,,,,,,,,
10,20,4569,A,38.65090107616739,49.85635418748673,1.9325450538083695,0.7831417802508952,A,490.0424589995964,Correct,sub_010_day_20_data.csv,1,300,182.0,Training at home,,,,,,,,,,,,,
10,20,4570,A,30.840178760180756,52.20745303053057,1.5420089380090376,0.8200727545167451,A,621.3268329997845,Correct,sub_010_day_20_data.csv,1,300,182.0,Training at home,,,,,,,,,,,,,
10,20,4571,A,37.0095711767958,55.19372651430661,1.8504785588397905,0.8669810287079491,A,584.8705829998835,Correct,sub_010_day_20_data.csv,1,300,182.0,Training at home,,,,,,,,,,,,,
10,20,4572,B,43.10330021757731,34.52774082199503,2.155165010878866,0.54236048455716,B,483.7569579999581,Correct,sub_010_day_20_data.csv,1,300,182.0,Training at home,,,,,,,,,,,,,
10,20,4573,B,69.01950315703668,42.69684006245525,3.4509751578518344,0.6706803953585389,B,573.8545410004008,Correct,sub_010_day_20_data.csv,1,300,182.0,Training at home,,,,,,,,,,,,,
10,20,4574,B,88.37204278825314,67.55872799375241,4.418602139412656,1.0612100177552184,B,578.5097079997286,Correct,sub_010_day_20_data.csv,1,300,182.0,Training at home,,,,,,,,,,,,,
10,20,4575,A,44.63592025271592,60.440805886193026,2.231796012635796,0.9494019587455536,A,434.13908299999093,Correct,sub_010_day_20_data.csv,1,300,183.0,Training at home,,,,,,,,,,,,,
10,20,4576,A,25.06477272918447,57.53891507769334,1.2532386364592234,0.903819164518042,A,471.08937500024695,Correct,sub_010_day_20_data.csv,1,300,183.0,Training at home,,,,,,,,,,,,,
10,20,4577,B,50.252784409594945,20.78055300238421,2.512639220479747,0.3264201632491177,B,455.95595799977673,Correct,sub_010_day_20_data.csv,1,300,183.0,Training at home,,,,,,,,,,,,,
10,20,4578,A,40.99106175269351,62.84097302472291,2.0495530876346755,0.9871036959945192,A,716.1102919999394,Correct,sub_010_day_20_data.csv,1,300,183.0,Training at home,,,,,,,,,,,,,
10,20,4579,A,58.32200026753432,67.06405436332093,2.9161000133767163,1.0534397025387778,A,637.5069579999035,Correct,sub_010_day_20_data.csv,1,300,183.0,Training at home,,,,,,,,,,,,,
10,20,4580,B,54.15071139467678,46.66783841679265,2.7075355697338392,0.7330566916455565,B,618.2179170000381,Correct,sub_010_day_20_data.csv,1,300,183.0,Training at home,,,,,,,,,,,,,
10,20,4581,B,70.80700280372645,39.25209453069923,3.540350140186322,0.616570459078284,B,796.7111250000016,Correct,sub_010_day_20_data.csv,1,300,183.0,Training at home,,,,,,,,,,,,,
10,20,4582,B,59.81240128051735,42.48173783388293,2.9906200640258676,0.6673015774532709,B,386.38112499984345,Correct,sub_010_day_20_data.csv,1,300,183.0,Training at home,,,,,,,,,,,,,
10,20,4583,A,44.8932722453597,54.33709841019757,2.244663612267985,0.8535251459143116,A,428.8820839997243,Correct,sub_010_day_20_data.csv,1,300,183.0,Training at home,,,,,,,,,,,,,
10,20,4584,B,34.23427772921436,18.802977617787857,1.7117138864607182,0.2953564817482782,B,396.4768330001789,Correct,sub_010_day_20_data.csv,1,300,183.0,Training at home,,,,,,,,,,,,,
10,20,4585,B,51.47027244036092,36.20649433124478,2.573513622018046,0.5687302830163954,B,525.9809999997742,Correct,sub_010_day_20_data.csv,1,300,183.0,Training at home,,,,,,,,,,,,,
10,20,4586,B,76.61498428772057,57.384270241354315,3.830749214386029,0.9013900091092504,B,518.3837499998845,Correct,sub_010_day_20_data.csv,1,300,183.0,Training at home,,,,,,,,,,,,,
10,20,4587,A,62.62029503191478,77.89104455030673,3.131014751595739,1.223509666698395,A,492.7724160002072,Correct,sub_010_day_20_data.csv,1,300,183.0,Training at home,,,,,,,,,,,,,
10,20,4588,A,35.1082784321404,52.13101972455857,1.75541392160702,0.8188721429540889,A,505.4027500000302,Correct,sub_010_day_20_data.csv,1,300,183.0,Training at home,,,,,,,,,,,,,
10,20,4589,A,35.686475098957764,47.91581194926084,1.7843237549478883,0.7526598140529395,B,613.9163750003718,Incorrect,sub_010_day_20_data.csv,0,300,183.0,Training at home,,,,,,,,,,,,,
10,20,4590,B,83.50058152509297,62.1969676650929,4.175029076254648,0.9769876834610888,B,582.5114169997505,Correct,sub_010_day_20_data.csv,1,300,183.0,Training at home,,,,,,,,,,,,,
10,20,4591,B,80.94146076321422,51.12201170321163,4.047073038160711,0.8030226820177055,B,531.6066669997781,Correct,sub_010_day_20_data.csv,1,300,183.0,Training at home,,,,,,,,,,,,,
10,20,4592,B,83.13133429798758,60.5862886906332,4.156566714899379,0.951687197293818,B,504.8209169999609,Correct,sub_010_day_20_data.csv,1,300,183.0,Training at home,,,,,,,,,,,,,
10,20,4593,A,44.236775423460486,65.47033248555205,2.2118387711730243,1.0284055778234575,A,403.0817920001937,Correct,sub_010_day_20_data.csv,1,300,183.0,Training at home,,,,,,,,,,,,,
10,20,4594,A,25.84626345848852,38.87477962359194,1.292313172924426,0.6106436103769931,A,535.1902500001415,Correct,sub_010_day_20_data.csv,1,300,183.0,Training at home,,,,,,,,,,,,,
10,20,4595,B,54.71115574150207,42.7790956392179,2.7355577870751033,0.6719724629369105,B,452.7737499997784,Correct,sub_010_day_20_data.csv,1,300,183.0,Training at home,,,,,,,,,,,,,
10,20,4596,B,71.91854306687091,40.53112012011985,3.595927153343546,0.6366613460556698,B,535.4298749998634,Correct,sub_010_day_20_data.csv,1,300,183.0,Training at home,,,,,,,,,,,,,
10,20,4597,A,65.43829920276337,83.19585157200532,3.2719149601381683,1.3068373805387938,A,460.5384579999736,Correct,sub_010_day_20_data.csv,1,300,183.0,Training at home,,,,,,,,,,,,,
10,20,4598,A,37.986121429282555,65.68908049839222,1.8993060714641277,1.0318416635740877,A,432.20391699969696,Correct,sub_010_day_20_data.csv,1,300,183.0,Training at home,,,,,,,,,,,,,
10,20,4599,A,13.756698540788747,35.76193564411146,0.6878349270394374,0.5617471714884577,A,550.7933339999909,Correct,sub_010_day_20_data.csv,1,300,183.0,Training at home,,,,,,,,,,,,,
10,20,4600,A,49.37422150505811,73.26214155995088,2.4687110752529056,1.1507990285549856,A,487.6843749998443,Correct,sub_010_day_20_data.csv,1,300,184.0,Training at home,,,,,,,,,,,,,
10,20,4601,A,54.15657137851347,69.26744020234696,2.707828568925674,1.0880504063633174,A,481.30325000011,Correct,sub_010_day_20_data.csv,1,300,184.0,Training at home,,,,,,,,,,,,,
10,20,4602,B,63.622249188560005,55.90295348889267,3.181112459428,0.8781215399733856,A,399.68058399972506,Incorrect,sub_010_day_20_data.csv,0,300,184.0,Training at home,,,,,,,,,,,,,
10,20,4603,B,33.01252490569879,13.764131817843811,1.6506262452849396,0.2162064770098982,B,622.3752920000152,Correct,sub_010_day_20_data.csv,1,300,184.0,Training at home,,,,,,,,,,,,,
10,20,4604,A,55.630608367922505,79.20392842332757,2.781530418396125,1.2441323983508883,A,626.0322919997634,Correct,sub_010_day_20_data.csv,1,300,184.0,Training at home,,,,,,,,,,,,,
10,20,4605,B,57.06033341665819,42.07810353570587,2.8530166708329094,0.6609613047238214,B,463.1432500000301,Correct,sub_010_day_20_data.csv,1,300,184.0,Training at home,,,,,,,,,,,,,
10,20,4606,A,37.59941163505216,67.07958512876816,1.879970581752608,1.0536836592319458,A,487.2710409999854,Correct,sub_010_day_20_data.csv,1,300,184.0,Training at home,,,,,,,,,,,,,
10,20,4607,B,84.58889981565818,67.72223328493465,4.229444990782909,1.0637783528632243,B,573.7947090001398,Correct,sub_010_day_20_data.csv,1,300,184.0,Training at home,,,,,,,,,,,,,
10,20,4608,B,74.38270326692849,57.571757757143345,3.719135163346425,0.9043350561204636,B,511.9701660000828,Correct,sub_010_day_20_data.csv,1,300,184.0,Training at home,,,,,,,,,,,,,
10,20,4609,B,68.10169173163362,38.241249259303906,3.4050845865816814,0.6006921386856263,B,597.4125829998229,Correct,sub_010_day_20_data.csv,1,300,184.0,Training at home,,,,,,,,,,,,,
10,20,4610,B,44.16993480823215,14.936252960258898,2.2084967404116074,0.2346181128605408,B,432.41891699972257,Correct,sub_010_day_20_data.csv,1,300,184.0,Training at home,,,,,,,,,,,,,
10,20,4611,B,83.78137121743407,67.73365820677347,4.1890685608717035,1.0639578151158078,B,512.0695000000524,Correct,sub_010_day_20_data.csv,1,300,184.0,Training at home,,,,,,,,,,,,,
10,20,4612,A,53.472177521636304,75.7842450489213,2.6736088760818153,1.1904161375176991,A,544.951041999866,Correct,sub_010_day_20_data.csv,1,300,184.0,Training at home,,,,,,,,,,,,,
10,20,4613,B,39.709816117484905,24.23295463904843,1.985490805874245,0.3806503613440462,B,489.078999999947,Correct,sub_010_day_20_data.csv,1,300,184.0,Training at home,,,,,,,,,,,,,
10,20,4614,B,52.90973120154291,30.81956938340359,2.6454865600771456,0.4841126638085081,B,595.951082999818,Correct,sub_010_day_20_data.csv,1,300,184.0,Training at home,,,,,,,,,,,,,
10,20,4615,A,61.3448906180388,85.08503233208977,3.06724453090194,1.3365125625247165,A,488.7040419998811,Correct,sub_010_day_20_data.csv,1,300,184.0,Training at home,,,,,,,,,,,,,
10,20,4616,A,50.70072705319983,59.55338511048849,2.5350363526599917,0.935462385797572,A,615.31183399984,Correct,sub_010_day_20_data.csv,1,300,184.0,Training at home,,,,,,,,,,,,,
10,20,4617,A,55.14320920105004,75.03782351961321,2.7571604600525017,1.1786913755529214,A,545.477708999897,Correct,sub_010_day_20_data.csv,1,300,184.0,Training at home,,,,,,,,,,,,,
10,20,4618,A,39.13468266130515,64.37378254321459,1.9567341330652572,1.011181011607749,A,534.1610410000612,Correct,sub_010_day_20_data.csv,1,300,184.0,Training at home,,,,,,,,,,,,,
10,20,4619,B,39.61627932771304,19.650865277393184,1.980813966385652,0.3086750699607059,B,703.6450000000514,Correct,sub_010_day_20_data.csv,1,300,184.0,Training at home,,,,,,,,,,,,,
10,20,4620,B,59.72023938830073,45.3364520378157,2.9860119694150367,0.712143323309139,B,777.3783329998878,Correct,sub_010_day_20_data.csv,1,300,184.0,Training at home,,,,,,,,,,,,,
10,20,4621,A,26.445627588250332,57.67219038751764,1.3222813794125166,0.9059126481892864,A,818.8791249999667,Correct,sub_010_day_20_data.csv,1,300,184.0,Training at home,,,,,,,,,,,,,
10,20,4622,A,31.00561571265627,58.781102683282214,1.5502807856328136,0.9233314017985336,A,564.0163329999268,Correct,sub_010_day_20_data.csv,1,300,184.0,Training at home,,,,,,,,,,,,,
10,20,4623,B,87.57946919334589,63.762709264240094,4.378973459667294,1.0015822949875923,B,535.9734170001502,Correct,sub_010_day_20_data.csv,1,300,184.0,Training at home,,,,,,,,,,,,,
10,20,4624,A,65.20375689114269,88.69014605719171,3.2601878445571346,1.3931415564953962,A,418.82745900011287,Correct,sub_010_day_20_data.csv,1,300,184.0,Training at home,,,,,,,,,,,,,
10,20,4625,B,54.22907586316216,30.05453205493839,2.711453793158108,0.4720954855543671,B,583.7117080000098,Correct,sub_010_day_20_data.csv,1,300,185.0,Training at home,,,,,,,,,,,,,
10,20,4626,B,46.6562120223489,25.968964078733944,2.3328106011174454,0.4079195338554389,B,707.830875000127,Correct,sub_010_day_20_data.csv,1,300,185.0,Training at home,,,,,,,,,,,,,
10,20,4627,B,72.21057230836462,55.02939559640651,3.6105286154182306,0.864399724685786,B,644.6161250000841,Correct,sub_010_day_20_data.csv,1,300,185.0,Training at home,,,,,,,,,,,,,
10,20,4628,A,63.25755415616878,77.37672403244876,3.1628777078084394,1.2154307388959291,A,490.328084000339,Correct,sub_010_day_20_data.csv,1,300,185.0,Training at home,,,,,,,,,,,,,
10,20,4629,B,33.71357637228559,20.270074320148755,1.6856788186142793,0.3184015828594922,B,611.8712080001387,Correct,sub_010_day_20_data.csv,1,300,185.0,Training at home,,,,,,,,,,,,,
10,20,4630,B,64.74614474746708,39.18333186999173,3.2373072373733542,0.6154903377296842,B,475.544749999699,Correct,sub_010_day_20_data.csv,1,300,185.0,Training at home,,,,,,,,,,,,,
10,20,4631,B,42.323956037991955,29.238171417921944,2.116197801899598,0.4592721226547132,B,471.4949169997453,Correct,sub_010_day_20_data.csv,1,300,185.0,Training at home,,,,,,,,,,,,,
10,20,4632,A,56.47160133928675,79.18760977275309,2.8235800669643374,1.2438760655870822,A,558.7435419997746,Correct,sub_010_day_20_data.csv,1,300,185.0,Training at home,,,,,,,,,,,,,
10,20,4633,B,73.9145751530535,60.126141407483786,3.695728757652675,0.9444592206722606,A,703.5392499997215,Incorrect,sub_010_day_20_data.csv,0,300,185.0,Training at home,,,,,,,,,,,,,
10,20,4634,B,79.76050416044282,51.30976092444477,3.9880252080221408,0.8059718398884215,B,876.5485829999307,Correct,sub_010_day_20_data.csv,1,300,185.0,Training at home,,,,,,,,,,,,,
10,20,4635,B,56.972461173338445,30.090420517883224,2.8486230586669223,0.4726592202120476,B,482.64112500010015,Correct,sub_010_day_20_data.csv,1,300,185.0,Training at home,,,,,,,,,,,,,
10,20,4636,B,52.464822049410394,32.92297197545101,2.62324110247052,0.5171528344620977,B,439.0765839998494,Correct,sub_010_day_20_data.csv,1,300,185.0,Training at home,,,,,,,,,,,,,
10,20,4637,A,41.747667362353496,63.02881261294834,2.087383368117675,0.990054273346631,A,689.3522499999563,Correct,sub_010_day_20_data.csv,1,300,185.0,Training at home,,,,,,,,,,,,,
10,20,4638,A,13.800058526395702,35.83654235095696,0.6900029263197851,0.5629190908991295,A,491.1028750002515,Correct,sub_010_day_20_data.csv,1,300,185.0,Training at home,,,,,,,,,,,,,
10,20,4639,A,42.79368514404757,58.24582837069436,2.1396842572023784,0.9149233325581267,A,595.3267079999023,Correct,sub_010_day_20_data.csv,1,300,185.0,Training at home,,,,,,,,,,,,,
10,20,4640,A,30.31642317438901,51.46045983808034,1.5158211587194503,0.808339012888329,A,914.3836670000384,Correct,sub_010_day_20_data.csv,1,300,185.0,Training at home,,,,,,,,,,,,,
10,20,4641,B,60.94429828273109,50.94318907894674,3.0472149141365543,0.8002137428042744,B,689.4714999998541,Correct,sub_010_day_20_data.csv,1,300,185.0,Training at home,,,,,,,,,,,,,
10,20,4642,A,43.60745981862725,64.52056751871385,2.1803729909313625,1.0134867046111782,A,729.1679579998345,Correct,sub_010_day_20_data.csv,1,300,185.0,Training at home,,,,,,,,,,,,,
10,20,4643,B,63.99995047718251,48.85250225725245,3.199997523859126,0.7673733110043154,B,510.07220800011055,Correct,sub_010_day_20_data.csv,1,300,185.0,Training at home,,,,,,,,,,,,,
10,20,4644,A,44.912961626117145,55.20953860827599,2.2456480813058572,0.8672294044992095,A,2431.4409170001454,Correct,sub_010_day_20_data.csv,1,300,185.0,Training at home,,,,,,,,,,,,,
10,20,4645,B,75.15598242646377,53.89422210765323,3.757799121323188,0.8465684612217,B,894.1695839998829,Correct,sub_010_day_20_data.csv,1,300,185.0,Training at home,,,,,,,,,,,,,
10,20,4646,A,43.186223875727315,73.61682657669348,2.159311193786366,1.1563704077696704,A,681.0482089999823,Correct,sub_010_day_20_data.csv,1,300,185.0,Training at home,,,,,,,,,,,,,
10,20,4647,B,34.236527012654804,17.48806799464828,1.71182635063274,0.2747019296873291,B,538.3042909998039,Correct,sub_010_day_20_data.csv,1,300,185.0,Training at home,,,,,,,,,,,,,
10,20,4648,A,49.86834411192539,80.30962431516521,2.4934172055962693,1.2615006288053965,A,590.1981249999153,Correct,sub_010_day_20_data.csv,1,300,185.0,Training at home,,,,,,,,,,,,,
10,20,4649,A,57.68738707400541,82.27644355756689,2.8843693537002704,1.2923953532197372,A,478.9000840000881,Correct,sub_010_day_20_data.csv,1,300,185.0,Training at home,,,,,,,,,,,,,
10,20,4650,A,32.872256438815135,40.97099405373224,1.6436128219407566,0.6435708696473815,A,452.4886249996598,Correct,sub_010_day_20_data.csv,1,300,186.0,Training at home,,,,,,,,,,,,,
10,20,4651,A,57.09684797236432,70.83925226414861,2.854842398618216,1.1127403724942169,A,411.65070899978673,Correct,sub_010_day_20_data.csv,1,300,186.0,Training at home,,,,,,,,,,,,,
10,20,4652,B,48.29600314495954,28.67977086039388,2.414800157247977,0.4505007872082601,A,330.49849999997605,Incorrect,sub_010_day_20_data.csv,0,300,186.0,Training at home,,,,,,,,,,,,,
10,20,4653,A,55.202615134143585,69.60537611931822,2.760130756707179,1.0933586913340227,A,560.5228750000606,Correct,sub_010_day_20_data.csv,1,300,186.0,Training at home,,,,,,,,,,,,,
10,20,4654,A,47.18079002482411,64.75600084203144,2.3590395012412055,1.017184882605902,A,441.2282499997673,Correct,sub_010_day_20_data.csv,1,300,186.0,Training at home,,,,,,,,,,,,,
10,20,4655,B,49.2084682327773,31.5328090506597,2.4604234116388652,0.4953162063030112,B,699.6532499997556,Correct,sub_010_day_20_data.csv,1,300,186.0,Training at home,,,,,,,,,,,,,
10,20,4656,A,38.807518588912366,48.394637311676874,1.9403759294456184,0.7601811852575329,B,531.6473329999098,Incorrect,sub_010_day_20_data.csv,0,300,186.0,Training at home,,,,,,,,,,,,,
10,20,4657,A,47.39733593295013,77.7421289297728,2.369866796647506,1.221170505601024,A,751.680750000105,Correct,sub_010_day_20_data.csv,1,300,186.0,Training at home,,,,,,,,,,,,,
10,20,4658,B,60.69380016245802,43.93633121878075,3.034690008122902,0.6901502769130474,A,675.5611669996142,Incorrect,sub_010_day_20_data.csv,0,300,186.0,Training at home,,,,,,,,,,,,,
10,20,4659,B,43.15333332684175,26.50850835255078,2.157666666342087,0.416394675489986,B,471.63175000014235,Correct,sub_010_day_20_data.csv,1,300,186.0,Training at home,,,,,,,,,,,,,
10,20,4660,B,79.98217977687436,52.5138290984552,3.999108988843718,0.8248852985378841,B,508.18708299993887,Correct,sub_010_day_20_data.csv,1,300,186.0,Training at home,,,,,,,,,,,,,
10,20,4661,A,20.784351709406657,37.98743479371944,1.0392175854703327,0.5967052303833514,A,698.4648749998996,Correct,sub_010_day_20_data.csv,1,300,186.0,Training at home,,,,,,,,,,,,,
10,20,4662,A,19.70289444861397,43.289918244195064,0.9851447224306986,0.67999644565233,A,566.3027919999877,Correct,sub_010_day_20_data.csv,1,300,186.0,Training at home,,,,,,,,,,,,,
10,20,4663,B,69.37471449757048,55.86685543327126,3.468735724878524,0.8775545130416401,B,797.0428749999883,Correct,sub_010_day_20_data.csv,1,300,186.0,Training at home,,,,,,,,,,,,,
10,20,4664,A,22.08222663220307,43.8425576940552,1.1041113316101536,0.6886772858311525,A,418.525832999876,Correct,sub_010_day_20_data.csv,1,300,186.0,Training at home,,,,,,,,,,,,,
10,20,4665,B,48.719195664402584,41.278379659701926,2.435959783220129,0.6483992714550496,B,940.2698750000128,Correct,sub_010_day_20_data.csv,1,300,186.0,Training at home,,,,,,,,,,,,,
10,20,4666,B,48.73657317338265,33.35252024491493,2.436828658669133,0.5239001629006479,B,406.4790830002494,Correct,sub_010_day_20_data.csv,1,300,186.0,Training at home,,,,,,,,,,,,,
10,20,4667,A,21.944480223459795,52.76047425509013,1.0972240111729896,0.8287595915985227,A,396.2210839999898,Correct,sub_010_day_20_data.csv,1,300,186.0,Training at home,,,,,,,,,,,,,
10,20,4668,B,62.715369298291826,47.53137893144601,3.1357684649145914,0.7466211543301172,B,453.43587500019567,Correct,sub_010_day_20_data.csv,1,300,186.0,Training at home,,,,,,,,,,,,,
10,20,4669,B,71.41394731783875,57.76845235215638,3.570697365891937,0.9074247275939324,B,606.2638749999678,Correct,sub_010_day_20_data.csv,1,300,186.0,Training at home,,,,,,,,,,,,,
10,20,4670,A,21.331212242781564,33.433092110839894,1.0665606121390785,0.5251657828110274,B,486.3144999999349,Incorrect,sub_010_day_20_data.csv,0,300,186.0,Training at home,,,,,,,,,,,,,
10,20,4671,A,46.40835275540965,60.72315198254783,2.3204176377704826,0.9538370408559438,A,439.14379099987855,Correct,sub_010_day_20_data.csv,1,300,186.0,Training at home,,,,,,,,,,,,,
10,20,4672,B,77.15806903826629,61.77487605896834,3.857903451913314,0.9703574840163748,B,967.0198750000054,Correct,sub_010_day_20_data.csv,1,300,186.0,Training at home,,,,,,,,,,,,,
10,20,4673,B,41.2724773808833,24.053007573646926,2.063623869044165,0.3778237594505442,B,575.9052499997779,Correct,sub_010_day_20_data.csv,1,300,186.0,Training at home,,,,,,,,,,,,,
10,20,4674,B,39.536708066240045,17.796056991841393,1.976835403312002,0.2795398095421709,B,566.2641670000994,Correct,sub_010_day_20_data.csv,1,300,186.0,Training at home,,,,,,,,,,,,,
10,20,4675,A,65.91885010912257,81.03840157883195,3.2959425054561287,1.2729482352935897,A,587.6910420001877,Correct,sub_010_day_20_data.csv,1,300,187.0,Training at home,,,,,,,,,,,,,
10,20,4676,B,56.97902054502571,33.348346310160906,2.8489510272512852,0.523834598886849,B,509.6524589998808,Correct,sub_010_day_20_data.csv,1,300,187.0,Training at home,,,,,,,,,,,,,
10,20,4677,B,57.96625445053591,33.82697041890571,2.898312722526795,0.5313528088061671,B,595.0013340002442,Correct,sub_010_day_20_data.csv,1,300,187.0,Training at home,,,,,,,,,,,,,
10,20,4678,A,20.181309622089262,35.08899118238851,1.0090654811044633,0.5511765846023439,A,470.6123329997354,Correct,sub_010_day_20_data.csv,1,300,187.0,Training at home,,,,,,,,,,,,,
10,20,4679,B,83.15658605302418,52.605965786878514,4.157829302651209,0.8263325782552676,B,532.8030830000898,Correct,sub_010_day_20_data.csv,1,300,187.0,Training at home,,,,,,,,,,,,,
10,20,4680,A,68.15965837279451,87.00333427777522,3.4079829186397257,1.3666451790243783,A,472.6285000001553,Correct,sub_010_day_20_data.csv,1,300,187.0,Training at home,,,,,,,,,,,,,
10,20,4681,B,68.99418958769031,38.0665911026951,3.4497094793845156,0.5979486147771677,B,581.4495839999836,Correct,sub_010_day_20_data.csv,1,300,187.0,Training at home,,,,,,,,,,,,,
10,20,4682,A,50.525540294930394,74.01157453637771,2.52627701474652,1.162571094220488,A,495.05850000014107,Correct,sub_010_day_20_data.csv,1,300,187.0,Training at home,,,,,,,,,,,,,
10,20,4683,B,33.959950894694565,17.45379535971332,1.6979975447347284,0.2741635763966749,B,580.3395419998196,Correct,sub_010_day_20_data.csv,1,300,187.0,Training at home,,,,,,,,,,,,,
10,20,4684,B,55.1307325715441,23.28909207590793,2.756536628577205,0.365824202872243,B,597.1040419999554,Correct,sub_010_day_20_data.csv,1,300,187.0,Training at home,,,,,,,,,,,,,
10,20,4685,A,41.07377300467275,56.57476948873042,2.0536886502336373,0.8886744010216572,A,623.1511669998326,Correct,sub_010_day_20_data.csv,1,300,187.0,Training at home,,,,,,,,,,,,,
10,20,4686,A,44.45350339301942,58.33715378553333,2.222675169650971,0.9163578688198476,B,756.5650409997033,Incorrect,sub_010_day_20_data.csv,0,300,187.0,Training at home,,,,,,,,,,,,,
10,20,4687,B,70.5542567660567,55.623356522962425,3.527712838302835,0.8737296411027232,B,578.9087920002203,Correct,sub_010_day_20_data.csv,1,300,187.0,Training at home,,,,,,,,,,,,,
10,20,4688,B,75.72434797040066,56.41653273839673,3.786217398520033,0.8861888239597763,A,375.09591700018063,Incorrect,sub_010_day_20_data.csv,0,300,187.0,Training at home,,,,,,,,,,,,,
10,20,4689,B,47.30483712250745,19.706804912038443,2.3652418561253725,0.3095537676869361,B,343.16854200005764,Correct,sub_010_day_20_data.csv,1,300,187.0,Training at home,,,,,,,,,,,,,
10,20,4690,A,41.818583206856914,73.71079559160265,2.0909291603428457,1.157846469604189,A,432.4687500002255,Correct,sub_010_day_20_data.csv,1,300,187.0,Training at home,,,,,,,,,,,,,
10,20,4691,B,61.7365733168744,34.316933142801396,3.08682866584372,0.5390491252757849,B,533.6008330000368,Correct,sub_010_day_20_data.csv,1,300,187.0,Training at home,,,,,,,,,,,,,
10,20,4692,A,34.85118881213794,52.98815146672481,1.742559440606897,0.8323359368758294,A,586.2797079998927,Correct,sub_010_day_20_data.csv,1,300,187.0,Training at home,,,,,,,,,,,,,
10,20,4693,B,75.99125971823605,48.92349402706715,3.7995629859118023,0.7684884471168912,B,625.0807500000519,Correct,sub_010_day_20_data.csv,1,300,187.0,Training at home,,,,,,,,,,,,,
10,20,4694,B,78.66922922329597,48.53695176635584,3.9334614611647982,0.7624166554841283,B,647.9827920002208,Correct,sub_010_day_20_data.csv,1,300,187.0,Training at home,,,,,,,,,,,,,
10,20,4695,B,60.565764955030225,35.92721611306374,3.028288247751511,0.5643433910236695,B,615.2085000003353,Correct,sub_010_day_20_data.csv,1,300,187.0,Training at home,,,,,,,,,,,,,
10,20,4696,B,56.82980977076501,49.36213488402741,2.84149048853825,0.7753786015858449,B,804.0978340000038,Correct,sub_010_day_20_data.csv,1,300,187.0,Training at home,,,,,,,,,,,,,
10,20,4697,B,53.51967668142319,29.106235963060815,2.6759838340711597,0.4571996853760145,B,736.2392080003701,Correct,sub_010_day_20_data.csv,1,300,187.0,Training at home,,,,,,,,,,,,,
10,20,4698,A,27.695332490048955,58.19791946898558,1.3847666245024477,0.9141707812898776,A,484.2145829998117,Correct,sub_010_day_20_data.csv,1,300,187.0,Training at home,,,,,,,,,,,,,
10,20,4699,A,10.385654926348,33.156633088295834,0.5192827463173999,0.5208231746398122,A,510.1774159998058,Correct,sub_010_day_20_data.csv,1,300,187.0,Training at home,,,,,,,,,,,,,
10,20,4700,A,52.03595002135365,70.5973415950126,2.601797501067683,1.1089404485893035,A,710.8574999997472,Correct,sub_010_day_20_data.csv,1,300,188.0,Training at home,,,,,,,,,,,,,
10,20,4701,A,66.93885684091563,89.8710153555071,3.3469428420457814,1.4116906080575828,A,552.1497909999198,Correct,sub_010_day_20_data.csv,1,300,188.0,Training at home,,,,,,,,,,,,,
10,20,4702,A,59.61036275886645,76.95412961848831,2.9805181379433225,1.2087926413641978,A,495.95724999971935,Correct,sub_010_day_20_data.csv,1,300,188.0,Training at home,,,,,,,,,,,,,
10,20,4703,A,59.201919712093726,73.00715756898252,2.9600959856046867,1.1467937493909397,A,757.1754159998818,Correct,sub_010_day_20_data.csv,1,300,188.0,Training at home,,,,,,,,,,,,,
10,20,4704,B,80.62640550889351,64.70467625827429,4.031320275444676,1.016378677929502,B,631.5483339999446,Correct,sub_010_day_20_data.csv,1,300,188.0,Training at home,,,,,,,,,,,,,
10,20,4705,A,56.84942490427106,82.89242913248788,2.842471245213553,1.3020712320041825,A,453.0342920002113,Correct,sub_010_day_20_data.csv,1,300,188.0,Training at home,,,,,,,,,,,,,
10,20,4706,A,29.82639396140414,55.780085626833355,1.491319698070207,0.8761915361093464,A,576.92866699972,Correct,sub_010_day_20_data.csv,1,300,188.0,Training at home,,,,,,,,,,,,,
10,20,4707,B,68.66819639441498,39.91715307021268,3.4334098197207488,0.6270171741879971,B,458.98229199974594,Correct,sub_010_day_20_data.csv,1,300,188.0,Training at home,,,,,,,,,,,,,
10,20,4708,B,74.96557017061568,54.88863967193325,3.748278508530784,0.8621887357944138,B,825.6436249998842,Correct,sub_010_day_20_data.csv,1,300,188.0,Training at home,,,,,,,,,,,,,
10,20,4709,A,25.496710069151085,47.31408595493204,1.2748355034575545,0.7432079242366527,A,437.6223750000463,Correct,sub_010_day_20_data.csv,1,300,188.0,Training at home,,,,,,,,,,,,,
10,20,4710,A,59.929491530373056,69.56206199581764,2.996474576518653,1.0926783146730925,A,849.3416659998729,Correct,sub_010_day_20_data.csv,1,300,188.0,Training at home,,,,,,,,,,,,,
10,20,4711,A,54.849819352261825,64.1502988566358,2.7424909676130915,1.0076705380679838,A,483.4109170001284,Correct,sub_010_day_20_data.csv,1,300,188.0,Training at home,,,,,,,,,,,,,
10,20,4712,A,61.063995530294775,78.35304006119173,3.053199776514739,1.2307666752133335,A,486.1794579996967,Correct,sub_010_day_20_data.csv,1,300,188.0,Training at home,,,,,,,,,,,,,
10,20,4713,A,47.35248640270668,65.96446454183,2.367624320135334,1.0361673860129876,A,802.6210409998384,Correct,sub_010_day_20_data.csv,1,300,188.0,Training at home,,,,,,,,,,,,,
10,20,4714,B,33.40724153447859,21.407744670399516,1.6703620767239296,0.3362720669322658,B,633.6156249999476,Correct,sub_010_day_20_data.csv,1,300,188.0,Training at home,,,,,,,,,,,,,
10,20,4715,A,44.63811012552519,74.24857196476341,2.2319055062762594,1.166293841120169,A,436.3820000003216,Correct,sub_010_day_20_data.csv,1,300,188.0,Training at home,,,,,,,,,,,,,
10,20,4716,B,85.91024926974883,68.60926836007201,4.295512463487442,1.0777118672408643,B,748.8017079999736,Correct,sub_010_day_20_data.csv,1,300,188.0,Training at home,,,,,,,,,,,,,
10,20,4717,A,37.83788865426843,51.96639874901945,1.8918944327134215,0.8162862827171865,A,752.2346249998009,Correct,sub_010_day_20_data.csv,1,300,188.0,Training at home,,,,,,,,,,,,,
10,20,4718,B,49.673098662994136,27.962177676078063,2.483654933149707,0.4392288598276968,B,482.79995800021425,Correct,sub_010_day_20_data.csv,1,300,188.0,Training at home,,,,,,,,,,,,,
10,20,4719,B,78.1057604885353,64.69027255037712,3.9052880244267647,1.016152425014931,B,682.0432080003229,Correct,sub_010_day_20_data.csv,1,300,188.0,Training at home,,,,,,,,,,,,,
10,20,4720,B,70.19542654723521,57.05019674240802,3.509771327361761,0.8961423948590068,B,527.9034999998657,Correct,sub_010_day_20_data.csv,1,300,188.0,Training at home,,,,,,,,,,,,,
10,20,4721,A,47.46186575156972,54.59404908614421,2.373093287578486,0.8575613176937561,B,604.7099580000577,Incorrect,sub_010_day_20_data.csv,0,300,188.0,Training at home,,,,,,,,,,,,,
10,20,4722,B,62.88696079475193,41.0161965445378,3.144348039737596,0.644280908712575,B,542.7851670001473,Correct,sub_010_day_20_data.csv,1,300,188.0,Training at home,,,,,,,,,,,,,
10,20,4723,B,65.6964851969503,51.96263036366553,3.2848242598475155,0.8162270890584677,B,527.2616669999479,Correct,sub_010_day_20_data.csv,1,300,188.0,Training at home,,,,,,,,,,,,,
10,20,4724,A,55.72313202147214,81.98826988817551,2.7861566010736065,1.287868731806147,A,535.7004580000648,Correct,sub_010_day_20_data.csv,1,300,188.0,Training at home,,,,,,,,,,,,,
10,20,4725,A,46.2642982115396,64.97482140563282,2.31321491057698,1.0206221079812243,A,415.5076659999395,Correct,sub_010_day_20_data.csv,1,300,189.0,Training at home,,,,,,,,,,,,,
10,20,4726,B,43.989667827070406,26.423086482699297,2.19948339135352,0.4150528718960794,B,585.8663340000021,Correct,sub_010_day_20_data.csv,1,300,189.0,Training at home,,,,,,,,,,,,,
10,20,4727,A,36.090109123494415,57.56323672632319,1.8045054561747207,0.9042012080813356,A,445.60908399989785,Correct,sub_010_day_20_data.csv,1,300,189.0,Training at home,,,,,,,,,,,,,
10,20,4728,B,67.08278969854108,58.082748415283135,3.354139484927054,0.9123616786087884,B,740.0513749998936,Correct,sub_010_day_20_data.csv,1,300,189.0,Training at home,,,,,,,,,,,,,
10,20,4729,A,30.887873862025465,52.426643636737765,1.5443936931012732,0.8235157925077273,A,530.5303750001258,Correct,sub_010_day_20_data.csv,1,300,189.0,Training at home,,,,,,,,,,,,,
10,20,4730,A,42.86089540674181,56.775280325647785,2.1430447703370903,0.891824017882781,A,462.7525420000893,Correct,sub_010_day_20_data.csv,1,300,189.0,Training at home,,,,,,,,,,,,,
10,20,4731,A,40.04365824987262,71.85713541152057,2.0021829124936312,1.1287292435842,A,496.1219159999928,Correct,sub_010_day_20_data.csv,1,300,189.0,Training at home,,,,,,,,,,,,,
10,20,4732,A,28.129135692016135,48.95638386380748,1.4064567846008067,0.7690050794642974,A,539.5101250001062,Correct,sub_010_day_20_data.csv,1,300,189.0,Training at home,,,,,,,,,,,,,
10,20,4733,A,48.40653114635239,77.3921246303531,2.42032655731762,1.2156726509221147,A,496.7142079999576,Correct,sub_010_day_20_data.csv,1,300,189.0,Training at home,,,,,,,,,,,,,
10,20,4734,B,44.94701759597739,25.32334064047687,2.2473508797988697,0.39777810460237,B,470.48704200005886,Correct,sub_010_day_20_data.csv,1,300,189.0,Training at home,,,,,,,,,,,,,
10,20,4735,B,51.7569420053485,36.89843287484484,2.587847100267425,0.5795992282429433,B,523.0000420001488,Correct,sub_010_day_20_data.csv,1,300,189.0,Training at home,,,,,,,,,,,,,
10,20,4736,A,63.46488371533073,74.33058696609808,3.1732441857665368,1.167582129748555,A,793.3512919998975,Correct,sub_010_day_20_data.csv,1,300,189.0,Training at home,,,,,,,,,,,,,
10,20,4737,B,76.07459943529963,55.218882279199896,3.803729971764982,0.8673761745388701,B,543.4957919997032,Correct,sub_010_day_20_data.csv,1,300,189.0,Training at home,,,,,,,,,,,,,
10,20,4738,B,65.52530298972943,47.6274745626984,3.276265149486471,0.7481306209760401,A,440.7835420001902,Incorrect,sub_010_day_20_data.csv,0,300,189.0,Training at home,,,,,,,,,,,,,
10,20,4739,A,39.42533653809352,65.07395770612322,1.971266826904676,1.022179337347848,A,735.0994170001286,Correct,sub_010_day_20_data.csv,1,300,189.0,Training at home,,,,,,,,,,,,,
10,20,4740,A,62.08266453183741,77.1083867832308,3.10413322659187,1.2112157072417906,A,657.8377499999988,Correct,sub_010_day_20_data.csv,1,300,189.0,Training at home,,,,,,,,,,,,,
10,20,4741,A,65.73898512438029,79.48133387549203,3.286949256219015,1.2484898730038163,A,476.4382499997737,Correct,sub_010_day_20_data.csv,1,300,189.0,Training at home,,,,,,,,,,,,,
10,20,4742,B,87.56291122709908,59.99881612810236,4.3781455613549545,0.9424591998606558,B,620.4314579999846,Correct,sub_010_day_20_data.csv,1,300,189.0,Training at home,,,,,,,,,,,,,
10,20,4743,B,58.96965374221631,34.376203485450006,2.9484826871108156,0.5399801416409878,B,669.6822500002781,Correct,sub_010_day_20_data.csv,1,300,189.0,Training at home,,,,,,,,,,,,,
10,20,4744,B,77.80156211245256,63.85302106292603,3.890078105622627,1.0030009094040138,B,551.7537079999784,Correct,sub_010_day_20_data.csv,1,300,189.0,Training at home,,,,,,,,,,,,,
10,20,4745,B,43.88229487570851,28.416471267478,2.1941147437854256,0.4463648868742716,B,566.5411250001853,Correct,sub_010_day_20_data.csv,1,300,189.0,Training at home,,,,,,,,,,,,,
10,20,4746,A,26.653695567290377,56.84827428693296,1.332684778364519,0.8929706043454306,A,605.2053339999475,Correct,sub_010_day_20_data.csv,1,300,189.0,Training at home,,,,,,,,,,,,,
10,20,4747,A,23.078871774046863,35.33796060897882,1.153943588702343,0.5550873872100667,A,616.1968749997868,Correct,sub_010_day_20_data.csv,1,300,189.0,Training at home,,,,,,,,,,,,,
10,20,4748,B,44.87322400043666,16.235695970389063,2.243661200021833,0.2550297159324584,B,557.003832999726,Correct,sub_010_day_20_data.csv,1,300,189.0,Training at home,,,,,,,,,,,,,
10,20,4749,A,29.933101200700033,59.771715362084095,1.4966550600350017,0.938891909369918,A,680.1116669998919,Correct,sub_010_day_20_data.csv,1,300,189.0,Training at home,,,,,,,,,,,,,
10,20,4750,B,52.69603544461003,41.45857812181477,2.6348017722305017,0.6512298222788591,B,506.77520799990816,Correct,sub_010_day_20_data.csv,1,300,190.0,Training at home,,,,,,,,,,,,,
10,20,4751,B,41.24469392690979,15.300193758915745,2.06223469634549,0.2403348815575504,B,342.4350830000549,Correct,sub_010_day_20_data.csv,1,300,190.0,Training at home,,,,,,,,,,,,,
10,20,4752,B,56.55317970654798,46.32151535683753,2.8276589853273992,0.7276166617409378,B,559.6484170000622,Correct,sub_010_day_20_data.csv,1,300,190.0,Training at home,,,,,,,,,,,,,
10,20,4753,B,81.45337014929113,50.54348946293138,4.072668507464557,0.7939352759176918,B,458.71441700001014,Correct,sub_010_day_20_data.csv,1,300,190.0,Training at home,,,,,,,,,,,,,
10,20,4754,B,80.01247582203715,50.690523680018586,4.000623791101857,0.7962448839988292,B,523.0266250000568,Correct,sub_010_day_20_data.csv,1,300,190.0,Training at home,,,,,,,,,,,,,
10,20,4755,B,64.07924494833846,47.85236787546573,3.2039622474169227,0.7516632368721968,B,424.36616699978913,Correct,sub_010_day_20_data.csv,1,300,190.0,Training at home,,,,,,,,,,,,,
10,20,4756,B,49.58978514450564,36.148370107185066,2.479489257225282,0.5678172698398873,B,381.28641599996627,Correct,sub_010_day_20_data.csv,1,300,190.0,Training at home,,,,,,,,,,,,,
10,20,4757,B,44.99722266091881,35.70492390126273,2.24986113304594,0.560851633125948,B,536.48529100019,Correct,sub_010_day_20_data.csv,1,300,190.0,Training at home,,,,,,,,,,,,,
10,20,4758,B,44.93265294673206,36.98499125855305,2.246632647336603,0.5809588841547649,B,371.695957999691,Correct,sub_010_day_20_data.csv,1,300,190.0,Training at home,,,,,,,,,,,,,
10,20,4759,A,15.838836906766357,41.18544385656456,0.7919418453383179,0.6469394392730905,A,625.3949170004489,Correct,sub_010_day_20_data.csv,1,300,190.0,Training at home,,,,,,,,,,,,,
10,20,4760,A,12.372319681093895,38.48271178713303,0.6186159840546948,0.6044850232033523,A,434.9060419999659,Correct,sub_010_day_20_data.csv,1,300,190.0,Training at home,,,,,,,,,,,,,
10,20,4761,A,34.46847930442304,42.78274968967558,1.7234239652211525,0.6720298606272791,A,683.9875000000575,Correct,sub_010_day_20_data.csv,1,300,190.0,Training at home,,,,,,,,,,,,,
10,20,4762,A,22.822267930826868,42.55684095701329,1.1411133965413434,0.668481294552711,A,513.6054999998123,Correct,sub_010_day_20_data.csv,1,300,190.0,Training at home,,,,,,,,,,,,,
10,20,4763,B,82.07571435096712,60.696460866804514,4.103785717548356,0.953417777790267,B,608.2413750000342,Correct,sub_010_day_20_data.csv,1,300,190.0,Training at home,,,,,,,,,,,,,
10,20,4764,B,47.19735642056094,17.614331104687743,2.3598678210280473,0.2766852659819259,B,436.7339589998665,Correct,sub_010_day_20_data.csv,1,300,190.0,Training at home,,,,,,,,,,,,,
10,20,4765,A,57.013689762635046,83.97434064214985,2.850684488131752,1.3190658582571235,A,460.4602909998903,Correct,sub_010_day_20_data.csv,1,300,190.0,Training at home,,,,,,,,,,,,,
10,20,4766,B,45.81431584860753,37.807705824104346,2.2907157924303765,0.5938820543304512,B,590.8277080002335,Correct,sub_010_day_20_data.csv,1,300,190.0,Training at home,,,,,,,,,,,,,
10,20,4767,B,45.114744948808614,36.60365871723939,2.2557372474404307,0.5749689266029363,B,498.5161669997069,Correct,sub_010_day_20_data.csv,1,300,190.0,Training at home,,,,,,,,,,,,,
10,20,4768,A,54.0932322759311,63.59563193861695,2.7046616137965547,0.998957850493797,A,450.9597080000276,Correct,sub_010_day_20_data.csv,1,300,190.0,Training at home,,,,,,,,,,,,,
10,20,4769,B,61.6054479114358,36.59407497541317,3.0802723955717903,0.5748183855383605,B,447.7072089998728,Correct,sub_010_day_20_data.csv,1,300,190.0,Training at home,,,,,,,,,,,,,
10,20,4770,A,25.580014526308517,43.60797796222879,1.279000726315426,0.6849925160202178,A,506.71570799977417,Correct,sub_010_day_20_data.csv,1,300,190.0,Training at home,,,,,,,,,,,,,
10,20,4771,B,62.40110524202824,50.05410024060106,3.1200552621014115,0.786247967989597,B,496.6833329999645,Correct,sub_010_day_20_data.csv,1,300,190.0,Training at home,,,,,,,,,,,,,
10,20,4772,B,74.03825989780202,55.858320797297175,3.7019129948901015,0.8774204512932537,A,438.8693750001949,Incorrect,sub_010_day_20_data.csv,0,300,190.0,Training at home,,,,,,,,,,,,,
10,20,4773,B,63.015208575935176,49.996229988459866,3.1507604287967585,0.7853389441946561,B,416.97337499999776,Correct,sub_010_day_20_data.csv,1,300,190.0,Training at home,,,,,,,,,,,,,
10,20,4774,B,33.72099080270726,11.216260441542516,1.6860495401353632,0.1761846070194989,B,396.1908749997747,Correct,sub_010_day_20_data.csv,1,300,190.0,Training at home,,,,,,,,,,,,,
10,20,4775,A,55.52580001494492,73.97915508530973,2.776290000747246,1.1620618506739453,A,375.3517919999467,Correct,sub_010_day_20_data.csv,1,300,191.0,Training at home,,,,,,,,,,,,,
10,20,4776,A,22.926866521722584,46.54875170014124,1.146343326086129,0.7311860818746955,A,512.0789580000746,Correct,sub_010_day_20_data.csv,1,300,191.0,Training at home,,,,,,,,,,,,,
10,20,4777,B,85.43906815350022,57.70181491517547,4.271953407675011,0.906377989181566,B,594.8397080001087,Correct,sub_010_day_20_data.csv,1,300,191.0,Training at home,,,,,,,,,,,,,
10,20,4778,B,88.13867087941216,62.19750481805349,4.4069335439706085,0.9769961210400628,B,808.0271670000911,Correct,sub_010_day_20_data.csv,1,300,191.0,Training at home,,,,,,,,,,,,,
10,20,4779,B,46.845352278556774,18.40472901251416,2.342267613927839,0.289100807285127,B,455.47208400012096,Correct,sub_010_day_20_data.csv,1,300,191.0,Training at home,,,,,,,,,,,,,
10,20,4780,B,80.91986068266405,63.67297506232717,4.045993034133203,1.0001727534400655,A,1078.818333000072,Incorrect,sub_010_day_20_data.csv,0,300,191.0,Training at home,,,,,,,,,,,,,
10,20,4781,B,85.15829106707949,67.06165781692461,4.257914553353975,1.0534020576760144,B,484.1555830003017,Correct,sub_010_day_20_data.csv,1,300,191.0,Training at home,,,,,,,,,,,,,
10,20,4782,A,66.13639509538196,88.2392231237296,3.306819754769098,1.3860584756198977,A,568.7122499998623,Correct,sub_010_day_20_data.csv,1,300,191.0,Training at home,,,,,,,,,,,,,
10,20,4783,B,38.76511385195148,29.560425903378977,1.938255692597574,0.464334084275204,B,486.4897080001356,Correct,sub_010_day_20_data.csv,1,300,191.0,Training at home,,,,,,,,,,,,,
10,20,4784,A,15.646909064567453,30.452668084211357,0.7823454532283727,0.4783493916778338,A,515.6603750001523,Correct,sub_010_day_20_data.csv,1,300,191.0,Training at home,,,,,,,,,,,,,
10,20,4785,B,49.410046518050194,28.865386132102508,2.4705023259025096,0.4534164250782296,B,399.66370799993456,Correct,sub_010_day_20_data.csv,1,300,191.0,Training at home,,,,,,,,,,,,,
10,20,4786,A,20.304101501668836,44.80846194947327,1.0152050750834418,0.7038496743956151,A,455.9444579999763,Correct,sub_010_day_20_data.csv,1,300,191.0,Training at home,,,,,,,,,,,,,
10,20,4787,B,75.3485699895002,49.73944570092141,3.7674284994750105,0.7813053860382156,B,480.045333000362,Correct,sub_010_day_20_data.csv,1,300,191.0,Training at home,,,,,,,,,,,,,
10,20,4788,A,60.3524086491729,83.72038194197694,3.017620432458645,1.3150766843232315,A,659.0680419999444,Correct,sub_010_day_20_data.csv,1,300,191.0,Training at home,,,,,,,,,,,,,
10,20,4789,B,59.06841076518525,33.708291486293575,2.9534205382592624,0.5294886044920163,B,422.81333399978394,Correct,sub_010_day_20_data.csv,1,300,191.0,Training at home,,,,,,,,,,,,,
10,20,4790,A,29.661695158680715,59.63115937607632,1.4830847579340358,0.9366840611046172,A,420.2308330000051,Correct,sub_010_day_20_data.csv,1,300,191.0,Training at home,,,,,,,,,,,,,
10,20,4791,A,53.45499446902617,80.44748645505118,2.672749723451308,1.263666162234766,A,479.47774999965986,Correct,sub_010_day_20_data.csv,1,300,191.0,Training at home,,,,,,,,,,,,,
10,20,4792,A,44.95435276321915,53.27502750222507,2.2477176381609576,0.8368421751039223,A,469.1237080000974,Correct,sub_010_day_20_data.csv,1,300,191.0,Training at home,,,,,,,,,,,,,
10,20,4793,A,39.63816419643349,58.152528519498624,1.9819082098216745,0.913457781922639,A,419.922540999778,Correct,sub_010_day_20_data.csv,1,300,191.0,Training at home,,,,,,,,,,,,,
10,20,4794,B,69.88403374236108,47.89354669652406,3.4942016871180543,0.7523100722807985,B,559.7482499997568,Correct,sub_010_day_20_data.csv,1,300,191.0,Training at home,,,,,,,,,,,,,
10,20,4795,A,56.566771915357656,69.4787588851323,2.8283385957678826,1.091369792470341,A,443.85162499975195,Correct,sub_010_day_20_data.csv,1,300,191.0,Training at home,,,,,,,,,,,,,
10,20,4796,B,39.23227049615304,26.832911273142063,1.961613524807652,0.4214903846506493,B,408.2099580000431,Correct,sub_010_day_20_data.csv,1,300,191.0,Training at home,,,,,,,,,,,,,
10,20,4797,A,23.812687664088827,42.14292695132816,1.1906343832044413,0.6619795485553192,A,565.5432500002462,Correct,sub_010_day_20_data.csv,1,300,191.0,Training at home,,,,,,,,,,,,,
10,20,4798,B,58.00694662865731,27.184560828164752,2.900347331432865,0.4270140829441362,B,471.1248329999762,Correct,sub_010_day_20_data.csv,1,300,191.0,Training at home,,,,,,,,,,,,,
10,20,4799,B,74.34844425614034,61.68191978958723,3.717422212807017,0.9688973303514108,B,820.6937499999185,Correct,sub_010_day_20_data.csv,1,300,191.0,Training at home,,,,,,,,,,,,,
