subject,day,trial,cat,x,y,xt,yt,resp,rt,fb,f_name,acc,n_trials,block,session_type,ns_left_digit,ns_right_digit,ns_left_size,ns_right_size,ns_congruent,ns_cue,ns_correct_side,ns_resp,ns_rt,ns_fb,acc_stroop,acc_stroop_mean,resp_key
4,23,0,B,43.86737286145457,18.592358368009943,2.1933686430727284,0.2920480823092438,B,1404.51669995673,Correct,sub_004_day_23_data.csv,1,576,,Button-Switch at home,,,,,,,,,,,,,d
4,23,1,A,15.217052362729138,45.0428269783183,0.7608526181364569,0.7075310716600046,A,1137.0214000344276,Correct,sub_004_day_23_data.csv,1,576,,Button-Switch at home,,,,,,,,,,,,,k
4,23,2,B,40.09991373744383,28.671209536014096,2.0049956868721917,0.4503663062393776,B,3489.849899895489,Correct,sub_004_day_23_data.csv,1,576,,Button-Switch at home,,,,,,,,,,,,,d
4,23,3,A,27.899066464566257,48.99058345735206,1.394953323228313,0.7695422854234745,A,1538.9628000557425,Correct,sub_004_day_23_data.csv,1,576,,Button-Switch at home,,,,,,,,,,,,,k
4,23,4,A,38.63778062988304,64.0304200954212,1.931889031494152,1.0057874868902177,A,5465.535700088367,Correct,sub_004_day_23_data.csv,1,576,,Button-Switch at home,,,,,,,,,,,,,k
4,23,5,B,67.0220975159989,51.48200693068409,3.351104875799945,0.8086774738274798,B,1798.059199936688,Correct,sub_004_day_23_data.csv,1,576,,Button-Switch at home,,,,,,,,,,,,,d
4,23,6,A,49.26814314023341,79.79877616375097,2.4634071570116705,1.253476244807482,A,1033.3916998934,Correct,sub_004_day_23_data.csv,1,576,,Button-Switch at home,,,,,,,,,,,,,k
4,23,7,A,60.06910486054679,84.64616658334195,3.003455243027339,1.3296188754638247,A,1295.4227000009269,Correct,sub_004_day_23_data.csv,1,576,,Button-Switch at home,,,,,,,,,,,,,k
4,23,8,B,58.233646576668235,39.214537879274616,2.9116823288334115,0.6159805205772391,B,1358.3586998283863,Correct,sub_004_day_23_data.csv,1,576,,Button-Switch at home,,,,,,,,,,,,,d
4,23,9,B,55.664228068411816,29.507814499396865,2.783211403420591,0.4635076662739778,B,834.9957000464201,Correct,sub_004_day_23_data.csv,1,576,,Button-Switch at home,,,,,,,,,,,,,d
4,23,10,A,50.025184245502224,60.46334900106167,2.5012592122751114,0.9497560651658556,B,1812.4335000757128,Incorrect,sub_004_day_23_data.csv,0,576,,Button-Switch at home,,,,,,,,,,,,,d
4,23,11,A,58.79498962815295,82.67690639155312,2.9397494814076475,1.2986858087061712,A,980.9415000490844,Correct,sub_004_day_23_data.csv,1,576,,Button-Switch at home,,,,,,,,,,,,,k
4,23,12,A,65.80483671996352,88.3021634739826,3.290241835998176,1.3870471403297435,A,938.8190000317992,Correct,sub_004_day_23_data.csv,1,576,,Button-Switch at home,,,,,,,,,,,,,k
4,23,13,B,53.01954781030583,40.63525300799809,2.650977390515292,0.6382970616334467,B,1588.184499880299,Correct,sub_004_day_23_data.csv,1,576,,Button-Switch at home,,,,,,,,,,,,,d
4,23,14,B,68.80025702097132,56.7776791904569,3.440012851048566,0.8918616991630873,B,1610.1351999677718,Correct,sub_004_day_23_data.csv,1,576,,Button-Switch at home,,,,,,,,,,,,,d
4,23,15,A,52.42395123122359,73.86253045753082,2.6211975615611793,1.1602299153046558,A,1488.0378001835195,Correct,sub_004_day_23_data.csv,1,576,,Button-Switch at home,,,,,,,,,,,,,k
4,23,16,B,77.88151107106904,48.570310093317275,3.894075553553452,0.7629406468587187,B,1373.3645000029355,Correct,sub_004_day_23_data.csv,1,576,,Button-Switch at home,,,,,,,,,,,,,d
4,23,17,A,28.94051231320858,44.130652309978814,1.447025615660429,0.6932026654757745,A,1032.506400020793,Correct,sub_004_day_23_data.csv,1,576,,Button-Switch at home,,,,,,,,,,,,,k
4,23,18,B,67.72320996067666,56.47560172836155,3.3861604980338327,0.8871166774844184,B,1081.5457999706268,Correct,sub_004_day_23_data.csv,1,576,,Button-Switch at home,,,,,,,,,,,,,d
4,23,19,B,43.40462697194296,30.855784405238843,2.170231348597148,0.4846815280412443,B,854.5554999727756,Correct,sub_004_day_23_data.csv,1,576,,Button-Switch at home,,,,,,,,,,,,,d
4,23,20,A,41.637987621812,49.019116416035466,2.0818993810906,0.7699904800903993,A,1497.1789999399334,Correct,sub_004_day_23_data.csv,1,576,,Button-Switch at home,,,,,,,,,,,,,k
4,23,21,A,58.10728914172586,85.04355266207062,2.905364457086293,1.3358610013916885,A,909.6262999810278,Correct,sub_004_day_23_data.csv,1,576,,Button-Switch at home,,,,,,,,,,,,,k
4,23,22,B,37.81497520873984,17.591257120172443,1.890748760436992,0.2763228206807144,A,1692.5518999341875,Incorrect,sub_004_day_23_data.csv,0,576,,Button-Switch at home,,,,,,,,,,,,,k
4,23,23,B,44.864074985609456,30.07038239039686,2.2432037492804726,0.4723444620415333,B,849.9000000301749,Correct,sub_004_day_23_data.csv,1,576,,Button-Switch at home,,,,,,,,,,,,,d
4,23,24,B,79.56861976251153,52.87669749170221,3.978430988125576,0.8305852219301074,B,2260.9821998048574,Correct,sub_004_day_23_data.csv,1,576,,Button-Switch at home,,,,,,,,,,,,,d
4,23,25,B,69.60893825176464,47.51342982384434,3.480446912588232,0.7463392104072178,B,1465.8782000187784,Correct,sub_004_day_23_data.csv,1,576,,Button-Switch at home,,,,,,,,,,,,,d
4,23,26,A,28.79617908017313,37.8763471340026,1.4398089540086565,0.5949602695049969,A,1520.576000213623,Correct,sub_004_day_23_data.csv,1,576,,Button-Switch at home,,,,,,,,,,,,,k
4,23,27,B,46.96071168082322,18.168124301734096,2.3480355840411615,0.2853842291791701,B,1895.0806998182088,Correct,sub_004_day_23_data.csv,1,576,,Button-Switch at home,,,,,,,,,,,,,d
4,23,28,B,40.6389085501021,17.560843400583877,2.031945427505105,0.2758450830905755,B,833.567300112918,Correct,sub_004_day_23_data.csv,1,576,,Button-Switch at home,,,,,,,,,,,,,d
4,23,29,B,46.552095160728925,17.761533670075003,2.327604758036446,0.2789975184719769,B,814.5055000204593,Correct,sub_004_day_23_data.csv,1,576,,Button-Switch at home,,,,,,,,,,,,,d
4,23,30,A,39.20166151197137,53.96501285631349,1.9600830755985683,0.847680439701366,A,1451.8365000840276,Correct,sub_004_day_23_data.csv,1,576,,Button-Switch at home,,,,,,,,,,,,,k
4,23,31,A,31.091988925086852,57.93392607880852,1.5545994462543429,0.9100239828139948,A,1524.0307999774814,Correct,sub_004_day_23_data.csv,1,576,,Button-Switch at home,,,,,,,,,,,,,k
4,23,32,B,51.79757662125917,44.481765527240334,2.5898788310629586,0.6987179389954097,A,2148.7167000304908,Incorrect,sub_004_day_23_data.csv,0,576,,Button-Switch at home,,,,,,,,,,,,,k
4,23,33,B,67.46441985211412,51.698909969192925,3.373220992605706,0.812084578789083,B,947.5805000402032,Correct,sub_004_day_23_data.csv,1,576,,Button-Switch at home,,,,,,,,,,,,,d
4,23,34,B,81.79725315872508,67.26403056222264,4.089862657936254,1.05658092132559,B,1536.2826001364738,Correct,sub_004_day_23_data.csv,1,576,,Button-Switch at home,,,,,,,,,,,,,d
4,23,35,B,40.8805134994394,16.79377647411195,2.0440256749719703,0.263796023985496,B,1147.302299970761,Correct,sub_004_day_23_data.csv,1,576,,Button-Switch at home,,,,,,,,,,,,,d
4,23,36,A,26.74908065127302,47.73686617762935,1.3374540325636508,0.7498489404451972,A,1094.8731999378651,Correct,sub_004_day_23_data.csv,1,576,,Button-Switch at home,,,,,,,,,,,,,k
4,23,37,B,61.921258471778984,47.424860359923656,3.096062923588949,0.7449479645212898,B,1544.5224000141025,Correct,sub_004_day_23_data.csv,1,576,,Button-Switch at home,,,,,,,,,,,,,d
4,23,38,A,14.864747694730664,33.050715716664385,0.7432373847365332,0.5191594284567878,A,822.4504999816418,Correct,sub_004_day_23_data.csv,1,576,,Button-Switch at home,,,,,,,,,,,,,k
4,23,39,A,41.91864457064613,68.98340382535815,2.0959322285323068,1.083588773386816,A,5257.932000095025,Correct,sub_004_day_23_data.csv,1,576,,Button-Switch at home,,,,,,,,,,,,,k
4,23,40,B,47.70570982086902,18.46176157033913,2.385285491043451,0.2899966726085189,B,905.7399998418988,Correct,sub_004_day_23_data.csv,1,576,,Button-Switch at home,,,,,,,,,,,,,d
4,23,41,A,59.44492559086984,86.84833235604258,2.972246279543492,1.3642104145313405,A,918.2040998712182,Correct,sub_004_day_23_data.csv,1,576,,Button-Switch at home,,,,,,,,,,,,,k
4,23,42,B,63.16229064260376,30.03050625815188,3.158114532130188,0.4717180892209612,B,1022.0665000379086,Correct,sub_004_day_23_data.csv,1,576,,Button-Switch at home,,,,,,,,,,,,,d
4,23,43,A,69.60095487228016,87.36317139699874,3.480047743614008,1.3722974872755858,A,857.4032001197338,Correct,sub_004_day_23_data.csv,1,576,,Button-Switch at home,,,,,,,,,,,,,k
4,23,44,B,67.00744121625381,49.90590476837437,3.3503720608126906,0.7839201189553836,B,2053.071000147611,Correct,sub_004_day_23_data.csv,1,576,,Button-Switch at home,,,,,,,,,,,,,d
4,23,45,A,19.840383336544377,37.99559756308955,0.9920191668272188,0.5968334508647819,A,1009.5175001770258,Correct,sub_004_day_23_data.csv,1,576,,Button-Switch at home,,,,,,,,,,,,,k
4,23,46,B,78.2824014759529,54.47832690125874,3.914120073797645,0.8557435578642882,B,1389.9570000357926,Correct,sub_004_day_23_data.csv,1,576,,Button-Switch at home,,,,,,,,,,,,,d
4,23,47,A,59.22543147678604,69.84498191674376,2.9612715738393023,1.097122410398771,B,7283.352700062096,Incorrect,sub_004_day_23_data.csv,0,576,,Button-Switch at home,,,,,,,,,,,,,d
4,23,48,B,52.51482554078964,29.02676122427001,2.625741277039482,0.4559512990983587,B,976.7967001534998,Correct,sub_004_day_23_data.csv,1,576,,Button-Switch at home,,,,,,,,,,,,,d
4,23,49,B,82.30273857503158,53.17015412461715,4.115136928751579,0.8351948279406713,B,951.593399979174,Correct,sub_004_day_23_data.csv,1,576,,Button-Switch at home,,,,,,,,,,,,,d
4,23,50,B,78.25871857912637,58.4172148232056,3.912935928956318,0.9176154646587972,B,614.0798998530954,Correct,sub_004_day_23_data.csv,1,576,,Button-Switch at home,,,,,,,,,,,,,d
4,23,51,B,70.74249543243981,57.77020597859934,3.5371247716219902,0.907452273493684,B,660.9129998832941,Correct,sub_004_day_23_data.csv,1,576,,Button-Switch at home,,,,,,,,,,,,,d
4,23,52,A,57.31830269717554,74.42408443922527,2.8659151348587772,1.1690507846220828,A,13009.396200068297,Correct,sub_004_day_23_data.csv,1,576,,Button-Switch at home,,,,,,,,,,,,,k
4,23,53,A,11.655086430342394,35.915228512886,0.5827543215171197,0.5641550902404067,A,973.1472998391836,Correct,sub_004_day_23_data.csv,1,576,,Button-Switch at home,,,,,,,,,,,,,k
4,23,54,B,37.10037384889456,21.778246816060317,1.8550186924447276,0.342091901027002,B,1282.3292000684887,Correct,sub_004_day_23_data.csv,1,576,,Button-Switch at home,,,,,,,,,,,,,d
4,23,55,B,36.00410913351409,21.55626191487578,1.8002054566757044,0.3386049703531559,B,771.3107001036406,Correct,sub_004_day_23_data.csv,1,576,,Button-Switch at home,,,,,,,,,,,,,d
4,23,56,B,85.11550494281504,66.86962994078156,4.255775247140752,1.0503856908511373,B,3818.777099950239,Correct,sub_004_day_23_data.csv,1,576,,Button-Switch at home,,,,,,,,,,,,,d
4,23,57,B,75.00590245312549,51.08400504695308,3.7502951226562744,0.8024256748572585,B,1112.4439002014697,Correct,sub_004_day_23_data.csv,1,576,,Button-Switch at home,,,,,,,,,,,,,d
4,23,58,A,51.31859949733843,64.85011935501066,2.565929974866922,1.0186632927506136,B,2110.439200187102,Incorrect,sub_004_day_23_data.csv,0,576,,Button-Switch at home,,,,,,,,,,,,,d
4,23,59,B,53.34901937152143,38.60932667541182,2.667450968576071,0.606473885217611,B,4343.911599833518,Correct,sub_004_day_23_data.csv,1,576,,Button-Switch at home,,,,,,,,,,,,,d
4,23,60,A,20.407481940734133,50.271570774236594,1.0203740970367066,0.7896639871438051,A,1142.7656998857856,Correct,sub_004_day_23_data.csv,1,576,,Button-Switch at home,,,,,,,,,,,,,k
4,23,61,B,33.32164442686663,12.234573853409554,1.6660822213433313,0.1921802366883661,B,1104.3611001223326,Correct,sub_004_day_23_data.csv,1,576,,Button-Switch at home,,,,,,,,,,,,,d
4,23,62,A,44.871642176392605,75.49442284734259,2.24358210881963,1.185863621021065,A,2154.4929000083357,Correct,sub_004_day_23_data.csv,1,576,,Button-Switch at home,,,,,,,,,,,,,k
4,23,63,B,50.30013034914183,23.544095254272424,2.5150065174570915,0.3698297834312029,B,4261.98700000532,Correct,sub_004_day_23_data.csv,1,576,,Button-Switch at home,,,,,,,,,,,,,d
4,23,64,A,39.22439416005841,71.41695937329203,1.9612197080029208,1.1218149745442747,A,1951.9587999675423,Correct,sub_004_day_23_data.csv,1,576,,Button-Switch at home,,,,,,,,,,,,,k
4,23,65,A,27.847025957645577,47.9895864116326,1.3923512978822787,0.7538186605979875,A,1038.4946998674425,Correct,sub_004_day_23_data.csv,1,576,,Button-Switch at home,,,,,,,,,,,,,k
4,23,66,B,35.26727503005547,18.586163672524105,1.7633637515027738,0.2919507762600961,B,736.2613999284804,Correct,sub_004_day_23_data.csv,1,576,,Button-Switch at home,,,,,,,,,,,,,d
4,23,67,B,87.25729761286325,63.57455328023342,4.362864880643162,0.9986267477021712,B,1594.654600135982,Correct,sub_004_day_23_data.csv,1,576,,Button-Switch at home,,,,,,,,,,,,,d
4,23,68,A,14.30054862695535,38.69831214340391,0.7150274313477675,0.6078716656802121,A,839.4128000363708,Correct,sub_004_day_23_data.csv,1,576,,Button-Switch at home,,,,,,,,,,,,,k
4,23,69,B,57.33983962047629,27.128465203396736,2.8669919810238143,0.4261329349307876,B,919.2898999899626,Correct,sub_004_day_23_data.csv,1,576,,Button-Switch at home,,,,,,,,,,,,,d
4,23,70,A,10.777388940674882,33.731485131232645,0.5388694470337441,0.529852929414769,A,700.5298000294715,Correct,sub_004_day_23_data.csv,1,576,,Button-Switch at home,,,,,,,,,,,,,k
4,23,71,B,33.35863205256887,10.85665787631379,1.6679316026284436,0.1705359831338258,B,815.6275001820177,Correct,sub_004_day_23_data.csv,1,576,,Button-Switch at home,,,,,,,,,,,,,d
4,23,72,A,16.740124122104387,39.8757901453655,0.8370062061052194,0.6263674468838426,A,971.630899934098,Correct,sub_004_day_23_data.csv,1,576,,Button-Switch at home,,,,,,,,,,,,,k
4,23,73,B,86.9333930272588,68.50086315552738,4.346669651362941,1.0760090422698227,B,2198.910400038585,Correct,sub_004_day_23_data.csv,1,576,,Button-Switch at home,,,,,,,,,,,,,d
4,23,74,B,51.285959849413885,42.034171461233704,2.564297992470694,0.6602712213117278,A,3199.7618000023067,Incorrect,sub_004_day_23_data.csv,0,576,,Button-Switch at home,,,,,,,,,,,,,k
4,23,75,B,88.50254512758895,64.20580101472643,4.425127256379447,1.0085423639285631,B,861.5755999926478,Correct,sub_004_day_23_data.csv,1,576,,Button-Switch at home,,,,,,,,,,,,,d
4,23,76,B,85.68418234385246,56.98179090171444,4.284209117192622,0.8950678784260789,B,1051.3887000270188,Correct,sub_004_day_23_data.csv,1,576,,Button-Switch at home,,,,,,,,,,,,,d
4,23,77,A,31.473722802716445,39.9221108318451,1.5736861401358224,0.6270950505256103,A,2647.863899823278,Correct,sub_004_day_23_data.csv,1,576,,Button-Switch at home,,,,,,,,,,,,,k
4,23,78,A,14.929275558990554,30.461741058718214,0.7464637779495277,0.4784919096281186,A,1021.9352999702096,Correct,sub_004_day_23_data.csv,1,576,,Button-Switch at home,,,,,,,,,,,,,k
4,23,79,A,15.825855470654233,36.09321277472318,0.7912927735327117,0.566950860487618,A,868.7495000194758,Correct,sub_004_day_23_data.csv,1,576,,Button-Switch at home,,,,,,,,,,,,,k
4,23,80,B,74.912231028125,62.103837370551034,3.7456115514062502,0.975524796215292,B,1039.155500009656,Correct,sub_004_day_23_data.csv,1,576,,Button-Switch at home,,,,,,,,,,,,,d
4,23,81,B,59.813137618484994,29.050506769892927,2.99065688092425,0.4563242932567808,B,650.4304001573473,Correct,sub_004_day_23_data.csv,1,576,,Button-Switch at home,,,,,,,,,,,,,d
4,23,82,A,56.417931936816615,64.92039002205794,2.820896596840831,1.0197671018074068,A,7248.774299863726,Correct,sub_004_day_23_data.csv,1,576,,Button-Switch at home,,,,,,,,,,,,,k
4,23,83,A,62.31119710303775,82.98518010637773,3.1155598551518877,1.3035281608951106,A,1151.0208998806777,Correct,sub_004_day_23_data.csv,1,576,,Button-Switch at home,,,,,,,,,,,,,k
4,23,84,A,30.322040406306876,47.10722785757087,1.516102020315344,0.7399586048416253,A,1386.978599941358,Correct,sub_004_day_23_data.csv,1,576,,Button-Switch at home,,,,,,,,,,,,,k
4,23,85,A,59.93209448015712,79.75118368453367,2.996604724007856,1.2527286638921058,A,1126.2632999569178,Correct,sub_004_day_23_data.csv,1,576,,Button-Switch at home,,,,,,,,,,,,,k
4,23,86,B,66.30346766451194,39.60516563339896,3.3151733832255967,0.6221164869904655,B,1021.4709001593292,Correct,sub_004_day_23_data.csv,1,576,,Button-Switch at home,,,,,,,,,,,,,d
4,23,87,A,28.960278968722896,53.99493557815636,1.4480139484361447,0.8481504647169509,A,1235.293899895623,Correct,sub_004_day_23_data.csv,1,576,,Button-Switch at home,,,,,,,,,,,,,k
4,23,88,B,75.07892222534494,47.88768755659359,3.7539461112672474,0.752218037125989,B,833.2232998218387,Correct,sub_004_day_23_data.csv,1,576,,Button-Switch at home,,,,,,,,,,,,,d
4,23,89,B,70.19794051123115,46.37191446228848,3.509897025561558,0.7284083290380988,B,1285.924500087276,Correct,sub_004_day_23_data.csv,1,576,,Button-Switch at home,,,,,,,,,,,,,d
4,23,90,A,57.919428350890456,74.38154804954489,2.8959714175445233,1.168382624575432,A,2951.860200148076,Correct,sub_004_day_23_data.csv,1,576,,Button-Switch at home,,,,,,,,,,,,,k
4,23,91,B,72.08787669046765,49.77329224735176,3.6043938345233824,0.7818370463462906,B,5044.926600065082,Correct,sub_004_day_23_data.csv,1,576,,Button-Switch at home,,,,,,,,,,,,,d
4,23,92,A,32.12948004527867,56.00904110557508,1.6064740022639337,0.8797879603594172,A,1422.768000047654,Correct,sub_004_day_23_data.csv,1,576,,Button-Switch at home,,,,,,,,,,,,,k
4,23,93,B,39.55042948236509,14.25666344387898,1.9775214741182543,0.2239431456999618,B,1926.249499898404,Correct,sub_004_day_23_data.csv,1,576,,Button-Switch at home,,,,,,,,,,,,,d
4,23,94,A,29.71806723119618,54.39244064455688,1.4859033615598092,0.8543944596987938,A,897.3660999909043,Correct,sub_004_day_23_data.csv,1,576,,Button-Switch at home,,,,,,,,,,,,,k
4,23,95,A,29.64754335756903,43.519330758665575,1.4823771678784516,0.6836000490028404,A,817.579299909994,Correct,sub_004_day_23_data.csv,1,576,,Button-Switch at home,,,,,,,,,,,,,k
4,23,96,A,44.19681636332789,70.19832802776828,2.2098408181663944,1.1026727581316167,A,1749.5484999381006,Correct,sub_004_day_23_data.csv,1,576,,Button-Switch at home,,,,,,,,,,,,,k
4,23,97,A,44.83460084322113,52.187769114579865,2.2417300421610564,0.8197635602880221,B,1215.8788999076933,Incorrect,sub_004_day_23_data.csv,0,576,,Button-Switch at home,,,,,,,,,,,,,d
4,23,98,A,28.68322795288814,42.57464777890918,1.4341613976444068,0.6687610034569704,A,750.7650998886675,Correct,sub_004_day_23_data.csv,1,576,,Button-Switch at home,,,,,,,,,,,,,k
4,23,99,A,22.4693696766002,54.47049006870879,1.12346848383001,0.8556204571864566,A,777.2135001141578,Correct,sub_004_day_23_data.csv,1,576,,Button-Switch at home,,,,,,,,,,,,,k
4,23,100,B,65.26205349254226,51.54438509461965,3.263102674627113,0.8096573077353018,B,1199.1198000032457,Correct,sub_004_day_23_data.csv,1,576,,Button-Switch at home,,,,,,,,,,,,,d
4,23,101,B,87.7304751399751,68.14354574015293,4.386523756998755,1.0703963134341223,B,2500.5370997823775,Correct,sub_004_day_23_data.csv,1,576,,Button-Switch at home,,,,,,,,,,,,,d
4,23,102,B,50.597726490864225,32.02311614846442,2.5298863245432113,0.5030179321853423,B,977.6149999815972,Correct,sub_004_day_23_data.csv,1,576,,Button-Switch at home,,,,,,,,,,,,,d
4,23,103,A,51.373583985250875,66.6681926856727,2.5686791992625437,1.0472215218470906,A,3592.602099990472,Correct,sub_004_day_23_data.csv,1,576,,Button-Switch at home,,,,,,,,,,,,,k
4,23,104,A,48.327034496138815,69.66246907492548,2.416351724806941,1.0942555053835603,A,2297.2404998727143,Correct,sub_004_day_23_data.csv,1,576,,Button-Switch at home,,,,,,,,,,,,,k
4,23,105,A,46.83145903907158,76.65687397595114,2.341572951953579,1.2041233606500334,A,994.1161999013276,Correct,sub_004_day_23_data.csv,1,576,,Button-Switch at home,,,,,,,,,,,,,k
4,23,106,A,16.123033671684404,42.97985532180066,0.8061516835842201,0.6751259886566058,A,1391.1672001704574,Correct,sub_004_day_23_data.csv,1,576,,Button-Switch at home,,,,,,,,,,,,,k
4,23,107,A,26.62185760615087,47.95152523021952,1.3310928803075432,0.7532207969584164,A,734.7013999242336,Correct,sub_004_day_23_data.csv,1,576,,Button-Switch at home,,,,,,,,,,,,,k
4,23,108,B,78.32709796125673,63.89343196115862,3.9163548980628367,1.0036356823090762,B,922.8355002123864,Correct,sub_004_day_23_data.csv,1,576,,Button-Switch at home,,,,,,,,,,,,,d
4,23,109,A,26.84179710861749,58.356097814991976,1.342089855430875,0.9166554409387307,A,826.3683000113815,Correct,sub_004_day_23_data.csv,1,576,,Button-Switch at home,,,,,,,,,,,,,k
4,23,110,A,37.38407034194097,68.60307998283048,1.8692035170970485,1.077614660438466,A,894.1055999603122,Correct,sub_004_day_23_data.csv,1,576,,Button-Switch at home,,,,,,,,,,,,,k
4,23,111,B,51.1606963670039,28.593990067669168,2.5580348183501953,0.4491533456670449,B,1080.1452999003232,Correct,sub_004_day_23_data.csv,1,576,,Button-Switch at home,,,,,,,,,,,,,d
4,23,112,A,64.33300912284923,76.96003764816811,3.216650456142462,1.2088854444773942,A,1236.9774000253528,Correct,sub_004_day_23_data.csv,1,576,,Button-Switch at home,,,,,,,,,,,,,k
4,23,113,B,77.70279305091474,65.92936117728621,3.885139652545737,1.0356159836521523,B,1551.6686998307705,Correct,sub_004_day_23_data.csv,1,576,,Button-Switch at home,,,,,,,,,,,,,d
4,23,114,B,35.42000075438801,11.004102992823764,1.7710000377194006,0.1728520456080029,B,2092.287499923259,Correct,sub_004_day_23_data.csv,1,576,,Button-Switch at home,,,,,,,,,,,,,d
4,23,115,A,18.52357458572171,45.407480823430696,0.9261787292860856,0.7132590408645464,A,1039.058200083673,Correct,sub_004_day_23_data.csv,1,576,,Button-Switch at home,,,,,,,,,,,,,k
4,23,116,A,49.68494565811725,64.92666473333293,2.4842472829058626,1.019865664741631,A,2273.7016000319272,Correct,sub_004_day_23_data.csv,1,576,,Button-Switch at home,,,,,,,,,,,,,k
4,23,117,B,42.72964704630802,23.573998979343468,2.136482352315401,0.3702995100461936,B,778.4010001923889,Correct,sub_004_day_23_data.csv,1,576,,Button-Switch at home,,,,,,,,,,,,,d
4,23,118,B,81.15593710247755,51.70060050407294,4.057796855123877,0.8121111336488815,B,1222.1056001726538,Correct,sub_004_day_23_data.csv,1,576,,Button-Switch at home,,,,,,,,,,,,,d
4,23,119,A,38.638213551735255,71.11899051617861,1.9319106775867627,1.1171344906817446,A,1428.483499912545,Correct,sub_004_day_23_data.csv,1,576,,Button-Switch at home,,,,,,,,,,,,,k
4,23,120,B,55.82324783075516,37.563833577364534,2.7911623915377577,0.5900513180365901,B,2999.6676999144256,Correct,sub_004_day_23_data.csv,1,576,,Button-Switch at home,,,,,,,,,,,,,d
4,23,121,A,36.837292620932466,50.22069261492264,1.8418646310466231,0.7888647948861608,A,1121.933399932459,Correct,sub_004_day_23_data.csv,1,576,,Button-Switch at home,,,,,,,,,,,,,k
4,23,122,B,52.822634179449935,34.115336441616,2.641131708972497,0.5358824516986249,B,1452.130899997428,Correct,sub_004_day_23_data.csv,1,576,,Button-Switch at home,,,,,,,,,,,,,d
4,23,123,B,54.7378117064386,37.109268541617595,2.73689058532193,0.5829110271521832,B,1175.0282999128103,Correct,sub_004_day_23_data.csv,1,576,,Button-Switch at home,,,,,,,,,,,,,d
4,23,124,A,25.255506721249336,45.39279938927528,1.2627753360624667,0.7130284254361124,A,1539.44840002805,Correct,sub_004_day_23_data.csv,1,576,,Button-Switch at home,,,,,,,,,,,,,k
4,23,125,A,17.033281296641913,39.00886723581473,0.8516640648320957,0.6127498536644758,A,1170.8013999741524,Correct,sub_004_day_23_data.csv,1,576,,Button-Switch at home,,,,,,,,,,,,,k
4,23,126,B,70.36756102012824,43.28872840658343,3.518378051006412,0.6799777557268315,B,772.1929999534041,Correct,sub_004_day_23_data.csv,1,576,,Button-Switch at home,,,,,,,,,,,,,d
4,23,127,A,48.88162568312042,68.83248713440386,2.444081284156021,1.0812181795487856,A,1392.8772998042405,Correct,sub_004_day_23_data.csv,1,576,,Button-Switch at home,,,,,,,,,,,,,k
4,23,128,B,63.13450667302688,44.349819402489814,3.1567253336513437,0.6966453341144803,B,2112.4964999035,Correct,sub_004_day_23_data.csv,1,576,,Button-Switch at home,,,,,,,,,,,,,d
4,23,129,A,55.24652951918116,81.30038182849323,2.7623264759590582,1.2770634114321973,A,821.0750999860466,Correct,sub_004_day_23_data.csv,1,576,,Button-Switch at home,,,,,,,,,,,,,k
4,23,130,A,59.26863897867241,86.23030732755082,2.9634319489336205,1.3545025000851187,A,1117.424699943513,Correct,sub_004_day_23_data.csv,1,576,,Button-Switch at home,,,,,,,,,,,,,k
4,23,131,A,33.38133591305319,66.77746856801446,1.6690667956526597,1.0489380233929877,A,1129.2824998963624,Correct,sub_004_day_23_data.csv,1,576,,Button-Switch at home,,,,,,,,,,,,,k
4,23,132,A,35.67171958290596,51.07166050544089,1.7835859791452977,0.8022317672526255,A,1711.2460997886956,Correct,sub_004_day_23_data.csv,1,576,,Button-Switch at home,,,,,,,,,,,,,k
4,23,133,B,80.1929184618146,67.63482144698051,4.00964592309073,1.0624052909234567,B,940.1633001398296,Correct,sub_004_day_23_data.csv,1,576,,Button-Switch at home,,,,,,,,,,,,,d
4,23,134,A,28.41985507454477,59.25566937140262,1.4209927537272389,0.9307858779037208,A,812.468099873513,Correct,sub_004_day_23_data.csv,1,576,,Button-Switch at home,,,,,,,,,,,,,k
4,23,135,A,25.405993197691657,58.139744611883195,1.2702996598845828,0.9132569727713952,A,2037.846399936825,Correct,sub_004_day_23_data.csv,1,576,,Button-Switch at home,,,,,,,,,,,,,k
4,23,136,B,76.64144773655454,46.73927790501442,3.832072386827727,0.7341788605024252,B,1354.8862000461668,Correct,sub_004_day_23_data.csv,1,576,,Button-Switch at home,,,,,,,,,,,,,d
4,23,137,B,88.26522464563075,61.64996901088551,4.413261232281537,0.9683954486931816,B,1232.8723000828177,Correct,sub_004_day_23_data.csv,1,576,,Button-Switch at home,,,,,,,,,,,,,d
4,23,138,A,16.772093852735296,33.678805868049736,0.8386046926367647,0.5290254454837093,A,1067.9308997932822,Correct,sub_004_day_23_data.csv,1,576,,Button-Switch at home,,,,,,,,,,,,,k
4,23,139,B,50.56334505986754,34.8957834058539,2.5281672529933767,0.5481416839454561,B,1754.012000048533,Correct,sub_004_day_23_data.csv,1,576,,Button-Switch at home,,,,,,,,,,,,,d
4,23,140,A,24.386157173781783,46.99820472160475,1.2193078586890893,0.7382460734265132,A,916.569499997422,Correct,sub_004_day_23_data.csv,1,576,,Button-Switch at home,,,,,,,,,,,,,k
4,23,141,B,39.53830031449527,16.34198757326724,1.9769150157247637,0.2566993405261603,B,39566.98330002837,Correct,sub_004_day_23_data.csv,1,576,,Button-Switch at home,,,,,,,,,,,,,d
4,23,142,A,58.85404148321001,86.357044404972,2.942702074160501,1.3564932814419377,A,79376.73519994132,Correct,sub_004_day_23_data.csv,1,576,,Button-Switch at home,,,,,,,,,,,,,k
4,23,143,A,29.709232539292877,58.76618335286094,1.485461626964644,0.9230970495042936,A,4169.8857001028955,Correct,sub_004_day_23_data.csv,1,576,,Button-Switch at home,,,,,,,,,,,,,k
4,23,144,B,39.140077751227864,24.549347846233964,1.957003887561393,0.3856202542207451,B,1606.2259001191703,Correct,sub_004_day_23_data.csv,1,576,,Button-Switch at home,,,,,,,,,,,,,d
4,23,145,A,41.85022887071191,60.975986331834875,2.0925114435355954,0.9578085535274204,A,2662.595300003886,Correct,sub_004_day_23_data.csv,1,576,,Button-Switch at home,,,,,,,,,,,,,k
4,23,146,B,80.13570170137939,48.66775168514539,4.0067850850689695,0.7644712558039252,B,1358.5797001142057,Correct,sub_004_day_23_data.csv,1,576,,Button-Switch at home,,,,,,,,,,,,,d
4,23,147,A,60.877321273543366,86.1258785469534,3.043866063677168,1.352862136635378,A,1174.483200069517,Correct,sub_004_day_23_data.csv,1,576,,Button-Switch at home,,,,,,,,,,,,,k
4,23,148,A,27.345331382363643,55.04382320535729,1.3672665691181822,0.8646263530372291,A,1411.535199964419,Correct,sub_004_day_23_data.csv,1,576,,Button-Switch at home,,,,,,,,,,,,,k
4,23,149,B,80.92573360874599,58.106183908610696,4.0462866804373,0.912729802477144,B,2642.1661998610944,Correct,sub_004_day_23_data.csv,1,576,,Button-Switch at home,,,,,,,,,,,,,d
4,23,150,B,73.44901350057184,53.469996166452034,3.672450675028592,0.8399047357200006,B,2239.9321000557393,Correct,sub_004_day_23_data.csv,1,576,,Button-Switch at home,,,,,,,,,,,,,d
4,23,151,B,52.7684996891815,40.315557211003025,2.638424984459075,0.6332752917973306,A,7307.471399893984,Incorrect,sub_004_day_23_data.csv,0,576,,Button-Switch at home,,,,,,,,,,,,,k
4,23,152,A,68.20749024442475,81.7482778235085,3.4103745122212374,1.2840989452697582,A,2781.9559001363814,Correct,sub_004_day_23_data.csv,1,576,,Button-Switch at home,,,,,,,,,,,,,k
4,23,153,A,59.14370911021182,84.69895274791622,2.957185455510591,1.330448038598013,A,1388.5011000093073,Correct,sub_004_day_23_data.csv,1,576,,Button-Switch at home,,,,,,,,,,,,,k
4,23,154,A,45.87673121999616,64.95960819875238,2.2938365609998077,1.0203831394863587,A,1171.942199813202,Correct,sub_004_day_23_data.csv,1,576,,Button-Switch at home,,,,,,,,,,,,,k
4,23,155,B,57.28916392866126,45.56584875944751,2.864458196433063,0.7157466785863195,A,3645.4847999848425,Incorrect,sub_004_day_23_data.csv,0,576,,Button-Switch at home,,,,,,,,,,,,,k
4,23,156,B,49.22531419870455,39.6132298838402,2.4612657099352275,0.6222431599401801,B,1206.9770998787135,Correct,sub_004_day_23_data.csv,1,576,,Button-Switch at home,,,,,,,,,,,,,d
4,23,157,A,40.46224200988543,73.44288743436529,2.0231121004942714,1.1536381781111205,A,1576.1257999110967,Correct,sub_004_day_23_data.csv,1,576,,Button-Switch at home,,,,,,,,,,,,,k
4,23,158,B,65.34730179333843,42.873728854831995,3.2673650896669217,0.6734589580117046,B,922.7567000780256,Correct,sub_004_day_23_data.csv,1,576,,Button-Switch at home,,,,,,,,,,,,,d
4,23,159,A,22.688668260642213,46.87861783813962,1.1344334130321108,0.7363676070537142,A,1478.7357999011874,Correct,sub_004_day_23_data.csv,1,576,,Button-Switch at home,,,,,,,,,,,,,k
4,23,160,B,31.640760006277137,18.680051284447824,1.582038000313857,0.2934255594195093,B,3654.165199957788,Correct,sub_004_day_23_data.csv,1,576,,Button-Switch at home,,,,,,,,,,,,,d
4,23,161,B,57.9301741612343,39.93530520996857,2.896508708061715,0.6273023073325172,B,4617.2893000766635,Correct,sub_004_day_23_data.csv,1,576,,Button-Switch at home,,,,,,,,,,,,,d
4,23,162,B,69.40004481735482,52.126524060782096,3.470002240867741,0.8188015252326232,B,2650.469500105828,Correct,sub_004_day_23_data.csv,1,576,,Button-Switch at home,,,,,,,,,,,,,d
4,23,163,B,57.07567030698097,34.76593007479228,2.8537835153490483,0.5461019525909194,B,1734.3245998490602,Correct,sub_004_day_23_data.csv,1,576,,Button-Switch at home,,,,,,,,,,,,,d
4,23,164,A,57.856002272248766,71.35554690008992,2.8928001136124384,1.1208503096710225,A,2440.8970000222325,Correct,sub_004_day_23_data.csv,1,576,,Button-Switch at home,,,,,,,,,,,,,k
4,23,165,A,59.06158814862032,86.64216896437904,2.953079407431016,1.3609720075478935,A,2641.250899992883,Correct,sub_004_day_23_data.csv,1,576,,Button-Switch at home,,,,,,,,,,,,,k
4,23,166,B,66.70287034557603,56.94540018532041,3.335143517278801,0.8944962543896673,B,3953.904699999839,Correct,sub_004_day_23_data.csv,1,576,,Button-Switch at home,,,,,,,,,,,,,d
4,23,167,A,56.00012291676609,66.93047640134947,2.8000061458383043,1.0513414648187225,B,1243.7512001488358,Incorrect,sub_004_day_23_data.csv,0,576,,Button-Switch at home,,,,,,,,,,,,,d
4,23,168,A,59.88657509673857,85.16605527048924,2.9943287548369284,1.3377852678649564,A,2396.413499955088,Correct,sub_004_day_23_data.csv,1,576,,Button-Switch at home,,,,,,,,,,,,,k
4,23,169,B,79.2079930709554,64.52909460323521,3.96039965354777,1.0136206477416223,B,5810.792300151661,Correct,sub_004_day_23_data.csv,1,576,,Button-Switch at home,,,,,,,,,,,,,d
4,23,170,B,73.27357806290101,43.03169129062324,3.6636789031450503,0.6759402261508293,B,2612.593499943614,Correct,sub_004_day_23_data.csv,1,576,,Button-Switch at home,,,,,,,,,,,,,d
4,23,171,B,67.69346670895904,37.89675289037666,3.3846733354479515,0.5952808023765754,B,1638.1953000091016,Correct,sub_004_day_23_data.csv,1,576,,Button-Switch at home,,,,,,,,,,,,,d
4,23,172,A,17.507116137103232,39.987803515188105,0.8753558068551616,0.6281269487825353,A,1033.7102999910712,Correct,sub_004_day_23_data.csv,1,576,,Button-Switch at home,,,,,,,,,,,,,k
4,23,173,A,47.16284609284603,54.653115625776294,2.3581423046423016,0.8584891327286616,A,3195.995599962771,Correct,sub_004_day_23_data.csv,1,576,,Button-Switch at home,,,,,,,,,,,,,k
4,23,174,A,48.90720975895484,60.43702281090266,2.445360487947742,0.9493425343378528,A,830.5188999511302,Correct,sub_004_day_23_data.csv,1,576,,Button-Switch at home,,,,,,,,,,,,,k
4,23,175,A,44.66013799395771,73.41876366709832,2.2330068996978856,1.1532592428610065,A,880.6899001356214,Correct,sub_004_day_23_data.csv,1,576,,Button-Switch at home,,,,,,,,,,,,,k
4,23,176,A,47.338884408166194,77.63994220419674,2.3669442204083095,1.219565360269203,A,653.1515000388026,Correct,sub_004_day_23_data.csv,1,576,,Button-Switch at home,,,,,,,,,,,,,k
4,23,177,B,68.27009241896542,59.74713389891079,3.413504620948271,0.9385057846493192,B,2710.6455001048744,Correct,sub_004_day_23_data.csv,1,576,,Button-Switch at home,,,,,,,,,,,,,d
4,23,178,B,44.01339754807667,30.9646943676633,2.2006698774038336,0.4863922817305213,B,2783.0529999919236,Correct,sub_004_day_23_data.csv,1,576,,Button-Switch at home,,,,,,,,,,,,,d
4,23,179,B,54.63259714841145,23.77084633469042,2.731629857420572,0.3733915810733764,B,793.1536000687629,Correct,sub_004_day_23_data.csv,1,576,,Button-Switch at home,,,,,,,,,,,,,d
4,23,180,B,45.566832949035394,29.442481553818837,2.2783416474517697,0.4624814187646513,B,790.5922001227736,Correct,sub_004_day_23_data.csv,1,576,,Button-Switch at home,,,,,,,,,,,,,d
4,23,181,B,51.503281492555374,35.45762229904956,2.575164074627769,0.5569670286422786,B,1391.8865001760423,Correct,sub_004_day_23_data.csv,1,576,,Button-Switch at home,,,,,,,,,,,,,d
4,23,182,B,68.46269457735607,50.363751700035365,3.4231347288678036,0.7911119617402578,B,856.5696999430656,Correct,sub_004_day_23_data.csv,1,576,,Button-Switch at home,,,,,,,,,,,,,d
4,23,183,A,64.51073184408651,77.37620962248425,3.2255365922043255,1.2154226585631018,A,1605.342200025916,Correct,sub_004_day_23_data.csv,1,576,,Button-Switch at home,,,,,,,,,,,,,k
4,23,184,A,38.7543331195093,71.79861926611505,1.9377166559754648,1.1278100741215882,A,1260.2801998145878,Correct,sub_004_day_23_data.csv,1,576,,Button-Switch at home,,,,,,,,,,,,,k
4,23,185,B,47.70785129675383,19.25343565072702,2.3853925648376917,0.3024322599834391,B,752.0669000223279,Correct,sub_004_day_23_data.csv,1,576,,Button-Switch at home,,,,,,,,,,,,,d
4,23,186,A,34.85761520685485,48.92251342359167,1.7428807603427428,0.7684730438335183,A,1207.2349998634309,Correct,sub_004_day_23_data.csv,1,576,,Button-Switch at home,,,,,,,,,,,,,k
4,23,187,A,36.128666389176146,55.59413039179774,1.8064333194588071,0.873270558107924,A,1868.2593000121417,Correct,sub_004_day_23_data.csv,1,576,,Button-Switch at home,,,,,,,,,,,,,k
4,23,188,B,58.89557286357208,48.44179571604858,2.944778643178604,0.7609219477411787,B,854.3212001677603,Correct,sub_004_day_23_data.csv,1,576,,Button-Switch at home,,,,,,,,,,,,,d
4,23,189,A,44.14287058793554,52.09691415236334,2.207143529396777,0.8183364138788138,A,1909.278000006452,Correct,sub_004_day_23_data.csv,1,576,,Button-Switch at home,,,,,,,,,,,,,k
4,23,190,A,36.725551326041625,46.71093897545714,1.8362775663020812,0.7337337136378863,A,1047.855000011623,Correct,sub_004_day_23_data.csv,1,576,,Button-Switch at home,,,,,,,,,,,,,k
4,23,191,A,46.85106505421366,71.73274702906913,2.342553252710683,1.1267753554416933,A,1419.2516000475734,Correct,sub_004_day_23_data.csv,1,576,,Button-Switch at home,,,,,,,,,,,,,k
4,23,192,B,38.35459717046254,16.804590761145658,1.917729858523127,0.2639658944089905,B,854.0431000292301,Correct,sub_004_day_23_data.csv,1,576,,Button-Switch at home,,,,,,,,,,,,,d
4,23,193,A,54.07965349861862,61.14919466942824,2.703982674930931,0.9605293037320396,A,2650.0946001615375,Correct,sub_004_day_23_data.csv,1,576,,Button-Switch at home,,,,,,,,,,,,,k
4,23,194,B,32.62745181911929,10.411187110900666,1.6313725909559644,0.1635385447137713,B,857.181399827823,Correct,sub_004_day_23_data.csv,1,576,,Button-Switch at home,,,,,,,,,,,,,d
4,23,195,B,85.22252463676969,59.50136556367306,4.261126231838484,0.93464526466698,B,1345.3427001368254,Correct,sub_004_day_23_data.csv,1,576,,Button-Switch at home,,,,,,,,,,,,,d
4,23,196,B,57.69747893126574,35.52989385274918,2.884873946563287,0.5581022675531099,B,1174.1416999138892,Correct,sub_004_day_23_data.csv,1,576,,Button-Switch at home,,,,,,,,,,,,,d
4,23,197,A,37.16030465952724,61.01139876081473,1.8580152329763624,0.9583648106610648,A,1719.2616998218,Correct,sub_004_day_23_data.csv,1,576,,Button-Switch at home,,,,,,,,,,,,,k
4,23,198,B,51.67583774225486,31.40427955388244,2.583791887112743,0.493297269688786,B,753.402799833566,Correct,sub_004_day_23_data.csv,1,576,,Button-Switch at home,,,,,,,,,,,,,d
4,23,199,A,54.17361774910911,74.87132986767818,2.7086808874554555,1.1760760993839792,A,1248.440600000322,Correct,sub_004_day_23_data.csv,1,576,,Button-Switch at home,,,,,,,,,,,,,k
4,23,200,B,37.721953852954,25.22139956179043,1.8860976926477,0.3961768178828682,B,679.7765998635441,Correct,sub_004_day_23_data.csv,1,576,,Button-Switch at home,,,,,,,,,,,,,d
4,23,201,A,54.58277559597816,64.01268462219194,2.729138779798908,1.0055088987281926,A,2078.9119999390095,Correct,sub_004_day_23_data.csv,1,576,,Button-Switch at home,,,,,,,,,,,,,k
4,23,202,B,74.92534000800363,54.79552061774127,3.746267000400181,0.86072602511162,B,3692.505700048059,Correct,sub_004_day_23_data.csv,1,576,,Button-Switch at home,,,,,,,,,,,,,d
4,23,203,B,58.835259451105365,28.607295286607197,2.9417629725552685,0.4493623435573954,A,97368.75470005909,Incorrect,sub_004_day_23_data.csv,0,576,,Button-Switch at home,,,,,,,,,,,,,k
4,23,204,A,20.334686688766165,51.66009507241797,1.0167343344383084,0.8114748758162927,A,793.9548001158983,Correct,sub_004_day_23_data.csv,1,576,,Button-Switch at home,,,,,,,,,,,,,k
4,23,205,B,70.74445827629017,52.763543647405626,3.537222913814509,0.8288078055002697,B,870.6289001274854,Correct,sub_004_day_23_data.csv,1,576,,Button-Switch at home,,,,,,,,,,,,,d
4,23,206,B,30.719590047437585,11.372600334712187,1.5359795023718792,0.1786403883187231,B,2512.1689999941736,Correct,sub_004_day_23_data.csv,1,576,,Button-Switch at home,,,,,,,,,,,,,d
4,23,207,A,51.48512903753352,69.60944002664122,2.574256451876676,1.093422527040977,A,242515.73970005848,Correct,sub_004_day_23_data.csv,1,576,,Button-Switch at home,,,,,,,,,,,,,k
4,23,208,A,56.75752516232544,67.83094164505646,2.837876258116272,1.0654859397909366,A,1090.67860012874,Correct,sub_004_day_23_data.csv,1,576,,Button-Switch at home,,,,,,,,,,,,,k
4,23,209,A,65.3988737924575,86.93484829711531,3.269943689622875,1.365569403755803,A,1377.931399969384,Correct,sub_004_day_23_data.csv,1,576,,Button-Switch at home,,,,,,,,,,,,,k
4,23,210,A,32.67568658172148,51.34036560625099,1.633784329086074,0.806452577106061,A,1111.207699868828,Correct,sub_004_day_23_data.csv,1,576,,Button-Switch at home,,,,,,,,,,,,,k
4,23,211,B,58.9654933007049,42.50784399923005,2.9482746650352447,0.6677116521396105,B,963.9868999365716,Correct,sub_004_day_23_data.csv,1,576,,Button-Switch at home,,,,,,,,,,,,,d
4,23,212,A,41.26011604357767,72.96248201155458,2.0630058021788837,1.1460919873758866,A,1135.905599920079,Correct,sub_004_day_23_data.csv,1,576,,Button-Switch at home,,,,,,,,,,,,,k
4,23,213,A,53.76358589729074,64.2321830661896,2.688179294864537,1.00895677222388,A,1769.1206000745296,Correct,sub_004_day_23_data.csv,1,576,,Button-Switch at home,,,,,,,,,,,,,k
4,23,214,A,37.375457678199005,51.22517781479437,1.8687728839099504,0.8046432115089441,B,999.907499877736,Incorrect,sub_004_day_23_data.csv,0,576,,Button-Switch at home,,,,,,,,,,,,,d
4,23,215,A,31.132888703346342,56.51470678207815,1.5566444351673172,0.8877309382317897,A,976.863699965179,Correct,sub_004_day_23_data.csv,1,576,,Button-Switch at home,,,,,,,,,,,,,k
4,23,216,A,64.01217984258369,76.00375942768736,3.2006089921291845,1.193864261316143,B,728.3824998885393,Incorrect,sub_004_day_23_data.csv,0,576,,Button-Switch at home,,,,,,,,,,,,,d
4,23,217,B,37.74602939153185,16.332662512715217,1.8873014695765928,0.2565528628175376,B,819.7546999435872,Correct,sub_004_day_23_data.csv,1,576,,Button-Switch at home,,,,,,,,,,,,,d
4,23,218,B,35.78633702429218,11.656082025256982,1.789316851214609,0.1830933083009368,B,759.3940999358892,Correct,sub_004_day_23_data.csv,1,576,,Button-Switch at home,,,,,,,,,,,,,d
4,23,219,A,41.949050943367226,56.79037333154713,2.0974525471683614,0.8920610982650508,A,806.8972998298705,Correct,sub_004_day_23_data.csv,1,576,,Button-Switch at home,,,,,,,,,,,,,k
4,23,220,A,29.35154594067907,49.25018363639969,1.4675772970339538,0.7736200755003076,A,1059.4116998836398,Correct,sub_004_day_23_data.csv,1,576,,Button-Switch at home,,,,,,,,,,,,,k
4,23,221,B,47.82010383010717,17.865301567100328,2.3910051915053585,0.280627500786843,B,1661.6001999936998,Correct,sub_004_day_23_data.csv,1,576,,Button-Switch at home,,,,,,,,,,,,,d
4,23,222,B,69.31397356529878,59.08093771807739,3.465698678264939,0.9280411995115402,B,2225.1820999663323,Correct,sub_004_day_23_data.csv,1,576,,Button-Switch at home,,,,,,,,,,,,,d
4,23,223,B,52.431161074594954,40.2924973424474,2.621558053729748,0.6329130682290951,B,2696.0442001000047,Correct,sub_004_day_23_data.csv,1,576,,Button-Switch at home,,,,,,,,,,,,,d
4,23,224,A,58.42719178627209,81.58858908273477,2.9213595893136044,1.28159056039538,A,2862.779000075534,Correct,sub_004_day_23_data.csv,1,576,,Button-Switch at home,,,,,,,,,,,,,k
4,23,225,B,63.96534628015278,54.01568581443869,3.198267314007639,0.848476408666275,B,865.9061000216752,Correct,sub_004_day_23_data.csv,1,576,,Button-Switch at home,,,,,,,,,,,,,d
4,23,226,B,40.29117342640657,23.28679833485042,2.0145586713203287,0.3657881728719655,B,784.2540999408811,Correct,sub_004_day_23_data.csv,1,576,,Button-Switch at home,,,,,,,,,,,,,d
4,23,227,A,40.94836562461605,66.32883786866634,2.0474182812308026,1.0418909488467532,A,1500.8014000486585,Correct,sub_004_day_23_data.csv,1,576,,Button-Switch at home,,,,,,,,,,,,,k
4,23,228,B,84.67596594877205,57.28736948124045,4.233798297438602,0.8998678955287457,B,747.1111000049859,Correct,sub_004_day_23_data.csv,1,576,,Button-Switch at home,,,,,,,,,,,,,d
4,23,229,A,40.4507815197506,69.72881256852918,2.0225390759875297,1.0952976265441543,A,1028.3039999194443,Correct,sub_004_day_23_data.csv,1,576,,Button-Switch at home,,,,,,,,,,,,,k
4,23,230,A,19.926972677046702,40.44973202802211,0.9963486338523352,0.6353829048945502,A,877.4904001038522,Correct,sub_004_day_23_data.csv,1,576,,Button-Switch at home,,,,,,,,,,,,,k
4,23,231,B,63.98503431219884,44.38983813904134,3.1992517156099423,0.6972739469582614,B,1704.7323998995123,Correct,sub_004_day_23_data.csv,1,576,,Button-Switch at home,,,,,,,,,,,,,d
4,23,232,B,43.66582839353923,19.529701207045196,2.1832914196769617,0.3067718291942845,B,3009.3266000039876,Correct,sub_004_day_23_data.csv,1,576,,Button-Switch at home,,,,,,,,,,,,,d
4,23,233,B,88.1880625657478,63.800130647963016,4.409403128287391,1.0021701087085482,B,921.6964000370352,Correct,sub_004_day_23_data.csv,1,576,,Button-Switch at home,,,,,,,,,,,,,d
4,23,234,B,44.42874371012587,27.605736491711163,2.2214371855062938,0.4336298947964773,B,925.889499951154,Correct,sub_004_day_23_data.csv,1,576,,Button-Switch at home,,,,,,,,,,,,,d
4,23,235,B,40.15075634303467,19.233883085823415,2.007537817151734,0.3021251290121391,B,620.165399974212,Correct,sub_004_day_23_data.csv,1,576,,Button-Switch at home,,,,,,,,,,,,,d
4,23,236,B,64.91931218411584,32.69546782139744,3.2459656092057916,0.5135792075669184,B,767.0331001281738,Correct,sub_004_day_23_data.csv,1,576,,Button-Switch at home,,,,,,,,,,,,,d
4,23,237,A,27.26806927850501,43.52007134625772,1.3634034639252506,0.6836116821255346,A,1275.791099993512,Correct,sub_004_day_23_data.csv,1,576,,Button-Switch at home,,,,,,,,,,,,,k
4,23,238,A,59.803808008092474,83.52939247842482,2.9901904004046234,1.3120766288451895,A,1334.6736000385135,Correct,sub_004_day_23_data.csv,1,576,,Button-Switch at home,,,,,,,,,,,,,k
4,23,239,A,28.939200467193327,46.97988244748285,1.4469600233596662,0.7379582678176209,A,1842.1161998994648,Correct,sub_004_day_23_data.csv,1,576,,Button-Switch at home,,,,,,,,,,,,,k
4,23,240,B,66.58324417754298,38.656380200006176,3.3291622088771486,0.6072130002535667,B,1709.8377000074834,Correct,sub_004_day_23_data.csv,1,576,,Button-Switch at home,,,,,,,,,,,,,d
4,23,241,A,48.66291315791966,60.90107887682805,2.433145657895983,0.9566319099756776,A,2373.7708998378366,Correct,sub_004_day_23_data.csv,1,576,,Button-Switch at home,,,,,,,,,,,,,k
4,23,242,B,48.90347824834876,25.96692276462356,2.445173912417438,0.4078874689683747,B,1595.6073000561446,Correct,sub_004_day_23_data.csv,1,576,,Button-Switch at home,,,,,,,,,,,,,d
4,23,243,A,44.5424323537433,63.2812047218784,2.227121617687165,0.9940188393228246,A,1289.547999855131,Correct,sub_004_day_23_data.csv,1,576,,Button-Switch at home,,,,,,,,,,,,,k
4,23,244,B,72.16271136922659,54.15924828437738,3.6081355684613294,0.8507314826707278,B,1326.4687000773847,Correct,sub_004_day_23_data.csv,1,576,,Button-Switch at home,,,,,,,,,,,,,d
4,23,245,A,45.638331642909705,64.19731748920303,2.281916582145485,1.008409105021259,A,1058.402199996635,Correct,sub_004_day_23_data.csv,1,576,,Button-Switch at home,,,,,,,,,,,,,k
4,23,246,B,82.46707465366927,56.32291204874665,4.123353732683464,0.8847182336056325,B,615.5046001076698,Correct,sub_004_day_23_data.csv,1,576,,Button-Switch at home,,,,,,,,,,,,,d
4,23,247,B,40.55596481729346,13.778933938910718,2.027798240864673,0.2164389881839049,B,1486.8013998493552,Correct,sub_004_day_23_data.csv,1,576,,Button-Switch at home,,,,,,,,,,,,,d
4,23,248,B,82.95775580882342,61.32940427472245,4.147887790441171,0.9633600295925324,B,742.4136998597533,Correct,sub_004_day_23_data.csv,1,576,,Button-Switch at home,,,,,,,,,,,,,d
4,23,249,B,41.03651757763748,32.53308388652764,2.051825878881874,0.5110284866826785,B,701.7222000285983,Correct,sub_004_day_23_data.csv,1,576,,Button-Switch at home,,,,,,,,,,,,,d
4,23,250,B,88.8401978148416,68.89733810248077,4.44200989074208,1.0822368561732287,B,823.5203998629004,Correct,sub_004_day_23_data.csv,1,576,,Button-Switch at home,,,,,,,,,,,,,d
4,23,251,A,61.92255694476845,85.39913494226418,3.0961278472384226,1.3414464747877028,A,913.276500068605,Correct,sub_004_day_23_data.csv,1,576,,Button-Switch at home,,,,,,,,,,,,,k
4,23,252,A,56.68695461935826,82.24549365139518,2.8343477309679135,1.2919091932304452,A,1566.143399802968,Correct,sub_004_day_23_data.csv,1,576,,Button-Switch at home,,,,,,,,,,,,,k
4,23,253,B,59.29814797301227,44.2542353371,2.9649073986506136,0.6951439031263358,B,1028.2730998005718,Correct,sub_004_day_23_data.csv,1,576,,Button-Switch at home,,,,,,,,,,,,,d
4,23,254,B,35.168742568667895,10.471806578529876,1.7584371284333946,0.1644907530846136,B,4694.023899966851,Correct,sub_004_day_23_data.csv,1,576,,Button-Switch at home,,,,,,,,,,,,,d
4,23,255,A,23.35090972389109,47.74310306676278,1.1675454861945544,0.7499469092706114,A,1618.1033998727798,Correct,sub_004_day_23_data.csv,1,576,,Button-Switch at home,,,,,,,,,,,,,k
4,23,256,B,52.16878451545152,20.35445721617246,2.6084392257725764,0.3197270662906757,B,1165.0931001640856,Correct,sub_004_day_23_data.csv,1,576,,Button-Switch at home,,,,,,,,,,,,,d
4,23,257,B,58.2222302254403,42.53942123248952,2.911111511272015,0.6682076661597536,B,2143.0833998601884,Correct,sub_004_day_23_data.csv,1,576,,Button-Switch at home,,,,,,,,,,,,,d
4,23,258,A,59.98921301981076,74.70629453933022,2.9994606509905384,1.1734837305083754,A,3748.769499827176,Correct,sub_004_day_23_data.csv,1,576,,Button-Switch at home,,,,,,,,,,,,,k
4,23,259,A,46.14034190308341,57.922226326471694,2.307017095154171,0.909840203534044,A,1899.3657999671996,Correct,sub_004_day_23_data.csv,1,576,,Button-Switch at home,,,,,,,,,,,,,k
4,23,260,B,54.314601571124214,23.053412315249577,2.715730078556211,0.3621221538488226,B,9033.02410012111,Correct,sub_004_day_23_data.csv,1,576,,Button-Switch at home,,,,,,,,,,,,,d
4,23,261,A,49.35849447370035,62.94097957696646,2.4679247236850173,0.9886745952437151,A,31480.2989999298,Correct,sub_004_day_23_data.csv,1,576,,Button-Switch at home,,,,,,,,,,,,,k
4,23,262,A,37.55946496595462,50.56914263791095,1.877973248297731,0.7943382350479771,A,1589.3741000909358,Correct,sub_004_day_23_data.csv,1,576,,Button-Switch at home,,,,,,,,,,,,,k
4,23,263,A,38.82613701103787,62.95484639835523,1.9413068505518936,0.9888924147647332,A,6438.1454000249505,Correct,sub_004_day_23_data.csv,1,576,,Button-Switch at home,,,,,,,,,,,,,k
4,23,264,B,44.7446644719207,32.002373947631305,2.2372332235960353,0.5026921144565595,B,1290.187899954617,Correct,sub_004_day_23_data.csv,1,576,,Button-Switch at home,,,,,,,,,,,,,d
4,23,265,A,50.0991094817985,64.38328530963913,2.504955474089925,1.0113302807136897,A,2222.634099889546,Correct,sub_004_day_23_data.csv,1,576,,Button-Switch at home,,,,,,,,,,,,,k
4,23,266,A,64.76030710459182,83.85386847875105,3.2380153552295905,1.317173485939645,B,773.5341000370681,Incorrect,sub_004_day_23_data.csv,0,576,,Button-Switch at home,,,,,,,,,,,,,d
4,23,267,A,28.654353749225116,48.724788732903825,1.432717687461256,0.7653671916550269,A,878.9297000039369,Correct,sub_004_day_23_data.csv,1,576,,Button-Switch at home,,,,,,,,,,,,,k
4,23,268,B,58.93335507219025,48.76828249488711,2.9466677536095123,0.7660503900706452,B,761.94419991225,Correct,sub_004_day_23_data.csv,1,576,,Button-Switch at home,,,,,,,,,,,,,d
4,23,269,A,42.2407406826444,62.28118380694709,2.11203703413222,0.9783105475239028,A,1608.2321999128908,Correct,sub_004_day_23_data.csv,1,576,,Button-Switch at home,,,,,,,,,,,,,k
4,23,270,A,36.44593301496728,59.16429062363963,1.822296650748364,0.9293505038903888,A,1112.2163999825716,Correct,sub_004_day_23_data.csv,1,576,,Button-Switch at home,,,,,,,,,,,,,k
4,23,271,B,48.680908613814715,25.62638934692739,2.434045430690736,0.4025383825516941,B,1231.8191002123058,Correct,sub_004_day_23_data.csv,1,576,,Button-Switch at home,,,,,,,,,,,,,d
4,23,272,A,30.42086195946355,54.420882994392706,1.5210430979731775,0.8548412310852691,A,1534.060100093484,Correct,sub_004_day_23_data.csv,1,576,,Button-Switch at home,,,,,,,,,,,,,k
4,23,273,B,82.66127916461546,64.74322573221411,4.133063958230773,1.0169842116501475,B,953.514999942854,Correct,sub_004_day_23_data.csv,1,576,,Button-Switch at home,,,,,,,,,,,,,d
4,23,274,A,21.453622674686425,33.06759972818902,1.0726811337343214,0.5194246418896324,A,1487.6896000932902,Correct,sub_004_day_23_data.csv,1,576,,Button-Switch at home,,,,,,,,,,,,,k
4,23,275,A,33.906454107356936,51.1204361075941,1.6953227053678466,0.8029979326196203,A,1060.1814999245107,Correct,sub_004_day_23_data.csv,1,576,,Button-Switch at home,,,,,,,,,,,,,k
4,23,276,A,49.260675360930875,64.68266833707104,2.4630337680465435,1.0160329783116373,B,1703.6187001504004,Incorrect,sub_004_day_23_data.csv,0,576,,Button-Switch at home,,,,,,,,,,,,,d
4,23,277,A,24.022635766655497,54.18501331570207,1.2011317883327748,0.8511361988363737,A,827.4629998486489,Correct,sub_004_day_23_data.csv,1,576,,Button-Switch at home,,,,,,,,,,,,,k
4,23,278,A,52.174001175370336,62.46004731632237,2.608700058768517,0.981120128959146,B,2009.1083000879737,Incorrect,sub_004_day_23_data.csv,0,576,,Button-Switch at home,,,,,,,,,,,,,d
4,23,279,A,49.25186608314188,65.20299049817987,2.4625933041570938,1.0242061797058348,A,3648.86249997653,Correct,sub_004_day_23_data.csv,1,576,,Button-Switch at home,,,,,,,,,,,,,k
4,23,280,A,28.116652641899577,60.65876049952794,1.4058326320949788,0.9528255818058986,A,1814.0573999844491,Correct,sub_004_day_23_data.csv,1,576,,Button-Switch at home,,,,,,,,,,,,,k
4,23,281,B,61.548054550350955,54.16846417375762,3.0774027275175477,0.8508762455225942,B,1048.3723999932408,Correct,sub_004_day_23_data.csv,1,576,,Button-Switch at home,,,,,,,,,,,,,d
4,23,282,B,55.72985281401677,37.99301047082011,2.7864926407008386,0.5967928129144427,B,1229.006899986416,Correct,sub_004_day_23_data.csv,1,576,,Button-Switch at home,,,,,,,,,,,,,d
4,23,283,A,34.793387655927404,43.123043561958454,1.7396693827963703,0.6773751842734066,A,2147.016800008714,Correct,sub_004_day_23_data.csv,1,576,,Button-Switch at home,,,,,,,,,,,,,k
4,23,284,A,18.869387875924293,43.33578721005483,0.9434693937962146,0.680716953683194,A,1029.4897002168,Correct,sub_004_day_23_data.csv,1,576,,Button-Switch at home,,,,,,,,,,,,,k
4,23,285,A,14.722339246630892,33.28662772273624,0.7361169623315447,0.5228651255826327,A,841.2164999172091,Correct,sub_004_day_23_data.csv,1,576,,Button-Switch at home,,,,,,,,,,,,,k
4,23,286,A,44.96060331004938,57.208704712468915,2.248030165502469,0.8986322322304007,A,2301.960499957204,Correct,sub_004_day_23_data.csv,1,576,,Button-Switch at home,,,,,,,,,,,,,k
4,23,287,B,46.441478692940024,22.762096906182148,2.322073934647001,0.357546182103804,B,1079.634899972007,Correct,sub_004_day_23_data.csv,1,576,,Button-Switch at home,,,,,,,,,,,,,d
4,23,288,A,52.207476172386414,79.15970797666998,2.610373808619321,1.2434377851990988,A,1367.900999961421,Correct,sub_004_day_23_data.csv,1,576,,Button-Switch at home,,,,,,,,,,,,,k
4,23,289,B,48.9071839566793,26.86420648666526,2.4453591978339646,0.4219819687151343,B,1041.402300121263,Correct,sub_004_day_23_data.csv,1,576,,Button-Switch at home,,,,,,,,,,,,,d
4,23,290,B,78.78100099731834,64.58375105604743,3.9390500498659176,1.0144791892947531,B,1208.8735001161697,Correct,sub_004_day_23_data.csv,1,576,,Button-Switch at home,,,,,,,,,,,,,d
4,23,291,B,46.14461666813605,37.87796489192544,2.307230833406803,0.5949856811870252,B,994.4602998439224,Correct,sub_004_day_23_data.csv,1,576,,Button-Switch at home,,,,,,,,,,,,,d
4,23,292,B,52.647469461131095,38.506345994084754,2.6323734730565547,0.6048562684580171,B,688.4521001484245,Correct,sub_004_day_23_data.csv,1,576,,Button-Switch at home,,,,,,,,,,,,,d
4,23,293,B,35.95074658321238,21.709195739796197,1.797537329160619,0.3410072492574328,B,687.7044998109341,Correct,sub_004_day_23_data.csv,1,576,,Button-Switch at home,,,,,,,,,,,,,d
4,23,294,A,42.083605678783854,63.026017367288446,2.1041802839391925,0.9900103657304804,A,1066.2321001291275,Correct,sub_004_day_23_data.csv,1,576,,Button-Switch at home,,,,,,,,,,,,,k
4,23,295,B,86.58879301643297,61.626965364383295,4.329439650821649,0.968034108258896,B,718.1007999461144,Correct,sub_004_day_23_data.csv,1,576,,Button-Switch at home,,,,,,,,,,,,,d
4,23,296,A,13.756021595826734,41.81552787356355,0.6878010797913368,0.6568367758678324,A,1222.1182000357658,Correct,sub_004_day_23_data.csv,1,576,,Button-Switch at home,,,,,,,,,,,,,k
4,23,297,B,54.78684678817095,32.01908220930696,2.739342339408547,0.502954567217232,B,597.3719998728484,Correct,sub_004_day_23_data.csv,1,576,,Button-Switch at home,,,,,,,,,,,,,d
4,23,298,B,62.70898831606584,48.6852962633626,3.135449415803292,0.7647468453941126,B,2517.6017999183387,Correct,sub_004_day_23_data.csv,1,576,,Button-Switch at home,,,,,,,,,,,,,d
4,23,299,B,45.07444639612432,32.32108005033342,2.2537223198062164,0.5076983382110755,B,2892.347300192341,Correct,sub_004_day_23_data.csv,1,576,,Button-Switch at home,,,,,,,,,,,,,d
4,23,300,A,28.560799360864195,48.87624466219499,1.4280399680432097,0.7677462558290457,A,867.503099841997,Correct,sub_004_day_23_data.csv,1,576,,Button-Switch at home,,,,,,,,,,,,,k
4,23,301,B,63.735860865688494,37.40630533516252,3.1867930432844247,0.5875768701944163,B,633.2384999841452,Correct,sub_004_day_23_data.csv,1,576,,Button-Switch at home,,,,,,,,,,,,,d
4,23,302,A,57.58877713001188,79.95085481985723,2.8794388565005935,1.255865090751438,A,833.2410000730306,Correct,sub_004_day_23_data.csv,1,576,,Button-Switch at home,,,,,,,,,,,,,k
4,23,303,A,13.969768065770271,35.02515755814032,0.6984884032885135,0.5501738883773932,A,704.9917001277208,Correct,sub_004_day_23_data.csv,1,576,,Button-Switch at home,,,,,,,,,,,,,k
4,23,304,B,63.1665001455647,39.71994397594256,3.1583250072782345,0.6239194209790966,B,963.5994001291692,Correct,sub_004_day_23_data.csv,1,576,,Button-Switch at home,,,,,,,,,,,,,d
4,23,305,A,61.75337280166572,71.04879591721323,3.087668640083286,1.1160318764995876,B,2304.8834002111107,Incorrect,sub_004_day_23_data.csv,0,576,,Button-Switch at home,,,,,,,,,,,,,d
4,23,306,A,39.22846080479408,57.3639138276155,1.961423040239704,0.901070251309974,A,2279.0949000045657,Correct,sub_004_day_23_data.csv,1,576,,Button-Switch at home,,,,,,,,,,,,,k
4,23,307,B,63.36098449916111,41.31725768547892,3.1680492249580556,0.649009966055885,B,785.660499939695,Correct,sub_004_day_23_data.csv,1,576,,Button-Switch at home,,,,,,,,,,,,,d
4,23,308,A,32.57892259160397,44.84176985790049,1.6289461295801986,0.704372873797722,A,1145.897899987176,Correct,sub_004_day_23_data.csv,1,576,,Button-Switch at home,,,,,,,,,,,,,k
4,23,309,B,86.83252820236596,67.78350878581526,4.341626410118298,1.064740866180282,B,1057.6014001853764,Correct,sub_004_day_23_data.csv,1,576,,Button-Switch at home,,,,,,,,,,,,,d
4,23,310,B,55.29816127270152,38.53211674744437,2.764908063635076,0.6052610745051774,B,934.38129988499,Correct,sub_004_day_23_data.csv,1,576,,Button-Switch at home,,,,,,,,,,,,,d
4,23,311,B,55.88138742275207,30.480506428841537,2.7940693711376037,0.4787866753727251,B,751.329000107944,Correct,sub_004_day_23_data.csv,1,576,,Button-Switch at home,,,,,,,,,,,,,d
4,23,312,A,57.52449130199049,66.06852277377355,2.876224565099524,1.0378019288980846,A,2083.9889999479055,Correct,sub_004_day_23_data.csv,1,576,,Button-Switch at home,,,,,,,,,,,,,k
4,23,313,A,40.47539219147543,52.11273552867734,2.0237696095737716,0.8185849354768027,A,1827.9445001389831,Correct,sub_004_day_23_data.csv,1,576,,Button-Switch at home,,,,,,,,,,,,,k
4,23,314,B,63.65826821817789,45.1038272679691,3.182913410908894,0.7084892619691737,B,962.599700083956,Correct,sub_004_day_23_data.csv,1,576,,Button-Switch at home,,,,,,,,,,,,,d
4,23,315,B,48.81135720132714,20.361760522019036,2.4405678600663574,0.3198417863506483,B,881.1200000345707,Correct,sub_004_day_23_data.csv,1,576,,Button-Switch at home,,,,,,,,,,,,,d
4,23,316,A,32.63128724753365,43.98227794000264,1.6315643623766822,0.6908720063222836,A,1171.4680998120457,Correct,sub_004_day_23_data.csv,1,576,,Button-Switch at home,,,,,,,,,,,,,k
4,23,317,A,29.6796866063996,49.127265084166936,1.48398433031998,0.7716892753968859,A,840.6621001195163,Correct,sub_004_day_23_data.csv,1,576,,Button-Switch at home,,,,,,,,,,,,,k
4,23,318,A,55.61217458144884,69.59285622415204,2.780608729072442,1.0931620292806337,B,3391.6083998046815,Incorrect,sub_004_day_23_data.csv,0,576,,Button-Switch at home,,,,,,,,,,,,,d
4,23,319,B,53.16832011652453,32.964939134877525,2.658416005826226,0.5178120530608296,B,2244.211900047958,Correct,sub_004_day_23_data.csv,1,576,,Button-Switch at home,,,,,,,,,,,,,d
4,23,320,A,60.1097540674356,74.74232365658447,3.00548770337178,1.174049674558782,A,3092.2101999167353,Correct,sub_004_day_23_data.csv,1,576,,Button-Switch at home,,,,,,,,,,,,,k
4,23,321,A,52.96054424543218,74.35979608263838,2.648027212271609,1.1680409454782592,A,846.8079001177102,Correct,sub_004_day_23_data.csv,1,576,,Button-Switch at home,,,,,,,,,,,,,k
4,23,322,A,47.22112735920579,60.35645628288204,2.3610563679602894,0.9480769982750789,A,865.2361000422388,Correct,sub_004_day_23_data.csv,1,576,,Button-Switch at home,,,,,,,,,,,,,k
4,23,323,A,39.032792196253126,58.256092704113215,1.9516396098126565,0.9150845643304402,A,937.7369000576437,Correct,sub_004_day_23_data.csv,1,576,,Button-Switch at home,,,,,,,,,,,,,k
4,23,324,B,69.42350795684146,40.7125937881409,3.471175397842073,0.6395119277670445,B,1121.6204999946058,Correct,sub_004_day_23_data.csv,1,576,,Button-Switch at home,,,,,,,,,,,,,d
4,23,325,A,47.54486951340067,78.4914901548649,2.3772434756700336,1.2329414441991955,A,804.4356999453157,Correct,sub_004_day_23_data.csv,1,576,,Button-Switch at home,,,,,,,,,,,,,k
4,23,326,A,66.49677065594523,81.93353289873451,3.324838532797261,1.28700892518661,A,771.655400050804,Correct,sub_004_day_23_data.csv,1,576,,Button-Switch at home,,,,,,,,,,,,,k
4,23,327,B,52.09865416810803,44.061817021989405,2.6049327084054017,0.692121403300498,A,2204.3097000569105,Incorrect,sub_004_day_23_data.csv,0,576,,Button-Switch at home,,,,,,,,,,,,,k
4,23,328,B,36.820956520217365,26.68186970154828,1.841047826010868,0.4191178291921208,B,931.5049999859184,Correct,sub_004_day_23_data.csv,1,576,,Button-Switch at home,,,,,,,,,,,,,d
4,23,329,B,72.23010865967626,40.02027660086311,3.611505432983813,0.6286370348195152,B,924.5526001323014,Correct,sub_004_day_23_data.csv,1,576,,Button-Switch at home,,,,,,,,,,,,,d
4,23,330,A,32.01544734102359,59.78741939727061,1.600772367051179,0.9391385877777862,A,1014.2020999919624,Correct,sub_004_day_23_data.csv,1,576,,Button-Switch at home,,,,,,,,,,,,,k
4,23,331,A,39.6071074385069,63.913367630533344,1.9803553719253448,1.0039488310713365,A,994.8640998918564,Correct,sub_004_day_23_data.csv,1,576,,Button-Switch at home,,,,,,,,,,,,,k
4,23,332,B,46.915383212672566,22.875508844570888,2.3457691606336284,0.3593276526661612,B,792.8921999409795,Correct,sub_004_day_23_data.csv,1,576,,Button-Switch at home,,,,,,,,,,,,,d
4,23,333,B,48.64302328328964,18.198512525028544,2.4321511641644817,0.2858615662744576,B,1004.616300109774,Correct,sub_004_day_23_data.csv,1,576,,Button-Switch at home,,,,,,,,,,,,,d
4,23,334,A,28.487649756177863,53.17683579474662,1.424382487808893,0.8352997833696337,A,1156.4221000298858,Correct,sub_004_day_23_data.csv,1,576,,Button-Switch at home,,,,,,,,,,,,,k
4,23,335,B,59.3579026234331,35.04120991264982,2.967895131171655,0.5504260381723926,B,1355.6703000795096,Correct,sub_004_day_23_data.csv,1,576,,Button-Switch at home,,,,,,,,,,,,,d
4,23,336,A,36.737224805909,62.955167904122256,1.83686124029545,0.988897464965512,A,681.4766000024974,Correct,sub_004_day_23_data.csv,1,576,,Button-Switch at home,,,,,,,,,,,,,k
4,23,337,A,46.334794269269445,70.0500710263929,2.3167397134634724,1.1003439425997956,A,1404.3763999361545,Correct,sub_004_day_23_data.csv,1,576,,Button-Switch at home,,,,,,,,,,,,,k
4,23,338,A,24.73383338445755,49.35738175963256,1.2366916692228778,0.7753039396824425,A,615.1184001937509,Correct,sub_004_day_23_data.csv,1,576,,Button-Switch at home,,,,,,,,,,,,,k
4,23,339,B,39.74363077345241,12.48219441598982,1.9871815386726208,0.1960698513897658,B,511.7688998579979,Correct,sub_004_day_23_data.csv,1,576,,Button-Switch at home,,,,,,,,,,,,,d
4,23,340,B,58.93338310434222,36.623649837107365,2.9466691552171107,0.5752829463795076,B,615.6482000369579,Correct,sub_004_day_23_data.csv,1,576,,Button-Switch at home,,,,,,,,,,,,,d
4,23,341,A,20.005856128921224,48.08589599522805,1.0002928064460612,0.7553314879994566,A,846.5327001176775,Correct,sub_004_day_23_data.csv,1,576,,Button-Switch at home,,,,,,,,,,,,,k
4,23,342,A,55.41450619604156,64.01276383256914,2.770725309802078,1.0055101429618882,A,1830.442599952221,Correct,sub_004_day_23_data.csv,1,576,,Button-Switch at home,,,,,,,,,,,,,k
4,23,343,B,58.96672862227142,46.89926125310499,2.948336431113571,0.7366918730577154,B,8863.010699860752,Correct,sub_004_day_23_data.csv,1,576,,Button-Switch at home,,,,,,,,,,,,,d
4,23,344,A,68.36093111377919,84.95746623637257,3.4180465556889597,1.3345087589789548,A,28095.820599934086,Correct,sub_004_day_23_data.csv,1,576,,Button-Switch at home,,,,,,,,,,,,,k
4,23,345,B,37.75875927782624,17.32918000061414,1.887937963891312,0.2722061229133227,B,2333.403999917209,Correct,sub_004_day_23_data.csv,1,576,,Button-Switch at home,,,,,,,,,,,,,d
4,23,346,B,60.154187265505826,50.76715744935981,3.007709363275291,0.7974486444327255,B,1110.663899919018,Correct,sub_004_day_23_data.csv,1,576,,Button-Switch at home,,,,,,,,,,,,,d
4,23,347,A,52.86188227524309,70.0068343911433,2.6430941137621544,1.0996647831214654,B,1468.847000040114,Incorrect,sub_004_day_23_data.csv,0,576,,Button-Switch at home,,,,,,,,,,,,,d
4,23,348,B,33.06612155134832,14.693238680782162,1.6533060775674158,0.2308008534849331,B,1265.5826001428068,Correct,sub_004_day_23_data.csv,1,576,,Button-Switch at home,,,,,,,,,,,,,d
4,23,349,A,42.03214270403045,53.94930582595825,2.1016071352015224,0.8474337142454972,A,1515.196799999103,Correct,sub_004_day_23_data.csv,1,576,,Button-Switch at home,,,,,,,,,,,,,k
4,23,350,B,45.79227342125339,29.711872835040417,2.2896136710626696,0.4667130071147856,B,1008.2582000177354,Correct,sub_004_day_23_data.csv,1,576,,Button-Switch at home,,,,,,,,,,,,,d
4,23,351,B,57.03736379551506,28.787618977061847,2.851868189775753,0.452194861463398,B,1034.946700092405,Correct,sub_004_day_23_data.csv,1,576,,Button-Switch at home,,,,,,,,,,,,,d
4,23,352,A,28.04968764195074,39.94232637953272,1.4024843820975372,0.6274125956061289,A,1293.9907999243587,Correct,sub_004_day_23_data.csv,1,576,,Button-Switch at home,,,,,,,,,,,,,k
4,23,353,A,41.56711970872908,50.318954256998325,2.078355985436454,0.7904082851505337,A,1845.2321998775003,Correct,sub_004_day_23_data.csv,1,576,,Button-Switch at home,,,,,,,,,,,,,k
4,23,354,A,50.67466730674479,76.73023133532426,2.5337333653372394,1.2052756553565005,A,4578.656900208443,Correct,sub_004_day_23_data.csv,1,576,,Button-Switch at home,,,,,,,,,,,,,k
4,23,355,A,48.757222163395944,72.47868494689801,2.437861108169797,1.1384925208551198,A,2665.5562999658287,Correct,sub_004_day_23_data.csv,1,576,,Button-Switch at home,,,,,,,,,,,,,k
4,23,356,A,26.395810360765054,54.23149155721279,1.3197905180382528,0.8518662773467829,A,1151.648399885744,Correct,sub_004_day_23_data.csv,1,576,,Button-Switch at home,,,,,,,,,,,,,k
4,23,357,B,35.133072669202576,12.32979783318606,1.756653633460129,0.1936760114649234,B,874.7510998509824,Correct,sub_004_day_23_data.csv,1,576,,Button-Switch at home,,,,,,,,,,,,,d
4,23,358,B,36.63811903116657,19.47757479046761,1.8319059515583285,0.305953029357394,A,4272.634199820459,Incorrect,sub_004_day_23_data.csv,0,576,,Button-Switch at home,,,,,,,,,,,,,k
4,23,359,A,60.396754546558526,82.78649371897792,3.0198377273279267,1.3004072024199929,A,3402.1560000255704,Correct,sub_004_day_23_data.csv,1,576,,Button-Switch at home,,,,,,,,,,,,,k
4,23,360,A,23.87114205062017,52.24978962765044,1.1935571025310083,0.8207377762291941,A,9767.194799846038,Correct,sub_004_day_23_data.csv,1,576,,Button-Switch at home,,,,,,,,,,,,,k
4,23,361,A,43.26927939087037,54.087774867350994,2.1634639695435185,0.8496087808614425,A,21173.04729996249,Correct,sub_004_day_23_data.csv,1,576,,Button-Switch at home,,,,,,,,,,,,,k
4,23,362,A,22.278990761489563,39.451741581217334,1.1139495380744782,0.6197065076143767,A,800.954399863258,Correct,sub_004_day_23_data.csv,1,576,,Button-Switch at home,,,,,,,,,,,,,k
4,23,363,B,49.26101691644445,41.63705859584748,2.4630508458222224,0.6540333870090109,B,14049.194499850271,Correct,sub_004_day_23_data.csv,1,576,,Button-Switch at home,,,,,,,,,,,,,d
4,23,364,B,78.67360774195646,64.03967615249864,3.933680387097823,1.005932880694796,B,1169.220699928701,Correct,sub_004_day_23_data.csv,1,576,,Button-Switch at home,,,,,,,,,,,,,d
4,23,365,A,58.22753807031724,73.28343355639906,2.911376903515862,1.151133482453095,B,224214.35399982147,Incorrect,sub_004_day_23_data.csv,0,576,,Button-Switch at home,,,,,,,,,,,,,d
4,23,366,A,62.36491149345814,71.64081677646801,3.1182455746729065,1.1253313184106215,A,4073.903900105506,Correct,sub_004_day_23_data.csv,1,576,,Button-Switch at home,,,,,,,,,,,,,k
4,23,367,B,76.53394451714067,61.45577556817496,3.8266972258570338,0.9653450652282078,B,3602.484099799767,Correct,sub_004_day_23_data.csv,1,576,,Button-Switch at home,,,,,,,,,,,,,d
4,23,368,A,23.292816730751156,49.49745613331197,1.1646408365375578,0.7775042227989796,A,46618.86849999428,Correct,sub_004_day_23_data.csv,1,576,,Button-Switch at home,,,,,,,,,,,,,k
4,23,369,B,49.63957180435117,41.91313119206116,2.481978590217558,0.6583699252096227,B,4658.168300054967,Correct,sub_004_day_23_data.csv,1,576,,Button-Switch at home,,,,,,,,,,,,,d
4,23,370,B,83.77612941437393,61.31191152088782,4.1888064707186965,0.9630852540578428,B,1198.8872000947597,Correct,sub_004_day_23_data.csv,1,576,,Button-Switch at home,,,,,,,,,,,,,d
4,23,371,A,28.286820905844692,58.02748387306338,1.4143410452922347,0.9114935852095806,A,2316.2404999602586,Correct,sub_004_day_23_data.csv,1,576,,Button-Switch at home,,,,,,,,,,,,,k
4,23,372,B,82.28708243904113,57.07603088878784,4.114354121952056,0.8965481966814,B,1100.6635001394898,Correct,sub_004_day_23_data.csv,1,576,,Button-Switch at home,,,,,,,,,,,,,d
4,23,373,B,62.0051181743574,37.85646743487955,3.10025590871787,0.594647999921394,B,1550.769600085914,Correct,sub_004_day_23_data.csv,1,576,,Button-Switch at home,,,,,,,,,,,,,d
4,23,374,A,52.244472155880025,80.76088059196525,2.612223607794001,1.2685889458258026,A,1239.1059999354184,Correct,sub_004_day_23_data.csv,1,576,,Button-Switch at home,,,,,,,,,,,,,k
4,23,375,B,86.18362948778973,59.69633779557041,4.3091814743894865,0.9377078813238936,B,961.4434000104666,Correct,sub_004_day_23_data.csv,1,576,,Button-Switch at home,,,,,,,,,,,,,d
4,23,376,B,42.24632934759151,31.28767329899831,2.112316467379576,0.4914656229202532,B,1195.3445000108331,Correct,sub_004_day_23_data.csv,1,576,,Button-Switch at home,,,,,,,,,,,,,d
4,23,377,B,84.73032275978873,59.94209034394059,4.236516137989437,0.9415681533266972,B,78981.75089992583,Correct,sub_004_day_23_data.csv,1,576,,Button-Switch at home,,,,,,,,,,,,,d
4,23,378,B,62.01002882262854,43.33810457686673,3.1005014411314273,0.6807533547959536,B,1311.6019000299275,Correct,sub_004_day_23_data.csv,1,576,,Button-Switch at home,,,,,,,,,,,,,d
4,23,379,B,86.41897929587637,61.84386149116449,4.320948964793819,0.9714411046513354,B,569.8657999746501,Correct,sub_004_day_23_data.csv,1,576,,Button-Switch at home,,,,,,,,,,,,,d
4,23,380,A,15.558625413737053,42.12157226887537,0.7779312706868525,0.6616441099877521,B,941.5310001932085,Incorrect,sub_004_day_23_data.csv,0,576,,Button-Switch at home,,,,,,,,,,,,,d
4,23,381,A,31.972015154008396,47.52117791362912,1.59860075770042,0.7464609171169538,A,1797.813299810514,Correct,sub_004_day_23_data.csv,1,576,,Button-Switch at home,,,,,,,,,,,,,k
4,23,382,A,28.998068209809436,60.38793425802883,1.4499034104904718,0.948571453152434,A,567149.4010998867,Correct,sub_004_day_23_data.csv,1,576,,Button-Switch at home,,,,,,,,,,,,,k
4,23,383,A,29.486486001170658,42.45404916613344,1.4743243000585329,0.6668666448773234,A,582.8555999323726,Correct,sub_004_day_23_data.csv,1,576,,Button-Switch at home,,,,,,,,,,,,,k
4,23,384,A,21.101655378880608,44.39075898726856,1.0550827689440303,0.69728841160839,A,516.0329998470843,Correct,sub_004_day_23_data.csv,1,576,,Button-Switch at home,,,,,,,,,,,,,k
4,23,385,B,70.31531040385234,58.50906509969299,3.515765520192617,0.9190582454280124,B,648.1236999388784,Correct,sub_004_day_23_data.csv,1,576,,Button-Switch at home,,,,,,,,,,,,,d
4,23,386,B,40.57308412444081,21.593790733994044,2.0286542062220407,0.3391944716653552,B,1649.8034000396729,Correct,sub_004_day_23_data.csv,1,576,,Button-Switch at home,,,,,,,,,,,,,d
4,23,387,B,72.75497611158508,49.35464800401529,3.6377488055792537,0.7752609979496228,B,4469.964300049469,Correct,sub_004_day_23_data.csv,1,576,,Button-Switch at home,,,,,,,,,,,,,d
4,23,388,A,59.41692880169185,71.50840526461559,2.970846440084592,1.1232514032461902,A,1867.597999982536,Correct,sub_004_day_23_data.csv,1,576,,Button-Switch at home,,,,,,,,,,,,,k
4,23,389,A,19.067043034357212,47.58901899637451,0.9533521517178606,0.7475265623527763,A,1292.8742999210954,Correct,sub_004_day_23_data.csv,1,576,,Button-Switch at home,,,,,,,,,,,,,k
4,23,390,B,80.43413695161424,62.02226098962237,4.021706847580711,0.974243397420132,B,2650.585699826479,Correct,sub_004_day_23_data.csv,1,576,,Button-Switch at home,,,,,,,,,,,,,d
4,23,391,B,46.07007913212375,35.275383835351036,2.3035039566061872,0.5541044335484948,B,1965.8717999700457,Correct,sub_004_day_23_data.csv,1,576,,Button-Switch at home,,,,,,,,,,,,,d
4,23,392,A,49.61689079111821,70.14224465957693,2.4808445395559104,1.101791802644124,A,1076.6751000192016,Correct,sub_004_day_23_data.csv,1,576,,Button-Switch at home,,,,,,,,,,,,,k
4,23,393,A,52.3908229984685,80.55070002761403,2.619541149923425,1.265287437241337,A,1436.7150999605656,Correct,sub_004_day_23_data.csv,1,576,,Button-Switch at home,,,,,,,,,,,,,k
4,23,394,B,64.82055313084177,45.13654877118403,3.241027656542089,0.7090032501397457,B,1491.5711001958698,Correct,sub_004_day_23_data.csv,1,576,,Button-Switch at home,,,,,,,,,,,,,d
4,23,395,B,39.77768774664004,20.80130087352716,1.988884387332002,0.3267460700469193,B,1098.0082999449223,Correct,sub_004_day_23_data.csv,1,576,,Button-Switch at home,,,,,,,,,,,,,d
4,23,396,B,57.27865089425731,44.297629663145,2.8639325447128656,0.6958255396058882,B,2083.305199863389,Correct,sub_004_day_23_data.csv,1,576,,Button-Switch at home,,,,,,,,,,,,,d
4,23,397,B,33.45887689142154,17.335599475546765,1.672943844571077,0.2723069597897639,B,811.3200000952929,Correct,sub_004_day_23_data.csv,1,576,,Button-Switch at home,,,,,,,,,,,,,d
4,23,398,A,63.70913362630611,80.51897008459252,3.1854566813153053,1.264789024461861,A,2047.8435000404716,Correct,sub_004_day_23_data.csv,1,576,,Button-Switch at home,,,,,,,,,,,,,k
4,23,399,B,51.71961485248673,21.08489944743631,2.585980742624337,0.3312008260287269,B,1082.4785998556763,Correct,sub_004_day_23_data.csv,1,576,,Button-Switch at home,,,,,,,,,,,,,d
4,23,400,B,82.00599534618503,54.1484013657666,4.100299767309251,0.8505610996716194,B,1326.0224000550809,Correct,sub_004_day_23_data.csv,1,576,,Button-Switch at home,,,,,,,,,,,,,d
4,23,401,A,26.972363339304614,38.47400538530288,1.3486181669652308,0.6043482633632083,A,1121.3547999504954,Correct,sub_004_day_23_data.csv,1,576,,Button-Switch at home,,,,,,,,,,,,,k
4,23,402,A,28.547769745685333,37.89364781961598,1.4273884872842666,0.5952320280391222,A,2687.5434999819845,Correct,sub_004_day_23_data.csv,1,576,,Button-Switch at home,,,,,,,,,,,,,k
4,23,403,A,19.100496853318916,42.99476859806167,0.9550248426659458,0.6753602458523182,A,713.0036999005824,Correct,sub_004_day_23_data.csv,1,576,,Button-Switch at home,,,,,,,,,,,,,k
4,23,404,B,82.75746894269518,56.15028362720213,4.137873447134759,0.8820065927010072,B,2380.7709999382496,Correct,sub_004_day_23_data.csv,1,576,,Button-Switch at home,,,,,,,,,,,,,d
4,23,405,A,55.097413441677816,65.81538660194282,2.7548706720838907,1.0338256752091783,A,2189.4167999271303,Correct,sub_004_day_23_data.csv,1,576,,Button-Switch at home,,,,,,,,,,,,,k
4,23,406,A,59.97441065747219,72.39789642021505,2.9987205328736093,1.1372234976455118,A,1665.3928000014275,Correct,sub_004_day_23_data.csv,1,576,,Button-Switch at home,,,,,,,,,,,,,k
4,23,407,B,37.27729805191469,24.61977888685285,1.8638649025957343,0.38672658241971,B,1209.903599927202,Correct,sub_004_day_23_data.csv,1,576,,Button-Switch at home,,,,,,,,,,,,,d
4,23,408,A,28.6507526236201,59.56269271628564,1.432537631181005,0.9356085893275464,A,1348.2627000194043,Correct,sub_004_day_23_data.csv,1,576,,Button-Switch at home,,,,,,,,,,,,,k
4,23,409,B,76.87981933792308,60.23347488498299,3.843990966896154,0.9461452109942392,B,1295.3479997813702,Correct,sub_004_day_23_data.csv,1,576,,Button-Switch at home,,,,,,,,,,,,,d
4,23,410,A,19.28981004289549,37.933145170129094,0.9644905021447744,0.5958524509701635,A,1263.9089999720454,Correct,sub_004_day_23_data.csv,1,576,,Button-Switch at home,,,,,,,,,,,,,k
4,23,411,B,76.08405490533845,45.40894906583699,3.8042027452669225,0.7132821039623329,B,761.1134999897331,Correct,sub_004_day_23_data.csv,1,576,,Button-Switch at home,,,,,,,,,,,,,d
4,23,412,A,41.25151137015638,61.072049090994625,2.062575568507819,0.9593175038197196,A,1488.471999997273,Correct,sub_004_day_23_data.csv,1,576,,Button-Switch at home,,,,,,,,,,,,,k
4,23,413,B,49.27641426776054,24.92639769085549,2.463820713388027,0.391542939330246,B,2064.5713000558317,Correct,sub_004_day_23_data.csv,1,576,,Button-Switch at home,,,,,,,,,,,,,d
4,23,414,B,48.704270827103194,35.57362954563783,2.435213541355159,0.558789266210503,B,4610.812600003555,Correct,sub_004_day_23_data.csv,1,576,,Button-Switch at home,,,,,,,,,,,,,d
4,23,415,A,42.2679008352826,53.956230257500145,2.11339504176413,0.8475424829618087,A,1123.585700057447,Correct,sub_004_day_23_data.csv,1,576,,Button-Switch at home,,,,,,,,,,,,,k
4,23,416,A,22.42306222501035,50.21625576330008,1.1211531112505175,0.7887951009838482,A,11857.255300041288,Correct,sub_004_day_23_data.csv,1,576,,Button-Switch at home,,,,,,,,,,,,,k
4,23,417,A,15.843910520671525,31.50414459694385,0.7921955260335762,0.4948659461169468,A,1288.8875999487936,Correct,sub_004_day_23_data.csv,1,576,,Button-Switch at home,,,,,,,,,,,,,k
4,23,418,A,58.787494105093856,76.42846130222088,2.939374705254693,1.2005354627611446,A,1731.307800160721,Correct,sub_004_day_23_data.csv,1,576,,Button-Switch at home,,,,,,,,,,,,,k
4,23,419,A,54.846980126621446,84.46029099510385,2.7423490063310725,1.326699148551372,A,1868.139000143856,Correct,sub_004_day_23_data.csv,1,576,,Button-Switch at home,,,,,,,,,,,,,k
4,23,420,A,37.230387157318795,60.41583598114558,1.86151935786594,0.949009732394264,A,1477.182700065896,Correct,sub_004_day_23_data.csv,1,576,,Button-Switch at home,,,,,,,,,,,,,k
4,23,421,B,34.28443998519401,19.45976906412563,1.7142219992597003,0.305673337662055,B,1002.9847999103368,Correct,sub_004_day_23_data.csv,1,576,,Button-Switch at home,,,,,,,,,,,,,d
4,23,422,B,58.81794112461828,36.95816008842197,2.940897056230914,0.5805374211199097,B,10126.991499913856,Correct,sub_004_day_23_data.csv,1,576,,Button-Switch at home,,,,,,,,,,,,,d
4,23,423,A,21.498793577198775,52.25343851880194,1.0749396788599386,0.8207950928773706,A,11403.623200021684,Correct,sub_004_day_23_data.csv,1,576,,Button-Switch at home,,,,,,,,,,,,,k
4,23,424,A,36.52597031987773,49.79002579927444,1.8262985159938865,0.7820998963652344,A,1637.6777000259608,Correct,sub_004_day_23_data.csv,1,576,,Button-Switch at home,,,,,,,,,,,,,k
4,23,425,B,44.2286693094903,26.029670499478485,2.211433465474515,0.4088731080826228,B,2023.1912999879569,Correct,sub_004_day_23_data.csv,1,576,,Button-Switch at home,,,,,,,,,,,,,d
4,23,426,A,38.70687346912853,70.69168231904358,1.9353436734564264,1.110422349217054,A,3907.2557000909,Correct,sub_004_day_23_data.csv,1,576,,Button-Switch at home,,,,,,,,,,,,,k
4,23,427,A,16.51789324339747,39.17193632675131,0.8258946621698735,0.6153113369550453,A,1285.9211000613868,Correct,sub_004_day_23_data.csv,1,576,,Button-Switch at home,,,,,,,,,,,,,k
4,23,428,B,43.30804783243947,26.98954444157353,2.1654023916219733,0.4239507727069131,B,6452.353699831292,Correct,sub_004_day_23_data.csv,1,576,,Button-Switch at home,,,,,,,,,,,,,d
4,23,429,B,81.32025856433269,60.66223705198148,4.066012928216634,0.9528801913641378,B,4161.546899937093,Correct,sub_004_day_23_data.csv,1,576,,Button-Switch at home,,,,,,,,,,,,,d
4,23,430,B,43.93986380610181,16.074112070179595,2.1969931903050908,0.2524915619632762,B,863.9790001325309,Correct,sub_004_day_23_data.csv,1,576,,Button-Switch at home,,,,,,,,,,,,,d
4,23,431,A,15.818209301371304,32.24619163392517,0.7909104650685651,0.5065219937169398,A,973.334199981764,Correct,sub_004_day_23_data.csv,1,576,,Button-Switch at home,,,,,,,,,,,,,k
4,23,432,A,62.38949902302481,73.48655572841635,3.1194749511512407,1.1543241180700483,A,9339.951899833975,Correct,sub_004_day_23_data.csv,1,576,,Button-Switch at home,,,,,,,,,,,,,k
4,23,433,A,56.68061604175023,81.20846673729886,2.8340308020875113,1.2756196125559458,A,1262.4202000442892,Correct,sub_004_day_23_data.csv,1,576,,Button-Switch at home,,,,,,,,,,,,,k
4,23,434,B,33.07577324575371,18.595678409501375,1.6537886622876854,0.2921002333990393,B,1039.0648001339289,Correct,sub_004_day_23_data.csv,1,576,,Button-Switch at home,,,,,,,,,,,,,d
4,23,435,B,37.545372352692,20.33847618353639,1.8772686176346,0.3194760368170444,B,1799.2761000059545,Correct,sub_004_day_23_data.csv,1,576,,Button-Switch at home,,,,,,,,,,,,,d
4,23,436,A,49.7936655732754,72.33090162310454,2.48968327866377,1.1361711458333563,A,3704.483400098979,Correct,sub_004_day_23_data.csv,1,576,,Button-Switch at home,,,,,,,,,,,,,k
4,23,437,B,64.67865355467723,56.49340529040231,3.2339326777338613,0.8873963351829932,B,1428.3972000703216,Correct,sub_004_day_23_data.csv,1,576,,Button-Switch at home,,,,,,,,,,,,,d
4,23,438,A,27.0255184454294,51.478560094537954,1.35127592227147,0.8086233310519056,A,1375.3833000082525,Correct,sub_004_day_23_data.csv,1,576,,Button-Switch at home,,,,,,,,,,,,,k
4,23,439,A,44.14127401407962,72.75970453747101,2.207063700703981,1.1429067662614143,A,193047.18699981456,Correct,sub_004_day_23_data.csv,1,576,,Button-Switch at home,,,,,,,,,,,,,k
4,23,440,B,44.25460234932831,25.32248704245687,2.2127301174664153,0.3977646963160262,B,1074.1068001370877,Correct,sub_004_day_23_data.csv,1,576,,Button-Switch at home,,,,,,,,,,,,,d
4,23,441,A,32.632447920021576,45.11671607326843,1.6316223960010787,0.7086917188493832,A,5238.924199948087,Correct,sub_004_day_23_data.csv,1,576,,Button-Switch at home,,,,,,,,,,,,,k
4,23,442,A,12.17544008369445,30.639879714324753,0.6087720041847225,0.4812901050869879,A,1271.8952998984605,Correct,sub_004_day_23_data.csv,1,576,,Button-Switch at home,,,,,,,,,,,,,k
4,23,443,A,30.43054223756663,47.255410484247705,1.5215271118783318,0.7422862520984134,A,1842.1630000229925,Correct,sub_004_day_23_data.csv,1,576,,Button-Switch at home,,,,,,,,,,,,,k
4,23,444,A,53.68799026355782,62.38184615231832,2.6843995131778913,0.9798917479474596,A,5889.9189999792725,Correct,sub_004_day_23_data.csv,1,576,,Button-Switch at home,,,,,,,,,,,,,k
4,23,445,B,79.83251464383154,60.10418165335935,3.991625732191577,0.9441142776611008,B,772.0503001473844,Correct,sub_004_day_23_data.csv,1,576,,Button-Switch at home,,,,,,,,,,,,,d
4,23,446,B,68.80238738698358,39.02208230727775,3.440119369349179,0.6129574355216001,B,1007.04860012047,Correct,sub_004_day_23_data.csv,1,576,,Button-Switch at home,,,,,,,,,,,,,d
4,23,447,A,34.057195411293435,56.93831103356008,1.7028597705646715,0.894384898254215,A,822.863900102675,Correct,sub_004_day_23_data.csv,1,576,,Button-Switch at home,,,,,,,,,,,,,k
4,23,448,B,68.01298318766317,52.01038759196752,3.4006491593831583,0.8169772578464145,B,605.2909998688847,Correct,sub_004_day_23_data.csv,1,576,,Button-Switch at home,,,,,,,,,,,,,d
4,23,449,B,57.42335310984986,26.378088143188553,2.871167655492493,0.4143460396319259,B,895.602900069207,Correct,sub_004_day_23_data.csv,1,576,,Button-Switch at home,,,,,,,,,,,,,d
4,23,450,B,65.13633970189511,44.01104568903345,3.2568169850947557,0.6913238890673612,B,924.392299959436,Correct,sub_004_day_23_data.csv,1,576,,Button-Switch at home,,,,,,,,,,,,,d
4,23,451,B,44.33044612204954,16.836431393116683,2.2165223061024766,0.2644660458864197,B,1283.0639998428524,Correct,sub_004_day_23_data.csv,1,576,,Button-Switch at home,,,,,,,,,,,,,d
4,23,452,A,37.889064886185785,51.642048197034626,1.8944532443092896,0.81119139616067,A,738.1246001459658,Correct,sub_004_day_23_data.csv,1,576,,Button-Switch at home,,,,,,,,,,,,,k
4,23,453,A,65.97934556774162,79.95596875844647,3.298967278387081,1.2559454203109524,A,1290.1691000442952,Correct,sub_004_day_23_data.csv,1,576,,Button-Switch at home,,,,,,,,,,,,,k
4,23,454,A,37.83938284750016,46.57902419115591,1.891969142375008,0.7316616010515833,A,1350.9328998625278,Correct,sub_004_day_23_data.csv,1,576,,Button-Switch at home,,,,,,,,,,,,,k
4,23,455,B,34.19479942675644,14.091170450914532,1.709739971337822,0.2213435878453733,B,1270.3174999915063,Correct,sub_004_day_23_data.csv,1,576,,Button-Switch at home,,,,,,,,,,,,,d
4,23,456,A,43.239398536576765,59.49832926220383,2.161969926828838,0.9345975705550308,A,1575.3878999967128,Correct,sub_004_day_23_data.csv,1,576,,Button-Switch at home,,,,,,,,,,,,,k
4,23,457,A,16.54746876458773,45.670331164974144,0.8273734382293866,0.7173878843744786,A,796.7959998641163,Correct,sub_004_day_23_data.csv,1,576,,Button-Switch at home,,,,,,,,,,,,,k
4,23,458,B,46.45112927814112,38.119806717042614,2.3225564639070564,0.5987845236926196,A,17973.84210000746,Incorrect,sub_004_day_23_data.csv,0,576,,Button-Switch at home,,,,,,,,,,,,,k
4,23,459,B,69.52075134567805,53.40083473132691,3.4760375672839023,0.8388183504374966,B,1438.0652999971062,Correct,sub_004_day_23_data.csv,1,576,,Button-Switch at home,,,,,,,,,,,,,d
4,23,460,B,36.87025664394915,19.32245396137213,1.8435128321974577,0.3035163970718683,B,14849.919399945064,Correct,sub_004_day_23_data.csv,1,576,,Button-Switch at home,,,,,,,,,,,,,d
4,23,461,A,39.16242831070671,58.088176220682726,1.9581214155353353,0.9124469383766308,A,2163.1590998731554,Correct,sub_004_day_23_data.csv,1,576,,Button-Switch at home,,,,,,,,,,,,,k
4,23,462,A,58.457055227017335,84.33462744759993,2.922852761350867,1.3247252301630603,A,3007.9836999066174,Correct,sub_004_day_23_data.csv,1,576,,Button-Switch at home,,,,,,,,,,,,,k
4,23,463,B,71.73465958295387,52.894873022122056,3.5867329791476936,0.8308707224943178,B,1507.014699978754,Correct,sub_004_day_23_data.csv,1,576,,Button-Switch at home,,,,,,,,,,,,,d
4,23,464,B,62.97145604994701,55.39292160914596,3.14857280249735,0.8701099779408412,B,1583.559200167656,Correct,sub_004_day_23_data.csv,1,576,,Button-Switch at home,,,,,,,,,,,,,d
4,23,465,B,49.49036604992874,41.83246205094493,2.474518302496437,0.6571027773041122,B,1104.6019999776036,Correct,sub_004_day_23_data.csv,1,576,,Button-Switch at home,,,,,,,,,,,,,d
4,23,466,A,19.811493443006267,45.027832767181415,0.9905746721503134,0.7072955431422345,A,1841.0676999483255,Correct,sub_004_day_23_data.csv,1,576,,Button-Switch at home,,,,,,,,,,,,,k
4,23,467,B,65.91881555879952,34.19139016506554,3.295940777939976,0.5370771007929611,B,847.3189999349415,Correct,sub_004_day_23_data.csv,1,576,,Button-Switch at home,,,,,,,,,,,,,d
4,23,468,A,36.6483327939109,60.23483203630495,1.832416639695545,0.946166529077354,A,781.059600180015,Correct,sub_004_day_23_data.csv,1,576,,Button-Switch at home,,,,,,,,,,,,,k
4,23,469,A,33.592097361622,46.876078760865546,1.6796048680811,0.7363277233211586,A,1028.5537999588996,Correct,sub_004_day_23_data.csv,1,576,,Button-Switch at home,,,,,,,,,,,,,k
4,23,470,B,68.67167446687661,55.62396574897159,3.43358372334383,0.8737392108024971,B,1067.6702000200748,Correct,sub_004_day_23_data.csv,1,576,,Button-Switch at home,,,,,,,,,,,,,d
4,23,471,A,30.060313359414337,48.666100025199945,1.503015667970717,0.7644453115901708,A,25914.9299999699,Correct,sub_004_day_23_data.csv,1,576,,Button-Switch at home,,,,,,,,,,,,,k
4,23,472,A,52.78352850203264,82.31227065640873,2.639176425101632,1.2929581239723418,A,1076.587999938056,Correct,sub_004_day_23_data.csv,1,576,,Button-Switch at home,,,,,,,,,,,,,k
4,23,473,A,44.72009091495092,55.82094391525577,2.236004545747546,0.8768333366030769,A,56633.26089992188,Correct,sub_004_day_23_data.csv,1,576,,Button-Switch at home,,,,,,,,,,,,,k
4,23,474,B,63.960311488513426,40.25015943815503,3.1980155744256713,0.6322480259836286,B,761.3105999771506,Correct,sub_004_day_23_data.csv,1,576,,Button-Switch at home,,,,,,,,,,,,,d
4,23,475,B,37.014566363749765,23.434061386686604,1.8507283181874885,0.3681013754809343,B,1226.8882999196649,Correct,sub_004_day_23_data.csv,1,576,,Button-Switch at home,,,,,,,,,,,,,d
4,23,476,B,37.72291996492759,21.04745868631501,1.8861459982463795,0.3306127079283096,B,1431.6316999029368,Correct,sub_004_day_23_data.csv,1,576,,Button-Switch at home,,,,,,,,,,,,,d
4,23,477,B,73.46849106437985,60.81672362142578,3.6734245532189926,0.9553068607223604,B,13569.272099994125,Correct,sub_004_day_23_data.csv,1,576,,Button-Switch at home,,,,,,,,,,,,,d
4,23,478,A,47.667330931026186,69.50761281069943,2.383366546551309,1.0918230288732855,A,45568.3765001595,Correct,sub_004_day_23_data.csv,1,576,,Button-Switch at home,,,,,,,,,,,,,k
4,23,479,B,60.99076161724782,31.37682061425151,3.049538080862391,0.4928659456736867,B,789.9019001051784,Correct,sub_004_day_23_data.csv,1,576,,Button-Switch at home,,,,,,,,,,,,,d
4,23,480,A,55.041212295613,67.00035929311048,2.75206061478065,1.0524391827155626,B,5920.269099995494,Incorrect,sub_004_day_23_data.csv,0,576,,Button-Switch at home,,,,,,,,,,,,,d
4,23,481,B,53.99498588616389,39.693121234497866,2.6997492943081944,0.6234980903417376,B,1160.0211998447776,Correct,sub_004_day_23_data.csv,1,576,,Button-Switch at home,,,,,,,,,,,,,d
4,23,482,A,42.701078233030785,74.2298636193009,2.1350539116515392,1.1659999711168396,A,4929.099099943414,Correct,sub_004_day_23_data.csv,1,576,,Button-Switch at home,,,,,,,,,,,,,k
4,23,483,B,63.4383342371225,30.460446324911626,3.171916711856125,0.4784715719970428,B,1477.851399919018,Correct,sub_004_day_23_data.csv,1,576,,Button-Switch at home,,,,,,,,,,,,,d
4,23,484,A,28.38535437798936,53.3844680273668,1.4192677188994682,0.8385612628528738,A,1809.455799870193,Correct,sub_004_day_23_data.csv,1,576,,Button-Switch at home,,,,,,,,,,,,,k
4,23,485,A,36.06851057984023,53.473581439219075,1.8034255289920111,0.8399610530529308,A,3816.950300009921,Correct,sub_004_day_23_data.csv,1,576,,Button-Switch at home,,,,,,,,,,,,,k
4,23,486,B,68.96831943306452,55.287824387137945,3.4484159716532257,0.8684591146379758,B,1929.2818000540135,Correct,sub_004_day_23_data.csv,1,576,,Button-Switch at home,,,,,,,,,,,,,d
4,23,487,B,67.98517682707823,39.206994504338866,3.399258841353912,0.6158620295208319,B,3340.2481998782605,Correct,sub_004_day_23_data.csv,1,576,,Button-Switch at home,,,,,,,,,,,,,d
4,23,488,B,45.61432198458756,35.983835613827004,2.280716099229378,0.5652327680619084,B,2027.3235000204295,Correct,sub_004_day_23_data.csv,1,576,,Button-Switch at home,,,,,,,,,,,,,d
4,23,489,B,82.24556521330817,65.75592815206232,4.112278260665408,1.0328917040624863,B,732.3817000724375,Correct,sub_004_day_23_data.csv,1,576,,Button-Switch at home,,,,,,,,,,,,,d
4,23,490,B,68.78700049626262,59.15821426195372,3.4393500248131312,0.9292550566242236,B,1143.3650001417843,Correct,sub_004_day_23_data.csv,1,576,,Button-Switch at home,,,,,,,,,,,,,d
4,23,491,B,39.88774848810941,25.021034676106815,1.994387424405471,0.3930294936183632,B,929.1151000652462,Correct,sub_004_day_23_data.csv,1,576,,Button-Switch at home,,,,,,,,,,,,,d
4,23,492,A,53.90504879275516,61.90333126982658,2.6952524396377577,0.9723752537501126,A,1679.1773999575526,Correct,sub_004_day_23_data.csv,1,576,,Button-Switch at home,,,,,,,,,,,,,k
4,23,493,A,60.13085402769336,70.2834801592058,3.006542701384668,1.1040103246844246,B,2922.560299979523,Incorrect,sub_004_day_23_data.csv,0,576,,Button-Switch at home,,,,,,,,,,,,,d
4,23,494,B,57.45779380649058,44.6245748604258,2.872889690324529,0.7009611827554073,A,1250.4999998491255,Incorrect,sub_004_day_23_data.csv,0,576,,Button-Switch at home,,,,,,,,,,,,,k
4,23,495,B,39.4460921093668,28.590901405385964,1.97230460546834,0.4491048290733531,B,1519.072100054473,Correct,sub_004_day_23_data.csv,1,576,,Button-Switch at home,,,,,,,,,,,,,d
4,23,496,B,68.22107511315656,41.89028228448613,3.411053755657828,0.6580110154087214,B,401127.8397000861,Correct,sub_004_day_23_data.csv,1,576,,Button-Switch at home,,,,,,,,,,,,,d
4,23,497,B,51.390911717608034,25.570856357205116,2.5695455858804017,0.4016660723889773,B,64704.35570017435,Correct,sub_004_day_23_data.csv,1,576,,Button-Switch at home,,,,,,,,,,,,,d
4,23,498,A,46.40054902008697,66.45325819613282,2.3200274510043486,1.043845338780383,A,1280.1602999679744,Correct,sub_004_day_23_data.csv,1,576,,Button-Switch at home,,,,,,,,,,,,,k
4,23,499,B,45.44329424974464,25.69952570764408,2.272164712487232,0.4036872058193833,B,694.9388000648469,Correct,sub_004_day_23_data.csv,1,576,,Button-Switch at home,,,,,,,,,,,,,d
4,23,500,B,69.7939654211737,45.15787799101277,3.489698271058685,0.7093382887413496,B,710.9488002024591,Correct,sub_004_day_23_data.csv,1,576,,Button-Switch at home,,,,,,,,,,,,,d
4,23,501,B,51.496846047752626,27.370414794555018,2.5748423023876312,0.4299334702213971,B,1073.195500066504,Correct,sub_004_day_23_data.csv,1,576,,Button-Switch at home,,,,,,,,,,,,,d
4,23,502,A,45.39902522417259,66.45344263658706,2.2699512612086297,1.0438482359642631,A,1801.176599925384,Correct,sub_004_day_23_data.csv,1,576,,Button-Switch at home,,,,,,,,,,,,,k
4,23,503,B,45.92966097766452,31.48499053307082,2.296483048883226,0.4945650747851974,B,1503.0553000979123,Correct,sub_004_day_23_data.csv,1,576,,Button-Switch at home,,,,,,,,,,,,,d
4,23,504,A,23.767297351360725,41.50245857213295,1.1883648675680365,0.6519190947806381,A,1046.129300026223,Correct,sub_004_day_23_data.csv,1,576,,Button-Switch at home,,,,,,,,,,,,,k
4,23,505,A,29.816293864675913,44.09325494683304,1.4908146932337956,0.6926152290691624,A,634.0960999950767,Correct,sub_004_day_23_data.csv,1,576,,Button-Switch at home,,,,,,,,,,,,,k
4,23,506,B,76.66084253174459,44.224460942885315,3.83304212658723,0.6946762080356862,B,560.3107998613268,Correct,sub_004_day_23_data.csv,1,576,,Button-Switch at home,,,,,,,,,,,,,d
4,23,507,B,66.07656490444727,33.21400127970482,3.303828245222363,0.5217243120832131,B,447.7245998568833,Correct,sub_004_day_23_data.csv,1,576,,Button-Switch at home,,,,,,,,,,,,,d
4,23,508,B,39.226255498002885,12.0629844492403,1.9613127749001444,0.1894849166305062,A,7151.394699933007,Incorrect,sub_004_day_23_data.csv,0,576,,Button-Switch at home,,,,,,,,,,,,,k
4,23,509,B,46.62212035592217,18.91223114309566,2.3311060177961083,0.297072632110707,B,20141.825700178742,Correct,sub_004_day_23_data.csv,1,576,,Button-Switch at home,,,,,,,,,,,,,d
4,23,510,A,59.04628357857241,85.06150244954432,2.9523141789286207,1.3361429559939932,A,776.8569998443127,Correct,sub_004_day_23_data.csv,1,576,,Button-Switch at home,,,,,,,,,,,,,k
4,23,511,A,49.04376758117708,67.75050501801944,2.4521883790588537,1.0642224442080417,A,4881.455000024289,Correct,sub_004_day_23_data.csv,1,576,,Button-Switch at home,,,,,,,,,,,,,k
4,23,512,A,67.52586728194873,86.71394090478294,3.376293364097437,1.362099398551428,A,1198.1162999290973,Correct,sub_004_day_23_data.csv,1,576,,Button-Switch at home,,,,,,,,,,,,,k
4,23,513,B,67.27747212129246,41.94481750832714,3.3638736060646233,0.6588676527016253,B,53621.01749982685,Correct,sub_004_day_23_data.csv,1,576,,Button-Switch at home,,,,,,,,,,,,,d
4,23,514,B,71.2454218559895,47.45724276909901,3.562271092799475,0.7454566262151439,B,1113.2022000383586,Correct,sub_004_day_23_data.csv,1,576,,Button-Switch at home,,,,,,,,,,,,,d
4,23,515,B,37.41686699507528,24.887838772888617,1.870843349753764,0.3909372572631704,B,1733.6444000247866,Correct,sub_004_day_23_data.csv,1,576,,Button-Switch at home,,,,,,,,,,,,,d
4,23,516,B,64.97491266777826,39.36497019245679,3.248745633388913,0.6183435058270171,B,1529.084499925375,Correct,sub_004_day_23_data.csv,1,576,,Button-Switch at home,,,,,,,,,,,,,d
4,23,517,A,24.821994809305263,39.18284931708677,1.2410997404652633,0.6154827578063783,A,2344.2127997986972,Correct,sub_004_day_23_data.csv,1,576,,Button-Switch at home,,,,,,,,,,,,,k
4,23,518,A,57.173958024592835,74.67480500601546,2.8586979012296414,1.1729890940757426,A,1750.0718999654057,Correct,sub_004_day_23_data.csv,1,576,,Button-Switch at home,,,,,,,,,,,,,k
4,23,519,A,17.774944539338502,47.38387054292922,0.8887472269669252,0.7443040979815814,A,845.9389999043196,Correct,sub_004_day_23_data.csv,1,576,,Button-Switch at home,,,,,,,,,,,,,k
4,23,520,B,36.1766157115718,14.28098533904202,1.80883078557859,0.2243251931357897,B,1483.44390001148,Correct,sub_004_day_23_data.csv,1,576,,Button-Switch at home,,,,,,,,,,,,,d
4,23,521,B,81.4037930490706,56.733539987889486,4.07018965245353,0.8911683621904819,B,1466.260700020939,Correct,sub_004_day_23_data.csv,1,576,,Button-Switch at home,,,,,,,,,,,,,d
4,23,522,A,58.514450510448306,71.20767522597778,2.9257225255224153,1.1185275468456988,A,1346.2031001690775,Correct,sub_004_day_23_data.csv,1,576,,Button-Switch at home,,,,,,,,,,,,,k
4,23,523,B,65.99951071210134,33.14548150460995,3.2999755356050673,0.5206480059728948,B,1421.8520999420434,Correct,sub_004_day_23_data.csv,1,576,,Button-Switch at home,,,,,,,,,,,,,d
4,23,524,B,54.34142042962879,26.22361229645032,2.7170710214814395,0.4119195387055765,B,611.086499877274,Correct,sub_004_day_23_data.csv,1,576,,Button-Switch at home,,,,,,,,,,,,,d
4,23,525,A,46.618120086092155,61.93480897486926,2.3309060043046075,0.9728697043846825,A,7947.962100151926,Correct,sub_004_day_23_data.csv,1,576,,Button-Switch at home,,,,,,,,,,,,,k
4,23,526,B,43.96961373711008,16.090723072117907,2.198480686855504,0.252752486971567,B,33821.52460003272,Correct,sub_004_day_23_data.csv,1,576,,Button-Switch at home,,,,,,,,,,,,,d
4,23,527,A,36.01547692069042,53.26450651325194,1.8007738460345208,0.8366769117955899,A,1795.458400156349,Correct,sub_004_day_23_data.csv,1,576,,Button-Switch at home,,,,,,,,,,,,,k
4,23,528,A,55.73423470183899,84.9071403149917,2.7867117350919495,1.3337182412544784,A,2570.386800216511,Correct,sub_004_day_23_data.csv,1,576,,Button-Switch at home,,,,,,,,,,,,,k
4,23,529,B,35.20274728060187,16.369285282858417,1.7601373640300937,0.2571281319457176,B,875.7221999112517,Correct,sub_004_day_23_data.csv,1,576,,Button-Switch at home,,,,,,,,,,,,,d
4,23,530,B,59.01475416214977,40.92143239784249,2.9507377081074884,0.6427923569771665,B,1669.3404000252483,Correct,sub_004_day_23_data.csv,1,576,,Button-Switch at home,,,,,,,,,,,,,d
4,23,531,B,46.62044766771275,34.30192211706213,2.331022383385638,0.5388133326348581,B,1068.1111000012606,Correct,sub_004_day_23_data.csv,1,576,,Button-Switch at home,,,,,,,,,,,,,d
4,23,532,A,65.44675269596357,77.58308320427977,3.2723376347981787,1.218672221187055,A,1676.378200063482,Correct,sub_004_day_23_data.csv,1,576,,Button-Switch at home,,,,,,,,,,,,,k
4,23,533,A,66.81111206594423,86.48188786399959,3.340555603297212,1.358454317910587,A,1446.767000015825,Correct,sub_004_day_23_data.csv,1,576,,Button-Switch at home,,,,,,,,,,,,,k
4,23,534,A,37.660421984878454,55.45769796395269,1.8830210992439225,0.8711274825427769,A,11291.846000123767,Correct,sub_004_day_23_data.csv,1,576,,Button-Switch at home,,,,,,,,,,,,,k
4,23,535,B,36.7917372564594,25.189818165610298,1.83958686282297,0.3956807384717201,B,3296.226099831983,Correct,sub_004_day_23_data.csv,1,576,,Button-Switch at home,,,,,,,,,,,,,d
4,23,536,A,64.54768524041361,86.64690786443778,3.2273842620206805,1.3610464460159468,A,1690.8603000920266,Correct,sub_004_day_23_data.csv,1,576,,Button-Switch at home,,,,,,,,,,,,,k
4,23,537,A,38.61283288440841,48.76446670294904,1.9306416442204208,0.765990451751044,A,3695.114300120622,Correct,sub_004_day_23_data.csv,1,576,,Button-Switch at home,,,,,,,,,,,,,k
4,23,538,B,33.20264776068987,13.089050101659474,1.6601323880344936,0.2056023182092107,B,1622.8063001763076,Correct,sub_004_day_23_data.csv,1,576,,Button-Switch at home,,,,,,,,,,,,,d
4,23,539,B,54.25640584256889,26.717763926347825,2.7128202921284448,0.4196816543568035,B,33876.492800191045,Correct,sub_004_day_23_data.csv,1,576,,Button-Switch at home,,,,,,,,,,,,,d
4,23,540,A,47.95573300060149,64.71399353539745,2.397786650030074,1.0165250333763098,A,2395.9997000638396,Correct,sub_004_day_23_data.csv,1,576,,Button-Switch at home,,,,,,,,,,,,,k
4,23,541,A,55.555084395237216,62.83904742082122,2.7777542197618605,0.9870734486791628,A,1804.6907999087125,Correct,sub_004_day_23_data.csv,1,576,,Button-Switch at home,,,,,,,,,,,,,k
4,23,542,A,58.32919077463343,85.81917736890941,2.916459538731672,1.3480444857964262,A,857.5246001128107,Correct,sub_004_day_23_data.csv,1,576,,Button-Switch at home,,,,,,,,,,,,,k
4,23,543,A,51.80385528696144,73.8725413643622,2.590192764348072,1.160387166261442,A,585.9350999817252,Correct,sub_004_day_23_data.csv,1,576,,Button-Switch at home,,,,,,,,,,,,,k
4,23,544,A,61.255781413215594,82.22564878535648,3.06278907066078,1.2915974708036522,A,623.1839000247419,Correct,sub_004_day_23_data.csv,1,576,,Button-Switch at home,,,,,,,,,,,,,k
4,23,545,A,16.728477243693053,43.82193488936484,0.8364238621846526,0.6883533435725941,A,1074.9596001114696,Correct,sub_004_day_23_data.csv,1,576,,Button-Switch at home,,,,,,,,,,,,,k
4,23,546,B,55.73768609532129,29.605866904269064,2.786884304766064,0.4650478698480443,B,1347.2446999512613,Correct,sub_004_day_23_data.csv,1,576,,Button-Switch at home,,,,,,,,,,,,,d
4,23,547,B,82.08382875373982,53.854064746518866,4.104191437686991,0.8459376708680637,B,678.0891998205334,Correct,sub_004_day_23_data.csv,1,576,,Button-Switch at home,,,,,,,,,,,,,d
4,23,548,B,73.99431073592329,45.07811327980652,3.6997155367961647,0.7080853475876434,B,757.278700126335,Correct,sub_004_day_23_data.csv,1,576,,Button-Switch at home,,,,,,,,,,,,,d
4,23,549,B,73.69526218323949,55.12231267143355,3.684763109161975,0.8658592626872759,B,1666.470699943602,Correct,sub_004_day_23_data.csv,1,576,,Button-Switch at home,,,,,,,,,,,,,d
4,23,550,B,65.49297137189542,56.14305299118048,3.274648568594771,0.8818930141359753,B,4685.581399826333,Correct,sub_004_day_23_data.csv,1,576,,Button-Switch at home,,,,,,,,,,,,,d
4,23,551,A,23.153135404642224,54.13876965861159,1.1576567702321112,0.8504098051694208,A,3153.230900177732,Correct,sub_004_day_23_data.csv,1,576,,Button-Switch at home,,,,,,,,,,,,,k
4,23,552,B,50.25619133376144,30.458822028411586,2.512809566688071,0.478446057607284,B,1472.555700223893,Correct,sub_004_day_23_data.csv,1,576,,Button-Switch at home,,,,,,,,,,,,,d
4,23,553,A,15.606924657594924,37.4763280252423,0.7803462328797462,0.5886767840381124,A,1796.636699931696,Correct,sub_004_day_23_data.csv,1,576,,Button-Switch at home,,,,,,,,,,,,,k
