subject,day,trial,cat,x,y,xt,yt,resp,rt,fb,f_name,acc,n_trials,block,session_type,ns_left_digit,ns_right_digit,ns_left_size,ns_right_size,ns_congruent,ns_cue,ns_correct_side,ns_resp,ns_rt,ns_fb,acc_stroop,acc_stroop_mean,resp_key
4,3,300,A,49.42557834748277,59.25560311347738,2.4712789173741383,0.930784837126665,A,1032.9018000047654,Correct,sub_004_day_03_data.csv,1,300,12.0,Training at home,,,,,,,,,,,,,
4,3,301,B,77.21234020532502,62.614278072085504,3.860617010266251,0.9835427800054616,B,575.0575999263674,Correct,sub_004_day_03_data.csv,1,300,12.0,Training at home,,,,,,,,,,,,,
4,3,302,B,84.3410664538437,61.34917672622939,4.217053322692185,0.9636706145345209,B,616.2780000595376,Correct,sub_004_day_03_data.csv,1,300,12.0,Training at home,,,,,,,,,,,,,
4,3,303,A,21.595489033560625,43.35735312134282,1.0797744516780312,0.6810557102255453,A,541.1010000389069,Correct,sub_004_day_03_data.csv,1,300,12.0,Training at home,,,,,,,,,,,,,
4,3,304,A,11.885323741934098,34.59848434903485,0.594266187096705,0.5434717212813466,A,479.27859995979816,Correct,sub_004_day_03_data.csv,1,300,12.0,Training at home,,,,,,,,,,,,,
4,3,305,A,53.17813803893395,71.70961268415395,2.6589069019466978,1.1264119620015376,A,2180.1253999583423,Correct,sub_004_day_03_data.csv,1,300,12.0,Training at home,,,,,,,,,,,,,
4,3,306,B,62.41681673304819,38.11764013120084,3.1208408366524094,0.5987504910418001,B,1187.6588999293745,Correct,sub_004_day_03_data.csv,1,300,12.0,Training at home,,,,,,,,,,,,,
4,3,307,B,41.40809423436976,26.036002502449833,2.0704047117184876,0.4089725709527093,B,818.0070000234991,Correct,sub_004_day_03_data.csv,1,300,12.0,Training at home,,,,,,,,,,,,,
4,3,308,A,24.321597636972104,43.118779591963104,1.2160798818486052,0.6773082059893439,A,743.5301999794319,Correct,sub_004_day_03_data.csv,1,300,12.0,Training at home,,,,,,,,,,,,,
4,3,309,A,31.979958357385343,47.965104241839605,1.598997917869267,0.7534340955741596,A,768.4366999892518,Correct,sub_004_day_03_data.csv,1,300,12.0,Training at home,,,,,,,,,,,,,
4,3,310,B,55.83668013125208,30.10966350065313,2.791834006562604,0.472961488278563,B,843.0218999274075,Correct,sub_004_day_03_data.csv,1,300,12.0,Training at home,,,,,,,,,,,,,
4,3,311,A,25.761264257800335,43.44817109431597,1.288063212890017,0.6824822756090773,A,513.4141000453383,Correct,sub_004_day_03_data.csv,1,300,12.0,Training at home,,,,,,,,,,,,,
4,3,312,B,73.58130625627568,56.02145060648235,3.679065312813784,0.8799828883438421,B,794.2863999633119,Correct,sub_004_day_03_data.csv,1,300,12.0,Training at home,,,,,,,,,,,,,
4,3,313,B,74.19456372648176,53.08257438237918,3.709728186324088,0.8338191285665808,B,585.9957999782637,Correct,sub_004_day_03_data.csv,1,300,12.0,Training at home,,,,,,,,,,,,,
4,3,314,A,27.059002554271256,47.19563502617824,1.352950127713563,0.7413473013987333,A,775.7526999339461,Correct,sub_004_day_03_data.csv,1,300,12.0,Training at home,,,,,,,,,,,,,
4,3,315,B,54.58137723923629,28.095217536544084,2.729068861961814,0.44131864506907,B,1016.3169000297784,Correct,sub_004_day_03_data.csv,1,300,12.0,Training at home,,,,,,,,,,,,,
4,3,316,B,45.96281276707093,33.312059190721904,2.2981406383535465,0.5232646021476014,A,945.8221000386402,Incorrect,sub_004_day_03_data.csv,0,300,12.0,Training at home,,,,,,,,,,,,,
4,3,317,A,63.67747600359169,81.80558021096695,3.1838738001795845,1.2849990490671217,B,2028.1511000357568,Incorrect,sub_004_day_03_data.csv,0,300,12.0,Training at home,,,,,,,,,,,,,
4,3,318,B,61.25138842685808,47.79967492866669,3.062569421342904,0.7508355379993975,B,1019.845600007102,Correct,sub_004_day_03_data.csv,1,300,12.0,Training at home,,,,,,,,,,,,,
4,3,319,B,68.69990399378896,56.82560821523009,3.434995199689448,0.8926145665236933,B,702.2893000394106,Correct,sub_004_day_03_data.csv,1,300,12.0,Training at home,,,,,,,,,,,,,
4,3,320,A,44.98483696109248,60.667203053093544,2.249241848054624,0.9529581971271948,A,717.2870000358671,Correct,sub_004_day_03_data.csv,1,300,12.0,Training at home,,,,,,,,,,,,,
4,3,321,A,26.65807181139616,55.09643278911242,1.332903590569808,0.8654527424463969,A,466.7836999287829,Correct,sub_004_day_03_data.csv,1,300,12.0,Training at home,,,,,,,,,,,,,
4,3,322,A,49.13023012109695,68.70887006666459,2.4565115060548477,1.0792764071894456,A,570.9505999693647,Correct,sub_004_day_03_data.csv,1,300,12.0,Training at home,,,,,,,,,,,,,
4,3,323,A,35.22095486801915,67.4116354308775,1.7610477434009573,1.0588994931805908,A,409.1206999728456,Correct,sub_004_day_03_data.csv,1,300,12.0,Training at home,,,,,,,,,,,,,
4,3,324,B,74.20189295962943,59.53474490134988,3.710094647981472,0.935169586077116,B,1365.6970999436453,Correct,sub_004_day_03_data.csv,1,300,12.0,Training at home,,,,,,,,,,,,,
4,3,325,A,43.066486232478184,62.63203826855122,2.15332431162391,0.9838217565191766,A,571.0161000024527,Correct,sub_004_day_03_data.csv,1,300,13.0,Training at home,,,,,,,,,,,,,
4,3,326,A,47.9336802047805,70.5336732627527,2.396684010239025,1.1079403487648336,A,518.131299992092,Correct,sub_004_day_03_data.csv,1,300,13.0,Training at home,,,,,,,,,,,,,
4,3,327,B,70.46570676544937,40.86671908922589,3.5232853382724683,0.6419329223351491,B,795.0208000838757,Correct,sub_004_day_03_data.csv,1,300,13.0,Training at home,,,,,,,,,,,,,
4,3,328,A,46.99876194900609,78.40848416437233,2.349938097450304,1.2316375891495186,A,444.8139000451192,Correct,sub_004_day_03_data.csv,1,300,13.0,Training at home,,,,,,,,,,,,,
4,3,329,A,60.022034059482635,87.04219868000547,3.0011017029741316,1.3672556596270418,A,1158.9158000424504,Correct,sub_004_day_03_data.csv,1,300,13.0,Training at home,,,,,,,,,,,,,
4,3,330,A,50.58272730780316,81.18586710881118,2.529136365390158,1.2752646184217922,A,1091.2608000217006,Correct,sub_004_day_03_data.csv,1,300,13.0,Training at home,,,,,,,,,,,,,
4,3,331,A,27.731951297407115,47.431070568936065,1.3865975648703557,0.7450455142563429,A,775.0186000484973,Correct,sub_004_day_03_data.csv,1,300,13.0,Training at home,,,,,,,,,,,,,
4,3,332,A,31.17939871955206,45.13799774563409,1.5589699359776032,0.7090260105771834,A,483.0833999440074,Correct,sub_004_day_03_data.csv,1,300,13.0,Training at home,,,,,,,,,,,,,
4,3,333,A,19.085433265325857,42.757811835044706,0.9542716632662928,0.6716381377227557,A,528.5948000382632,Correct,sub_004_day_03_data.csv,1,300,13.0,Training at home,,,,,,,,,,,,,
4,3,334,B,59.32623904235204,39.14275441222877,2.966311952117602,0.6148529485136368,B,2447.4274000385776,Correct,sub_004_day_03_data.csv,1,300,13.0,Training at home,,,,,,,,,,,,,
4,3,335,B,84.54965974537095,61.34260498830368,4.227482987268547,0.9635673859165772,B,722.3121999995783,Correct,sub_004_day_03_data.csv,1,300,13.0,Training at home,,,,,,,,,,,,,
4,3,336,B,73.44910181166658,58.161608210163806,3.672455090583329,0.913600405370092,B,635.7403000583872,Correct,sub_004_day_03_data.csv,1,300,13.0,Training at home,,,,,,,,,,,,,
4,3,337,A,34.95334256698552,47.49981642835111,1.747667128349276,0.7461253716908579,A,415.3074000496417,Correct,sub_004_day_03_data.csv,1,300,13.0,Training at home,,,,,,,,,,,,,
4,3,338,B,68.2547263116295,38.38787272458926,3.412736315581475,0.602995294692548,B,612.3448999132961,Correct,sub_004_day_03_data.csv,1,300,13.0,Training at home,,,,,,,,,,,,,
4,3,339,A,40.24892004768468,62.26219888437492,2.012446002384234,0.9780123330574942,A,556.2366000376642,Correct,sub_004_day_03_data.csv,1,300,13.0,Training at home,,,,,,,,,,,,,
4,3,340,A,64.72051409783637,85.41148053803025,3.2360257048918184,1.341640398952517,B,872.371600009501,Incorrect,sub_004_day_03_data.csv,0,300,13.0,Training at home,,,,,,,,,,,,,
4,3,341,A,34.849711978587685,47.53661302306102,1.7424855989293844,0.7467033712489469,A,459.3917999882251,Correct,sub_004_day_03_data.csv,1,300,13.0,Training at home,,,,,,,,,,,,,
4,3,342,A,36.832167919641606,67.4342490606874,1.8416083959820804,1.0592547072469998,A,461.86759998090565,Correct,sub_004_day_03_data.csv,1,300,13.0,Training at home,,,,,,,,,,,,,
4,3,343,B,70.14916878705544,43.37788185719907,3.507458439352772,0.6813781748543128,B,2097.483000019565,Correct,sub_004_day_03_data.csv,1,300,13.0,Training at home,,,,,,,,,,,,,
4,3,344,B,72.30707320911766,54.66443259335071,3.615353660455883,0.8586668992396252,B,718.8645999412984,Correct,sub_004_day_03_data.csv,1,300,13.0,Training at home,,,,,,,,,,,,,
4,3,345,A,23.245232675551502,47.34302479617456,1.162261633777575,0.7436624944919071,A,396.0325999651104,Correct,sub_004_day_03_data.csv,1,300,13.0,Training at home,,,,,,,,,,,,,
4,3,346,B,45.50230043563114,26.050984346455905,2.275115021781557,0.4092079052080428,B,711.9805000256747,Correct,sub_004_day_03_data.csv,1,300,13.0,Training at home,,,,,,,,,,,,,
4,3,347,B,41.99705835654045,23.770273203417947,2.099852917827022,0.3733825783484007,B,575.676399981603,Correct,sub_004_day_03_data.csv,1,300,13.0,Training at home,,,,,,,,,,,,,
4,3,348,B,53.4064644866492,40.87606299372954,2.67032322433246,0.6420796960438717,B,614.8852000478655,Correct,sub_004_day_03_data.csv,1,300,13.0,Training at home,,,,,,,,,,,,,
4,3,349,A,22.947253932437164,39.76738207014408,1.1473626966218582,0.6246645768203156,A,560.1959000341594,Correct,sub_004_day_03_data.csv,1,300,13.0,Training at home,,,,,,,,,,,,,
4,3,350,B,60.74739213661016,48.87512618869111,3.037369606830508,0.7677286868883305,B,1288.9094999991355,Correct,sub_004_day_03_data.csv,1,300,14.0,Training at home,,,,,,,,,,,,,
4,3,351,A,44.35455516602651,74.70634067903218,2.2177277583013253,1.173484455269119,A,783.1001000013202,Correct,sub_004_day_03_data.csv,1,300,14.0,Training at home,,,,,,,,,,,,,
4,3,352,A,30.255554400700287,43.14160817496972,1.5127777200350143,0.6776667965326713,A,890.2504000579938,Correct,sub_004_day_03_data.csv,1,300,14.0,Training at home,,,,,,,,,,,,,
4,3,353,B,62.15452754664353,37.04181983776533,3.1077263773321766,0.5818515453896009,B,900.758899981156,Correct,sub_004_day_03_data.csv,1,300,14.0,Training at home,,,,,,,,,,,,,
4,3,354,B,34.628650845107984,15.027322921253669,1.731432542255399,0.2360486364626601,B,798.8260999554768,Correct,sub_004_day_03_data.csv,1,300,14.0,Training at home,,,,,,,,,,,,,
4,3,355,B,50.71730821264178,37.08094856487535,2.5358654106320895,0.5824661779977669,A,1380.45489997603,Incorrect,sub_004_day_03_data.csv,0,300,14.0,Training at home,,,,,,,,,,,,,
4,3,356,A,57.8334463523675,78.26660366433646,2.891672317618375,1.229408935466517,B,1191.268700058572,Incorrect,sub_004_day_03_data.csv,0,300,14.0,Training at home,,,,,,,,,,,,,
4,3,357,B,66.82119686258974,34.00924111155143,3.3410598431294876,0.5342159101510698,B,617.0512000098825,Correct,sub_004_day_03_data.csv,1,300,14.0,Training at home,,,,,,,,,,,,,
4,3,358,A,20.21667915139783,46.164687111716376,1.0108339575698917,0.725153209427198,A,617.184599977918,Correct,sub_004_day_03_data.csv,1,300,14.0,Training at home,,,,,,,,,,,,,
4,3,359,B,49.75418888527459,27.58051164318269,2.487709444263729,0.4332336638023524,B,631.1899001011625,Correct,sub_004_day_03_data.csv,1,300,14.0,Training at home,,,,,,,,,,,,,
4,3,360,B,81.2597527789964,53.19004727740356,4.06298763894982,0.835507308853924,B,654.0253000566736,Correct,sub_004_day_03_data.csv,1,300,14.0,Training at home,,,,,,,,,,,,,
4,3,361,A,10.453068826557836,34.37934218388712,0.5226534413278918,0.5400294442007472,A,535.0602000253275,Correct,sub_004_day_03_data.csv,1,300,14.0,Training at home,,,,,,,,,,,,,
4,3,362,A,44.54396155406579,53.249353781297245,2.2271980777032896,0.8364388932386365,A,682.8485999722034,Correct,sub_004_day_03_data.csv,1,300,14.0,Training at home,,,,,,,,,,,,,
4,3,363,A,36.16323444954186,68.54105858058128,1.808161722477093,1.076640430530109,A,515.9529999364167,Correct,sub_004_day_03_data.csv,1,300,14.0,Training at home,,,,,,,,,,,,,
4,3,364,B,72.2402114958738,45.08359950588766,3.6120105747936897,0.7081715250254055,B,1048.527900013141,Correct,sub_004_day_03_data.csv,1,300,14.0,Training at home,,,,,,,,,,,,,
4,3,365,A,22.336448124167344,37.038263982675545,1.1168224062083671,0.5817956901484647,A,557.9425999894738,Correct,sub_004_day_03_data.csv,1,300,14.0,Training at home,,,,,,,,,,,,,
4,3,366,B,67.66397948298471,40.816172784929925,3.3831989741492356,0.6411389428439375,B,740.1311999419704,Correct,sub_004_day_03_data.csv,1,300,14.0,Training at home,,,,,,,,,,,,,
4,3,367,B,33.956323200409344,23.01240171314151,1.697816160020467,0.3614779608173127,B,1014.3627000506968,Correct,sub_004_day_03_data.csv,1,300,14.0,Training at home,,,,,,,,,,,,,
4,3,368,B,74.03320535970974,50.40626672600795,3.701660267985487,0.7917797862065712,B,851.732200011611,Correct,sub_004_day_03_data.csv,1,300,14.0,Training at home,,,,,,,,,,,,,
4,3,369,B,46.58201573992912,29.71467786346629,2.329100786996456,0.4667570683982647,B,1916.7384000029415,Correct,sub_004_day_03_data.csv,1,300,14.0,Training at home,,,,,,,,,,,,,
4,3,370,B,78.99713120274681,60.53644206672732,3.949856560137341,0.9509042083564734,B,799.7827000217512,Correct,sub_004_day_03_data.csv,1,300,14.0,Training at home,,,,,,,,,,,,,
4,3,371,B,41.65746046947455,16.684599183110734,2.0828730234737276,0.2620810711087547,B,838.1436000345275,Correct,sub_004_day_03_data.csv,1,300,14.0,Training at home,,,,,,,,,,,,,
4,3,372,B,33.678359067630396,10.580961162779325,1.6839179533815198,0.1662053492845322,B,629.2743000667542,Correct,sub_004_day_03_data.csv,1,300,14.0,Training at home,,,,,,,,,,,,,
4,3,373,B,54.23198111163872,36.598977653341514,2.711599055581936,0.5748953966231736,A,3624.355599982664,Incorrect,sub_004_day_03_data.csv,0,300,14.0,Training at home,,,,,,,,,,,,,
4,3,374,B,36.24490963669991,12.38599959534482,1.8122454818349951,0.1945588266805071,B,582.3225000640377,Correct,sub_004_day_03_data.csv,1,300,14.0,Training at home,,,,,,,,,,,,,
4,3,375,A,40.59522029152683,59.09348922055992,2.0297610145763416,0.9282383580514934,A,669.9704000493512,Correct,sub_004_day_03_data.csv,1,300,15.0,Training at home,,,,,,,,,,,,,
4,3,376,B,55.87218577446321,27.217801178107628,2.7936092887231605,0.4275362211400527,B,561.8914000224322,Correct,sub_004_day_03_data.csv,1,300,15.0,Training at home,,,,,,,,,,,,,
4,3,377,B,60.58355862755441,45.826613412948525,3.0291779313777205,0.7198427601850929,A,906.0822000028566,Incorrect,sub_004_day_03_data.csv,0,300,15.0,Training at home,,,,,,,,,,,,,
4,3,378,A,61.91626079922946,75.57495412625543,3.095813039961473,1.1871286033921484,B,1149.139899993315,Incorrect,sub_004_day_03_data.csv,0,300,15.0,Training at home,,,,,,,,,,,,,
4,3,379,B,68.78963317238352,49.71133175287304,3.439481658619176,0.780863773174955,B,775.877199950628,Correct,sub_004_day_03_data.csv,1,300,15.0,Training at home,,,,,,,,,,,,,
4,3,380,A,50.56559115454812,66.3573854227311,2.528279557727406,1.0423393727773924,A,2234.066899982281,Correct,sub_004_day_03_data.csv,1,300,15.0,Training at home,,,,,,,,,,,,,
4,3,381,A,17.972628901136634,34.73886612188326,0.8986314450568317,0.5456768330127391,A,548.2597999507561,Correct,sub_004_day_03_data.csv,1,300,15.0,Training at home,,,,,,,,,,,,,
4,3,382,A,55.13977058121988,64.45349844337613,2.756988529060994,1.0124331860393585,B,1912.2993999626487,Incorrect,sub_004_day_03_data.csv,0,300,15.0,Training at home,,,,,,,,,,,,,
4,3,383,B,80.21008347510951,51.98417856991967,4.010504173755476,0.816565567490798,B,641.4308999665082,Correct,sub_004_day_03_data.csv,1,300,15.0,Training at home,,,,,,,,,,,,,
4,3,384,A,67.95482228037355,85.39438723591465,3.3977411140186775,1.3413718979907572,B,1789.0111999586225,Incorrect,sub_004_day_03_data.csv,0,300,15.0,Training at home,,,,,,,,,,,,,
4,3,385,A,21.89084844904528,50.502215696669104,1.094542422452264,0.7932869491133139,A,507.7961999922991,Correct,sub_004_day_03_data.csv,1,300,15.0,Training at home,,,,,,,,,,,,,
4,3,386,B,65.40660643369438,40.38638198822132,3.270330321684719,0.6343878047963363,B,781.1445000115782,Correct,sub_004_day_03_data.csv,1,300,15.0,Training at home,,,,,,,,,,,,,
4,3,387,A,25.21403515081269,55.00670543332821,1.2607017575406343,0.8640433084376083,A,476.5716000692919,Correct,sub_004_day_03_data.csv,1,300,15.0,Training at home,,,,,,,,,,,,,
4,3,388,B,51.441165156859746,33.60095953510614,2.572058257842987,0.5278026381452868,B,845.1841999776661,Correct,sub_004_day_03_data.csv,1,300,15.0,Training at home,,,,,,,,,,,,,
4,3,389,A,35.06653216928978,68.22492937312774,1.753326608464489,1.071674684551503,A,496.2269000243395,Correct,sub_004_day_03_data.csv,1,300,15.0,Training at home,,,,,,,,,,,,,
4,3,390,B,35.153450359632345,17.42779906875753,1.7576725179816173,0.2737552276132384,B,1121.9016999239102,Correct,sub_004_day_03_data.csv,1,300,15.0,Training at home,,,,,,,,,,,,,
4,3,391,B,56.708629904799565,30.826951652905656,2.8354314952399786,0.4842286242266806,B,788.0790999624878,Correct,sub_004_day_03_data.csv,1,300,15.0,Training at home,,,,,,,,,,,,,
4,3,392,A,31.738208304622542,62.37238584502767,1.5869104152311275,0.9797431457880348,A,509.1553000966087,Correct,sub_004_day_03_data.csv,1,300,15.0,Training at home,,,,,,,,,,,,,
4,3,393,B,43.84554408331641,16.78274750357884,2.1922772041658205,0.2636227813214786,B,640.9130999818444,Correct,sub_004_day_03_data.csv,1,300,15.0,Training at home,,,,,,,,,,,,,
4,3,394,A,27.90950901209879,60.467487192998675,1.3954754506049394,0.9498210677327976,A,387.3410999076441,Correct,sub_004_day_03_data.csv,1,300,15.0,Training at home,,,,,,,,,,,,,
4,3,395,A,48.01540810473893,70.22655835837814,2.4007704052369463,1.1031161991278784,A,951.610999996774,Correct,sub_004_day_03_data.csv,1,300,15.0,Training at home,,,,,,,,,,,,,
4,3,396,B,62.21525251647486,34.31364504924744,3.110762625823743,0.5389974760230177,B,616.6389000136405,Correct,sub_004_day_03_data.csv,1,300,15.0,Training at home,,,,,,,,,,,,,
4,3,397,A,26.29144809333902,49.00880977531926,1.3145724046669511,0.7698285837566132,A,822.8971000062302,Correct,sub_004_day_03_data.csv,1,300,15.0,Training at home,,,,,,,,,,,,,
4,3,398,B,63.37886039806078,47.510182016951525,3.1689430199030393,0.746288193975844,B,696.9445000868291,Correct,sub_004_day_03_data.csv,1,300,15.0,Training at home,,,,,,,,,,,,,
4,3,399,A,12.21779850004603,34.29148312835815,0.6108899250023014,0.5386493573837415,A,491.81319994386286,Correct,sub_004_day_03_data.csv,1,300,15.0,Training at home,,,,,,,,,,,,,
4,3,400,A,28.459891485277996,60.63728013190843,1.4229945742639,0.9524881689803492,A,740.2517000446096,Correct,sub_004_day_03_data.csv,1,300,16.0,Training at home,,,,,,,,,,,,,
4,3,401,B,32.16862608353518,16.715530181894046,1.6084313041767588,0.262566934101484,B,657.2795000392944,Correct,sub_004_day_03_data.csv,1,300,16.0,Training at home,,,,,,,,,,,,,
4,3,402,B,70.06649939438654,49.98438093800937,3.503324969719327,0.7851528197454197,B,780.5119999684393,Correct,sub_004_day_03_data.csv,1,300,16.0,Training at home,,,,,,,,,,,,,
4,3,403,A,53.198257388746896,73.0465540588703,2.659912869437345,1.147412588006983,A,744.1772999009117,Correct,sub_004_day_03_data.csv,1,300,16.0,Training at home,,,,,,,,,,,,,
4,3,404,B,56.83533941490104,29.233999446548587,2.8417669707450517,0.4592065894816255,B,662.5153999775648,Correct,sub_004_day_03_data.csv,1,300,16.0,Training at home,,,,,,,,,,,,,
4,3,405,A,31.92872293408138,42.55715283322458,1.596436146704069,0.6684861934927819,A,596.4110000059009,Correct,sub_004_day_03_data.csv,1,300,16.0,Training at home,,,,,,,,,,,,,
4,3,406,B,43.58732733883775,29.507940963154173,2.1793663669418875,0.4635096527620324,B,930.5760000133888,Correct,sub_004_day_03_data.csv,1,300,16.0,Training at home,,,,,,,,,,,,,
4,3,407,A,35.714529294217925,58.48381945050278,1.7857264647108964,0.9186616876978568,A,535.2776000509039,Correct,sub_004_day_03_data.csv,1,300,16.0,Training at home,,,,,,,,,,,,,
4,3,408,A,62.43667137530004,86.29011002192686,3.121833568765002,1.3554418786117022,A,1210.4915999807415,Correct,sub_004_day_03_data.csv,1,300,16.0,Training at home,,,,,,,,,,,,,
4,3,409,B,77.78423383021071,63.85574169667349,3.889211691510535,1.0030436450189844,B,675.0931000569835,Correct,sub_004_day_03_data.csv,1,300,16.0,Training at home,,,,,,,,,,,,,
4,3,410,B,47.51361425025271,28.346296660487972,2.3756807125126356,0.4452625867253295,A,470.4626000020653,Incorrect,sub_004_day_03_data.csv,0,300,16.0,Training at home,,,,,,,,,,,,,
4,3,411,A,29.0314527290434,38.86093737918916,1.45157263645217,0.6104261769103684,A,923.871099948883,Correct,sub_004_day_03_data.csv,1,300,16.0,Training at home,,,,,,,,,,,,,
4,3,412,B,47.931026910308645,36.284202553659334,2.3965513455154324,0.5699509209197009,A,2724.2698000045493,Incorrect,sub_004_day_03_data.csv,0,300,16.0,Training at home,,,,,,,,,,,,,
4,3,413,A,61.8557014762687,87.4514019844248,3.092785073813435,1.373683410101984,A,1353.5586000652984,Correct,sub_004_day_03_data.csv,1,300,16.0,Training at home,,,,,,,,,,,,,
4,3,414,B,70.18090124978329,39.92669879639149,3.5090450624891645,0.6271671181041797,A,1973.1233000056816,Incorrect,sub_004_day_03_data.csv,0,300,16.0,Training at home,,,,,,,,,,,,,
4,3,415,B,53.46424869890065,31.975825975338346,2.6732124349450324,0.5022750998829432,B,805.3545999573544,Correct,sub_004_day_03_data.csv,1,300,16.0,Training at home,,,,,,,,,,,,,
4,3,416,A,46.29772911703098,59.909200752433534,2.3148864558515494,0.9410515248314064,A,501.9563999958336,Correct,sub_004_day_03_data.csv,1,300,16.0,Training at home,,,,,,,,,,,,,
4,3,417,B,69.79491714455558,51.89147250640733,3.4897458572277795,0.81510934405043,B,838.2275000913069,Correct,sub_004_day_03_data.csv,1,300,16.0,Training at home,,,,,,,,,,,,,
4,3,418,B,81.48941899974224,56.12579197035415,4.074470949987113,0.8816218786548679,B,810.2073998888955,Correct,sub_004_day_03_data.csv,1,300,16.0,Training at home,,,,,,,,,,,,,
4,3,419,A,34.915674009538854,53.03920632433877,1.7457837004769428,0.8331379047038799,A,748.3517000218853,Correct,sub_004_day_03_data.csv,1,300,16.0,Training at home,,,,,,,,,,,,,
4,3,420,B,39.530205607423554,26.51627624655498,1.9765102803711776,0.4165166932836733,B,711.4305000286549,Correct,sub_004_day_03_data.csv,1,300,16.0,Training at home,,,,,,,,,,,,,
4,3,421,A,35.26406453110906,45.37765308967457,1.763203226555453,0.712790507918339,A,627.8144000098109,Correct,sub_004_day_03_data.csv,1,300,16.0,Training at home,,,,,,,,,,,,,
4,3,422,A,43.39495315771484,71.55329569460689,2.169747657885742,1.123956540471576,A,518.4102000202984,Correct,sub_004_day_03_data.csv,1,300,16.0,Training at home,,,,,,,,,,,,,
4,3,423,B,61.832091001267464,52.64568735970977,3.0916045500633733,0.8269565232622462,B,609.9876000080258,Correct,sub_004_day_03_data.csv,1,300,16.0,Training at home,,,,,,,,,,,,,
4,3,424,A,23.73108071155473,37.91646627051108,1.1865540355777364,0.5955904594276139,A,465.0820000097155,Correct,sub_004_day_03_data.csv,1,300,16.0,Training at home,,,,,,,,,,,,,
4,3,425,B,36.942286575852414,13.133011877656934,1.8471143287926208,0.2062928681717725,B,889.7866000188515,Correct,sub_004_day_03_data.csv,1,300,17.0,Training at home,,,,,,,,,,,,,
4,3,426,B,66.66498539572311,38.17069756517186,3.333249269786155,0.5995839152657085,A,609.3313000164926,Incorrect,sub_004_day_03_data.csv,0,300,17.0,Training at home,,,,,,,,,,,,,
4,3,427,B,33.96570777437829,22.756559614225957,1.6982853887189144,0.3574592025251522,A,539.9907000828534,Incorrect,sub_004_day_03_data.csv,0,300,17.0,Training at home,,,,,,,,,,,,,
4,3,428,B,76.42951204366587,60.05605180669634,3.821475602183293,0.9433582557976262,B,838.541500037536,Correct,sub_004_day_03_data.csv,1,300,17.0,Training at home,,,,,,,,,,,,,
4,3,429,B,35.81672924809208,11.578255340446532,1.790836462404604,0.181870809594668,A,473.8172999350354,Incorrect,sub_004_day_03_data.csv,0,300,17.0,Training at home,,,,,,,,,,,,,
4,3,430,A,11.59003905734119,37.00937313658774,0.5795019528670595,0.5813418737993375,A,679.7867999412119,Correct,sub_004_day_03_data.csv,1,300,17.0,Training at home,,,,,,,,,,,,,
4,3,431,A,22.546392486270765,35.98884713913442,1.1273196243135382,0.5653114889173537,A,1255.8941999450326,Correct,sub_004_day_03_data.csv,1,300,17.0,Training at home,,,,,,,,,,,,,
4,3,432,B,49.913043207606144,29.946471267225867,2.495652160380307,0.470398070670273,B,1163.006199989468,Correct,sub_004_day_03_data.csv,1,300,17.0,Training at home,,,,,,,,,,,,,
4,3,433,A,22.357203635059896,40.44875609480745,1.117860181752995,0.6353675749714622,A,700.6701999343932,Correct,sub_004_day_03_data.csv,1,300,17.0,Training at home,,,,,,,,,,,,,
4,3,434,B,45.11574597995484,22.018066983301026,2.255787298997742,0.3458589874049323,B,795.4663999844342,Correct,sub_004_day_03_data.csv,1,300,17.0,Training at home,,,,,,,,,,,,,
4,3,435,A,37.88073401538615,70.96363774402487,1.8940367007693075,1.1146942150431791,A,525.3950000042096,Correct,sub_004_day_03_data.csv,1,300,17.0,Training at home,,,,,,,,,,,,,
4,3,436,A,64.63215043287859,86.75024940885704,3.2316075216439293,1.3626697311997378,B,731.604199972935,Incorrect,sub_004_day_03_data.csv,0,300,17.0,Training at home,,,,,,,,,,,,,
4,3,437,B,59.69794062060963,32.237365099311816,2.9848970310304814,0.5063833468354499,B,602.5624999310821,Correct,sub_004_day_03_data.csv,1,300,17.0,Training at home,,,,,,,,,,,,,
4,3,438,A,51.232595032827895,74.7866965297065,2.561629751641395,1.174746682019876,A,1199.735000031069,Correct,sub_004_day_03_data.csv,1,300,17.0,Training at home,,,,,,,,,,,,,
4,3,439,A,18.64843869595324,46.920022754782394,0.932421934797662,0.7370179939634516,A,696.9472999917343,Correct,sub_004_day_03_data.csv,1,300,17.0,Training at home,,,,,,,,,,,,,
4,3,440,B,50.08888259179785,23.666980670533977,2.5044441295898925,0.3717600630360058,B,778.4057999961078,Correct,sub_004_day_03_data.csv,1,300,17.0,Training at home,,,,,,,,,,,,,
4,3,441,B,40.82858484698862,13.3379211931983,2.041429242349431,0.2095115761735569,B,600.3204999724403,Correct,sub_004_day_03_data.csv,1,300,17.0,Training at home,,,,,,,,,,,,,
4,3,442,A,41.44980327669442,60.11665977479208,2.0724901638347206,0.9443102835342192,A,1053.5786000546068,Correct,sub_004_day_03_data.csv,1,300,17.0,Training at home,,,,,,,,,,,,,
4,3,443,A,37.66793038326416,47.7722980093297,1.883396519163208,0.7504055023560625,A,479.4279000489041,Correct,sub_004_day_03_data.csv,1,300,17.0,Training at home,,,,,,,,,,,,,
4,3,444,A,33.612826797057686,54.24897152647989,1.6806413398528843,0.8521408520619554,A,529.7624000813812,Correct,sub_004_day_03_data.csv,1,300,17.0,Training at home,,,,,,,,,,,,,
4,3,445,B,45.61677931824241,19.400917550373993,2.28083896591212,0.3047489002457811,B,515.927099972032,Correct,sub_004_day_03_data.csv,1,300,17.0,Training at home,,,,,,,,,,,,,
4,3,446,A,32.26448854843358,58.669200096415125,1.6132244274216792,0.9215736400744368,A,505.822699982673,Correct,sub_004_day_03_data.csv,1,300,17.0,Training at home,,,,,,,,,,,,,
4,3,447,A,54.02837592177626,62.90825104545091,2.701418796088813,0.9881604966728552,A,958.0366000300272,Correct,sub_004_day_03_data.csv,1,300,17.0,Training at home,,,,,,,,,,,,,
4,3,448,A,49.105649855786446,57.24439008175894,2.455282492789322,0.8991927767004115,A,491.2559000076726,Correct,sub_004_day_03_data.csv,1,300,17.0,Training at home,,,,,,,,,,,,,
4,3,449,B,53.48571697939659,27.893160848474174,2.6742858489698293,0.4381447460348245,B,606.8088000174612,Correct,sub_004_day_03_data.csv,1,300,17.0,Training at home,,,,,,,,,,,,,
4,3,450,A,32.830556433987645,41.157988558863096,1.6415278216993825,0.6465081724652852,A,588.5503999888897,Correct,sub_004_day_03_data.csv,1,300,18.0,Training at home,,,,,,,,,,,,,
4,3,451,A,43.111415767022955,69.28215238040684,2.1555707883511475,1.0882815047158736,A,729.0282000321895,Correct,sub_004_day_03_data.csv,1,300,18.0,Training at home,,,,,,,,,,,,,
4,3,452,A,38.53637444534365,56.049189771124354,1.9268187222671824,0.8804186141231223,A,492.7912999410182,Correct,sub_004_day_03_data.csv,1,300,18.0,Training at home,,,,,,,,,,,,,
4,3,453,A,44.15536341725077,57.19451065759792,2.2077681708625385,0.8984092725378638,A,698.0665000155568,Correct,sub_004_day_03_data.csv,1,300,18.0,Training at home,,,,,,,,,,,,,
4,3,454,B,77.33532911073398,60.71303090418361,3.866766455536699,0.9536780593287664,B,852.1439000032842,Correct,sub_004_day_03_data.csv,1,300,18.0,Training at home,,,,,,,,,,,,,
4,3,455,A,20.134852910272492,51.58551923711249,1.0067426455136246,0.8103034413346378,A,469.8184001026675,Correct,sub_004_day_03_data.csv,1,300,18.0,Training at home,,,,,,,,,,,,,
4,3,456,A,24.703134296592474,55.08836579300131,1.235156714829624,0.8653260263678009,A,509.4222000334412,Correct,sub_004_day_03_data.csv,1,300,18.0,Training at home,,,,,,,,,,,,,
4,3,457,B,55.82139503343203,30.952429303778068,2.7910697516716017,0.4861996225575331,B,702.372599975206,Correct,sub_004_day_03_data.csv,1,300,18.0,Training at home,,,,,,,,,,,,,
4,3,458,B,36.429610913548146,21.11293990299922,1.8214805456774072,0.3316412844747258,B,632.7567000407726,Correct,sub_004_day_03_data.csv,1,300,18.0,Training at home,,,,,,,,,,,,,
4,3,459,B,31.08932960991447,17.12951336199414,1.5544664804957231,0.2690697666880449,B,633.4493999602273,Correct,sub_004_day_03_data.csv,1,300,18.0,Training at home,,,,,,,,,,,,,
4,3,460,A,43.60206659507155,60.66408481048193,2.1801033297535777,0.9529092158867908,A,608.9956000214443,Correct,sub_004_day_03_data.csv,1,300,18.0,Training at home,,,,,,,,,,,,,
4,3,461,A,28.47799783343587,61.10444106898273,1.4238998916717935,0.9598263158201328,A,635.8301000436768,Correct,sub_004_day_03_data.csv,1,300,18.0,Training at home,,,,,,,,,,,,,
4,3,462,B,60.21620057935138,49.20228677695603,3.010810028967569,0.7728677133915165,A,1452.8559000464156,Incorrect,sub_004_day_03_data.csv,0,300,18.0,Training at home,,,,,,,,,,,,,
4,3,463,B,64.92706721721162,48.236772058581046,3.246353360860581,0.757701443660618,B,1167.1422000508755,Correct,sub_004_day_03_data.csv,1,300,18.0,Training at home,,,,,,,,,,,,,
4,3,464,B,54.53987643979934,42.46254106538909,2.726993821989967,0.6670000353189064,B,952.9376000864432,Correct,sub_004_day_03_data.csv,1,300,18.0,Training at home,,,,,,,,,,,,,
4,3,465,B,66.0825432046624,54.56408681535088,3.30412716023312,0.8570906714447101,B,697.616699966602,Correct,sub_004_day_03_data.csv,1,300,18.0,Training at home,,,,,,,,,,,,,
4,3,466,A,45.95127690103104,66.4380731148056,2.2975638450515516,1.043606812080674,B,1066.2498000310734,Incorrect,sub_004_day_03_data.csv,0,300,18.0,Training at home,,,,,,,,,,,,,
4,3,467,A,42.58838806804361,56.35627217910571,2.129419403402181,0.8852422533079268,A,579.7409999649972,Correct,sub_004_day_03_data.csv,1,300,18.0,Training at home,,,,,,,,,,,,,
4,3,468,A,66.01818786434212,79.13876388614219,3.300909393217106,1.2431087961944078,A,760.2379999589175,Correct,sub_004_day_03_data.csv,1,300,18.0,Training at home,,,,,,,,,,,,,
4,3,469,A,68.83570392311364,88.94797896832478,3.4417851961556822,1.3971915863927429,A,501.01460004225373,Correct,sub_004_day_03_data.csv,1,300,18.0,Training at home,,,,,,,,,,,,,
4,3,470,B,52.30528488598953,28.231030066121484,2.6152642442994765,0.4434519832949991,B,1429.841100005433,Correct,sub_004_day_03_data.csv,1,300,18.0,Training at home,,,,,,,,,,,,,
4,3,471,B,44.02379877769872,25.83154557938833,2.201189938884936,0.4057609691153813,B,687.6441000495106,Correct,sub_004_day_03_data.csv,1,300,18.0,Training at home,,,,,,,,,,,,,
4,3,472,B,54.34683140041103,40.95783928340201,2.717341570020551,0.6433642349982359,B,1023.0268999002874,Correct,sub_004_day_03_data.csv,1,300,18.0,Training at home,,,,,,,,,,,,,
4,3,473,B,35.661339338758026,13.46709288113049,1.7830669669379011,0.2115406003028547,B,643.4056999860331,Correct,sub_004_day_03_data.csv,1,300,18.0,Training at home,,,,,,,,,,,,,
4,3,474,B,60.96079389608701,40.50776048257031,3.04803969480435,0.6362944137270892,B,509.58090007770807,Correct,sub_004_day_03_data.csv,1,300,18.0,Training at home,,,,,,,,,,,,,
4,3,475,A,39.531223812385285,58.474870087609446,1.9765611906192644,0.9185211114342569,A,569.2547999788076,Correct,sub_004_day_03_data.csv,1,300,19.0,Training at home,,,,,,,,,,,,,
4,3,476,B,47.19964474304472,28.11561391815135,2.359982237152236,0.4416390306821561,B,785.6869000243023,Correct,sub_004_day_03_data.csv,1,300,19.0,Training at home,,,,,,,,,,,,,
4,3,477,B,75.35582308793059,64.29714172693159,3.7677911543965297,1.00997714048075,B,1225.1356999622658,Correct,sub_004_day_03_data.csv,1,300,19.0,Training at home,,,,,,,,,,,,,
4,3,478,A,63.09823132058412,83.78309014099362,3.1549115660292055,1.316061702409985,A,1547.2223999677226,Correct,sub_004_day_03_data.csv,1,300,19.0,Training at home,,,,,,,,,,,,,
4,3,479,A,52.96322812366461,82.516073056088,2.6481614061832306,1.296159444580424,A,634.325300110504,Correct,sub_004_day_03_data.csv,1,300,19.0,Training at home,,,,,,,,,,,,,
4,3,480,B,61.2646603032212,52.177744373515615,3.06323301516106,0.819606092023614,B,920.7238999661058,Correct,sub_004_day_03_data.csv,1,300,19.0,Training at home,,,,,,,,,,,,,
4,3,481,A,35.41499401894116,66.39244862903284,1.770749700947058,1.0428901443340366,A,503.95769998431206,Correct,sub_004_day_03_data.csv,1,300,19.0,Training at home,,,,,,,,,,,,,
4,3,482,A,33.605078053240454,49.62100889633857,1.680253902662023,0.7794449850622551,A,414.4231000682339,Correct,sub_004_day_03_data.csv,1,300,19.0,Training at home,,,,,,,,,,,,,
4,3,483,B,60.864516139210245,34.860097543152236,3.0432258069605123,0.5475811317249533,B,735.9651000006124,Correct,sub_004_day_03_data.csv,1,300,19.0,Training at home,,,,,,,,,,,,,
4,3,484,B,48.72869106554663,37.662224255609736,2.4364345532773313,0.5915968351963743,B,2742.1498000621796,Correct,sub_004_day_03_data.csv,1,300,19.0,Training at home,,,,,,,,,,,,,
4,3,485,A,55.87827968705719,70.01792901372967,2.7939139843528595,1.099839057045524,A,519.8019000235945,Correct,sub_004_day_03_data.csv,1,300,19.0,Training at home,,,,,,,,,,,,,
4,3,486,A,31.388466131607885,56.640682698842255,1.5694233065803942,0.8897097633049666,A,498.7850000616163,Correct,sub_004_day_03_data.csv,1,300,19.0,Training at home,,,,,,,,,,,,,
4,3,487,B,46.91758323397397,21.64946055408687,2.3458791616986985,0.3400689311545065,B,665.1383000425994,Correct,sub_004_day_03_data.csv,1,300,19.0,Training at home,,,,,,,,,,,,,
4,3,488,B,77.49563404245501,51.917477122863815,3.87478170212275,0.8155178236105254,B,661.9910000590608,Correct,sub_004_day_03_data.csv,1,300,19.0,Training at home,,,,,,,,,,,,,
4,3,489,B,68.33906955173457,46.97410146222589,3.4169534775867283,0.7378674603135521,B,477.9457999393344,Correct,sub_004_day_03_data.csv,1,300,19.0,Training at home,,,,,,,,,,,,,
4,3,490,B,61.46061348050737,51.77061531792453,3.073030674025369,0.8132109237730745,B,714.3588999751955,Correct,sub_004_day_03_data.csv,1,300,19.0,Training at home,,,,,,,,,,,,,
4,3,491,A,49.95145438166321,78.80188539199452,2.4975727190831605,1.237817121182574,A,552.4931000545621,Correct,sub_004_day_03_data.csv,1,300,19.0,Training at home,,,,,,,,,,,,,
4,3,492,A,53.15050152218485,82.75069121808536,2.657525076109242,1.299844818051072,A,700.2892000600696,Correct,sub_004_day_03_data.csv,1,300,19.0,Training at home,,,,,,,,,,,,,
4,3,493,B,62.181700839467766,51.35056753844419,3.1090850419733886,0.8066128286822138,A,603.4043000545353,Incorrect,sub_004_day_03_data.csv,0,300,19.0,Training at home,,,,,,,,,,,,,
4,3,494,A,15.806784427826477,30.862709383902388,0.7903392213913237,0.4847903053517225,A,483.30950003582984,Correct,sub_004_day_03_data.csv,1,300,19.0,Training at home,,,,,,,,,,,,,
4,3,495,A,54.80300678997612,64.97418416570055,2.740150339498806,1.0206120982397755,A,573.8264999818057,Correct,sub_004_day_03_data.csv,1,300,19.0,Training at home,,,,,,,,,,,,,
4,3,496,B,64.7337678689172,51.0094089336325,3.23668839344586,0.8012539218492872,A,484.04599993955344,Incorrect,sub_004_day_03_data.csv,0,300,19.0,Training at home,,,,,,,,,,,,,
4,3,497,A,18.283902279359765,41.2081426977356,0.9141951139679882,0.6472959918364303,A,473.4576999908313,Correct,sub_004_day_03_data.csv,1,300,19.0,Training at home,,,,,,,,,,,,,
4,3,498,B,38.71814452524217,22.099203232752934,1.9359072262621084,0.3471334726310222,B,812.9840999608859,Correct,sub_004_day_03_data.csv,1,300,19.0,Training at home,,,,,,,,,,,,,
4,3,499,B,50.67772748503656,27.522128506806517,2.533886374251828,0.4323165836406878,B,583.2714999560267,Correct,sub_004_day_03_data.csv,1,300,19.0,Training at home,,,,,,,,,,,,,
4,3,500,A,42.127824558804825,69.82398426777785,2.1063912279402413,1.0967925801001008,A,504.6674999175593,Correct,sub_004_day_03_data.csv,1,300,20.0,Training at home,,,,,,,,,,,,,
4,3,501,A,20.89644316374354,47.15265783864283,1.044822158187177,0.7406722173155674,A,463.8411999912933,Correct,sub_004_day_03_data.csv,1,300,20.0,Training at home,,,,,,,,,,,,,
4,3,502,B,41.29023755889821,14.097557324087024,2.0645118779449105,0.2214439126145639,B,570.1664999360219,Correct,sub_004_day_03_data.csv,1,300,20.0,Training at home,,,,,,,,,,,,,
4,3,503,B,52.62853097893534,35.55017685521877,2.631426548946767,0.5584208722108659,A,1096.2897000135854,Incorrect,sub_004_day_03_data.csv,0,300,20.0,Training at home,,,,,,,,,,,,,
4,3,504,B,62.79991010625635,34.893105324786184,3.1399955053128172,0.5480996167464158,B,808.37350001093,Correct,sub_004_day_03_data.csv,1,300,20.0,Training at home,,,,,,,,,,,,,
4,3,505,B,71.75216415416922,60.50333370844203,3.5876082077084614,0.9503841434806658,A,517.3496999777853,Incorrect,sub_004_day_03_data.csv,0,300,20.0,Training at home,,,,,,,,,,,,,
4,3,506,B,51.06876744706896,41.385804448114385,2.5534383723534484,0.6500866960854997,B,648.2240000041202,Correct,sub_004_day_03_data.csv,1,300,20.0,Training at home,,,,,,,,,,,,,
4,3,507,B,82.23954742207586,63.413538985173005,4.1119773711037935,0.9960975410697472,B,981.1340000014752,Correct,sub_004_day_03_data.csv,1,300,20.0,Training at home,,,,,,,,,,,,,
4,3,508,B,76.12687502677998,47.15843075484546,3.806343751338999,0.7407628980712273,B,653.0667000915855,Correct,sub_004_day_03_data.csv,1,300,20.0,Training at home,,,,,,,,,,,,,
4,3,509,A,40.21301509170615,61.99436428260153,2.0106507545853076,0.973805196970952,A,636.8655000114813,Correct,sub_004_day_03_data.csv,1,300,20.0,Training at home,,,,,,,,,,,,,
4,3,510,B,62.82627011230029,31.140126589599586,3.1413135056150145,0.4891479646287111,B,755.4440998937935,Correct,sub_004_day_03_data.csv,1,300,20.0,Training at home,,,,,,,,,,,,,
4,3,511,A,27.03319804515139,55.19131595994027,1.3516599022575695,0.8669431638085072,A,589.4430000334978,Correct,sub_004_day_03_data.csv,1,300,20.0,Training at home,,,,,,,,,,,,,
4,3,512,B,44.291026077757934,28.305091415196145,2.2145513038878963,0.4446153362458386,B,611.5332000190392,Correct,sub_004_day_03_data.csv,1,300,20.0,Training at home,,,,,,,,,,,,,
4,3,513,A,51.84318505536706,74.73176105984226,2.592159252768353,1.1738837576771408,A,696.0133999818936,Correct,sub_004_day_03_data.csv,1,300,20.0,Training at home,,,,,,,,,,,,,
4,3,514,A,51.47843575840963,66.41183194014931,2.5739217879204817,1.0431946166730657,B,1126.7891000024974,Incorrect,sub_004_day_03_data.csv,0,300,20.0,Training at home,,,,,,,,,,,,,
4,3,515,B,35.394199102776355,12.800328187456024,1.7697099551388178,0.201067084986251,B,712.1259000850841,Correct,sub_004_day_03_data.csv,1,300,20.0,Training at home,,,,,,,,,,,,,
4,3,516,A,41.499208359468035,51.06884996764391,2.074960417973402,0.8021876194281472,A,738.5463999817148,Correct,sub_004_day_03_data.csv,1,300,20.0,Training at home,,,,,,,,,,,,,
4,3,517,A,33.708215456635436,59.05444349144024,1.6854107728317718,0.9276250291727112,A,580.3173999302089,Correct,sub_004_day_03_data.csv,1,300,20.0,Training at home,,,,,,,,,,,,,
4,3,518,A,46.64558034377414,57.431483416458946,2.332279017188707,0.9021316319295573,A,444.7461999952793,Correct,sub_004_day_03_data.csv,1,300,20.0,Training at home,,,,,,,,,,,,,
4,3,519,B,33.7840462572226,12.950896940468684,1.68920231286113,0.2034322134278747,B,638.9797999290749,Correct,sub_004_day_03_data.csv,1,300,20.0,Training at home,,,,,,,,,,,,,
4,3,520,B,56.925352423036514,36.38558546929325,2.846267621151826,0.571543440034476,A,885.0049000466242,Incorrect,sub_004_day_03_data.csv,0,300,20.0,Training at home,,,,,,,,,,,,,
4,3,521,A,62.393313208912815,73.03690407198735,3.1196656604456403,1.1472610063674895,B,517.1628999523818,Incorrect,sub_004_day_03_data.csv,0,300,20.0,Training at home,,,,,,,,,,,,,
4,3,522,B,47.06019079480729,39.37425648201872,2.3530095397403645,0.6184893745223515,A,879.1065000696108,Incorrect,sub_004_day_03_data.csv,0,300,20.0,Training at home,,,,,,,,,,,,,
4,3,523,B,52.21978673908514,35.66310524573811,2.6109893369542565,0.5601947472210522,B,2051.8259000964463,Correct,sub_004_day_03_data.csv,1,300,20.0,Training at home,,,,,,,,,,,,,
4,3,524,B,49.26021874798562,41.64406079171669,2.463010937399281,0.6541433772445194,A,631.9767000386491,Incorrect,sub_004_day_03_data.csv,0,300,20.0,Training at home,,,,,,,,,,,,,
4,3,525,A,32.579505224924965,40.85774911449495,1.6289752612462485,0.6417920223015611,A,743.1296999566257,Correct,sub_004_day_03_data.csv,1,300,21.0,Training at home,,,,,,,,,,,,,
4,3,526,B,51.08291122682481,31.66739838708275,2.5541455613412407,0.497430330655802,B,1217.8867000620812,Correct,sub_004_day_03_data.csv,1,300,21.0,Training at home,,,,,,,,,,,,,
4,3,527,B,43.36397946193301,30.97452419000799,2.1681989730966507,0.4865466882188422,B,567.7136000012979,Correct,sub_004_day_03_data.csv,1,300,21.0,Training at home,,,,,,,,,,,,,
4,3,528,A,20.132605702100655,43.8303478981749,1.0066302851050326,0.6884854948059556,A,489.7633999353274,Correct,sub_004_day_03_data.csv,1,300,21.0,Training at home,,,,,,,,,,,,,
4,3,529,A,21.456267394017814,48.55112706663863,1.0728133697008908,0.7626393205802823,A,447.29050004389137,Correct,sub_004_day_03_data.csv,1,300,21.0,Training at home,,,,,,,,,,,,,
4,3,530,A,18.33468350566561,42.57712356133191,0.9167341752832804,0.6687998929563261,A,442.30170000810176,Correct,sub_004_day_03_data.csv,1,300,21.0,Training at home,,,,,,,,,,,,,
4,3,531,A,52.74766815712157,69.91490306281769,2.637383407856079,1.0982207291929529,B,3733.389200060629,Incorrect,sub_004_day_03_data.csv,0,300,21.0,Training at home,,,,,,,,,,,,,
4,3,532,A,59.983777928579215,85.78568990290891,2.999188896428961,1.3475184659105537,A,1778.9891000138596,Correct,sub_004_day_03_data.csv,1,300,21.0,Training at home,,,,,,,,,,,,,
4,3,533,B,37.4900632754844,26.16430563707306,1.87450316377422,0.4109879518785336,B,738.6389999883249,Correct,sub_004_day_03_data.csv,1,300,21.0,Training at home,,,,,,,,,,,,,
4,3,534,A,57.30380671208678,65.79065834339242,2.865190335604339,1.0334372446321884,A,776.5020000515506,Correct,sub_004_day_03_data.csv,1,300,21.0,Training at home,,,,,,,,,,,,,
4,3,535,A,30.336141189741497,53.8034261777084,1.516807059487075,0.8451422420892474,A,545.0338000664487,Correct,sub_004_day_03_data.csv,1,300,21.0,Training at home,,,,,,,,,,,,,
4,3,536,B,80.34565990585264,67.65063390547097,4.017282995292632,1.0626536724406008,B,601.9172000233084,Correct,sub_004_day_03_data.csv,1,300,21.0,Training at home,,,,,,,,,,,,,
4,3,537,A,69.18854371576,87.16940546398922,3.4594271857880003,1.3692538191172925,A,1399.3232999928296,Correct,sub_004_day_03_data.csv,1,300,21.0,Training at home,,,,,,,,,,,,,
4,3,538,A,48.47228097829104,71.79089997896266,2.423614048914552,1.1276888198425434,A,1119.0179000841454,Correct,sub_004_day_03_data.csv,1,300,21.0,Training at home,,,,,,,,,,,,,
4,3,539,A,59.7347279345368,75.57193995294472,2.98673639672684,1.1870812568685003,A,512.9674000199884,Correct,sub_004_day_03_data.csv,1,300,21.0,Training at home,,,,,,,,,,,,,
4,3,540,B,65.32684650068516,46.05438773953325,3.2663423250342585,0.7234206309404674,B,710.9976999927312,Correct,sub_004_day_03_data.csv,1,300,21.0,Training at home,,,,,,,,,,,,,
4,3,541,B,45.7382197459194,28.382600573457843,2.28691098729597,0.4458328472567431,A,535.4551000054926,Incorrect,sub_004_day_03_data.csv,0,300,21.0,Training at home,,,,,,,,,,,,,
4,3,542,A,44.6107370608621,55.70071305080078,2.230536853043105,0.8749447546005442,A,902.0650999154896,Correct,sub_004_day_03_data.csv,1,300,21.0,Training at home,,,,,,,,,,,,,
4,3,543,A,45.90654808260675,60.65156976328908,2.2953274041303375,0.9527126299851892,A,524.7300999471918,Correct,sub_004_day_03_data.csv,1,300,21.0,Training at home,,,,,,,,,,,,,
4,3,544,B,45.03424932703921,17.399400324229667,2.2517124663519605,0.2733091411773389,B,567.2021999489516,Correct,sub_004_day_03_data.csv,1,300,21.0,Training at home,,,,,,,,,,,,,
4,3,545,A,44.60977999721246,60.74725569909016,2.230488999860623,0.9542156611500116,A,417.8228999953717,Correct,sub_004_day_03_data.csv,1,300,21.0,Training at home,,,,,,,,,,,,,
4,3,546,A,60.754342093367626,75.87037279197838,3.0377171046683817,1.1917690289419909,A,449.1306999698282,Correct,sub_004_day_03_data.csv,1,300,21.0,Training at home,,,,,,,,,,,,,
4,3,547,A,47.758582474103065,77.03875127434337,2.3879291237051534,1.210121875226042,A,477.4633999913931,Correct,sub_004_day_03_data.csv,1,300,21.0,Training at home,,,,,,,,,,,,,
4,3,548,A,15.128269798169804,39.32811237868949,0.7564134899084902,0.6177645446422234,A,528.58110005036,Correct,sub_004_day_03_data.csv,1,300,21.0,Training at home,,,,,,,,,,,,,
4,3,549,A,42.305532706076725,68.65050801866646,2.1152766353038364,1.0783596582832486,A,471.5445000911131,Correct,sub_004_day_03_data.csv,1,300,21.0,Training at home,,,,,,,,,,,,,
4,3,550,B,83.44628421091294,64.38105179678611,4.172314210545647,1.011295196775836,B,667.626200011,Correct,sub_004_day_03_data.csv,1,300,22.0,Training at home,,,,,,,,,,,,,
4,3,551,B,84.75814767918249,56.329334338693144,4.237907383959124,0.8848191147002084,B,565.1398999616504,Correct,sub_004_day_03_data.csv,1,300,22.0,Training at home,,,,,,,,,,,,,
4,3,552,A,42.36115781574782,72.035098405762,2.1180578907873913,1.1315246797607983,A,470.0035999994725,Correct,sub_004_day_03_data.csv,1,300,22.0,Training at home,,,,,,,,,,,,,
4,3,553,A,58.400012077592166,66.59576399414426,2.9200006038796085,1.0460838146210163,A,374.2327999789268,Correct,sub_004_day_03_data.csv,1,300,22.0,Training at home,,,,,,,,,,,,,
4,3,554,A,57.056625108651666,74.08501597452313,2.852831255432583,1.1637247096332215,A,391.6022999910638,Correct,sub_004_day_03_data.csv,1,300,22.0,Training at home,,,,,,,,,,,,,
4,3,555,A,64.03098032273729,82.26665768608177,3.2015490161368643,1.292241637109904,A,480.29450001195073,Correct,sub_004_day_03_data.csv,1,300,22.0,Training at home,,,,,,,,,,,,,
4,3,556,A,16.789546847050378,33.135704819690545,0.8394773423525188,0.5204944341652986,B,487.7954999683425,Incorrect,sub_004_day_03_data.csv,0,300,22.0,Training at home,,,,,,,,,,,,,
4,3,557,B,61.6910117546533,42.04587920708968,3.084550587732665,0.660455126153584,A,1359.2879000352696,Incorrect,sub_004_day_03_data.csv,0,300,22.0,Training at home,,,,,,,,,,,,,
4,3,558,B,75.15069989924729,58.76515207224746,3.757534994962364,0.9230808501862984,A,746.5209999354556,Incorrect,sub_004_day_03_data.csv,0,300,22.0,Training at home,,,,,,,,,,,,,
4,3,559,B,72.73363141089838,52.622729662858035,3.636681570544919,0.8265959046033825,B,583.1829999806359,Correct,sub_004_day_03_data.csv,1,300,22.0,Training at home,,,,,,,,,,,,,
4,3,560,B,45.16959541839974,24.79419611135338,2.258479770919987,0.389466321775462,B,1012.5829000025988,Correct,sub_004_day_03_data.csv,1,300,22.0,Training at home,,,,,,,,,,,,,
4,3,561,B,51.74344406677387,21.758789256457177,2.5871722033386937,0.3417862623954718,B,577.2613000590354,Correct,sub_004_day_03_data.csv,1,300,22.0,Training at home,,,,,,,,,,,,,
4,3,562,B,51.098970858530784,39.36694268353026,2.5549485429265393,0.6183744896443456,B,567.026500008069,Correct,sub_004_day_03_data.csv,1,300,22.0,Training at home,,,,,,,,,,,,,
4,3,563,A,18.77000165467272,38.29340113331437,0.9385000827336358,0.6015113384069375,A,479.87539996393025,Correct,sub_004_day_03_data.csv,1,300,22.0,Training at home,,,,,,,,,,,,,
4,3,564,A,37.16887122805952,58.73195893204367,1.858443561402976,0.922559453559229,A,707.6961999991909,Correct,sub_004_day_03_data.csv,1,300,22.0,Training at home,,,,,,,,,,,,,
4,3,565,B,40.53888338083836,22.132978168851043,2.0269441690419177,0.3476640080866285,B,600.681799929589,Correct,sub_004_day_03_data.csv,1,300,22.0,Training at home,,,,,,,,,,,,,
4,3,566,A,21.601693398670474,39.68084535684184,1.0800846699335238,0.6233052613064349,A,588.7429999420419,Correct,sub_004_day_03_data.csv,1,300,22.0,Training at home,,,,,,,,,,,,,
4,3,567,A,28.391201797295366,44.98406263571293,1.4195600898647682,0.7066080035248943,A,609.9379999795929,Correct,sub_004_day_03_data.csv,1,300,22.0,Training at home,,,,,,,,,,,,,
4,3,568,B,46.27605824052554,22.724414401012567,2.313802912026277,0.3569542666967558,B,649.2048000218347,Correct,sub_004_day_03_data.csv,1,300,22.0,Training at home,,,,,,,,,,,,,
4,3,569,A,37.18798543440207,56.72800910403717,1.8593992717201036,0.8910814832700904,A,581.9488000124693,Correct,sub_004_day_03_data.csv,1,300,22.0,Training at home,,,,,,,,,,,,,
4,3,570,A,30.207424232846265,49.39970693577792,1.5103712116423134,0.7759687819946434,A,479.76440005004406,Correct,sub_004_day_03_data.csv,1,300,22.0,Training at home,,,,,,,,,,,,,
4,3,571,A,50.20109523653194,57.421015912279096,2.510054761826597,0.9019672087583932,A,650.9229000657797,Correct,sub_004_day_03_data.csv,1,300,22.0,Training at home,,,,,,,,,,,,,
4,3,572,A,32.77046876841959,46.927221581430494,1.6385234384209797,0.7371310728680123,A,493.851900100708,Correct,sub_004_day_03_data.csv,1,300,22.0,Training at home,,,,,,,,,,,,,
4,3,573,B,40.95759973614496,22.28644262761761,2.0478799868072484,0.3500746221678694,B,870.2797000296414,Correct,sub_004_day_03_data.csv,1,300,22.0,Training at home,,,,,,,,,,,,,
4,3,574,A,61.6802942502369,74.91853945495593,3.084014712511845,1.1768176658468332,A,662.369699915871,Correct,sub_004_day_03_data.csv,1,300,22.0,Training at home,,,,,,,,,,,,,
4,3,575,B,50.66767313235586,36.24283682859356,2.5333836566177927,0.5693011496298156,B,2094.9250000994653,Correct,sub_004_day_03_data.csv,1,300,23.0,Training at home,,,,,,,,,,,,,
4,3,576,B,57.91692989948887,30.60541278858809,2.8958464949744434,0.4807486998835573,B,739.404599997215,Correct,sub_004_day_03_data.csv,1,300,23.0,Training at home,,,,,,,,,,,,,
4,3,577,B,37.52355812329489,11.243789899155022,1.8761779061647448,0.1766170387284626,B,677.5022000074387,Correct,sub_004_day_03_data.csv,1,300,23.0,Training at home,,,,,,,,,,,,,
4,3,578,B,45.3432647898534,26.693232547135807,2.26716323949267,0.419296316353229,B,496.01959995925426,Correct,sub_004_day_03_data.csv,1,300,23.0,Training at home,,,,,,,,,,,,,
4,3,579,A,46.15853128615558,71.59504955274136,2.307926564307779,1.1246124085414475,A,615.6896000029519,Correct,sub_004_day_03_data.csv,1,300,23.0,Training at home,,,,,,,,,,,,,
4,3,580,B,53.99455350877757,39.33659991594995,2.699727675438879,0.6178978665657462,A,668.8242999371141,Incorrect,sub_004_day_03_data.csv,0,300,23.0,Training at home,,,,,,,,,,,,,
4,3,581,A,38.246444406207935,71.46649772739454,1.912322220310397,1.1225931211908715,A,632.2118999669328,Correct,sub_004_day_03_data.csv,1,300,23.0,Training at home,,,,,,,,,,,,,
4,3,582,A,16.90564462887393,37.350996079262494,0.8452822314436965,0.586708074434361,A,630.5987000232562,Correct,sub_004_day_03_data.csv,1,300,23.0,Training at home,,,,,,,,,,,,,
4,3,583,B,75.91385046439434,63.25320767000164,3.795692523219717,0.9935790626603336,B,1278.1879999674857,Correct,sub_004_day_03_data.csv,1,300,23.0,Training at home,,,,,,,,,,,,,
4,3,584,B,55.011018886808635,45.93830205302211,2.7505509443404317,0.7215971612408161,B,1256.0485999565572,Correct,sub_004_day_03_data.csv,1,300,23.0,Training at home,,,,,,,,,,,,,
4,3,585,A,22.75748725587128,41.500310651387224,1.137874362793564,0.6518853553204618,A,571.1335999658331,Correct,sub_004_day_03_data.csv,1,300,23.0,Training at home,,,,,,,,,,,,,
4,3,586,B,45.37628717084809,18.740988125076832,2.2688143585424045,0.2943827530737746,B,673.5198999522254,Correct,sub_004_day_03_data.csv,1,300,23.0,Training at home,,,,,,,,,,,,,
4,3,587,A,57.61099672232645,76.45497861267472,2.880549836116322,1.2009519956997183,A,570.2549000270665,Correct,sub_004_day_03_data.csv,1,300,23.0,Training at home,,,,,,,,,,,,,
4,3,588,A,40.75189274459168,71.6758551377301,2.037594637229584,1.1258816997022956,A,476.0437000077218,Correct,sub_004_day_03_data.csv,1,300,23.0,Training at home,,,,,,,,,,,,,
4,3,589,B,52.73166198111251,35.35270432409351,2.6365830990556254,0.5553189809455215,B,743.2825000723824,Correct,sub_004_day_03_data.csv,1,300,23.0,Training at home,,,,,,,,,,,,,
4,3,590,B,67.20810706064889,36.204205054591306,3.3604053530324443,0.5686943231428125,B,1147.006900049746,Correct,sub_004_day_03_data.csv,1,300,23.0,Training at home,,,,,,,,,,,,,
4,3,591,B,49.18186398893058,38.21213300134801,2.4590931994465293,0.600234781575155,B,1379.3742000125349,Correct,sub_004_day_03_data.csv,1,300,23.0,Training at home,,,,,,,,,,,,,
4,3,592,B,33.70167742695787,21.67911812322969,1.6850838713478935,0.3405347911612187,A,516.4356000022963,Incorrect,sub_004_day_03_data.csv,0,300,23.0,Training at home,,,,,,,,,,,,,
4,3,593,B,47.06063177002042,36.75705489372271,2.353031588501021,0.5773784681085801,B,613.3856999222189,Correct,sub_004_day_03_data.csv,1,300,23.0,Training at home,,,,,,,,,,,,,
4,3,594,A,47.526826065049896,71.22989629399622,2.3763413032524947,1.1188765945659067,A,1159.0524000348523,Correct,sub_004_day_03_data.csv,1,300,23.0,Training at home,,,,,,,,,,,,,
4,3,595,A,57.95944323818162,82.29435197404929,2.897972161909081,1.2926766579680296,A,568.0849000345916,Correct,sub_004_day_03_data.csv,1,300,23.0,Training at home,,,,,,,,,,,,,
4,3,596,A,28.329319332802957,60.63438692987736,1.416465966640148,0.9524427226691184,A,533.7670999579132,Correct,sub_004_day_03_data.csv,1,300,23.0,Training at home,,,,,,,,,,,,,
4,3,597,B,46.28039514614288,18.20991838039653,2.314019757307144,0.2860407290316174,B,749.0795999765396,Correct,sub_004_day_03_data.csv,1,300,23.0,Training at home,,,,,,,,,,,,,
4,3,598,B,42.44614261298125,25.27096381608724,2.1223071306490624,0.3969553713687658,B,708.0860999412835,Correct,sub_004_day_03_data.csv,1,300,23.0,Training at home,,,,,,,,,,,,,
4,3,599,B,78.59360035555771,66.34138551650274,3.9296800177778857,1.0420880468380664,B,943.9851000206544,Correct,sub_004_day_03_data.csv,1,300,23.0,Training at home,,,,,,,,,,,,,
