subject,day,trial,cat,x,y,xt,yt,resp,rt,fb,f_name,acc,n_trials,block,session_type,ns_left_digit,ns_right_digit,ns_left_size,ns_right_size,ns_congruent,ns_cue,ns_correct_side,ns_resp,ns_rt,ns_fb,acc_stroop,acc_stroop_mean,resp_key
4,9,1800,A,29.737772626302984,47.994840477123994,1.4868886313151493,0.753901191265734,A,1093.4255000029225,Correct,sub_004_day_08_data.csv,1,300,72.0,Training at home,,,,,,,,,,,,,
4,9,1801,A,65.33991474551816,88.19866613915798,3.266995737275908,1.385421407995988,A,865.9630000038305,Correct,sub_004_day_08_data.csv,1,300,72.0,Training at home,,,,,,,,,,,,,
4,9,1802,B,69.7876271707442,60.575313735842144,3.48938135853721,0.9515148031070928,B,2627.9586000018753,Correct,sub_004_day_08_data.csv,1,300,72.0,Training at home,,,,,,,,,,,,,
4,9,1803,A,58.9672429765823,75.0545894108765,2.9483621488291147,1.1789547335570394,A,848.8958000089042,Correct,sub_004_day_08_data.csv,1,300,72.0,Training at home,,,,,,,,,,,,,
4,9,1804,B,62.67101538370737,38.78105346588305,3.1335507691853683,0.6091713633344558,B,767.1431999915512,Correct,sub_004_day_08_data.csv,1,300,72.0,Training at home,,,,,,,,,,,,,
4,9,1805,A,21.47336467087529,37.87513873153958,1.0736682335437646,0.594941287963495,A,634.3951000017114,Correct,sub_004_day_08_data.csv,1,300,72.0,Training at home,,,,,,,,,,,,,
4,9,1806,B,39.579156261303154,20.869719239189664,1.9789578130651575,0.3278207832215991,B,567.9776000033598,Correct,sub_004_day_08_data.csv,1,300,72.0,Training at home,,,,,,,,,,,,,
4,9,1807,A,13.538126392642129,42.10852529817598,0.6769063196321063,0.661439168651248,A,512.4937999935355,Correct,sub_004_day_08_data.csv,1,300,72.0,Training at home,,,,,,,,,,,,,
4,9,1808,B,70.70942995284544,60.84988473095173,3.5354714976422716,0.9558277542127184,B,1530.9507000056328,Correct,sub_004_day_08_data.csv,1,300,72.0,Training at home,,,,,,,,,,,,,
4,9,1809,B,71.06211163093474,58.33510480841437,3.553105581546737,0.916325683562526,B,884.3599999963772,Correct,sub_004_day_08_data.csv,1,300,72.0,Training at home,,,,,,,,,,,,,
4,9,1810,B,36.3008360911262,24.228252032345168,1.81504180455631,0.3805764929706877,A,624.9515000090469,Incorrect,sub_004_day_08_data.csv,0,300,72.0,Training at home,,,,,,,,,,,,,
4,9,1811,A,38.01305733117864,59.48924141034814,1.900652866558932,0.9344548189118972,A,965.7663999969373,Correct,sub_004_day_08_data.csv,1,300,72.0,Training at home,,,,,,,,,,,,,
4,9,1812,A,43.93076863773497,56.302095854667655,2.1965384318867485,0.8843912535936612,A,1598.6290000000736,Correct,sub_004_day_08_data.csv,1,300,72.0,Training at home,,,,,,,,,,,,,
4,9,1813,A,34.33604907916572,67.34375383164036,1.716802453958286,1.057833211513204,A,645.1124000013806,Correct,sub_004_day_08_data.csv,1,300,72.0,Training at home,,,,,,,,,,,,,
4,9,1814,A,15.570456854004563,33.40972473674135,0.7785228427002282,0.5247987289570191,A,926.1056999966968,Correct,sub_004_day_08_data.csv,1,300,72.0,Training at home,,,,,,,,,,,,,
4,9,1815,B,77.37519126080763,62.29020083003239,3.8687595630403817,0.9784521865913128,B,579.7196000057738,Correct,sub_004_day_08_data.csv,1,300,72.0,Training at home,,,,,,,,,,,,,
4,9,1816,B,51.877384283473674,33.4268136308616,2.593869214173684,0.5250671606781498,B,606.9590999977663,Correct,sub_004_day_08_data.csv,1,300,72.0,Training at home,,,,,,,,,,,,,
4,9,1817,B,88.06921524409432,63.88159406035136,4.403460762204716,1.003449732998026,B,541.6838999954052,Correct,sub_004_day_08_data.csv,1,300,72.0,Training at home,,,,,,,,,,,,,
4,9,1818,A,48.43173842944914,76.80476001201836,2.421586921472457,1.20644634907242,A,632.0152999978745,Correct,sub_004_day_08_data.csv,1,300,72.0,Training at home,,,,,,,,,,,,,
4,9,1819,A,32.070339961784555,56.85315695664818,1.6035169980892277,0.8930473011419667,A,602.5368999980856,Correct,sub_004_day_08_data.csv,1,300,72.0,Training at home,,,,,,,,,,,,,
4,9,1820,A,54.738464959570834,65.57710448602148,2.7369232479785417,1.030082748484877,A,1225.3538999939335,Correct,sub_004_day_08_data.csv,1,300,72.0,Training at home,,,,,,,,,,,,,
4,9,1821,A,62.51660203411669,80.7170378008474,3.125830101705834,1.267900264873359,A,831.86299999943,Correct,sub_004_day_08_data.csv,1,300,72.0,Training at home,,,,,,,,,,,,,
4,9,1822,B,39.49704375662024,14.104317379591375,1.9748521878310124,0.2215500993181155,B,512.129199996707,Correct,sub_004_day_08_data.csv,1,300,72.0,Training at home,,,,,,,,,,,,,
4,9,1823,B,73.48935908630747,42.315407252996195,3.6744679543153738,0.6646888627983655,B,581.3685000030091,Correct,sub_004_day_08_data.csv,1,300,72.0,Training at home,,,,,,,,,,,,,
4,9,1824,A,14.87950517155086,34.529719795590076,0.743975258577543,0.5423915702016993,A,556.0814000054961,Correct,sub_004_day_08_data.csv,1,300,72.0,Training at home,,,,,,,,,,,,,
4,9,1825,A,41.56328395350547,54.38392947988339,2.0781641976752736,0.8542607666367352,A,1003.0732000013812,Correct,sub_004_day_08_data.csv,1,300,73.0,Training at home,,,,,,,,,,,,,
4,9,1826,A,48.896623707655515,74.63526414242396,2.444831185382776,1.172367987642864,A,688.7107999937143,Correct,sub_004_day_08_data.csv,1,300,73.0,Training at home,,,,,,,,,,,,,
4,9,1827,A,28.13746372715853,54.674924334683936,1.4068731863579265,0.8588317031271043,A,500.3724999987753,Correct,sub_004_day_08_data.csv,1,300,73.0,Training at home,,,,,,,,,,,,,
4,9,1828,B,48.10040418408901,23.2023389767805,2.40502020920445,0.3644614883777686,B,1120.3466999868397,Correct,sub_004_day_08_data.csv,1,300,73.0,Training at home,,,,,,,,,,,,,
4,9,1829,A,28.897427912761025,59.05254811774361,1.4448713956380512,0.9275952567123056,A,739.135299998452,Correct,sub_004_day_08_data.csv,1,300,73.0,Training at home,,,,,,,,,,,,,
4,9,1830,B,86.65302715757167,66.93161799202642,4.332651357878584,1.0513593968831432,B,761.1120000074152,Correct,sub_004_day_08_data.csv,1,300,73.0,Training at home,,,,,,,,,,,,,
4,9,1831,B,78.66363460070477,58.1328390402882,3.9331817300352383,0.9131485003064364,B,1003.0456999957096,Correct,sub_004_day_08_data.csv,1,300,73.0,Training at home,,,,,,,,,,,,,
4,9,1832,A,53.922371111759915,82.73060997373753,2.6961185555879954,1.2995293826024816,A,615.1575999974739,Correct,sub_004_day_08_data.csv,1,300,73.0,Training at home,,,,,,,,,,,,,
4,9,1833,B,44.39050078377437,32.38013124772243,2.2195250391887185,0.5086259122505905,B,767.8283999994164,Correct,sub_004_day_08_data.csv,1,300,73.0,Training at home,,,,,,,,,,,,,
4,9,1834,B,54.80548097093764,41.528276827965136,2.740274048546882,0.6523246469948926,B,475.035299998126,Correct,sub_004_day_08_data.csv,1,300,73.0,Training at home,,,,,,,,,,,,,
4,9,1835,B,34.20527343203268,20.536573590357275,1.7102636716016344,0.3225877436068628,B,866.1141999909887,Correct,sub_004_day_08_data.csv,1,300,73.0,Training at home,,,,,,,,,,,,,
4,9,1836,B,76.74136125766914,64.65413130736405,3.837068062883457,1.0155847196972236,B,582.0078999968246,Correct,sub_004_day_08_data.csv,1,300,73.0,Training at home,,,,,,,,,,,,,
4,9,1837,B,68.16457290665961,43.80257894747121,3.4082286453329806,0.6880493011483125,B,516.4033999899402,Correct,sub_004_day_08_data.csv,1,300,73.0,Training at home,,,,,,,,,,,,,
4,9,1838,B,74.59043828857656,55.18835325033538,3.729521914428828,0.86689662567486,B,381.1021000001346,Correct,sub_004_day_08_data.csv,1,300,73.0,Training at home,,,,,,,,,,,,,
4,9,1839,A,29.899351707476313,56.96961691656156,1.4949675853738156,0.8948766499144731,A,634.1723999939859,Correct,sub_004_day_08_data.csv,1,300,73.0,Training at home,,,,,,,,,,,,,
4,9,1840,B,78.25097301040446,58.92231051720696,3.912548650520223,0.92554948926697,B,491.95950001012534,Correct,sub_004_day_08_data.csv,1,300,73.0,Training at home,,,,,,,,,,,,,
4,9,1841,B,88.17008838504904,65.84808972325902,4.408504419252452,1.0343393746375604,B,1037.1144999953683,Correct,sub_004_day_08_data.csv,1,300,73.0,Training at home,,,,,,,,,,,,,
4,9,1842,B,73.49840737337593,47.01301738742576,3.674920368668796,0.7384787502371299,B,526.2857999914559,Correct,sub_004_day_08_data.csv,1,300,73.0,Training at home,,,,,,,,,,,,,
4,9,1843,B,65.7295336536911,47.3390504330664,3.286476682684555,0.7436000653421905,B,786.2277999956859,Correct,sub_004_day_08_data.csv,1,300,73.0,Training at home,,,,,,,,,,,,,
4,9,1844,B,81.14742586847385,55.65031863334219,4.057371293423692,0.874153160942195,B,447.9678999923635,Correct,sub_004_day_08_data.csv,1,300,73.0,Training at home,,,,,,,,,,,,,
4,9,1845,B,42.322192449629554,34.15445589619899,2.1161096224814777,0.5364969386542767,B,678.0685000121593,Correct,sub_004_day_08_data.csv,1,300,73.0,Training at home,,,,,,,,,,,,,
4,9,1846,A,58.42905212681916,81.52402353947522,2.921452606340958,1.2805763672134836,A,554.940699992585,Correct,sub_004_day_08_data.csv,1,300,73.0,Training at home,,,,,,,,,,,,,
4,9,1847,B,47.94914304847563,33.66675052739097,2.3974571524237813,0.5288360806354588,B,626.4259000017773,Correct,sub_004_day_08_data.csv,1,300,73.0,Training at home,,,,,,,,,,,,,
4,9,1848,B,74.46917297575055,61.089660785993374,3.723458648787528,0.959594147677846,B,967.0963999960804,Correct,sub_004_day_08_data.csv,1,300,73.0,Training at home,,,,,,,,,,,,,
4,9,1849,A,40.49191149270113,63.37662700018455,2.024595574635056,0.9955177289654016,A,432.61340000026394,Correct,sub_004_day_08_data.csv,1,300,73.0,Training at home,,,,,,,,,,,,,
4,9,1850,B,75.4330832401031,50.81387167046253,3.771654162005155,0.798182429701898,B,622.5465999887092,Correct,sub_004_day_08_data.csv,1,300,74.0,Training at home,,,,,,,,,,,,,
4,9,1851,B,58.063493380086115,33.47993852422724,2.903174669004306,0.5259016445517509,B,520.5436999967787,Correct,sub_004_day_08_data.csv,1,300,74.0,Training at home,,,,,,,,,,,,,
4,9,1852,B,68.55605178773827,58.8435070136959,3.4278025893869137,0.9243116467284326,B,600.9760000015376,Correct,sub_004_day_08_data.csv,1,300,74.0,Training at home,,,,,,,,,,,,,
4,9,1853,B,50.98140612261828,32.88957667928825,2.5490703061309143,0.5166282623766507,B,1135.8424999925774,Correct,sub_004_day_08_data.csv,1,300,74.0,Training at home,,,,,,,,,,,,,
4,9,1854,A,36.1133202194526,52.72359975166924,1.80566601097263,0.8281803682532637,A,979.9946999992244,Correct,sub_004_day_08_data.csv,1,300,74.0,Training at home,,,,,,,,,,,,,
4,9,1855,B,45.9882349002752,31.040251498973063,2.29941174501376,0.4875791303737667,B,556.0229999973672,Correct,sub_004_day_08_data.csv,1,300,74.0,Training at home,,,,,,,,,,,,,
4,9,1856,A,28.36254581017962,40.35829814111105,1.418127290508981,0.6339466647575053,A,904.1634000022896,Correct,sub_004_day_08_data.csv,1,300,74.0,Training at home,,,,,,,,,,,,,
4,9,1857,B,62.21961556332313,37.19568218891084,3.110980778166157,0.5842684095497149,B,528.1643000053009,Correct,sub_004_day_08_data.csv,1,300,74.0,Training at home,,,,,,,,,,,,,
4,9,1858,B,66.65416283059035,45.26974955147644,3.332708141529517,0.711095563103841,B,595.9675000049174,Correct,sub_004_day_08_data.csv,1,300,74.0,Training at home,,,,,,,,,,,,,
4,9,1859,A,59.551819458459384,78.24753896619552,2.9775909729229695,1.2291094678884045,A,560.1162999955704,Correct,sub_004_day_08_data.csv,1,300,74.0,Training at home,,,,,,,,,,,,,
4,9,1860,A,43.483530995957594,56.68114236802467,2.17417654979788,0.8903453023023173,A,1022.5742999900832,Correct,sub_004_day_08_data.csv,1,300,74.0,Training at home,,,,,,,,,,,,,
4,9,1861,A,57.66417867624666,72.70443657862121,2.883208933812333,1.1420386191939074,A,745.7053999969503,Correct,sub_004_day_08_data.csv,1,300,74.0,Training at home,,,,,,,,,,,,,
4,9,1862,A,63.37530540009921,89.01512918933707,3.16876527000496,1.3982463795978386,A,606.6126999940025,Correct,sub_004_day_08_data.csv,1,300,74.0,Training at home,,,,,,,,,,,,,
4,9,1863,B,48.66253257606653,22.448724399271487,2.4331266288033264,0.3526237382760662,B,1195.4359999945154,Correct,sub_004_day_08_data.csv,1,300,74.0,Training at home,,,,,,,,,,,,,
4,9,1864,A,46.806989710431054,59.84283392896122,2.3403494855215525,0.9400090372060927,A,1072.7068999985931,Correct,sub_004_day_08_data.csv,1,300,74.0,Training at home,,,,,,,,,,,,,
4,9,1865,A,47.8824216266348,62.65785479403561,2.39412108133174,0.9842272815531914,A,566.1841000110144,Correct,sub_004_day_08_data.csv,1,300,74.0,Training at home,,,,,,,,,,,,,
4,9,1866,A,19.956769691436683,32.87118798973778,0.997838484571834,0.5163394135166461,A,504.08990000141785,Correct,sub_004_day_08_data.csv,1,300,74.0,Training at home,,,,,,,,,,,,,
4,9,1867,B,79.54450491978973,59.73747253927246,3.977225245989487,0.938354024367002,B,934.9765999941156,Correct,sub_004_day_08_data.csv,1,300,74.0,Training at home,,,,,,,,,,,,,
4,9,1868,A,25.80169656328653,41.19276214630078,1.290084828164327,0.6470543946994513,A,1137.9281000117771,Correct,sub_004_day_08_data.csv,1,300,74.0,Training at home,,,,,,,,,,,,,
4,9,1869,A,36.075440573942686,56.55330064860949,1.8037720286971344,0.8883371692696325,A,588.1399000063539,Correct,sub_004_day_08_data.csv,1,300,74.0,Training at home,,,,,,,,,,,,,
4,9,1870,B,59.314738074819424,28.64286292544704,2.965736903740971,0.4499210387218194,B,476.27810000267345,Correct,sub_004_day_08_data.csv,1,300,74.0,Training at home,,,,,,,,,,,,,
4,9,1871,B,62.99800993618307,31.867601535821382,3.149900496809153,0.5005751143623164,B,387.1828999981517,Correct,sub_004_day_08_data.csv,1,300,74.0,Training at home,,,,,,,,,,,,,
4,9,1872,A,40.21993558180035,55.30635633717483,2.0109967790900174,0.8687502138284386,A,1124.0768999996362,Correct,sub_004_day_08_data.csv,1,300,74.0,Training at home,,,,,,,,,,,,,
4,9,1873,B,43.302107452632264,16.41987822595315,2.165105372631613,0.2579228440374671,B,553.8422000099672,Correct,sub_004_day_08_data.csv,1,300,74.0,Training at home,,,,,,,,,,,,,
4,9,1874,A,58.1351070178198,85.86948601244595,2.90675535089099,1.3488347321211585,A,577.5562000053469,Correct,sub_004_day_08_data.csv,1,300,74.0,Training at home,,,,,,,,,,,,,
4,9,1875,A,20.25869604472058,50.37151648433321,1.012934802236029,0.791233930686792,A,525.6193999957759,Correct,sub_004_day_08_data.csv,1,300,75.0,Training at home,,,,,,,,,,,,,
4,9,1876,B,59.220563431589305,50.21969662745416,2.961028171579465,0.7888491499515905,B,569.7864999965532,Correct,sub_004_day_08_data.csv,1,300,75.0,Training at home,,,,,,,,,,,,,
4,9,1877,B,51.082138117002934,29.37963110693987,2.5541069058501464,0.4614941662537023,B,628.6068000044907,Correct,sub_004_day_08_data.csv,1,300,75.0,Training at home,,,,,,,,,,,,,
4,9,1878,B,50.078665663598315,27.14276540781606,2.503933283179916,0.4263575620165304,B,535.2296999917598,Correct,sub_004_day_08_data.csv,1,300,75.0,Training at home,,,,,,,,,,,,,
4,9,1879,B,68.33080308971853,46.33778888873385,3.416540154485926,0.727872285782205,B,656.8203000060748,Correct,sub_004_day_08_data.csv,1,300,75.0,Training at home,,,,,,,,,,,,,
4,9,1880,A,65.90631406899554,80.38506169351787,3.295315703449777,1.26268559637359,A,623.2314999942901,Correct,sub_004_day_08_data.csv,1,300,75.0,Training at home,,,,,,,,,,,,,
4,9,1881,B,52.69863842870024,44.341552950671726,2.634931921435012,0.6965154849929656,A,1419.2618999950355,Incorrect,sub_004_day_08_data.csv,0,300,75.0,Training at home,,,,,,,,,,,,,
4,9,1882,A,12.657426535303124,34.18236555499305,0.6328713267651562,0.5369353425494348,A,540.6060999957845,Correct,sub_004_day_08_data.csv,1,300,75.0,Training at home,,,,,,,,,,,,,
4,9,1883,B,66.16015260937678,36.84235487988455,3.308007630468839,0.5787183571579669,B,623.2594999892171,Correct,sub_004_day_08_data.csv,1,300,75.0,Training at home,,,,,,,,,,,,,
4,9,1884,A,47.653163013104205,63.709399143734196,2.3826581506552102,1.000744901572876,A,1070.331000009901,Correct,sub_004_day_08_data.csv,1,300,75.0,Training at home,,,,,,,,,,,,,
4,9,1885,A,46.39673766870265,65.01120430432265,2.3198368834351326,1.021193609217426,B,1036.8555000022752,Incorrect,sub_004_day_08_data.csv,0,300,75.0,Training at home,,,,,,,,,,,,,
4,9,1886,A,55.04204322574384,65.71220613276073,2.752102161287192,1.0322049201892962,A,647.122100010165,Correct,sub_004_day_08_data.csv,1,300,75.0,Training at home,,,,,,,,,,,,,
4,9,1887,B,33.409903450552,15.051662614377754,1.6704951725276,0.2364309634682064,B,809.4074999971781,Correct,sub_004_day_08_data.csv,1,300,75.0,Training at home,,,,,,,,,,,,,
4,9,1888,B,44.69068166009464,27.620151196741876,2.234534083004732,0.433856320453618,B,814.4146000122419,Correct,sub_004_day_08_data.csv,1,300,75.0,Training at home,,,,,,,,,,,,,
4,9,1889,B,38.929389466203304,13.29311971797981,1.9464694733101653,0.2088078362464749,B,596.6927999979816,Correct,sub_004_day_08_data.csv,1,300,75.0,Training at home,,,,,,,,,,,,,
4,9,1890,B,64.88701950140991,49.44607032759264,3.2443509750704953,0.7766970564502464,B,603.2669999985956,Correct,sub_004_day_08_data.csv,1,300,75.0,Training at home,,,,,,,,,,,,,
4,9,1891,B,42.24772112684395,29.943122687827923,2.1123860563421974,0.4703454713080903,B,587.3300999955973,Correct,sub_004_day_08_data.csv,1,300,75.0,Training at home,,,,,,,,,,,,,
4,9,1892,B,52.76713063527934,39.76417517047906,2.638356531763967,0.6246142029581734,B,725.4805999982636,Correct,sub_004_day_08_data.csv,1,300,75.0,Training at home,,,,,,,,,,,,,
4,9,1893,A,52.68376538411523,70.53744381773483,2.6341882692057617,1.1079995765039925,A,1454.4127999979537,Correct,sub_004_day_08_data.csv,1,300,75.0,Training at home,,,,,,,,,,,,,
4,9,1894,A,26.46260655466284,50.19732660664922,1.323130327733142,0.7884977624864833,A,518.4791999927256,Correct,sub_004_day_08_data.csv,1,300,75.0,Training at home,,,,,,,,,,,,,
4,9,1895,B,89.17443663022677,63.990305542163725,4.458721831511338,1.005157368961139,B,503.10329999774694,Correct,sub_004_day_08_data.csv,1,300,75.0,Training at home,,,,,,,,,,,,,
4,9,1896,A,24.60337852348983,45.36110688295366,1.2301689261744917,0.7125306007109431,A,1615.9773000108544,Correct,sub_004_day_08_data.csv,1,300,75.0,Training at home,,,,,,,,,,,,,
4,9,1897,A,18.43266820522131,43.912593539268734,0.9216334102610656,0.6897774063152065,A,492.1712999930606,Correct,sub_004_day_08_data.csv,1,300,75.0,Training at home,,,,,,,,,,,,,
4,9,1898,B,77.97575130308257,63.45950747254874,3.898787565154129,0.9968196123809286,B,528.008300010697,Correct,sub_004_day_08_data.csv,1,300,75.0,Training at home,,,,,,,,,,,,,
4,9,1899,A,37.21155346198652,47.879599063525035,1.8605776730993255,0.752090983373975,A,2648.471199994674,Correct,sub_004_day_08_data.csv,1,300,75.0,Training at home,,,,,,,,,,,,,
4,9,1900,A,42.04543572691669,67.58111430584874,2.1022717863458347,1.0615616611233325,A,1231.4141999959247,Correct,sub_004_day_08_data.csv,1,300,76.0,Training at home,,,,,,,,,,,,,
4,9,1901,B,78.05410952656982,61.94307174539864,3.902705476328491,0.9729994956806493,B,474.02159999182913,Correct,sub_004_day_08_data.csv,1,300,76.0,Training at home,,,,,,,,,,,,,
4,9,1902,A,31.00639522652213,49.58519584988178,1.5503197613261066,0.7788824350439986,A,537.3645000072429,Correct,sub_004_day_08_data.csv,1,300,76.0,Training at home,,,,,,,,,,,,,
4,9,1903,B,79.25445004508123,61.74524256829016,3.9627225022540618,0.9698920022333006,B,518.1823000020813,Correct,sub_004_day_08_data.csv,1,300,76.0,Training at home,,,,,,,,,,,,,
4,9,1904,A,39.6265058845327,48.57714055798526,1.9813252942266348,0.7630479395468265,A,1268.7622999947052,Correct,sub_004_day_08_data.csv,1,300,76.0,Training at home,,,,,,,,,,,,,
4,9,1905,A,12.921677921296926,35.45320615292983,0.6460838960648462,0.5568976599812441,A,556.0078999988036,Correct,sub_004_day_08_data.csv,1,300,76.0,Training at home,,,,,,,,,,,,,
4,9,1906,B,34.33018192449859,22.73066884798025,1.7165090962249294,0.3570525113199856,B,672.3571999900742,Correct,sub_004_day_08_data.csv,1,300,76.0,Training at home,,,,,,,,,,,,,
4,9,1907,B,61.23825508562944,32.83542734464911,3.061912754281472,0.5157776866171553,B,652.8848000016296,Correct,sub_004_day_08_data.csv,1,300,76.0,Training at home,,,,,,,,,,,,,
4,9,1908,A,56.2577539675753,82.87766758113348,2.812887698378765,1.3018393580977294,A,767.1322999958647,Correct,sub_004_day_08_data.csv,1,300,76.0,Training at home,,,,,,,,,,,,,
4,9,1909,A,46.2759014502671,67.82077285206891,2.313795072513355,1.0653262087642088,A,752.8524999943329,Correct,sub_004_day_08_data.csv,1,300,76.0,Training at home,,,,,,,,,,,,,
4,9,1910,A,53.18541740322385,67.96297328174354,2.659270870161192,1.0675598878902244,B,1316.9612000056077,Incorrect,sub_004_day_08_data.csv,0,300,76.0,Training at home,,,,,,,,,,,,,
4,9,1911,B,46.45963746199568,38.40321215838069,2.322981873099784,0.6032362459550951,B,653.9297999988776,Correct,sub_004_day_08_data.csv,1,300,76.0,Training at home,,,,,,,,,,,,,
4,9,1912,A,39.96758963953002,72.96631518967179,1.9983794819765008,1.1461521987969512,A,801.5775999956531,Correct,sub_004_day_08_data.csv,1,300,76.0,Training at home,,,,,,,,,,,,,
4,9,1913,A,30.267730950612663,60.679641862063434,1.5133865475306334,0.9531535854815908,A,876.2513999972725,Correct,sub_004_day_08_data.csv,1,300,76.0,Training at home,,,,,,,,,,,,,
4,9,1914,B,78.72134418351219,63.561256366525654,3.9360672091756097,0.9984178802700724,B,494.938000003458,Correct,sub_004_day_08_data.csv,1,300,76.0,Training at home,,,,,,,,,,,,,
4,9,1915,B,65.34301737407144,48.67355218971104,3.267150868703572,0.764562369916578,B,560.0854000076652,Correct,sub_004_day_08_data.csv,1,300,76.0,Training at home,,,,,,,,,,,,,
4,9,1916,A,24.194795967876757,56.73818358532255,1.2097397983938378,0.8912413036483915,A,495.8796999999322,Correct,sub_004_day_08_data.csv,1,300,76.0,Training at home,,,,,,,,,,,,,
4,9,1917,B,75.59106101506093,53.66303541216911,3.779553050753046,0.8429369891009969,B,518.2038000057219,Correct,sub_004_day_08_data.csv,1,300,76.0,Training at home,,,,,,,,,,,,,
4,9,1918,A,51.469846443098575,59.25513428110486,2.5734923221549284,0.9307774727249788,B,791.5063000109512,Incorrect,sub_004_day_08_data.csv,0,300,76.0,Training at home,,,,,,,,,,,,,
4,9,1919,A,21.74112960476885,42.38624490642402,1.0870564802384424,0.6658015780563975,A,555.6362999923294,Correct,sub_004_day_08_data.csv,1,300,76.0,Training at home,,,,,,,,,,,,,
4,9,1920,B,49.20023696113963,41.5598076107091,2.4600118480569817,0.6528199313720445,B,1030.8501999970758,Correct,sub_004_day_08_data.csv,1,300,76.0,Training at home,,,,,,,,,,,,,
4,9,1921,B,83.40274654288669,66.24372374157196,4.170137327144334,1.0405539792647711,B,552.1766000019852,Correct,sub_004_day_08_data.csv,1,300,76.0,Training at home,,,,,,,,,,,,,
4,9,1922,B,63.31120085266943,30.534627414104904,3.1655600426334716,0.4796368058212673,B,452.7450000023237,Correct,sub_004_day_08_data.csv,1,300,76.0,Training at home,,,,,,,,,,,,,
4,9,1923,A,63.337954877154885,77.64019190293374,3.166897743857744,1.219569282527792,A,988.2150000048568,Correct,sub_004_day_08_data.csv,1,300,76.0,Training at home,,,,,,,,,,,,,
4,9,1924,A,63.6859863847374,88.08075355535473,3.1842993192368696,1.3835692414607772,A,954.0729000000284,Correct,sub_004_day_08_data.csv,1,300,76.0,Training at home,,,,,,,,,,,,,
4,9,1925,B,41.55255480734345,31.81675406393449,2.077627740367173,0.499776404141649,B,572.9100000025937,Correct,sub_004_day_08_data.csv,1,300,77.0,Training at home,,,,,,,,,,,,,
4,9,1926,B,49.04048943590753,39.55203054273424,2.4520244717953767,0.6212818429380651,B,662.3106999904849,Correct,sub_004_day_08_data.csv,1,300,77.0,Training at home,,,,,,,,,,,,,
4,9,1927,B,65.38279651537832,37.31796057692936,3.269139825768916,0.5861891539771739,B,532.9858999903081,Correct,sub_004_day_08_data.csv,1,300,77.0,Training at home,,,,,,,,,,,,,
4,9,1928,A,57.82065528016419,75.52540638664519,2.8910327640082096,1.1863503093183407,A,987.8318999981276,Correct,sub_004_day_08_data.csv,1,300,77.0,Training at home,,,,,,,,,,,,,
4,9,1929,B,57.712784447410094,40.40450814951387,2.8856392223705045,0.6346725298721085,B,793.9193999918643,Correct,sub_004_day_08_data.csv,1,300,77.0,Training at home,,,,,,,,,,,,,
4,9,1930,A,23.76581670250699,49.111810296024146,1.1882908351253494,0.771446512152425,A,501.7824999958975,Correct,sub_004_day_08_data.csv,1,300,77.0,Training at home,,,,,,,,,,,,,
4,9,1931,B,59.96914826477943,27.376443879512536,2.998457413238971,0.4300281748664491,B,751.3713000080315,Correct,sub_004_day_08_data.csv,1,300,77.0,Training at home,,,,,,,,,,,,,
4,9,1932,A,31.117477712034848,53.31855200415761,1.5558738856017424,0.8375258563815344,A,642.0357999886619,Correct,sub_004_day_08_data.csv,1,300,77.0,Training at home,,,,,,,,,,,,,
4,9,1933,A,43.327148958300285,67.8429573849061,2.166357447915014,1.065674682591132,A,1102.1203999989666,Correct,sub_004_day_08_data.csv,1,300,77.0,Training at home,,,,,,,,,,,,,
4,9,1934,B,38.03909862586495,27.463471172839977,1.9019549312932476,0.4313951963933456,B,689.6626000088872,Correct,sub_004_day_08_data.csv,1,300,77.0,Training at home,,,,,,,,,,,,,
4,9,1935,A,43.72818772045899,68.5158822508218,2.18640938602295,1.0762449616670255,A,1133.7310000089929,Correct,sub_004_day_08_data.csv,1,300,77.0,Training at home,,,,,,,,,,,,,
4,9,1936,A,24.11024369688907,42.24856969457996,1.2055121848444537,0.6636389808858439,A,572.0471999957226,Correct,sub_004_day_08_data.csv,1,300,77.0,Training at home,,,,,,,,,,,,,
4,9,1937,B,60.23113799343974,33.024706067606765,3.011556899671987,0.5187508698447784,B,617.9794000054244,Correct,sub_004_day_08_data.csv,1,300,77.0,Training at home,,,,,,,,,,,,,
4,9,1938,B,41.986877827196096,16.921292247188138,2.099343891359805,0.2657990370650608,B,546.8061999999918,Correct,sub_004_day_08_data.csv,1,300,77.0,Training at home,,,,,,,,,,,,,
4,9,1939,B,34.54168838811536,16.008504710442228,1.727084419405768,0.2514610039664145,B,447.81240000156686,Correct,sub_004_day_08_data.csv,1,300,77.0,Training at home,,,,,,,,,,,,,
4,9,1940,A,43.378800748531816,57.33467948428018,2.168940037426591,0.9006110393187002,A,977.0961000031092,Correct,sub_004_day_08_data.csv,1,300,77.0,Training at home,,,,,,,,,,,,,
4,9,1941,B,53.09308199977783,23.013790979920373,2.6546540999888912,0.3614997833688445,B,451.50299998931587,Correct,sub_004_day_08_data.csv,1,300,77.0,Training at home,,,,,,,,,,,,,
4,9,1942,A,37.920988945007174,70.65726190296874,1.8960494472503584,1.1098816745856828,A,717.4533000070369,Correct,sub_004_day_08_data.csv,1,300,77.0,Training at home,,,,,,,,,,,,,
4,9,1943,B,46.91300786046407,20.85646844513004,2.3456503930232033,0.3276126402352393,B,500.9200999920722,Correct,sub_004_day_08_data.csv,1,300,77.0,Training at home,,,,,,,,,,,,,
4,9,1944,A,33.202609078068605,46.49960291247302,1.6601304539034305,0.730414054523339,A,588.4134000079939,Correct,sub_004_day_08_data.csv,1,300,77.0,Training at home,,,,,,,,,,,,,
4,9,1945,A,50.29193791535297,74.90591817882016,2.514596895767649,1.1766194113048976,A,766.9032999983756,Correct,sub_004_day_08_data.csv,1,300,77.0,Training at home,,,,,,,,,,,,,
4,9,1946,A,43.02066693012186,58.28216984515357,2.151033346506093,0.9154941831040352,A,898.096799995983,Correct,sub_004_day_08_data.csv,1,300,77.0,Training at home,,,,,,,,,,,,,
4,9,1947,A,56.47976513550693,73.2316186557552,2.8239882567753467,1.150319575897049,A,724.7941000096034,Correct,sub_004_day_08_data.csv,1,300,77.0,Training at home,,,,,,,,,,,,,
4,9,1948,A,63.68760832939179,78.36072407011613,3.1843804164695895,1.2308873753432683,A,510.08120000187773,Correct,sub_004_day_08_data.csv,1,300,77.0,Training at home,,,,,,,,,,,,,
4,9,1949,B,81.15683188362047,63.2588067013902,4.057841594181024,0.9936670120397212,B,760.8762000018032,Correct,sub_004_day_08_data.csv,1,300,77.0,Training at home,,,,,,,,,,,,,
4,9,1950,A,53.805606316884976,75.38146563390059,2.6902803158442485,1.1840892932614675,A,1274.3126999994274,Correct,sub_004_day_08_data.csv,1,300,78.0,Training at home,,,,,,,,,,,,,
4,9,1951,B,50.13176876592965,24.090552472745408,2.5065884382964825,0.378413513346482,B,512.0494000002509,Correct,sub_004_day_08_data.csv,1,300,78.0,Training at home,,,,,,,,,,,,,
4,9,1952,B,61.57867024044744,40.93739474804932,3.078933512022372,0.6430430929878856,B,558.2462000020314,Correct,sub_004_day_08_data.csv,1,300,78.0,Training at home,,,,,,,,,,,,,
4,9,1953,A,41.60240434363728,69.2122873387287,2.080120217181864,1.0871840672074795,A,1027.7251999941657,Correct,sub_004_day_08_data.csv,1,300,78.0,Training at home,,,,,,,,,,,,,
4,9,1954,A,45.51174176381591,62.41393971848663,2.2755870881907954,0.9803958725059692,A,738.6104000033811,Correct,sub_004_day_08_data.csv,1,300,78.0,Training at home,,,,,,,,,,,,,
4,9,1955,B,67.8440448753166,53.673912611968056,3.3922022437658303,0.8431078477558971,B,680.2078000037,Correct,sub_004_day_08_data.csv,1,300,78.0,Training at home,,,,,,,,,,,,,
4,9,1956,B,49.01203470683203,18.66532111698953,2.4506017353416016,0.2931941784901437,B,572.4486999970395,Correct,sub_004_day_08_data.csv,1,300,78.0,Training at home,,,,,,,,,,,,,
4,9,1957,A,40.77979257303125,49.0915296071305,2.0389896286515623,0.7711279438362351,B,762.8774999902816,Incorrect,sub_004_day_08_data.csv,0,300,78.0,Training at home,,,,,,,,,,,,,
4,9,1958,B,33.93091517218761,20.062140900934867,1.6965457586093806,0.3151353723483014,B,731.5701999905286,Correct,sub_004_day_08_data.csv,1,300,78.0,Training at home,,,,,,,,,,,,,
4,9,1959,A,51.09086174529602,71.81822807240812,2.554543087264801,1.1281180885305675,A,835.8972999994876,Correct,sub_004_day_08_data.csv,1,300,78.0,Training at home,,,,,,,,,,,,,
4,9,1960,B,41.158012721621574,21.359687383713347,2.0579006360810785,0.3355171848382421,B,783.5263999877498,Correct,sub_004_day_08_data.csv,1,300,78.0,Training at home,,,,,,,,,,,,,
4,9,1961,A,13.922365010569166,42.02012506760029,0.6961182505284583,0.660050581076487,A,618.4051000018371,Correct,sub_004_day_08_data.csv,1,300,78.0,Training at home,,,,,,,,,,,,,
4,9,1962,B,31.62632967262592,11.72630148738752,1.5813164836312958,0.1841963130327785,B,501.7009000002872,Correct,sub_004_day_08_data.csv,1,300,78.0,Training at home,,,,,,,,,,,,,
4,9,1963,A,59.92170634420144,81.28758698395816,2.996085317210072,1.276862430484221,A,721.0866000095848,Correct,sub_004_day_08_data.csv,1,300,78.0,Training at home,,,,,,,,,,,,,
4,9,1964,A,67.21292537829387,83.3302890720262,3.360646268914694,1.3089491198509569,A,462.2403999965172,Correct,sub_004_day_08_data.csv,1,300,78.0,Training at home,,,,,,,,,,,,,
4,9,1965,A,48.382045957156386,64.9452714822709,2.4191022978578194,1.020157938870485,A,1001.9195000058972,Correct,sub_004_day_08_data.csv,1,300,78.0,Training at home,,,,,,,,,,,,,
4,9,1966,B,62.51678480781889,34.39905356148186,3.125839240390944,0.5403390697959661,B,994.0515999915078,Correct,sub_004_day_08_data.csv,1,300,78.0,Training at home,,,,,,,,,,,,,
4,9,1967,B,46.21168319222093,27.058585931843805,2.3105841596110466,0.4250352739000431,B,824.610899988329,Correct,sub_004_day_08_data.csv,1,300,78.0,Training at home,,,,,,,,,,,,,
4,9,1968,A,15.138368050736538,37.438534392014816,0.756918402536827,0.5880831230356128,A,734.035400004359,Correct,sub_004_day_08_data.csv,1,300,78.0,Training at home,,,,,,,,,,,,,
4,9,1969,A,26.055323360933528,52.50879489900167,1.3027661680466764,0.8248062215177844,A,1281.639099994209,Correct,sub_004_day_08_data.csv,1,300,78.0,Training at home,,,,,,,,,,,,,
4,9,1970,A,37.22966716408897,53.2927738896149,1.8614833582044483,0.8371209347051805,A,674.5459999947343,Correct,sub_004_day_08_data.csv,1,300,78.0,Training at home,,,,,,,,,,,,,
4,9,1971,A,37.48566537196859,49.70879374323664,1.8742832685984296,0.7808239062128126,A,1092.9509999987204,Correct,sub_004_day_08_data.csv,1,300,78.0,Training at home,,,,,,,,,,,,,
4,9,1972,A,61.58000270804275,77.38744716910261,3.0790001354021377,1.215599177532605,A,1004.216000001179,Correct,sub_004_day_08_data.csv,1,300,78.0,Training at home,,,,,,,,,,,,,
4,9,1973,B,44.36160151194693,20.684002746764634,2.2180800755973467,0.3249035553803344,B,460.00370000547264,Correct,sub_004_day_08_data.csv,1,300,78.0,Training at home,,,,,,,,,,,,,
4,9,1974,B,46.29038017588248,34.98175745772282,2.3145190087941243,0.5494921611942098,B,899.4864999986021,Correct,sub_004_day_08_data.csv,1,300,78.0,Training at home,,,,,,,,,,,,,
4,9,1975,B,40.12198741583182,15.153502165762768,2.006099370791591,0.2380306554005866,B,546.65859999659,Correct,sub_004_day_08_data.csv,1,300,79.0,Training at home,,,,,,,,,,,,,
4,9,1976,A,15.189179334762674,38.54263032870172,0.7594589667381336,0.6054262214533824,A,943.4048999974038,Correct,sub_004_day_08_data.csv,1,300,79.0,Training at home,,,,,,,,,,,,,
4,9,1977,B,44.29568051062846,28.631489376217058,2.214784025531423,0.4497423834282885,B,651.1755000101402,Correct,sub_004_day_08_data.csv,1,300,79.0,Training at home,,,,,,,,,,,,,
4,9,1978,A,30.463420956112927,50.74957454424324,1.5231710478056464,0.7971724528050106,A,795.6078000133857,Correct,sub_004_day_08_data.csv,1,300,79.0,Training at home,,,,,,,,,,,,,
4,9,1979,A,39.82558292817031,59.95941057613397,1.991279146408516,0.941840218897783,A,1425.4260000016077,Correct,sub_004_day_08_data.csv,1,300,79.0,Training at home,,,,,,,,,,,,,
4,9,1980,B,52.89985493912468,30.26438250241405,2.644992746956234,0.4753918086750773,B,604.5408000063617,Correct,sub_004_day_08_data.csv,1,300,79.0,Training at home,,,,,,,,,,,,,
4,9,1981,B,55.57324390383749,29.77991850685883,2.7786621951918744,0.4677818660282521,B,971.3440000050468,Correct,sub_004_day_08_data.csv,1,300,79.0,Training at home,,,,,,,,,,,,,
4,9,1982,A,39.312728914466305,50.71146228199846,1.9656364457233153,0.7965737867896112,A,810.7464000058826,Correct,sub_004_day_08_data.csv,1,300,79.0,Training at home,,,,,,,,,,,,,
4,9,1983,B,77.52532557999949,61.70336708991492,3.8762662789999744,0.9692342237571544,B,529.8668999894289,Correct,sub_004_day_08_data.csv,1,300,79.0,Training at home,,,,,,,,,,,,,
4,9,1984,B,83.89976031270263,59.36261234213758,4.194988015635131,0.932465734159791,B,573.999799991725,Correct,sub_004_day_08_data.csv,1,300,79.0,Training at home,,,,,,,,,,,,,
4,9,1985,A,20.747907938773896,49.21751917117231,1.0373953969386946,0.7731069832803487,A,453.9511000039056,Correct,sub_004_day_08_data.csv,1,300,79.0,Training at home,,,,,,,,,,,,,
4,9,1986,B,38.5992993182108,29.45898692158093,1.92996496591054,0.4627406844751822,B,688.6418999929447,Correct,sub_004_day_08_data.csv,1,300,79.0,Training at home,,,,,,,,,,,,,
4,9,1987,A,18.05947850156711,39.18730924832238,0.9029739250783556,0.6155528142424047,A,511.85439999972,Correct,sub_004_day_08_data.csv,1,300,79.0,Training at home,,,,,,,,,,,,,
4,9,1988,A,16.429087347422346,43.73954659081753,0.8214543673711173,0.6870591912053042,A,461.3342999946326,Correct,sub_004_day_08_data.csv,1,300,79.0,Training at home,,,,,,,,,,,,,
4,9,1989,A,23.938554393414687,35.0133207986558,1.1969277196707344,0.5499879569941988,A,466.0073999984888,Correct,sub_004_day_08_data.csv,1,300,79.0,Training at home,,,,,,,,,,,,,
4,9,1990,A,62.89121115059717,80.0813129135001,3.144560557529859,1.2579143216943869,A,1049.7293999942483,Correct,sub_004_day_08_data.csv,1,300,79.0,Training at home,,,,,,,,,,,,,
4,9,1991,B,38.63033471536736,11.595555344912055,1.931516735768368,0.1821425574293479,B,509.8719999950845,Correct,sub_004_day_08_data.csv,1,300,79.0,Training at home,,,,,,,,,,,,,
4,9,1992,B,32.49450322476186,19.707018634120793,1.6247251612380926,0.3095571248255552,B,674.450499995146,Correct,sub_004_day_08_data.csv,1,300,79.0,Training at home,,,,,,,,,,,,,
4,9,1993,A,50.138471134174345,75.2218207112017,2.506923556708718,1.1815815966797991,A,1609.3920999992406,Correct,sub_004_day_08_data.csv,1,300,79.0,Training at home,,,,,,,,,,,,,
4,9,1994,A,40.120220729436944,49.636172968594835,2.0060110364718473,0.7796831817522492,A,990.6817000010052,Correct,sub_004_day_08_data.csv,1,300,79.0,Training at home,,,,,,,,,,,,,
4,9,1995,A,22.26793360456712,44.84907941999331,1.113396680228356,0.7044876921305809,A,499.8954000038794,Correct,sub_004_day_08_data.csv,1,300,79.0,Training at home,,,,,,,,,,,,,
4,9,1996,B,65.96450105345976,47.97130779244743,3.2982250526729877,0.7535315407192382,B,492.1238999959314,Correct,sub_004_day_08_data.csv,1,300,79.0,Training at home,,,,,,,,,,,,,
4,9,1997,A,16.121613583383457,30.97488440963179,0.8060806791691729,0.4865523465354612,A,486.8270000006305,Correct,sub_004_day_08_data.csv,1,300,79.0,Training at home,,,,,,,,,,,,,
4,9,1998,A,52.3994121428811,60.68908579229328,2.619970607144055,0.9533019303907464,A,1631.1974999989616,Correct,sub_004_day_08_data.csv,1,300,79.0,Training at home,,,,,,,,,,,,,
4,9,1999,B,43.34549077258592,28.965969351422412,2.167274538629296,0.4549963825926787,B,757.7679999958491,Correct,sub_004_day_08_data.csv,1,300,79.0,Training at home,,,,,,,,,,,,,
4,9,2000,B,47.0120343977889,32.03831464429635,2.350601719889445,0.5032566695995985,B,506.6274999990128,Correct,sub_004_day_08_data.csv,1,300,80.0,Training at home,,,,,,,,,,,,,
4,9,2001,B,65.14596286764693,41.35017732768147,3.2572981433823465,0.6495270665863967,B,654.9587000044994,Correct,sub_004_day_08_data.csv,1,300,80.0,Training at home,,,,,,,,,,,,,
4,9,2002,B,45.07214765381735,32.6650557024927,2.2536073826908676,0.5131014951202623,B,560.6201000045985,Correct,sub_004_day_08_data.csv,1,300,80.0,Training at home,,,,,,,,,,,,,
4,9,2003,A,38.54104350255669,48.62868631893714,1.9270521751278349,0.7638576184664772,A,1052.0320999930846,Correct,sub_004_day_08_data.csv,1,300,80.0,Training at home,,,,,,,,,,,,,
4,9,2004,A,33.62912798177152,51.168816739644086,1.6814563990885758,0.8037578938107414,A,697.3494999983814,Correct,sub_004_day_08_data.csv,1,300,80.0,Training at home,,,,,,,,,,,,,
4,9,2005,A,38.357966240473026,70.67886914945227,1.9178983120236512,1.1102210804197674,A,576.6372999933083,Correct,sub_004_day_08_data.csv,1,300,80.0,Training at home,,,,,,,,,,,,,
4,9,2006,A,66.33422899742833,85.4492932721855,3.3167114498714163,1.3422343599916888,A,589.6210999926552,Correct,sub_004_day_08_data.csv,1,300,80.0,Training at home,,,,,,,,,,,,,
4,9,2007,A,43.81899745410427,73.78013137470728,2.1909498727052137,1.158935593538351,A,1072.979500007932,Correct,sub_004_day_08_data.csv,1,300,80.0,Training at home,,,,,,,,,,,,,
4,9,2008,A,53.61607872147693,80.37447047055896,2.680803936073846,1.262519229832389,A,869.9998000083724,Correct,sub_004_day_08_data.csv,1,300,80.0,Training at home,,,,,,,,,,,,,
4,9,2009,B,63.18059827737727,50.7184235863394,3.1590299138688636,0.7966831347024956,A,1342.0380000025034,Incorrect,sub_004_day_08_data.csv,0,300,80.0,Training at home,,,,,,,,,,,,,
4,9,2010,B,59.76602691466107,32.94835485390338,2.9883013457330536,0.5175515477844623,B,450.4732999921543,Correct,sub_004_day_08_data.csv,1,300,80.0,Training at home,,,,,,,,,,,,,
4,9,2011,A,57.78268460131768,70.73232964947618,2.889134230065884,1.1110608359904297,B,1302.3096999968402,Incorrect,sub_004_day_08_data.csv,0,300,80.0,Training at home,,,,,,,,,,,,,
4,9,2012,B,63.952824401240136,53.72540730216132,3.197641220062007,0.8439167244579472,A,1081.287599998177,Incorrect,sub_004_day_08_data.csv,0,300,80.0,Training at home,,,,,,,,,,,,,
4,9,2013,A,39.726416514262,59.52273014027506,1.9863208257131,0.9349808586514794,A,633.8931000063894,Correct,sub_004_day_08_data.csv,1,300,80.0,Training at home,,,,,,,,,,,,,
4,9,2014,B,67.94379324847762,57.19127701370009,3.397189662423881,0.8983584785782949,B,657.3038999922574,Correct,sub_004_day_08_data.csv,1,300,80.0,Training at home,,,,,,,,,,,,,
4,9,2015,A,50.75682993209759,64.60316299421655,2.5378414966048792,1.0147841113064733,A,601.0049999895273,Correct,sub_004_day_08_data.csv,1,300,80.0,Training at home,,,,,,,,,,,,,
4,9,2016,B,51.20667922561597,22.18074064903038,2.560333961280798,0.3484142593708716,B,528.0924999970011,Correct,sub_004_day_08_data.csv,1,300,80.0,Training at home,,,,,,,,,,,,,
4,9,2017,A,62.20257537252768,86.87003425318657,3.110128768626384,1.364551307134523,A,717.3994999902789,Correct,sub_004_day_08_data.csv,1,300,80.0,Training at home,,,,,,,,,,,,,
4,9,2018,A,28.349870471148925,41.978568322461,1.4174935235574464,0.6593978092503033,A,972.4931999953697,Correct,sub_004_day_08_data.csv,1,300,80.0,Training at home,,,,,,,,,,,,,
4,9,2019,A,69.45633273927712,84.75860574394385,3.472816636963856,1.331385065668438,B,1181.170600000769,Incorrect,sub_004_day_08_data.csv,0,300,80.0,Training at home,,,,,,,,,,,,,
4,9,2020,A,47.29958345477328,68.96919961928083,2.364979172738664,1.083365654239503,A,906.3893999991706,Correct,sub_004_day_08_data.csv,1,300,80.0,Training at home,,,,,,,,,,,,,
4,9,2021,A,35.452917402139306,47.15887726545441,1.7726458701069652,0.7407699118434714,A,850.1290999993216,Correct,sub_004_day_08_data.csv,1,300,80.0,Training at home,,,,,,,,,,,,,
4,9,2022,B,39.021894611572705,21.37228685925039,1.951094730578635,0.3357150969371735,B,938.2233000069392,Correct,sub_004_day_08_data.csv,1,300,80.0,Training at home,,,,,,,,,,,,,
4,9,2023,A,20.899164000448152,49.39135793926321,1.0449582000224076,0.7758376362640661,A,619.0108000009786,Correct,sub_004_day_08_data.csv,1,300,80.0,Training at home,,,,,,,,,,,,,
4,9,2024,B,81.1937758717614,63.1046024616201,4.05968879358807,0.9912447775056504,B,751.7433000029996,Correct,sub_004_day_08_data.csv,1,300,80.0,Training at home,,,,,,,,,,,,,
4,9,2025,B,51.95046660378664,36.00556503587851,2.597523330189332,0.5655740930253274,B,953.9158000116004,Correct,sub_004_day_08_data.csv,1,300,81.0,Training at home,,,,,,,,,,,,,
4,9,2026,B,69.21995017421612,53.10558728272011,3.4609975087108062,0.8341806143598254,B,1253.1100999913178,Correct,sub_004_day_08_data.csv,1,300,81.0,Training at home,,,,,,,,,,,,,
4,9,2027,A,11.685845330287105,34.304451134126865,0.5842922665143553,0.538853058342015,A,498.788600001717,Correct,sub_004_day_08_data.csv,1,300,81.0,Training at home,,,,,,,,,,,,,
4,9,2028,A,43.95034707743364,67.73856721260597,2.197517353871682,1.0640349255991068,A,1192.8537000057986,Correct,sub_004_day_08_data.csv,1,300,81.0,Training at home,,,,,,,,,,,,,
4,9,2029,A,43.587081374762846,66.07730673762745,2.1793540687381423,1.037939907079649,A,518.902399999206,Correct,sub_004_day_08_data.csv,1,300,81.0,Training at home,,,,,,,,,,,,,
4,9,2030,A,12.203103082395783,33.06310543680164,0.6101551541197893,0.519354045725604,A,3444.5910999929765,Correct,sub_004_day_08_data.csv,1,300,81.0,Training at home,,,,,,,,,,,,,
4,9,2031,B,82.74632518197512,54.04471010066087,4.137316259098756,0.8489323210881315,B,2282.1107000054326,Correct,sub_004_day_08_data.csv,1,300,81.0,Training at home,,,,,,,,,,,,,
4,9,2032,B,79.48458315927209,53.60703982302459,3.9742291579636047,0.8420574124435477,B,640.8148000045912,Correct,sub_004_day_08_data.csv,1,300,81.0,Training at home,,,,,,,,,,,,,
4,9,2033,B,66.51563964748343,56.497339127672774,3.325781982374171,0.8874581277543399,B,592.0981000090251,Correct,sub_004_day_08_data.csv,1,300,81.0,Training at home,,,,,,,,,,,,,
4,9,2034,A,63.00517251305395,84.78010722842943,3.150258625652697,1.3317228101969445,A,1287.8548000007868,Correct,sub_004_day_08_data.csv,1,300,81.0,Training at home,,,,,,,,,,,,,
4,9,2035,B,83.19289337757587,68.25815723383946,4.159644668878793,1.072196626567035,B,1088.6367000057362,Correct,sub_004_day_08_data.csv,1,300,81.0,Training at home,,,,,,,,,,,,,
4,9,2036,A,53.72506017151356,61.46129138644941,2.686253008575678,0.9654317074990556,B,780.5867999995826,Incorrect,sub_004_day_08_data.csv,0,300,81.0,Training at home,,,,,,,,,,,,,
4,9,2037,B,44.37132755689095,14.834901399639502,2.2185663778445472,0.2330260862691819,B,476.58609999052715,Correct,sub_004_day_08_data.csv,1,300,81.0,Training at home,,,,,,,,,,,,,
4,9,2038,B,54.267678435789946,31.96592230839525,2.7133839217894975,0.5021195334463829,B,734.9505000020145,Correct,sub_004_day_08_data.csv,1,300,81.0,Training at home,,,,,,,,,,,,,
4,9,2039,B,54.898054563727904,24.148500805415544,2.7449027281863954,0.3793237636275034,B,463.60980000463314,Correct,sub_004_day_08_data.csv,1,300,81.0,Training at home,,,,,,,,,,,,,
4,9,2040,B,72.6017205197666,62.242025685781215,3.63008602598833,0.9776954531949876,B,603.970299998764,Correct,sub_004_day_08_data.csv,1,300,81.0,Training at home,,,,,,,,,,,,,
4,9,2041,A,33.40005327180192,60.21937582299434,1.6700026635900962,0.9459237434464092,A,809.600100008538,Correct,sub_004_day_08_data.csv,1,300,81.0,Training at home,,,,,,,,,,,,,
4,9,2042,B,47.42937364199783,27.050234724513977,2.3714686820998914,0.4249040934420632,B,752.5920000043698,Correct,sub_004_day_08_data.csv,1,300,81.0,Training at home,,,,,,,,,,,,,
4,9,2043,A,22.588624022200907,45.68983703499658,1.1294312011100454,0.7176942818643005,A,498.64489999890793,Correct,sub_004_day_08_data.csv,1,300,81.0,Training at home,,,,,,,,,,,,,
4,9,2044,B,76.58805004030417,56.950479469313805,3.829402502015208,0.894576039596063,B,528.4425999998348,Correct,sub_004_day_08_data.csv,1,300,81.0,Training at home,,,,,,,,,,,,,
4,9,2045,B,57.43887979372465,34.87974472983217,2.8719439896862324,0.5478897490116401,B,479.21980000683106,Correct,sub_004_day_08_data.csv,1,300,81.0,Training at home,,,,,,,,,,,,,
4,9,2046,B,74.25119152610131,62.227277741162126,3.7125595763050656,0.9774637930226328,B,695.6001999933505,Correct,sub_004_day_08_data.csv,1,300,81.0,Training at home,,,,,,,,,,,,,
4,9,2047,B,44.21969600983219,18.768507376554783,2.2109848004916097,0.2948150244651517,B,513.0640999996103,Correct,sub_004_day_08_data.csv,1,300,81.0,Training at home,,,,,,,,,,,,,
4,9,2048,B,51.530501716474234,22.44471689238996,2.576525085823712,0.3525607885051751,B,644.3396999966353,Correct,sub_004_day_08_data.csv,1,300,81.0,Training at home,,,,,,,,,,,,,
4,9,2049,A,36.58419118736701,55.47275383159592,1.8292095593683504,0.8713639795586842,A,680.1604000065709,Correct,sub_004_day_08_data.csv,1,300,81.0,Training at home,,,,,,,,,,,,,
4,9,2050,B,88.08746636916422,68.90970498280043,4.404373318458211,1.0824311146750292,B,529.1660999937449,Correct,sub_004_day_08_data.csv,1,300,82.0,Training at home,,,,,,,,,,,,,
4,9,2051,A,57.14209796643793,81.70024562976532,2.8571048983218965,1.2833444573347614,A,1015.5801000073552,Correct,sub_004_day_08_data.csv,1,300,82.0,Training at home,,,,,,,,,,,,,
4,9,2052,A,66.38099318795942,80.70607759848238,3.3190496593979706,1.2677281024172002,A,522.7722999989055,Correct,sub_004_day_08_data.csv,1,300,82.0,Training at home,,,,,,,,,,,,,
4,9,2053,B,51.94782752659077,31.19113129831229,2.597391376329538,0.4899491447196627,B,781.7190999921877,Correct,sub_004_day_08_data.csv,1,300,82.0,Training at home,,,,,,,,,,,,,
4,9,2054,B,44.05881709996213,32.141206494742015,2.2029408549981064,0.5048728910069702,B,500.645699998131,Correct,sub_004_day_08_data.csv,1,300,82.0,Training at home,,,,,,,,,,,,,
4,9,2055,B,67.10202228649987,45.8273260115505,3.355101114324994,0.7198539536577573,B,662.3527000047034,Correct,sub_004_day_08_data.csv,1,300,82.0,Training at home,,,,,,,,,,,,,
4,9,2056,A,43.6027716769242,65.40807830254643,2.18013858384621,1.027427691403529,A,824.3540000112262,Correct,sub_004_day_08_data.csv,1,300,82.0,Training at home,,,,,,,,,,,,,
4,9,2057,A,49.986580117621514,75.54700254884665,2.4993290058810755,1.1866895410409302,A,660.963799993624,Correct,sub_004_day_08_data.csv,1,300,82.0,Training at home,,,,,,,,,,,,,
4,9,2058,A,63.05174049002989,81.89901995144257,3.152587024501494,1.2864667970782793,A,592.0322999882046,Correct,sub_004_day_08_data.csv,1,300,82.0,Training at home,,,,,,,,,,,,,
4,9,2059,B,70.54642880702103,53.202252599933715,3.5273214403510513,0.8356990296119011,B,552.7194000023883,Correct,sub_004_day_08_data.csv,1,300,82.0,Training at home,,,,,,,,,,,,,
4,9,2060,B,71.70739492693885,41.121814232218014,3.585369746346942,0.6459399474711015,B,934.3994000082604,Correct,sub_004_day_08_data.csv,1,300,82.0,Training at home,,,,,,,,,,,,,
4,9,2061,A,25.570801288317437,36.48103675807829,1.278540064415872,0.5730427853725897,A,502.3488000006182,Correct,sub_004_day_08_data.csv,1,300,82.0,Training at home,,,,,,,,,,,,,
4,9,2062,B,62.841813746874145,39.71361236796907,3.142090687343707,0.6238199643136219,B,867.5718000013148,Correct,sub_004_day_08_data.csv,1,300,82.0,Training at home,,,,,,,,,,,,,
4,9,2063,B,75.65106254981218,45.34614995361815,3.7825531274906097,0.7122956578143397,B,551.8695000064326,Correct,sub_004_day_08_data.csv,1,300,82.0,Training at home,,,,,,,,,,,,,
4,9,2064,A,50.61319989924608,73.0740285050888,2.530659994962304,1.147844155598991,A,904.1525000066032,Correct,sub_004_day_08_data.csv,1,300,82.0,Training at home,,,,,,,,,,,,,
4,9,2065,B,59.84283491193706,38.63446860840304,2.9921417455968533,0.6068688137775223,B,704.9371000030078,Correct,sub_004_day_08_data.csv,1,300,82.0,Training at home,,,,,,,,,,,,,
4,9,2066,B,49.27245967371994,36.31995129718923,2.463622983685997,0.5705124608699438,B,476.6256000002614,Correct,sub_004_day_08_data.csv,1,300,82.0,Training at home,,,,,,,,,,,,,
4,9,2067,A,65.97151031167472,76.93374024753061,3.2985755155837357,1.208472365874138,B,2104.560899999342,Incorrect,sub_004_day_08_data.csv,0,300,82.0,Training at home,,,,,,,,,,,,,
4,9,2068,A,48.52656986507771,62.817786330961106,2.4263284932538856,0.9867394802606037,B,1256.092900002841,Incorrect,sub_004_day_08_data.csv,0,300,82.0,Training at home,,,,,,,,,,,,,
4,9,2069,A,10.89028443549892,32.54530645581511,0.544514221774946,0.5112204783520861,A,569.1797000035876,Correct,sub_004_day_08_data.csv,1,300,82.0,Training at home,,,,,,,,,,,,,
4,9,2070,A,21.79450582135457,36.90877261850043,1.0897252910677282,0.5797616445564854,A,517.3834000015631,Correct,sub_004_day_08_data.csv,1,300,82.0,Training at home,,,,,,,,,,,,,
4,9,2071,B,35.731820640047076,17.074938664636807,1.786591032002354,0.2682125093465965,B,668.755400009104,Correct,sub_004_day_08_data.csv,1,300,82.0,Training at home,,,,,,,,,,,,,
4,9,2072,A,35.62501115123771,50.76784758469265,1.7812505575618856,0.7974594850531838,A,1036.8053000129294,Correct,sub_004_day_08_data.csv,1,300,82.0,Training at home,,,,,,,,,,,,,
4,9,2073,B,47.139872483387265,30.065019842372255,2.356993624169363,0.4722602273341402,B,871.8367999972543,Correct,sub_004_day_08_data.csv,1,300,82.0,Training at home,,,,,,,,,,,,,
4,9,2074,A,26.082203617285167,45.73466531739094,1.3041101808642583,0.7183984428775165,A,1483.57899999246,Correct,sub_004_day_08_data.csv,1,300,82.0,Training at home,,,,,,,,,,,,,
4,9,2075,B,48.620646825411704,25.14443750361936,2.431032341270585,0.3949679007000913,B,922.872399998596,Correct,sub_004_day_08_data.csv,1,300,83.0,Training at home,,,,,,,,,,,,,
4,9,2076,A,18.32338672756608,37.16114910996578,0.916169336378304,0.5837259652141168,A,650.3552999929525,Correct,sub_004_day_08_data.csv,1,300,83.0,Training at home,,,,,,,,,,,,,
4,9,2077,B,46.29701769902195,23.64184088798395,2.3148508849510976,0.3713651682551459,B,999.8291000083556,Correct,sub_004_day_08_data.csv,1,300,83.0,Training at home,,,,,,,,,,,,,
4,9,2078,B,70.37955705082976,43.31616236920898,3.518977852541488,0.6804086874040479,B,588.0879999895114,Correct,sub_004_day_08_data.csv,1,300,83.0,Training at home,,,,,,,,,,,,,
4,9,2079,A,11.222217013041078,32.24049169370802,0.5611108506520539,0.5064324592653794,A,463.4627999912482,Correct,sub_004_day_08_data.csv,1,300,83.0,Training at home,,,,,,,,,,,,,
4,9,2080,A,34.16021279154508,53.32892807918048,1.708010639577254,0.8376888433868591,A,713.3698999969056,Correct,sub_004_day_08_data.csv,1,300,83.0,Training at home,,,,,,,,,,,,,
4,9,2081,B,75.7466036463795,48.120166999335055,3.7873301823189753,0.7558698156731251,B,650.9427999990294,Correct,sub_004_day_08_data.csv,1,300,83.0,Training at home,,,,,,,,,,,,,
4,9,2082,B,60.18138114822752,51.45322333596173,3.009069057411375,0.8082253421788615,B,548.4785000007832,Correct,sub_004_day_08_data.csv,1,300,83.0,Training at home,,,,,,,,,,,,,
4,9,2083,A,60.872795543973446,80.8381086875273,3.0436397771986723,1.2698020419141447,A,528.6610000039218,Correct,sub_004_day_08_data.csv,1,300,83.0,Training at home,,,,,,,,,,,,,
4,9,2084,A,54.11561686838236,67.59053835455664,2.705780843419118,1.0617096937342714,B,1264.0124000026844,Incorrect,sub_004_day_08_data.csv,0,300,83.0,Training at home,,,,,,,,,,,,,
4,9,2085,A,64.64638341249359,83.79547104706725,3.2323191706246797,1.3162561812278133,A,633.1476000050316,Correct,sub_004_day_08_data.csv,1,300,83.0,Training at home,,,,,,,,,,,,,
4,9,2086,A,51.89306494643135,59.959248871621135,2.594653247321568,0.9418376788492352,A,450.7294000068214,Correct,sub_004_day_08_data.csv,1,300,83.0,Training at home,,,,,,,,,,,,,
4,9,2087,A,21.029068196177647,35.75836758452176,1.0514534098088824,0.5616911245394848,B,539.4326999958139,Incorrect,sub_004_day_08_data.csv,0,300,83.0,Training at home,,,,,,,,,,,,,
4,9,2088,B,54.41643751856932,26.64033412930992,2.720821875928466,0.4184653899490875,B,524.6583999978611,Correct,sub_004_day_08_data.csv,1,300,83.0,Training at home,,,,,,,,,,,,,
4,9,2089,A,47.70257530177327,63.96281938661403,2.385128765088663,1.0047256174393873,A,784.7850999969523,Correct,sub_004_day_08_data.csv,1,300,83.0,Training at home,,,,,,,,,,,,,
4,9,2090,A,50.89677121218219,62.26128668342358,2.5448385606091093,0.9779980042384576,A,766.405800008215,Correct,sub_004_day_08_data.csv,1,300,83.0,Training at home,,,,,,,,,,,,,
4,9,2091,B,39.01839909697764,15.278176837357137,1.950919954848882,0.2399890405624345,B,625.9667999984231,Correct,sub_004_day_08_data.csv,1,300,83.0,Training at home,,,,,,,,,,,,,
4,9,2092,B,78.70382181063768,57.73138363616096,3.935191090531884,0.9068424535646864,B,997.2961000021314,Correct,sub_004_day_08_data.csv,1,300,83.0,Training at home,,,,,,,,,,,,,
4,9,2093,B,60.5541103404176,33.00981115614098,3.0277055170208804,0.5185169011225944,B,683.2658000057563,Correct,sub_004_day_08_data.csv,1,300,83.0,Training at home,,,,,,,,,,,,,
4,9,2094,B,72.75942867982585,51.78826496661185,3.637971433991293,0.8134881638063473,B,477.16910000599455,Correct,sub_004_day_08_data.csv,1,300,83.0,Training at home,,,,,,,,,,,,,
4,9,2095,A,44.795568397165056,65.82669196513451,2.239778419858253,1.0340032594389243,B,803.6992999986978,Incorrect,sub_004_day_08_data.csv,0,300,83.0,Training at home,,,,,,,,,,,,,
4,9,2096,A,52.596873252962354,79.79144090292714,2.629843662648118,1.2533610227999004,A,534.814999991795,Correct,sub_004_day_08_data.csv,1,300,83.0,Training at home,,,,,,,,,,,,,
4,9,2097,B,63.69671710082274,52.97339259439286,3.184835855041137,0.832104105051363,A,908.1276999932016,Incorrect,sub_004_day_08_data.csv,0,300,83.0,Training at home,,,,,,,,,,,,,
4,9,2098,B,56.7362072829637,41.49132000553829,2.8368103641481848,0.6517441305857116,A,659.0800999983912,Incorrect,sub_004_day_08_data.csv,0,300,83.0,Training at home,,,,,,,,,,,,,
4,9,2099,B,37.05325488795574,19.574504848856385,1.852662744397787,0.307475603154125,B,686.9039999874076,Correct,sub_004_day_08_data.csv,1,300,83.0,Training at home,,,,,,,,,,,,,
