subject,day,trial,cat,x,y,xt,yt,resp,rt,fb,f_name,acc,n_trials,block,session_type,ns_left_digit,ns_right_digit,ns_left_size,ns_right_size,ns_congruent,ns_cue,ns_correct_side,ns_resp,ns_rt,ns_fb,acc_stroop,acc_stroop_mean,resp_key
4,2,0,B,64.31749226053796,33.07954701907277,3.215874613026898,0.5196123094959858,B,691.4161000167951,Correct,sub_004_day_02_data.csv,1,300,0.0,Training at home,,,,,,,,,,,,,
4,2,1,B,87.99308036168378,68.73436942675995,4.399654018084189,1.0796769502011798,B,634.7777000628412,Correct,sub_004_day_02_data.csv,1,300,0.0,Training at home,,,,,,,,,,,,,
4,2,2,A,45.06887393146376,72.27717539449614,2.253443696573188,1.1353272162078505,A,578.8400999736041,Correct,sub_004_day_02_data.csv,1,300,0.0,Training at home,,,,,,,,,,,,,
4,2,3,B,47.97040949657736,19.38929519407604,2.398520474828868,0.3045663366999658,B,702.3654000367969,Correct,sub_004_day_02_data.csv,1,300,0.0,Training at home,,,,,,,,,,,,,
4,2,4,A,45.07861968198931,60.17728008871325,2.2539309840994655,0.9452625051985843,A,896.7147000366822,Correct,sub_004_day_02_data.csv,1,300,0.0,Training at home,,,,,,,,,,,,,
4,2,5,A,27.5900421017231,41.34145197203226,1.379502105086155,0.6493900090203591,A,633.0298000248149,Correct,sub_004_day_02_data.csv,1,300,0.0,Training at home,,,,,,,,,,,,,
4,2,6,B,60.02422357173257,34.85941155262417,3.001211178586628,0.5475703562109362,B,780.017799930647,Correct,sub_004_day_02_data.csv,1,300,0.0,Training at home,,,,,,,,,,,,,
4,2,7,B,44.30302216815015,31.94151386924087,2.2151511084075075,0.501736126580718,B,1070.0251000234855,Correct,sub_004_day_02_data.csv,1,300,0.0,Training at home,,,,,,,,,,,,,
4,2,8,A,59.57710494401842,69.7962513487376,2.9788552472009213,1.0963569524265036,B,1158.386699971743,Incorrect,sub_004_day_02_data.csv,0,300,0.0,Training at home,,,,,,,,,,,,,
4,2,9,B,53.52610128059134,34.19911093232059,2.676305064029567,0.5371983783214038,B,1178.220900008455,Correct,sub_004_day_02_data.csv,1,300,0.0,Training at home,,,,,,,,,,,,,
4,2,10,B,38.48759738605415,29.053614389120657,1.9243798693027072,0.4563731076254608,A,845.0065000215545,Incorrect,sub_004_day_02_data.csv,0,300,0.0,Training at home,,,,,,,,,,,,,
4,2,11,B,70.58796255655878,53.08560209235099,3.5293981278279385,0.8338666877236042,B,772.5185999879614,Correct,sub_004_day_02_data.csv,1,300,0.0,Training at home,,,,,,,,,,,,,
4,2,12,A,42.54182205294362,50.11186440895959,2.127091102647181,0.7871553254243763,A,1111.9077000766993,Correct,sub_004_day_02_data.csv,1,300,0.0,Training at home,,,,,,,,,,,,,
4,2,13,B,50.42562448349431,37.8675982251913,2.521281224174716,0.5948228419667544,B,1894.889199989848,Correct,sub_004_day_02_data.csv,1,300,0.0,Training at home,,,,,,,,,,,,,
4,2,14,A,41.132348053334034,50.01275629112154,2.0566174026667015,0.7855985387498208,A,640.5626999912784,Correct,sub_004_day_02_data.csv,1,300,0.0,Training at home,,,,,,,,,,,,,
4,2,15,B,53.184082206327965,36.59740892393822,2.6592041103163986,0.5748707550793293,B,1029.9498999956995,Correct,sub_004_day_02_data.csv,1,300,0.0,Training at home,,,,,,,,,,,,,
4,2,16,A,57.73040201887945,84.59485876699557,2.8865201009439727,1.328812934169297,B,921.9682000111789,Incorrect,sub_004_day_02_data.csv,0,300,0.0,Training at home,,,,,,,,,,,,,
4,2,17,A,43.770788362600705,66.4749770934605,2.1885394181300355,1.0441864984218263,A,1971.0981999523935,Correct,sub_004_day_02_data.csv,1,300,0.0,Training at home,,,,,,,,,,,,,
4,2,18,A,30.210361974240783,48.00549429034362,1.5105180987120392,0.7540685409724515,A,628.4959999611601,Correct,sub_004_day_02_data.csv,1,300,0.0,Training at home,,,,,,,,,,,,,
4,2,19,B,57.544393540906576,43.989491032399584,2.8772196770453284,0.6909853093127031,B,756.0010999441147,Correct,sub_004_day_02_data.csv,1,300,0.0,Training at home,,,,,,,,,,,,,
4,2,20,A,52.93876081378446,78.94020704254095,2.646938040689223,1.2399898725885197,A,820.7802000688389,Correct,sub_004_day_02_data.csv,1,300,0.0,Training at home,,,,,,,,,,,,,
4,2,21,A,34.67215321566084,67.95321141138639,1.7336076607830422,1.067406548789228,A,543.6584999551997,Correct,sub_004_day_02_data.csv,1,300,0.0,Training at home,,,,,,,,,,,,,
4,2,22,B,53.04684141164943,41.8563464191932,2.6523420705824714,0.657477952083234,B,777.054600068368,Correct,sub_004_day_02_data.csv,1,300,0.0,Training at home,,,,,,,,,,,,,
4,2,23,B,42.56023556637396,20.76424847809378,2.1280117783186983,0.3261640523804623,B,662.9889999749139,Correct,sub_004_day_02_data.csv,1,300,0.0,Training at home,,,,,,,,,,,,,
4,2,24,B,64.49464977728378,49.566240544177795,3.224732488864189,0.7785846857982677,B,578.4332000184804,Correct,sub_004_day_02_data.csv,1,300,0.0,Training at home,,,,,,,,,,,,,
4,2,25,A,25.979753914315875,57.15770863516725,1.2989876957157938,0.8978311877213367,A,503.876099945046,Correct,sub_004_day_02_data.csv,1,300,1.0,Training at home,,,,,,,,,,,,,
4,2,26,B,67.84856594145529,46.89987816139923,3.3924282970727644,0.7367015634305412,B,540.4345999704674,Correct,sub_004_day_02_data.csv,1,300,1.0,Training at home,,,,,,,,,,,,,
4,2,27,A,51.36478703138879,66.84466130213737,2.5682393515694395,1.0499934843924634,A,1183.451300021261,Correct,sub_004_day_02_data.csv,1,300,1.0,Training at home,,,,,,,,,,,,,
4,2,28,A,29.974640848157023,59.31204017078526,1.4987320424078512,0.9316713483498084,A,1503.1727000605315,Correct,sub_004_day_02_data.csv,1,300,1.0,Training at home,,,,,,,,,,,,,
4,2,29,A,57.10424319666886,66.10726179474887,2.855212159833443,1.0384104400166012,A,1575.945100048557,Correct,sub_004_day_02_data.csv,1,300,1.0,Training at home,,,,,,,,,,,,,
4,2,30,B,61.80759641762508,51.62261909206515,3.0903798208812536,0.8108862044934804,B,1632.2916999924928,Correct,sub_004_day_02_data.csv,1,300,1.0,Training at home,,,,,,,,,,,,,
4,2,31,A,37.877447464159594,57.882312990240045,1.8938723732079796,0.909213246314616,A,738.6545999906957,Correct,sub_004_day_02_data.csv,1,300,1.0,Training at home,,,,,,,,,,,,,
4,2,32,B,77.49643644874232,48.074990150549475,3.874821822437115,0.7551601793918395,B,567.8666000021622,Correct,sub_004_day_02_data.csv,1,300,1.0,Training at home,,,,,,,,,,,,,
4,2,33,B,74.14106078151553,60.91057794817266,3.707053039075777,0.9567811210394384,B,362.67040006350726,Correct,sub_004_day_02_data.csv,1,300,1.0,Training at home,,,,,,,,,,,,,
4,2,34,B,66.16823461380241,55.29667542279252,3.3084117306901204,0.8685981463809211,B,503.80359997507185,Correct,sub_004_day_02_data.csv,1,300,1.0,Training at home,,,,,,,,,,,,,
4,2,35,B,30.95071569311838,13.770010549079457,1.5475357846559188,0.2162988199042098,A,488.76690003089607,Incorrect,sub_004_day_02_data.csv,0,300,1.0,Training at home,,,,,,,,,,,,,
4,2,36,A,17.67008572810424,31.767900458867693,0.8835042864052121,0.4990090135077528,A,554.507500026375,Correct,sub_004_day_02_data.csv,1,300,1.0,Training at home,,,,,,,,,,,,,
4,2,37,A,36.30748388698793,66.96029899842247,1.8153741943493968,1.0518099170781,A,570.3534999629483,Correct,sub_004_day_02_data.csv,1,300,1.0,Training at home,,,,,,,,,,,,,
4,2,38,B,33.31341932553043,14.220275174621626,1.6656709662765217,0.223371560103083,B,602.8717000735924,Correct,sub_004_day_02_data.csv,1,300,1.0,Training at home,,,,,,,,,,,,,
4,2,39,B,39.4787553736529,30.07045324905995,1.9739377686826451,0.4723455750868102,B,869.636100018397,Correct,sub_004_day_02_data.csv,1,300,1.0,Training at home,,,,,,,,,,,,,
4,2,40,A,67.61547470057896,89.68788972719778,3.3807737350289475,1.4088140774146802,B,1270.622199983336,Incorrect,sub_004_day_02_data.csv,0,300,1.0,Training at home,,,,,,,,,,,,,
4,2,41,B,59.45430899751272,34.45943744897188,2.972715449875636,0.5412875776826354,B,679.6545999823138,Correct,sub_004_day_02_data.csv,1,300,1.0,Training at home,,,,,,,,,,,,,
4,2,42,A,23.25469917008681,52.47390042087089,1.1627349585043405,0.8242581003370517,A,703.930199961178,Correct,sub_004_day_02_data.csv,1,300,1.0,Training at home,,,,,,,,,,,,,
4,2,43,B,44.15581954473956,18.87118361610685,2.2077909772369777,0.2964278590645267,B,672.1080000279471,Correct,sub_004_day_02_data.csv,1,300,1.0,Training at home,,,,,,,,,,,,,
4,2,44,B,53.59877573190511,23.3506470227592,2.6799387865952555,0.3667911057163434,B,436.6893999977038,Correct,sub_004_day_02_data.csv,1,300,1.0,Training at home,,,,,,,,,,,,,
4,2,45,A,23.346343135833777,43.163347538062766,1.167317156791689,0.6780082776496054,A,399.90790002048016,Correct,sub_004_day_02_data.csv,1,300,1.0,Training at home,,,,,,,,,,,,,
4,2,46,A,39.43448188065067,54.95066525532883,1.9717240940325336,0.863163031380065,A,497.8991999523714,Correct,sub_004_day_02_data.csv,1,300,1.0,Training at home,,,,,,,,,,,,,
4,2,47,B,48.77407224367046,32.886531076991226,2.438703612183523,0.5165804221676403,B,847.5528999697417,Correct,sub_004_day_02_data.csv,1,300,1.0,Training at home,,,,,,,,,,,,,
4,2,48,A,47.66260576681789,55.905321295567546,2.3831302883408942,0.8781587333936602,A,668.6494000023231,Correct,sub_004_day_02_data.csv,1,300,1.0,Training at home,,,,,,,,,,,,,
4,2,49,B,57.53995176123572,45.67775113579153,2.8769975880617857,0.7175044370035276,A,930.757399997674,Incorrect,sub_004_day_02_data.csv,0,300,1.0,Training at home,,,,,,,,,,,,,
4,2,50,B,66.53188886555077,37.35623005881439,3.3265944432775383,0.5867902895929075,B,594.3691999418661,Correct,sub_004_day_02_data.csv,1,300,2.0,Training at home,,,,,,,,,,,,,
4,2,51,A,51.16620439677192,81.06686858304283,2.5583102198385963,1.2733953939500828,A,732.8050999203697,Correct,sub_004_day_02_data.csv,1,300,2.0,Training at home,,,,,,,,,,,,,
4,2,52,A,63.606232023252765,85.33735065115414,3.1803116011626384,1.3404759694124098,B,659.9084000336006,Incorrect,sub_004_day_02_data.csv,0,300,2.0,Training at home,,,,,,,,,,,,,
4,2,53,B,63.421260099844815,53.8297377308307,3.1710630049922406,0.8455555429992152,B,658.373299986124,Correct,sub_004_day_02_data.csv,1,300,2.0,Training at home,,,,,,,,,,,,,
4,2,54,B,45.05661790847484,24.17154193297156,2.252830895423742,0.3796856928128054,B,666.9832000043243,Correct,sub_004_day_02_data.csv,1,300,2.0,Training at home,,,,,,,,,,,,,
4,2,55,B,36.55155907213877,12.66919151417368,1.8275779536069388,0.1990071949392509,B,830.2070999052376,Correct,sub_004_day_02_data.csv,1,300,2.0,Training at home,,,,,,,,,,,,,
4,2,56,B,51.69712020580521,44.2032366956185,2.5848560102902605,0.6943428183392292,A,1023.6309000756592,Incorrect,sub_004_day_02_data.csv,0,300,2.0,Training at home,,,,,,,,,,,,,
4,2,57,A,57.368078859645195,78.98222687271812,2.86840394298226,1.2406499185374678,A,1497.7704000193626,Correct,sub_004_day_02_data.csv,1,300,2.0,Training at home,,,,,,,,,,,,,
4,2,58,B,60.13159166317123,46.68121611590011,3.0065795831585613,0.7332668280517463,B,676.153099979274,Correct,sub_004_day_02_data.csv,1,300,2.0,Training at home,,,,,,,,,,,,,
4,2,59,A,24.19279477910775,46.975859945554625,1.2096397389553877,0.7378950825050873,A,1092.354999971576,Correct,sub_004_day_02_data.csv,1,300,2.0,Training at home,,,,,,,,,,,,,
4,2,60,A,20.647080473535315,49.106067007073534,1.0323540236767657,0.7713562967805518,A,504.6316999942064,Correct,sub_004_day_02_data.csv,1,300,2.0,Training at home,,,,,,,,,,,,,
4,2,61,B,39.84487046252403,29.650456020226827,1.9922435231262017,0.4657482740436592,B,967.3687999602408,Correct,sub_004_day_02_data.csv,1,300,2.0,Training at home,,,,,,,,,,,,,
4,2,62,B,67.21725073553121,51.06863905407131,3.36086253677656,0.8021843064054961,B,626.9056999590248,Correct,sub_004_day_02_data.csv,1,300,2.0,Training at home,,,,,,,,,,,,,
4,2,63,A,45.048037738234015,68.39424433815873,2.252401886911701,1.074334277802924,A,1647.9096000548452,Correct,sub_004_day_02_data.csv,1,300,2.0,Training at home,,,,,,,,,,,,,
4,2,64,A,24.639829463508732,46.238174456953075,1.231991473175437,0.7263075459468351,A,486.8758999509737,Correct,sub_004_day_02_data.csv,1,300,2.0,Training at home,,,,,,,,,,,,,
4,2,65,B,73.67262566225673,40.79214950952202,3.683631283112837,0.6407615861162543,B,541.4437999716029,Correct,sub_004_day_02_data.csv,1,300,2.0,Training at home,,,,,,,,,,,,,
4,2,66,A,30.017456473854928,44.973464698718146,1.5008728236927464,0.7064415315198641,A,472.7453000377864,Correct,sub_004_day_02_data.csv,1,300,2.0,Training at home,,,,,,,,,,,,,
4,2,67,B,56.29528990874997,43.268197715382115,2.814764495437499,0.6796552603835756,A,1027.2117999847978,Incorrect,sub_004_day_02_data.csv,0,300,2.0,Training at home,,,,,,,,,,,,,
4,2,68,A,49.67252775063305,73.21457590400513,2.483626387531652,1.150051868978574,A,802.5178998941556,Correct,sub_004_day_02_data.csv,1,300,2.0,Training at home,,,,,,,,,,,,,
4,2,69,A,37.00368219077337,50.89616133454534,1.8501841095386684,0.7994750327226425,A,521.6967999003828,Correct,sub_004_day_02_data.csv,1,300,2.0,Training at home,,,,,,,,,,,,,
4,2,70,B,86.82027006720637,62.86048437015749,4.341013503360318,0.987410179491914,B,524.4046000298113,Correct,sub_004_day_02_data.csv,1,300,2.0,Training at home,,,,,,,,,,,,,
4,2,71,A,44.02162509635545,56.29227988126852,2.2010812548177725,0.8842370646440684,A,574.0744000067934,Correct,sub_004_day_02_data.csv,1,300,2.0,Training at home,,,,,,,,,,,,,
4,2,72,A,36.66973989358633,52.500338043463515,1.8334869946793164,0.8246733815416287,A,519.8680999455974,Correct,sub_004_day_02_data.csv,1,300,2.0,Training at home,,,,,,,,,,,,,
4,2,73,A,19.66793841360318,32.29882140058566,0.983396920680159,0.5073487001584436,B,882.1259000105783,Incorrect,sub_004_day_02_data.csv,0,300,2.0,Training at home,,,,,,,,,,,,,
4,2,74,B,50.48658054643856,23.827981875098164,2.524329027321928,0.3742890640433956,B,775.3194000106305,Correct,sub_004_day_02_data.csv,1,300,2.0,Training at home,,,,,,,,,,,,,
4,2,75,B,41.741627034171955,17.892642868934853,2.0870813517085978,0.2810569769517577,B,705.3444000193849,Correct,sub_004_day_02_data.csv,1,300,3.0,Training at home,,,,,,,,,,,,,
4,2,76,B,56.45616439128556,47.424110249166674,2.822808219564278,0.7449361818090722,B,858.3210000069812,Correct,sub_004_day_02_data.csv,1,300,3.0,Training at home,,,,,,,,,,,,,
4,2,77,B,51.55187767805535,42.13921490743378,2.5775938839027672,0.6619212399061773,B,577.5091999676079,Correct,sub_004_day_02_data.csv,1,300,3.0,Training at home,,,,,,,,,,,,,
4,2,78,B,43.8328776118359,23.768662557267707,2.191643880591795,0.373357278377835,B,666.4566000690684,Correct,sub_004_day_02_data.csv,1,300,3.0,Training at home,,,,,,,,,,,,,
4,2,79,A,46.8535162203749,69.04150081648106,2.342675811018745,1.084501358789353,A,983.3341999910772,Correct,sub_004_day_02_data.csv,1,300,3.0,Training at home,,,,,,,,,,,,,
4,2,80,B,75.66840224943769,43.69994536907629,3.7834201124718847,0.6864371366688269,B,638.790600001812,Correct,sub_004_day_02_data.csv,1,300,3.0,Training at home,,,,,,,,,,,,,
4,2,81,A,49.33367353576782,76.02980508672681,2.466683676788391,1.194273385571624,B,680.2918999455869,Incorrect,sub_004_day_02_data.csv,0,300,3.0,Training at home,,,,,,,,,,,,,
4,2,82,B,55.97483627270902,34.76597357160992,2.798741813635451,0.5461026358373331,B,1013.356399955228,Correct,sub_004_day_02_data.csv,1,300,3.0,Training at home,,,,,,,,,,,,,
4,2,83,B,33.42389921700014,21.49106895079122,1.6711949608500072,0.337580921667987,A,843.6340999323875,Incorrect,sub_004_day_02_data.csv,0,300,3.0,Training at home,,,,,,,,,,,,,
4,2,84,B,35.952030759903536,18.715202243275534,1.7976015379951769,0.2939777093896081,B,624.0434000501409,Correct,sub_004_day_02_data.csv,1,300,3.0,Training at home,,,,,,,,,,,,,
4,2,85,B,41.13831698024459,19.998064652870543,2.05691584901223,0.314128864997359,B,567.2131000319496,Correct,sub_004_day_02_data.csv,1,300,3.0,Training at home,,,,,,,,,,,,,
4,2,86,A,34.72153419800222,55.56990160918341,1.7360767099001109,0.872889973280591,A,570.945700048469,Correct,sub_004_day_02_data.csv,1,300,3.0,Training at home,,,,,,,,,,,,,
4,2,87,B,54.16636592416131,32.47964730117721,2.7083182962080654,0.5101891067628294,B,782.1581000462174,Correct,sub_004_day_02_data.csv,1,300,3.0,Training at home,,,,,,,,,,,,,
4,2,88,A,35.54687028845329,43.23715683483745,1.7773435144226648,0.6791676713721752,A,933.8390999473633,Correct,sub_004_day_02_data.csv,1,300,3.0,Training at home,,,,,,,,,,,,,
4,2,89,A,54.85909971515519,62.03586919724946,2.742954985757759,0.9744571546456812,A,1604.907099972479,Correct,sub_004_day_02_data.csv,1,300,3.0,Training at home,,,,,,,,,,,,,
4,2,90,B,71.99590017073604,59.41962915772375,3.599795008536802,0.933361352204674,B,694.895299966447,Correct,sub_004_day_02_data.csv,1,300,3.0,Training at home,,,,,,,,,,,,,
4,2,91,A,37.13861513282489,49.746167052246854,1.8569307566412443,0.7814109647779465,A,486.6943000815809,Correct,sub_004_day_02_data.csv,1,300,3.0,Training at home,,,,,,,,,,,,,
4,2,92,A,25.49171477788188,37.934460798406015,1.274585738894094,0.5958731168108116,A,609.3106999760494,Correct,sub_004_day_02_data.csv,1,300,3.0,Training at home,,,,,,,,,,,,,
4,2,93,B,38.267547381251546,11.94884166650262,1.9133773690625773,0.1876919659919612,B,584.6946999663487,Correct,sub_004_day_02_data.csv,1,300,3.0,Training at home,,,,,,,,,,,,,
4,2,94,A,15.871678977904672,39.89695297324963,0.7935839488952336,0.6266998718068925,A,948.5874000238256,Correct,sub_004_day_02_data.csv,1,300,3.0,Training at home,,,,,,,,,,,,,
4,2,95,A,11.7954814773159,36.638846627633455,0.5897740738657951,0.5755216570068822,A,592.1243000775576,Correct,sub_004_day_02_data.csv,1,300,3.0,Training at home,,,,,,,,,,,,,
4,2,96,A,34.72653681334615,67.11728250329678,1.7363268406673074,1.0542758082063397,A,776.8956000218168,Correct,sub_004_day_02_data.csv,1,300,3.0,Training at home,,,,,,,,,,,,,
4,2,97,B,55.94869764393092,31.322670189226976,2.797434882196546,0.4920153527864573,B,589.6661999868229,Correct,sub_004_day_02_data.csv,1,300,3.0,Training at home,,,,,,,,,,,,,
4,2,98,A,57.88278862118592,85.27658615267535,2.894139431059296,1.33952148290231,A,822.5929000182077,Correct,sub_004_day_02_data.csv,1,300,3.0,Training at home,,,,,,,,,,,,,
4,2,99,A,32.23200379540023,54.25932838707836,1.6116001897700116,0.8523035372478075,A,697.1331000095233,Correct,sub_004_day_02_data.csv,1,300,3.0,Training at home,,,,,,,,,,,,,
4,2,100,B,68.42314985543464,54.443160020149435,3.4211574927717323,0.8551911577875752,B,666.2103999406099,Correct,sub_004_day_02_data.csv,1,300,4.0,Training at home,,,,,,,,,,,,,
4,2,101,A,35.841398876906254,60.27519956570725,1.7920699438453127,0.9468006207464228,A,584.1930999886245,Correct,sub_004_day_02_data.csv,1,300,4.0,Training at home,,,,,,,,,,,,,
4,2,102,B,50.30950741400565,33.6683143971764,2.5154753707002824,0.5288606458446042,B,705.8558999560773,Correct,sub_004_day_02_data.csv,1,300,4.0,Training at home,,,,,,,,,,,,,
4,2,103,B,66.81708524213893,48.70237736249715,3.3408542621069466,0.7650151546718943,A,735.585100017488,Incorrect,sub_004_day_02_data.csv,0,300,4.0,Training at home,,,,,,,,,,,,,
4,2,104,A,41.019348965491,60.99208918705697,2.05096744827455,0.958061496585758,A,1066.309200017713,Correct,sub_004_day_02_data.csv,1,300,4.0,Training at home,,,,,,,,,,,,,
4,2,105,B,47.167914639440454,28.34360674458536,2.358395731972023,0.4452203336251374,B,670.6250999122858,Correct,sub_004_day_02_data.csv,1,300,4.0,Training at home,,,,,,,,,,,,,
4,2,106,A,69.55340922841106,84.80707700248169,3.4776704614205527,1.332146450417102,B,1417.2592000104487,Incorrect,sub_004_day_02_data.csv,0,300,4.0,Training at home,,,,,,,,,,,,,
4,2,107,A,16.476229071394854,32.17996649537339,0.8238114535697427,0.5054817316731536,A,504.6612999867648,Correct,sub_004_day_02_data.csv,1,300,4.0,Training at home,,,,,,,,,,,,,
4,2,108,B,56.967091391127184,35.06768625546388,2.848354569556359,0.5508419275927855,B,572.0428000204265,Correct,sub_004_day_02_data.csv,1,300,4.0,Training at home,,,,,,,,,,,,,
4,2,109,B,55.94028541188619,34.63367764332642,2.7970142705943095,0.5440245362553567,B,479.75300007965416,Correct,sub_004_day_02_data.csv,1,300,4.0,Training at home,,,,,,,,,,,,,
4,2,110,A,33.194259821800735,57.796474270124726,1.6597129910900366,0.9078648948520768,A,506.2249000184238,Correct,sub_004_day_02_data.csv,1,300,4.0,Training at home,,,,,,,,,,,,,
4,2,111,A,11.517351359722696,37.90589681216517,0.5758675679861348,0.5954244347641542,A,539.4030000315979,Correct,sub_004_day_02_data.csv,1,300,4.0,Training at home,,,,,,,,,,,,,
4,2,112,A,42.999587716788454,61.348941869599464,2.1499793858394227,0.9636669254152048,A,957.259500049986,Correct,sub_004_day_02_data.csv,1,300,4.0,Training at home,,,,,,,,,,,,,
4,2,113,A,43.26710269896412,67.46272454606438,2.163355134948206,1.0597019991253382,A,1083.1755000399426,Correct,sub_004_day_02_data.csv,1,300,4.0,Training at home,,,,,,,,,,,,,
4,2,114,B,85.93534332347997,57.80563950038315,4.296767166173998,0.9080088619523184,B,613.283299957402,Correct,sub_004_day_02_data.csv,1,300,4.0,Training at home,,,,,,,,,,,,,
4,2,115,B,58.045056528593655,33.90992345034304,2.9022528264296827,0.5326558319769497,B,2752.831299905665,Correct,sub_004_day_02_data.csv,1,300,4.0,Training at home,,,,,,,,,,,,,
4,2,116,A,33.638245508959166,56.86005029573198,1.6819122754479583,0.8931555814590888,A,598.9302999805659,Correct,sub_004_day_02_data.csv,1,300,4.0,Training at home,,,,,,,,,,,,,
4,2,117,A,50.87062255413625,81.40626358732243,2.5435311277068124,1.278726598210632,A,2903.919600066729,Correct,sub_004_day_02_data.csv,1,300,4.0,Training at home,,,,,,,,,,,,,
4,2,118,A,13.196154170813934,41.722479753136994,0.6598077085406967,0.6553751794100204,A,612.5260000117123,Correct,sub_004_day_02_data.csv,1,300,4.0,Training at home,,,,,,,,,,,,,
4,2,119,A,47.525420698277095,73.72263090126725,2.3762710349138545,1.1580323782136652,A,875.0733999768272,Correct,sub_004_day_02_data.csv,1,300,4.0,Training at home,,,,,,,,,,,,,
4,2,120,A,43.43519314429125,58.15839237636091,2.1717596572145625,0.9135498911708402,A,1050.3804999170825,Correct,sub_004_day_02_data.csv,1,300,4.0,Training at home,,,,,,,,,,,,,
4,2,121,A,49.120858940980554,78.20650919343085,2.4560429470490277,1.2284649737249247,A,893.804999999702,Correct,sub_004_day_02_data.csv,1,300,4.0,Training at home,,,,,,,,,,,,,
4,2,122,A,58.36812761783211,77.20817099778043,2.9184063808916054,1.2127831140186576,B,441.75240001641214,Incorrect,sub_004_day_02_data.csv,0,300,4.0,Training at home,,,,,,,,,,,,,
4,2,123,A,51.03345684973239,69.9239937192869,2.551672842486619,1.0983635248908528,A,715.5961999669671,Correct,sub_004_day_02_data.csv,1,300,4.0,Training at home,,,,,,,,,,,,,
4,2,124,B,34.19873110016852,10.9845031664209,1.709936555008426,0.1725441722548086,B,788.6166999815032,Correct,sub_004_day_02_data.csv,1,300,4.0,Training at home,,,,,,,,,,,,,
4,2,125,B,44.90828149668661,33.31206305160415,2.2454140748343305,0.5232646627941979,B,641.0012999549508,Correct,sub_004_day_02_data.csv,1,300,5.0,Training at home,,,,,,,,,,,,,
4,2,126,A,42.300320139260506,65.69529677277573,2.1150160069630255,1.0319393085837674,A,902.3550000274554,Correct,sub_004_day_02_data.csv,1,300,5.0,Training at home,,,,,,,,,,,,,
4,2,127,A,47.89768945900821,65.47451300307587,2.39488447295041,1.028471245239163,A,595.3042999608442,Correct,sub_004_day_02_data.csv,1,300,5.0,Training at home,,,,,,,,,,,,,
4,2,128,B,79.66539379128257,49.820915333734725,3.983269689564128,0.7825851080379006,B,591.0376999527216,Correct,sub_004_day_02_data.csv,1,300,5.0,Training at home,,,,,,,,,,,,,
4,2,129,B,83.34895434877401,66.53298886843874,4.167447717438701,1.0450977452522932,B,576.3348999898881,Correct,sub_004_day_02_data.csv,1,300,5.0,Training at home,,,,,,,,,,,,,
4,2,130,A,66.35861424375851,79.59885772518876,3.317930712187925,1.250335933317961,B,391.7115000076592,Incorrect,sub_004_day_02_data.csv,0,300,5.0,Training at home,,,,,,,,,,,,,
4,2,131,B,58.08927244286027,48.74016927596715,2.904463622143014,0.7656087886605067,B,646.6753999702632,Correct,sub_004_day_02_data.csv,1,300,5.0,Training at home,,,,,,,,,,,,,
4,2,132,A,52.4739382908311,78.38832230711701,2.6236969145415547,1.2313208874363384,A,443.3410000056029,Correct,sub_004_day_02_data.csv,1,300,5.0,Training at home,,,,,,,,,,,,,
4,2,133,B,40.50724878643972,31.90845657650444,2.0253624393219862,0.5012168638406763,B,1380.5540000321344,Correct,sub_004_day_02_data.csv,1,300,5.0,Training at home,,,,,,,,,,,,,
4,2,134,A,34.20837001782831,52.911871733425414,1.7104185008914154,0.8311377376270734,A,529.0387000422925,Correct,sub_004_day_02_data.csv,1,300,5.0,Training at home,,,,,,,,,,,,,
4,2,135,A,44.14436208685121,76.5178538871028,2.2072181043425605,1.2019396382008969,A,712.0699000079185,Correct,sub_004_day_02_data.csv,1,300,5.0,Training at home,,,,,,,,,,,,,
4,2,136,B,58.9133477877503,49.00179761415434,2.945667389387515,0.7697184369866057,B,1267.8278000093997,Correct,sub_004_day_02_data.csv,1,300,5.0,Training at home,,,,,,,,,,,,,
4,2,137,A,36.41325007344881,68.81084661491496,1.8206625036724404,1.0808782510635546,A,966.27700002864,Correct,sub_004_day_02_data.csv,1,300,5.0,Training at home,,,,,,,,,,,,,
4,2,138,A,62.33565004973991,74.66372469133998,3.1167825024869957,1.1728150448998227,B,1437.3865000670776,Incorrect,sub_004_day_02_data.csv,0,300,5.0,Training at home,,,,,,,,,,,,,
4,2,139,B,55.69372887652845,30.131181305596257,2.7846864438264225,0.4732994891682165,B,632.5059999944642,Correct,sub_004_day_02_data.csv,1,300,5.0,Training at home,,,,,,,,,,,,,
4,2,140,B,59.56920511367665,47.47898957374877,2.9784602556838324,0.7457982242237777,A,1255.9941000072286,Incorrect,sub_004_day_02_data.csv,0,300,5.0,Training at home,,,,,,,,,,,,,
4,2,141,B,47.68664295519372,37.66591013735251,2.384332147759686,0.5916547328913998,B,1434.004900045693,Correct,sub_004_day_02_data.csv,1,300,5.0,Training at home,,,,,,,,,,,,,
4,2,142,B,57.079397211054335,37.77597019355755,2.853969860552717,0.5933835522115369,B,504.19410003814846,Correct,sub_004_day_02_data.csv,1,300,5.0,Training at home,,,,,,,,,,,,,
4,2,143,B,63.67331940683832,41.79653784956847,3.183665970341916,0.6565384812684602,B,520.9137999918312,Correct,sub_004_day_02_data.csv,1,300,5.0,Training at home,,,,,,,,,,,,,
4,2,144,A,32.84015017964715,55.21417742254415,1.6420075089823576,0.8673022708233404,A,641.648399992846,Correct,sub_004_day_02_data.csv,1,300,5.0,Training at home,,,,,,,,,,,,,
4,2,145,B,72.43602309385949,42.989020367546715,3.6218011546929745,0.6752699528585338,B,653.1366999261081,Correct,sub_004_day_02_data.csv,1,300,5.0,Training at home,,,,,,,,,,,,,
4,2,146,B,61.050322393914485,47.3592340500185,3.052516119695724,0.7439171088558886,B,636.5320000331849,Correct,sub_004_day_02_data.csv,1,300,5.0,Training at home,,,,,,,,,,,,,
4,2,147,A,42.80637461710032,57.08552321934786,2.140318730855016,0.8966973018611639,A,1482.086000032723,Correct,sub_004_day_02_data.csv,1,300,5.0,Training at home,,,,,,,,,,,,,
4,2,148,A,15.32011498566493,33.84479023469665,0.7660057492832465,0.5316327218180529,A,710.1959999417886,Correct,sub_004_day_02_data.csv,1,300,5.0,Training at home,,,,,,,,,,,,,
4,2,149,B,47.682493617306875,40.50881139478664,2.3841246808653436,0.6363109214175809,A,854.6690999064595,Incorrect,sub_004_day_02_data.csv,0,300,5.0,Training at home,,,,,,,,,,,,,
4,2,150,A,28.927136099396336,43.671517412831015,1.4463568049698168,0.6859905913763432,A,1011.8239000439644,Correct,sub_004_day_02_data.csv,1,300,6.0,Training at home,,,,,,,,,,,,,
4,2,151,A,33.623754226426854,66.94788740218593,1.6811877113213427,1.05161495618032,A,840.1309000328183,Correct,sub_004_day_02_data.csv,1,300,6.0,Training at home,,,,,,,,,,,,,
4,2,152,B,72.59029385361828,48.41645898300429,3.629514692680914,0.760523959269189,B,668.4508000034839,Correct,sub_004_day_02_data.csv,1,300,6.0,Training at home,,,,,,,,,,,,,
4,2,153,A,33.47950179386543,65.4219756156892,1.6739750896932717,1.027645989887899,A,524.2007999913767,Correct,sub_004_day_02_data.csv,1,300,6.0,Training at home,,,,,,,,,,,,,
4,2,154,B,57.37090528377574,49.129838703860656,2.8685452641887874,0.7717297017205007,B,1091.9421999715269,Correct,sub_004_day_02_data.csv,1,300,6.0,Training at home,,,,,,,,,,,,,
4,2,155,A,26.71366618403065,47.29230563132859,1.3356833092015323,0.7428657997135255,A,591.1857000319287,Correct,sub_004_day_02_data.csv,1,300,6.0,Training at home,,,,,,,,,,,,,
4,2,156,A,50.66680203971136,72.1550324132186,2.5333401019855684,1.133408598744505,A,752.6868999702856,Correct,sub_004_day_02_data.csv,1,300,6.0,Training at home,,,,,,,,,,,,,
4,2,157,A,66.35182940071883,89.72348460922845,3.3175914700359415,1.4093732005141448,A,1999.241700046696,Correct,sub_004_day_02_data.csv,1,300,6.0,Training at home,,,,,,,,,,,,,
4,2,158,A,46.75893961700207,55.35003507407345,2.337946980850103,0.8694363178232328,A,2584.8089999053627,Correct,sub_004_day_02_data.csv,1,300,6.0,Training at home,,,,,,,,,,,,,
4,2,159,A,65.54762616770843,82.85406792088881,3.2773813083854213,1.3014686555014705,A,1008.9495000429451,Correct,sub_004_day_02_data.csv,1,300,6.0,Training at home,,,,,,,,,,,,,
4,2,160,B,81.29576235013562,57.107033000909425,4.064788117506781,0.8970351767198346,B,1207.9905000282452,Correct,sub_004_day_02_data.csv,1,300,6.0,Training at home,,,,,,,,,,,,,
4,2,161,B,63.36781156617115,34.76543326351275,3.168390578308558,0.5460941486975893,B,812.2991999844089,Correct,sub_004_day_02_data.csv,1,300,6.0,Training at home,,,,,,,,,,,,,
4,2,162,B,59.36412269733924,51.89952560989016,2.968206134866962,0.8152358419041315,A,1179.0474000154063,Incorrect,sub_004_day_02_data.csv,0,300,6.0,Training at home,,,,,,,,,,,,,
4,2,163,A,12.201356603916484,35.55721328271882,0.6100678301958241,0.5585314001555743,A,506.2833999982104,Correct,sub_004_day_02_data.csv,1,300,6.0,Training at home,,,,,,,,,,,,,
4,2,164,B,51.727171262758965,24.888187387782253,2.586358563137948,0.3909427332931143,B,790.6186000909656,Correct,sub_004_day_02_data.csv,1,300,6.0,Training at home,,,,,,,,,,,,,
4,2,165,B,67.91924317174205,48.78173104019756,3.3959621585871025,0.7662616393263892,A,1431.063299998641,Incorrect,sub_004_day_02_data.csv,0,300,6.0,Training at home,,,,,,,,,,,,,
4,2,166,B,46.54120223946815,34.82451540959786,2.3270601119734073,0.5470222088780858,B,697.7192999329418,Correct,sub_004_day_02_data.csv,1,300,6.0,Training at home,,,,,,,,,,,,,
4,2,167,B,43.97835327299195,36.60166575481536,2.1989176636495977,0.5749376212223852,B,528.1371000455692,Correct,sub_004_day_02_data.csv,1,300,6.0,Training at home,,,,,,,,,,,,,
4,2,168,A,20.85265087975685,34.52944090222834,1.0426325439878426,0.5423871893550173,A,840.7184999668971,Correct,sub_004_day_02_data.csv,1,300,6.0,Training at home,,,,,,,,,,,,,
4,2,169,B,63.703931558392306,33.85864516873284,3.1851965779196156,0.5318503546129731,B,720.8194000413641,Correct,sub_004_day_02_data.csv,1,300,6.0,Training at home,,,,,,,,,,,,,
4,2,170,A,14.558460459251013,33.24676507671735,0.7279230229625506,0.5222389646032046,A,645.9222000557929,Correct,sub_004_day_02_data.csv,1,300,6.0,Training at home,,,,,,,,,,,,,
4,2,171,B,65.72168336957706,45.19561283563542,3.2860841684788533,0.709931026294604,B,618.514500092715,Correct,sub_004_day_02_data.csv,1,300,6.0,Training at home,,,,,,,,,,,,,
4,2,172,A,29.755875588259464,50.03858655003698,1.4877937794129732,0.7860042795080661,A,685.1340000284836,Correct,sub_004_day_02_data.csv,1,300,6.0,Training at home,,,,,,,,,,,,,
4,2,173,B,63.16577967560704,37.5014574687811,3.158288983780352,0.5890715164141638,B,948.4718000749126,Correct,sub_004_day_02_data.csv,1,300,6.0,Training at home,,,,,,,,,,,,,
4,2,174,B,57.1855414705491,43.75594004926817,2.859277073527455,0.6873166990484815,A,408.0803000833839,Incorrect,sub_004_day_02_data.csv,0,300,6.0,Training at home,,,,,,,,,,,,,
4,2,175,B,87.41105044319077,68.95291800557736,4.370552522159539,1.083109903249506,B,672.986299963668,Correct,sub_004_day_02_data.csv,1,300,7.0,Training at home,,,,,,,,,,,,,
4,2,176,B,83.45792854056221,57.90353391438859,4.17289642702811,0.9095465838116532,B,488.5782999917865,Correct,sub_004_day_02_data.csv,1,300,7.0,Training at home,,,,,,,,,,,,,
4,2,177,B,69.51772898395933,60.411837536167624,3.4758864491979664,0.9489469249674216,B,431.61790003068745,Correct,sub_004_day_02_data.csv,1,300,7.0,Training at home,,,,,,,,,,,,,
4,2,178,B,75.74351874510404,53.17546651717926,3.787175937255202,0.835278274807902,B,528.2828999916092,Correct,sub_004_day_02_data.csv,1,300,7.0,Training at home,,,,,,,,,,,,,
4,2,179,A,45.97753839903437,53.160039174043554,2.2988769199517183,0.8350359426686044,A,877.9538000235334,Correct,sub_004_day_02_data.csv,1,300,7.0,Training at home,,,,,,,,,,,,,
4,2,180,A,12.117114080290744,39.22655826483856,0.6058557040145373,0.6161693363521441,A,578.1540999887511,Correct,sub_004_day_02_data.csv,1,300,7.0,Training at home,,,,,,,,,,,,,
4,2,181,A,50.93054462450172,75.46658108756054,2.546527231225086,1.1854262836810932,A,767.2378999413922,Correct,sub_004_day_02_data.csv,1,300,7.0,Training at home,,,,,,,,,,,,,
4,2,182,A,43.258951582651726,56.54149994507601,2.1629475791325863,0.8881518042519926,A,426.5183999668807,Correct,sub_004_day_02_data.csv,1,300,7.0,Training at home,,,,,,,,,,,,,
4,2,183,B,58.05679214469229,30.87038646112478,2.9028396072346148,0.4849108965987371,B,1321.686299983412,Correct,sub_004_day_02_data.csv,1,300,7.0,Training at home,,,,,,,,,,,,,
4,2,184,A,46.170289986695785,55.91307160067723,2.3085144993347892,0.8782804749016384,A,667.021399945952,Correct,sub_004_day_02_data.csv,1,300,7.0,Training at home,,,,,,,,,,,,,
4,2,185,A,46.89288549527237,55.68276481619841,2.3446442747636183,0.8746628243906857,A,1726.2151999166235,Correct,sub_004_day_02_data.csv,1,300,7.0,Training at home,,,,,,,,,,,,,
4,2,186,A,19.7909141010415,39.161115150991904,0.989545705052075,0.6151413583237005,A,36846.958599984646,Correct,sub_004_day_02_data.csv,1,300,7.0,Training at home,,,,,,,,,,,,,
4,2,187,A,46.68873928602764,71.9779520226266,2.334436964301382,1.1306270264736116,A,3016.557099996134,Correct,sub_004_day_02_data.csv,1,300,7.0,Training at home,,,,,,,,,,,,,
4,2,188,A,43.836959985394266,76.4162396388904,2.1918479992697133,1.200343485322476,A,3476.662200060673,Correct,sub_004_day_02_data.csv,1,300,7.0,Training at home,,,,,,,,,,,,,
4,2,189,B,59.2203590018123,31.027373344447117,2.961017950090615,0.4873768407955141,B,2918.598400079645,Correct,sub_004_day_02_data.csv,1,300,7.0,Training at home,,,,,,,,,,,,,
4,2,190,B,79.0577258272862,61.88084449046663,3.9528862913643104,0.972022032245912,B,1138.153199921362,Correct,sub_004_day_02_data.csv,1,300,7.0,Training at home,,,,,,,,,,,,,
4,2,191,A,54.438157679620666,68.93001228633608,2.7219078839810336,1.082750101053038,A,751.2464000610635,Correct,sub_004_day_02_data.csv,1,300,7.0,Training at home,,,,,,,,,,,,,
4,2,192,B,51.73708162617696,40.69105702288873,2.5868540813088483,0.6391736290495529,B,744.0761000616476,Correct,sub_004_day_02_data.csv,1,300,7.0,Training at home,,,,,,,,,,,,,
4,2,193,A,39.759459968607594,55.32126440080148,1.9879729984303796,0.8689843891442824,A,831.5780999837443,Correct,sub_004_day_02_data.csv,1,300,7.0,Training at home,,,,,,,,,,,,,
4,2,194,A,19.29023313647047,38.19007304477614,0.9645116568235236,0.5998882645876316,A,1446.09710003715,Correct,sub_004_day_02_data.csv,1,300,7.0,Training at home,,,,,,,,,,,,,
4,2,195,B,33.640106025151326,11.519273964748802,1.6820053012575664,0.180944332311715,B,904.6608000062406,Correct,sub_004_day_02_data.csv,1,300,7.0,Training at home,,,,,,,,,,,,,
4,2,196,A,46.664396969016074,68.80925578376647,2.333219848450804,1.0808532623463083,A,774.0464999806136,Correct,sub_004_day_02_data.csv,1,300,7.0,Training at home,,,,,,,,,,,,,
4,2,197,B,59.53270531394193,34.46791377782773,2.9766352656970967,0.5414207235449501,B,732.2776999790221,Correct,sub_004_day_02_data.csv,1,300,7.0,Training at home,,,,,,,,,,,,,
4,2,198,B,41.86545653849118,31.828203972039812,2.093272826924559,0.4999562588775887,B,1066.4450000040233,Correct,sub_004_day_02_data.csv,1,300,7.0,Training at home,,,,,,,,,,,,,
4,2,199,B,33.01693502510534,13.071312464621396,1.650846751255267,0.2053236960581563,B,27868.927799980156,Correct,sub_004_day_02_data.csv,1,300,7.0,Training at home,,,,,,,,,,,,,
4,2,200,B,48.38140036351216,26.80932991940702,2.419070018175608,0.4211199696123707,B,924.717399990186,Correct,sub_004_day_02_data.csv,1,300,8.0,Training at home,,,,,,,,,,,,,
4,2,201,A,23.766863007779147,41.47588234704462,1.1883431503889574,0.6515016364131497,A,596.6921000508592,Correct,sub_004_day_02_data.csv,1,300,8.0,Training at home,,,,,,,,,,,,,
4,2,202,A,45.7402183294778,68.77975755321025,2.2870109164738897,1.080389905224262,A,650.4404000006616,Correct,sub_004_day_02_data.csv,1,300,8.0,Training at home,,,,,,,,,,,,,
4,2,203,B,63.994983915628666,49.06691489203624,3.1997491957814335,0.7707412967956834,A,1034.5336999744177,Incorrect,sub_004_day_02_data.csv,0,300,8.0,Training at home,,,,,,,,,,,,,
4,2,204,A,38.95706301457674,63.24065797433935,1.9478531507288368,0.9933819325018464,B,713.8778000371531,Incorrect,sub_004_day_02_data.csv,0,300,8.0,Training at home,,,,,,,,,,,,,
4,2,205,A,66.36596392618986,77.51933788036823,3.318298196309493,1.2176709119805489,B,695.8651000168175,Incorrect,sub_004_day_02_data.csv,0,300,8.0,Training at home,,,,,,,,,,,,,
4,2,206,B,83.37852577681102,59.24852215677789,4.1689262888405505,0.9306736097189277,B,672.814599936828,Correct,sub_004_day_02_data.csv,1,300,8.0,Training at home,,,,,,,,,,,,,
4,2,207,A,38.66178400673595,50.26880479097874,1.9330892003367977,0.789620539180391,A,684.244200005196,Correct,sub_004_day_02_data.csv,1,300,8.0,Training at home,,,,,,,,,,,,,
4,2,208,B,69.51032855063067,57.16211010044133,3.4755164275315336,0.897900325776187,B,934.417299926281,Correct,sub_004_day_02_data.csv,1,300,8.0,Training at home,,,,,,,,,,,,,
4,2,209,A,49.89653892873429,67.7109931312634,2.4948269464367145,1.06360179294223,A,962.7132000168784,Correct,sub_004_day_02_data.csv,1,300,8.0,Training at home,,,,,,,,,,,,,
4,2,210,B,89.89911237717457,66.93192715730535,4.494955618858729,1.0513642532399885,B,621.728099999018,Correct,sub_004_day_02_data.csv,1,300,8.0,Training at home,,,,,,,,,,,,,
4,2,211,B,52.42085060877094,25.4923484644139,2.6210425304385474,0.4004328732927688,B,1208.148500067182,Correct,sub_004_day_02_data.csv,1,300,8.0,Training at home,,,,,,,,,,,,,
4,2,212,B,49.10301876432871,23.015032750511025,2.4551509382164354,0.3615192890556696,B,1335.7816999778152,Correct,sub_004_day_02_data.csv,1,300,8.0,Training at home,,,,,,,,,,,,,
4,2,213,A,35.838959163009555,57.64152489706014,1.7919479581504776,0.9054309557915864,A,543.6721000587568,Correct,sub_004_day_02_data.csv,1,300,8.0,Training at home,,,,,,,,,,,,,
4,2,214,B,64.88903121229372,35.70621893842383,3.244451560614686,0.5608719755221052,B,607.8713999595493,Correct,sub_004_day_02_data.csv,1,300,8.0,Training at home,,,,,,,,,,,,,
4,2,215,A,44.628450729252286,75.09885733790131,2.231422536462614,1.1796500925286932,A,601.2060000794008,Correct,sub_004_day_02_data.csv,1,300,8.0,Training at home,,,,,,,,,,,,,
4,2,216,B,56.83975896547393,48.631169639959374,2.841987948273697,0.7638966263818768,A,964.9788000388072,Incorrect,sub_004_day_02_data.csv,0,300,8.0,Training at home,,,,,,,,,,,,,
4,2,217,B,62.71948406372135,40.66120964869657,3.1359742031860676,0.6387047875920977,B,1019.3108000094072,Correct,sub_004_day_02_data.csv,1,300,8.0,Training at home,,,,,,,,,,,,,
4,2,218,B,38.91476880353183,22.901369919200857,1.9457384401765916,0.3597338774765184,B,1094.6070000063628,Correct,sub_004_day_02_data.csv,1,300,8.0,Training at home,,,,,,,,,,,,,
4,2,219,A,48.05337346405015,67.27065196440579,2.4026686732025073,1.056684930067865,A,1028.0997999943793,Correct,sub_004_day_02_data.csv,1,300,8.0,Training at home,,,,,,,,,,,,,
4,2,220,A,29.76187909267467,62.66445534664154,1.4880939546337333,0.9843309627910732,A,553.0364000005648,Correct,sub_004_day_02_data.csv,1,300,8.0,Training at home,,,,,,,,,,,,,
4,2,221,A,29.97800089992998,44.51105174190789,1.498900044996499,0.699177965779665,B,878.5160999977961,Incorrect,sub_004_day_02_data.csv,0,300,8.0,Training at home,,,,,,,,,,,,,
4,2,222,A,39.6684309732234,70.63617741009064,1.98342154866117,1.1095504801460303,A,590.8091000746936,Correct,sub_004_day_02_data.csv,1,300,8.0,Training at home,,,,,,,,,,,,,
4,2,223,B,48.659422522518405,40.87126173289042,2.43297112612592,0.6420042780149708,A,1112.09950002376,Incorrect,sub_004_day_02_data.csv,0,300,8.0,Training at home,,,,,,,,,,,,,
4,2,224,B,52.58144376628658,35.12769501096856,2.6290721883143293,0.5517845429200082,B,606.7702999571338,Correct,sub_004_day_02_data.csv,1,300,8.0,Training at home,,,,,,,,,,,,,
4,2,225,A,40.800387733335974,65.7355042902303,2.0400193866667986,1.032570886791039,A,560.174599988386,Correct,sub_004_day_02_data.csv,1,300,9.0,Training at home,,,,,,,,,,,,,
4,2,226,A,13.482378720086,37.62668275534287,0.6741189360043001,0.5910385506156945,A,1729.1382000548765,Correct,sub_004_day_02_data.csv,1,300,9.0,Training at home,,,,,,,,,,,,,
4,2,227,A,64.26806256151356,83.22573598342541,3.2134031280756776,1.3073068037756648,B,569.8526999913156,Incorrect,sub_004_day_02_data.csv,0,300,9.0,Training at home,,,,,,,,,,,,,
4,2,228,A,18.19700698037097,48.70803249244376,0.9098503490185484,0.7651039852453713,A,470.7581999246031,Correct,sub_004_day_02_data.csv,1,300,9.0,Training at home,,,,,,,,,,,,,
4,2,229,B,71.09659643334587,50.73740581749826,3.5548298216672936,0.7969813068922827,B,606.5369000425562,Correct,sub_004_day_02_data.csv,1,300,9.0,Training at home,,,,,,,,,,,,,
4,2,230,A,23.54981302877967,51.028147679035015,1.1774906514389836,0.8015482693737573,A,1196.588399936445,Correct,sub_004_day_02_data.csv,1,300,9.0,Training at home,,,,,,,,,,,,,
4,2,231,B,37.51459073815015,24.295667277642117,1.8757295369075075,0.3816354491675121,B,3096.2772000348195,Correct,sub_004_day_02_data.csv,1,300,9.0,Training at home,,,,,,,,,,,,,
4,2,232,A,24.336347220649152,45.27586476495412,1.2168173610324575,0.7111916206525242,A,1059.773200075142,Correct,sub_004_day_02_data.csv,1,300,9.0,Training at home,,,,,,,,,,,,,
4,2,233,A,35.571465124439165,47.56950090884264,1.778573256221958,0.7472199729507653,A,852.2700000321493,Correct,sub_004_day_02_data.csv,1,300,9.0,Training at home,,,,,,,,,,,,,
4,2,234,A,33.059140923413764,64.67311461576773,1.6529570461706882,1.0158829088083328,A,1178.4408999374136,Correct,sub_004_day_02_data.csv,1,300,9.0,Training at home,,,,,,,,,,,,,
4,2,235,B,53.41575778440065,39.49854440226977,2.6707878892200325,0.6204416846083047,B,2335.633400012739,Correct,sub_004_day_02_data.csv,1,300,9.0,Training at home,,,,,,,,,,,,,
4,2,236,A,20.940831560631885,37.89251277289473,1.0470415780315945,0.5952141987669175,A,738.5133999632671,Correct,sub_004_day_02_data.csv,1,300,9.0,Training at home,,,,,,,,,,,,,
4,2,237,A,21.820928079034104,54.00303465196895,1.0910464039517052,0.8482776846709036,A,885.2948000421748,Correct,sub_004_day_02_data.csv,1,300,9.0,Training at home,,,,,,,,,,,,,
4,2,238,B,49.453894004756776,28.18331538096361,2.4726947002378385,0.4427024827731974,B,788.5003000264987,Correct,sub_004_day_02_data.csv,1,300,9.0,Training at home,,,,,,,,,,,,,
4,2,239,B,70.61610091254167,55.05560840583879,3.530805045627084,0.8648114745334979,B,910.5663999216632,Correct,sub_004_day_02_data.csv,1,300,9.0,Training at home,,,,,,,,,,,,,
4,2,240,B,68.36730206682532,47.786524949552934,3.4183651033412663,0.7506289786105043,A,3158.712000004016,Incorrect,sub_004_day_02_data.csv,0,300,9.0,Training at home,,,,,,,,,,,,,
4,2,241,B,76.47222424761989,63.86182730637911,3.823611212380994,1.0031392375527033,B,562.8154000733048,Correct,sub_004_day_02_data.csv,1,300,9.0,Training at home,,,,,,,,,,,,,
4,2,242,B,58.13741081475186,32.18567387608689,2.9068705407375934,0.5055713829997575,B,972.414500080049,Correct,sub_004_day_02_data.csv,1,300,9.0,Training at home,,,,,,,,,,,,,
4,2,243,A,16.50522049861156,32.80923215688475,0.8252610249305781,0.5153662135699556,A,500.0228000571951,Correct,sub_004_day_02_data.csv,1,300,9.0,Training at home,,,,,,,,,,,,,
4,2,244,A,19.02959418102484,39.071570263053765,0.951479709051242,0.6137347905131356,A,590.3828999726102,Correct,sub_004_day_02_data.csv,1,300,9.0,Training at home,,,,,,,,,,,,,
4,2,245,B,81.22104132678095,57.51701488153781,4.061052066339047,0.9034751570412698,B,581.8247999995947,Correct,sub_004_day_02_data.csv,1,300,9.0,Training at home,,,,,,,,,,,,,
4,2,246,B,87.03764353663777,65.6899045940095,4.351882176831889,1.031854608437773,B,574.3213000241667,Correct,sub_004_day_02_data.csv,1,300,9.0,Training at home,,,,,,,,,,,,,
4,2,247,B,67.80912961967722,49.4252346359693,3.390456480983861,0.7763697701715646,B,1947.6409000344577,Correct,sub_004_day_02_data.csv,1,300,9.0,Training at home,,,,,,,,,,,,,
4,2,248,B,75.77674830760441,47.25491186839879,3.788837415380221,0.7422784198589738,B,492.3583000199869,Correct,sub_004_day_02_data.csv,1,300,9.0,Training at home,,,,,,,,,,,,,
4,2,249,A,51.98144521836613,68.81767386129118,2.599072260918307,1.0809854931988536,A,625.8908999152482,Correct,sub_004_day_02_data.csv,1,300,9.0,Training at home,,,,,,,,,,,,,
4,2,250,A,53.34778679798045,82.93772421980862,2.6673893398990227,1.302782725572035,A,872.8563999757171,Correct,sub_004_day_02_data.csv,1,300,10.0,Training at home,,,,,,,,,,,,,
4,2,251,B,79.4204162709413,57.61551919218083,3.971020813547065,0.9050224591345852,A,767.8099001059309,Incorrect,sub_004_day_02_data.csv,0,300,10.0,Training at home,,,,,,,,,,,,,
4,2,252,B,42.445184544345054,16.114009208323914,2.1222592272172527,0.2531182647437434,A,572.15670007281,Incorrect,sub_004_day_02_data.csv,0,300,10.0,Training at home,,,,,,,,,,,,,
4,2,253,B,50.60728603823466,21.681574762371216,2.530364301911733,0.3405733799586164,B,452.1517999237403,Correct,sub_004_day_02_data.csv,1,300,10.0,Training at home,,,,,,,,,,,,,
4,2,254,A,11.596016657915804,33.758607606313504,0.5798008328957902,0.530278968257075,A,511.9331000605598,Correct,sub_004_day_02_data.csv,1,300,10.0,Training at home,,,,,,,,,,,,,
4,2,255,A,34.12873655808302,48.61937213494848,1.7064368279041509,0.7637113116065122,A,656.3478999305516,Correct,sub_004_day_02_data.csv,1,300,10.0,Training at home,,,,,,,,,,,,,
4,2,256,B,80.61863719377166,51.37232776471043,4.030931859688582,0.806954637517106,B,607.5039999559522,Correct,sub_004_day_02_data.csv,1,300,10.0,Training at home,,,,,,,,,,,,,
4,2,257,A,11.47098764849667,33.24082059434562,0.5735493824248336,0.5221455888924625,A,661.5258000092581,Correct,sub_004_day_02_data.csv,1,300,10.0,Training at home,,,,,,,,,,,,,
4,2,258,B,64.7009862471241,34.17778648877717,3.235049312356205,0.5368634147455142,B,693.4322000015527,Correct,sub_004_day_02_data.csv,1,300,10.0,Training at home,,,,,,,,,,,,,
4,2,259,A,21.264633027973385,34.28664982125143,1.0632316513986693,0.5385734359732465,A,520.8663999801502,Correct,sub_004_day_02_data.csv,1,300,10.0,Training at home,,,,,,,,,,,,,
4,2,260,B,65.58354694894605,51.29225269582109,3.2791773474473023,0.8056968212763139,B,841.0384000744671,Correct,sub_004_day_02_data.csv,1,300,10.0,Training at home,,,,,,,,,,,,,
4,2,261,B,71.62695350778532,51.95895762346238,3.5813476753892655,0.8161693977902641,B,707.3860999662429,Correct,sub_004_day_02_data.csv,1,300,10.0,Training at home,,,,,,,,,,,,,
4,2,262,A,56.990798670980894,79.42405668680802,2.849539933549045,1.247590165027877,A,681.2577999662608,Correct,sub_004_day_02_data.csv,1,300,10.0,Training at home,,,,,,,,,,,,,
4,2,263,A,40.32792002141644,65.67429639241992,2.016396001070822,1.0316094353805254,A,860.9106000512838,Correct,sub_004_day_02_data.csv,1,300,10.0,Training at home,,,,,,,,,,,,,
4,2,264,A,11.101027763957998,36.33462637347711,0.5550513881978999,0.5707429764292281,A,606.443400029093,Correct,sub_004_day_02_data.csv,1,300,10.0,Training at home,,,,,,,,,,,,,
4,2,265,B,60.19655452985459,49.71419215082035,3.009827726492729,0.780908704200843,A,685.2009000722319,Incorrect,sub_004_day_02_data.csv,0,300,10.0,Training at home,,,,,,,,,,,,,
4,2,266,B,78.08332860648596,50.45861085099703,3.904166430324298,0.7926020057991925,B,512.0776999974623,Correct,sub_004_day_02_data.csv,1,300,10.0,Training at home,,,,,,,,,,,,,
4,2,267,A,64.25216083314318,78.03325572761116,3.212608041657159,1.2257435146477842,A,733.8475999422371,Correct,sub_004_day_02_data.csv,1,300,10.0,Training at home,,,,,,,,,,,,,
4,2,268,B,53.07491110881742,34.21292528294493,2.6537455554408713,0.5374153736335814,B,632.2659000288695,Correct,sub_004_day_02_data.csv,1,300,10.0,Training at home,,,,,,,,,,,,,
4,2,269,A,60.71370455218704,78.81564486321852,3.035685227609352,1.2380332544511472,A,546.9767999602482,Correct,sub_004_day_02_data.csv,1,300,10.0,Training at home,,,,,,,,,,,,,
4,2,270,A,28.320803994926703,56.387280435024294,1.416040199746335,0.885729329852899,A,1004.3642999371514,Correct,sub_004_day_02_data.csv,1,300,10.0,Training at home,,,,,,,,,,,,,
4,2,271,A,21.082567693829912,52.58857941959338,1.0541283846914955,0.8260594738365897,A,591.2433000048622,Correct,sub_004_day_02_data.csv,1,300,10.0,Training at home,,,,,,,,,,,,,
4,2,272,B,76.549988056528,60.97283231089646,3.8274994028263993,0.9577590102823734,B,614.6844000322744,Correct,sub_004_day_02_data.csv,1,300,10.0,Training at home,,,,,,,,,,,,,
4,2,273,B,71.92288467950937,53.67577259514631,3.596144233975468,0.84313706430334,B,580.1654999377206,Correct,sub_004_day_02_data.csv,1,300,10.0,Training at home,,,,,,,,,,,,,
4,2,274,A,49.027551149053046,69.88118971459076,2.4513775574526524,1.0976911611573648,A,677.9398999642581,Correct,sub_004_day_02_data.csv,1,300,10.0,Training at home,,,,,,,,,,,,,
4,2,275,B,50.01593766008233,20.61134889022869,2.5007968830041163,0.3237623112705929,B,781.2059000134468,Correct,sub_004_day_02_data.csv,1,300,11.0,Training at home,,,,,,,,,,,,,
4,2,276,A,25.018100454980537,41.535356883744114,1.2509050227490266,0.6524358602510038,A,1290.7896999968216,Correct,sub_004_day_02_data.csv,1,300,11.0,Training at home,,,,,,,,,,,,,
4,2,277,A,38.20119992344646,55.606417836733115,1.910059996172323,0.873463568841626,A,955.8435999788344,Correct,sub_004_day_02_data.csv,1,300,11.0,Training at home,,,,,,,,,,,,,
4,2,278,B,71.0385481084319,47.18872294865548,3.5519274054215946,0.7412387267389008,B,1201.172100030817,Correct,sub_004_day_02_data.csv,1,300,11.0,Training at home,,,,,,,,,,,,,
4,2,279,B,84.63533283214468,61.25788783713942,4.231766641607234,0.962236652017924,B,633.9919000165537,Correct,sub_004_day_02_data.csv,1,300,11.0,Training at home,,,,,,,,,,,,,
4,2,280,B,66.78888109518132,49.49034578844768,3.339444054759066,0.7773925337630289,B,637.9365000175312,Correct,sub_004_day_02_data.csv,1,300,11.0,Training at home,,,,,,,,,,,,,
4,2,281,B,88.59471393926856,65.34673820625048,4.429735696963428,1.02646416342406,B,552.498499979265,Correct,sub_004_day_02_data.csv,1,300,11.0,Training at home,,,,,,,,,,,,,
4,2,282,A,34.76906278367463,53.82618373509547,1.7384531391837317,0.8454997169647517,A,621.0922999307513,Correct,sub_004_day_02_data.csv,1,300,11.0,Training at home,,,,,,,,,,,,,
4,2,283,A,22.12145810172868,33.619509640832575,1.106072905086434,0.5280940225246542,A,1092.5839999690652,Correct,sub_004_day_02_data.csv,1,300,11.0,Training at home,,,,,,,,,,,,,
4,2,284,A,53.020248001819425,79.02574429090723,2.651012400090971,1.2413334885438985,A,1082.254899898544,Correct,sub_004_day_02_data.csv,1,300,11.0,Training at home,,,,,,,,,,,,,
4,2,285,B,52.130357175946735,26.424905910172363,2.606517858797337,0.415081451395995,B,718.2901999913156,Correct,sub_004_day_02_data.csv,1,300,11.0,Training at home,,,,,,,,,,,,,
4,2,286,B,52.531804614208035,31.86729076598199,2.6265902307104017,0.5005702328010944,B,818.2357000187039,Correct,sub_004_day_02_data.csv,1,300,11.0,Training at home,,,,,,,,,,,,,
4,2,287,A,29.44462079800788,51.3823604091572,1.4722310399003942,0.8071122299275564,A,516.3408999796957,Correct,sub_004_day_02_data.csv,1,300,11.0,Training at home,,,,,,,,,,,,,
4,2,288,B,50.01209320330865,20.736358088444415,2.5006046601654326,0.3257259511643212,B,624.7613999294117,Correct,sub_004_day_02_data.csv,1,300,11.0,Training at home,,,,,,,,,,,,,
4,2,289,B,48.72337841222847,30.39120046086102,2.436168920611423,0.4773838605080786,B,1306.879699928686,Correct,sub_004_day_02_data.csv,1,300,11.0,Training at home,,,,,,,,,,,,,
4,2,290,A,48.84245342328535,75.03728939846138,2.4421226711642676,1.1786829855974876,A,514.7542000049725,Correct,sub_004_day_02_data.csv,1,300,11.0,Training at home,,,,,,,,,,,,,
4,2,291,A,32.802736359285895,59.28205529180297,1.6401368179642946,0.9312003469721606,A,1010.1073000114412,Correct,sub_004_day_02_data.csv,1,300,11.0,Training at home,,,,,,,,,,,,,
4,2,292,B,63.699822175994704,54.58796152667512,3.184991108799735,0.8574656945332241,B,706.4257999882102,Correct,sub_004_day_02_data.csv,1,300,11.0,Training at home,,,,,,,,,,,,,
4,2,293,A,23.453474051062855,55.0752821456964,1.1726737025531428,0.8651205089165245,A,711.0864999704063,Correct,sub_004_day_02_data.csv,1,300,11.0,Training at home,,,,,,,,,,,,,
4,2,294,A,23.879744149571987,45.95700019585031,1.193987207478599,0.7218908709815403,A,951.677400036715,Correct,sub_004_day_02_data.csv,1,300,11.0,Training at home,,,,,,,,,,,,,
4,2,295,B,64.59949797965709,43.51978858803443,3.2299748989828543,0.6836072405697493,B,625.5228000227362,Correct,sub_004_day_02_data.csv,1,300,11.0,Training at home,,,,,,,,,,,,,
4,2,296,A,65.93712679782543,79.62599416513771,3.2968563398912716,1.250762191519902,A,948.9986000116916,Correct,sub_004_day_02_data.csv,1,300,11.0,Training at home,,,,,,,,,,,,,
4,2,297,B,62.56958641214675,37.44037745558082,3.1284793206073376,0.5881120738104081,B,712.0789000764489,Correct,sub_004_day_02_data.csv,1,300,11.0,Training at home,,,,,,,,,,,,,
4,2,298,A,35.716430857063436,48.950808780403825,1.785821542853172,0.768917506258977,A,566.0688999341801,Correct,sub_004_day_02_data.csv,1,300,11.0,Training at home,,,,,,,,,,,,,
4,2,299,B,31.084033101978154,12.771867082503793,1.5542016550989075,0.2006200189950961,B,567.06180004403,Correct,sub_004_day_02_data.csv,1,300,11.0,Training at home,,,,,,,,,,,,,
