subject,day,trial,cat,x,y,xt,yt,resp,rt,fb,f_name,acc,n_trials,block,session_type,ns_left_digit,ns_right_digit,ns_left_size,ns_right_size,ns_congruent,ns_cue,ns_correct_side,ns_resp,ns_rt,ns_fb,acc_stroop,acc_stroop_mean,resp_key
4,4,600,B,67.80863161265376,37.96013676206867,3.3904315806326877,0.5962764339048938,A,4368.252100000973,Incorrect,sub_004_day_04_data.csv,0,300,24.0,Training at home,,,,,,,,,,,,,
4,4,601,B,88.3475481739965,66.97767529762993,4.417377408699825,1.0520828633477837,A,4382.905800001026,Incorrect,sub_004_day_04_data.csv,0,300,24.0,Training at home,,,,,,,,,,,,,
4,4,602,A,41.957908100608435,61.43402442165937,2.097895405030422,0.9650033990177052,A,2044.7090999987267,Correct,sub_004_day_04_data.csv,1,300,24.0,Training at home,,,,,,,,,,,,,
4,4,603,B,56.49957475887982,44.41580950270069,2.824978737943991,0.697681904184641,A,637.8469000010227,Incorrect,sub_004_day_04_data.csv,0,300,24.0,Training at home,,,,,,,,,,,,,
4,4,604,B,78.32468961517053,47.94936393449449,3.9162344807585265,0.7531868474045563,B,1921.5429999967455,Correct,sub_004_day_04_data.csv,1,300,24.0,Training at home,,,,,,,,,,,,,
4,4,605,B,35.23987437406596,12.323223328468746,1.761993718703298,0.1935727393863188,B,966.8963000003714,Correct,sub_004_day_04_data.csv,1,300,24.0,Training at home,,,,,,,,,,,,,
4,4,606,A,28.94012955351792,56.9800005726931,1.447006477675896,0.8950397560035742,A,877.393700000539,Correct,sub_004_day_04_data.csv,1,300,24.0,Training at home,,,,,,,,,,,,,
4,4,607,A,28.00344142123808,47.56525720232312,1.400172071061904,0.7471533129646365,A,471.2952000008954,Correct,sub_004_day_04_data.csv,1,300,24.0,Training at home,,,,,,,,,,,,,
4,4,608,B,50.5199993020845,30.98080032066389,2.525999965104225,0.4866452734486499,B,1866.7617999999493,Correct,sub_004_day_04_data.csv,1,300,24.0,Training at home,,,,,,,,,,,,,
4,4,609,B,72.094627680806,53.19123560105661,3.6047313840403,0.8355259749982166,B,1359.7227999998722,Correct,sub_004_day_04_data.csv,1,300,24.0,Training at home,,,,,,,,,,,,,
4,4,610,B,76.21175412675495,59.47182048720411,3.810587706337748,0.9341811716910569,B,572.6307000004454,Correct,sub_004_day_04_data.csv,1,300,24.0,Training at home,,,,,,,,,,,,,
4,4,611,A,28.188500798065775,49.48722256903106,1.4094250399032888,0.7773434743471548,A,370.3196999995271,Correct,sub_004_day_04_data.csv,1,300,24.0,Training at home,,,,,,,,,,,,,
4,4,612,A,26.346856648002372,53.0467343331439,1.3173428324001184,0.8332561543896716,A,439.815699999599,Correct,sub_004_day_04_data.csv,1,300,24.0,Training at home,,,,,,,,,,,,,
4,4,613,A,43.27481268266263,62.137192795811366,2.1637406341331316,0.976048742010068,A,466.4011999993818,Correct,sub_004_day_04_data.csv,1,300,24.0,Training at home,,,,,,,,,,,,,
4,4,614,B,62.08824231967152,54.672273016955984,3.104412115983576,0.8587900563256219,A,433.3580999991682,Incorrect,sub_004_day_04_data.csv,0,300,24.0,Training at home,,,,,,,,,,,,,
4,4,615,A,41.03106605647154,66.59973831423287,2.0515533028235766,1.0461462430949833,A,749.1721999977017,Correct,sub_004_day_04_data.csv,1,300,24.0,Training at home,,,,,,,,,,,,,
4,4,616,B,67.63908387511087,54.41781002609561,3.3819541937555435,0.8547929610121346,B,542.5374000005831,Correct,sub_004_day_04_data.csv,1,300,24.0,Training at home,,,,,,,,,,,,,
4,4,617,B,80.79768755439233,64.55797036520741,4.039884377719616,1.0140742271500158,B,1078.2400999996753,Correct,sub_004_day_04_data.csv,1,300,24.0,Training at home,,,,,,,,,,,,,
4,4,618,A,44.22201347487283,67.88631804645117,2.2111006737436414,1.066355790269956,A,1660.3266000020085,Correct,sub_004_day_04_data.csv,1,300,24.0,Training at home,,,,,,,,,,,,,
4,4,619,B,49.12918146451644,28.61476569068906,2.456459073225822,0.44947968839031,B,830.998700002965,Correct,sub_004_day_04_data.csv,1,300,24.0,Training at home,,,,,,,,,,,,,
4,4,620,A,14.286301188664186,36.75717079363409,0.7143150594332093,0.5773802886601308,A,510.7659999994212,Correct,sub_004_day_04_data.csv,1,300,24.0,Training at home,,,,,,,,,,,,,
4,4,621,A,33.594263524030055,60.136599076930736,1.6797131762015027,0.9446234893598016,A,551.7778000030376,Correct,sub_004_day_04_data.csv,1,300,24.0,Training at home,,,,,,,,,,,,,
4,4,622,B,36.28717500347496,14.375124017652436,1.8143587501737477,0.2258039200414954,B,627.481200001057,Correct,sub_004_day_04_data.csv,1,300,24.0,Training at home,,,,,,,,,,,,,
4,4,623,A,60.643540767510785,69.76346995088446,3.032177038375539,1.0958420234331545,B,1078.8848000011058,Incorrect,sub_004_day_04_data.csv,0,300,24.0,Training at home,,,,,,,,,,,,,
4,4,624,A,26.266887434457693,53.38800156425179,1.3133443717228843,0.8386167675204691,A,404.1460999978881,Correct,sub_004_day_04_data.csv,1,300,24.0,Training at home,,,,,,,,,,,,,
4,4,625,A,12.625494233155049,40.080859938798994,0.6312747116577525,0.6295886756664618,A,494.67939999885857,Correct,sub_004_day_04_data.csv,1,300,25.0,Training at home,,,,,,,,,,,,,
4,4,626,A,51.82255844917927,66.04048389163894,2.5911279224589636,1.03736149516744,A,927.7555000007852,Correct,sub_004_day_04_data.csv,1,300,25.0,Training at home,,,,,,,,,,,,,
4,4,627,A,25.620081856553902,55.01325595761085,1.2810040928276951,0.8641462038324259,A,428.1845000004978,Correct,sub_004_day_04_data.csv,1,300,25.0,Training at home,,,,,,,,,,,,,
4,4,628,B,67.80641082896251,36.22517675614723,3.3903205414481254,0.5690237458605193,B,684.3576000028406,Correct,sub_004_day_04_data.csv,1,300,25.0,Training at home,,,,,,,,,,,,,
4,4,629,B,56.62311091040433,49.09142432812729,2.8311555455202164,0.7711262901175198,B,727.5685999993584,Correct,sub_004_day_04_data.csv,1,300,25.0,Training at home,,,,,,,,,,,,,
4,4,630,B,36.707102329198726,11.51535770340039,1.8353551164599364,0.1808828158223064,A,415.0713999988511,Incorrect,sub_004_day_04_data.csv,0,300,25.0,Training at home,,,,,,,,,,,,,
4,4,631,A,46.938822231185945,65.19003835379335,2.3469411115592975,1.0240027278975703,A,541.9712000002619,Correct,sub_004_day_04_data.csv,1,300,25.0,Training at home,,,,,,,,,,,,,
4,4,632,B,40.68729533998217,24.73156869788424,2.0343647669991087,0.388482572665122,B,744.4883999996819,Correct,sub_004_day_04_data.csv,1,300,25.0,Training at home,,,,,,,,,,,,,
4,4,633,B,45.604539150474125,19.39095295436779,2.2802269575237064,0.3045923767377357,B,618.3314000008977,Correct,sub_004_day_04_data.csv,1,300,25.0,Training at home,,,,,,,,,,,,,
4,4,634,A,24.024325710197093,35.845576925342655,1.2012162855098547,0.5630610056617213,A,488.40560000098776,Correct,sub_004_day_04_data.csv,1,300,25.0,Training at home,,,,,,,,,,,,,
4,4,635,B,47.80698491577752,32.89784022170222,2.390349245788876,0.5167580657973525,A,913.340099999914,Incorrect,sub_004_day_04_data.csv,0,300,25.0,Training at home,,,,,,,,,,,,,
4,4,636,A,41.511941383906375,73.96002101390052,2.075597069195319,1.161761293383083,A,640.0856000000203,Correct,sub_004_day_04_data.csv,1,300,25.0,Training at home,,,,,,,,,,,,,
4,4,637,B,54.07438616080384,22.71086283844161,2.703719308040192,0.356741399249668,B,654.7836999998253,Correct,sub_004_day_04_data.csv,1,300,25.0,Training at home,,,,,,,,,,,,,
4,4,638,B,72.9279480328884,42.4958041178067,3.6463974016444194,0.667522530124462,B,526.9422000019404,Correct,sub_004_day_04_data.csv,1,300,25.0,Training at home,,,,,,,,,,,,,
4,4,639,A,48.622669002435295,77.38546497419873,2.4311334501217647,1.2155680412878649,A,429.6519999988959,Correct,sub_004_day_04_data.csv,1,300,25.0,Training at home,,,,,,,,,,,,,
4,4,640,B,79.11204335958615,51.17682295357202,3.955602167979307,0.8038836551250368,B,744.2128000002413,Correct,sub_004_day_04_data.csv,1,300,25.0,Training at home,,,,,,,,,,,,,
4,4,641,B,61.90849469019422,45.855091888938254,3.0954247345097112,0.7202900990398666,B,589.5961999995052,Correct,sub_004_day_04_data.csv,1,300,25.0,Training at home,,,,,,,,,,,,,
4,4,642,B,46.74149351839742,39.74794583764108,2.337074675919871,0.6243592731940911,A,808.6648999997124,Incorrect,sub_004_day_04_data.csv,0,300,25.0,Training at home,,,,,,,,,,,,,
4,4,643,A,23.17003402249101,43.93153911588908,1.1585017011245504,0.6900750027368489,A,614.5642000010412,Correct,sub_004_day_04_data.csv,1,300,25.0,Training at home,,,,,,,,,,,,,
4,4,644,B,32.941455526919896,17.226929966042256,1.6470727763459947,0.270599983126121,A,511.7071999993641,Incorrect,sub_004_day_04_data.csv,0,300,25.0,Training at home,,,,,,,,,,,,,
4,4,645,B,55.55142813212569,23.77930678560196,2.7775714066062847,0.3735244775255252,B,624.1736999982095,Correct,sub_004_day_04_data.csv,1,300,25.0,Training at home,,,,,,,,,,,,,
4,4,646,B,58.007607448294095,35.12412969196837,2.9003803724147046,0.5517285390201148,B,557.0953999995254,Correct,sub_004_day_04_data.csv,1,300,25.0,Training at home,,,,,,,,,,,,,
4,4,647,A,55.584003266317715,67.53096786016633,2.7792001633158856,1.060773962596535,A,496.2946000014199,Correct,sub_004_day_04_data.csv,1,300,25.0,Training at home,,,,,,,,,,,,,
4,4,648,B,87.18290865557168,67.74102011543462,4.359145432778584,1.064073455706639,B,537.6716000027955,Correct,sub_004_day_04_data.csv,1,300,25.0,Training at home,,,,,,,,,,,,,
4,4,649,B,57.72183056185781,28.24514394355212,2.8860915280928903,0.4436736835632479,B,781.5274999993562,Correct,sub_004_day_04_data.csv,1,300,25.0,Training at home,,,,,,,,,,,,,
4,4,650,B,44.97145594407856,22.486250414727856,2.248572797203928,0.3532131955484473,B,694.0170999987458,Correct,sub_004_day_04_data.csv,1,300,26.0,Training at home,,,,,,,,,,,,,
4,4,651,B,69.31769416219402,40.688131830106464,3.4658847081097006,0.6391276802287774,B,772.0938999991631,Correct,sub_004_day_04_data.csv,1,300,26.0,Training at home,,,,,,,,,,,,,
4,4,652,A,56.402180598004506,79.20054609358712,2.8201090299002254,1.2440792688395654,A,571.3966000002983,Correct,sub_004_day_04_data.csv,1,300,26.0,Training at home,,,,,,,,,,,,,
4,4,653,A,41.55181888418123,59.30623415674343,2.0775909442090614,0.931580147694506,A,584.7854000021471,Correct,sub_004_day_04_data.csv,1,300,26.0,Training at home,,,,,,,,,,,,,
4,4,654,B,47.37602829676636,19.6669227979507,2.368801414838318,0.3089273009037977,B,481.8777999971644,Correct,sub_004_day_04_data.csv,1,300,26.0,Training at home,,,,,,,,,,,,,
4,4,655,B,60.39892906836471,44.08201921594402,3.019946453418236,0.6924387386210691,B,714.3653000021004,Correct,sub_004_day_04_data.csv,1,300,26.0,Training at home,,,,,,,,,,,,,
4,4,656,A,50.61338563351599,81.53531155857688,2.530669281675799,1.2807536790029004,A,456.92269999926793,Correct,sub_004_day_04_data.csv,1,300,26.0,Training at home,,,,,,,,,,,,,
4,4,657,B,81.55277696821396,64.44906215163633,4.077638848410698,1.0123635009316632,B,790.1700000002165,Correct,sub_004_day_04_data.csv,1,300,26.0,Training at home,,,,,,,,,,,,,
4,4,658,B,65.67716064182547,54.14399173028714,3.2838580320912736,0.850491833279483,B,862.3184999996738,Correct,sub_004_day_04_data.csv,1,300,26.0,Training at home,,,,,,,,,,,,,
4,4,659,A,32.57493442629824,41.40079361977322,1.628746721314912,0.6503221454433337,A,442.03059999927063,Correct,sub_004_day_04_data.csv,1,300,26.0,Training at home,,,,,,,,,,,,,
4,4,660,B,75.37212492768188,55.428149000115624,3.7686062463840937,0.8706633285042186,B,575.6347999995342,Correct,sub_004_day_04_data.csv,1,300,26.0,Training at home,,,,,,,,,,,,,
4,4,661,B,76.52119937844799,64.80232789270194,3.826059968922399,1.0179125862161469,B,479.63399999935064,Correct,sub_004_day_04_data.csv,1,300,26.0,Training at home,,,,,,,,,,,,,
4,4,662,B,75.54411017536025,53.35932101038119,3.777205508768012,0.8381662544337651,B,447.67720000163536,Correct,sub_004_day_04_data.csv,1,300,26.0,Training at home,,,,,,,,,,,,,
4,4,663,A,45.50872521126249,55.56659850494296,2.2754362605631244,0.8728380882405119,A,801.7625000029511,Correct,sub_004_day_04_data.csv,1,300,26.0,Training at home,,,,,,,,,,,,,
4,4,664,A,39.37643949178191,60.73788640607347,1.9688219745890956,0.9540684886394588,A,1429.7146999997494,Correct,sub_004_day_04_data.csv,1,300,26.0,Training at home,,,,,,,,,,,,,
4,4,665,B,71.06393172285117,42.80177679760444,3.5531965861425583,0.6723287377397208,B,529.0389000001596,Correct,sub_004_day_04_data.csv,1,300,26.0,Training at home,,,,,,,,,,,,,
4,4,666,A,49.985149244376984,66.11982941322039,2.4992574622188495,1.0386078517059174,A,529.5468000003893,Correct,sub_004_day_04_data.csv,1,300,26.0,Training at home,,,,,,,,,,,,,
4,4,667,B,46.46880863015092,35.24480159392226,2.323440431507546,0.55362404882348,B,1081.9327999997768,Correct,sub_004_day_04_data.csv,1,300,26.0,Training at home,,,,,,,,,,,,,
4,4,668,A,32.792011323068955,41.70128412769793,1.6396005661534476,0.6550422393041823,A,746.002400002908,Correct,sub_004_day_04_data.csv,1,300,26.0,Training at home,,,,,,,,,,,,,
4,4,669,B,33.708834227085234,12.462447627379149,1.6854417113542617,0.1957596695596094,B,582.0631999995385,Correct,sub_004_day_04_data.csv,1,300,26.0,Training at home,,,,,,,,,,,,,
4,4,670,B,32.32235666006306,15.930733301839211,1.616117833003153,0.2502393735367816,B,519.1147000005003,Correct,sub_004_day_04_data.csv,1,300,26.0,Training at home,,,,,,,,,,,,,
4,4,671,A,34.170544863214275,59.04099081245077,1.7085272431607137,0.927413714985289,A,658.2237000002351,Correct,sub_004_day_04_data.csv,1,300,26.0,Training at home,,,,,,,,,,,,,
4,4,672,A,69.6663723855499,88.37742670145843,3.483318619277495,1.388229372342361,B,998.1398999989324,Incorrect,sub_004_day_04_data.csv,0,300,26.0,Training at home,,,,,,,,,,,,,
4,4,673,B,86.85656568384556,59.41517333935163,4.3428282841922785,0.933291360373356,B,647.8442000006908,Correct,sub_004_day_04_data.csv,1,300,26.0,Training at home,,,,,,,,,,,,,
4,4,674,A,53.25469057932953,78.66363699558619,2.6627345289664763,1.235645520449939,A,567.0611999994435,Correct,sub_004_day_04_data.csv,1,300,26.0,Training at home,,,,,,,,,,,,,
4,4,675,B,45.953669726266504,16.046802655552714,2.2976834863133253,0.2520625866814479,A,417.8429999992659,Incorrect,sub_004_day_04_data.csv,0,300,27.0,Training at home,,,,,,,,,,,,,
4,4,676,A,24.39297924899371,53.01367041220831,1.2196489624496856,0.8327367875341212,A,487.8938999972888,Correct,sub_004_day_04_data.csv,1,300,27.0,Training at home,,,,,,,,,,,,,
4,4,677,A,33.2741932207687,45.46015153480033,1.663709661038435,0.7140863904640374,A,707.6505000004545,Correct,sub_004_day_04_data.csv,1,300,27.0,Training at home,,,,,,,,,,,,,
4,4,678,B,72.39502971183185,62.909500062654246,3.6197514855915927,0.988180116189206,B,447.1916999973473,Correct,sub_004_day_04_data.csv,1,300,27.0,Training at home,,,,,,,,,,,,,
4,4,679,A,66.30365989617263,82.9516848178788,3.3151829948086315,1.30300201813372,B,561.2585000017134,Incorrect,sub_004_day_04_data.csv,0,300,27.0,Training at home,,,,,,,,,,,,,
4,4,680,A,59.041781434470565,74.48273250577175,2.9520890717235284,1.1699720262971312,B,958.7735000022803,Incorrect,sub_004_day_04_data.csv,0,300,27.0,Training at home,,,,,,,,,,,,,
4,4,681,B,52.82282933272656,42.2997794304274,2.6411414666363275,0.6644433815354969,A,556.2381999989157,Incorrect,sub_004_day_04_data.csv,0,300,27.0,Training at home,,,,,,,,,,,,,
4,4,682,B,55.85981797912926,47.23633899823782,2.792990898956463,0.7419866778967049,B,1508.8862000011432,Correct,sub_004_day_04_data.csv,1,300,27.0,Training at home,,,,,,,,,,,,,
4,4,683,B,59.71184971908938,27.559565264370637,2.9855924859544687,0.4329046388533761,B,620.7881000009365,Correct,sub_004_day_04_data.csv,1,300,27.0,Training at home,,,,,,,,,,,,,
4,4,684,B,38.29642789626507,19.49199691489815,1.9148213948132535,0.3061795715581946,B,552.7368000002753,Correct,sub_004_day_04_data.csv,1,300,27.0,Training at home,,,,,,,,,,,,,
4,4,685,A,43.15274243768128,57.729869227144945,2.1576371218840644,0.9068186652834902,A,681.9645000032324,Correct,sub_004_day_04_data.csv,1,300,27.0,Training at home,,,,,,,,,,,,,
4,4,686,A,16.504378652300243,30.940423105378773,0.8252189326150122,0.4860110296340892,A,631.7439999984344,Correct,sub_004_day_04_data.csv,1,300,27.0,Training at home,,,,,,,,,,,,,
4,4,687,A,16.389042718075128,37.07350902919752,0.8194521359037564,0.582349318044609,A,567.7809000007983,Correct,sub_004_day_04_data.csv,1,300,27.0,Training at home,,,,,,,,,,,,,
4,4,688,A,51.45509964217912,62.01636259666362,2.5727549821089557,0.974150745680196,B,752.0487000001594,Incorrect,sub_004_day_04_data.csv,0,300,27.0,Training at home,,,,,,,,,,,,,
4,4,689,B,58.90009669982885,45.13398690443354,2.9450048349914426,0.7089630084309317,B,1278.275799999392,Correct,sub_004_day_04_data.csv,1,300,27.0,Training at home,,,,,,,,,,,,,
4,4,690,A,31.338929193242897,53.709183647414555,1.566946459662145,0.843661883885113,A,2073.1600999970397,Correct,sub_004_day_04_data.csv,1,300,27.0,Training at home,,,,,,,,,,,,,
4,4,691,A,42.95528303010197,69.12756727323074,2.1477641515050983,1.0858532875305795,A,3261.020900001313,Correct,sub_004_day_04_data.csv,1,300,27.0,Training at home,,,,,,,,,,,,,
4,4,692,A,51.60916340453352,58.757384861586615,2.580458170226676,0.9229588431265432,A,1287.3154000008071,Correct,sub_004_day_04_data.csv,1,300,27.0,Training at home,,,,,,,,,,,,,
4,4,693,B,46.52102380089504,27.120263234631462,2.3260511900447516,0.4260040987066978,A,1496.7118999993545,Incorrect,sub_004_day_04_data.csv,0,300,27.0,Training at home,,,,,,,,,,,,,
4,4,694,B,48.751569648676934,25.05738683420224,2.437578482433847,0.3936005119824368,B,1698.0479000012565,Correct,sub_004_day_04_data.csv,1,300,27.0,Training at home,,,,,,,,,,,,,
4,4,695,B,62.63999002671344,47.853734843008645,3.131999501335672,0.7516847091481494,A,1278.8625000030152,Incorrect,sub_004_day_04_data.csv,0,300,27.0,Training at home,,,,,,,,,,,,,
4,4,696,A,44.83462125290878,60.92512768575281,2.241731062645439,0.9570096677829056,A,2075.326999998651,Correct,sub_004_day_04_data.csv,1,300,27.0,Training at home,,,,,,,,,,,,,
4,4,697,A,28.366871337159385,59.10475026126901,1.4183435668579694,0.9284152460653106,A,570.5276000007871,Correct,sub_004_day_04_data.csv,1,300,27.0,Training at home,,,,,,,,,,,,,
4,4,698,B,50.08418085884032,28.89033701295559,2.504209042942016,0.4538083525981728,B,824.3462999998883,Correct,sub_004_day_04_data.csv,1,300,27.0,Training at home,,,,,,,,,,,,,
4,4,699,B,41.017856402322366,13.488133123096564,2.0508928201161183,0.2118710996508066,B,724.3127999972785,Correct,sub_004_day_04_data.csv,1,300,27.0,Training at home,,,,,,,,,,,,,
4,4,700,B,70.7437481481274,54.641568043099745,3.53718740740637,0.8583077437241449,B,621.0008999987622,Correct,sub_004_day_04_data.csv,1,300,28.0,Training at home,,,,,,,,,,,,,
4,4,701,B,62.68104897704212,36.07616461527281,3.134052448852106,0.5666830686251856,B,548.4926999997697,Correct,sub_004_day_04_data.csv,1,300,28.0,Training at home,,,,,,,,,,,,,
4,4,702,A,28.998997439217145,60.43840284985118,1.449949871960857,0.9493642119389644,A,702.6793000004545,Correct,sub_004_day_04_data.csv,1,300,28.0,Training at home,,,,,,,,,,,,,
4,4,703,A,45.35530468309758,77.50612482507793,2.267765234154879,1.2174633617933917,A,745.4888000029314,Correct,sub_004_day_04_data.csv,1,300,28.0,Training at home,,,,,,,,,,,,,
4,4,704,A,40.404854888122,66.17765700656457,2.0202427444061,1.0395162054180418,A,825.9111999977904,Correct,sub_004_day_04_data.csv,1,300,28.0,Training at home,,,,,,,,,,,,,
4,4,705,B,77.62190912094509,63.72145221449195,3.8810954560472544,1.0009342307656048,B,739.9566999993112,Correct,sub_004_day_04_data.csv,1,300,28.0,Training at home,,,,,,,,,,,,,
4,4,706,A,48.12666405586132,59.91169450228072,2.406333202793066,0.9410906965624056,A,773.728399999527,Correct,sub_004_day_04_data.csv,1,300,28.0,Training at home,,,,,,,,,,,,,
4,4,707,B,59.95227404176876,44.78768385125341,2.997613702088438,0.7035232927919997,B,634.3565999995917,Correct,sub_004_day_04_data.csv,1,300,28.0,Training at home,,,,,,,,,,,,,
4,4,708,B,56.12889163106235,32.99277158360106,2.8064445815531176,0.518249244143036,B,638.786199997412,Correct,sub_004_day_04_data.csv,1,300,28.0,Training at home,,,,,,,,,,,,,
4,4,709,B,65.44776277775266,42.41929102226603,3.272388138887633,0.6663206652301921,B,543.1481000014173,Correct,sub_004_day_04_data.csv,1,300,28.0,Training at home,,,,,,,,,,,,,
4,4,710,A,49.769233283972945,68.30486164149289,2.4884616641986472,1.0729302576869066,A,767.3709000009694,Correct,sub_004_day_04_data.csv,1,300,28.0,Training at home,,,,,,,,,,,,,
4,4,711,A,23.652288835533717,50.39604961918623,1.1826144417766855,0.7916192962679106,A,2309.764699999505,Correct,sub_004_day_04_data.csv,1,300,28.0,Training at home,,,,,,,,,,,,,
4,4,712,A,24.70476796247276,48.34172891644755,1.235238398123638,0.7593501021287045,A,933.8218999982928,Correct,sub_004_day_04_data.csv,1,300,28.0,Training at home,,,,,,,,,,,,,
4,4,713,B,63.319624406296114,45.78788305552243,3.1659812203148054,0.7192343851532891,B,585.4024000000209,Correct,sub_004_day_04_data.csv,1,300,28.0,Training at home,,,,,,,,,,,,,
4,4,714,B,66.55996110808923,35.48409042071188,3.3279980554044615,0.5573827889251219,B,641.4573000001837,Correct,sub_004_day_04_data.csv,1,300,28.0,Training at home,,,,,,,,,,,,,
4,4,715,A,52.29843912341872,67.81704850646169,2.6149219561709356,1.0652677068802137,A,580.4621000024781,Correct,sub_004_day_04_data.csv,1,300,28.0,Training at home,,,,,,,,,,,,,
4,4,716,B,42.073720068517694,33.83286315236504,2.1036860034258846,0.5314453716468941,A,1200.5180999985896,Incorrect,sub_004_day_04_data.csv,0,300,28.0,Training at home,,,,,,,,,,,,,
4,4,717,B,67.53773869186604,55.525953785598986,3.3768869345933017,0.8721996424820206,B,630.9371999996074,Correct,sub_004_day_04_data.csv,1,300,28.0,Training at home,,,,,,,,,,,,,
4,4,718,B,82.40264618355019,57.87390567456711,4.120132309177509,0.9090811845088436,B,511.1901999989641,Correct,sub_004_day_04_data.csv,1,300,28.0,Training at home,,,,,,,,,,,,,
4,4,719,B,74.51152943937976,42.762366522458706,3.725576471968988,0.6717096825853519,B,456.53390000006766,Correct,sub_004_day_04_data.csv,1,300,28.0,Training at home,,,,,,,,,,,,,
4,4,720,B,89.15219079557829,66.36277660686284,4.457609539778915,1.0424240572997043,B,410.048599998845,Correct,sub_004_day_04_data.csv,1,300,28.0,Training at home,,,,,,,,,,,,,
4,4,721,B,42.61528867887879,30.76143419707822,2.1307644339439396,0.4831994784371338,A,559.9165999992692,Incorrect,sub_004_day_04_data.csv,0,300,28.0,Training at home,,,,,,,,,,,,,
4,4,722,A,52.98879778459917,65.37949014527106,2.6494398892299587,1.0269786296791492,A,787.7392000009422,Correct,sub_004_day_04_data.csv,1,300,28.0,Training at home,,,,,,,,,,,,,
4,4,723,B,76.95676793964446,53.26053945538352,3.8478383969822234,0.836614597396311,B,687.0185999978276,Correct,sub_004_day_04_data.csv,1,300,28.0,Training at home,,,,,,,,,,,,,
4,4,724,B,78.12112413914993,65.38610253349306,3.906056206957496,1.0270824968304535,B,433.545600000798,Correct,sub_004_day_04_data.csv,1,300,28.0,Training at home,,,,,,,,,,,,,
4,4,725,A,42.36853020367975,57.69225262329932,2.1184265101839874,0.9062277850520182,A,460.7345999975223,Correct,sub_004_day_04_data.csv,1,300,29.0,Training at home,,,,,,,,,,,,,
4,4,726,A,35.502917526125614,47.494591398166335,1.7751458763062806,0.7460432971086418,A,788.6543999993592,Correct,sub_004_day_04_data.csv,1,300,29.0,Training at home,,,,,,,,,,,,,
4,4,727,B,54.94332434753987,33.22375171001401,2.7471662173769937,0.5218774714843567,B,527.8302000006079,Correct,sub_004_day_04_data.csv,1,300,29.0,Training at home,,,,,,,,,,,,,
4,4,728,B,48.6013190986601,23.15722914303415,2.430065954933005,0.3637529047662577,B,850.7662999982131,Correct,sub_004_day_04_data.csv,1,300,29.0,Training at home,,,,,,,,,,,,,
4,4,729,B,38.96057420535691,27.123493549791476,1.9480287102678455,0.4260548403785752,A,603.3057999993616,Incorrect,sub_004_day_04_data.csv,0,300,29.0,Training at home,,,,,,,,,,,,,
4,4,730,B,70.72028062813902,39.91921299441628,3.536014031406951,0.6270495314017219,B,911.8164999999864,Correct,sub_004_day_04_data.csv,1,300,29.0,Training at home,,,,,,,,,,,,,
4,4,731,B,50.892337705411,22.319054640874175,2.54461688527055,0.3505868904741974,A,1028.9861999990535,Incorrect,sub_004_day_04_data.csv,0,300,29.0,Training at home,,,,,,,,,,,,,
4,4,732,A,47.50799648665517,69.56916220375994,2.3753998243327588,1.0927898444786446,A,584.2755000012403,Correct,sub_004_day_04_data.csv,1,300,29.0,Training at home,,,,,,,,,,,,,
4,4,733,B,64.5714249806215,54.06782762716848,3.228571249031075,0.8492954503453588,A,809.678099998564,Incorrect,sub_004_day_04_data.csv,0,300,29.0,Training at home,,,,,,,,,,,,,
4,4,734,A,43.616393173563445,55.01379262944016,2.180819658678172,0.8641546338538076,A,847.9832000011811,Correct,sub_004_day_04_data.csv,1,300,29.0,Training at home,,,,,,,,,,,,,
4,4,735,A,43.71137814311473,71.41082351163993,2.1855689071557363,1.1217185926548263,A,1312.9215000008116,Correct,sub_004_day_04_data.csv,1,300,29.0,Training at home,,,,,,,,,,,,,
4,4,736,A,45.129151839044674,57.08768826954791,2.2564575919522336,0.8967313103901797,A,906.8659000004118,Correct,sub_004_day_04_data.csv,1,300,29.0,Training at home,,,,,,,,,,,,,
4,4,737,B,37.89652980397126,20.954012918713214,1.894826490198563,0.3291448652432752,B,847.0511000014085,Correct,sub_004_day_04_data.csv,1,300,29.0,Training at home,,,,,,,,,,,,,
4,4,738,A,30.423746456793612,44.505259995283026,1.5211873228396806,0.6990869892364243,A,597.0266000003903,Correct,sub_004_day_04_data.csv,1,300,29.0,Training at home,,,,,,,,,,,,,
4,4,739,A,61.731203084519855,70.63545803576288,3.086560154225993,1.109539180240514,B,603.4355000010692,Incorrect,sub_004_day_04_data.csv,0,300,29.0,Training at home,,,,,,,,,,,,,
4,4,740,B,44.37722729546281,18.93729393328564,2.218861364773141,0.2974663174984036,B,622.602100000222,Correct,sub_004_day_04_data.csv,1,300,29.0,Training at home,,,,,,,,,,,,,
4,4,741,A,24.94082131120368,37.40941000978839,1.247041065560184,0.5876256383093983,A,523.2934000014211,Correct,sub_004_day_04_data.csv,1,300,29.0,Training at home,,,,,,,,,,,,,
4,4,742,B,40.772045952567254,14.268169053481063,2.038602297628363,0.2241238753929667,B,513.1650000002992,Correct,sub_004_day_04_data.csv,1,300,29.0,Training at home,,,,,,,,,,,,,
4,4,743,B,35.291085040922816,15.524491579423923,1.7645542520461408,0.243858143483174,A,570.0363999967522,Incorrect,sub_004_day_04_data.csv,0,300,29.0,Training at home,,,,,,,,,,,,,
4,4,744,A,57.8570761603942,86.57674486996316,2.89285380801971,1.3599443282759704,A,897.8714000004402,Correct,sub_004_day_04_data.csv,1,300,29.0,Training at home,,,,,,,,,,,,,
4,4,745,A,54.18728907922426,62.92204684799323,2.7093644539612125,0.9883772006324416,A,53612.70560000048,Correct,sub_004_day_04_data.csv,1,300,29.0,Training at home,,,,,,,,,,,,,
4,4,746,A,44.1700032285212,63.43487019376671,2.2085001614260604,0.9964326109107982,A,7441.339199998765,Correct,sub_004_day_04_data.csv,1,300,29.0,Training at home,,,,,,,,,,,,,
4,4,747,B,66.36673163963377,45.673077030051864,3.318336581981689,0.7174310163222583,B,1073.9968000016231,Correct,sub_004_day_04_data.csv,1,300,29.0,Training at home,,,,,,,,,,,,,
4,4,748,A,65.83715256666083,79.07277897533982,3.291857628333042,1.2420723076392852,A,2026.9449000006716,Correct,sub_004_day_04_data.csv,1,300,29.0,Training at home,,,,,,,,,,,,,
4,4,749,B,74.07907659174869,42.272620703821254,3.703953829587434,0.6640167732555632,B,3282.2511000013037,Correct,sub_004_day_04_data.csv,1,300,29.0,Training at home,,,,,,,,,,,,,
4,4,750,A,54.76339111157266,65.45553099765348,2.738169555578633,1.028173076595236,A,1519.241199999669,Correct,sub_004_day_04_data.csv,1,300,30.0,Training at home,,,,,,,,,,,,,
4,4,751,A,57.23096546568947,78.81702106539538,2.8615482732844737,1.2380548717843904,A,1119.0050000004703,Correct,sub_004_day_04_data.csv,1,300,30.0,Training at home,,,,,,,,,,,,,
4,4,752,A,65.88332327349787,78.09730550735041,3.2941661636748933,1.2267496062352488,B,1117.497999999614,Incorrect,sub_004_day_04_data.csv,0,300,30.0,Training at home,,,,,,,,,,,,,
4,4,753,A,21.225679879855463,48.00877337202764,1.0612839939927732,0.7541200486670966,A,524.6439000002283,Correct,sub_004_day_04_data.csv,1,300,30.0,Training at home,,,,,,,,,,,,,
4,4,754,B,51.42023159980454,29.979472965855237,2.571011579990227,0.4709164601401231,B,946.4995000016644,Correct,sub_004_day_04_data.csv,1,300,30.0,Training at home,,,,,,,,,,,,,
4,4,755,A,22.264011250208288,50.82591443637117,1.1132005625104144,0.7983715970264353,A,470.8138999994844,Correct,sub_004_day_04_data.csv,1,300,30.0,Training at home,,,,,,,,,,,,,
4,4,756,B,63.5979694979277,49.201219915278,3.179898474896385,0.7728509551674659,B,358.0831999970542,Correct,sub_004_day_04_data.csv,1,300,30.0,Training at home,,,,,,,,,,,,,
4,4,757,A,57.13692631237075,76.3808647182299,2.8568463156185375,1.1997878173681344,B,595.4096999994363,Incorrect,sub_004_day_04_data.csv,0,300,30.0,Training at home,,,,,,,,,,,,,
4,4,758,B,41.03025172592143,24.194411453229502,2.0515125862960715,0.3800449263969728,A,456.7104000016115,Incorrect,sub_004_day_04_data.csv,0,300,30.0,Training at home,,,,,,,,,,,,,
4,4,759,A,55.91115879037948,76.1628643974631,2.795557939518974,1.1963634763371285,B,954.9999000009848,Incorrect,sub_004_day_04_data.csv,0,300,30.0,Training at home,,,,,,,,,,,,,
4,4,760,B,68.51040996388033,43.418261478289146,3.4255204981940164,0.6820124564591694,B,811.0839000000851,Correct,sub_004_day_04_data.csv,1,300,30.0,Training at home,,,,,,,,,,,,,
4,4,761,A,52.49950576059476,78.01603654783402,2.6249752880297375,1.225473036404341,A,897.2828999976628,Correct,sub_004_day_04_data.csv,1,300,30.0,Training at home,,,,,,,,,,,,,
4,4,762,B,44.1694211153015,21.621286780235646,2.208471055765075,0.3396263785497321,B,620.3045000002021,Correct,sub_004_day_04_data.csv,1,300,30.0,Training at home,,,,,,,,,,,,,
4,4,763,A,52.292222175004014,64.48428631915186,2.6146111087502004,1.0129168008611416,A,1010.1360000007844,Correct,sub_004_day_04_data.csv,1,300,30.0,Training at home,,,,,,,,,,,,,
4,4,764,A,49.44893557910524,75.13008067707413,2.4724467789552618,1.180140547593523,A,432.4790999999095,Correct,sub_004_day_04_data.csv,1,300,30.0,Training at home,,,,,,,,,,,,,
4,4,765,A,32.154840734420134,57.34434356143715,1.607742036721007,0.9007628422877004,A,641.8813999989652,Correct,sub_004_day_04_data.csv,1,300,30.0,Training at home,,,,,,,,,,,,,
4,4,766,A,39.227649826450005,51.84463934084488,1.9613824913225,0.8143736904060532,A,520.6557999990764,Correct,sub_004_day_04_data.csv,1,300,30.0,Training at home,,,,,,,,,,,,,
4,4,767,A,55.86364079429321,64.29445308857463,2.7931820397146607,1.009934907448198,A,684.3746000013198,Correct,sub_004_day_04_data.csv,1,300,30.0,Training at home,,,,,,,,,,,,,
4,4,768,A,54.93483039182079,64.14738723314505,2.746741519591039,1.007624802393141,A,439.4843000009132,Correct,sub_004_day_04_data.csv,1,300,30.0,Training at home,,,,,,,,,,,,,
4,4,769,A,15.542140479373083,38.193288398267384,0.7771070239686543,0.5999387712421654,A,563.9613999992434,Correct,sub_004_day_04_data.csv,1,300,30.0,Training at home,,,,,,,,,,,,,
4,4,770,A,17.181125301672708,40.84540058727566,0.8590562650836354,0.6415980520895872,A,939.0918999997666,Correct,sub_004_day_04_data.csv,1,300,30.0,Training at home,,,,,,,,,,,,,
4,4,771,A,35.85768609762073,66.63879114660325,1.7928843048810363,1.0467596835513666,A,657.7811999995902,Correct,sub_004_day_04_data.csv,1,300,30.0,Training at home,,,,,,,,,,,,,
4,4,772,B,41.1526909088699,17.518755505503808,2.057634545443495,0.2751839679806325,B,535.545099999581,Correct,sub_004_day_04_data.csv,1,300,30.0,Training at home,,,,,,,,,,,,,
4,4,773,A,56.393736873311674,70.10013649357687,2.8196868436655835,1.1011303691193144,A,781.6276000012294,Correct,sub_004_day_04_data.csv,1,300,30.0,Training at home,,,,,,,,,,,,,
4,4,774,A,35.19049386421693,54.291149053907006,1.7595246932108466,0.8528033751135135,A,639.9279999968712,Correct,sub_004_day_04_data.csv,1,300,30.0,Training at home,,,,,,,,,,,,,
4,4,775,B,68.18666340571339,49.719939591372594,3.4093331702856693,0.7809989847859222,B,839.7373000007065,Correct,sub_004_day_04_data.csv,1,300,31.0,Training at home,,,,,,,,,,,,,
4,4,776,A,35.797922752588285,63.92742021028432,1.7898961376294142,1.0041695684778844,A,528.2220000008238,Correct,sub_004_day_04_data.csv,1,300,31.0,Training at home,,,,,,,,,,,,,
4,4,777,B,43.11131649751624,16.79262951480787,2.1555658248758123,0.2637780075908777,B,575.847199997952,Correct,sub_004_day_04_data.csv,1,300,31.0,Training at home,,,,,,,,,,,,,
4,4,778,B,37.78147111988832,23.517831346769142,1.889073555994416,0.3694172309368685,B,477.1823000010045,Correct,sub_004_day_04_data.csv,1,300,31.0,Training at home,,,,,,,,,,,,,
4,4,779,A,56.01868903970998,85.1069270640492,2.8009344519854995,1.3368564841700965,A,802.1680999991077,Correct,sub_004_day_04_data.csv,1,300,31.0,Training at home,,,,,,,,,,,,,
4,4,780,A,31.66566824044496,48.39573646239042,1.583283412022248,0.760198450676567,B,1326.8032999985735,Incorrect,sub_004_day_04_data.csv,0,300,31.0,Training at home,,,,,,,,,,,,,
4,4,781,A,11.524377227620302,35.714730677530795,0.5762188613810152,0.5610056776073438,A,599.3023000009998,Correct,sub_004_day_04_data.csv,1,300,31.0,Training at home,,,,,,,,,,,,,
4,4,782,A,41.23839066945071,67.12134423940165,2.0619195334725355,1.054339609807879,A,542.9437999991933,Correct,sub_004_day_04_data.csv,1,300,31.0,Training at home,,,,,,,,,,,,,
4,4,783,B,74.08860675332262,60.78776032112397,3.704430337666131,0.9548519062651007,B,976.7070999987482,Correct,sub_004_day_04_data.csv,1,300,31.0,Training at home,,,,,,,,,,,,,
4,4,784,A,28.189511678781507,49.11584110702445,1.4094755839390751,0.771509827983558,A,2199.982699999964,Correct,sub_004_day_04_data.csv,1,300,31.0,Training at home,,,,,,,,,,,,,
4,4,785,A,14.769498318276256,33.808524590469155,0.7384749159138128,0.5310630624106388,A,797.8923999980907,Correct,sub_004_day_04_data.csv,1,300,31.0,Training at home,,,,,,,,,,,,,
4,4,786,B,45.67207800890152,21.33666587659133,2.283603900445076,0.3351555638499966,B,526.9144999983837,Correct,sub_004_day_04_data.csv,1,300,31.0,Training at home,,,,,,,,,,,,,
4,4,787,B,60.150034853267385,35.05238490094566,3.007501742663369,0.5506015744780635,B,580.3075000003446,Correct,sub_004_day_04_data.csv,1,300,31.0,Training at home,,,,,,,,,,,,,
4,4,788,B,85.2880121009471,56.1512010388212,4.264400605047355,0.8820210033690211,B,774.1743000005954,Correct,sub_004_day_04_data.csv,1,300,31.0,Training at home,,,,,,,,,,,,,
4,4,789,A,62.075267687167745,85.82235664477896,3.103763384358387,1.3480944257450038,A,705.3139000017836,Correct,sub_004_day_04_data.csv,1,300,31.0,Training at home,,,,,,,,,,,,,
4,4,790,A,57.32524815319162,82.33921259857155,2.8662624076595815,1.2933813270102026,A,641.8463000009069,Correct,sub_004_day_04_data.csv,1,300,31.0,Training at home,,,,,,,,,,,,,
4,4,791,B,46.05097548815567,26.784994919614896,2.3025487744077835,0.4207377163295104,B,597.2615999999107,Correct,sub_004_day_04_data.csv,1,300,31.0,Training at home,,,,,,,,,,,,,
4,4,792,B,78.73634013651824,49.080338250890065,3.936817006825912,0.7709521504234917,A,1502.8983000011067,Incorrect,sub_004_day_04_data.csv,0,300,31.0,Training at home,,,,,,,,,,,,,
4,4,793,A,50.184536251488495,77.08622429769231,2.509226812574425,1.2108675797330255,A,535.9110999997938,Correct,sub_004_day_04_data.csv,1,300,31.0,Training at home,,,,,,,,,,,,,
4,4,794,A,26.372787071383687,41.09808938432133,1.3186393535691845,0.6455672784318027,A,521.7548000000534,Correct,sub_004_day_04_data.csv,1,300,31.0,Training at home,,,,,,,,,,,,,
4,4,795,B,77.79004334260398,54.78762469810481,3.8895021671301993,0.860601996296004,B,1108.1391000006988,Correct,sub_004_day_04_data.csv,1,300,31.0,Training at home,,,,,,,,,,,,,
4,4,796,B,65.44440383585618,44.78162874771864,3.272220191792809,0.7034281794480918,B,609.8961999996391,Correct,sub_004_day_04_data.csv,1,300,31.0,Training at home,,,,,,,,,,,,,
4,4,797,B,50.02140734445754,35.91826947935062,2.5010703672228773,0.5642028576299319,B,850.511100001313,Correct,sub_004_day_04_data.csv,1,300,31.0,Training at home,,,,,,,,,,,,,
4,4,798,A,39.516776431824304,52.57449811029272,1.975838821591215,0.8258382851473305,A,1078.0440000016824,Correct,sub_004_day_04_data.csv,1,300,31.0,Training at home,,,,,,,,,,,,,
4,4,799,B,71.38508308303611,42.44789136605499,3.569254154151805,0.66676991837988,B,1498.915100000886,Correct,sub_004_day_04_data.csv,1,300,31.0,Training at home,,,,,,,,,,,,,
4,4,800,A,33.99505029482325,52.93024114045229,1.6997525147411623,0.8314262835979057,A,542.615599999408,Correct,sub_004_day_04_data.csv,1,300,32.0,Training at home,,,,,,,,,,,,,
4,4,801,B,88.19335747317777,68.6428367268866,4.409667873658889,1.078239157913753,B,1069.6537000003443,Correct,sub_004_day_04_data.csv,1,300,32.0,Training at home,,,,,,,,,,,,,
4,4,802,B,56.68597606254562,31.448060360868773,2.8342988031272807,0.4939849769967686,B,783.4820999996737,Correct,sub_004_day_04_data.csv,1,300,32.0,Training at home,,,,,,,,,,,,,
4,4,803,A,56.029499477920695,77.92944600704003,2.8014749738960347,1.2241128753701969,B,1879.3519999999264,Incorrect,sub_004_day_04_data.csv,0,300,32.0,Training at home,,,,,,,,,,,,,
4,4,804,A,40.88597600813207,65.35971271414063,2.0442988004066036,1.026667966517418,A,677.725500001543,Correct,sub_004_day_04_data.csv,1,300,32.0,Training at home,,,,,,,,,,,,,
4,4,805,B,50.65779462668357,24.35733136173749,2.5328897313341785,0.3826040663354338,B,652.530299998034,Correct,sub_004_day_04_data.csv,1,300,32.0,Training at home,,,,,,,,,,,,,
4,4,806,A,35.77392182221598,51.83258661854767,1.7886960911107992,0.81418436668693,A,1935.0376999973375,Correct,sub_004_day_04_data.csv,1,300,32.0,Training at home,,,,,,,,,,,,,
4,4,807,B,76.35328851260186,51.09595169689949,3.817664425630093,0.8026133323957918,B,486.1854000009771,Correct,sub_004_day_04_data.csv,1,300,32.0,Training at home,,,,,,,,,,,,,
4,4,808,B,50.66372006516252,33.75773817403511,2.533186003258126,0.5302653112467821,B,505.01900000017486,Correct,sub_004_day_04_data.csv,1,300,32.0,Training at home,,,,,,,,,,,,,
4,4,809,A,54.64988534724479,69.00593825963995,2.732494267362239,1.0839427434527784,A,979.6781999975792,Correct,sub_004_day_04_data.csv,1,300,32.0,Training at home,,,,,,,,,,,,,
4,4,810,A,35.33042954163911,64.44978578825078,1.7665214770819555,1.0123748677890223,A,621.9428999975207,Correct,sub_004_day_04_data.csv,1,300,32.0,Training at home,,,,,,,,,,,,,
4,4,811,B,36.62607766775504,16.057994926416608,1.831303883387752,0.2522383944610629,B,361.99760000090464,Correct,sub_004_day_04_data.csv,1,300,32.0,Training at home,,,,,,,,,,,,,
4,4,812,A,31.37171126548666,57.557291679847545,1.5685855632743329,0.90410782350967,A,1029.8847000012756,Correct,sub_004_day_04_data.csv,1,300,32.0,Training at home,,,,,,,,,,,,,
4,4,813,A,57.52788655737088,79.81673808849214,2.876394327868544,1.253758390061538,A,920.9814999994704,Correct,sub_004_day_04_data.csv,1,300,32.0,Training at home,,,,,,,,,,,,,
4,4,814,B,55.26194459449524,43.18562437268646,2.763097229724762,0.6783582013496006,B,1064.9775000019872,Correct,sub_004_day_04_data.csv,1,300,32.0,Training at home,,,,,,,,,,,,,
4,4,815,A,26.79043275545539,42.677442243356126,1.3395216377727694,0.6703756951286515,A,667.4974000015936,Correct,sub_004_day_04_data.csv,1,300,32.0,Training at home,,,,,,,,,,,,,
4,4,816,A,38.10567245928501,55.337411728627885,1.9052836229642507,0.8692380307766551,A,609.9044000002323,Correct,sub_004_day_04_data.csv,1,300,32.0,Training at home,,,,,,,,,,,,,
4,4,817,A,55.516574673069925,79.87977446365281,2.7758287336534964,1.2547485631271065,A,1332.910799999809,Correct,sub_004_day_04_data.csv,1,300,32.0,Training at home,,,,,,,,,,,,,
4,4,818,B,70.71147778738077,48.13570600491907,3.5355738893690387,0.7561139018020593,B,969.4318000001658,Correct,sub_004_day_04_data.csv,1,300,32.0,Training at home,,,,,,,,,,,,,
4,4,819,B,46.370272167571216,28.194529001203016,2.3185136083785607,0.4428786259080187,B,561.3889000014751,Correct,sub_004_day_04_data.csv,1,300,32.0,Training at home,,,,,,,,,,,,,
4,4,820,A,52.0161855763217,64.14655072140435,2.6008092788160853,1.0076116624974447,A,915.084599997499,Correct,sub_004_day_04_data.csv,1,300,32.0,Training at home,,,,,,,,,,,,,
4,4,821,B,59.92587727156253,30.721688559310607,2.996293863578126,0.482575155419019,B,660.6213000013668,Correct,sub_004_day_04_data.csv,1,300,32.0,Training at home,,,,,,,,,,,,,
4,4,822,A,39.91153700837961,51.76966688546503,1.9955768504189808,0.8131960258308385,A,482.8390000002401,Correct,sub_004_day_04_data.csv,1,300,32.0,Training at home,,,,,,,,,,,,,
4,4,823,B,35.8107929282578,10.495509937412836,1.7905396464128898,0.1648630845752741,B,540.1444000017364,Correct,sub_004_day_04_data.csv,1,300,32.0,Training at home,,,,,,,,,,,,,
4,4,824,B,48.46746952623406,32.11645700485639,2.423373476311703,0.5044841269289465,A,618.9610999972501,Incorrect,sub_004_day_04_data.csv,0,300,32.0,Training at home,,,,,,,,,,,,,
4,4,825,B,75.12794764058759,62.49105619403144,3.756397382029379,0.9816072152711806,A,480.43499999766937,Incorrect,sub_004_day_04_data.csv,0,300,33.0,Training at home,,,,,,,,,,,,,
4,4,826,A,55.19759697180323,80.05766578633803,2.7598798485901614,1.2575428734895324,A,804.3571999987762,Correct,sub_004_day_04_data.csv,1,300,33.0,Training at home,,,,,,,,,,,,,
4,4,827,B,55.9804289091007,37.147721009718055,2.7990214454550353,0.5835150371086673,B,570.9380999978748,Correct,sub_004_day_04_data.csv,1,300,33.0,Training at home,,,,,,,,,,,,,
4,4,828,A,54.56093897755714,83.09922138932187,2.728046948877857,1.3053195171786272,A,1279.169000001275,Correct,sub_004_day_04_data.csv,1,300,33.0,Training at home,,,,,,,,,,,,,
4,4,829,A,46.235541552840175,76.53347157980721,2.311777077642009,1.2021849603442278,A,1200.3335999979754,Correct,sub_004_day_04_data.csv,1,300,33.0,Training at home,,,,,,,,,,,,,
4,4,830,B,52.69645411846186,33.06217043212701,2.634822705923093,0.5193393587065194,B,652.1696999989217,Correct,sub_004_day_04_data.csv,1,300,33.0,Training at home,,,,,,,,,,,,,
4,4,831,A,42.59669759392789,50.723424644859165,2.129834879696394,0.7967616911460251,A,1447.5012999973842,Correct,sub_004_day_04_data.csv,1,300,33.0,Training at home,,,,,,,,,,,,,
4,4,832,A,57.79135892016053,78.00588703183251,2.8895679460080266,1.2253136081798015,B,507.0665999992343,Incorrect,sub_004_day_04_data.csv,0,300,33.0,Training at home,,,,,,,,,,,,,
4,4,833,A,19.23681743125221,48.88272515526592,0.9618408715626104,0.7678480511761621,A,514.7992999991402,Correct,sub_004_day_04_data.csv,1,300,33.0,Training at home,,,,,,,,,,,,,
4,4,834,A,44.0659189538356,74.12778947774002,2.20329594769178,1.164396594250594,A,562.6497999983258,Correct,sub_004_day_04_data.csv,1,300,33.0,Training at home,,,,,,,,,,,,,
4,4,835,A,26.891475365776483,48.81469615442009,1.344573768288824,0.7667794541297203,A,504.9378000003344,Correct,sub_004_day_04_data.csv,1,300,33.0,Training at home,,,,,,,,,,,,,
4,4,836,A,47.70887789065973,67.67117039239844,2.3854438945329863,1.0629762588229104,B,576.4792000009038,Incorrect,sub_004_day_04_data.csv,0,300,33.0,Training at home,,,,,,,,,,,,,
4,4,837,A,57.33956892292715,85.47653692395883,2.8669784461463577,1.3426623022730289,A,440.8437000020058,Correct,sub_004_day_04_data.csv,1,300,33.0,Training at home,,,,,,,,,,,,,
4,4,838,B,54.94451120931676,39.53076415179608,2.747225560465838,0.6209477912503665,B,1339.1788999979326,Correct,sub_004_day_04_data.csv,1,300,33.0,Training at home,,,,,,,,,,,,,
4,4,839,B,71.17535188778501,52.86145595922349,3.5587675943892507,0.8303458084977845,B,954.776700000366,Correct,sub_004_day_04_data.csv,1,300,33.0,Training at home,,,,,,,,,,,,,
4,4,840,A,35.85976766986525,64.43675418199894,1.7929883834932625,1.012170167796696,A,895.4694000021846,Correct,sub_004_day_04_data.csv,1,300,33.0,Training at home,,,,,,,,,,,,,
4,4,841,A,30.81685542915008,50.61144653867197,1.540842771457504,0.7950027431672221,A,619.8519999998098,Correct,sub_004_day_04_data.csv,1,300,33.0,Training at home,,,,,,,,,,,,,
4,4,842,A,19.416751649654003,39.05024030824039,0.9708375824827,0.6133997403664202,A,523.8695999978518,Correct,sub_004_day_04_data.csv,1,300,33.0,Training at home,,,,,,,,,,,,,
4,4,843,B,40.68426935064177,17.02688170532329,2.034213467532089,0.2674576323949305,B,767.8430999985721,Correct,sub_004_day_04_data.csv,1,300,33.0,Training at home,,,,,,,,,,,,,
4,4,844,B,53.74732920280431,32.81377494348274,2.687366460140215,0.515437571494971,B,1429.038499998569,Correct,sub_004_day_04_data.csv,1,300,33.0,Training at home,,,,,,,,,,,,,
4,4,845,B,48.57439308453071,27.26542865174271,2.4287196542265352,0.4282843517464577,B,518.8581000002159,Correct,sub_004_day_04_data.csv,1,300,33.0,Training at home,,,,,,,,,,,,,
4,4,846,A,27.331566663556096,53.71483806891689,1.3665783331778047,0.8437507033303733,A,650.5087000005005,Correct,sub_004_day_04_data.csv,1,300,33.0,Training at home,,,,,,,,,,,,,
4,4,847,B,62.8918500761562,49.313882432632155,3.14459250380781,0.7746206538517395,A,1664.046400001098,Incorrect,sub_004_day_04_data.csv,0,300,33.0,Training at home,,,,,,,,,,,,,
4,4,848,B,43.20886471890661,24.250601995492712,2.1604432359453307,0.3809275653708494,B,704.861099999107,Correct,sub_004_day_04_data.csv,1,300,33.0,Training at home,,,,,,,,,,,,,
4,4,849,B,50.537073494131626,34.7070377909795,2.5268536747065813,0.5451768747600225,B,383.5435000000871,Correct,sub_004_day_04_data.csv,1,300,33.0,Training at home,,,,,,,,,,,,,
4,4,850,A,51.691723500918144,68.32149921291489,2.5845861750459074,1.0731916000476711,A,1248.447000001761,Correct,sub_004_day_04_data.csv,1,300,34.0,Training at home,,,,,,,,,,,,,
4,4,851,B,87.01062342781198,61.42208583343637,4.350531171390599,0.964815868112427,B,844.5234999999229,Correct,sub_004_day_04_data.csv,1,300,34.0,Training at home,,,,,,,,,,,,,
4,4,852,A,27.15664059006924,41.76033779105294,1.357832029503462,0.6559698520790006,A,637.9042000007757,Correct,sub_004_day_04_data.csv,1,300,34.0,Training at home,,,,,,,,,,,,,
4,4,853,B,56.59973600123415,29.8698090938408,2.829986800061707,0.4691938640666992,B,574.5091999997385,Correct,sub_004_day_04_data.csv,1,300,34.0,Training at home,,,,,,,,,,,,,
4,4,854,A,27.282016267536065,51.307908451681456,1.3641008133768031,0.8059427413143007,A,524.7549999985495,Correct,sub_004_day_04_data.csv,1,300,34.0,Training at home,,,,,,,,,,,,,
4,4,855,B,55.41663408185394,30.712264644403945,2.7708317040926973,0.4824271249098248,B,563.677899997856,Correct,sub_004_day_04_data.csv,1,300,34.0,Training at home,,,,,,,,,,,,,
4,4,856,A,45.30129443297366,55.734968364864585,2.265064721648683,0.8754828358155905,A,743.7725000017963,Correct,sub_004_day_04_data.csv,1,300,34.0,Training at home,,,,,,,,,,,,,
4,4,857,A,34.04211708471929,62.180965959329,1.7021058542359642,0.976736329254725,A,525.9447999997064,Correct,sub_004_day_04_data.csv,1,300,34.0,Training at home,,,,,,,,,,,,,
4,4,858,A,49.588758994110506,71.76244317071462,2.4794379497055252,1.1272418213438604,A,670.6715999971493,Correct,sub_004_day_04_data.csv,1,300,34.0,Training at home,,,,,,,,,,,,,
4,4,859,B,70.54205430673727,45.55132006906671,3.5271027153368637,0.7155184624514864,B,895.1299999971525,Correct,sub_004_day_04_data.csv,1,300,34.0,Training at home,,,,,,,,,,,,,
4,4,860,B,78.79186190017741,56.20688884860774,3.9395930950088704,0.8828957454396207,B,596.1950999990222,Correct,sub_004_day_04_data.csv,1,300,34.0,Training at home,,,,,,,,,,,,,
4,4,861,A,29.97614087834917,45.02514006119363,1.4988070439174583,0.707253246215487,A,554.9236000006204,Correct,sub_004_day_04_data.csv,1,300,34.0,Training at home,,,,,,,,,,,,,
4,4,862,A,56.38751238723397,76.66441478119738,2.819375619361699,1.2042418113418525,A,945.9153999996488,Correct,sub_004_day_04_data.csv,1,300,34.0,Training at home,,,,,,,,,,,,,
4,4,863,B,42.58369219619358,23.2647578741104,2.1291846098096787,0.3654419621242526,B,705.1108999985445,Correct,sub_004_day_04_data.csv,1,300,34.0,Training at home,,,,,,,,,,,,,
4,4,864,B,51.37378347111254,31.15989434850333,2.568689173555627,0.4894584758594608,B,1067.9453000011565,Correct,sub_004_day_04_data.csv,1,300,34.0,Training at home,,,,,,,,,,,,,
4,4,865,A,27.797326707518124,43.829449461506954,1.3898663353759062,0.6884713821957769,A,1089.8769999985234,Correct,sub_004_day_04_data.csv,1,300,34.0,Training at home,,,,,,,,,,,,,
4,4,866,A,39.370218767822344,53.864313404880555,1.968510938391117,0.8460986564171548,A,886.444499999925,Correct,sub_004_day_04_data.csv,1,300,34.0,Training at home,,,,,,,,,,,,,
4,4,867,B,71.5433145574386,57.4837828956816,3.5771657278719307,0.9029531502281196,B,652.5738000018464,Correct,sub_004_day_04_data.csv,1,300,34.0,Training at home,,,,,,,,,,,,,
4,4,868,A,21.683814282403223,41.492881971880635,1.0841907141201614,0.6517686658956429,A,494.6737000027497,Correct,sub_004_day_04_data.csv,1,300,34.0,Training at home,,,,,,,,,,,,,
4,4,869,B,51.51207884283954,32.17954888118024,2.575603942141977,0.5054751718047474,B,631.9062000002305,Correct,sub_004_day_04_data.csv,1,300,34.0,Training at home,,,,,,,,,,,,,
4,4,870,A,51.64509441043127,67.14052237036002,2.5822547205215636,1.054640859184521,A,671.3651999998547,Correct,sub_004_day_04_data.csv,1,300,34.0,Training at home,,,,,,,,,,,,,
4,4,871,B,63.071618363348215,38.53340853882011,3.153580918167411,0.6052813659166574,B,688.0340000025171,Correct,sub_004_day_04_data.csv,1,300,34.0,Training at home,,,,,,,,,,,,,
4,4,872,A,57.69932163374678,66.5328468233627,2.8849660816873386,1.0450955140134564,A,889.4661000013002,Correct,sub_004_day_04_data.csv,1,300,34.0,Training at home,,,,,,,,,,,,,
4,4,873,A,31.723419107593536,52.40696265733855,1.5861709553796768,0.823206644406247,A,742.0038999989629,Correct,sub_004_day_04_data.csv,1,300,34.0,Training at home,,,,,,,,,,,,,
4,4,874,B,44.997265219882664,20.21928259222098,2.249863260994133,0.3176037482628872,B,348.84779999993043,Correct,sub_004_day_04_data.csv,1,300,34.0,Training at home,,,,,,,,,,,,,
4,4,875,B,71.84126621104582,60.36973507017344,3.592063310552291,0.9482855809780948,B,1840.8971999997448,Correct,sub_004_day_04_data.csv,1,300,35.0,Training at home,,,,,,,,,,,,,
4,4,876,B,59.288316676115386,38.20522670705713,2.9644158338057696,0.6001262977581162,B,757.7309999978752,Correct,sub_004_day_04_data.csv,1,300,35.0,Training at home,,,,,,,,,,,,,
4,4,877,A,62.592290503363714,78.35538460681576,3.1296145251681855,1.230803503249876,A,841.5037999984634,Correct,sub_004_day_04_data.csv,1,300,35.0,Training at home,,,,,,,,,,,,,
4,4,878,B,55.04618609271632,23.534668504871902,2.752309304635816,0.3696817083978833,B,479.78470000089146,Correct,sub_004_day_04_data.csv,1,300,35.0,Training at home,,,,,,,,,,,,,
4,4,879,A,65.02627999159027,83.63422824772562,3.251313999579514,1.313723385258534,B,517.1018999972148,Incorrect,sub_004_day_04_data.csv,0,300,35.0,Training at home,,,,,,,,,,,,,
4,4,880,B,42.88262362347387,34.24414541109477,2.1441311811736936,0.5379057782597798,A,601.3863000007404,Incorrect,sub_004_day_04_data.csv,0,300,35.0,Training at home,,,,,,,,,,,,,
4,4,881,A,28.043323107640155,40.004587622298615,1.402166155382008,0.6283905929205125,A,1014.0496999993048,Correct,sub_004_day_04_data.csv,1,300,35.0,Training at home,,,,,,,,,,,,,
4,4,882,B,44.07897566361378,19.276445834357585,2.203948783180689,0.3027937031026967,B,638.127499998518,Correct,sub_004_day_04_data.csv,1,300,35.0,Training at home,,,,,,,,,,,,,
4,4,883,B,54.44825617032345,23.842400941617196,2.7224128085161725,0.3745155582106347,B,595.6397000009019,Correct,sub_004_day_04_data.csv,1,300,35.0,Training at home,,,,,,,,,,,,,
4,4,884,A,42.33775422367816,74.71587230348379,2.116887711183908,1.173634177675889,A,1544.972499999858,Correct,sub_004_day_04_data.csv,1,300,35.0,Training at home,,,,,,,,,,,,,
4,4,885,B,70.3481372409552,59.18547878076156,3.51740686204776,0.9296833266841754,B,1612.7548000004026,Correct,sub_004_day_04_data.csv,1,300,35.0,Training at home,,,,,,,,,,,,,
4,4,886,B,63.49176368458093,55.90055331246786,3.174588184229046,0.8780838380902681,B,561.5911999993841,Correct,sub_004_day_04_data.csv,1,300,35.0,Training at home,,,,,,,,,,,,,
4,4,887,A,37.222992213281586,70.37984634053225,1.8611496106640797,1.1055240411209732,A,864.2197000008309,Correct,sub_004_day_04_data.csv,1,300,35.0,Training at home,,,,,,,,,,,,,
4,4,888,B,89.45145543412588,64.13853661716001,4.472572771706294,1.0074857772423491,B,574.7855000008713,Correct,sub_004_day_04_data.csv,1,300,35.0,Training at home,,,,,,,,,,,,,
4,4,889,A,24.115599714404283,52.98222450570799,1.205779985720214,0.8322428363898867,A,575.2611000025354,Correct,sub_004_day_04_data.csv,1,300,35.0,Training at home,,,,,,,,,,,,,
4,4,890,A,22.334076231527895,34.30250965628187,1.1167038115763948,0.5388225616793404,B,912.7355000018724,Incorrect,sub_004_day_04_data.csv,0,300,35.0,Training at home,,,,,,,,,,,,,
4,4,891,B,47.26308179793004,36.327617077916386,2.3631540898965024,0.5706328746720262,B,956.81759999934,Correct,sub_004_day_04_data.csv,1,300,35.0,Training at home,,,,,,,,,,,,,
4,4,892,A,27.41472842090352,50.823161792927166,1.370736421045176,0.7983283586043273,A,591.9463000027463,Correct,sub_004_day_04_data.csv,1,300,35.0,Training at home,,,,,,,,,,,,,
4,4,893,B,60.0176205694494,33.23450203749102,3.00088102847247,0.522046337233484,B,640.2847999997903,Correct,sub_004_day_04_data.csv,1,300,35.0,Training at home,,,,,,,,,,,,,
4,4,894,A,56.87215687366068,75.94761203216649,2.8436078436830337,1.1929823000897102,A,867.9121999994095,Correct,sub_004_day_04_data.csv,1,300,35.0,Training at home,,,,,,,,,,,,,
4,4,895,B,70.33844493311531,44.42007638523467,3.5169222466557652,0.6977489282187536,B,517.8169999999227,Correct,sub_004_day_04_data.csv,1,300,35.0,Training at home,,,,,,,,,,,,,
4,4,896,A,38.174296997916606,70.54104952636382,1.9087148498958304,1.1080562148426918,A,1026.7745000019204,Correct,sub_004_day_04_data.csv,1,300,35.0,Training at home,,,,,,,,,,,,,
4,4,897,B,81.59764027602341,54.67468566935595,4.07988201380117,0.8588279541808989,B,589.8782999975083,Correct,sub_004_day_04_data.csv,1,300,35.0,Training at home,,,,,,,,,,,,,
4,4,898,B,44.95571716496146,26.060832390679455,2.2477858582480734,0.4093625979249676,B,662.428200001159,Correct,sub_004_day_04_data.csv,1,300,35.0,Training at home,,,,,,,,,,,,,
4,4,899,A,21.18533717245572,40.54426787989472,1.059266858622786,0.6368678705832693,A,991.8714000014006,Correct,sub_004_day_04_data.csv,1,300,35.0,Training at home,,,,,,,,,,,,,
