subject,day,trial,cat,x,y,xt,yt,resp,rt,fb,f_name,acc,n_trials,block,session_type,ns_left_digit,ns_right_digit,ns_left_size,ns_right_size,ns_congruent,ns_cue,ns_correct_side,ns_resp,ns_rt,ns_fb,acc_stroop,acc_stroop_mean,resp_key
4,12,2400,B,54.45999454254677,28.55222070589087,2.7229997271273385,0.4484972340665057,B,487.0844000251964,Correct,sub_004_day_10_data.csv,1,300,96.0,Training at home,,,,,,,,,,,,,
4,12,2401,A,33.346167952456405,48.45542717591675,1.6673083976228202,0.7611360702120764,A,878.7745999870822,Correct,sub_004_day_10_data.csv,1,300,96.0,Training at home,,,,,,,,,,,,,
4,12,2402,B,32.48073180821609,12.3880997871367,1.6240365904108045,0.1945918164160296,B,460.3984000859782,Correct,sub_004_day_10_data.csv,1,300,96.0,Training at home,,,,,,,,,,,,,
4,12,2403,B,57.590142119212814,42.146904503540306,2.879507105960641,0.662042027799364,B,700.7703999988735,Correct,sub_004_day_10_data.csv,1,300,96.0,Training at home,,,,,,,,,,,,,
4,12,2404,B,71.35713151255442,48.81165121063599,3.567856575627721,0.766731624264607,B,469.9438000097871,Correct,sub_004_day_10_data.csv,1,300,96.0,Training at home,,,,,,,,,,,,,
4,12,2405,B,48.48452033563913,34.03742827990725,2.4242260167819567,0.5346586731562304,B,601.0466000298038,Correct,sub_004_day_10_data.csv,1,300,96.0,Training at home,,,,,,,,,,,,,
4,12,2406,A,37.763993803724055,49.66884790810744,1.8881996901862024,0.7801964385018955,A,657.8288999153301,Correct,sub_004_day_10_data.csv,1,300,96.0,Training at home,,,,,,,,,,,,,
4,12,2407,A,36.48028950022438,66.411043575199,1.824014475011219,1.0431822330653842,A,538.1697999546304,Correct,sub_004_day_10_data.csv,1,300,96.0,Training at home,,,,,,,,,,,,,
4,12,2408,A,16.41157419842604,40.30951408187188,0.820578709921302,0.633180366546915,A,581.5985999070108,Correct,sub_004_day_10_data.csv,1,300,96.0,Training at home,,,,,,,,,,,,,
4,12,2409,A,60.24771712285742,84.47098007510816,3.012385856142871,1.326867052227448,A,596.8001999426633,Correct,sub_004_day_10_data.csv,1,300,96.0,Training at home,,,,,,,,,,,,,
4,12,2410,A,53.689888715905965,68.00557036406659,2.6844944357952985,1.068229001294677,A,508.9923000195995,Correct,sub_004_day_10_data.csv,1,300,96.0,Training at home,,,,,,,,,,,,,
4,12,2411,B,38.14676928739361,14.892477327087526,1.907338464369681,0.2339304868226537,B,465.50970000680536,Correct,sub_004_day_10_data.csv,1,300,96.0,Training at home,,,,,,,,,,,,,
4,12,2412,B,61.126630396304165,38.33549236341013,3.0563315198152083,0.6021725059031844,B,2971.586099942215,Correct,sub_004_day_10_data.csv,1,300,96.0,Training at home,,,,,,,,,,,,,
4,12,2413,B,71.80253602886152,61.491113412174,3.5901268014430765,0.9659001507837132,A,490.2087000664323,Incorrect,sub_004_day_10_data.csv,0,300,96.0,Training at home,,,,,,,,,,,,,
4,12,2414,B,44.73107240147908,22.883641425742645,2.236553620073954,0.3594553989524807,B,442.7588999969885,Correct,sub_004_day_10_data.csv,1,300,96.0,Training at home,,,,,,,,,,,,,
4,12,2415,B,71.57858124210671,53.572702773548414,3.578929062105335,0.8415180473316461,B,487.7499000867829,Correct,sub_004_day_10_data.csv,1,300,96.0,Training at home,,,,,,,,,,,,,
4,12,2416,A,30.299358336161777,50.437131739634225,1.5149679168080887,0.7922646127068772,A,537.1497999876738,Correct,sub_004_day_10_data.csv,1,300,96.0,Training at home,,,,,,,,,,,,,
4,12,2417,B,51.94424463058768,29.253824688374728,2.5972122315293835,0.4595180036520088,B,527.640699991025,Correct,sub_004_day_10_data.csv,1,300,96.0,Training at home,,,,,,,,,,,,,
4,12,2418,A,28.905582953846945,49.989815026941706,1.4452791476923472,0.7852381782147635,A,551.0222000302747,Correct,sub_004_day_10_data.csv,1,300,96.0,Training at home,,,,,,,,,,,,,
4,12,2419,B,46.70409913024657,37.54950797162458,2.3352049565123285,0.5898262919478358,B,502.6214000536129,Correct,sub_004_day_10_data.csv,1,300,96.0,Training at home,,,,,,,,,,,,,
4,12,2420,B,64.86692797495296,56.39144364652043,3.2433463987476476,0.8857947254261569,B,882.4953000294045,Correct,sub_004_day_10_data.csv,1,300,96.0,Training at home,,,,,,,,,,,,,
4,12,2421,A,62.15433748973722,78.71927071199119,3.107716874486861,1.2365194128236885,A,3705.914899939671,Correct,sub_004_day_10_data.csv,1,300,96.0,Training at home,,,,,,,,,,,,,
4,12,2422,A,52.80277691846209,72.82271823623717,2.6401388459231043,1.1438965831270107,A,727.7049999684095,Correct,sub_004_day_10_data.csv,1,300,96.0,Training at home,,,,,,,,,,,,,
4,12,2423,B,61.8486646233822,49.25687431259426,3.09243323116911,0.7737251723962097,B,1081.0437999898568,Correct,sub_004_day_10_data.csv,1,300,96.0,Training at home,,,,,,,,,,,,,
4,12,2424,A,56.58231837646947,80.58959342677485,2.8291159188234736,1.2658983733267206,A,7373.571299947798,Correct,sub_004_day_10_data.csv,1,300,96.0,Training at home,,,,,,,,,,,,,
4,12,2425,B,84.9217453173504,57.66578949349973,4.24608726586752,0.905812103181171,B,588.9268000610173,Correct,sub_004_day_10_data.csv,1,300,97.0,Training at home,,,,,,,,,,,,,
4,12,2426,A,38.17624437386392,62.76053957353601,1.9088122186931964,0.9858402502977612,A,485.714599955827,Correct,sub_004_day_10_data.csv,1,300,97.0,Training at home,,,,,,,,,,,,,
4,12,2427,A,35.16487530059018,45.3017633112116,1.758243765029509,0.7115984340658299,A,469.23020004760474,Correct,sub_004_day_10_data.csv,1,300,97.0,Training at home,,,,,,,,,,,,,
4,12,2428,A,39.29195667358587,50.64479069775035,1.9645978336792935,0.7955265119932259,A,429.60889998357743,Correct,sub_004_day_10_data.csv,1,300,97.0,Training at home,,,,,,,,,,,,,
4,12,2429,B,39.429455929738154,17.332142141535247,1.9714727964869077,0.272252652114106,B,813.4299999801442,Correct,sub_004_day_10_data.csv,1,300,97.0,Training at home,,,,,,,,,,,,,
4,12,2430,B,55.40149428591784,27.173361322085817,2.770074714295892,0.4268381615140292,B,450.9665999794379,Correct,sub_004_day_10_data.csv,1,300,97.0,Training at home,,,,,,,,,,,,,
4,12,2431,B,41.21389523733706,18.130084835452685,2.060694761866853,0.2847867066400893,B,532.2291000047699,Correct,sub_004_day_10_data.csv,1,300,97.0,Training at home,,,,,,,,,,,,,
4,12,2432,A,37.52365915749597,68.73912615603123,1.8761829578747984,1.0797516687298483,A,397.4197000497952,Correct,sub_004_day_10_data.csv,1,300,97.0,Training at home,,,,,,,,,,,,,
4,12,2433,B,47.70844017942366,36.9473096473568,2.385422008971183,0.5803669827902171,B,1253.308599931188,Correct,sub_004_day_10_data.csv,1,300,97.0,Training at home,,,,,,,,,,,,,
4,12,2434,B,73.9312560159595,53.86024037090666,3.696562800797975,0.8460346773491038,B,640.0753000052646,Correct,sub_004_day_10_data.csv,1,300,97.0,Training at home,,,,,,,,,,,,,
4,12,2435,B,69.31768281724366,39.32051304086531,3.465884140862183,0.6176451745228205,B,876.4077000087127,Correct,sub_004_day_10_data.csv,1,300,97.0,Training at home,,,,,,,,,,,,,
4,12,2436,A,22.47988868918131,35.07776598403127,1.123994434459065,0.5510002595988729,A,469.6590999374166,Correct,sub_004_day_10_data.csv,1,300,97.0,Training at home,,,,,,,,,,,,,
4,12,2437,B,77.39055208332323,56.49002944938969,3.8695276041661617,0.8873433075963686,B,851.1704000411555,Correct,sub_004_day_10_data.csv,1,300,97.0,Training at home,,,,,,,,,,,,,
4,12,2438,A,59.229447575022945,78.07122257019024,2.961472378751147,1.2263398964164167,A,1837.5316000310704,Correct,sub_004_day_10_data.csv,1,300,97.0,Training at home,,,,,,,,,,,,,
4,12,2439,A,18.400765131765223,37.78318385524281,0.9200382565882612,0.5934968641443165,A,518.6886999290437,Correct,sub_004_day_10_data.csv,1,300,97.0,Training at home,,,,,,,,,,,,,
4,12,2440,B,62.5653434045106,49.2654806633093,3.12826717022553,0.7738603606371124,B,627.2072999272496,Correct,sub_004_day_10_data.csv,1,300,97.0,Training at home,,,,,,,,,,,,,
4,12,2441,B,68.81045580088286,47.33987224248977,3.4405227900441435,0.7436129742944262,B,476.110199932009,Correct,sub_004_day_10_data.csv,1,300,97.0,Training at home,,,,,,,,,,,,,
4,12,2442,A,31.12855449250431,57.14333618200346,1.5564277246252158,0.8976054257549695,A,394.5206999778747,Correct,sub_004_day_10_data.csv,1,300,97.0,Training at home,,,,,,,,,,,,,
4,12,2443,B,45.37916223866623,25.268503545483885,2.2689581119333115,0.396916725528499,B,556.3180999597535,Correct,sub_004_day_10_data.csv,1,300,97.0,Training at home,,,,,,,,,,,,,
4,12,2444,A,48.70407774580747,66.69726955327194,2.435203887290373,1.0476782602152863,A,502.4673999287188,Correct,sub_004_day_10_data.csv,1,300,97.0,Training at home,,,,,,,,,,,,,
4,12,2445,A,41.95504277314832,64.00131289745705,2.097752138657416,1.0053302720937638,A,436.0831999219954,Correct,sub_004_day_10_data.csv,1,300,97.0,Training at home,,,,,,,,,,,,,
4,12,2446,B,77.25472342490019,55.46193235171062,3.8627361712450097,0.8711939961501408,B,483.62299997825176,Correct,sub_004_day_10_data.csv,1,300,97.0,Training at home,,,,,,,,,,,,,
4,12,2447,A,38.67328405371726,59.1589053398628,1.933664202685863,0.9292659120506348,A,1443.008300033398,Correct,sub_004_day_10_data.csv,1,300,97.0,Training at home,,,,,,,,,,,,,
4,12,2448,A,49.89747248836697,57.20845427329664,2.4948736244183487,0.8986282983410815,A,878.9712999714538,Correct,sub_004_day_10_data.csv,1,300,97.0,Training at home,,,,,,,,,,,,,
4,12,2449,B,46.56589737794674,21.367163553832324,2.328294868897337,0.335634620243856,B,443.1283000158146,Correct,sub_004_day_10_data.csv,1,300,97.0,Training at home,,,,,,,,,,,,,
4,12,2450,B,70.71596710536835,61.09261925437404,3.5357983552684176,0.9596406191904991,B,734.8747999640182,Correct,sub_004_day_10_data.csv,1,300,98.0,Training at home,,,,,,,,,,,,,
4,12,2451,A,40.18514162494462,72.59980540251983,2.009257081247231,1.1403950765230244,A,912.6171000534669,Correct,sub_004_day_10_data.csv,1,300,98.0,Training at home,,,,,,,,,,,,,
4,12,2452,B,62.583009149556695,44.1333742941998,3.129150457477835,0.6932454223039335,B,1062.438299995847,Correct,sub_004_day_10_data.csv,1,300,98.0,Training at home,,,,,,,,,,,,,
4,12,2453,B,46.53414505867299,35.20189096964623,2.32670725293365,0.5529500103135473,B,678.8150999927893,Correct,sub_004_day_10_data.csv,1,300,98.0,Training at home,,,,,,,,,,,,,
4,12,2454,A,59.38065811788931,85.11348004144747,2.9690329058944656,1.3369594180983644,A,416.98850004468113,Correct,sub_004_day_10_data.csv,1,300,98.0,Training at home,,,,,,,,,,,,,
4,12,2455,B,54.48135215518084,38.3017542757594,2.724067607759042,0.6016425492616359,B,692.3852999461815,Correct,sub_004_day_10_data.csv,1,300,98.0,Training at home,,,,,,,,,,,,,
4,12,2456,A,52.515652603103675,79.92789740150197,2.6257826301551837,1.2555044764671863,A,478.20610005874187,Correct,sub_004_day_10_data.csv,1,300,98.0,Training at home,,,,,,,,,,,,,
4,12,2457,B,40.08008577267446,25.532074088395724,2.004004288633723,0.4010568819350716,B,11855.222899932414,Correct,sub_004_day_10_data.csv,1,300,98.0,Training at home,,,,,,,,,,,,,
4,12,2458,A,18.359940151575938,48.854193857817336,0.9179970075787968,0.7673998826038527,A,68307.05990002025,Correct,sub_004_day_10_data.csv,1,300,98.0,Training at home,,,,,,,,,,,,,
4,12,2459,A,51.77927979051026,63.72856083363048,2.5889639895255128,1.0010458926939187,B,8663.155399961397,Incorrect,sub_004_day_10_data.csv,0,300,98.0,Training at home,,,,,,,,,,,,,
4,12,2460,A,31.68167586651245,48.01969154505325,1.5840837933256224,0.754291550927936,A,3557.0250999880955,Correct,sub_004_day_10_data.csv,1,300,98.0,Training at home,,,,,,,,,,,,,
4,12,2461,A,66.24680027745981,78.15977866587208,3.31234001387299,1.22773093231454,A,840.9862999105826,Correct,sub_004_day_10_data.csv,1,300,98.0,Training at home,,,,,,,,,,,,,
4,12,2462,A,12.009947434663433,37.48769057731392,0.6004973717331715,0.5888552665886836,A,2253.887200029567,Correct,sub_004_day_10_data.csv,1,300,98.0,Training at home,,,,,,,,,,,,,
4,12,2463,B,50.63018945511429,43.02096549865868,2.531509472755714,0.6757717458046304,B,506.15349994041026,Correct,sub_004_day_10_data.csv,1,300,98.0,Training at home,,,,,,,,,,,,,
4,12,2464,A,40.588969527823814,58.72901446279107,2.029448476391191,0.9225132019443656,A,778.3900999929756,Correct,sub_004_day_10_data.csv,1,300,98.0,Training at home,,,,,,,,,,,,,
4,12,2465,A,15.553471011599438,40.09955572057197,0.7776735505799719,0.6298823483198174,A,494.2358999978751,Correct,sub_004_day_10_data.csv,1,300,98.0,Training at home,,,,,,,,,,,,,
4,12,2466,A,21.70887064037353,41.629833999980576,1.0854435320186766,0.6539199033225077,A,473.882699967362,Correct,sub_004_day_10_data.csv,1,300,98.0,Training at home,,,,,,,,,,,,,
4,12,2467,B,55.75792598334797,29.54944756259827,2.7878962991673983,0.4641616369014777,A,2275.0039000529796,Incorrect,sub_004_day_10_data.csv,0,300,98.0,Training at home,,,,,,,,,,,,,
4,12,2468,A,58.69626676994376,86.86965078679134,2.9348133384971877,1.3645452836584722,A,1473.608200089075,Correct,sub_004_day_10_data.csv,1,300,98.0,Training at home,,,,,,,,,,,,,
4,12,2469,B,46.46176648551407,23.68568799809639,2.323088324275703,0.3720539170501977,B,836.0516000539064,Correct,sub_004_day_10_data.csv,1,300,98.0,Training at home,,,,,,,,,,,,,
4,12,2470,B,73.18076887478996,46.47316793907226,3.6590384437394983,0.7299988149321706,B,1339.2180999508128,Correct,sub_004_day_10_data.csv,1,300,98.0,Training at home,,,,,,,,,,,,,
4,12,2471,B,53.47363298447499,46.53627916513254,2.6736816492237496,0.7309901637529207,B,1548.1174000306055,Correct,sub_004_day_10_data.csv,1,300,98.0,Training at home,,,,,,,,,,,,,
4,12,2472,A,23.153290652890824,35.22551891773714,1.1576645326445414,0.5533211572542563,A,443.3736000210047,Correct,sub_004_day_10_data.csv,1,300,98.0,Training at home,,,,,,,,,,,,,
4,12,2473,B,71.35962004471214,56.67687251076107,3.567981002235607,0.8902782315412613,B,703.9081000257283,Correct,sub_004_day_10_data.csv,1,300,98.0,Training at home,,,,,,,,,,,,,
4,12,2474,A,23.67998591707818,36.89321197246056,1.1839992958539092,0.5795172185000654,A,901.7218999797478,Correct,sub_004_day_10_data.csv,1,300,98.0,Training at home,,,,,,,,,,,,,
4,12,2475,A,42.25383598117079,68.52889096479802,2.1126917990585397,1.076449302068327,A,669.4377000676468,Correct,sub_004_day_10_data.csv,1,300,99.0,Training at home,,,,,,,,,,,,,
4,12,2476,A,12.550405559823425,36.88401843468531,0.6275202779911713,0.5793728067463894,A,470.711899921298,Correct,sub_004_day_10_data.csv,1,300,99.0,Training at home,,,,,,,,,,,,,
4,12,2477,B,83.89313794470502,57.66048485013876,4.194656897235251,0.9057287780381074,B,602.3253999883309,Correct,sub_004_day_10_data.csv,1,300,99.0,Training at home,,,,,,,,,,,,,
4,12,2478,B,57.94206163379172,36.53964217597644,2.8971030816895857,0.5739633571242369,B,558.5742000257596,Correct,sub_004_day_10_data.csv,1,300,99.0,Training at home,,,,,,,,,,,,,
4,12,2479,B,64.52407606791174,46.01975059625139,3.2262038033955864,0.7228765519660894,B,568.9678000053391,Correct,sub_004_day_10_data.csv,1,300,99.0,Training at home,,,,,,,,,,,,,
4,12,2480,B,76.39301217639878,59.19058024715112,3.819650608819939,0.9297634603308352,B,543.0340000893921,Correct,sub_004_day_10_data.csv,1,300,99.0,Training at home,,,,,,,,,,,,,
4,12,2481,A,57.64232421406787,79.11288163881194,2.8821162107033933,1.242702238804052,A,1595.1021999353543,Correct,sub_004_day_10_data.csv,1,300,99.0,Training at home,,,,,,,,,,,,,
4,12,2482,A,19.003565127101325,36.1141911004655,0.9501782563550664,0.5672803872578015,A,1884.4591999659317,Correct,sub_004_day_10_data.csv,1,300,99.0,Training at home,,,,,,,,,,,,,
4,12,2483,B,48.76244661475454,18.725552716608096,2.438122330737727,0.294140294244522,B,582.0607000496238,Correct,sub_004_day_10_data.csv,1,300,99.0,Training at home,,,,,,,,,,,,,
4,12,2484,A,57.33159300845287,75.2734121941812,2.866579650422643,1.18239199379938,A,476.8552999012172,Correct,sub_004_day_10_data.csv,1,300,99.0,Training at home,,,,,,,,,,,,,
4,12,2485,B,55.25272626179157,27.345898831592415,2.762636313089579,0.4295483743757022,B,839.7270999848843,Correct,sub_004_day_10_data.csv,1,300,99.0,Training at home,,,,,,,,,,,,,
4,12,2486,A,43.412446767920486,56.449311043610635,2.170622338396024,0.8867037043740618,A,700.4053000127897,Correct,sub_004_day_10_data.csv,1,300,99.0,Training at home,,,,,,,,,,,,,
4,12,2487,B,34.39847064407425,20.09060989475632,1.7199235322037123,0.3155825622575243,B,752.8624000260606,Correct,sub_004_day_10_data.csv,1,300,99.0,Training at home,,,,,,,,,,,,,
4,12,2488,A,11.671972484053075,33.30128827453035,0.5835986242026537,0.5230954129917024,A,423.89509989880025,Correct,sub_004_day_10_data.csv,1,300,99.0,Training at home,,,,,,,,,,,,,
4,12,2489,A,21.81322346316694,39.72086663946094,1.0906611731583469,0.6239339141437519,A,572.3812999203801,Correct,sub_004_day_10_data.csv,1,300,99.0,Training at home,,,,,,,,,,,,,
4,12,2490,B,54.27465003276157,37.08417255254663,2.7137325016380784,0.5825168202776838,B,782.2468000231311,Correct,sub_004_day_10_data.csv,1,300,99.0,Training at home,,,,,,,,,,,,,
4,12,2491,B,80.07826465517007,55.18610134949925,4.003913232758504,0.8668612528992431,B,1201.8904000287876,Correct,sub_004_day_10_data.csv,1,300,99.0,Training at home,,,,,,,,,,,,,
4,12,2492,A,22.08209426144298,51.79873352473863,1.1041047130721489,0.813652603532871,A,477.8754999861121,Correct,sub_004_day_10_data.csv,1,300,99.0,Training at home,,,,,,,,,,,,,
4,12,2493,A,35.76559596382142,68.2664123197191,1.788279798191071,1.0723262971528065,A,421.0685000289231,Correct,sub_004_day_10_data.csv,1,300,99.0,Training at home,,,,,,,,,,,,,
4,12,2494,A,48.38852312513177,74.48995715958009,2.4194261562565886,1.170085510893776,A,436.1561000114307,Correct,sub_004_day_10_data.csv,1,300,99.0,Training at home,,,,,,,,,,,,,
4,12,2495,A,39.84557447810725,68.83576212576764,1.9922787239053628,1.081269622992831,A,448.23730003554374,Correct,sub_004_day_10_data.csv,1,300,99.0,Training at home,,,,,,,,,,,,,
4,12,2496,B,68.39692622321274,48.78473302430809,3.4198463111606374,0.7663087943825283,B,492.0936000999063,Correct,sub_004_day_10_data.csv,1,300,99.0,Training at home,,,,,,,,,,,,,
4,12,2497,B,32.13966455444825,13.407116397938594,1.6069832277224123,0.2105984919079357,B,786.8056999286637,Correct,sub_004_day_10_data.csv,1,300,99.0,Training at home,,,,,,,,,,,,,
4,12,2498,B,74.86474890738164,59.70210827990026,3.7432374453690818,0.9377985238797852,B,565.0291999336332,Correct,sub_004_day_10_data.csv,1,300,99.0,Training at home,,,,,,,,,,,,,
4,12,2499,A,27.802532683792947,42.881204636979675,1.3901266341896474,0.6735763873230797,B,719.9148999061435,Incorrect,sub_004_day_10_data.csv,0,300,99.0,Training at home,,,,,,,,,,,,,
4,12,2500,B,81.68297355481329,51.0553869191115,4.084148677740664,0.8019761423563256,B,716.2236999720335,Correct,sub_004_day_10_data.csv,1,300,100.0,Training at home,,,,,,,,,,,,,
4,12,2501,A,19.190831339590954,45.27493135403897,0.9595415669795476,0.711176958668155,A,898.8127000629902,Correct,sub_004_day_10_data.csv,1,300,100.0,Training at home,,,,,,,,,,,,,
4,12,2502,B,42.2181749396612,28.283759121443616,2.1109087469830596,0.4442802493591528,B,444.48199996259063,Correct,sub_004_day_10_data.csv,1,300,100.0,Training at home,,,,,,,,,,,,,
4,12,2503,A,40.68338036410506,55.156587586546216,2.034169018205253,0.8663976517948778,A,928.8969000335784,Correct,sub_004_day_10_data.csv,1,300,100.0,Training at home,,,,,,,,,,,,,
4,12,2504,B,72.19398710697936,54.95346040325054,3.609699355348968,0.8632069374609473,B,527.9126999666914,Correct,sub_004_day_10_data.csv,1,300,100.0,Training at home,,,,,,,,,,,,,
4,12,2505,B,51.26454775415675,25.19540081443264,2.5632273877078378,0.3957684305143593,B,5729.882600018755,Correct,sub_004_day_10_data.csv,1,300,100.0,Training at home,,,,,,,,,,,,,
4,12,2506,B,39.867223008909136,12.372207030150664,1.993361150445457,0.1943421735730666,B,2305.724999983795,Correct,sub_004_day_10_data.csv,1,300,100.0,Training at home,,,,,,,,,,,,,
4,12,2507,B,80.03011722543977,55.21644744469502,4.001505861271989,0.8673379282479039,B,1398.5862999688834,Correct,sub_004_day_10_data.csv,1,300,100.0,Training at home,,,,,,,,,,,,,
4,12,2508,A,55.6366076301441,84.02925398840809,2.781830381507205,1.3199284350830685,A,511.0308000585064,Correct,sub_004_day_10_data.csv,1,300,100.0,Training at home,,,,,,,,,,,,,
4,12,2509,A,58.4585127899322,81.71607623892992,2.92292563949661,1.2835931239620282,A,409.34190002735704,Correct,sub_004_day_10_data.csv,1,300,100.0,Training at home,,,,,,,,,,,,,
4,12,2510,A,34.03287022965612,58.24597197367661,1.701643511482806,0.9149255882684972,A,902.0637000212446,Correct,sub_004_day_10_data.csv,1,300,100.0,Training at home,,,,,,,,,,,,,
4,12,2511,B,75.67619088992352,51.9990852044729,3.783809544496176,0.8167997203588087,B,9557.477900059894,Correct,sub_004_day_10_data.csv,1,300,100.0,Training at home,,,,,,,,,,,,,
4,12,2512,B,80.86265114149668,55.05216336224278,4.043132557074834,0.8647573599152355,B,11474.583900067955,Correct,sub_004_day_10_data.csv,1,300,100.0,Training at home,,,,,,,,,,,,,
4,12,2513,A,36.79226751503943,57.99723278572043,1.8396133757519717,0.911018402240782,A,478.0076000606641,Correct,sub_004_day_10_data.csv,1,300,100.0,Training at home,,,,,,,,,,,,,
4,12,2514,B,51.88836375985688,32.804658371780846,2.594418187992844,0.5152943687215481,B,517.9480999941006,Correct,sub_004_day_10_data.csv,1,300,100.0,Training at home,,,,,,,,,,,,,
4,12,2515,A,61.515124300194785,73.31408017484326,3.075756215009739,1.1516148784099034,A,413.16999995615333,Correct,sub_004_day_10_data.csv,1,300,100.0,Training at home,,,,,,,,,,,,,
4,12,2516,B,49.94900255083453,26.96954780056441,2.4974501275417267,0.4236366662044595,B,527.7192000066862,Correct,sub_004_day_10_data.csv,1,300,100.0,Training at home,,,,,,,,,,,,,
4,12,2517,A,28.82066953174619,46.51145584842464,1.4410334765873096,0.7306002400058844,A,962.3565000947564,Correct,sub_004_day_10_data.csv,1,300,100.0,Training at home,,,,,,,,,,,,,
4,12,2518,A,59.04013010640628,84.92219628547662,2.9520065053203144,1.333954739885819,A,1107.4571999488398,Correct,sub_004_day_10_data.csv,1,300,100.0,Training at home,,,,,,,,,,,,,
4,12,2519,B,43.66548498308416,20.34619518815254,2.183274249154208,0.31959728665802,B,6212.936799973249,Correct,sub_004_day_10_data.csv,1,300,100.0,Training at home,,,,,,,,,,,,,
4,12,2520,B,59.29886663074899,31.76715955967247,2.96494333153745,0.498997375490409,B,662.599999923259,Correct,sub_004_day_10_data.csv,1,300,100.0,Training at home,,,,,,,,,,,,,
4,12,2521,A,47.4764283101679,72.01549754016666,2.3738214155083948,1.1312167900840069,A,15950.93569997698,Correct,sub_004_day_10_data.csv,1,300,100.0,Training at home,,,,,,,,,,,,,
4,12,2522,A,57.307963739014674,68.95151260205189,2.865398186950734,1.0830878272225513,A,456.9646999007091,Correct,sub_004_day_10_data.csv,1,300,100.0,Training at home,,,,,,,,,,,,,
4,12,2523,B,40.07561761688855,22.45119133478153,2.0037808808444275,0.3526624888084424,B,552.1857000421733,Correct,sub_004_day_10_data.csv,1,300,100.0,Training at home,,,,,,,,,,,,,
4,12,2524,A,33.63499761865357,66.62981186082818,1.6817498809326787,1.0466186372602393,A,419.0056000370532,Correct,sub_004_day_10_data.csv,1,300,100.0,Training at home,,,,,,,,,,,,,
4,12,2525,A,31.90075008206345,49.98319662661679,1.595037504103172,0.7851342166255671,A,529.3017999501899,Correct,sub_004_day_10_data.csv,1,300,101.0,Training at home,,,,,,,,,,,,,
4,12,2526,B,40.919687111972294,18.21230460725694,2.0459843555986144,0.2860782117954897,B,504.5511999633163,Correct,sub_004_day_10_data.csv,1,300,101.0,Training at home,,,,,,,,,,,,,
4,12,2527,A,35.35095872885329,60.10006833931049,1.7675479364426647,0.944049665875112,A,587.4347999924794,Correct,sub_004_day_10_data.csv,1,300,101.0,Training at home,,,,,,,,,,,,,
4,12,2528,A,36.80775436055187,50.93897851642514,1.8403877180275936,0.8001476034428476,B,10198.12030007597,Incorrect,sub_004_day_10_data.csv,0,300,101.0,Training at home,,,,,,,,,,,,,
4,12,2529,B,62.21661908342775,46.18908469508405,3.110830954171387,0.7255364457705641,B,1112.1228999691084,Correct,sub_004_day_10_data.csv,1,300,101.0,Training at home,,,,,,,,,,,,,
4,12,2530,B,48.885820506133086,28.577403250674784,2.4442910253066543,0.4488928005549648,B,716.3994000293314,Correct,sub_004_day_10_data.csv,1,300,101.0,Training at home,,,,,,,,,,,,,
4,12,2531,A,52.14894742602671,68.05874743192194,2.6074473713013355,1.069064304723246,A,923.6725999508052,Correct,sub_004_day_10_data.csv,1,300,101.0,Training at home,,,,,,,,,,,,,
4,12,2532,A,61.075258522972504,71.44993179638936,3.053762926148625,1.1223329041551429,A,1005.3952999878676,Correct,sub_004_day_10_data.csv,1,300,101.0,Training at home,,,,,,,,,,,,,
4,12,2533,B,85.10088409802681,64.72351025105691,4.255044204901341,1.0166745215963202,B,4270.0037000468,Correct,sub_004_day_10_data.csv,1,300,101.0,Training at home,,,,,,,,,,,,,
4,12,2534,B,55.07143536341149,46.886415197118666,2.7535717681705747,0.7364900876821442,B,543.9085999969393,Correct,sub_004_day_10_data.csv,1,300,101.0,Training at home,,,,,,,,,,,,,
4,12,2535,B,51.70928628438298,32.60672105768236,2.58546431421915,0.5121851766623325,B,377.96159996651113,Correct,sub_004_day_10_data.csv,1,300,101.0,Training at home,,,,,,,,,,,,,
4,12,2536,A,44.92525776700497,74.49935401051482,2.2462628883502487,1.1702331162830932,A,383.5305999964475,Correct,sub_004_day_10_data.csv,1,300,101.0,Training at home,,,,,,,,,,,,,
4,12,2537,A,55.02128132486175,76.39845128801349,2.7510640662430874,1.2000640665603042,A,3876.644700067118,Correct,sub_004_day_10_data.csv,1,300,101.0,Training at home,,,,,,,,,,,,,
4,12,2538,A,44.56372865881993,69.11471012126175,2.228186432940997,1.08565132785972,A,551.783200004138,Correct,sub_004_day_10_data.csv,1,300,101.0,Training at home,,,,,,,,,,,,,
4,12,2539,B,41.48243832284459,19.219745794497246,2.0741219161422295,0.3019030609592793,B,21755.622099968605,Correct,sub_004_day_10_data.csv,1,300,101.0,Training at home,,,,,,,,,,,,,
4,12,2540,B,69.29386436240999,59.486379095398505,3.4646932181204995,0.9344098577738068,B,4432.801900082268,Correct,sub_004_day_10_data.csv,1,300,101.0,Training at home,,,,,,,,,,,,,
4,12,2541,B,80.14917662214016,50.68396453983128,4.007458831107008,0.7961418532656976,B,798.1633000308648,Correct,sub_004_day_10_data.csv,1,300,101.0,Training at home,,,,,,,,,,,,,
4,12,2542,A,31.81211858634509,64.17957807559014,1.5906059293172543,1.0081304549638328,A,4202.517200028524,Correct,sub_004_day_10_data.csv,1,300,101.0,Training at home,,,,,,,,,,,,,
4,12,2543,B,58.184217321741826,35.000995556978566,2.9092108660870912,0.5497943525506642,B,16597.2951001022,Correct,sub_004_day_10_data.csv,1,300,101.0,Training at home,,,,,,,,,,,,,
4,12,2544,B,74.77241612315127,62.31106258881259,3.738620806157564,0.9787798823319372,B,921.3251000037416,Correct,sub_004_day_10_data.csv,1,300,101.0,Training at home,,,,,,,,,,,,,
4,12,2545,A,21.16365580547068,48.58183227678032,1.058182790273534,0.7631216368933227,A,6534.112399909645,Correct,sub_004_day_10_data.csv,1,300,101.0,Training at home,,,,,,,,,,,,,
4,12,2546,B,49.11023519577374,31.163992099272768,2.455511759788686,0.4895228431780284,B,813.800000003539,Correct,sub_004_day_10_data.csv,1,300,101.0,Training at home,,,,,,,,,,,,,
4,12,2547,B,74.7692391842717,42.119742160905865,3.7384619592135846,0.6616153627189907,B,6263.815599959344,Correct,sub_004_day_10_data.csv,1,300,101.0,Training at home,,,,,,,,,,,,,
4,12,2548,A,24.132335317113792,48.68575081050419,1.2066167658556894,0.7647539854039164,A,860.66090001259,Correct,sub_004_day_10_data.csv,1,300,101.0,Training at home,,,,,,,,,,,,,
4,12,2549,A,53.7747803439253,69.57308777615982,2.688739017196265,1.0928515072257077,A,676.0328999953344,Correct,sub_004_day_10_data.csv,1,300,101.0,Training at home,,,,,,,,,,,,,
4,12,2550,A,42.66203648201228,65.84279781730845,2.1331018241006143,1.0342562495732714,A,7582.330800010823,Correct,sub_004_day_10_data.csv,1,300,102.0,Training at home,,,,,,,,,,,,,
4,12,2551,B,86.59091797365693,60.99235607023514,4.329545898682847,0.9580656887769176,B,671.3590000290424,Correct,sub_004_day_10_data.csv,1,300,102.0,Training at home,,,,,,,,,,,,,
4,12,2552,B,58.513839697862515,43.22744139664694,2.9256919848931258,0.6790150616259466,B,512.6583999954164,Correct,sub_004_day_10_data.csv,1,300,102.0,Training at home,,,,,,,,,,,,,
4,12,2553,B,71.90764859616674,58.97330908287586,3.5953824298083368,0.9263505728632152,B,713.5339999804273,Correct,sub_004_day_10_data.csv,1,300,102.0,Training at home,,,,,,,,,,,,,
4,12,2554,A,52.02915423685095,74.54859652417764,2.6014577118425475,1.1710066158789303,A,465.41510010138154,Correct,sub_004_day_10_data.csv,1,300,102.0,Training at home,,,,,,,,,,,,,
4,12,2555,B,50.55627037301736,23.022647914553065,2.527813518650868,0.3616389077727213,B,521.6639999998733,Correct,sub_004_day_10_data.csv,1,300,102.0,Training at home,,,,,,,,,,,,,
4,12,2556,A,50.46716333434084,57.96406166551946,2.523358166717042,0.9104973515031084,A,1202.8189999982717,Correct,sub_004_day_10_data.csv,1,300,102.0,Training at home,,,,,,,,,,,,,
4,12,2557,B,72.56993289542186,46.53544515149366,3.6284966447710927,0.7309770630973162,B,1332.5543999671936,Correct,sub_004_day_10_data.csv,1,300,102.0,Training at home,,,,,,,,,,,,,
4,12,2558,A,33.25925419693983,52.64733432738328,1.6629627098469912,0.8269823937699654,A,468.22279994376,Correct,sub_004_day_10_data.csv,1,300,102.0,Training at home,,,,,,,,,,,,,
4,12,2559,A,57.11813076555974,85.9683703000164,2.8559065382779867,1.3503880028780926,A,485.87690002750605,Correct,sub_004_day_10_data.csv,1,300,102.0,Training at home,,,,,,,,,,,,,
4,12,2560,B,52.43962748163045,38.52938238573157,2.6219813740815225,0.6052181232518314,B,417.16279997490346,Correct,sub_004_day_10_data.csv,1,300,102.0,Training at home,,,,,,,,,,,,,
4,12,2561,A,54.449976594627174,68.66161022895176,2.7224988297313586,1.0785340513946031,A,406.3050999538973,Correct,sub_004_day_10_data.csv,1,300,102.0,Training at home,,,,,,,,,,,,,
4,12,2562,A,28.234853141842898,56.57493693463245,1.4117426570921447,0.8886770312557357,A,429.1918999515474,Correct,sub_004_day_10_data.csv,1,300,102.0,Training at home,,,,,,,,,,,,,
4,12,2563,B,74.03917331314658,62.67644850649992,3.701958665657329,0.9845193509055956,B,1015.2194000547752,Correct,sub_004_day_10_data.csv,1,300,102.0,Training at home,,,,,,,,,,,,,
4,12,2564,B,79.96576657536433,62.140308929080746,3.9982883287682167,0.9760976901170014,B,568.1980000808835,Correct,sub_004_day_10_data.csv,1,300,102.0,Training at home,,,,,,,,,,,,,
4,12,2565,B,65.79502923054831,57.851143141369754,3.2897514615274157,0.9087236314734938,B,744.4202000042424,Correct,sub_004_day_10_data.csv,1,300,102.0,Training at home,,,,,,,,,,,,,
4,12,2566,A,10.235051622237544,34.542731424234205,0.5117525811118773,0.5425959563864974,A,509.8875999683514,Correct,sub_004_day_10_data.csv,1,300,102.0,Training at home,,,,,,,,,,,,,
4,12,2567,A,65.83941032988402,88.29776733282785,3.291970516494201,1.386978085905964,A,633.0064000794664,Correct,sub_004_day_10_data.csv,1,300,102.0,Training at home,,,,,,,,,,,,,
4,12,2568,B,36.720314798101306,17.88881779096141,1.8360157399050652,0.2809968927674538,B,34301.44970002584,Correct,sub_004_day_10_data.csv,1,300,102.0,Training at home,,,,,,,,,,,,,
4,12,2569,A,45.0018017078929,63.78766827337939,2.250090085394645,1.001974350186357,A,439.49649995192885,Correct,sub_004_day_10_data.csv,1,300,102.0,Training at home,,,,,,,,,,,,,
4,12,2570,A,22.01081408314122,39.30880748314186,1.100540704157061,0.6174613040520698,A,890.5256000580266,Correct,sub_004_day_10_data.csv,1,300,102.0,Training at home,,,,,,,,,,,,,
4,12,2571,A,24.95506645625117,51.41169575742848,1.2477533228125586,0.8075730285006543,A,421.45570006687194,Correct,sub_004_day_10_data.csv,1,300,102.0,Training at home,,,,,,,,,,,,,
4,12,2572,B,34.90603737323468,10.991506104653482,1.745301868661734,0.1726541741513337,B,499.4570999406278,Correct,sub_004_day_10_data.csv,1,300,102.0,Training at home,,,,,,,,,,,,,
4,12,2573,B,82.27029008277437,67.21284854406947,4.113514504138718,1.0557769560644603,B,1322.7806000504645,Correct,sub_004_day_10_data.csv,1,300,102.0,Training at home,,,,,,,,,,,,,
4,12,2574,A,30.583340203401164,58.06401645472443,1.5291670101700583,0.9120674376603958,A,3135.7131999684498,Correct,sub_004_day_10_data.csv,1,300,102.0,Training at home,,,,,,,,,,,,,
4,12,2575,B,78.71859036990823,54.45216537457891,3.9359295184954113,0.855332613564168,B,1058.2777000963688,Correct,sub_004_day_10_data.csv,1,300,103.0,Training at home,,,,,,,,,,,,,
4,12,2576,B,36.16868945459044,13.33093217604346,1.808434472729522,0.2094017929488096,B,597.3419999936596,Correct,sub_004_day_10_data.csv,1,300,103.0,Training at home,,,,,,,,,,,,,
4,12,2577,B,74.46585530377486,51.41356309450333,3.723292765188743,0.8076023605628349,B,1032.9834000440314,Correct,sub_004_day_10_data.csv,1,300,103.0,Training at home,,,,,,,,,,,,,
4,12,2578,A,55.52140937093544,65.76231182878003,2.776070468546772,1.0329919786218826,B,732.4036000063643,Incorrect,sub_004_day_10_data.csv,0,300,103.0,Training at home,,,,,,,,,,,,,
4,12,2579,A,31.092166618271253,59.38186660578762,1.5546083309135628,0.9327681794259572,A,479.07249990385026,Correct,sub_004_day_10_data.csv,1,300,103.0,Training at home,,,,,,,,,,,,,
4,12,2580,A,18.25172820591172,37.43563724323788,0.912586410295586,0.5880376147290429,A,524.1957999533042,Correct,sub_004_day_10_data.csv,1,300,103.0,Training at home,,,,,,,,,,,,,
4,12,2581,A,24.690289947268443,40.91526412954023,1.234514497363422,0.6426954660452479,A,1836.6228999802845,Correct,sub_004_day_10_data.csv,1,300,103.0,Training at home,,,,,,,,,,,,,
4,12,2582,A,48.271139407787615,77.61660414787903,2.4135569703893807,1.2191987669378193,A,523.9066999638453,Correct,sub_004_day_10_data.csv,1,300,103.0,Training at home,,,,,,,,,,,,,
4,12,2583,B,34.75750473125536,20.084706726979626,1.737875236562768,0.3154898355149234,B,514.1111999982968,Correct,sub_004_day_10_data.csv,1,300,103.0,Training at home,,,,,,,,,,,,,
4,12,2584,A,44.11308908974817,61.50016031912978,2.2056544544874086,0.9660422592658632,A,1516.9153000460938,Correct,sub_004_day_10_data.csv,1,300,103.0,Training at home,,,,,,,,,,,,,
4,12,2585,B,57.11007251290917,34.4678513258206,2.8555036256454582,0.541419742551116,B,682.5038000242785,Correct,sub_004_day_10_data.csv,1,300,103.0,Training at home,,,,,,,,,,,,,
4,12,2586,A,49.51631580447277,69.88068269435838,2.4758157902236384,1.0976831969021783,A,768.1300999829546,Correct,sub_004_day_10_data.csv,1,300,103.0,Training at home,,,,,,,,,,,,,
4,12,2587,A,52.29217701976871,64.62322970787459,2.614608850988436,1.0150993185075223,A,722.3939000396058,Correct,sub_004_day_10_data.csv,1,300,103.0,Training at home,,,,,,,,,,,,,
4,12,2588,B,46.571279612114786,32.85715163392146,2.328563980605739,0.5161189309550677,B,712.3015999095514,Correct,sub_004_day_10_data.csv,1,300,103.0,Training at home,,,,,,,,,,,,,
4,12,2589,B,48.12562849143563,21.25943389448738,2.4062814245717816,0.3339424067119969,B,470.07609996944666,Correct,sub_004_day_10_data.csv,1,300,103.0,Training at home,,,,,,,,,,,,,
4,12,2590,A,28.640353525252383,47.699670315756464,1.432017676262619,0.7492646692131782,A,444.0690000774339,Correct,sub_004_day_10_data.csv,1,300,103.0,Training at home,,,,,,,,,,,,,
4,12,2591,A,48.88524507738884,66.5918353936028,2.444262253869442,1.046022104308017,A,485.3404000168666,Correct,sub_004_day_10_data.csv,1,300,103.0,Training at home,,,,,,,,,,,,,
4,12,2592,B,78.41761545457962,60.21492073739906,3.9208807727289807,0.9458537631255228,B,526.0807999875396,Correct,sub_004_day_10_data.csv,1,300,103.0,Training at home,,,,,,,,,,,,,
4,12,2593,A,57.02993794829108,80.38627833247219,2.8514968974145543,1.262704707293595,A,483.6676999693736,Correct,sub_004_day_10_data.csv,1,300,103.0,Training at home,,,,,,,,,,,,,
4,12,2594,A,31.420265550177746,52.50157526978744,1.5710132775088874,0.8246928158472788,A,425.3213999327272,Correct,sub_004_day_10_data.csv,1,300,103.0,Training at home,,,,,,,,,,,,,
4,12,2595,A,52.26124305752331,77.36183628347754,2.6130621528761657,1.2151968826819466,A,441.10399996861815,Correct,sub_004_day_10_data.csv,1,300,103.0,Training at home,,,,,,,,,,,,,
4,12,2596,B,35.978029557055706,21.763902599861648,1.7989014778527854,0.3418665826058458,B,522.3983000032604,Correct,sub_004_day_10_data.csv,1,300,103.0,Training at home,,,,,,,,,,,,,
4,12,2597,A,26.63616433708399,38.45217446529599,1.3318082168541994,0.6040053440736345,B,493.0513999424875,Incorrect,sub_004_day_10_data.csv,0,300,103.0,Training at home,,,,,,,,,,,,,
4,12,2598,B,72.62041516472806,49.39249249398274,3.631020758236403,0.7758554578079259,B,953.3773999428377,Correct,sub_004_day_10_data.csv,1,300,103.0,Training at home,,,,,,,,,,,,,
4,12,2599,B,77.1419617820448,45.6990915605835,3.85709808910224,0.7178396516122821,B,537.9324000095949,Correct,sub_004_day_10_data.csv,1,300,103.0,Training at home,,,,,,,,,,,,,
4,12,2600,A,44.69907908473492,56.731377514900046,2.234953954236746,0.8911343941441957,A,796.4508000295609,Correct,sub_004_day_10_data.csv,1,300,104.0,Training at home,,,,,,,,,,,,,
4,12,2601,B,88.57666189943915,65.88032263169438,4.428833094971957,1.0348456879792824,A,7683.455399936065,Incorrect,sub_004_day_10_data.csv,0,300,104.0,Training at home,,,,,,,,,,,,,
4,12,2602,B,32.47820454572952,13.012447535154934,1.6239102272864758,0.2043990479083267,B,997.8566000936552,Correct,sub_004_day_10_data.csv,1,300,104.0,Training at home,,,,,,,,,,,,,
4,12,2603,A,62.9753012249972,73.24241167086551,3.14876506124986,1.150489112181952,A,698.234900017269,Correct,sub_004_day_10_data.csv,1,300,104.0,Training at home,,,,,,,,,,,,,
4,12,2604,A,44.564198610767896,74.86558382939184,2.228209930538395,1.1759858408256412,A,10507.379599963317,Correct,sub_004_day_10_data.csv,1,300,104.0,Training at home,,,,,,,,,,,,,
4,12,2605,B,38.86578765064014,14.553367596053022,1.9432893825320068,0.2286037636237596,B,12923.917099949904,Correct,sub_004_day_10_data.csv,1,300,104.0,Training at home,,,,,,,,,,,,,
4,12,2606,A,40.81466963620405,48.0996984407453,2.040733481810202,0.7555482963066492,A,1477.0669999998065,Correct,sub_004_day_10_data.csv,1,300,104.0,Training at home,,,,,,,,,,,,,
4,12,2607,B,68.63598733537431,51.973261104987046,3.431799366768715,0.8163940763526573,B,1400.0380000798032,Correct,sub_004_day_10_data.csv,1,300,104.0,Training at home,,,,,,,,,,,,,
4,12,2608,A,44.727987816669774,52.95422782366502,2.2363993908334887,0.8318030655367312,A,579.737100051716,Correct,sub_004_day_10_data.csv,1,300,104.0,Training at home,,,,,,,,,,,,,
4,12,2609,B,43.026700029708024,20.997403441206057,2.151335001485401,0.3298264419767699,B,797.8996000019833,Correct,sub_004_day_10_data.csv,1,300,104.0,Training at home,,,,,,,,,,,,,
4,12,2610,A,19.991890390552513,34.09347806911404,0.9995945195276256,0.535539101186267,A,602.8223999310285,Correct,sub_004_day_10_data.csv,1,300,104.0,Training at home,,,,,,,,,,,,,
4,12,2611,A,57.28298328042658,79.2798507364888,2.8641491640213292,1.2453249832572426,A,558.2348000025377,Correct,sub_004_day_10_data.csv,1,300,104.0,Training at home,,,,,,,,,,,,,
4,12,2612,A,26.982331087545795,54.99083999720192,1.3491165543772896,0.8637940947497067,A,598.1900999322534,Correct,sub_004_day_10_data.csv,1,300,104.0,Training at home,,,,,,,,,,,,,
4,12,2613,B,77.73820723275588,46.26039650778618,3.8869103616377942,0.7266566091050598,B,506.5552999731153,Correct,sub_004_day_10_data.csv,1,300,104.0,Training at home,,,,,,,,,,,,,
4,12,2614,A,59.13989042000223,74.27963739984735,2.956994521000112,1.1667818158333705,A,534.5995000097901,Correct,sub_004_day_10_data.csv,1,300,104.0,Training at home,,,,,,,,,,,,,
4,12,2615,A,30.491312015597263,48.8047712097878,1.5245656007798631,0.7666235534639999,A,1171.4916999917475,Correct,sub_004_day_10_data.csv,1,300,104.0,Training at home,,,,,,,,,,,,,
4,12,2616,B,50.714482256002306,37.05855940796458,2.535724112800115,0.5821144899434122,B,962.526199989952,Correct,sub_004_day_10_data.csv,1,300,104.0,Training at home,,,,,,,,,,,,,
4,12,2617,B,75.36373858848846,49.335240709072295,3.768186929424423,0.774956148873528,B,615.9611000912264,Correct,sub_004_day_10_data.csv,1,300,104.0,Training at home,,,,,,,,,,,,,
4,12,2618,A,42.76765311858876,67.26758227157394,2.138382655929438,1.0566367114456183,A,403.1894999789074,Correct,sub_004_day_10_data.csv,1,300,104.0,Training at home,,,,,,,,,,,,,
4,12,2619,B,62.959000166433974,42.03025916185122,3.1479500083216987,0.6602097670567345,B,547.5709999445826,Correct,sub_004_day_10_data.csv,1,300,104.0,Training at home,,,,,,,,,,,,,
4,12,2620,A,60.39948360777884,83.71816463219344,3.019974180388942,1.3150418549025988,A,482.4646000051871,Correct,sub_004_day_10_data.csv,1,300,104.0,Training at home,,,,,,,,,,,,,
4,12,2621,A,24.62675114118178,56.62344445076998,1.2313375570590892,0.8894389855374434,A,541.1188000580296,Correct,sub_004_day_10_data.csv,1,300,104.0,Training at home,,,,,,,,,,,,,
4,12,2622,A,23.084691241942338,38.95623812869691,1.1542345620971168,0.6119231575830442,A,367.5212999805808,Correct,sub_004_day_10_data.csv,1,300,104.0,Training at home,,,,,,,,,,,,,
4,12,2623,B,70.94529911169182,61.7889029701896,3.547264955584591,0.9705778182226013,B,1170.5093000782654,Correct,sub_004_day_10_data.csv,1,300,104.0,Training at home,,,,,,,,,,,,,
4,12,2624,B,77.71888055079562,52.9058529141656,3.885944027539781,0.831043194235224,B,540.9012000309303,Correct,sub_004_day_10_data.csv,1,300,104.0,Training at home,,,,,,,,,,,,,
4,12,2625,B,79.52703351397581,62.16283088664372,3.9763516756987904,0.976451464199123,B,2142.0570999616757,Correct,sub_004_day_10_data.csv,1,300,105.0,Training at home,,,,,,,,,,,,,
4,12,2626,A,51.44769498133815,71.2771425191463,2.5723847490669076,1.1196187365351131,A,54977.72769990843,Correct,sub_004_day_10_data.csv,1,300,105.0,Training at home,,,,,,,,,,,,,
4,12,2627,B,72.25682988841373,39.59693684993139,3.6128414944206866,0.6219872295620171,B,515.265200054273,Correct,sub_004_day_10_data.csv,1,300,105.0,Training at home,,,,,,,,,,,,,
4,12,2628,A,31.132476239560393,48.50363610546401,1.5566238119780198,0.7618933343065919,A,665.9354999428615,Correct,sub_004_day_10_data.csv,1,300,105.0,Training at home,,,,,,,,,,,,,
4,12,2629,B,58.03331763866923,49.86382880802165,2.9016658819334618,0.7832591913156997,A,775.764900026843,Incorrect,sub_004_day_10_data.csv,0,300,105.0,Training at home,,,,,,,,,,,,,
4,12,2630,A,53.26501862251599,69.07443659981924,2.6632509311257997,1.08501871286423,A,471.7050000326708,Correct,sub_004_day_10_data.csv,1,300,105.0,Training at home,,,,,,,,,,,,,
4,12,2631,B,67.31069379229726,50.152926109189195,3.365534689614863,0.7878003211033024,B,1658.2879999186844,Correct,sub_004_day_10_data.csv,1,300,105.0,Training at home,,,,,,,,,,,,,
4,12,2632,A,56.801480441989504,81.08026759173632,2.8400740220994756,1.2736058650864672,A,414.6730999927968,Correct,sub_004_day_10_data.csv,1,300,105.0,Training at home,,,,,,,,,,,,,
4,12,2633,B,76.45676901385913,53.879066212620195,3.822838450692956,0.8463303929792283,B,808.5373999783769,Correct,sub_004_day_10_data.csv,1,300,105.0,Training at home,,,,,,,,,,,,,
4,12,2634,B,51.59410718377277,25.760262915811616,2.5797053591886385,0.4046412636542767,B,26367.965700104833,Correct,sub_004_day_10_data.csv,1,300,105.0,Training at home,,,,,,,,,,,,,
4,12,2635,B,65.53743101060373,56.369133016571354,3.276871550530186,0.885444270870432,A,16502.631700015627,Incorrect,sub_004_day_10_data.csv,0,300,105.0,Training at home,,,,,,,,,,,,,
4,12,2636,B,52.94348468718904,25.329283234505596,2.647174234359452,0.3978714506510895,B,684.067599941045,Correct,sub_004_day_10_data.csv,1,300,105.0,Training at home,,,,,,,,,,,,,
4,12,2637,B,68.37173612361286,39.64635201821091,3.4185868061806435,0.6227634412102314,B,511.66429999284446,Correct,sub_004_day_10_data.csv,1,300,105.0,Training at home,,,,,,,,,,,,,
4,12,2638,A,38.47816026997785,70.39255479089641,1.9239080134988924,1.1057236649924858,A,5645.348299993202,Correct,sub_004_day_10_data.csv,1,300,105.0,Training at home,,,,,,,,,,,,,
4,12,2639,B,67.14452235426143,36.421430449871174,3.357226117713071,0.5721064916727344,B,852.0828000037,Correct,sub_004_day_10_data.csv,1,300,105.0,Training at home,,,,,,,,,,,,,
4,12,2640,B,41.80815122120221,27.231187376032334,2.0904075610601103,0.4277464910453515,B,1592.088699922897,Correct,sub_004_day_10_data.csv,1,300,105.0,Training at home,,,,,,,,,,,,,
4,12,2641,A,33.25020795240081,50.94821256996143,1.6625103976200404,0.8002926516166099,A,639.5408000098541,Correct,sub_004_day_10_data.csv,1,300,105.0,Training at home,,,,,,,,,,,,,
4,12,2642,A,27.46850913296376,56.0315380097547,1.373425456648188,0.8801413409039132,A,1668.9891000278294,Correct,sub_004_day_10_data.csv,1,300,105.0,Training at home,,,,,,,,,,,,,
4,12,2643,B,46.82336540484664,35.34382693443966,2.341168270242332,0.5551795352349235,B,2670.6779999658465,Correct,sub_004_day_10_data.csv,1,300,105.0,Training at home,,,,,,,,,,,,,
4,12,2644,A,35.54254852446426,49.797161100406775,1.7771274262232128,0.7822119774133266,A,687.5106999650598,Correct,sub_004_day_10_data.csv,1,300,105.0,Training at home,,,,,,,,,,,,,
4,12,2645,B,78.04322107152863,65.32587825396122,3.902161053576432,1.026136496059729,B,895.711199962534,Correct,sub_004_day_10_data.csv,1,300,105.0,Training at home,,,,,,,,,,,,,
4,12,2646,B,73.68080055264272,42.46645268716512,3.684040027632136,0.6670614789300823,B,909.3287999276072,Correct,sub_004_day_10_data.csv,1,300,105.0,Training at home,,,,,,,,,,,,,
4,12,2647,B,85.6299072571213,64.28496275796056,4.281495362856066,1.009785833683512,B,962.9933000542223,Correct,sub_004_day_10_data.csv,1,300,105.0,Training at home,,,,,,,,,,,,,
4,12,2648,A,10.703328185506578,35.56516848426615,0.5351664092753289,0.5586563601692689,A,410.8794000931084,Correct,sub_004_day_10_data.csv,1,300,105.0,Training at home,,,,,,,,,,,,,
4,12,2649,A,62.91938723748591,79.38494839938875,3.145969361874295,1.2469758534856226,A,697.8770000860095,Correct,sub_004_day_10_data.csv,1,300,105.0,Training at home,,,,,,,,,,,,,
4,12,2650,A,42.54926470308429,61.625506431852024,2.127463235154215,0.9680111914002844,A,867.6555000711232,Correct,sub_004_day_10_data.csv,1,300,106.0,Training at home,,,,,,,,,,,,,
4,12,2651,B,60.43116120125311,44.40251805525364,3.0215580600626555,0.6974731226163648,B,3146.453300025314,Correct,sub_004_day_10_data.csv,1,300,106.0,Training at home,,,,,,,,,,,,,
4,12,2652,B,77.25088084007898,53.06084682775221,3.862544042003949,0.833477832936598,B,1336.8873000144958,Correct,sub_004_day_10_data.csv,1,300,106.0,Training at home,,,,,,,,,,,,,
4,12,2653,B,43.877769185384906,24.891142126606937,2.1938884592692456,0.3909891462220389,A,13218.279599910602,Incorrect,sub_004_day_10_data.csv,0,300,106.0,Training at home,,,,,,,,,,,,,
4,12,2654,B,52.80198531693897,32.929695449177885,2.640099265846948,0.5172584465404324,B,3895.990199991502,Correct,sub_004_day_10_data.csv,1,300,106.0,Training at home,,,,,,,,,,,,,
4,12,2655,A,27.105425107634808,57.6818376130916,1.3552712553817403,0.9060641864542398,A,633.5965000325814,Correct,sub_004_day_10_data.csv,1,300,106.0,Training at home,,,,,,,,,,,,,
4,12,2656,B,78.60532726679702,55.070476188049426,3.930266363339851,0.8650450171103385,B,601.1487999930978,Correct,sub_004_day_10_data.csv,1,300,106.0,Training at home,,,,,,,,,,,,,
4,12,2657,A,43.15923515154789,66.39760360891431,2.1579617575773944,1.0429711185686616,A,565.5392000917345,Correct,sub_004_day_10_data.csv,1,300,106.0,Training at home,,,,,,,,,,,,,
4,12,2658,B,44.6895646110268,34.39169176627686,2.23447823055134,0.5402234309872997,B,3299.1225000005215,Correct,sub_004_day_10_data.csv,1,300,106.0,Training at home,,,,,,,,,,,,,
4,12,2659,B,55.692044611191236,38.38369634268313,2.784602230559562,0.6029296922389737,B,508.01630003843457,Correct,sub_004_day_10_data.csv,1,300,106.0,Training at home,,,,,,,,,,,,,
4,12,2660,A,44.558424247523334,68.16902990585078,2.2279212123761667,1.0707966177728183,A,752.3648999631405,Correct,sub_004_day_10_data.csv,1,300,106.0,Training at home,,,,,,,,,,,,,
4,12,2661,B,83.22704851448242,68.02862794833132,4.161352425724121,1.0685911889813546,B,1010.2035999298096,Correct,sub_004_day_10_data.csv,1,300,106.0,Training at home,,,,,,,,,,,,,
4,12,2662,A,54.39653422594763,70.07303100346826,2.7198267112973813,1.1007045970763285,A,463.2823000429198,Correct,sub_004_day_10_data.csv,1,300,106.0,Training at home,,,,,,,,,,,,,
4,12,2663,A,48.17020015276875,76.37363019401413,2.4085100076384376,1.1996741777274915,A,437.969799968414,Correct,sub_004_day_10_data.csv,1,300,106.0,Training at home,,,,,,,,,,,,,
4,12,2664,B,74.43409929874505,60.92012412699434,3.721704964937253,0.9569310720657184,B,762.6041000476107,Correct,sub_004_day_10_data.csv,1,300,106.0,Training at home,,,,,,,,,,,,,
4,12,2665,B,63.220749928063654,31.30187609599505,3.1610374964031824,0.49168871993378,B,435.4569000424817,Correct,sub_004_day_10_data.csv,1,300,106.0,Training at home,,,,,,,,,,,,,
4,12,2666,A,20.39353699493674,51.31936061118871,1.019676849746837,0.8061226314151793,A,426.83729995042086,Correct,sub_004_day_10_data.csv,1,300,106.0,Training at home,,,,,,,,,,,,,
4,12,2667,A,59.143742258428745,74.93803933990708,2.9571871129214373,1.177123969323375,A,461.454400094226,Correct,sub_004_day_10_data.csv,1,300,106.0,Training at home,,,,,,,,,,,,,
4,12,2668,A,56.489468163740824,75.61435549860522,2.824473408187041,1.1877475187017257,A,480.0246000522747,Correct,sub_004_day_10_data.csv,1,300,106.0,Training at home,,,,,,,,,,,,,
4,12,2669,B,41.561613576791714,19.558939255342416,2.078080678839586,0.3072310993829638,B,474.51299999374896,Correct,sub_004_day_10_data.csv,1,300,106.0,Training at home,,,,,,,,,,,,,
4,12,2670,B,65.98229981022882,35.671191771270244,3.299114990511441,0.5603217700670764,B,477.44539997074753,Correct,sub_004_day_10_data.csv,1,300,106.0,Training at home,,,,,,,,,,,,,
4,12,2671,A,20.532933831822117,40.81210471097921,1.026646691591106,0.6410750416877483,A,486.4042999688536,Correct,sub_004_day_10_data.csv,1,300,106.0,Training at home,,,,,,,,,,,,,
4,12,2672,A,34.25392997079336,67.27271382597908,1.712696498539668,1.056717317713722,A,440.5941000441089,Correct,sub_004_day_10_data.csv,1,300,106.0,Training at home,,,,,,,,,,,,,
4,12,2673,B,68.74616836348798,39.10648399375712,3.437308418174399,0.6142832141125709,B,433.205800014548,Correct,sub_004_day_10_data.csv,1,300,106.0,Training at home,,,,,,,,,,,,,
4,12,2674,A,29.664915286271025,52.944836385337325,1.4832457643135513,0.8316555451684465,A,587.9983999766409,Correct,sub_004_day_10_data.csv,1,300,106.0,Training at home,,,,,,,,,,,,,
4,12,2675,B,66.72262589918714,44.57548169352823,3.336131294959357,0.700190029093073,B,385.44949993956834,Correct,sub_004_day_10_data.csv,1,300,107.0,Training at home,,,,,,,,,,,,,
4,12,2676,B,64.44331355549117,32.648273590764816,3.222165677774558,0.5128378823256821,B,429.573499946855,Correct,sub_004_day_10_data.csv,1,300,107.0,Training at home,,,,,,,,,,,,,
4,12,2677,B,86.51694579021401,60.48796747060368,4.3258472895107,0.9501427711811344,B,563.9175000833347,Correct,sub_004_day_10_data.csv,1,300,107.0,Training at home,,,,,,,,,,,,,
4,12,2678,B,56.490655381156614,44.01803632939491,2.824532769057831,0.6914336977893784,B,607.697100029327,Correct,sub_004_day_10_data.csv,1,300,107.0,Training at home,,,,,,,,,,,,,
4,12,2679,A,35.80915498788789,47.44637453099325,1.7904577493943945,0.7452859083301914,A,687.9809000529349,Correct,sub_004_day_10_data.csv,1,300,107.0,Training at home,,,,,,,,,,,,,
4,12,2680,B,82.63380827877907,66.23447702914842,4.131690413938953,1.040408732245673,B,772.8175000520423,Correct,sub_004_day_10_data.csv,1,300,107.0,Training at home,,,,,,,,,,,,,
4,12,2681,A,61.424591774949704,87.05583503400497,3.071229588747485,1.367469858974775,A,390.9540999447927,Correct,sub_004_day_10_data.csv,1,300,107.0,Training at home,,,,,,,,,,,,,
4,12,2682,B,68.24153387103442,46.23469745570497,3.4120766935517213,0.726252929338947,B,525.8138000499457,Correct,sub_004_day_10_data.csv,1,300,107.0,Training at home,,,,,,,,,,,,,
4,12,2683,B,86.90936524357114,64.58575975167851,4.345468262178557,1.0145107418119426,B,601.2403999920934,Correct,sub_004_day_10_data.csv,1,300,107.0,Training at home,,,,,,,,,,,,,
4,12,2684,A,33.5794851612401,53.24431632409931,1.6789742580620048,0.8363597650460076,A,365.96229998394847,Correct,sub_004_day_10_data.csv,1,300,107.0,Training at home,,,,,,,,,,,,,
4,12,2685,A,15.67689726795914,45.52660600842708,0.783844863397957,0.7151302548947571,A,468.29330001492053,Correct,sub_004_day_10_data.csv,1,300,107.0,Training at home,,,,,,,,,,,,,
4,12,2686,B,74.79995391558063,44.91661811349158,3.739997695779032,0.7055485874472168,B,495.3714000293985,Correct,sub_004_day_10_data.csv,1,300,107.0,Training at home,,,,,,,,,,,,,
4,12,2687,A,61.33754477509174,83.00520285079796,3.066877238754587,1.3038426774289869,A,376.1478000087663,Correct,sub_004_day_10_data.csv,1,300,107.0,Training at home,,,,,,,,,,,,,
4,12,2688,A,14.574195514020117,40.65604323714332,0.7287097757010058,0.6386236337891923,A,477.5162999285385,Correct,sub_004_day_10_data.csv,1,300,107.0,Training at home,,,,,,,,,,,,,
4,12,2689,A,27.06468849679011,49.1813887942755,1.3532344248395054,0.7725394486471964,A,421.6574999736622,Correct,sub_004_day_10_data.csv,1,300,107.0,Training at home,,,,,,,,,,,,,
4,12,2690,A,54.45630234324672,73.91207283600038,2.7228151171623356,1.1610081251658624,A,407.44379989337176,Correct,sub_004_day_10_data.csv,1,300,107.0,Training at home,,,,,,,,,,,,,
4,12,2691,A,28.381679179387117,54.687577698159046,1.4190839589693558,0.8590304616957873,A,489.77779992856085,Correct,sub_004_day_10_data.csv,1,300,107.0,Training at home,,,,,,,,,,,,,
4,12,2692,A,29.59084321194895,61.82306091602395,1.4795421605974477,0.9711143699810756,A,884.2687000287697,Correct,sub_004_day_10_data.csv,1,300,107.0,Training at home,,,,,,,,,,,,,
4,12,2693,B,48.21503983915221,40.41923029004467,2.4107519919576106,0.634903784714792,B,1531.4401999348777,Correct,sub_004_day_10_data.csv,1,300,107.0,Training at home,,,,,,,,,,,,,
4,12,2694,B,69.6079790769728,42.05827198347402,3.48039895384864,0.660649791429817,B,493.82319999858737,Correct,sub_004_day_10_data.csv,1,300,107.0,Training at home,,,,,,,,,,,,,
4,12,2695,A,54.465274715071786,67.58614373040906,2.72326373575359,1.061640663139585,A,363.67340001743287,Correct,sub_004_day_10_data.csv,1,300,107.0,Training at home,,,,,,,,,,,,,
4,12,2696,A,56.460288959714205,71.78661428122712,2.8230144479857104,1.1276215002599363,A,905.7654000353068,Correct,sub_004_day_10_data.csv,1,300,107.0,Training at home,,,,,,,,,,,,,
4,12,2697,A,51.140825854496455,65.4706879504343,2.557041292724823,1.028411161452771,A,333.00189999863505,Correct,sub_004_day_10_data.csv,1,300,107.0,Training at home,,,,,,,,,,,,,
4,12,2698,B,53.148492464047145,27.88053302035442,2.6574246232023575,0.4379463885745654,B,506.5477000316605,Correct,sub_004_day_10_data.csv,1,300,107.0,Training at home,,,,,,,,,,,,,
4,12,2699,B,83.30013299810861,54.630969130199226,4.165006649905431,0.8581412563896232,B,585.1109999930486,Correct,sub_004_day_10_data.csv,1,300,107.0,Training at home,,,,,,,,,,,,,
