subject,day,trial,cat,x,y,xt,yt,resp,rt,fb,f_name,acc,n_trials,block,session_type,ns_left_digit,ns_right_digit,ns_left_size,ns_right_size,ns_congruent,ns_cue,ns_correct_side,ns_resp,ns_rt,ns_fb,acc_stroop,acc_stroop_mean,resp_key
4,10,2100,B,82.81786643220536,68.78515027411738,4.140893321610268,1.0804746138861856,B,2017.2165999538263,Correct,sub_004_day_09_data.csv,1,300,84.0,Training at home,,,,,,,,,,,,,
4,10,2101,B,57.4523196169629,46.98463335185234,2.872615980848145,0.7380328948489463,A,1695.3389999689534,Incorrect,sub_004_day_09_data.csv,0,300,84.0,Training at home,,,,,,,,,,,,,
4,10,2102,B,48.89015494219635,18.097836932170264,2.4445077471098173,0.2842801577598607,B,714.4135999842547,Correct,sub_004_day_09_data.csv,1,300,84.0,Training at home,,,,,,,,,,,,,
4,10,2103,A,31.80954832350365,44.160515633051205,1.5904774161751822,0.6936717574576543,A,546.8385999556631,Correct,sub_004_day_09_data.csv,1,300,84.0,Training at home,,,,,,,,,,,,,
4,10,2104,B,77.29871441136952,48.704019884283234,3.864935720568476,0.7650409553437771,B,815.7665000180714,Correct,sub_004_day_09_data.csv,1,300,84.0,Training at home,,,,,,,,,,,,,
4,10,2105,A,62.172098196615536,82.54679306693534,3.1086049098307766,1.2966419933824047,A,757.6408999739215,Correct,sub_004_day_09_data.csv,1,300,84.0,Training at home,,,,,,,,,,,,,
4,10,2106,A,26.303966636193262,44.990931392543395,1.3151983318096632,0.7067158977048836,A,485.3728000307456,Correct,sub_004_day_09_data.csv,1,300,84.0,Training at home,,,,,,,,,,,,,
4,10,2107,A,36.19006828130531,45.48436279003816,1.8095034140652655,0.7144666999719842,A,464.0434000175446,Correct,sub_004_day_09_data.csv,1,300,84.0,Training at home,,,,,,,,,,,,,
4,10,2108,A,59.646897258955526,80.97109767432005,2.982344862947776,1.2718910280337272,A,542.9913999978453,Correct,sub_004_day_09_data.csv,1,300,84.0,Training at home,,,,,,,,,,,,,
4,10,2109,A,31.265859504883785,62.04058656333397,1.5632929752441893,0.9745312548588582,A,530.7779000140727,Correct,sub_004_day_09_data.csv,1,300,84.0,Training at home,,,,,,,,,,,,,
4,10,2110,B,54.93202983973144,34.325483708324725,2.7466014919865724,0.5391834372449454,B,705.8895999798551,Correct,sub_004_day_09_data.csv,1,300,84.0,Training at home,,,,,,,,,,,,,
4,10,2111,A,36.48974222019948,45.667827910020115,1.824487111009974,0.7173485633376104,A,442.81799998134375,Correct,sub_004_day_09_data.csv,1,300,84.0,Training at home,,,,,,,,,,,,,
4,10,2112,A,67.79525593237673,82.43186589789327,3.389762796618837,1.2948367216326024,A,657.2673000046052,Correct,sub_004_day_09_data.csv,1,300,84.0,Training at home,,,,,,,,,,,,,
4,10,2113,B,60.60499272891298,52.57082516951241,3.0302496364456495,0.8257805907284679,A,821.8939999933355,Incorrect,sub_004_day_09_data.csv,0,300,84.0,Training at home,,,,,,,,,,,,,
4,10,2114,B,60.961130960586125,53.840344748160014,3.0480565480293063,0.8457221576378066,B,644.7013999568298,Correct,sub_004_day_09_data.csv,1,300,84.0,Training at home,,,,,,,,,,,,,
4,10,2115,B,54.51051970111074,28.826122190523726,2.725525985055537,0.4527996685261553,B,765.1828000089154,Correct,sub_004_day_09_data.csv,1,300,84.0,Training at home,,,,,,,,,,,,,
4,10,2116,B,63.05287056214977,47.85297074838246,3.1526435281074883,0.7516727067778279,B,735.8453999622725,Correct,sub_004_day_09_data.csv,1,300,84.0,Training at home,,,,,,,,,,,,,
4,10,2117,A,38.73609268686993,46.92329131604229,1.9368046343434968,0.7370693364036609,A,526.1823000037111,Correct,sub_004_day_09_data.csv,1,300,84.0,Training at home,,,,,,,,,,,,,
4,10,2118,A,26.287130344840108,44.48223752481021,1.3143565172420053,0.6987253531158999,A,562.7021000254899,Correct,sub_004_day_09_data.csv,1,300,84.0,Training at home,,,,,,,,,,,,,
4,10,2119,A,24.90869502712336,40.64988582596432,1.245434751356168,0.6385269134005668,A,738.2098000380211,Correct,sub_004_day_09_data.csv,1,300,84.0,Training at home,,,,,,,,,,,,,
4,10,2120,A,61.17247748046547,71.22880912883063,3.058623874023273,1.1188595174154194,A,720.3928999952041,Correct,sub_004_day_09_data.csv,1,300,84.0,Training at home,,,,,,,,,,,,,
4,10,2121,A,53.078633611920466,70.96588468413495,2.653931680596023,1.1147295098958938,A,487.5692999921739,Correct,sub_004_day_09_data.csv,1,300,84.0,Training at home,,,,,,,,,,,,,
4,10,2122,A,61.78498887786853,81.0232696806799,3.089249443893426,1.2727105439932431,A,1494.419199996628,Correct,sub_004_day_09_data.csv,1,300,84.0,Training at home,,,,,,,,,,,,,
4,10,2123,A,53.41523375272028,72.30952174672103,2.670761687636014,1.135835311520451,A,612.7838999964297,Correct,sub_004_day_09_data.csv,1,300,84.0,Training at home,,,,,,,,,,,,,
4,10,2124,A,42.65355997427143,62.14266535205903,2.1326779987135716,0.9761347047225882,A,611.6984999971464,Correct,sub_004_day_09_data.csv,1,300,84.0,Training at home,,,,,,,,,,,,,
4,10,2125,A,36.81927994959446,57.22300181378884,1.840963997479723,0.8988568105727721,A,889.6712000132538,Correct,sub_004_day_09_data.csv,1,300,85.0,Training at home,,,,,,,,,,,,,
4,10,2126,A,32.998995729332975,46.134480810600074,1.6499497864666488,0.7246787299588024,A,583.1708000041544,Correct,sub_004_day_09_data.csv,1,300,85.0,Training at home,,,,,,,,,,,,,
4,10,2127,A,29.76095431024488,50.90373733453765,1.488047715512244,0.7995940362522398,A,470.726299972739,Correct,sub_004_day_09_data.csv,1,300,85.0,Training at home,,,,,,,,,,,,,
4,10,2128,B,61.57704105591974,42.06149224216187,3.078852052795987,0.6607003751349991,B,944.5045000175014,Correct,sub_004_day_09_data.csv,1,300,85.0,Training at home,,,,,,,,,,,,,
4,10,2129,B,64.99752561270031,37.32537809956884,3.2498762806350157,0.5863056681503341,B,595.2259000041522,Correct,sub_004_day_09_data.csv,1,300,85.0,Training at home,,,,,,,,,,,,,
4,10,2130,B,73.70623918764558,41.64241272074077,3.685311959382279,0.6541174894061668,B,518.5447999974713,Correct,sub_004_day_09_data.csv,1,300,85.0,Training at home,,,,,,,,,,,,,
4,10,2131,A,49.31586760341088,57.063133420976406,2.465793380170544,0.8963456037307682,A,700.2644000458531,Correct,sub_004_day_09_data.csv,1,300,85.0,Training at home,,,,,,,,,,,,,
4,10,2132,A,14.87923537981858,30.52808294539161,0.743961768990929,0.4795340055471107,A,789.8704999824986,Correct,sub_004_day_09_data.csv,1,300,85.0,Training at home,,,,,,,,,,,,,
4,10,2133,B,78.97564178735891,60.55680479511854,3.948782089367945,0.951224065346078,B,972.4353000056,Correct,sub_004_day_09_data.csv,1,300,85.0,Training at home,,,,,,,,,,,,,
4,10,2134,B,65.58025760300956,52.558911163470974,3.2790128801504776,0.8255934459591947,B,1343.8858999870718,Correct,sub_004_day_09_data.csv,1,300,85.0,Training at home,,,,,,,,,,,,,
4,10,2135,A,37.886415295426275,50.94330572011803,1.8943207647713136,0.8002155749995085,B,1022.2348000388592,Incorrect,sub_004_day_09_data.csv,0,300,85.0,Training at home,,,,,,,,,,,,,
4,10,2136,A,29.77563346056546,50.381670317916175,1.488781673028273,0.7913934267317421,A,594.8106000432745,Correct,sub_004_day_09_data.csv,1,300,85.0,Training at home,,,,,,,,,,,,,
4,10,2137,B,68.78873909749842,36.34494601803069,3.439436954874921,0.570905077026814,B,820.2283999999054,Correct,sub_004_day_09_data.csv,1,300,85.0,Training at home,,,,,,,,,,,,,
4,10,2138,A,33.94201385311685,47.118159538156846,1.6971006926558423,0.7401303192787269,A,965.9512999933212,Correct,sub_004_day_09_data.csv,1,300,85.0,Training at home,,,,,,,,,,,,,
4,10,2139,A,22.60390565880602,40.52074145194645,1.130195282940301,0.6364983183172319,A,832.5069999555126,Correct,sub_004_day_09_data.csv,1,300,85.0,Training at home,,,,,,,,,,,,,
4,10,2140,B,38.00956020391192,14.894019249842316,1.900478010195596,0.2339547072886479,B,582.4520000023767,Correct,sub_004_day_09_data.csv,1,300,85.0,Training at home,,,,,,,,,,,,,
4,10,2141,A,46.14519309334113,66.09919152908157,2.3072596546670563,1.0382836725799367,A,673.4421000001021,Correct,sub_004_day_09_data.csv,1,300,85.0,Training at home,,,,,,,,,,,,,
4,10,2142,B,55.5652922077315,44.91075470021234,2.778264610386575,0.7054564851668018,B,1184.5829999656416,Correct,sub_004_day_09_data.csv,1,300,85.0,Training at home,,,,,,,,,,,,,
4,10,2143,A,15.784115662461264,40.9588575336072,0.7892057831230632,0.6433802296350567,A,1028.9685999741778,Correct,sub_004_day_09_data.csv,1,300,85.0,Training at home,,,,,,,,,,,,,
4,10,2144,A,25.229498651318725,52.20894543487737,1.2614749325659362,0.8200961971494056,A,1113.0736999912187,Correct,sub_004_day_09_data.csv,1,300,85.0,Training at home,,,,,,,,,,,,,
4,10,2145,B,69.55621283367758,37.53398849539387,3.477810641683879,0.5895825125852661,B,1090.3566000051796,Correct,sub_004_day_09_data.csv,1,300,85.0,Training at home,,,,,,,,,,,,,
4,10,2146,A,45.23782779730923,71.22542409262182,2.2618913898654616,1.1188063453909909,A,934.2796000419185,Correct,sub_004_day_09_data.csv,1,300,85.0,Training at home,,,,,,,,,,,,,
4,10,2147,B,32.89056713057896,18.427951580165207,1.644528356528948,0.2894655865247771,B,566.0037000197917,Correct,sub_004_day_09_data.csv,1,300,85.0,Training at home,,,,,,,,,,,,,
4,10,2148,A,54.57531493957801,81.3924136276452,2.7287657469789,1.2785090435527595,A,802.6677999878302,Correct,sub_004_day_09_data.csv,1,300,85.0,Training at home,,,,,,,,,,,,,
4,10,2149,B,31.88496090871836,13.381944215728208,1.5942480454359178,0.2102030881944007,B,828.2095000031404,Correct,sub_004_day_09_data.csv,1,300,85.0,Training at home,,,,,,,,,,,,,
4,10,2150,A,31.55131481021823,46.482075320067025,1.5775657405109116,0.73013873174565,A,1398.0778999975882,Correct,sub_004_day_09_data.csv,1,300,86.0,Training at home,,,,,,,,,,,,,
4,10,2151,B,67.9998975250118,42.30416542382017,3.3999948762505903,0.6645122765586039,B,1559.6137000247836,Correct,sub_004_day_09_data.csv,1,300,86.0,Training at home,,,,,,,,,,,,,
4,10,2152,B,47.627662477149975,19.387729622290266,2.381383123857499,0.3045417447558615,B,1071.0731000290252,Correct,sub_004_day_09_data.csv,1,300,86.0,Training at home,,,,,,,,,,,,,
4,10,2153,B,54.131196915241,35.2192350538524,2.70655984576205,0.5532224505511741,B,718.672199989669,Correct,sub_004_day_09_data.csv,1,300,86.0,Training at home,,,,,,,,,,,,,
4,10,2154,A,52.45256760580715,76.24871767222987,2.622628380290357,1.197712056423598,A,675.5177000304684,Correct,sub_004_day_09_data.csv,1,300,86.0,Training at home,,,,,,,,,,,,,
4,10,2155,A,28.74724835852266,58.088663684166846,1.437362417926133,0.912454595435134,A,1215.6503000296652,Correct,sub_004_day_09_data.csv,1,300,86.0,Training at home,,,,,,,,,,,,,
4,10,2156,B,72.61293804498801,40.82898441488045,3.630646902249401,0.6413401874566028,B,2082.576400018297,Correct,sub_004_day_09_data.csv,1,300,86.0,Training at home,,,,,,,,,,,,,
4,10,2157,A,54.14529580066215,75.64769287534737,2.7072647900331073,1.1882711809910411,A,714.2235999926925,Correct,sub_004_day_09_data.csv,1,300,86.0,Training at home,,,,,,,,,,,,,
4,10,2158,B,55.99826639994827,35.15710876733546,2.7999133199974136,0.5522465731245919,B,1143.09799997136,Correct,sub_004_day_09_data.csv,1,300,86.0,Training at home,,,,,,,,,,,,,
4,10,2159,A,27.470575916901133,43.1890677526693,1.3735287958450568,0.6784122898358886,A,943.2710000546648,Correct,sub_004_day_09_data.csv,1,300,86.0,Training at home,,,,,,,,,,,,,
4,10,2160,B,87.32544037985869,67.41228696855923,4.366272018992935,1.058909727510563,B,825.2179999835789,Correct,sub_004_day_09_data.csv,1,300,86.0,Training at home,,,,,,,,,,,,,
4,10,2161,B,39.98587617257073,16.33455478017044,1.9992938086285363,0.2565825864852174,B,897.1225999994203,Correct,sub_004_day_09_data.csv,1,300,86.0,Training at home,,,,,,,,,,,,,
4,10,2162,B,61.946437555132654,53.36533116686172,3.0973218777566327,0.8382606617509959,B,1091.1942000384445,Correct,sub_004_day_09_data.csv,1,300,86.0,Training at home,,,,,,,,,,,,,
4,10,2163,A,26.34487129460001,41.38236446951988,1.3172435647300005,0.6500326610280945,A,765.6029000063427,Correct,sub_004_day_09_data.csv,1,300,86.0,Training at home,,,,,,,,,,,,,
4,10,2164,B,38.55861659710777,22.57955539479005,1.9279308298553888,0.354678826747981,B,988.989900040906,Correct,sub_004_day_09_data.csv,1,300,86.0,Training at home,,,,,,,,,,,,,
4,10,2165,B,36.101758253400405,14.218562192297307,1.8050879126700203,0.223344652639654,B,576.5780999790877,Correct,sub_004_day_09_data.csv,1,300,86.0,Training at home,,,,,,,,,,,,,
4,10,2166,A,59.66433098513404,83.65767334984797,2.983216549256702,1.314091660061485,A,828.0837000347674,Correct,sub_004_day_09_data.csv,1,300,86.0,Training at home,,,,,,,,,,,,,
4,10,2167,B,67.2329178192879,42.3875368362463,3.361645890964395,0.6658218716425905,B,563.7878000270575,Correct,sub_004_day_09_data.csv,1,300,86.0,Training at home,,,,,,,,,,,,,
4,10,2168,B,43.60033853362806,24.46747968764216,2.1800169266814033,0.3843342721927705,B,576.3357999967411,Correct,sub_004_day_09_data.csv,1,300,86.0,Training at home,,,,,,,,,,,,,
4,10,2169,A,44.60515698416954,62.503887278047735,2.230257849208477,0.9818087654675964,A,635.9043999691494,Correct,sub_004_day_09_data.csv,1,300,86.0,Training at home,,,,,,,,,,,,,
4,10,2170,B,74.87636688443749,59.31695522092012,3.743818344221874,0.931748553776787,B,1043.8706999993883,Correct,sub_004_day_09_data.csv,1,300,86.0,Training at home,,,,,,,,,,,,,
4,10,2171,A,65.17513016393498,82.08842843479066,3.2587565081967487,1.289442018577349,A,1954.3961000163108,Correct,sub_004_day_09_data.csv,1,300,86.0,Training at home,,,,,,,,,,,,,
4,10,2172,B,82.67211641173213,60.36420777654523,4.133605820586607,0.9481987584528118,B,1008.9621000224724,Correct,sub_004_day_09_data.csv,1,300,86.0,Training at home,,,,,,,,,,,,,
4,10,2173,A,27.801373208109084,41.98564003565586,1.3900686604054542,0.6595088914614098,A,8450.566299958155,Correct,sub_004_day_09_data.csv,1,300,86.0,Training at home,,,,,,,,,,,,,
4,10,2174,A,26.899628926384587,49.95387441341932,1.3449814463192291,0.7846736243777264,A,1739.9182000081055,Correct,sub_004_day_09_data.csv,1,300,86.0,Training at home,,,,,,,,,,,,,
4,10,2175,B,79.41792341562908,57.851293111958725,3.9708961707814536,0.9087259872059966,B,646.6921999817714,Correct,sub_004_day_09_data.csv,1,300,87.0,Training at home,,,,,,,,,,,,,
4,10,2176,B,74.67280495398015,50.270337254569675,3.733640247699008,0.789644611062187,B,679.3997000204399,Correct,sub_004_day_09_data.csv,1,300,87.0,Training at home,,,,,,,,,,,,,
4,10,2177,B,33.35214848665156,16.785177059272772,1.667607424332578,0.2636609446930763,B,1367.0918999705464,Correct,sub_004_day_09_data.csv,1,300,87.0,Training at home,,,,,,,,,,,,,
4,10,2178,A,29.35723122026251,56.63987144750955,1.4678615610131254,0.8896970201988313,A,1782.0913000032306,Correct,sub_004_day_09_data.csv,1,300,87.0,Training at home,,,,,,,,,,,,,
4,10,2179,B,62.58218536179143,49.08250452724313,3.129109268089571,0.7709861782128739,B,3109.1138999909163,Correct,sub_004_day_09_data.csv,1,300,87.0,Training at home,,,,,,,,,,,,,
4,10,2180,B,54.81228782174968,40.60080434428309,2.740614391087484,0.6377559432891816,B,13469.23849999439,Correct,sub_004_day_09_data.csv,1,300,87.0,Training at home,,,,,,,,,,,,,
4,10,2181,A,63.64143910673311,88.77380435622419,3.182071955336655,1.3944556579836576,A,11155.404300021471,Correct,sub_004_day_09_data.csv,1,300,87.0,Training at home,,,,,,,,,,,,,
4,10,2182,B,71.62848532346247,49.87969075977462,3.5814242661731237,0.783508350271193,B,1193.4834000421688,Correct,sub_004_day_09_data.csv,1,300,87.0,Training at home,,,,,,,,,,,,,
4,10,2183,A,30.6199890970828,45.57807587360795,1.53099945485414,0.7159387416464248,A,2240.129599987995,Correct,sub_004_day_09_data.csv,1,300,87.0,Training at home,,,,,,,,,,,,,
4,10,2184,A,31.47912145623548,63.65064791250967,1.573956072811774,0.9998220393908543,A,21426.066599960905,Correct,sub_004_day_09_data.csv,1,300,87.0,Training at home,,,,,,,,,,,,,
4,10,2185,A,42.609236885087014,67.6618057890881,2.1304618442543504,1.0628291599780928,A,1031.3348000054248,Correct,sub_004_day_09_data.csv,1,300,87.0,Training at home,,,,,,,,,,,,,
4,10,2186,A,37.96960472319863,60.69854839177265,1.8984802361599316,0.9534505685557876,A,517.8907999652438,Correct,sub_004_day_09_data.csv,1,300,87.0,Training at home,,,,,,,,,,,,,
4,10,2187,A,49.74327149904137,75.13316221085192,2.487163574952069,1.1801889522129134,A,454.8158000106923,Correct,sub_004_day_09_data.csv,1,300,87.0,Training at home,,,,,,,,,,,,,
4,10,2188,A,26.55878715299402,49.233357879575834,1.3279393576497012,0.773355777130163,A,981.9216000032612,Correct,sub_004_day_09_data.csv,1,300,87.0,Training at home,,,,,,,,,,,,,
4,10,2189,B,49.613857513932466,42.81670838467036,2.480692875696623,0.6725632825608846,B,2155.038200027775,Correct,sub_004_day_09_data.csv,1,300,87.0,Training at home,,,,,,,,,,,,,
4,10,2190,A,36.437494772766,46.23003200260469,1.8218747386383,0.7261796445730196,B,612.1012999792583,Incorrect,sub_004_day_09_data.csv,0,300,87.0,Training at home,,,,,,,,,,,,,
4,10,2191,A,49.55532849541171,75.11894876984633,2.4777664247705853,1.1799656880036864,A,604.229100048542,Correct,sub_004_day_09_data.csv,1,300,87.0,Training at home,,,,,,,,,,,,,
4,10,2192,B,41.83652930636852,22.589120190240305,2.0918264653184258,0.354829070203579,B,578.3819999778643,Correct,sub_004_day_09_data.csv,1,300,87.0,Training at home,,,,,,,,,,,,,
4,10,2193,B,73.24789082840319,58.246539600470214,3.6623945414201593,0.9149345045293208,B,1565.6319999834525,Correct,sub_004_day_09_data.csv,1,300,87.0,Training at home,,,,,,,,,,,,,
4,10,2194,A,53.37702108343214,65.46270112846577,2.6688510541716073,1.0282857047466616,A,459.4418000197038,Correct,sub_004_day_09_data.csv,1,300,87.0,Training at home,,,,,,,,,,,,,
4,10,2195,A,34.635302593736085,66.83316949632561,1.7317651296868042,1.04981297152889,A,1457.0086000021547,Correct,sub_004_day_09_data.csv,1,300,87.0,Training at home,,,,,,,,,,,,,
4,10,2196,A,43.49989788185105,50.79788655368401,2.1749948940925523,0.7979313360747072,A,2648.7355999997817,Correct,sub_004_day_09_data.csv,1,300,87.0,Training at home,,,,,,,,,,,,,
4,10,2197,B,71.78594731543042,55.39436115017758,3.589297365771521,0.8701325901984885,B,3033.2864000229165,Correct,sub_004_day_09_data.csv,1,300,87.0,Training at home,,,,,,,,,,,,,
4,10,2198,B,41.075346791918946,15.424341498366635,2.0537673395959475,0.242284989688644,B,755.901199998334,Correct,sub_004_day_09_data.csv,1,300,87.0,Training at home,,,,,,,,,,,,,
4,10,2199,A,16.041319100472133,36.88640419147069,0.8020659550236067,0.5794102821263404,A,597.927599970717,Correct,sub_004_day_09_data.csv,1,300,87.0,Training at home,,,,,,,,,,,,,
4,10,2200,A,18.433462187293163,40.57428283976832,0.921673109364658,0.6373393444704527,A,508.8314000167884,Correct,sub_004_day_09_data.csv,1,300,88.0,Training at home,,,,,,,,,,,,,
4,10,2201,A,41.120869844043,62.743299630692306,2.05604349220215,0.9855694459088308,A,1167.8461999981664,Correct,sub_004_day_09_data.csv,1,300,88.0,Training at home,,,,,,,,,,,,,
4,10,2202,A,53.26291878657609,76.99748557712678,2.663145939328804,1.209473675169938,A,852.2670000093058,Correct,sub_004_day_09_data.csv,1,300,88.0,Training at home,,,,,,,,,,,,,
4,10,2203,B,49.90282306465414,18.78333782815393,2.4951411532327072,0.2950479806541182,B,915.7597999437712,Correct,sub_004_day_09_data.csv,1,300,88.0,Training at home,,,,,,,,,,,,,
4,10,2204,B,67.02232186368211,43.298815426475535,3.3511160931841055,0.6801362022647797,B,998.7846000003628,Correct,sub_004_day_09_data.csv,1,300,88.0,Training at home,,,,,,,,,,,,,
4,10,2205,A,39.78846786563056,60.547299006371865,1.989423393281528,0.9510747487656122,A,958.1208999734372,Correct,sub_004_day_09_data.csv,1,300,88.0,Training at home,,,,,,,,,,,,,
4,10,2206,B,79.72725426979221,59.896152544481765,3.9863627134896102,0.9408465640601876,B,1047.6348000229336,Correct,sub_004_day_09_data.csv,1,300,88.0,Training at home,,,,,,,,,,,,,
4,10,2207,A,37.15286135123347,68.21701244153718,1.8576430675616735,1.0715503256808836,A,1011.9271000148728,Correct,sub_004_day_09_data.csv,1,300,88.0,Training at home,,,,,,,,,,,,,
4,10,2208,A,47.82645366521894,55.99169557998661,2.391322683260947,0.87951549748061,B,1162.9899000399746,Incorrect,sub_004_day_09_data.csv,0,300,88.0,Training at home,,,,,,,,,,,,,
4,10,2209,B,46.14482114923397,28.4641658654404,2.3072410574616984,0.4471140718671446,B,504.3354000081308,Correct,sub_004_day_09_data.csv,1,300,88.0,Training at home,,,,,,,,,,,,,
4,10,2210,A,54.249936575041815,67.0262494136636,2.7124968287520907,1.0528458637782137,B,884.1537000262178,Incorrect,sub_004_day_09_data.csv,0,300,88.0,Training at home,,,,,,,,,,,,,
4,10,2211,A,41.045793523598064,47.96631904109364,2.052289676179903,0.7534531775962198,B,781.5993000403978,Incorrect,sub_004_day_09_data.csv,0,300,88.0,Training at home,,,,,,,,,,,,,
4,10,2212,B,70.59300993380691,39.83906835968273,3.5296504966903455,0.6257906224232042,B,589.7234000149183,Correct,sub_004_day_09_data.csv,1,300,88.0,Training at home,,,,,,,,,,,,,
4,10,2213,A,62.31561756162283,84.85969989972662,3.1157808780811416,1.3329730489540783,A,814.8911999887787,Correct,sub_004_day_09_data.csv,1,300,88.0,Training at home,,,,,,,,,,,,,
4,10,2214,B,72.8636928878481,41.41177434085416,3.6431846443924054,0.6504946302067286,B,481.54690000228584,Correct,sub_004_day_09_data.csv,1,300,88.0,Training at home,,,,,,,,,,,,,
4,10,2215,B,57.05724212465485,37.29965267871285,2.8528621062327426,0.5859015741844757,B,542.5139999715611,Correct,sub_004_day_09_data.csv,1,300,88.0,Training at home,,,,,,,,,,,,,
4,10,2216,B,49.4165777584185,24.906481302202135,2.470828887920925,0.3912300934288488,B,512.5950000365265,Correct,sub_004_day_09_data.csv,1,300,88.0,Training at home,,,,,,,,,,,,,
4,10,2217,B,53.79664549766471,41.64578156123883,2.6898322748832357,0.6541704070289658,B,507.9076000256464,Correct,sub_004_day_09_data.csv,1,300,88.0,Training at home,,,,,,,,,,,,,
4,10,2218,B,76.37185943790473,46.51256752347727,3.818592971895237,0.730617702156777,B,567.5262000295334,Correct,sub_004_day_09_data.csv,1,300,88.0,Training at home,,,,,,,,,,,,,
4,10,2219,B,66.23049679169233,53.449954055327666,3.3115248395846164,0.8395899149746467,B,478.4848000272177,Correct,sub_004_day_09_data.csv,1,300,88.0,Training at home,,,,,,,,,,,,,
4,10,2220,A,56.37475248423286,73.32463632398422,2.8187376242116433,1.1517806940128608,A,684.6403999952599,Correct,sub_004_day_09_data.csv,1,300,88.0,Training at home,,,,,,,,,,,,,
4,10,2221,B,82.43423186269385,65.76658669148789,4.121711593134693,1.0330591280082733,B,749.6315999887884,Correct,sub_004_day_09_data.csv,1,300,88.0,Training at home,,,,,,,,,,,,,
4,10,2222,A,52.635197944429535,77.44537037169351,2.631759897221477,1.216509033071265,A,562.630700005684,Correct,sub_004_day_09_data.csv,1,300,88.0,Training at home,,,,,,,,,,,,,
4,10,2223,A,33.04681566105203,51.65954453722686,1.6523407830526011,0.811466228029733,B,675.7573999930173,Incorrect,sub_004_day_09_data.csv,0,300,88.0,Training at home,,,,,,,,,,,,,
4,10,2224,B,84.87285625271585,64.73776781788754,4.243642812635793,1.016898478932386,B,1042.973699979484,Correct,sub_004_day_09_data.csv,1,300,88.0,Training at home,,,,,,,,,,,,,
4,10,2225,B,40.83611006480311,14.124861615073012,2.0418055032401554,0.2218728074144291,B,696.5479999780655,Correct,sub_004_day_09_data.csv,1,300,89.0,Training at home,,,,,,,,,,,,,
4,10,2226,A,35.55183697709992,54.2401465626364,1.777591848854996,0.852002229854061,A,770.2745999558829,Correct,sub_004_day_09_data.csv,1,300,89.0,Training at home,,,,,,,,,,,,,
4,10,2227,B,48.57273619388425,40.489792739289925,2.4286368096942126,0.6360121770756328,B,837.6058000139892,Correct,sub_004_day_09_data.csv,1,300,89.0,Training at home,,,,,,,,,,,,,
4,10,2228,A,41.490445228944765,61.62786932136666,2.074522261447238,0.9680483075819863,B,1015.3178999898956,Incorrect,sub_004_day_09_data.csv,0,300,89.0,Training at home,,,,,,,,,,,,,
4,10,2229,B,60.73174864417396,42.076762982101194,3.0365874322086985,0.6609402473570404,B,1100.656600028742,Correct,sub_004_day_09_data.csv,1,300,89.0,Training at home,,,,,,,,,,,,,
4,10,2230,B,66.39538063311467,41.24315705959453,3.319769031655733,0.647845996146361,B,550.7095000357367,Correct,sub_004_day_09_data.csv,1,300,89.0,Training at home,,,,,,,,,,,,,
4,10,2231,B,68.8388326922806,44.64449535080048,3.4419416346140306,0.7012740930864922,B,567.5112000317313,Correct,sub_004_day_09_data.csv,1,300,89.0,Training at home,,,,,,,,,,,,,
4,10,2232,B,87.95952994887733,68.99139617593664,4.397976497443866,1.0837143169361276,B,1330.2080999710597,Correct,sub_004_day_09_data.csv,1,300,89.0,Training at home,,,,,,,,,,,,,
4,10,2233,A,54.121687020190976,71.38782182147125,2.7060843510095487,1.121357282950556,A,506.88180001452565,Correct,sub_004_day_09_data.csv,1,300,89.0,Training at home,,,,,,,,,,,,,
4,10,2234,A,53.40654506125101,70.01111563240774,2.6703272530625504,1.0997320327019884,B,453.21579999290407,Incorrect,sub_004_day_09_data.csv,0,300,89.0,Training at home,,,,,,,,,,,,,
4,10,2235,B,77.75980900740808,58.77333521866382,3.887990450370404,0.9232093907496226,B,839.3674999824725,Correct,sub_004_day_09_data.csv,1,300,89.0,Training at home,,,,,,,,,,,,,
4,10,2236,B,79.44718301491041,53.90899806482032,3.972359150745521,0.8468005614141296,B,577.8621999779716,Correct,sub_004_day_09_data.csv,1,300,89.0,Training at home,,,,,,,,,,,,,
4,10,2237,A,34.38775368471622,49.343558968952614,1.7193876842358111,0.7750868117941814,A,782.8377999830991,Correct,sub_004_day_09_data.csv,1,300,89.0,Training at home,,,,,,,,,,,,,
4,10,2238,A,43.224524604711355,73.54318059093751,2.1612262302355676,1.1552135793305838,A,553.94090001937,Correct,sub_004_day_09_data.csv,1,300,89.0,Training at home,,,,,,,,,,,,,
4,10,2239,B,58.40150162898585,50.48104981789806,2.9200750814492924,0.7929544762670446,B,971.3475999888032,Correct,sub_004_day_09_data.csv,1,300,89.0,Training at home,,,,,,,,,,,,,
4,10,2240,A,48.46529843644151,65.33437579470137,2.4232649218220756,1.026269975117543,A,1089.5938000176102,Correct,sub_004_day_09_data.csv,1,300,89.0,Training at home,,,,,,,,,,,,,
4,10,2241,B,64.0928761377928,36.703676513076374,3.2046438068896403,0.5765400024660849,B,961.698199971579,Correct,sub_004_day_09_data.csv,1,300,89.0,Training at home,,,,,,,,,,,,,
4,10,2242,A,31.15360949948555,53.11944479325552,1.5576804749742774,0.8343982876263006,A,1036.6126000299118,Correct,sub_004_day_09_data.csv,1,300,89.0,Training at home,,,,,,,,,,,,,
4,10,2243,A,64.43353177919043,84.93290925398456,3.2216765889595216,1.3341230188016322,A,696.9310999847949,Correct,sub_004_day_09_data.csv,1,300,89.0,Training at home,,,,,,,,,,,,,
4,10,2244,B,35.864412988740156,22.191482138477408,1.7932206494370078,0.3485829862925487,B,1502.6373000000603,Correct,sub_004_day_09_data.csv,1,300,89.0,Training at home,,,,,,,,,,,,,
4,10,2245,B,60.66240305866149,31.572669270466648,3.0331201529330745,0.4959423291715911,B,517.5491999834776,Correct,sub_004_day_09_data.csv,1,300,89.0,Training at home,,,,,,,,,,,,,
4,10,2246,A,55.12434004260667,64.4634329655696,2.7562170021303336,1.0125892371490577,A,873.7902999855578,Correct,sub_004_day_09_data.csv,1,300,89.0,Training at home,,,,,,,,,,,,,
4,10,2247,B,80.53156499297509,63.74672577758814,4.026578249648754,1.00133122696637,B,2295.0227000401355,Correct,sub_004_day_09_data.csv,1,300,89.0,Training at home,,,,,,,,,,,,,
4,10,2248,A,15.43961012205623,45.268436880007634,0.7719805061028114,0.7110749437086262,A,463.8390999753028,Correct,sub_004_day_09_data.csv,1,300,89.0,Training at home,,,,,,,,,,,,,
4,10,2249,B,45.17282141480622,25.482001190564542,2.258641070740311,0.4002703386952196,B,724.9894000124186,Correct,sub_004_day_09_data.csv,1,300,89.0,Training at home,,,,,,,,,,,,,
4,10,2250,B,78.63964314179707,48.47150847703834,3.9319821570898537,0.7613886746993952,B,650.5868000094779,Correct,sub_004_day_09_data.csv,1,300,90.0,Training at home,,,,,,,,,,,,,
4,10,2251,B,83.23303779903374,63.36367340490959,4.1616518899516874,0.9953142543666348,B,533.3441999973729,Correct,sub_004_day_09_data.csv,1,300,90.0,Training at home,,,,,,,,,,,,,
4,10,2252,A,63.471183094717674,73.9056697154508,3.1735591547358837,1.1609075451834694,A,621.7327999765985,Correct,sub_004_day_09_data.csv,1,300,90.0,Training at home,,,,,,,,,,,,,
4,10,2253,A,10.790493748389991,35.304281644119484,0.5395246874194995,0.5545583592671538,A,950.7555000018328,Correct,sub_004_day_09_data.csv,1,300,90.0,Training at home,,,,,,,,,,,,,
4,10,2254,B,44.680476892844624,24.20375121654268,2.2340238446422314,0.3801916350560274,B,552.4689999874681,Correct,sub_004_day_09_data.csv,1,300,90.0,Training at home,,,,,,,,,,,,,
4,10,2255,B,42.49543508620096,34.42548099946652,2.1247717543100477,0.5407541910210952,B,1503.826700034551,Correct,sub_004_day_09_data.csv,1,300,90.0,Training at home,,,,,,,,,,,,,
4,10,2256,B,61.98183110778117,34.898897425578014,3.0990915553890583,0.5481905988528982,B,793.8643000088632,Correct,sub_004_day_09_data.csv,1,300,90.0,Training at home,,,,,,,,,,,,,
4,10,2257,B,55.00025346176539,31.471068722101492,2.75001267308827,0.4943463914898678,B,641.6726000024937,Correct,sub_004_day_09_data.csv,1,300,90.0,Training at home,,,,,,,,,,,,,
4,10,2258,B,64.98532419170989,45.54325239228968,3.2492662095854943,0.7153917356810151,B,515.4130999580957,Correct,sub_004_day_09_data.csv,1,300,90.0,Training at home,,,,,,,,,,,,,
4,10,2259,B,83.52255035470579,66.34292786418897,4.1761275177352895,1.0421122739788682,A,512.1714000124484,Incorrect,sub_004_day_09_data.csv,0,300,90.0,Training at home,,,,,,,,,,,,,
4,10,2260,B,74.17382085297935,59.91597384045314,3.708691042648967,0.9411579162492292,B,603.4363000071608,Correct,sub_004_day_09_data.csv,1,300,90.0,Training at home,,,,,,,,,,,,,
4,10,2261,A,35.28280114830257,44.31957592138809,1.7641400574151282,0.6961702706242396,A,412.1537999599241,Correct,sub_004_day_09_data.csv,1,300,90.0,Training at home,,,,,,,,,,,,,
4,10,2262,A,62.19477907037647,84.97827355594522,3.109738953518823,1.3348355995905066,A,580.0715000368655,Correct,sub_004_day_09_data.csv,1,300,90.0,Training at home,,,,,,,,,,,,,
4,10,2263,B,61.76983720486974,36.30593204692552,3.088491860243487,0.5702922470017573,B,526.3182999915443,Correct,sub_004_day_09_data.csv,1,300,90.0,Training at home,,,,,,,,,,,,,
4,10,2264,A,21.648864446516185,52.8035871670906,1.0824432223258094,0.8294368076366004,A,423.188199987635,Correct,sub_004_day_09_data.csv,1,300,90.0,Training at home,,,,,,,,,,,,,
4,10,2265,B,65.51802698979081,57.61233673335799,3.2759013494895406,0.9049724691882944,B,513.5826999903657,Correct,sub_004_day_09_data.csv,1,300,90.0,Training at home,,,,,,,,,,,,,
4,10,2266,B,67.23802823998182,39.61294649680752,3.361901411999091,0.6222387085070801,B,464.2574000172317,Correct,sub_004_day_09_data.csv,1,300,90.0,Training at home,,,,,,,,,,,,,
4,10,2267,B,52.31724448363397,36.54188496465703,2.6158622241816984,0.5739985867664491,B,469.9774000328034,Correct,sub_004_day_09_data.csv,1,300,90.0,Training at home,,,,,,,,,,,,,
4,10,2268,A,30.32027320244236,55.14586928287529,1.516013660122118,0.8662292890745201,A,567.1891000238247,Correct,sub_004_day_09_data.csv,1,300,90.0,Training at home,,,,,,,,,,,,,
4,10,2269,A,64.08067020823962,86.03422176699213,3.204033510411981,1.3514223953024878,A,569.9691000045277,Correct,sub_004_day_09_data.csv,1,300,90.0,Training at home,,,,,,,,,,,,,
4,10,2270,A,12.144082883338664,31.52594814181978,0.6072041441669334,0.495208435398969,A,456.1532999505289,Correct,sub_004_day_09_data.csv,1,300,90.0,Training at home,,,,,,,,,,,,,
4,10,2271,B,58.05292021964808,35.78349911858522,2.902646010982404,0.5620858897534208,B,768.5497000347823,Correct,sub_004_day_09_data.csv,1,300,90.0,Training at home,,,,,,,,,,,,,
4,10,2272,A,50.087317002790925,61.377997109242855,2.5043658501395463,0.9641233240522646,B,1149.9552999739535,Incorrect,sub_004_day_09_data.csv,0,300,90.0,Training at home,,,,,,,,,,,,,
4,10,2273,B,64.48268979727197,33.289445761044924,3.224134489863599,0.522909391224873,B,419.7914999676868,Correct,sub_004_day_09_data.csv,1,300,90.0,Training at home,,,,,,,,,,,,,
4,10,2274,B,55.699800201788605,29.8857962562413,2.7849900100894303,0.4694449898264449,B,476.7318000085652,Correct,sub_004_day_09_data.csv,1,300,90.0,Training at home,,,,,,,,,,,,,
4,10,2275,A,43.17129033746768,58.89652889496568,2.158564516873384,0.9251445124918156,B,928.8047999725676,Incorrect,sub_004_day_09_data.csv,0,300,91.0,Training at home,,,,,,,,,,,,,
4,10,2276,A,37.50717692593096,53.91340995520323,1.8753588462965485,0.8468698632262064,A,535.1190000073984,Correct,sub_004_day_09_data.csv,1,300,91.0,Training at home,,,,,,,,,,,,,
4,10,2277,A,58.04646789807501,75.89839129612429,2.90232339490375,1.1922091425759378,B,1289.5001000142656,Incorrect,sub_004_day_09_data.csv,0,300,91.0,Training at home,,,,,,,,,,,,,
4,10,2278,B,51.836867891926005,32.77412526355704,2.5918433945963,0.5148147557791122,B,582.3782000225037,Correct,sub_004_day_09_data.csv,1,300,91.0,Training at home,,,,,,,,,,,,,
4,10,2279,B,37.09101871891028,17.52854616877559,1.854550935945514,0.2753377593596746,B,1000.085300009232,Correct,sub_004_day_09_data.csv,1,300,91.0,Training at home,,,,,,,,,,,,,
4,10,2280,B,51.15175793077782,30.5011774668576,2.557587896538891,0.4791113752785918,B,545.7817999995314,Correct,sub_004_day_09_data.csv,1,300,91.0,Training at home,,,,,,,,,,,,,
4,10,2281,A,57.68067567946133,81.1354956306744,2.8840337839730665,1.2744733850934673,A,545.7858000299893,Correct,sub_004_day_09_data.csv,1,300,91.0,Training at home,,,,,,,,,,,,,
4,10,2282,B,42.68450448255345,19.240784758639357,2.1342252241276727,0.3022335402352193,B,369.45090000517666,Correct,sub_004_day_09_data.csv,1,300,91.0,Training at home,,,,,,,,,,,,,
4,10,2283,A,59.63974457502938,73.19711240042756,2.9819872287514695,1.1497775529058478,A,1543.4659000020474,Correct,sub_004_day_09_data.csv,1,300,91.0,Training at home,,,,,,,,,,,,,
4,10,2284,A,67.90778048792967,83.04236046634878,3.3953890243964837,1.3044263478891838,A,531.7544999998063,Correct,sub_004_day_09_data.csv,1,300,91.0,Training at home,,,,,,,,,,,,,
4,10,2285,A,36.8576774662869,47.3806889664049,1.8428838733143451,0.744254121894403,A,501.2238000053912,Correct,sub_004_day_09_data.csv,1,300,91.0,Training at home,,,,,,,,,,,,,
4,10,2286,A,50.39584034713137,73.08311809513044,2.5197920173565684,1.1479869345454854,A,669.3190999794751,Correct,sub_004_day_09_data.csv,1,300,91.0,Training at home,,,,,,,,,,,,,
4,10,2287,A,35.14983567824238,66.82432446896004,1.757491783912119,1.0496740341639277,A,517.6123999990523,Correct,sub_004_day_09_data.csv,1,300,91.0,Training at home,,,,,,,,,,,,,
4,10,2288,A,62.09184050786949,74.21290475906831,3.1045920253934747,1.16573358196324,A,680.4944999748841,Correct,sub_004_day_09_data.csv,1,300,91.0,Training at home,,,,,,,,,,,,,
4,10,2289,A,52.61204079382277,61.77980919937405,2.6306020396911385,0.9704349736046632,A,488.4380999719724,Correct,sub_004_day_09_data.csv,1,300,91.0,Training at home,,,,,,,,,,,,,
4,10,2290,B,83.1999720885818,56.64744430817228,4.159998604429091,0.8898159744159548,B,599.6787999756634,Correct,sub_004_day_09_data.csv,1,300,91.0,Training at home,,,,,,,,,,,,,
4,10,2291,A,10.978556802299371,36.90171564877823,0.5489278401149686,0.5796507939353059,A,655.9736999915913,Correct,sub_004_day_09_data.csv,1,300,91.0,Training at home,,,,,,,,,,,,,
4,10,2292,B,43.813545623017376,31.962016437567453,2.190677281150869,0.5020581801708907,B,665.5577999772504,Correct,sub_004_day_09_data.csv,1,300,91.0,Training at home,,,,,,,,,,,,,
4,10,2293,A,34.93635255003366,49.91536439771515,1.7468176275016831,0.7840687104655973,B,828.1195999588817,Incorrect,sub_004_day_09_data.csv,0,300,91.0,Training at home,,,,,,,,,,,,,
4,10,2294,B,51.680480961346966,28.262623991771157,2.584024048067348,0.4439482595185944,B,706.1099000275135,Correct,sub_004_day_09_data.csv,1,300,91.0,Training at home,,,,,,,,,,,,,
4,10,2295,A,40.625858022549544,68.81091771015284,2.031292901127477,1.0808793678249395,A,1039.4254000275396,Correct,sub_004_day_09_data.csv,1,300,91.0,Training at home,,,,,,,,,,,,,
4,10,2296,B,74.07634898499002,50.875162866307576,3.703817449249501,0.7991451895548807,B,711.4624999812804,Correct,sub_004_day_09_data.csv,1,300,91.0,Training at home,,,,,,,,,,,,,
4,10,2297,B,41.32303918798884,25.155281143755936,2.066151959399442,0.3951382322010475,A,47.18009999487549,Incorrect,sub_004_day_09_data.csv,0,300,91.0,Training at home,,,,,,,,,,,,,
4,10,2298,B,50.04420368217566,19.742199071893676,2.502210184108783,0.3101097378498419,B,1111.2588999676518,Correct,sub_004_day_09_data.csv,1,300,91.0,Training at home,,,,,,,,,,,,,
4,10,2299,B,35.60172233028024,15.07787388554301,1.780086116514012,0.2368426891528765,B,635.8213999774307,Correct,sub_004_day_09_data.csv,1,300,91.0,Training at home,,,,,,,,,,,,,
4,10,2300,B,70.38568207644394,37.93739224871868,3.519284103822197,0.595919163924645,B,1502.936300006695,Correct,sub_004_day_09_data.csv,1,300,92.0,Training at home,,,,,,,,,,,,,
4,10,2301,B,85.00317430833509,56.562498028124836,4.250158715416754,0.8884816413692208,B,627.0274000125937,Correct,sub_004_day_09_data.csv,1,300,92.0,Training at home,,,,,,,,,,,,,
4,10,2302,B,33.776974075488,13.898517655521037,1.6888487037744,0.2183174048118646,B,1271.6196000110358,Correct,sub_004_day_09_data.csv,1,300,92.0,Training at home,,,,,,,,,,,,,
4,10,2303,B,45.546258195149925,31.44631680519695,2.277312909757496,0.4939575892883199,B,3134.909400017932,Correct,sub_004_day_09_data.csv,1,300,92.0,Training at home,,,,,,,,,,,,,
4,10,2304,A,50.52548493450267,65.64654013044657,2.5262742467251336,1.0311734410369924,B,827.1997999981977,Incorrect,sub_004_day_09_data.csv,0,300,92.0,Training at home,,,,,,,,,,,,,
4,10,2305,B,82.82000788843399,64.92641743340172,4.1410003944217,1.0198617801633956,B,1249.2321000318043,Correct,sub_004_day_09_data.csv,1,300,92.0,Training at home,,,,,,,,,,,,,
4,10,2306,A,21.23500474122449,37.55206470111456,1.0617502370612244,0.5898664529607504,B,701.9085999927483,Incorrect,sub_004_day_09_data.csv,0,300,92.0,Training at home,,,,,,,,,,,,,
4,10,2307,A,29.641327710631636,48.51837720401482,1.4820663855315817,0.7621248869411572,A,656.5810000174679,Correct,sub_004_day_09_data.csv,1,300,92.0,Training at home,,,,,,,,,,,,,
4,10,2308,A,40.85375735272553,62.80482868121789,2.0426878676362765,0.9865359419743984,A,933.1836000201292,Correct,sub_004_day_09_data.csv,1,300,92.0,Training at home,,,,,,,,,,,,,
4,10,2309,A,38.18874119994306,46.6637837037596,1.9094370599971529,0.7329930003621713,A,800.997499958612,Correct,sub_004_day_09_data.csv,1,300,92.0,Training at home,,,,,,,,,,,,,
4,10,2310,B,56.46391428020496,43.34549053891382,2.823195714010248,0.6808693732164878,B,1336.1047999933362,Correct,sub_004_day_09_data.csv,1,300,92.0,Training at home,,,,,,,,,,,,,
4,10,2311,B,38.60250998705477,18.98221802678553,1.9301254993527384,0.2981719835089458,B,833.8264999911189,Correct,sub_004_day_09_data.csv,1,300,92.0,Training at home,,,,,,,,,,,,,
4,10,2312,A,52.16852757513096,72.29459505767939,2.608426378756548,1.1356008436372729,A,1517.7848999737762,Correct,sub_004_day_09_data.csv,1,300,92.0,Training at home,,,,,,,,,,,,,
4,10,2313,A,61.5806774220313,77.1367104587524,3.079033871101565,1.2116606144964974,A,859.3906000023708,Correct,sub_004_day_09_data.csv,1,300,92.0,Training at home,,,,,,,,,,,,,
4,10,2314,A,45.0751321603189,69.22552930981503,2.2537566080159452,1.087392071602899,A,610.721500008367,Correct,sub_004_day_09_data.csv,1,300,92.0,Training at home,,,,,,,,,,,,,
4,10,2315,B,64.63681950618798,35.74517559768559,3.231840975309398,0.5614839052948309,B,3279.5736999833025,Correct,sub_004_day_09_data.csv,1,300,92.0,Training at home,,,,,,,,,,,,,
4,10,2316,B,77.61069379778331,66.40387871941556,3.8805346898891657,1.0430696877739176,B,550.146900000982,Correct,sub_004_day_09_data.csv,1,300,92.0,Training at home,,,,,,,,,,,,,
4,10,2317,A,37.269871115599315,64.73207936416719,1.8634935557799657,1.0168091249102955,A,1275.543799973093,Correct,sub_004_day_09_data.csv,1,300,92.0,Training at home,,,,,,,,,,,,,
4,10,2318,B,41.335595129360485,19.58440869862804,2.066779756468024,0.3076311724625494,B,1393.7836000113748,Correct,sub_004_day_09_data.csv,1,300,92.0,Training at home,,,,,,,,,,,,,
4,10,2319,B,52.517897103165176,21.047894627690933,2.6258948551582586,0.3306195556794295,B,485.08710000896826,Correct,sub_004_day_09_data.csv,1,300,92.0,Training at home,,,,,,,,,,,,,
4,10,2320,B,69.50047081236573,55.887375421320414,3.4750235406182868,0.8778768402601748,B,533.8739000144415,Correct,sub_004_day_09_data.csv,1,300,92.0,Training at home,,,,,,,,,,,,,
4,10,2321,B,71.4166013899868,48.49758582616748,3.5708300694993396,0.7617982967416411,B,551.3874999596737,Correct,sub_004_day_09_data.csv,1,300,92.0,Training at home,,,,,,,,,,,,,
4,10,2322,A,32.634017960558744,52.5891597940577,1.631700898027937,0.8260685903373569,B,1039.1318000038154,Incorrect,sub_004_day_09_data.csv,0,300,92.0,Training at home,,,,,,,,,,,,,
4,10,2323,B,33.45734864909271,20.138395530107815,1.672867432454635,0.3163331772623612,B,529.7181999776512,Correct,sub_004_day_09_data.csv,1,300,92.0,Training at home,,,,,,,,,,,,,
4,10,2324,A,45.481706099721265,63.34198681904964,2.274085304986063,0.9949736022725392,A,565.2482999721542,Correct,sub_004_day_09_data.csv,1,300,92.0,Training at home,,,,,,,,,,,,,
4,10,2325,B,42.593893668039186,20.774358039534945,2.129694683401959,0.3263228530002351,B,561.0607999842614,Correct,sub_004_day_09_data.csv,1,300,93.0,Training at home,,,,,,,,,,,,,
4,10,2326,B,64.46279950081284,52.31077415979972,3.2231399750406418,0.821695719020108,B,667.3138000187464,Correct,sub_004_day_09_data.csv,1,300,93.0,Training at home,,,,,,,,,,,,,
4,10,2327,B,81.47169769280973,60.17495883115046,4.073584884640486,0.9452260429700527,B,582.1238000062294,Correct,sub_004_day_09_data.csv,1,300,93.0,Training at home,,,,,,,,,,,,,
4,10,2328,B,41.9579162259771,14.298883438739814,2.097895811298855,0.2246063358284088,B,468.0044999695383,Correct,sub_004_day_09_data.csv,1,300,93.0,Training at home,,,,,,,,,,,,,
4,10,2329,B,56.96362397869566,37.08772192880329,2.848181198934783,0.5825725737495474,B,596.6198000242002,Correct,sub_004_day_09_data.csv,1,300,93.0,Training at home,,,,,,,,,,,,,
4,10,2330,A,22.773018288284135,45.6393333767768,1.1386509144142067,0.7169009722560873,A,480.4320000112057,Correct,sub_004_day_09_data.csv,1,300,93.0,Training at home,,,,,,,,,,,,,
4,10,2331,A,39.84663349735154,70.06753032269545,1.992331674867577,1.1006181925848004,A,711.4987000240944,Correct,sub_004_day_09_data.csv,1,300,93.0,Training at home,,,,,,,,,,,,,
4,10,2332,A,47.55055554631245,60.42938124118212,2.3775277773156227,0.949222500841373,A,512.5086000189185,Correct,sub_004_day_09_data.csv,1,300,93.0,Training at home,,,,,,,,,,,,,
4,10,2333,B,44.489734704594774,18.68177727962943,2.2244867352297386,0.2934526712884226,B,454.8550999606959,Correct,sub_004_day_09_data.csv,1,300,93.0,Training at home,,,,,,,,,,,,,
4,10,2334,A,19.34170403315816,49.62649597328725,0.967085201657908,0.7795311758654133,A,469.0817999653518,Correct,sub_004_day_09_data.csv,1,300,93.0,Training at home,,,,,,,,,,,,,
4,10,2335,A,20.62038298340092,37.63731190400733,1.031019149170046,0.5912055128924856,A,712.7679999684915,Correct,sub_004_day_09_data.csv,1,300,93.0,Training at home,,,,,,,,,,,,,
4,10,2336,A,30.36540256377519,47.0737490876968,1.5182701281887596,0.7394327215541874,A,673.9247000077739,Correct,sub_004_day_09_data.csv,1,300,93.0,Training at home,,,,,,,,,,,,,
4,10,2337,B,85.20424126360876,69.0862645622198,4.260212063180438,1.0852045060631528,B,640.0574000435881,Correct,sub_004_day_09_data.csv,1,300,93.0,Training at home,,,,,,,,,,,,,
4,10,2338,A,22.26455568626621,34.38883782574608,1.1132277843133105,0.5401786013942734,A,1102.3371000192128,Correct,sub_004_day_09_data.csv,1,300,93.0,Training at home,,,,,,,,,,,,,
4,10,2339,B,48.09242947784057,31.31916917520932,2.4046214738920284,0.4919603589868674,B,1260.7066000346094,Correct,sub_004_day_09_data.csv,1,300,93.0,Training at home,,,,,,,,,,,,,
4,10,2340,B,71.41940316367703,42.96179855033734,3.570970158183852,0.674842353553722,B,722.3352000000887,Correct,sub_004_day_09_data.csv,1,300,93.0,Training at home,,,,,,,,,,,,,
4,10,2341,B,77.13668747053632,50.29240679336767,3.856834373526816,0.7899912785669664,B,449.826700030826,Correct,sub_004_day_09_data.csv,1,300,93.0,Training at home,,,,,,,,,,,,,
4,10,2342,A,27.530071128319623,43.03922544594669,1.376503556415981,0.6760585723859049,A,10063.451700028963,Correct,sub_004_day_09_data.csv,1,300,93.0,Training at home,,,,,,,,,,,,,
4,10,2343,B,50.61007940635953,33.19615496331285,2.5305039703179766,0.52144398280086,B,5519.414100039285,Correct,sub_004_day_09_data.csv,1,300,93.0,Training at home,,,,,,,,,,,,,
4,10,2344,B,77.37491383760046,54.3562085033899,3.8687456918800223,0.8538253265562238,B,4343.129400047474,Correct,sub_004_day_09_data.csv,1,300,93.0,Training at home,,,,,,,,,,,,,
4,10,2345,B,80.81329738923935,54.84436992532349,4.040664869461967,0.8614933482407864,B,741.7749000014737,Correct,sub_004_day_09_data.csv,1,300,93.0,Training at home,,,,,,,,,,,,,
4,10,2346,A,30.962007390649436,49.832167669245706,1.548100369532472,0.7827618593107857,A,752.6023000245914,Correct,sub_004_day_09_data.csv,1,300,93.0,Training at home,,,,,,,,,,,,,
4,10,2347,B,56.3608042033346,41.68356723396577,2.81804021016673,0.6547639429882153,B,1823.374799976591,Correct,sub_004_day_09_data.csv,1,300,93.0,Training at home,,,,,,,,,,,,,
4,10,2348,A,51.52927917771317,66.12629679183603,2.5764639588856584,1.0387094410516515,A,1166.1104999948293,Correct,sub_004_day_09_data.csv,1,300,93.0,Training at home,,,,,,,,,,,,,
4,10,2349,A,45.10278044188636,69.83602833779015,2.2551390220943177,1.096981767909451,A,723.7928999820724,Correct,sub_004_day_09_data.csv,1,300,93.0,Training at home,,,,,,,,,,,,,
4,10,2350,A,46.48682479280655,56.39467153271018,2.3243412396403276,0.8858454289438586,A,865.0901999790221,Correct,sub_004_day_09_data.csv,1,300,94.0,Training at home,,,,,,,,,,,,,
4,10,2351,B,37.29520451778835,27.47861016683273,1.8647602258894176,0.4316329991548976,B,595.7796999718994,Correct,sub_004_day_09_data.csv,1,300,94.0,Training at home,,,,,,,,,,,,,
4,10,2352,B,67.00995060446677,42.6351149033379,3.3504975302233384,0.6697108188264151,B,971.7360999784432,Correct,sub_004_day_09_data.csv,1,300,94.0,Training at home,,,,,,,,,,,,,
4,10,2353,B,43.400768010470145,35.60174388938909,2.170038400523507,0.5592308852894503,B,1205.8014000067487,Correct,sub_004_day_09_data.csv,1,300,94.0,Training at home,,,,,,,,,,,,,
4,10,2354,A,66.27007203249728,81.3618268494309,3.3135036016248645,1.2780285875640849,A,615.9334999974817,Correct,sub_004_day_09_data.csv,1,300,94.0,Training at home,,,,,,,,,,,,,
4,10,2355,B,50.803183355678286,24.62148758874568,2.5401591677839144,0.3867534226462785,B,433.96149994805455,Correct,sub_004_day_09_data.csv,1,300,94.0,Training at home,,,,,,,,,,,,,
4,10,2356,B,66.82418712243116,47.00336559382544,3.341209356121558,0.738327140217786,B,622.751499991864,Correct,sub_004_day_09_data.csv,1,300,94.0,Training at home,,,,,,,,,,,,,
4,10,2357,A,13.941969765772392,32.29387972190044,0.6970984882886196,0.5072710764511741,A,513.6674999957904,Correct,sub_004_day_09_data.csv,1,300,94.0,Training at home,,,,,,,,,,,,,
4,10,2358,A,35.77635309936787,63.95559234358123,1.7888176549683934,1.004612095312892,A,503.57860000804067,Correct,sub_004_day_09_data.csv,1,300,94.0,Training at home,,,,,,,,,,,,,
4,10,2359,B,42.883029674883744,23.35539267140928,2.1441514837441873,0.3668656501910214,B,968.423799960874,Correct,sub_004_day_09_data.csv,1,300,94.0,Training at home,,,,,,,,,,,,,
4,10,2360,A,58.290136272642755,66.85506331243447,2.914506813632138,1.050156878788123,A,1402.5796999922022,Correct,sub_004_day_09_data.csv,1,300,94.0,Training at home,,,,,,,,,,,,,
4,10,2361,B,46.711626343362994,23.47147585415512,2.3355813171681494,0.3686890805616197,B,550.7899000076577,Correct,sub_004_day_09_data.csv,1,300,94.0,Training at home,,,,,,,,,,,,,
4,10,2362,A,45.87280822534218,71.14944172302803,2.293640411267109,1.1176128171204,A,747.447400004603,Correct,sub_004_day_09_data.csv,1,300,94.0,Training at home,,,,,,,,,,,,,
4,10,2363,A,24.436997845061025,41.22761050554503,1.2218498922530512,0.6476017914464083,B,661.4179000025615,Incorrect,sub_004_day_09_data.csv,0,300,94.0,Training at home,,,,,,,,,,,,,
4,10,2364,B,40.808472815740245,24.145760705061292,2.040423640787012,0.3792807222317883,B,1116.2962999660522,Correct,sub_004_day_09_data.csv,1,300,94.0,Training at home,,,,,,,,,,,,,
4,10,2365,A,51.58967742382429,78.64949394291641,2.5794838711912145,1.2354233618981056,A,815.5824999557808,Correct,sub_004_day_09_data.csv,1,300,94.0,Training at home,,,,,,,,,,,,,
4,10,2366,A,60.69765190550813,75.79478408358858,3.034882595275407,1.1905816842871322,A,859.1878999723122,Correct,sub_004_day_09_data.csv,1,300,94.0,Training at home,,,,,,,,,,,,,
4,10,2367,B,53.05769056857006,44.524313932870314,2.652884528428503,0.6993862877881553,B,534.987099992577,Correct,sub_004_day_09_data.csv,1,300,94.0,Training at home,,,,,,,,,,,,,
4,10,2368,B,38.681599917290455,28.615816411721315,1.9340799958645227,0.4494961930776895,B,496.55710003571585,Correct,sub_004_day_09_data.csv,1,300,94.0,Training at home,,,,,,,,,,,,,
4,10,2369,A,64.60474374589859,78.7419900692228,3.2302371872949296,1.236876287652554,A,484.86660001799464,Correct,sub_004_day_09_data.csv,1,300,94.0,Training at home,,,,,,,,,,,,,
4,10,2370,B,83.74573095886244,64.42358201117509,4.187286547943122,1.011963259821236,B,549.3541000178084,Correct,sub_004_day_09_data.csv,1,300,94.0,Training at home,,,,,,,,,,,,,
4,10,2371,A,29.970565485970553,56.83506650639715,1.4985282742985278,0.8927631370139228,A,744.4536999682896,Correct,sub_004_day_09_data.csv,1,300,94.0,Training at home,,,,,,,,,,,,,
4,10,2372,A,57.90068911572247,76.03734573159196,2.8950344557861234,1.1943918337441823,B,1065.1235000113957,Incorrect,sub_004_day_09_data.csv,0,300,94.0,Training at home,,,,,,,,,,,,,
4,10,2373,A,28.71652740015204,47.18691781972696,1.435826370007602,0.7412103718399976,B,535.207100037951,Incorrect,sub_004_day_09_data.csv,0,300,94.0,Training at home,,,,,,,,,,,,,
4,10,2374,B,71.56056514142391,53.43034867398727,3.5780282570711957,0.8392819543646978,B,567.8726999904029,Correct,sub_004_day_09_data.csv,1,300,94.0,Training at home,,,,,,,,,,,,,
4,10,2375,A,25.45684951341193,57.03301829029282,1.2728424756705965,0.8958725563641813,A,623.8030000240542,Correct,sub_004_day_09_data.csv,1,300,95.0,Training at home,,,,,,,,,,,,,
4,10,2376,A,42.64439054219453,55.174935505568385,2.132219527109726,0.8666858602329214,A,745.7470000372268,Correct,sub_004_day_09_data.csv,1,300,95.0,Training at home,,,,,,,,,,,,,
4,10,2377,A,16.687729772433617,41.524966628184856,0.8343864886216807,0.6522726504983343,A,527.261900017038,Correct,sub_004_day_09_data.csv,1,300,95.0,Training at home,,,,,,,,,,,,,
4,10,2378,A,57.65843979693032,80.00381370060452,2.882921989846516,1.2566969669049282,A,1266.0111999721266,Correct,sub_004_day_09_data.csv,1,300,95.0,Training at home,,,,,,,,,,,,,
4,10,2379,A,26.897072918751626,50.34593099899275,1.3448536459375813,0.7908320348228713,A,549.3118999875151,Correct,sub_004_day_09_data.csv,1,300,95.0,Training at home,,,,,,,,,,,,,
4,10,2380,A,46.12626233527137,70.08269856133748,2.3063131167635684,1.1008564547202289,A,822.4183000274934,Correct,sub_004_day_09_data.csv,1,300,95.0,Training at home,,,,,,,,,,,,,
4,10,2381,A,33.03503132527324,58.76651493678408,1.6517515662636617,0.9231022580123784,A,528.1489000190049,Correct,sub_004_day_09_data.csv,1,300,95.0,Training at home,,,,,,,,,,,,,
4,10,2382,B,84.08281495676104,66.27367762199434,4.204140747838052,1.0410244937181783,B,577.1307999966666,Correct,sub_004_day_09_data.csv,1,300,95.0,Training at home,,,,,,,,,,,,,
4,10,2383,B,74.66616202026007,49.35983915513641,3.7333081010130034,0.7753425403607519,B,703.4938000142574,Correct,sub_004_day_09_data.csv,1,300,95.0,Training at home,,,,,,,,,,,,,
4,10,2384,A,60.45876336852561,86.14360629238058,3.022938168426281,1.3531406034093714,A,540.3874999610707,Correct,sub_004_day_09_data.csv,1,300,95.0,Training at home,,,,,,,,,,,,,
4,10,2385,A,64.6893092029152,83.99662665217316,3.23446546014576,1.319415926083959,A,495.07469998206943,Correct,sub_004_day_09_data.csv,1,300,95.0,Training at home,,,,,,,,,,,,,
4,10,2386,B,50.016580757925574,41.53852278018941,2.5008290378962785,0.6524855900360766,B,592.5286000128835,Correct,sub_004_day_09_data.csv,1,300,95.0,Training at home,,,,,,,,,,,,,
4,10,2387,B,62.271453781379435,46.94425752326047,3.1135726890689717,0.7373986728165125,B,631.3794000307098,Correct,sub_004_day_09_data.csv,1,300,95.0,Training at home,,,,,,,,,,,,,
4,10,2388,B,81.99098713914438,54.85411912508742,4.099549356957219,0.8616464883125701,B,624.6971000218764,Correct,sub_004_day_09_data.csv,1,300,95.0,Training at home,,,,,,,,,,,,,
4,10,2389,B,42.86616293351575,29.932792214565097,2.1433081466757873,0.4701832006135373,B,492.31960001634434,Correct,sub_004_day_09_data.csv,1,300,95.0,Training at home,,,,,,,,,,,,,
4,10,2390,B,86.77372391015655,59.04889523169869,4.338686195507828,0.92753787731249,B,589.1114000114612,Correct,sub_004_day_09_data.csv,1,300,95.0,Training at home,,,,,,,,,,,,,
4,10,2391,A,32.97153715924914,60.35516241408109,1.648576857962457,0.94805667423148,A,582.094099954702,Correct,sub_004_day_09_data.csv,1,300,95.0,Training at home,,,,,,,,,,,,,
4,10,2392,A,40.40308428506687,71.44821198551958,2.0201542142533437,1.1223058894291726,A,559.3399000354111,Correct,sub_004_day_09_data.csv,1,300,95.0,Training at home,,,,,,,,,,,,,
4,10,2393,B,35.157447574454395,14.049625107698724,1.75787237872272,0.220690995120185,B,578.0901999678463,Correct,sub_004_day_09_data.csv,1,300,95.0,Training at home,,,,,,,,,,,,,
4,10,2394,B,32.17646500782209,12.406719671010563,1.6088232503911044,0.1948842968679738,B,504.021400003694,Correct,sub_004_day_09_data.csv,1,300,95.0,Training at home,,,,,,,,,,,,,
4,10,2395,B,72.97644482677508,44.73165785002324,3.6488222413387543,0.702643238422626,B,602.3555000429042,Correct,sub_004_day_09_data.csv,1,300,95.0,Training at home,,,,,,,,,,,,,
4,10,2396,B,70.57273379808913,57.32699419297411,3.528636689904457,0.900490319045161,B,503.4903999767266,Correct,sub_004_day_09_data.csv,1,300,95.0,Training at home,,,,,,,,,,,,,
4,10,2397,A,27.946518599262525,45.642135435040714,1.3973259299631264,0.7169449868843715,A,509.63770004455,Correct,sub_004_day_09_data.csv,1,300,95.0,Training at home,,,,,,,,,,,,,
4,10,2398,A,30.3544221269611,49.9585024125993,1.517721106348055,0.7847463208188495,A,484.3910000054166,Correct,sub_004_day_09_data.csv,1,300,95.0,Training at home,,,,,,,,,,,,,
4,10,2399,A,62.99519452030851,82.46799150493766,3.1497597260154255,1.295404181341088,A,692.2970000305213,Correct,sub_004_day_09_data.csv,1,300,95.0,Training at home,,,,,,,,,,,,,
