subject,day,trial,cat,x,y,xt,yt,resp,rt,fb,f_name,acc,n_trials,block,session_type,ns_left_digit,ns_right_digit,ns_left_size,ns_right_size,ns_congruent,ns_cue,ns_correct_side,ns_resp,ns_rt,ns_fb,acc_stroop,acc_stroop_mean,resp_key
4,5,900,A,49.783565780828305,66.14142437287418,2.489178289041415,1.038947064538932,A,871.7259999975795,Correct,sub_004_day_05_data.csv,1,300,36.0,Training at home,,,,,,,,,,,,,
4,5,901,B,73.6447919587632,51.71234678424151,3.68223959793816,0.8122956437863044,B,7032.572899996012,Correct,sub_004_day_05_data.csv,1,300,36.0,Training at home,,,,,,,,,,,,,
4,5,902,A,65.39010363701736,80.8317814706455,3.269505181850868,1.2697026542237773,A,1358.290299998771,Correct,sub_004_day_05_data.csv,1,300,36.0,Training at home,,,,,,,,,,,,,
4,5,903,A,18.10641489388902,35.0453444362649,0.9053207446944512,0.5504909831174688,A,705.9590999997454,Correct,sub_004_day_05_data.csv,1,300,36.0,Training at home,,,,,,,,,,,,,
4,5,904,A,49.063497305058355,79.18907886451292,2.4531748652529175,1.2438991420264829,A,909.841900000174,Correct,sub_004_day_05_data.csv,1,300,36.0,Training at home,,,,,,,,,,,,,
4,5,905,B,87.37036314160521,60.00933612074161,4.368518157080261,0.9426244475186124,B,788.6247999995248,Correct,sub_004_day_05_data.csv,1,300,36.0,Training at home,,,,,,,,,,,,,
4,5,906,A,41.09040255877866,58.53302810692982,2.0545201279389333,0.919434655465478,A,6700.10639999964,Correct,sub_004_day_05_data.csv,1,300,36.0,Training at home,,,,,,,,,,,,,
4,5,907,A,62.53243626127698,88.70233775029368,3.126621813063849,1.3933330631628158,A,3271.0361999997986,Correct,sub_004_day_05_data.csv,1,300,36.0,Training at home,,,,,,,,,,,,,
4,5,908,A,57.4021753256517,84.21907449008472,2.8701087662825846,1.3229101285509086,A,684.6057000002475,Correct,sub_004_day_05_data.csv,1,300,36.0,Training at home,,,,,,,,,,,,,
4,5,909,A,53.80929032144685,64.20005542180715,2.6904645160723426,1.0084521123660346,A,3325.164300003962,Correct,sub_004_day_05_data.csv,1,300,36.0,Training at home,,,,,,,,,,,,,
4,5,910,B,78.05833897182713,48.18018352344645,3.902916948591357,0.7568125530293369,B,699.5411000025342,Correct,sub_004_day_05_data.csv,1,300,36.0,Training at home,,,,,,,,,,,,,
4,5,911,A,21.70480227852974,44.54206872894264,1.0852401139264871,0.6996651794726892,A,15446.42610000301,Correct,sub_004_day_05_data.csv,1,300,36.0,Training at home,,,,,,,,,,,,,
4,5,912,B,63.99226712417054,51.040383569105174,3.199613356208527,0.8017404702855299,B,6419.468100000813,Correct,sub_004_day_05_data.csv,1,300,36.0,Training at home,,,,,,,,,,,,,
4,5,913,B,81.57837577002189,55.10515265790808,4.078918788501095,0.8655897138251406,B,615.3792999975849,Correct,sub_004_day_05_data.csv,1,300,36.0,Training at home,,,,,,,,,,,,,
4,5,914,A,42.335625827653395,72.91958650268008,2.1167812913826696,1.145418186298126,A,640.9178000030806,Correct,sub_004_day_05_data.csv,1,300,36.0,Training at home,,,,,,,,,,,,,
4,5,915,B,60.31006900155936,30.47349991661327,3.015503450077968,0.4786766173360071,B,559.5842999973684,Correct,sub_004_day_05_data.csv,1,300,36.0,Training at home,,,,,,,,,,,,,
4,5,916,A,42.75793060577671,55.16968287160766,2.1378965302888355,0.8666033520516063,A,1262.0658999949228,Correct,sub_004_day_05_data.csv,1,300,36.0,Training at home,,,,,,,,,,,,,
4,5,917,B,33.59562211068784,21.04419050752526,1.679781105534392,0.3305613714959271,B,806.1636999991606,Correct,sub_004_day_05_data.csv,1,300,36.0,Training at home,,,,,,,,,,,,,
4,5,918,B,45.05072332357704,36.89267718787321,2.252536166178852,0.5795088181234112,B,1926.7098999989685,Correct,sub_004_day_05_data.csv,1,300,36.0,Training at home,,,,,,,,,,,,,
4,5,919,B,73.93063163512744,56.86680685887427,3.696531581756372,0.8932617133047454,B,781.3705000007758,Correct,sub_004_day_05_data.csv,1,300,36.0,Training at home,,,,,,,,,,,,,
4,5,920,A,60.63566729449998,78.13946164526867,3.031783364724999,1.2274117933011872,A,877.5588999997126,Correct,sub_004_day_05_data.csv,1,300,36.0,Training at home,,,,,,,,,,,,,
4,5,921,B,54.319216253387566,27.85156967716449,2.7159608126693784,0.437491433443621,B,572.0196999973268,Correct,sub_004_day_05_data.csv,1,300,36.0,Training at home,,,,,,,,,,,,,
4,5,922,B,39.935460190151815,27.845352200986447,1.9967730095075908,0.437393769556197,B,718.5276000018348,Correct,sub_004_day_05_data.csv,1,300,36.0,Training at home,,,,,,,,,,,,,
4,5,923,A,50.65920674608178,71.33131899411754,2.532960337304089,1.1204697386139488,A,842.1400000006543,Correct,sub_004_day_05_data.csv,1,300,36.0,Training at home,,,,,,,,,,,,,
4,5,924,B,48.56819380987192,37.39260722070365,2.4284096904935963,0.5873617007156562,B,5615.278699995542,Correct,sub_004_day_05_data.csv,1,300,36.0,Training at home,,,,,,,,,,,,,
4,5,925,B,37.56070210662518,19.07138571815691,1.878035105331259,0.2995726263296953,B,2227.7063000001363,Correct,sub_004_day_05_data.csv,1,300,37.0,Training at home,,,,,,,,,,,,,
4,5,926,B,86.4854786587016,67.23669706893943,4.32427393293508,1.0561515678171127,B,1470.4932000022382,Correct,sub_004_day_05_data.csv,1,300,37.0,Training at home,,,,,,,,,,,,,
4,5,927,A,22.417643455379157,53.57669522872858,1.120882172768958,0.8415807606709652,A,671.6337999969255,Correct,sub_004_day_05_data.csv,1,300,37.0,Training at home,,,,,,,,,,,,,
4,5,928,B,64.22877848512256,45.800813770099566,3.2114389242561283,0.7194375003428951,B,1066.8140999987372,Correct,sub_004_day_05_data.csv,1,300,37.0,Training at home,,,,,,,,,,,,,
4,5,929,A,35.441024914347196,48.966501545275605,1.7720512457173598,0.7691640076331554,A,3310.0205000009737,Correct,sub_004_day_05_data.csv,1,300,37.0,Training at home,,,,,,,,,,,,,
4,5,930,A,32.72782551310242,56.55128961688648,1.6363912756551209,0.8883055800571965,A,526.6247999970801,Correct,sub_004_day_05_data.csv,1,300,37.0,Training at home,,,,,,,,,,,,,
4,5,931,B,47.65139213203682,28.53844186186695,2.382569606601841,0.4482807964907031,B,604.0511000028346,Correct,sub_004_day_05_data.csv,1,300,37.0,Training at home,,,,,,,,,,,,,
4,5,932,B,68.66546441978231,52.72055302929712,3.4332732209891157,0.8281325104501548,B,900.0978999974905,Correct,sub_004_day_05_data.csv,1,300,37.0,Training at home,,,,,,,,,,,,,
4,5,933,B,61.74256196038737,43.911926042074896,3.0871280980193685,0.6897669212938041,B,546.1377999963588,Correct,sub_004_day_05_data.csv,1,300,37.0,Training at home,,,,,,,,,,,,,
4,5,934,A,34.09748086051557,64.06120688125526,1.7048740430257785,1.006271084591237,A,458.48889999615494,Correct,sub_004_day_05_data.csv,1,300,37.0,Training at home,,,,,,,,,,,,,
4,5,935,A,26.87739112064921,50.69848722232888,1.3438695560324607,0.7963699750289222,A,582.7254000032553,Correct,sub_004_day_05_data.csv,1,300,37.0,Training at home,,,,,,,,,,,,,
4,5,936,A,36.16805745985239,44.411350884434455,1.8084028729926191,0.6976118683726892,A,772.3508999988553,Correct,sub_004_day_05_data.csv,1,300,37.0,Training at home,,,,,,,,,,,,,
4,5,937,A,45.4453286544533,62.96908614379178,2.272266432722665,0.9891160921629956,A,528.5213000024669,Correct,sub_004_day_05_data.csv,1,300,37.0,Training at home,,,,,,,,,,,,,
4,5,938,A,57.787332085368774,81.62752798625459,2.889366604268439,1.2822022112615632,B,1123.9521999959834,Incorrect,sub_004_day_05_data.csv,0,300,37.0,Training at home,,,,,,,,,,,,,
4,5,939,B,37.72899993068774,23.642127399750287,1.886449996534387,0.3713696687714473,A,419.6167999980389,Incorrect,sub_004_day_05_data.csv,0,300,37.0,Training at home,,,,,,,,,,,,,
4,5,940,A,63.51466739291591,76.71833318362641,3.175733369645795,1.2050887596266735,B,2993.733600000269,Incorrect,sub_004_day_05_data.csv,0,300,37.0,Training at home,,,,,,,,,,,,,
4,5,941,A,37.629031604769146,57.12036256864981,1.8814515802384577,0.8972445570802783,A,533.7023000029149,Correct,sub_004_day_05_data.csv,1,300,37.0,Training at home,,,,,,,,,,,,,
4,5,942,A,28.189020833500123,56.753734819020366,1.4094510416750063,0.8914855818560882,A,409.9163999999291,Correct,sub_004_day_05_data.csv,1,300,37.0,Training at home,,,,,,,,,,,,,
4,5,943,A,52.87976438448698,72.53509512816012,2.643988219224349,1.1393786099103231,A,265.29540000046836,Correct,sub_004_day_05_data.csv,1,300,37.0,Training at home,,,,,,,,,,,,,
4,5,944,B,67.97846741404418,41.11515121267961,3.398923370702209,0.6458352850049388,B,491.1123999991105,Correct,sub_004_day_05_data.csv,1,300,37.0,Training at home,,,,,,,,,,,,,
4,5,945,A,62.28218763828029,82.4382460688291,3.114109381914014,1.2949369411233058,A,1506.8740999995498,Correct,sub_004_day_05_data.csv,1,300,37.0,Training at home,,,,,,,,,,,,,
4,5,946,B,40.73961132272771,20.7263678019576,2.0369805661363856,0.3255690241111502,B,556.1287000018638,Correct,sub_004_day_05_data.csv,1,300,37.0,Training at home,,,,,,,,,,,,,
4,5,947,A,40.9165420145878,72.6484440104931,2.04582710072939,1.1411590899904724,B,1119.1330000001471,Incorrect,sub_004_day_05_data.csv,0,300,37.0,Training at home,,,,,,,,,,,,,
4,5,948,B,75.93891604870949,54.18945262995055,3.796945802435474,0.8512059314215238,B,656.4666999984183,Correct,sub_004_day_05_data.csv,1,300,37.0,Training at home,,,,,,,,,,,,,
4,5,949,B,87.5088241329863,65.59866752802448,4.375441206649316,1.0304214599566053,B,1701.7582999978913,Correct,sub_004_day_05_data.csv,1,300,37.0,Training at home,,,,,,,,,,,,,
4,5,950,A,48.33661189230124,61.08739805925955,2.416830594615062,0.959558604849426,A,3938.654500001576,Correct,sub_004_day_05_data.csv,1,300,38.0,Training at home,,,,,,,,,,,,,
4,5,951,A,24.195711682599416,54.15932050775278,1.2097855841299707,0.8507326171528558,A,1797.077099996386,Correct,sub_004_day_05_data.csv,1,300,38.0,Training at home,,,,,,,,,,,,,
4,5,952,B,58.318009517339696,36.2410318805876,2.9159004758669846,0.5692727975728374,B,619.0487999992911,Correct,sub_004_day_05_data.csv,1,300,38.0,Training at home,,,,,,,,,,,,,
4,5,953,B,48.70389003499309,20.540916314125216,2.4351945017496543,0.3226559589522925,B,561.8648000017856,Correct,sub_004_day_05_data.csv,1,300,38.0,Training at home,,,,,,,,,,,,,
4,5,954,B,62.385277627308994,32.4876312352892,3.1192638813654496,0.5103145181065942,B,541.5880999935325,Correct,sub_004_day_05_data.csv,1,300,38.0,Training at home,,,,,,,,,,,,,
4,5,955,B,39.072332136345494,15.543358284258192,1.953616606817275,0.2441545009896979,B,809.5618000006652,Correct,sub_004_day_05_data.csv,1,300,38.0,Training at home,,,,,,,,,,,,,
4,5,956,A,34.068177533672646,53.7181926599639,1.7034088766836322,0.8438033971233185,A,735.9852000008686,Correct,sub_004_day_05_data.csv,1,300,38.0,Training at home,,,,,,,,,,,,,
4,5,957,B,43.22119952979675,33.04554203990101,2.1610599764898377,0.5190781605322283,B,1360.9610000057728,Correct,sub_004_day_05_data.csv,1,300,38.0,Training at home,,,,,,,,,,,,,
4,5,958,B,80.4267932391958,59.67163608239416,4.02133966195979,0.9373198677206656,B,927.5034999955096,Correct,sub_004_day_05_data.csv,1,300,38.0,Training at home,,,,,,,,,,,,,
4,5,959,B,62.6152485757058,46.11877218880652,3.13076242878529,0.7244319795046791,B,862.4550000022282,Correct,sub_004_day_05_data.csv,1,300,38.0,Training at home,,,,,,,,,,,,,
4,5,960,A,35.65930096256511,44.025589938598806,1.7829650481282555,0.6915523496052937,A,956.1207000006108,Correct,sub_004_day_05_data.csv,1,300,38.0,Training at home,,,,,,,,,,,,,
4,5,961,A,26.35946147903521,55.07521030978592,1.3179730739517606,0.8651193805206813,A,577.9659999971045,Correct,sub_004_day_05_data.csv,1,300,38.0,Training at home,,,,,,,,,,,,,
4,5,962,B,81.07223337149787,59.38967354726705,4.053611668574893,0.9328908105759512,B,588.2319000011194,Correct,sub_004_day_05_data.csv,1,300,38.0,Training at home,,,,,,,,,,,,,
4,5,963,A,54.990491393790904,71.46818878136966,2.749524569689545,1.122619684204597,A,740.6166000000667,Correct,sub_004_day_05_data.csv,1,300,38.0,Training at home,,,,,,,,,,,,,
4,5,964,A,61.54573784420672,74.96313301233597,3.077286892210336,1.177518139808146,A,631.1380000042845,Correct,sub_004_day_05_data.csv,1,300,38.0,Training at home,,,,,,,,,,,,,
4,5,965,B,81.23518850997428,66.23747553915628,4.061759425498714,1.040455832730735,A,791.3883000001078,Incorrect,sub_004_day_05_data.csv,0,300,38.0,Training at home,,,,,,,,,,,,,
4,5,966,B,80.22738595238347,63.69427142779065,4.011369297619174,1.0005072759665068,B,522.0062000007601,Correct,sub_004_day_05_data.csv,1,300,38.0,Training at home,,,,,,,,,,,,,
4,5,967,A,32.54152076373418,46.62930485725482,1.6270760381867089,0.732451407907753,A,512.5840000036987,Correct,sub_004_day_05_data.csv,1,300,38.0,Training at home,,,,,,,,,,,,,
4,5,968,B,72.43636459565509,46.06975179902755,3.621818229782755,0.7236619690226506,B,548.2617000016035,Correct,sub_004_day_05_data.csv,1,300,38.0,Training at home,,,,,,,,,,,,,
4,5,969,A,36.064080833881455,62.91897262487315,1.803204041694073,0.988328910848594,A,468.0384999956004,Correct,sub_004_day_05_data.csv,1,300,38.0,Training at home,,,,,,,,,,,,,
4,5,970,B,35.06131664425911,19.814508109064658,1.7530658322129553,0.3112455655496645,B,540.813599996909,Correct,sub_004_day_05_data.csv,1,300,38.0,Training at home,,,,,,,,,,,,,
4,5,971,B,59.93727392571134,52.74326371662519,2.996863696285567,0.8284892490924938,A,794.459899996582,Incorrect,sub_004_day_05_data.csv,0,300,38.0,Training at home,,,,,,,,,,,,,
4,5,972,A,33.45774772103825,61.227347378212066,1.672887386051913,0.9617569236109066,A,449.2952000000514,Correct,sub_004_day_05_data.csv,1,300,38.0,Training at home,,,,,,,,,,,,,
4,5,973,B,38.27593348560984,23.294412182123377,1.913796674280492,0.3659077709052568,B,637.2952999954578,Correct,sub_004_day_05_data.csv,1,300,38.0,Training at home,,,,,,,,,,,,,
4,5,974,A,56.76013456590541,78.06582942403227,2.838006728295271,1.226255181074669,A,571.0760000001756,Correct,sub_004_day_05_data.csv,1,300,38.0,Training at home,,,,,,,,,,,,,
4,5,975,B,41.11909173886767,28.286172838198,2.0559545869433835,0.4443181639332699,B,565.4219000061858,Correct,sub_004_day_05_data.csv,1,300,39.0,Training at home,,,,,,,,,,,,,
4,5,976,A,32.89909246756251,52.75288071250041,1.6449546233781256,0.8286403125104501,A,706.0037000046577,Correct,sub_004_day_05_data.csv,1,300,39.0,Training at home,,,,,,,,,,,,,
4,5,977,A,42.98523440012973,63.43959292259685,2.1492617200064865,0.9965067953617868,B,932.4865000016872,Incorrect,sub_004_day_05_data.csv,0,300,39.0,Training at home,,,,,,,,,,,,,
4,5,978,A,15.56491067385018,35.47934161856547,0.7782455336925089,0.5573081949154394,A,888.1593999976758,Correct,sub_004_day_05_data.csv,1,300,39.0,Training at home,,,,,,,,,,,,,
4,5,979,A,33.915232330294025,46.824465084628166,1.6957616165147014,0.735516977590698,A,848.1223999988288,Correct,sub_004_day_05_data.csv,1,300,39.0,Training at home,,,,,,,,,,,,,
4,5,980,B,62.76854883879999,41.28799076229744,3.1384274419399993,0.6485502423015845,B,3724.755000002915,Correct,sub_004_day_05_data.csv,1,300,39.0,Training at home,,,,,,,,,,,,,
4,5,981,B,33.11751245973159,10.521765732242812,1.6558756229865796,0.1652755096360342,B,861.5098999944166,Correct,sub_004_day_05_data.csv,1,300,39.0,Training at home,,,,,,,,,,,,,
4,5,982,B,58.75144898137301,50.91253682894062,2.93757244906865,0.799732258387098,B,1083.9602000050943,Correct,sub_004_day_05_data.csv,1,300,39.0,Training at home,,,,,,,,,,,,,
4,5,983,B,34.769185771959876,11.072110711568946,1.738459288597994,0.1739203083559893,B,661.123600002611,Correct,sub_004_day_05_data.csv,1,300,39.0,Training at home,,,,,,,,,,,,,
4,5,984,A,59.68268595161196,81.2404572942247,2.984134297580598,1.2761221190490584,B,973.4984999959124,Incorrect,sub_004_day_05_data.csv,0,300,39.0,Training at home,,,,,,,,,,,,,
4,5,985,A,17.848445174163185,32.720180645624154,0.8924222587081593,0.5139673957021189,A,610.7962999958545,Correct,sub_004_day_05_data.csv,1,300,39.0,Training at home,,,,,,,,,,,,,
4,5,986,A,35.70328892792983,67.25013096051578,1.7851644463964915,1.0563625868925393,A,580.0831999949878,Correct,sub_004_day_05_data.csv,1,300,39.0,Training at home,,,,,,,,,,,,,
4,5,987,A,40.60298763153286,52.25339687075274,2.0301493815766434,0.8207944386713434,A,517.371699999785,Correct,sub_004_day_05_data.csv,1,300,39.0,Training at home,,,,,,,,,,,,,
4,5,988,A,56.58262692698011,64.34202764393591,2.8291313463490053,1.010682206816302,A,491.4721999957692,Correct,sub_004_day_05_data.csv,1,300,39.0,Training at home,,,,,,,,,,,,,
4,5,989,A,24.287816146300067,47.72510361967329,1.2143908073150032,0.7496641746168862,A,697.5386000049184,Correct,sub_004_day_05_data.csv,1,300,39.0,Training at home,,,,,,,,,,,,,
4,5,990,B,77.12419071088848,52.7067132825936,3.856209535544424,0.8279151162172981,B,848.823899999843,Correct,sub_004_day_05_data.csv,1,300,39.0,Training at home,,,,,,,,,,,,,
4,5,991,B,53.34035741556741,24.77587137244272,2.6670178707783703,0.3891784774497586,B,674.3005000025732,Correct,sub_004_day_05_data.csv,1,300,39.0,Training at home,,,,,,,,,,,,,
4,5,992,B,64.31712514599002,40.9190034772828,3.215856257299501,0.6427542035822343,B,671.3812999951188,Correct,sub_004_day_05_data.csv,1,300,39.0,Training at home,,,,,,,,,,,,,
4,5,993,B,63.45705766871602,53.28025087861977,3.1728528834358007,0.836924223708465,B,517.2547000038321,Correct,sub_004_day_05_data.csv,1,300,39.0,Training at home,,,,,,,,,,,,,
4,5,994,B,51.08985047161134,29.707639561164427,2.554492523580567,0.4666465110042383,B,574.349099995743,Correct,sub_004_day_05_data.csv,1,300,39.0,Training at home,,,,,,,,,,,,,
4,5,995,A,31.893173236276425,43.45769416512056,1.5946586618138212,0.6826318636554739,A,505.60979999863775,Correct,sub_004_day_05_data.csv,1,300,39.0,Training at home,,,,,,,,,,,,,
4,5,996,A,48.9840359448618,70.03905307626589,2.44920179724309,1.1001708730439126,A,757.1817000061856,Correct,sub_004_day_05_data.csv,1,300,39.0,Training at home,,,,,,,,,,,,,
4,5,997,B,77.67699337817362,59.07952956730373,3.883849668908681,0.9280190803309116,B,510.6078999961028,Correct,sub_004_day_05_data.csv,1,300,39.0,Training at home,,,,,,,,,,,,,
4,5,998,A,56.095517022371446,66.17511210447702,2.8047758511185723,1.03947623018953,B,637.7376999953412,Incorrect,sub_004_day_05_data.csv,0,300,39.0,Training at home,,,,,,,,,,,,,
4,5,999,B,65.50185131238766,43.37439441152869,3.275092565619383,0.6813233941858237,B,665.3446999989683,Correct,sub_004_day_05_data.csv,1,300,39.0,Training at home,,,,,,,,,,,,,
4,5,1000,B,64.21362088643963,43.95562985450251,3.2106810443219813,0.6904534191740864,B,767.4136999994516,Correct,sub_004_day_05_data.csv,1,300,40.0,Training at home,,,,,,,,,,,,,
4,5,1001,B,58.633865714550694,26.713535517818514,2.931693285727534,0.4196152346709432,B,618.8934999954654,Correct,sub_004_day_05_data.csv,1,300,40.0,Training at home,,,,,,,,,,,,,
4,5,1002,A,64.24375520027498,88.32325465607377,3.2121877600137485,1.387378439843309,A,564.7098999979789,Correct,sub_004_day_05_data.csv,1,300,40.0,Training at home,,,,,,,,,,,,,
4,5,1003,A,21.43392075378311,37.660701239677195,1.0716960376891556,0.5915729117180494,A,603.8528999997652,Correct,sub_004_day_05_data.csv,1,300,40.0,Training at home,,,,,,,,,,,,,
4,5,1004,A,50.82972492139502,81.22831914449802,2.5414862460697507,1.2759314534390105,A,1382.3558000003686,Correct,sub_004_day_05_data.csv,1,300,40.0,Training at home,,,,,,,,,,,,,
4,5,1005,A,55.52775392438849,64.71087388271619,2.7763876962194245,1.016476029986584,A,2367.5019000002067,Correct,sub_004_day_05_data.csv,1,300,40.0,Training at home,,,,,,,,,,,,,
4,5,1006,A,59.89159002639351,74.20468575569956,2.994579501319675,1.1656044781602244,A,589.9777000013273,Correct,sub_004_day_05_data.csv,1,300,40.0,Training at home,,,,,,,,,,,,,
4,5,1007,B,40.601684889993095,32.40699459667938,2.0300842444996547,0.5090478807492603,B,587.6898000060464,Correct,sub_004_day_05_data.csv,1,300,40.0,Training at home,,,,,,,,,,,,,
4,5,1008,B,72.89443486979353,47.59702726470921,3.6447217434896766,0.7476523559376177,B,664.9258999968879,Correct,sub_004_day_05_data.csv,1,300,40.0,Training at home,,,,,,,,,,,,,
4,5,1009,A,59.54559301841621,85.14778544602669,2.9772796509208104,1.3374982861333868,A,508.9356000025873,Correct,sub_004_day_05_data.csv,1,300,40.0,Training at home,,,,,,,,,,,,,
4,5,1010,B,43.57049245868323,18.5145006364429,2.178524622934162,0.2908250959216628,B,530.8938000016497,Correct,sub_004_day_05_data.csv,1,300,40.0,Training at home,,,,,,,,,,,,,
4,5,1011,B,77.64520009449606,49.2562804827611,3.8822600047248033,0.7737158445390029,B,938.0123000009916,Correct,sub_004_day_05_data.csv,1,300,40.0,Training at home,,,,,,,,,,,,,
4,5,1012,A,22.727275811935723,36.540398871967014,1.1363637905967865,0.5739752432770616,A,1518.896900000982,Correct,sub_004_day_05_data.csv,1,300,40.0,Training at home,,,,,,,,,,,,,
4,5,1013,A,20.487624226409977,40.74004101804525,1.0243812113204986,0.6399430678461889,A,499.208200002613,Correct,sub_004_day_05_data.csv,1,300,40.0,Training at home,,,,,,,,,,,,,
4,5,1014,A,33.3460497916564,62.88432275972628,1.66730248958282,0.9877846320396276,A,572.4167000007583,Correct,sub_004_day_05_data.csv,1,300,40.0,Training at home,,,,,,,,,,,,,
4,5,1015,A,14.886838359749426,37.77997868681759,0.7443419179874712,0.5934465174764256,A,485.70269999618176,Correct,sub_004_day_05_data.csv,1,300,40.0,Training at home,,,,,,,,,,,,,
4,5,1016,B,60.83154160604499,29.475070966818993,3.0415770803022495,0.4629933320669818,B,653.6261000001105,Correct,sub_004_day_05_data.csv,1,300,40.0,Training at home,,,,,,,,,,,,,
4,5,1017,A,48.48158459926524,76.10006951128128,2.424079229963262,1.195377096571569,A,649.4646000064677,Correct,sub_004_day_05_data.csv,1,300,40.0,Training at home,,,,,,,,,,,,,
4,5,1018,B,50.899445867703925,40.429027651538775,2.544972293385196,0.6350576813092641,A,630.7421999954386,Incorrect,sub_004_day_05_data.csv,0,300,40.0,Training at home,,,,,,,,,,,,,
4,5,1019,B,54.702583286735376,44.49280789481417,2.735129164336769,0.6988913920996508,B,1469.7082999991835,Correct,sub_004_day_05_data.csv,1,300,40.0,Training at home,,,,,,,,,,,,,
4,5,1020,A,40.68659993424064,50.40409667191497,2.034329996712032,0.791745699076589,B,2229.9232999939704,Incorrect,sub_004_day_05_data.csv,0,300,40.0,Training at home,,,,,,,,,,,,,
4,5,1021,B,51.52648984389591,26.48168629151618,2.5763244921947956,0.4159733555404838,B,1015.0278999935836,Correct,sub_004_day_05_data.csv,1,300,40.0,Training at home,,,,,,,,,,,,,
4,5,1022,A,42.66471172853512,49.58487971519406,2.1332355864267556,0.7788774692119361,B,710.9291000015219,Incorrect,sub_004_day_05_data.csv,0,300,40.0,Training at home,,,,,,,,,,,,,
4,5,1023,B,71.5697452874604,58.62239941322814,3.5784872643730203,0.9208384966620206,A,3527.0717999956105,Incorrect,sub_004_day_05_data.csv,0,300,40.0,Training at home,,,,,,,,,,,,,
4,5,1024,B,39.92700054440075,16.270477259105867,1.9963500272200376,0.2555760591380339,B,581.0399999973015,Correct,sub_004_day_05_data.csv,1,300,40.0,Training at home,,,,,,,,,,,,,
4,5,1025,B,55.32888287786,24.65311414067652,2.7664441438929996,0.3872502113623,B,732.2628000038094,Correct,sub_004_day_05_data.csv,1,300,41.0,Training at home,,,,,,,,,,,,,
4,5,1026,A,41.19259569994881,68.35102515360127,2.0596297849974405,1.0736553924394243,A,450.155899998208,Correct,sub_004_day_05_data.csv,1,300,41.0,Training at home,,,,,,,,,,,,,
4,5,1027,B,65.85100943031259,33.569038176633626,3.2925504715156295,0.5273012186189375,B,1556.0531999944942,Correct,sub_004_day_05_data.csv,1,300,41.0,Training at home,,,,,,,,,,,,,
4,5,1028,A,67.02906152153629,81.36294247950514,3.3514530760768144,1.2780461118403112,A,894.0178999982891,Correct,sub_004_day_05_data.csv,1,300,41.0,Training at home,,,,,,,,,,,,,
4,5,1029,B,48.583657938946025,19.221998277614023,2.4291828969473013,0.3019384428813393,B,692.8594000055455,Correct,sub_004_day_05_data.csv,1,300,41.0,Training at home,,,,,,,,,,,,,
4,5,1030,B,72.65525807479248,42.581152645465295,3.632762903739624,0.6688631816618968,B,669.9892000033287,Correct,sub_004_day_05_data.csv,1,300,41.0,Training at home,,,,,,,,,,,,,
4,5,1031,B,44.03440980218437,17.818079590749218,2.2017204901092184,0.2798857397168798,B,806.4945000005537,Correct,sub_004_day_05_data.csv,1,300,41.0,Training at home,,,,,,,,,,,,,
4,5,1032,B,53.946657071048875,32.799681553435875,2.697332853552444,0.515216193041794,B,613.3407000015723,Correct,sub_004_day_05_data.csv,1,300,41.0,Training at home,,,,,,,,,,,,,
4,5,1033,A,23.580892610435615,38.60525608292147,1.1790446305217808,0.6064099445002938,A,484.6393000043463,Correct,sub_004_day_05_data.csv,1,300,41.0,Training at home,,,,,,,,,,,,,
4,5,1034,A,50.40317584676599,64.71637944206633,2.5201587923382993,1.0165625111106256,A,545.1167999999598,Correct,sub_004_day_05_data.csv,1,300,41.0,Training at home,,,,,,,,,,,,,
4,5,1035,B,54.541999080926786,29.73218460218081,2.727099954046339,0.467032063606934,B,646.1725999979535,Correct,sub_004_day_05_data.csv,1,300,41.0,Training at home,,,,,,,,,,,,,
4,5,1036,B,69.75963587962465,47.73893825717369,3.4879817939812323,0.749881488594568,B,555.3438999995706,Correct,sub_004_day_05_data.csv,1,300,41.0,Training at home,,,,,,,,,,,,,
4,5,1037,A,32.101249662770144,44.44583250444846,1.6050624831385074,0.6981535043932887,A,860.1577000008547,Correct,sub_004_day_05_data.csv,1,300,41.0,Training at home,,,,,,,,,,,,,
4,5,1038,A,37.583913392899014,52.23267863936546,1.8791956696449503,0.8204689974537351,A,437.7872999975807,Correct,sub_004_day_05_data.csv,1,300,41.0,Training at home,,,,,,,,,,,,,
4,5,1039,A,47.16347450018699,76.79727807796316,2.3581737250093497,1.2063288231271077,B,858.9454000029946,Incorrect,sub_004_day_05_data.csv,0,300,41.0,Training at home,,,,,,,,,,,,,
4,5,1040,A,58.77124817082935,86.38446879855951,2.938562408541468,1.356924062809056,A,560.5501000027289,Correct,sub_004_day_05_data.csv,1,300,41.0,Training at home,,,,,,,,,,,,,
4,5,1041,A,46.683085469672335,68.0901544382879,2.334154273483617,1.0695576448255986,A,833.4462999991956,Correct,sub_004_day_05_data.csv,1,300,41.0,Training at home,,,,,,,,,,,,,
4,5,1042,B,68.63796485548012,38.43957180236307,3.4318982427740057,0.603807381907206,B,672.0732999965549,Correct,sub_004_day_05_data.csv,1,300,41.0,Training at home,,,,,,,,,,,,,
4,5,1043,B,70.95267538871263,38.570269578191045,3.547633769435632,0.6058603777691143,B,697.1276999975089,Correct,sub_004_day_05_data.csv,1,300,41.0,Training at home,,,,,,,,,,,,,
4,5,1044,A,35.52864422417576,47.18555579011674,1.776432211208788,0.7411889771289103,A,500.0341999984812,Correct,sub_004_day_05_data.csv,1,300,41.0,Training at home,,,,,,,,,,,,,
4,5,1045,A,24.411128839095028,55.19224527864655,1.2205564419547514,0.8669577615126097,A,500.8190999942599,Correct,sub_004_day_05_data.csv,1,300,41.0,Training at home,,,,,,,,,,,,,
4,5,1046,B,32.63935343831973,19.04734893940451,1.6319676719159866,0.2991950574919728,B,585.1764000035473,Correct,sub_004_day_05_data.csv,1,300,41.0,Training at home,,,,,,,,,,,,,
4,5,1047,A,47.47551250367256,74.99457155709513,2.373775625183628,1.1780119753144205,A,722.842999995919,Correct,sub_004_day_05_data.csv,1,300,41.0,Training at home,,,,,,,,,,,,,
4,5,1048,A,56.21091125114648,66.09423091955952,2.810545562557325,1.0382057515077778,B,1706.3197999959812,Incorrect,sub_004_day_05_data.csv,0,300,41.0,Training at home,,,,,,,,,,,,,
4,5,1049,B,31.079130136017312,12.315620728322806,1.5539565068008656,0.1934533180224855,B,849.157099997683,Correct,sub_004_day_05_data.csv,1,300,41.0,Training at home,,,,,,,,,,,,,
4,5,1050,B,75.08299476012397,64.57355299306597,3.754149738006198,1.0143189984960364,B,720.5402999970829,Correct,sub_004_day_05_data.csv,1,300,42.0,Training at home,,,,,,,,,,,,,
4,5,1051,B,61.000731719740635,50.488011940980066,3.050036585987032,0.7930638370406836,B,529.0997000047355,Correct,sub_004_day_05_data.csv,1,300,42.0,Training at home,,,,,,,,,,,,,
4,5,1052,B,57.334643924663496,36.362831680618456,2.866732196233175,0.5711860243577657,B,528.3542000033776,Correct,sub_004_day_05_data.csv,1,300,42.0,Training at home,,,,,,,,,,,,,
4,5,1053,A,56.78689112443344,79.11916682951922,2.839344556221672,1.242800966348814,A,565.7563999993727,Correct,sub_004_day_05_data.csv,1,300,42.0,Training at home,,,,,,,,,,,,,
4,5,1054,B,55.92303338981638,30.943723591077244,2.7961516694908193,0.4860628735422072,B,514.2356999931508,Correct,sub_004_day_05_data.csv,1,300,42.0,Training at home,,,,,,,,,,,,,
4,5,1055,B,81.97039750796142,51.89707929175259,4.098519875398071,0.8151974152286846,B,507.6828000019305,Correct,sub_004_day_05_data.csv,1,300,42.0,Training at home,,,,,,,,,,,,,
4,5,1056,B,52.50789331105453,33.72075643606043,2.6253946655527267,0.5296844034650909,B,598.8854999959585,Correct,sub_004_day_05_data.csv,1,300,42.0,Training at home,,,,,,,,,,,,,
4,5,1057,B,60.206991605403246,32.782878205223376,3.0103495802701623,0.5149522466652935,B,419.0005999989808,Correct,sub_004_day_05_data.csv,1,300,42.0,Training at home,,,,,,,,,,,,,
4,5,1058,A,53.17663276591965,65.22535698340216,2.6588316382959825,1.0245575116341397,A,460.83460000227205,Correct,sub_004_day_05_data.csv,1,300,42.0,Training at home,,,,,,,,,,,,,
4,5,1059,A,16.013400404985905,43.14931594703389,0.8006700202492952,0.6777878699331328,A,469.5986000006087,Correct,sub_004_day_05_data.csv,1,300,42.0,Training at home,,,,,,,,,,,,,
4,5,1060,A,27.593135750149244,43.46085227242381,1.3796567875074623,0.6826814710889895,A,407.3257999989437,Correct,sub_004_day_05_data.csv,1,300,42.0,Training at home,,,,,,,,,,,,,
4,5,1061,A,13.568946106739435,40.28332801781494,0.6784473053369717,0.6327690368145764,A,483.4984000044642,Correct,sub_004_day_05_data.csv,1,300,42.0,Training at home,,,,,,,,,,,,,
4,5,1062,A,21.431106210038944,40.15880754256425,1.0715553105019473,0.6308130737632311,A,514.6371999944677,Correct,sub_004_day_05_data.csv,1,300,42.0,Training at home,,,,,,,,,,,,,
4,5,1063,A,36.91640529169679,49.45177309115533,1.8458202645848392,0.776786635250815,B,778.1074000013177,Incorrect,sub_004_day_05_data.csv,0,300,42.0,Training at home,,,,,,,,,,,,,
4,5,1064,A,24.46625133709812,34.98077910183321,1.223312566854906,0.5494767932158328,A,474.13460000097984,Correct,sub_004_day_05_data.csv,1,300,42.0,Training at home,,,,,,,,,,,,,
4,5,1065,B,34.157960382481505,19.8919033527217,1.7078980191240754,0.3124612871941433,B,730.9867000003578,Correct,sub_004_day_05_data.csv,1,300,42.0,Training at home,,,,,,,,,,,,,
4,5,1066,B,61.128389487018595,35.97575002785794,3.0564194743509296,0.5651057599745065,B,579.7493999998551,Correct,sub_004_day_05_data.csv,1,300,42.0,Training at home,,,,,,,,,,,,,
4,5,1067,B,63.68030551247658,45.59144679238305,3.184015275623829,0.7161487715474028,B,606.1812999978429,Correct,sub_004_day_05_data.csv,1,300,42.0,Training at home,,,,,,,,,,,,,
4,5,1068,B,37.64594934994247,25.901833184437695,1.8822974674971236,0.4068650442336889,B,578.0749999976251,Correct,sub_004_day_05_data.csv,1,300,42.0,Training at home,,,,,,,,,,,,,
4,5,1069,B,50.770595748340384,41.02008416326704,2.538529787417019,0.6443419752847738,B,494.8406999974395,Correct,sub_004_day_05_data.csv,1,300,42.0,Training at home,,,,,,,,,,,,,
4,5,1070,B,86.66116609101248,64.61683480158811,4.333058304550624,1.0149988675544723,B,657.5693999984651,Correct,sub_004_day_05_data.csv,1,300,42.0,Training at home,,,,,,,,,,,,,
4,5,1071,B,85.69295459099139,61.864414702137424,4.28464772954957,0.9717639537343364,B,618.4006000039517,Correct,sub_004_day_05_data.csv,1,300,42.0,Training at home,,,,,,,,,,,,,
4,5,1072,B,60.37401509288057,31.671097382934384,3.018700754644028,0.4974884343467679,B,650.8085000023129,Correct,sub_004_day_05_data.csv,1,300,42.0,Training at home,,,,,,,,,,,,,
4,5,1073,A,66.74727703656053,84.6862711319868,3.337363851828026,1.3302488362408156,A,611.799999998766,Correct,sub_004_day_05_data.csv,1,300,42.0,Training at home,,,,,,,,,,,,,
4,5,1074,B,51.35220629277369,32.41428710784873,2.5676103146386846,0.5091624312468395,B,497.501400001056,Correct,sub_004_day_05_data.csv,1,300,42.0,Training at home,,,,,,,,,,,,,
4,5,1075,B,54.45020503804869,29.72684401022372,2.7225102519024347,0.466948173784643,B,836.351800004195,Correct,sub_004_day_05_data.csv,1,300,43.0,Training at home,,,,,,,,,,,,,
4,5,1076,B,60.28161003761269,30.166905721214206,3.0140805018806343,0.4738606469765122,B,479.00189999927534,Correct,sub_004_day_05_data.csv,1,300,43.0,Training at home,,,,,,,,,,,,,
4,5,1077,B,51.722199932119,43.69943793581663,2.5861099966059498,0.6864291659258233,B,467.2348000021884,Correct,sub_004_day_05_data.csv,1,300,43.0,Training at home,,,,,,,,,,,,,
4,5,1078,B,51.355678105269384,36.66904912775708,2.5677839052634694,0.5759960767694242,B,777.3900999964098,Correct,sub_004_day_05_data.csv,1,300,43.0,Training at home,,,,,,,,,,,,,
4,5,1079,B,42.992731141609184,30.931802657469294,2.149636557080459,0.4858756199549739,B,491.81469999894034,Correct,sub_004_day_05_data.csv,1,300,43.0,Training at home,,,,,,,,,,,,,
4,5,1080,B,56.31289560585533,35.124247417948865,2.815644780292766,0.551730388255492,B,422.3190999982762,Correct,sub_004_day_05_data.csv,1,300,43.0,Training at home,,,,,,,,,,,,,
4,5,1081,A,12.506806270646624,33.80606290367851,0.6253403135323312,0.5310243943249542,A,520.8115999994334,Correct,sub_004_day_05_data.csv,1,300,43.0,Training at home,,,,,,,,,,,,,
4,5,1082,A,44.54236034599339,66.72466346608965,2.227118017299669,1.0481085627915927,B,1031.1402999941492,Incorrect,sub_004_day_05_data.csv,0,300,43.0,Training at home,,,,,,,,,,,,,
4,5,1083,A,69.04003253301835,82.8571222297875,3.4520016266509175,1.30151663247346,B,531.8679999982123,Incorrect,sub_004_day_05_data.csv,0,300,43.0,Training at home,,,,,,,,,,,,,
4,5,1084,B,54.91614301808806,45.731668232090435,2.745807150904403,0.7183513647717051,B,561.1108999946737,Correct,sub_004_day_05_data.csv,1,300,43.0,Training at home,,,,,,,,,,,,,
4,5,1085,B,84.26634362850056,62.28267354338995,4.213317181425029,0.978333948249226,B,506.15539999853354,Correct,sub_004_day_05_data.csv,1,300,43.0,Training at home,,,,,,,,,,,,,
4,5,1086,A,58.922211738684624,82.33006275087018,2.946110586934231,1.2932376015386022,A,1083.5226999988663,Correct,sub_004_day_05_data.csv,1,300,43.0,Training at home,,,,,,,,,,,,,
4,5,1087,B,63.51970896603403,34.88792087400827,3.175985448301702,0.548018179584032,A,485.6371999994735,Incorrect,sub_004_day_05_data.csv,0,300,43.0,Training at home,,,,,,,,,,,,,
4,5,1088,B,78.22525934717203,54.57393193502588,3.9112629673586015,0.8572453182229336,A,513.0694999970729,Incorrect,sub_004_day_05_data.csv,0,300,43.0,Training at home,,,,,,,,,,,,,
4,5,1089,A,40.09263988827032,71.84062153509801,2.004631994413516,1.128469844219943,A,459.8264000014751,Correct,sub_004_day_05_data.csv,1,300,43.0,Training at home,,,,,,,,,,,,,
4,5,1090,B,70.83964490604332,46.824621269395315,3.5419822453021657,0.7355194309352835,B,550.5494000026374,Correct,sub_004_day_05_data.csv,1,300,43.0,Training at home,,,,,,,,,,,,,
4,5,1091,B,73.35539614333585,50.22240156865153,3.667769807166792,0.7888916390685606,B,486.74440000468167,Correct,sub_004_day_05_data.csv,1,300,43.0,Training at home,,,,,,,,,,,,,
4,5,1092,B,86.7295747081417,64.80276791999148,4.336478735407085,1.017919498148648,B,513.2284999999683,Correct,sub_004_day_05_data.csv,1,300,43.0,Training at home,,,,,,,,,,,,,
4,5,1093,A,65.14101899583339,79.34254480945424,3.2570509497916698,1.246309779452502,A,817.041700000118,Correct,sub_004_day_05_data.csv,1,300,43.0,Training at home,,,,,,,,,,,,,
4,5,1094,A,34.022743656143206,43.47887991887932,1.7011371828071602,0.6829646486973203,A,769.0019000001485,Correct,sub_004_day_05_data.csv,1,300,43.0,Training at home,,,,,,,,,,,,,
4,5,1095,A,28.563876117889382,48.794134279879685,1.4281938058944692,0.7664564689597194,A,718.5159000000567,Correct,sub_004_day_05_data.csv,1,300,43.0,Training at home,,,,,,,,,,,,,
4,5,1096,A,53.98751251940669,65.87459376617117,2.6993756259703345,1.0347556991700768,A,483.3356000017375,Correct,sub_004_day_05_data.csv,1,300,43.0,Training at home,,,,,,,,,,,,,
4,5,1097,B,32.59882308683757,16.903495613195652,1.6299411543418785,0.2655194881920137,B,703.574800005299,Correct,sub_004_day_05_data.csv,1,300,43.0,Training at home,,,,,,,,,,,,,
4,5,1098,B,58.15276727263934,37.19072577924402,2.9076383636319667,0.5841905544487278,B,985.3991999989375,Correct,sub_004_day_05_data.csv,1,300,43.0,Training at home,,,,,,,,,,,,,
4,5,1099,A,33.01598833394098,55.01206158504868,1.650799416697049,0.8641274426720911,A,657.9055999973207,Correct,sub_004_day_05_data.csv,1,300,43.0,Training at home,,,,,,,,,,,,,
4,5,1100,A,28.325389870399142,58.70216715958556,1.4162694935199571,0.92209148549177,A,444.4724999993923,Correct,sub_004_day_05_data.csv,1,300,44.0,Training at home,,,,,,,,,,,,,
4,5,1101,A,44.75713866557757,56.745165889159125,2.2378569332788785,0.8913509814205821,A,502.7034000013373,Correct,sub_004_day_05_data.csv,1,300,44.0,Training at home,,,,,,,,,,,,,
4,5,1102,B,54.22837647277336,22.439824362097376,2.711418823638668,0.3524839368190519,B,523.1187999961548,Correct,sub_004_day_05_data.csv,1,300,44.0,Training at home,,,,,,,,,,,,,
4,5,1103,A,45.21721214780902,72.0943402280816,2.260860607390451,1.1324552481297214,A,697.7119999937713,Correct,sub_004_day_05_data.csv,1,300,44.0,Training at home,,,,,,,,,,,,,
4,5,1104,B,60.322896588738274,37.23438762803265,3.0161448294369135,0.5848763931657102,B,583.417299996654,Correct,sub_004_day_05_data.csv,1,300,44.0,Training at home,,,,,,,,,,,,,
4,5,1105,B,57.39787464764023,31.40646904638179,2.8698937323820117,0.4933316621565414,B,510.6293999997433,Correct,sub_004_day_05_data.csv,1,300,44.0,Training at home,,,,,,,,,,,,,
4,5,1106,A,49.63070899995433,58.48555680982515,2.4815354499977165,0.918688978074276,B,429.3239999969955,Incorrect,sub_004_day_05_data.csv,0,300,44.0,Training at home,,,,,,,,,,,,,
4,5,1107,A,63.08108502226601,88.58500453515015,3.1540542511133003,1.391489997329231,A,734.1880000021774,Correct,sub_004_day_05_data.csv,1,300,44.0,Training at home,,,,,,,,,,,,,
4,5,1108,A,32.01667932857337,53.02767148032236,1.6008339664286684,0.8329567157977686,A,600.7211000032839,Correct,sub_004_day_05_data.csv,1,300,44.0,Training at home,,,,,,,,,,,,,
4,5,1109,A,54.52081162685234,67.95520740865777,2.7260405813426174,1.0674379018410498,A,983.0405999964568,Correct,sub_004_day_05_data.csv,1,300,44.0,Training at home,,,,,,,,,,,,,
4,5,1110,B,80.55045360039728,55.154708934923406,4.027522680019864,0.8663681420041934,B,586.8924999958836,Correct,sub_004_day_05_data.csv,1,300,44.0,Training at home,,,,,,,,,,,,,
4,5,1111,A,48.90362384663973,70.12094630858667,2.4451811923319866,1.101457248929101,A,629.2266999953426,Correct,sub_004_day_05_data.csv,1,300,44.0,Training at home,,,,,,,,,,,,,
4,5,1112,A,21.387742869013177,51.70969545951287,1.0693871434506588,0.8122539968748557,A,455.57279999775346,Correct,sub_004_day_05_data.csv,1,300,44.0,Training at home,,,,,,,,,,,,,
4,5,1113,B,51.708575222859984,41.224488149204376,2.585428761142999,0.6475527455876997,B,572.6345000002766,Correct,sub_004_day_05_data.csv,1,300,44.0,Training at home,,,,,,,,,,,,,
4,5,1114,B,38.50636908720061,15.580004951098475,1.9253184543600304,0.2447301454863178,A,508.788099999947,Incorrect,sub_004_day_05_data.csv,0,300,44.0,Training at home,,,,,,,,,,,,,
4,5,1115,B,71.17113361178023,52.27261662842399,3.558556680589012,0.8210963419188624,B,587.9230999998981,Correct,sub_004_day_05_data.csv,1,300,44.0,Training at home,,,,,,,,,,,,,
4,5,1116,B,65.29123471559001,33.58374866205685,3.2645617357795005,0.5275322903836193,B,498.4522000013385,Correct,sub_004_day_05_data.csv,1,300,44.0,Training at home,,,,,,,,,,,,,
4,5,1117,A,20.430566014654783,33.31216074809919,1.0215283007327391,0.5232661974071534,A,474.2538999998942,Correct,sub_004_day_05_data.csv,1,300,44.0,Training at home,,,,,,,,,,,,,
4,5,1118,A,50.47168549031483,67.4553146081177,2.5235842745157417,1.0595856040922542,A,658.7574000004679,Correct,sub_004_day_05_data.csv,1,300,44.0,Training at home,,,,,,,,,,,,,
4,5,1119,B,83.24836631924596,68.24765335798148,4.162418315962298,1.072031632070887,B,1337.3638999983086,Correct,sub_004_day_05_data.csv,1,300,44.0,Training at home,,,,,,,,,,,,,
4,5,1120,B,60.46883277496204,45.94000064896616,3.023441638748102,0.7216238427235121,B,533.2679999992251,Correct,sub_004_day_05_data.csv,1,300,44.0,Training at home,,,,,,,,,,,,,
4,5,1121,A,67.33588415344191,83.71575378685174,3.366794207672095,1.3150039854325266,B,585.3691000011167,Incorrect,sub_004_day_05_data.csv,0,300,44.0,Training at home,,,,,,,,,,,,,
4,5,1122,A,40.798536772849154,71.42861233563896,2.0399268386424576,1.1219980188487833,A,1838.2992999977432,Correct,sub_004_day_05_data.csv,1,300,44.0,Training at home,,,,,,,,,,,,,
4,5,1123,A,63.60726741100498,87.4723043431231,3.180363370550249,1.3740117435846304,B,949.238699999114,Incorrect,sub_004_day_05_data.csv,0,300,44.0,Training at home,,,,,,,,,,,,,
4,5,1124,B,47.401023262254775,27.104604730829173,2.3700511631127386,0.4257581355041404,B,583.7383999969461,Correct,sub_004_day_05_data.csv,1,300,44.0,Training at home,,,,,,,,,,,,,
4,5,1125,B,40.776770573288914,21.024887876068306,2.0388385286644457,0.3302581664700264,B,508.46090000413824,Correct,sub_004_day_05_data.csv,1,300,45.0,Training at home,,,,,,,,,,,,,
4,5,1126,B,58.38411727772532,35.95706951912359,2.919205863886266,0.5648123272294808,B,603.3219000019017,Correct,sub_004_day_05_data.csv,1,300,45.0,Training at home,,,,,,,,,,,,,
4,5,1127,B,35.44668029600832,23.69970941739328,1.772334014800416,0.3722741649894779,A,697.4941000007675,Incorrect,sub_004_day_05_data.csv,0,300,45.0,Training at home,,,,,,,,,,,,,
4,5,1128,A,41.66597002952939,61.933718283732304,2.0832985014764693,0.9728525718483664,A,819.2232999936095,Correct,sub_004_day_05_data.csv,1,300,45.0,Training at home,,,,,,,,,,,,,
4,5,1129,A,41.26526216049605,68.23536330028074,2.0632631080248025,1.071838580295963,A,788.2559000063338,Correct,sub_004_day_05_data.csv,1,300,45.0,Training at home,,,,,,,,,,,,,
4,5,1130,B,37.08946731793477,20.11930909815015,1.8544733658967385,0.316033368290254,B,1218.9838999984204,Correct,sub_004_day_05_data.csv,1,300,45.0,Training at home,,,,,,,,,,,,,
4,5,1131,A,44.47936140932231,64.95641391315156,2.2239680704661153,1.020332963765474,A,652.4648000049638,Correct,sub_004_day_05_data.csv,1,300,45.0,Training at home,,,,,,,,,,,,,
4,5,1132,A,15.03003100965729,43.61901002806941,0.7515015504828645,0.6851658073052119,A,1228.215099996305,Correct,sub_004_day_05_data.csv,1,300,45.0,Training at home,,,,,,,,,,,,,
4,5,1133,B,40.020827786777595,28.35794905051491,2.0010413893388797,0.4454456220398564,B,1640.8754000003682,Correct,sub_004_day_05_data.csv,1,300,45.0,Training at home,,,,,,,,,,,,,
4,5,1134,A,49.31294145510573,75.16687952654502,2.4656470727552864,1.1807185825693145,A,612.9187999977148,Correct,sub_004_day_05_data.csv,1,300,45.0,Training at home,,,,,,,,,,,,,
4,5,1135,B,46.36479601335781,19.060898986156676,2.3182398006678904,0.2994079011286348,B,512.7995000002556,Correct,sub_004_day_05_data.csv,1,300,45.0,Training at home,,,,,,,,,,,,,
4,5,1136,B,84.90785334878593,58.4020955893012,4.2453926674392966,0.9173779722879876,B,780.9940000006463,Correct,sub_004_day_05_data.csv,1,300,45.0,Training at home,,,,,,,,,,,,,
4,5,1137,A,31.55710074592268,53.16256805423776,1.577855037296134,0.8350756662258039,A,1300.9778999985429,Correct,sub_004_day_05_data.csv,1,300,45.0,Training at home,,,,,,,,,,,,,
4,5,1138,B,38.851745536081225,24.13035891100804,1.9425872768040613,0.3790387914165392,B,665.1009999986854,Correct,sub_004_day_05_data.csv,1,300,45.0,Training at home,,,,,,,,,,,,,
4,5,1139,B,54.03728281805098,34.86248355271668,2.7018641409025492,0.5476186110755485,B,569.2634000006365,Correct,sub_004_day_05_data.csv,1,300,45.0,Training at home,,,,,,,,,,,,,
4,5,1140,A,24.849483668456664,54.5455228320175,1.242474183422833,0.8567990690764025,A,651.6678000043612,Correct,sub_004_day_05_data.csv,1,300,45.0,Training at home,,,,,,,,,,,,,
4,5,1141,B,41.548032226292904,26.647123501828464,2.077401611314645,0.4185720371632211,B,699.8199000008754,Correct,sub_004_day_05_data.csv,1,300,45.0,Training at home,,,,,,,,,,,,,
4,5,1142,B,70.1838890839659,51.416987607831615,3.5091944541982945,0.8076561526924061,B,584.6543000006932,Correct,sub_004_day_05_data.csv,1,300,45.0,Training at home,,,,,,,,,,,,,
4,5,1143,B,36.050406680644734,14.148167353765544,1.8025203340322369,0.2222388931017438,B,530.3108000007342,Correct,sub_004_day_05_data.csv,1,300,45.0,Training at home,,,,,,,,,,,,,
4,5,1144,A,46.42829985379831,65.01231238654165,2.3214149926899155,1.0212110149322198,B,821.9094000014593,Incorrect,sub_004_day_05_data.csv,0,300,45.0,Training at home,,,,,,,,,,,,,
4,5,1145,A,68.36734338939748,85.98253575968947,3.418367169469874,1.3506105133983108,B,525.8422999977483,Incorrect,sub_004_day_05_data.csv,0,300,45.0,Training at home,,,,,,,,,,,,,
4,5,1146,B,67.24827129212431,53.56276255527219,3.3624135646062157,0.8413619067480878,B,690.6325000018114,Correct,sub_004_day_05_data.csv,1,300,45.0,Training at home,,,,,,,,,,,,,
4,5,1147,A,29.25627581889243,54.1757970351249,1.4628137909446215,0.8509914298396004,A,1158.487699998659,Correct,sub_004_day_05_data.csv,1,300,45.0,Training at home,,,,,,,,,,,,,
4,5,1148,A,20.667450983170426,40.00443519916866,1.0333725491585213,0.6283881986635861,A,1177.0412999976545,Correct,sub_004_day_05_data.csv,1,300,45.0,Training at home,,,,,,,,,,,,,
4,5,1149,A,44.48308472904684,62.51128062950355,2.2241542364523417,0.9819248999606914,B,702.6235999946948,Incorrect,sub_004_day_05_data.csv,0,300,45.0,Training at home,,,,,,,,,,,,,
4,5,1150,B,67.8575064558659,43.63025640877739,3.3928753227932953,0.6853424650402701,B,482.7760999978637,Correct,sub_004_day_05_data.csv,1,300,46.0,Training at home,,,,,,,,,,,,,
4,5,1151,B,40.84351111425535,26.434995805883936,2.0421755557127677,0.4152399431072098,B,513.1496000030893,Correct,sub_004_day_05_data.csv,1,300,46.0,Training at home,,,,,,,,,,,,,
4,5,1152,A,44.12266003939674,71.27627064952515,2.206133001969837,1.11960504123913,A,1016.0831000030156,Correct,sub_004_day_05_data.csv,1,300,46.0,Training at home,,,,,,,,,,,,,
4,5,1153,A,21.828021912975785,34.15940729086471,1.0914010956487892,0.536574714979811,B,620.2363000047626,Incorrect,sub_004_day_05_data.csv,0,300,46.0,Training at home,,,,,,,,,,,,,
4,5,1154,B,55.337170650631634,48.49178554230978,2.7668585325315815,0.7617071860958606,B,594.9408000014955,Correct,sub_004_day_05_data.csv,1,300,46.0,Training at home,,,,,,,,,,,,,
4,5,1155,A,51.39133046489302,72.7785060512267,2.569566523244651,1.1432020997488703,A,1108.3900000012363,Correct,sub_004_day_05_data.csv,1,300,46.0,Training at home,,,,,,,,,,,,,
4,5,1156,B,67.70288016182614,50.41314383176122,3.3851440080913076,0.7918878115311331,B,506.0843000028399,Correct,sub_004_day_05_data.csv,1,300,46.0,Training at home,,,,,,,,,,,,,
4,5,1157,A,14.481789931768112,43.5252392577772,0.7240894965884056,0.6836928594898545,A,856.4463000002434,Correct,sub_004_day_05_data.csv,1,300,46.0,Training at home,,,,,,,,,,,,,
4,5,1158,B,83.04469566145528,67.5650908987225,4.152234783072764,1.061309966032766,B,943.580800005293,Correct,sub_004_day_05_data.csv,1,300,46.0,Training at home,,,,,,,,,,,,,
4,5,1159,A,47.31543142686069,63.12843593444014,2.3657715713430343,0.9916191528212552,A,559.0429000003496,Correct,sub_004_day_05_data.csv,1,300,46.0,Training at home,,,,,,,,,,,,,
4,5,1160,A,66.44988627104168,89.17073650152504,3.322494313552084,1.4006906535419117,A,1225.6985999993049,Correct,sub_004_day_05_data.csv,1,300,46.0,Training at home,,,,,,,,,,,,,
4,5,1161,A,18.08354636729388,38.71621910100531,0.904177318364694,0.6081529475124555,A,479.076100004022,Correct,sub_004_day_05_data.csv,1,300,46.0,Training at home,,,,,,,,,,,,,
4,5,1162,B,66.42003283000454,41.74969977775142,3.321001641500227,0.6558027505568164,B,563.938400002371,Correct,sub_004_day_05_data.csv,1,300,46.0,Training at home,,,,,,,,,,,,,
4,5,1163,A,43.25640479470772,50.4883949337914,2.162820239735386,0.7930698530776958,B,1142.7111000011791,Incorrect,sub_004_day_05_data.csv,0,300,46.0,Training at home,,,,,,,,,,,,,
4,5,1164,B,35.44915833868305,13.430708419362457,1.7724579169341523,0.2109690745138784,B,680.8063000062248,Correct,sub_004_day_05_data.csv,1,300,46.0,Training at home,,,,,,,,,,,,,
4,5,1165,A,61.29599311642011,76.90217926265332,3.0647996558210053,1.207976607082985,A,1610.6660999939777,Correct,sub_004_day_05_data.csv,1,300,46.0,Training at home,,,,,,,,,,,,,
4,5,1166,B,37.2967999834041,19.509060426044684,1.864839999170205,0.3064476045645066,B,554.4664999979432,Correct,sub_004_day_05_data.csv,1,300,46.0,Training at home,,,,,,,,,,,,,
4,5,1167,B,41.85339676681839,26.689821246957106,2.0926698383409192,0.4192427317753261,B,462.55050000036135,Correct,sub_004_day_05_data.csv,1,300,46.0,Training at home,,,,,,,,,,,,,
4,5,1168,A,55.66032784685578,80.78361736049195,2.7830163923427893,1.268946094150652,A,464.2165000041132,Correct,sub_004_day_05_data.csv,1,300,46.0,Training at home,,,,,,,,,,,,,
4,5,1169,A,12.175292622450597,38.32487608543215,0.6087646311225298,0.602005745798664,B,478.63520000100834,Incorrect,sub_004_day_05_data.csv,0,300,46.0,Training at home,,,,,,,,,,,,,
4,5,1170,B,48.895728209540486,21.856736695561715,2.4447864104770245,0.3433248171711156,B,523.2020000039483,Correct,sub_004_day_05_data.csv,1,300,46.0,Training at home,,,,,,,,,,,,,
4,5,1171,B,48.13931884270333,32.054845309844104,2.406965942135167,0.5035163326868174,B,491.8016000010539,Correct,sub_004_day_05_data.csv,1,300,46.0,Training at home,,,,,,,,,,,,,
4,5,1172,A,50.69938118329917,73.76172567794882,2.5349690591649585,1.158646477529748,A,659.8177999985637,Correct,sub_004_day_05_data.csv,1,300,46.0,Training at home,,,,,,,,,,,,,
4,5,1173,A,42.11468450634565,59.79512739517302,2.105734225317282,0.9392596647257068,A,397.0668000038131,Correct,sub_004_day_05_data.csv,1,300,46.0,Training at home,,,,,,,,,,,,,
4,5,1174,A,59.276578420772026,76.32769528968704,2.9638289210386013,1.1989526339376055,B,638.865299995814,Incorrect,sub_004_day_05_data.csv,0,300,46.0,Training at home,,,,,,,,,,,,,
4,5,1175,A,53.06089104968201,64.40141690110967,2.6530445524841006,1.0116150910864985,A,492.4918999968213,Correct,sub_004_day_05_data.csv,1,300,47.0,Training at home,,,,,,,,,,,,,
4,5,1176,A,46.991928144093066,71.88756961505169,2.349596407204653,1.1292073029353562,A,539.2768000019714,Correct,sub_004_day_05_data.csv,1,300,47.0,Training at home,,,,,,,,,,,,,
4,5,1177,A,44.021333395071515,70.14364596827347,2.2010666697535757,1.1018138143496563,A,414.89480000018375,Correct,sub_004_day_05_data.csv,1,300,47.0,Training at home,,,,,,,,,,,,,
4,5,1178,B,53.457363604560335,22.018587610948657,2.6728681802280168,0.3458671654048976,B,457.24560000235215,Correct,sub_004_day_05_data.csv,1,300,47.0,Training at home,,,,,,,,,,,,,
4,5,1179,B,64.2684703378437,34.13297757478535,3.213423516892185,0.5361595579704541,B,538.9039000001503,Correct,sub_004_day_05_data.csv,1,300,47.0,Training at home,,,,,,,,,,,,,
4,5,1180,A,47.6392816781807,77.10633909049528,2.3819640839090352,1.2111835421595172,A,518.5667000041576,Correct,sub_004_day_05_data.csv,1,300,47.0,Training at home,,,,,,,,,,,,,
4,5,1181,A,25.73207115697784,58.10101988331118,1.286603557848892,0.9126486861574248,A,478.368700001738,Correct,sub_004_day_05_data.csv,1,300,47.0,Training at home,,,,,,,,,,,,,
4,5,1182,A,27.249528766658617,40.19485341070485,1.3624764383329309,0.631379280935945,A,547.5674000044819,Correct,sub_004_day_05_data.csv,1,300,47.0,Training at home,,,,,,,,,,,,,
4,5,1183,A,69.20988375743731,87.13509737704703,3.460494187871866,1.3687149089478108,B,523.1580000036047,Incorrect,sub_004_day_05_data.csv,0,300,47.0,Training at home,,,,,,,,,,,,,
4,5,1184,A,59.89583700339235,75.96262648783157,2.9947918501696176,1.1932181466077856,A,427.5487000049907,Correct,sub_004_day_05_data.csv,1,300,47.0,Training at home,,,,,,,,,,,,,
4,5,1185,B,84.52237474739188,57.867943269150445,4.226118737369594,0.9089875272635698,B,667.891500001133,Correct,sub_004_day_05_data.csv,1,300,47.0,Training at home,,,,,,,,,,,,,
4,5,1186,B,35.770769094052326,21.828137157181644,1.7885384547026164,0.3428755766727612,B,517.8658000004361,Correct,sub_004_day_05_data.csv,1,300,47.0,Training at home,,,,,,,,,,,,,
4,5,1187,A,38.70020694153438,68.58338589916637,1.9350103470767193,1.0773053064956744,A,660.8291000011377,Correct,sub_004_day_05_data.csv,1,300,47.0,Training at home,,,,,,,,,,,,,
4,5,1188,B,52.11479125101516,33.14974637052357,2.6057395625507582,0.5207149983300088,B,575.6885000009788,Correct,sub_004_day_05_data.csv,1,300,47.0,Training at home,,,,,,,,,,,,,
4,5,1189,B,48.28640821482868,39.95948498067144,2.4143204107414338,0.6276821222825454,B,902.5145999985398,Correct,sub_004_day_05_data.csv,1,300,47.0,Training at home,,,,,,,,,,,,,
4,5,1190,A,37.95287134307519,45.398682371561115,1.8976435671537593,0.7131208351057642,B,557.0313000062015,Incorrect,sub_004_day_05_data.csv,0,300,47.0,Training at home,,,,,,,,,,,,,
4,5,1191,A,46.60153115147673,78.11848909966176,2.3300765575738365,1.2270823573251586,B,541.9944000022952,Incorrect,sub_004_day_05_data.csv,0,300,47.0,Training at home,,,,,,,,,,,,,
4,5,1192,B,57.388045713700485,37.56686954181762,2.8694022856850245,0.590099006854702,B,573.7500000032014,Correct,sub_004_day_05_data.csv,1,300,47.0,Training at home,,,,,,,,,,,,,
4,5,1193,B,49.1962182671221,40.3693314973119,2.459810913356105,0.6341199763114305,B,607.1634999971138,Correct,sub_004_day_05_data.csv,1,300,47.0,Training at home,,,,,,,,,,,,,
4,5,1194,B,50.499965600757,30.44948103161757,2.5249982800378503,0.4782993295727575,B,775.655800003733,Correct,sub_004_day_05_data.csv,1,300,47.0,Training at home,,,,,,,,,,,,,
4,5,1195,A,16.071530174605485,36.09445120297243,0.8035765087302742,0.5669703136730673,A,555.7206000012229,Correct,sub_004_day_05_data.csv,1,300,47.0,Training at home,,,,,,,,,,,,,
4,5,1196,B,80.79684853581102,53.756998193840445,4.0398424267905515,0.8444129530240445,B,1049.7324999960256,Correct,sub_004_day_05_data.csv,1,300,47.0,Training at home,,,,,,,,,,,,,
4,5,1197,A,18.76808765110223,47.41929796652933,0.9384043825551116,0.7448605906501699,A,478.81309999502264,Correct,sub_004_day_05_data.csv,1,300,47.0,Training at home,,,,,,,,,,,,,
4,5,1198,A,28.82347673099011,48.775178558528765,1.4411738365495057,0.7661587131850218,A,445.4273000010289,Correct,sub_004_day_05_data.csv,1,300,47.0,Training at home,,,,,,,,,,,,,
4,5,1199,B,87.49511410368916,67.26925019535989,4.374755705184458,1.0566629111311818,B,504.4629999974859,Correct,sub_004_day_05_data.csv,1,300,47.0,Training at home,,,,,,,,,,,,,
