subject,day,trial,cat,x,y,xt,yt,resp,rt,fb,f_name,acc,n_trials,block,session_type,ns_left_digit,ns_right_digit,ns_left_size,ns_right_size,ns_congruent,ns_cue,ns_correct_side,ns_resp,ns_rt,ns_fb,acc_stroop,acc_stroop_mean,resp_key
4,15,3300,B,42.17583538777201,24.86962213338029,2.1087917693886005,0.3906511109589082,B,2226.103100001638,Correct,sub_004_day_13_data.csv,1,300,132.0,Training at home,,,,,,,,,,,,,
4,15,3301,B,40.74145306495439,24.237931204082784,2.0370726532477197,0.3807285330448064,B,559.9986000015633,Correct,sub_004_day_13_data.csv,1,300,132.0,Training at home,,,,,,,,,,,,,
4,15,3302,A,34.63300571975057,62.67282802028887,1.7316502859875285,0.9844624804411805,A,540.0110999980825,Correct,sub_004_day_13_data.csv,1,300,132.0,Training at home,,,,,,,,,,,,,
4,15,3303,B,87.64441955096925,61.88216197416858,4.382220977548462,0.9720427272315084,B,1686.395500000799,Correct,sub_004_day_13_data.csv,1,300,132.0,Training at home,,,,,,,,,,,,,
4,15,3304,A,48.52547091099055,68.54615599053592,2.4262735455495275,1.0767205004584384,A,2530.2433999968343,Correct,sub_004_day_13_data.csv,1,300,132.0,Training at home,,,,,,,,,,,,,
4,15,3305,A,60.607005796580445,85.64024471423932,3.0303502898290224,1.3452338182294317,A,1356.253099998867,Correct,sub_004_day_13_data.csv,1,300,132.0,Training at home,,,,,,,,,,,,,
4,15,3306,B,58.847539309909536,34.36876310270868,2.9423769654954763,0.5398632683821876,B,2267.7373999977135,Correct,sub_004_day_13_data.csv,1,300,132.0,Training at home,,,,,,,,,,,,,
4,15,3307,B,53.5434843562114,36.948586024267705,2.67717421781057,0.5803870320718496,B,4088.236900002812,Correct,sub_004_day_13_data.csv,1,300,132.0,Training at home,,,,,,,,,,,,,
4,15,3308,B,65.06362164810662,52.327110044782216,3.253181082405331,0.8219523225013625,B,1757.2635999968045,Correct,sub_004_day_13_data.csv,1,300,132.0,Training at home,,,,,,,,,,,,,
4,15,3309,B,44.375232000259295,30.459245100179547,2.218761600012965,0.4784527032030748,B,680.4038000045693,Correct,sub_004_day_13_data.csv,1,300,132.0,Training at home,,,,,,,,,,,,,
4,15,3310,A,22.795554749095537,50.48450039834372,1.1397777374547768,0.7930086778579382,A,2137.232100001711,Correct,sub_004_day_13_data.csv,1,300,132.0,Training at home,,,,,,,,,,,,,
4,15,3311,B,75.61546009119844,62.6218843182756,3.780773004559922,0.9836622586412224,B,9882.361600000875,Correct,sub_004_day_13_data.csv,1,300,132.0,Training at home,,,,,,,,,,,,,
4,15,3312,B,62.21763688269738,53.26476096460758,3.1108818441348687,0.8366809087081378,B,4769.882399996277,Correct,sub_004_day_13_data.csv,1,300,132.0,Training at home,,,,,,,,,,,,,
4,15,3313,B,57.42276717073486,44.77713750736628,2.8711383585367427,0.7033576312096094,B,1939.6065999972052,Correct,sub_004_day_13_data.csv,1,300,132.0,Training at home,,,,,,,,,,,,,
4,15,3314,A,34.3957793163274,67.24035820957366,1.71978896581637,1.0562090768797137,A,874.3516999966232,Correct,sub_004_day_13_data.csv,1,300,132.0,Training at home,,,,,,,,,,,,,
4,15,3315,A,43.97125143352967,72.73667591943104,2.198562571676484,1.1425450335751308,B,561.8227999948431,Incorrect,sub_004_day_13_data.csv,0,300,132.0,Training at home,,,,,,,,,,,,,
4,15,3316,B,78.46956610593804,63.70507433005382,3.9234783052969022,1.000676967558444,B,513.8944999998785,Correct,sub_004_day_13_data.csv,1,300,132.0,Training at home,,,,,,,,,,,,,
4,15,3317,A,34.15194383869035,45.8980544670133,1.7075971919345176,0.7209649536381658,A,582.0852999968338,Correct,sub_004_day_13_data.csv,1,300,132.0,Training at home,,,,,,,,,,,,,
4,15,3318,B,77.10427886514452,55.59460234205035,3.855213943257226,0.8732779714851563,B,723.9533000029041,Correct,sub_004_day_13_data.csv,1,300,132.0,Training at home,,,,,,,,,,,,,
4,15,3319,A,11.4408823928138,31.832201010565942,0.5720441196406901,0.5000190442119378,A,557.7230999988387,Correct,sub_004_day_13_data.csv,1,300,132.0,Training at home,,,,,,,,,,,,,
4,15,3320,B,56.11587499290549,44.69855509570808,2.8057937496452747,0.7021232615737757,B,889.6619000006467,Correct,sub_004_day_13_data.csv,1,300,132.0,Training at home,,,,,,,,,,,,,
4,15,3321,A,47.59562151740532,62.55362668598089,2.379781075870266,0.98259007026038,A,1584.341800000402,Correct,sub_004_day_13_data.csv,1,300,132.0,Training at home,,,,,,,,,,,,,
4,15,3322,B,70.07449977158952,53.71637120401051,3.5037249885794757,0.8437747857601084,B,1439.3696000042837,Correct,sub_004_day_13_data.csv,1,300,132.0,Training at home,,,,,,,,,,,,,
4,15,3323,A,36.59279360788945,64.11552342860227,1.8296396803944728,1.0071242869218058,A,772.9435000001104,Correct,sub_004_day_13_data.csv,1,300,132.0,Training at home,,,,,,,,,,,,,
4,15,3324,A,55.19744731468963,84.45747380876864,2.759872365734482,1.3266548962918996,A,1279.5168000011472,Correct,sub_004_day_13_data.csv,1,300,132.0,Training at home,,,,,,,,,,,,,
4,15,3325,A,46.6303368983409,78.30063671288907,2.331516844917045,1.2299435253430775,A,3402.884700000868,Correct,sub_004_day_13_data.csv,1,300,133.0,Training at home,,,,,,,,,,,,,
4,15,3326,A,29.953021258502083,50.7252023796716,1.497651062925104,0.7967896157391591,A,909.7170000022744,Correct,sub_004_day_13_data.csv,1,300,133.0,Training at home,,,,,,,,,,,,,
4,15,3327,B,77.18441067723964,65.1369770775335,3.859220533861982,1.02316924331913,B,626.8892000007327,Correct,sub_004_day_13_data.csv,1,300,133.0,Training at home,,,,,,,,,,,,,
4,15,3328,B,35.820003187762396,17.970775590902736,1.7910001593881195,0.2822842828784541,B,2274.009200002183,Correct,sub_004_day_13_data.csv,1,300,133.0,Training at home,,,,,,,,,,,,,
4,15,3329,A,38.87925497844789,62.46030398683047,1.9439627489223943,0.9811241607300594,A,902.7286000055028,Correct,sub_004_day_13_data.csv,1,300,133.0,Training at home,,,,,,,,,,,,,
4,15,3330,B,74.82536021065773,59.44014145099534,3.7412680105328864,0.9336835585539254,B,617.9592999978922,Correct,sub_004_day_13_data.csv,1,300,133.0,Training at home,,,,,,,,,,,,,
4,15,3331,B,47.01178588867866,21.78627110185597,2.350589294433933,0.3422179462135316,B,1451.9857999985106,Correct,sub_004_day_13_data.csv,1,300,133.0,Training at home,,,,,,,,,,,,,
4,15,3332,A,28.963688642501175,52.23628489883654,1.4481844321250588,0.8205256444450414,A,594.5862000007764,Correct,sub_004_day_13_data.csv,1,300,133.0,Training at home,,,,,,,,,,,,,
4,15,3333,A,43.221658030966466,63.94783872392169,2.1610829015483235,1.0044903017400864,A,563.3500999974785,Correct,sub_004_day_13_data.csv,1,300,133.0,Training at home,,,,,,,,,,,,,
4,15,3334,B,65.70850641628363,33.5628557390085,3.2854253208141815,0.5272041051158156,B,484.0320000002976,Correct,sub_004_day_13_data.csv,1,300,133.0,Training at home,,,,,,,,,,,,,
4,15,3335,B,69.47478469420493,43.165111362959095,3.473739234710246,0.678035983746288,B,422.24630000418983,Correct,sub_004_day_13_data.csv,1,300,133.0,Training at home,,,,,,,,,,,,,
4,15,3336,B,65.26675950240953,35.730024843402106,3.2633379751204763,0.5612459178030642,B,578.6536000014166,Correct,sub_004_day_13_data.csv,1,300,133.0,Training at home,,,,,,,,,,,,,
4,15,3337,B,74.48605891096757,64.27742096234316,3.724302945548379,1.0096673674349792,A,736.1309999978403,Incorrect,sub_004_day_13_data.csv,0,300,133.0,Training at home,,,,,,,,,,,,,
4,15,3338,A,43.25078445562348,54.246518214461105,2.162539222781174,0.8521023155268797,A,1717.459499996039,Correct,sub_004_day_13_data.csv,1,300,133.0,Training at home,,,,,,,,,,,,,
4,15,3339,A,66.58484194638285,80.23074516112568,3.329242097319143,1.2602615979511365,A,1569.0978999991785,Correct,sub_004_day_13_data.csv,1,300,133.0,Training at home,,,,,,,,,,,,,
4,15,3340,A,27.34057049096324,38.60745087711247,1.367028524548162,0.6064444202468267,A,898.9356000020052,Correct,sub_004_day_13_data.csv,1,300,133.0,Training at home,,,,,,,,,,,,,
4,15,3341,A,50.66284139910254,78.78524388655946,2.5331420699551273,1.2375557170264766,A,6699.673199997051,Correct,sub_004_day_13_data.csv,1,300,133.0,Training at home,,,,,,,,,,,,,
4,15,3342,A,37.59481089313674,66.32332833648623,1.8797405446568372,1.0418044053176445,A,1007.4151000007988,Correct,sub_004_day_13_data.csv,1,300,133.0,Training at home,,,,,,,,,,,,,
4,15,3343,A,46.34826559996531,56.68994375979174,2.3174132799982656,0.8904835542409013,A,2775.266200005717,Correct,sub_004_day_13_data.csv,1,300,133.0,Training at home,,,,,,,,,,,,,
4,15,3344,B,44.54051827079065,29.447886506642774,2.2270259135395323,0.4625663195650747,A,2749.896400004218,Incorrect,sub_004_day_13_data.csv,0,300,133.0,Training at home,,,,,,,,,,,,,
4,15,3345,A,61.92512196876693,82.55766260221498,3.0962560984383463,1.2968127316433171,A,822.7876000019023,Correct,sub_004_day_13_data.csv,1,300,133.0,Training at home,,,,,,,,,,,,,
4,15,3346,B,73.76817188840923,58.12719791596936,3.6884085944204617,0.9130598897328464,B,7950.719400003436,Correct,sub_004_day_13_data.csv,1,300,133.0,Training at home,,,,,,,,,,,,,
4,15,3347,B,88.3784197813113,68.9440550865666,4.418920989065565,1.0829706848432383,B,4002.6226000045426,Correct,sub_004_day_13_data.csv,1,300,133.0,Training at home,,,,,,,,,,,,,
4,15,3348,A,62.868830598096295,73.5565109512521,3.1434415299048144,1.1554229721407538,A,137369.6340000024,Correct,sub_004_day_13_data.csv,1,300,133.0,Training at home,,,,,,,,,,,,,
4,15,3349,A,55.50891231519233,70.03890803958973,2.775445615759617,1.100168594813131,A,661.903500003973,Correct,sub_004_day_13_data.csv,1,300,133.0,Training at home,,,,,,,,,,,,,
4,15,3350,B,40.283840072787925,19.484674603643903,2.0141920036393963,0.3060645529619765,B,739.4809000034002,Correct,sub_004_day_13_data.csv,1,300,134.0,Training at home,,,,,,,,,,,,,
4,15,3351,A,35.506759640810486,61.60867811421969,1.7753379820405244,0.9677468528050542,A,2958.576400000311,Correct,sub_004_day_13_data.csv,1,300,134.0,Training at home,,,,,,,,,,,,,
4,15,3352,B,43.98373124359448,34.05768080969766,2.199186562179724,0.5349767991502612,B,2610.309800002142,Correct,sub_004_day_13_data.csv,1,300,134.0,Training at home,,,,,,,,,,,,,
4,15,3353,B,52.39133417033244,41.96362457003533,2.6195667085166225,0.6591630733361157,B,768.3830999958445,Correct,sub_004_day_13_data.csv,1,300,134.0,Training at home,,,,,,,,,,,,,
4,15,3354,B,80.40795750630427,53.94031492885591,4.020397875315214,0.8472924855640678,B,1625.1938000059454,Correct,sub_004_day_13_data.csv,1,300,134.0,Training at home,,,,,,,,,,,,,
4,15,3355,B,33.912840695570594,12.801100027342148,1.6956420347785297,0.2010792090188309,B,1412.9457000017285,Correct,sub_004_day_13_data.csv,1,300,134.0,Training at home,,,,,,,,,,,,,
4,15,3356,B,44.83459338365401,15.137566410873738,2.2417296691827007,0.2377803371481427,B,765.5899000019417,Correct,sub_004_day_13_data.csv,1,300,134.0,Training at home,,,,,,,,,,,,,
4,15,3357,A,47.67677524203805,66.52628486921967,2.3838387621019024,1.0449924390788117,A,5566.386500002409,Correct,sub_004_day_13_data.csv,1,300,134.0,Training at home,,,,,,,,,,,,,
4,15,3358,B,34.124497598002655,11.615709235340496,1.7062248799001327,0.182459133999904,B,2969.05870000046,Correct,sub_004_day_13_data.csv,1,300,134.0,Training at home,,,,,,,,,,,,,
4,15,3359,A,49.82504566042424,74.94335798308931,2.4912522830212116,1.1772075143751166,A,3795.446099997207,Correct,sub_004_day_13_data.csv,1,300,134.0,Training at home,,,,,,,,,,,,,
4,15,3360,A,56.419528283225674,68.50518073963195,2.8209764141612834,1.0760768627223436,A,3287.038400005258,Correct,sub_004_day_13_data.csv,1,300,134.0,Training at home,,,,,,,,,,,,,
4,15,3361,A,62.82429601929151,72.28580114228588,3.1412148009645757,1.1354627091372902,A,6420.178200001828,Correct,sub_004_day_13_data.csv,1,300,134.0,Training at home,,,,,,,,,,,,,
4,15,3362,B,55.4496799500124,34.14301100229698,2.77248399750062,0.5363171626812583,B,1312.322600002517,Correct,sub_004_day_13_data.csv,1,300,134.0,Training at home,,,,,,,,,,,,,
4,15,3363,B,45.00565019397004,24.282454577601996,2.250282509698502,0.3814279045606114,B,574.4177000015043,Correct,sub_004_day_13_data.csv,1,300,134.0,Training at home,,,,,,,,,,,,,
4,15,3364,A,29.786803493021864,56.66539300971206,1.4893401746510933,0.8900979119604491,A,463.17029999772785,Correct,sub_004_day_13_data.csv,1,300,134.0,Training at home,,,,,,,,,,,,,
4,15,3365,B,65.60524450146612,54.388598714269776,3.2802622250733062,0.854334110798966,B,945.5290000041714,Correct,sub_004_day_13_data.csv,1,300,134.0,Training at home,,,,,,,,,,,,,
4,15,3366,A,38.56622522546766,64.56223522287819,1.928311261273383,1.0141412193776516,A,922.780100001546,Correct,sub_004_day_13_data.csv,1,300,134.0,Training at home,,,,,,,,,,,,,
4,15,3367,A,55.118837588695776,83.02107822175606,2.7559418794347885,1.304092047172862,A,477.6475999969989,Correct,sub_004_day_13_data.csv,1,300,134.0,Training at home,,,,,,,,,,,,,
4,15,3368,B,61.95837191141872,52.4422938088299,3.0979185955709365,0.8237616248360875,B,1763.25640000141,Correct,sub_004_day_13_data.csv,1,300,134.0,Training at home,,,,,,,,,,,,,
4,15,3369,A,52.616263536287576,76.31518198726845,2.630813176814379,1.1987560754428532,A,4189.929899999697,Correct,sub_004_day_13_data.csv,1,300,134.0,Training at home,,,,,,,,,,,,,
4,15,3370,B,66.32995000314199,57.49802151568156,3.3164975001571,0.9031768099480652,B,2900.7468999989214,Correct,sub_004_day_13_data.csv,1,300,134.0,Training at home,,,,,,,,,,,,,
4,15,3371,A,15.507124508473094,39.804322582534894,0.7753562254236548,0.6252448370320497,A,3009.147100005066,Correct,sub_004_day_13_data.csv,1,300,134.0,Training at home,,,,,,,,,,,,,
4,15,3372,A,21.502238401710525,35.06403822631755,1.0751119200855264,0.5507846244849545,A,1698.0203999992227,Correct,sub_004_day_13_data.csv,1,300,134.0,Training at home,,,,,,,,,,,,,
4,15,3373,B,53.91679504129439,42.01485209198649,2.6958397520647197,0.6599677533692325,B,2139.6861000030185,Correct,sub_004_day_13_data.csv,1,300,134.0,Training at home,,,,,,,,,,,,,
4,15,3374,B,55.44629476189091,34.56985646762166,2.772314738094545,0.5430220355716691,B,748.0881999945268,Correct,sub_004_day_13_data.csv,1,300,134.0,Training at home,,,,,,,,,,,,,
4,15,3375,B,54.64583454400798,39.79936713110372,2.732291727200399,0.6251669969829926,B,1933.5759000023245,Correct,sub_004_day_13_data.csv,1,300,135.0,Training at home,,,,,,,,,,,,,
4,15,3376,A,63.27026307493096,85.76552888781859,3.163513153746548,1.3472017774260705,A,862.9723000049125,Correct,sub_004_day_13_data.csv,1,300,135.0,Training at home,,,,,,,,,,,,,
4,15,3377,B,45.24780803556069,37.09057277006314,2.2623904017780343,0.58261735465934,B,2830.8176999998977,Correct,sub_004_day_13_data.csv,1,300,135.0,Training at home,,,,,,,,,,,,,
4,15,3378,A,42.18385380750182,73.79326968053141,2.1091926903750906,1.1591419695636394,A,15623.045699998327,Correct,sub_004_day_13_data.csv,1,300,135.0,Training at home,,,,,,,,,,,,,
4,15,3379,A,50.17480493503345,77.31185321383184,2.5087402467516724,1.2144117504599328,A,1807.5576999981424,Correct,sub_004_day_13_data.csv,1,300,135.0,Training at home,,,,,,,,,,,,,
4,15,3380,B,42.39099651426969,30.52186406041164,2.1195498257134844,0.4794363195302776,B,5201.724799997464,Correct,sub_004_day_13_data.csv,1,300,135.0,Training at home,,,,,,,,,,,,,
4,15,3381,A,37.183002315956834,45.38121161864109,1.8591501157978416,0.712846405160633,B,3190.5150999955367,Incorrect,sub_004_day_13_data.csv,0,300,135.0,Training at home,,,,,,,,,,,,,
4,15,3382,A,26.69395159167259,46.792751068711766,1.3346975795836298,0.735018814993604,A,1540.295500002685,Correct,sub_004_day_13_data.csv,1,300,135.0,Training at home,,,,,,,,,,,,,
4,15,3383,B,62.32538456183745,51.65220680403522,3.1162692280918725,0.8113509671862887,B,1051.4045000018086,Correct,sub_004_day_13_data.csv,1,300,135.0,Training at home,,,,,,,,,,,,,
4,15,3384,A,58.79942636137653,86.07881235506997,2.9399713180688263,1.3521228226221107,A,2683.3428000027197,Correct,sub_004_day_13_data.csv,1,300,135.0,Training at home,,,,,,,,,,,,,
4,15,3385,A,67.02362832813145,82.56523984315024,3.3511814164065727,1.2969317546656003,A,750.9929000007105,Correct,sub_004_day_13_data.csv,1,300,135.0,Training at home,,,,,,,,,,,,,
4,15,3386,B,57.7010005719708,37.289333310538666,2.88505002859854,0.5857394779282472,B,902.7716999989934,Correct,sub_004_day_13_data.csv,1,300,135.0,Training at home,,,,,,,,,,,,,
4,15,3387,B,72.16456141023434,46.13762590522504,3.608228070511717,0.7247281329896456,B,916.0726000045544,Correct,sub_004_day_13_data.csv,1,300,135.0,Training at home,,,,,,,,,,,,,
4,15,3388,B,54.49646048200633,36.457498829988715,2.7248230241003166,0.5726730524627551,B,856.5537000031327,Correct,sub_004_day_13_data.csv,1,300,135.0,Training at home,,,,,,,,,,,,,
4,15,3389,B,51.08514831550819,31.75723613125008,2.55425741577541,0.498841498641258,B,715.0234000000637,Correct,sub_004_day_13_data.csv,1,300,135.0,Training at home,,,,,,,,,,,,,
4,15,3390,B,54.89700518451124,43.210340654404696,2.744850259225562,0.6787464437949507,B,2426.004599998123,Correct,sub_004_day_13_data.csv,1,300,135.0,Training at home,,,,,,,,,,,,,
4,15,3391,A,38.668864168085115,65.32143955105113,1.933443208404256,1.0260667730774595,A,4479.035299998941,Correct,sub_004_day_13_data.csv,1,300,135.0,Training at home,,,,,,,,,,,,,
4,15,3392,B,63.59695050516965,55.633683969808224,3.179847525258482,0.8738918642584289,B,1511.587300003157,Correct,sub_004_day_13_data.csv,1,300,135.0,Training at home,,,,,,,,,,,,,
4,15,3393,A,43.514310729370315,64.81531534698294,2.1757155364685157,1.0181165926709368,A,2376.611200001207,Correct,sub_004_day_13_data.csv,1,300,135.0,Training at home,,,,,,,,,,,,,
4,15,3394,A,54.91760667566676,64.11159534971497,2.7458803337833384,1.0070625848029306,A,15200.37809999485,Correct,sub_004_day_13_data.csv,1,300,135.0,Training at home,,,,,,,,,,,,,
4,15,3395,A,55.18806101313603,65.4822857250519,2.7594030506568017,1.028593338870454,A,9245.194399998582,Correct,sub_004_day_13_data.csv,1,300,135.0,Training at home,,,,,,,,,,,,,
4,15,3396,B,36.129596339130146,11.951000495334648,1.8064798169565075,0.1877258767959565,B,515.5700000032084,Correct,sub_004_day_13_data.csv,1,300,135.0,Training at home,,,,,,,,,,,,,
4,15,3397,B,85.64355319262478,57.21529189116376,4.282177659631239,0.8987357033913784,B,677.3568999997224,Correct,sub_004_day_13_data.csv,1,300,135.0,Training at home,,,,,,,,,,,,,
4,15,3398,A,36.60916002140185,55.410135319581435,1.8304580010700928,0.8703803702720667,A,845.9394000019529,Correct,sub_004_day_13_data.csv,1,300,135.0,Training at home,,,,,,,,,,,,,
4,15,3399,A,57.3696612307005,67.22093588775753,2.868483061535025,1.0559039917620476,A,689.59840000025,Correct,sub_004_day_13_data.csv,1,300,135.0,Training at home,,,,,,,,,,,,,
4,15,3400,A,53.723219414013066,62.62791604629741,2.6861609707006533,0.9837570048034312,A,786.6064999980154,Correct,sub_004_day_13_data.csv,1,300,136.0,Training at home,,,,,,,,,,,,,
4,15,3401,B,45.54642584027455,16.506466806128692,2.2773212920137276,0.2592829742742883,B,1278.4528999982283,Correct,sub_004_day_13_data.csv,1,300,136.0,Training at home,,,,,,,,,,,,,
4,15,3402,A,31.78004449626403,54.78284296555429,1.5890022248132016,0.8605268850167431,A,1244.8554000002332,Correct,sub_004_day_13_data.csv,1,300,136.0,Training at home,,,,,,,,,,,,,
4,15,3403,A,19.943759005943583,42.25496359372457,0.9971879502971792,0.6637394160187463,A,810.2817000035429,Correct,sub_004_day_13_data.csv,1,300,136.0,Training at home,,,,,,,,,,,,,
4,15,3404,B,64.11146709930578,51.451090620518414,3.2055733549652894,0.8081918415630168,B,434.95480000274256,Correct,sub_004_day_13_data.csv,1,300,136.0,Training at home,,,,,,,,,,,,,
4,15,3405,B,57.19629446745966,39.96865154078188,2.859814723372983,0.6278261102720536,B,493.6244000055012,Correct,sub_004_day_13_data.csv,1,300,136.0,Training at home,,,,,,,,,,,,,
4,15,3406,B,52.18519447958083,23.71063546342201,2.609259723979042,0.3724457909191609,B,529.3231000032392,Correct,sub_004_day_13_data.csv,1,300,136.0,Training at home,,,,,,,,,,,,,
4,15,3407,A,26.68188191947521,58.58371470469228,1.3340940959737606,0.9202308386813078,A,603.6017000005813,Correct,sub_004_day_13_data.csv,1,300,136.0,Training at home,,,,,,,,,,,,,
4,15,3408,B,55.277316037913074,33.597583215592316,2.763865801895654,0.5277496030423828,B,492.2637999989093,Correct,sub_004_day_13_data.csv,1,300,136.0,Training at home,,,,,,,,,,,,,
4,15,3409,B,88.2228697654516,61.81430195672981,4.411143488272581,0.9709767845702176,B,550.8356999998796,Correct,sub_004_day_13_data.csv,1,300,136.0,Training at home,,,,,,,,,,,,,
4,15,3410,B,52.33191154096763,38.3069816669602,2.6165955770483817,0.6017246609306052,B,482.78510000091046,Correct,sub_004_day_13_data.csv,1,300,136.0,Training at home,,,,,,,,,,,,,
4,15,3411,B,56.6396487825551,36.373415529164006,2.831982439127755,0.5713522750619529,B,1036.3050999949337,Correct,sub_004_day_13_data.csv,1,300,136.0,Training at home,,,,,,,,,,,,,
4,15,3412,B,57.92958724411385,39.070762048823525,2.8964793622056924,0.6137220951136945,B,4265.766399999848,Correct,sub_004_day_13_data.csv,1,300,136.0,Training at home,,,,,,,,,,,,,
4,15,3413,B,48.78468843861202,23.21548172372824,2.439234421930601,0.3646679341640638,B,456.81120000517694,Correct,sub_004_day_13_data.csv,1,300,136.0,Training at home,,,,,,,,,,,,,
4,15,3414,A,40.41147360704097,66.26944084356305,2.020573680352048,1.0409579425582052,A,615.1934000008623,Correct,sub_004_day_13_data.csv,1,300,136.0,Training at home,,,,,,,,,,,,,
4,15,3415,A,39.95470276490549,72.53259411610871,1.9977351382452744,1.139339324104887,A,541.377299996384,Correct,sub_004_day_13_data.csv,1,300,136.0,Training at home,,,,,,,,,,,,,
4,15,3416,A,57.334399820320414,73.59601864950551,2.8667199910160206,1.1560435576137196,A,697.7486000032513,Correct,sub_004_day_13_data.csv,1,300,136.0,Training at home,,,,,,,,,,,,,
4,15,3417,B,73.47692078523562,52.871332959163425,3.673846039261781,0.8305009560500385,B,3149.1042000052403,Correct,sub_004_day_13_data.csv,1,300,136.0,Training at home,,,,,,,,,,,,,
4,15,3418,A,47.26037704219239,61.39943421222808,2.363018852109619,0.9644600572785278,A,1513.7386999995215,Correct,sub_004_day_13_data.csv,1,300,136.0,Training at home,,,,,,,,,,,,,
4,15,3419,A,25.62236180471838,53.66545838533785,1.281118090235919,0.8429750490745308,A,3254.5842999970773,Correct,sub_004_day_13_data.csv,1,300,136.0,Training at home,,,,,,,,,,,,,
4,15,3420,B,65.73608165967163,34.18290809616428,3.2868040829835814,0.5369438647662239,B,714.5807000051718,Correct,sub_004_day_13_data.csv,1,300,136.0,Training at home,,,,,,,,,,,,,
4,15,3421,A,64.73886060781936,87.96397411038198,3.2369430303909676,1.381734874228694,A,802.1642999956384,Correct,sub_004_day_13_data.csv,1,300,136.0,Training at home,,,,,,,,,,,,,
4,15,3422,B,41.147527237591135,26.624875448032434,2.0573763618795566,0.4182225655514097,B,2163.339500002621,Correct,sub_004_day_13_data.csv,1,300,136.0,Training at home,,,,,,,,,,,,,
4,15,3423,B,42.2459274337016,14.17419377383388,2.11229637168508,0.2226477151521735,B,6091.1790000027395,Correct,sub_004_day_13_data.csv,1,300,136.0,Training at home,,,,,,,,,,,,,
4,15,3424,B,62.04951328148463,49.375591573821424,3.1024756640742317,0.7755899787748375,A,896.0461000024225,Incorrect,sub_004_day_13_data.csv,0,300,136.0,Training at home,,,,,,,,,,,,,
4,15,3425,A,69.3845461272592,86.52532582401719,3.4692273063629604,1.359136639790978,A,1243.9444999981788,Correct,sub_004_day_13_data.csv,1,300,137.0,Training at home,,,,,,,,,,,,,
4,15,3426,B,73.40387390469138,41.67677068601507,3.6701936952345697,0.654657183062657,B,9858.768899997813,Correct,sub_004_day_13_data.csv,1,300,137.0,Training at home,,,,,,,,,,,,,
4,15,3427,B,73.6892988608602,48.00043689136915,3.6844649430430105,0.753989099535129,B,422.6224000012735,Correct,sub_004_day_13_data.csv,1,300,137.0,Training at home,,,,,,,,,,,,,
4,15,3428,B,63.30774806661263,45.45902473027784,3.165387403330632,0.714068690659988,B,1049.889299996721,Correct,sub_004_day_13_data.csv,1,300,137.0,Training at home,,,,,,,,,,,,,
4,15,3429,B,82.20901359510218,61.857513970272606,4.110450679755109,0.971655557291682,B,1516.3904000000912,Correct,sub_004_day_13_data.csv,1,300,137.0,Training at home,,,,,,,,,,,,,
4,15,3430,B,66.85764262534435,44.118490275757416,3.3428821312672174,0.6930116246889612,B,526.3779000015347,Correct,sub_004_day_13_data.csv,1,300,137.0,Training at home,,,,,,,,,,,,,
4,15,3431,A,60.00055090720808,86.54863763252223,3.000027545360404,1.3595028208226847,A,494.2338000037126,Correct,sub_004_day_13_data.csv,1,300,137.0,Training at home,,,,,,,,,,,,,
4,15,3432,B,86.34824521832685,63.47740917643878,4.317412260916343,0.9971008116880672,B,584.6934000001056,Correct,sub_004_day_13_data.csv,1,300,137.0,Training at home,,,,,,,,,,,,,
4,15,3433,A,25.889142262578233,46.531141404858765,1.2944571131289115,0.7309094600032607,A,2344.616299997142,Correct,sub_004_day_13_data.csv,1,300,137.0,Training at home,,,,,,,,,,,,,
4,15,3434,B,64.82867051547237,47.35116369305505,3.241433525773618,0.7437903399851474,B,625.7107999990694,Correct,sub_004_day_13_data.csv,1,300,137.0,Training at home,,,,,,,,,,,,,
4,15,3435,B,37.19338073321688,19.26596993536635,1.859669036660844,0.3026291480661437,B,543.9263000007486,Correct,sub_004_day_13_data.csv,1,300,137.0,Training at home,,,,,,,,,,,,,
4,15,3436,A,62.57417405880617,86.83370962219672,3.1287087029403087,1.3639807211652129,A,671.9345999954385,Correct,sub_004_day_13_data.csv,1,300,137.0,Training at home,,,,,,,,,,,,,
4,15,3437,A,23.971700874577948,56.1332673909842,1.1985850437288974,0.8817393022875373,A,917.2256000019844,Correct,sub_004_day_13_data.csv,1,300,137.0,Training at home,,,,,,,,,,,,,
4,15,3438,A,61.73034852995307,78.26620268323305,3.086517426497654,1.2294026368700737,A,946.9651999970664,Correct,sub_004_day_13_data.csv,1,300,137.0,Training at home,,,,,,,,,,,,,
4,15,3439,A,40.25382055916977,58.35507441126783,2.012691027958488,0.9166393653506236,A,953.9421000008588,Correct,sub_004_day_13_data.csv,1,300,137.0,Training at home,,,,,,,,,,,,,
4,15,3440,B,68.68963513285667,39.80782644319261,3.434481756642833,0.625299875546557,B,690.3871000031359,Correct,sub_004_day_13_data.csv,1,300,137.0,Training at home,,,,,,,,,,,,,
4,15,3441,B,53.35460040834545,44.72109758983501,2.6677300204172725,0.7024773582434894,B,1277.3356000034255,Correct,sub_004_day_13_data.csv,1,300,137.0,Training at home,,,,,,,,,,,,,
4,15,3442,A,55.333736709983306,66.46245921570338,2.7666868354991654,1.043989868057825,A,717.9273000001558,Correct,sub_004_day_13_data.csv,1,300,137.0,Training at home,,,,,,,,,,,,,
4,15,3443,A,60.57828929290521,86.02165412189215,3.0289144646452604,1.3512249831948926,A,598.8126000011107,Correct,sub_004_day_13_data.csv,1,300,137.0,Training at home,,,,,,,,,,,,,
4,15,3444,A,65.1390758658423,83.14816156916393,3.256953793292115,1.306088267725913,A,1012.8677999964566,Correct,sub_004_day_13_data.csv,1,300,137.0,Training at home,,,,,,,,,,,,,
4,15,3445,A,14.49689304826246,35.7690221175375,0.7248446524131231,0.5618584855527332,A,981.00020000129,Correct,sub_004_day_13_data.csv,1,300,137.0,Training at home,,,,,,,,,,,,,
4,15,3446,B,78.0677006512899,60.484676575842954,3.9033850325644943,0.9500910779271144,B,991.129699999874,Correct,sub_004_day_13_data.csv,1,300,137.0,Training at home,,,,,,,,,,,,,
4,15,3447,A,11.513934742739483,32.45125690910393,0.5756967371369741,0.5097431515269797,A,545.4112000006717,Correct,sub_004_day_13_data.csv,1,300,137.0,Training at home,,,,,,,,,,,,,
4,15,3448,A,35.36252382678777,65.57803370476351,1.7681261913393884,1.0300973446187445,A,1004.5198000007076,Correct,sub_004_day_13_data.csv,1,300,137.0,Training at home,,,,,,,,,,,,,
4,15,3449,A,28.790357607110153,48.43556858468566,1.4395178803555075,0.7608241321904653,A,2418.6470999993617,Correct,sub_004_day_13_data.csv,1,300,137.0,Training at home,,,,,,,,,,,,,
4,15,3450,A,27.05715259318678,49.4978682660497,1.3528576296593389,0.7775106965648855,A,2115.4374000034295,Correct,sub_004_day_13_data.csv,1,300,138.0,Training at home,,,,,,,,,,,,,
4,15,3451,B,31.216701450229753,17.003604891728468,1.5608350725114877,0.2670920010619881,B,1847.225600002275,Correct,sub_004_day_13_data.csv,1,300,138.0,Training at home,,,,,,,,,,,,,
4,15,3452,A,48.27162745102325,70.89871334216761,2.4135813725511626,1.113674384923612,A,1431.4601000005496,Correct,sub_004_day_13_data.csv,1,300,138.0,Training at home,,,,,,,,,,,,,
4,15,3453,B,51.887934069897966,23.412565257279528,2.594396703494898,0.3677637150698049,B,843.5138000058942,Correct,sub_004_day_13_data.csv,1,300,138.0,Training at home,,,,,,,,,,,,,
4,15,3454,B,65.12411931414792,45.18527437164585,3.2562059657073963,0.7097686300820089,B,3994.588999994448,Correct,sub_004_day_13_data.csv,1,300,138.0,Training at home,,,,,,,,,,,,,
4,15,3455,A,48.61311952954299,65.20793346520766,2.4306559764771496,1.024283823650342,A,1289.076799999748,Correct,sub_004_day_13_data.csv,1,300,138.0,Training at home,,,,,,,,,,,,,
4,15,3456,B,70.96744277302965,53.294882496776744,3.548372138651482,0.8371540566290253,B,679.1933999993489,Correct,sub_004_day_13_data.csv,1,300,138.0,Training at home,,,,,,,,,,,,,
4,15,3457,B,44.66116078806341,35.57653181661531,2.2330580394031703,0.558834854976411,B,397.1769999989192,Correct,sub_004_day_13_data.csv,1,300,138.0,Training at home,,,,,,,,,,,,,
4,15,3458,A,36.55736218742465,59.35773694646685,1.8278681093712328,0.9323891516236784,A,848.8361999989138,Correct,sub_004_day_13_data.csv,1,300,138.0,Training at home,,,,,,,,,,,,,
4,15,3459,A,54.49543452135916,77.66286196326536,2.724771726067958,1.2199253830027632,A,555.7860000044457,Correct,sub_004_day_13_data.csv,1,300,138.0,Training at home,,,,,,,,,,,,,
4,15,3460,B,56.901794536795784,44.71721857082227,2.8450897268397894,0.7024164267553216,B,417.95940000156406,Correct,sub_004_day_13_data.csv,1,300,138.0,Training at home,,,,,,,,,,,,,
4,15,3461,A,30.63463279832969,43.27166630476485,1.5317316399164844,0.6797097448581912,A,2835.7661999980337,Correct,sub_004_day_13_data.csv,1,300,138.0,Training at home,,,,,,,,,,,,,
4,15,3462,A,18.27840784352455,36.51819526375917,0.9139203921762276,0.5736264698149169,A,875.8375999968848,Correct,sub_004_day_13_data.csv,1,300,138.0,Training at home,,,,,,,,,,,,,
4,15,3463,A,16.732806789195344,39.19492777818048,0.8366403394597671,0.6156724858295715,A,813.5687000030885,Correct,sub_004_day_13_data.csv,1,300,138.0,Training at home,,,,,,,,,,,,,
4,15,3464,B,37.9192476921185,17.07493232908762,1.8959623846059253,0.2682124098280226,B,15136.964199999056,Correct,sub_004_day_13_data.csv,1,300,138.0,Training at home,,,,,,,,,,,,,
4,15,3465,B,76.41373521079493,60.32845408984811,3.820686760539746,0.9476371408554796,B,1106.6739999951096,Correct,sub_004_day_13_data.csv,1,300,138.0,Training at home,,,,,,,,,,,,,
4,15,3466,A,63.05020143583552,77.39568406879475,3.1525100717917756,1.2157285624504108,A,1182.3274999987916,Correct,sub_004_day_13_data.csv,1,300,138.0,Training at home,,,,,,,,,,,,,
4,15,3467,B,54.00628869532602,23.92997712035233,2.700314434766301,0.3758912016093535,B,1128.1345000024885,Correct,sub_004_day_13_data.csv,1,300,138.0,Training at home,,,,,,,,,,,,,
4,15,3468,A,33.7792524301655,50.74075172085283,1.6889626215082751,0.7970338642192745,A,1090.141999993648,Correct,sub_004_day_13_data.csv,1,300,138.0,Training at home,,,,,,,,,,,,,
4,15,3469,B,74.1686812252071,42.403869555387075,3.7084340612603546,0.6660784253949196,B,8487.973800001782,Correct,sub_004_day_13_data.csv,1,300,138.0,Training at home,,,,,,,,,,,,,
4,15,3470,B,35.13756246318728,12.881800976500514,1.7568781231593642,0.2023468565638992,B,1858.9174000007915,Correct,sub_004_day_13_data.csv,1,300,138.0,Training at home,,,,,,,,,,,,,
4,15,3471,B,46.70166026413172,30.351975064946306,2.3350830132065856,0.4767677094298795,B,1793.7948000035249,Correct,sub_004_day_13_data.csv,1,300,138.0,Training at home,,,,,,,,,,,,,
4,15,3472,B,47.9486460643743,23.29325420841999,2.3974323032187153,0.3658895814968588,B,2139.6640000020852,Correct,sub_004_day_13_data.csv,1,300,138.0,Training at home,,,,,,,,,,,,,
4,15,3473,B,83.5433643865946,60.21870838712184,4.17716821932973,0.94591325938824,B,2194.2281000010553,Correct,sub_004_day_13_data.csv,1,300,138.0,Training at home,,,,,,,,,,,,,
4,15,3474,A,54.8005199690536,79.95141257867775,2.74002599845268,1.255873852006503,A,1226.8789000008835,Correct,sub_004_day_13_data.csv,1,300,138.0,Training at home,,,,,,,,,,,,,
4,15,3475,B,69.31174112497783,36.97553493204077,3.4655870562488915,0.5808103445252603,B,492.2178999986499,Correct,sub_004_day_13_data.csv,1,300,139.0,Training at home,,,,,,,,,,,,,
4,15,3476,B,62.76924999449994,48.93087874665318,3.1384624997249966,0.768604446020893,B,1058.460100000957,Correct,sub_004_day_13_data.csv,1,300,139.0,Training at home,,,,,,,,,,,,,
4,15,3477,B,51.76882496320002,20.327952352324168,2.588441248160001,0.3193107288629248,B,778.3093000034569,Correct,sub_004_day_13_data.csv,1,300,139.0,Training at home,,,,,,,,,,,,,
4,15,3478,B,84.01882606895907,60.42967018133899,4.200941303447953,0.9492270395027436,B,717.2716000059154,Correct,sub_004_day_13_data.csv,1,300,139.0,Training at home,,,,,,,,,,,,,
4,15,3479,B,75.34529410490364,54.71792769584419,3.767264705245182,0.8595071983446079,B,679.6988999994937,Correct,sub_004_day_13_data.csv,1,300,139.0,Training at home,,,,,,,,,,,,,
4,15,3480,A,42.30767734127224,69.76907701538242,2.115383867063612,1.0959300989963294,A,822.8818999996292,Correct,sub_004_day_13_data.csv,1,300,139.0,Training at home,,,,,,,,,,,,,
4,15,3481,B,51.80027155615003,34.145014559835964,2.5900135778075013,0.5363486344894859,B,2945.8049000022584,Correct,sub_004_day_13_data.csv,1,300,139.0,Training at home,,,,,,,,,,,,,
4,15,3482,A,39.3571399111563,59.82861271415957,1.9678569955578151,0.9397856508863628,A,542.0779999985825,Correct,sub_004_day_13_data.csv,1,300,139.0,Training at home,,,,,,,,,,,,,
4,15,3483,A,42.46209565432143,61.621039238898334,2.1231047827160716,0.967941020897457,A,677.8139999951236,Correct,sub_004_day_13_data.csv,1,300,139.0,Training at home,,,,,,,,,,,,,
4,15,3484,B,56.57793340858674,41.49588780286666,2.828896670429337,0.651815881378361,B,525.7409999976517,Correct,sub_004_day_13_data.csv,1,300,139.0,Training at home,,,,,,,,,,,,,
4,15,3485,A,61.62544450713574,78.84888981087786,3.081272225356787,1.238555464867825,A,1548.3370999936596,Correct,sub_004_day_13_data.csv,1,300,139.0,Training at home,,,,,,,,,,,,,
4,15,3486,A,40.17881838185051,71.27451606503773,2.0089409190925256,1.1195774802904512,A,414.5252999951481,Correct,sub_004_day_13_data.csv,1,300,139.0,Training at home,,,,,,,,,,,,,
4,15,3487,A,38.55625348692253,57.48923271114992,1.9278126743461264,0.9030387557293132,A,1152.0457999940843,Correct,sub_004_day_13_data.csv,1,300,139.0,Training at home,,,,,,,,,,,,,
4,15,3488,B,45.20292697409958,37.50701562072973,2.260146348704979,0.5891588236608106,B,1548.2529000000795,Correct,sub_004_day_13_data.csv,1,300,139.0,Training at home,,,,,,,,,,,,,
4,15,3489,A,30.852475734544186,42.9648987382155,1.5426237867272092,0.674891051191036,A,1113.1539000052726,Correct,sub_004_day_13_data.csv,1,300,139.0,Training at home,,,,,,,,,,,,,
4,15,3490,B,65.90913154120294,39.83360183621232,3.295456577060147,0.6257047544733276,B,1003.6487999968812,Correct,sub_004_day_13_data.csv,1,300,139.0,Training at home,,,,,,,,,,,,,
4,15,3491,B,40.50828979407188,19.916682054390485,2.025414489703594,0.3128505101297841,B,1825.1749999981257,Correct,sub_004_day_13_data.csv,1,300,139.0,Training at home,,,,,,,,,,,,,
4,15,3492,A,39.62201203637246,64.45240854815448,1.981100601818623,1.0124160660052506,A,827.5069000010262,Correct,sub_004_day_13_data.csv,1,300,139.0,Training at home,,,,,,,,,,,,,
4,15,3493,B,86.40425499802761,60.55892124413545,4.320212749901381,0.9512573104494938,B,7585.959500000172,Correct,sub_004_day_13_data.csv,1,300,139.0,Training at home,,,,,,,,,,,,,
4,15,3494,B,60.604377298934104,37.16364855563565,3.0302188649467054,0.5837652264148896,B,972.817900001246,Correct,sub_004_day_13_data.csv,1,300,139.0,Training at home,,,,,,,,,,,,,
4,15,3495,A,57.626828698488694,78.80851133875525,2.8813414349244346,1.237921201310907,A,474.8890999981086,Correct,sub_004_day_13_data.csv,1,300,139.0,Training at home,,,,,,,,,,,,,
4,15,3496,A,21.967711926445197,52.63186375279926,1.0983855963222595,0.8267393825526653,A,2528.7530999994488,Correct,sub_004_day_13_data.csv,1,300,139.0,Training at home,,,,,,,,,,,,,
4,15,3497,A,26.16274190035123,51.79033144623166,1.3081370950175613,0.8135206239923092,A,2671.954499994172,Correct,sub_004_day_13_data.csv,1,300,139.0,Training at home,,,,,,,,,,,,,
4,15,3498,B,72.83987535356488,46.12196696885021,3.641993767678244,0.7244821629922545,B,2236.1910000036005,Correct,sub_004_day_13_data.csv,1,300,139.0,Training at home,,,,,,,,,,,,,
4,15,3499,B,51.93846565408065,43.0335651457552,2.5969232827040325,0.6759696605984116,B,535.4902999970363,Correct,sub_004_day_13_data.csv,1,300,139.0,Training at home,,,,,,,,,,,,,
4,15,3500,B,36.21924601696243,23.375676470601448,1.8109623008481213,0.3671842673636664,B,415.21559999819146,Correct,sub_004_day_13_data.csv,1,300,140.0,Training at home,,,,,,,,,,,,,
4,15,3501,B,63.35928573861816,50.00700592411679,3.1679642869309084,0.7855082121961328,B,506.9140999985393,Correct,sub_004_day_13_data.csv,1,300,140.0,Training at home,,,,,,,,,,,,,
4,15,3502,B,48.4141861249161,28.664995558961117,2.420709306245805,0.4502686973160814,B,614.712700000382,Correct,sub_004_day_13_data.csv,1,300,140.0,Training at home,,,,,,,,,,,,,
4,15,3503,A,58.75062339712535,86.72496142151314,2.9375311698562676,1.3622725084234195,A,850.8503000048222,Correct,sub_004_day_13_data.csv,1,300,140.0,Training at home,,,,,,,,,,,,,
4,15,3504,A,11.1517503244635,35.224950288213904,0.5575875162231749,0.5533122252425924,A,1399.1649000017787,Correct,sub_004_day_13_data.csv,1,300,140.0,Training at home,,,,,,,,,,,,,
4,15,3505,A,29.3411354918182,46.1862835474612,1.46705677459091,0.7254924454465961,A,1460.446500001126,Correct,sub_004_day_13_data.csv,1,300,140.0,Training at home,,,,,,,,,,,,,
4,15,3506,A,18.900684979393528,40.32030536913538,0.9450342489696764,0.633349875690864,A,3149.693899998965,Correct,sub_004_day_13_data.csv,1,300,140.0,Training at home,,,,,,,,,,,,,
4,15,3507,A,54.53178872424235,76.85442110980675,2.7265894362121172,1.207226423772326,A,534.8486000002595,Correct,sub_004_day_13_data.csv,1,300,140.0,Training at home,,,,,,,,,,,,,
4,15,3508,A,59.543925274683716,82.57497225115098,2.9771962637341858,1.2970846309729849,B,754.8434999989695,Incorrect,sub_004_day_13_data.csv,0,300,140.0,Training at home,,,,,,,,,,,,,
4,15,3509,A,14.854054061813862,35.48552405643708,0.7427027030906931,0.557405308422433,A,557.0915999996942,Correct,sub_004_day_13_data.csv,1,300,140.0,Training at home,,,,,,,,,,,,,
4,15,3510,A,34.54068583710807,47.749653830011525,1.7270342918554036,0.7500498084190997,A,791.1203999974532,Correct,sub_004_day_13_data.csv,1,300,140.0,Training at home,,,,,,,,,,,,,
4,15,3511,A,32.141359488352194,54.94197470400884,1.6070679744176095,0.8630265205191522,A,472.8703000000678,Correct,sub_004_day_13_data.csv,1,300,140.0,Training at home,,,,,,,,,,,,,
4,15,3512,A,53.681073280061455,73.36259809363477,2.684053664003073,1.1523769960961177,A,577.2644000026048,Correct,sub_004_day_13_data.csv,1,300,140.0,Training at home,,,,,,,,,,,,,
4,15,3513,A,25.953049319908587,36.02197172552717,1.2976524659954294,0.565831808703677,A,548.2119000007515,Correct,sub_004_day_13_data.csv,1,300,140.0,Training at home,,,,,,,,,,,,,
4,15,3514,B,78.12575306896451,63.89182061968457,3.9062876534482256,1.0036103714163895,B,1621.770400000969,Correct,sub_004_day_13_data.csv,1,300,140.0,Training at home,,,,,,,,,,,,,
4,15,3515,B,73.40930930182967,41.5499050429842,3.670465465091483,0.6526643822019633,B,189945.78800000457,Correct,sub_004_day_13_data.csv,1,300,140.0,Training at home,,,,,,,,,,,,,
4,15,3516,A,67.58006961466324,83.11972661990691,3.379003480733162,1.3056416125874577,A,970.1800999973784,Correct,sub_004_day_13_data.csv,1,300,140.0,Training at home,,,,,,,,,,,,,
4,15,3517,A,32.961267296292625,57.773981141863395,1.6480633648146312,0.9075115736195664,A,2896.64890000131,Correct,sub_004_day_13_data.csv,1,300,140.0,Training at home,,,,,,,,,,,,,
4,15,3518,A,41.52048469987132,49.05983357703954,2.076024234993566,0.7706300637598265,A,57554.89050000324,Correct,sub_004_day_13_data.csv,1,300,140.0,Training at home,,,,,,,,,,,,,
4,15,3519,B,56.378667228322946,42.43516516691053,2.818933361416147,0.666570015711178,A,855.2925000039977,Incorrect,sub_004_day_13_data.csv,0,300,140.0,Training at home,,,,,,,,,,,,,
4,15,3520,B,34.74337270943397,19.83497472516837,1.7371686354716984,0.3115670544036408,B,1109.4441000022923,Correct,sub_004_day_13_data.csv,1,300,140.0,Training at home,,,,,,,,,,,,,
4,15,3521,A,52.79101260488542,68.82781597376368,2.639550630244271,1.0811448051290309,A,1386.8191000001389,Correct,sub_004_day_13_data.csv,1,300,140.0,Training at home,,,,,,,,,,,,,
4,15,3522,B,72.95691008310229,41.779775436431585,3.6478455041551143,0.6562751778986238,B,617.2565000015311,Correct,sub_004_day_13_data.csv,1,300,140.0,Training at home,,,,,,,,,,,,,
4,15,3523,A,32.89091226491442,48.70726578187433,1.644545613245721,0.7650919417839095,A,1523.408400003973,Correct,sub_004_day_13_data.csv,1,300,140.0,Training at home,,,,,,,,,,,,,
4,15,3524,B,56.63190339867288,28.68997624349026,2.831595169933644,0.4506610929910734,B,507.03950000024633,Correct,sub_004_day_13_data.csv,1,300,140.0,Training at home,,,,,,,,,,,,,
4,15,3525,B,49.53501330238247,29.805410751324786,2.4767506651191233,0.4681822972679408,B,2572.165400000813,Correct,sub_004_day_13_data.csv,1,300,141.0,Training at home,,,,,,,,,,,,,
4,15,3526,B,49.77146755241522,26.29818246558559,2.488573377620761,0.4130908841832379,B,1269.1457999972044,Correct,sub_004_day_13_data.csv,1,300,141.0,Training at home,,,,,,,,,,,,,
4,15,3527,B,49.27026650847162,35.923614210785665,2.4635133254235813,0.5642868124749908,B,916.8680000002496,Correct,sub_004_day_13_data.csv,1,300,141.0,Training at home,,,,,,,,,,,,,
4,15,3528,B,71.3912693009133,59.497886029437254,3.5695634650456647,0.9345906082710144,A,1142.665199993644,Incorrect,sub_004_day_13_data.csv,0,300,141.0,Training at home,,,,,,,,,,,,,
4,15,3529,A,58.42546756139582,69.40210782110894,2.921273378069791,1.0901657603722128,A,1036.6852000006477,Correct,sub_004_day_13_data.csv,1,300,141.0,Training at home,,,,,,,,,,,,,
4,15,3530,B,82.66073005137704,55.05571833965064,4.133036502568853,0.8648132013697764,B,1155.1756000044406,Correct,sub_004_day_13_data.csv,1,300,141.0,Training at home,,,,,,,,,,,,,
4,15,3531,B,55.9905348376216,31.80161124608813,2.79952674188108,0.4995385413151451,B,2878.7818000055267,Correct,sub_004_day_13_data.csv,1,300,141.0,Training at home,,,,,,,,,,,,,
4,15,3532,B,39.84580511858541,14.574989294016127,1.9922902559292703,0.2289433964611547,B,18584.232000001062,Correct,sub_004_day_13_data.csv,1,300,141.0,Training at home,,,,,,,,,,,,,
4,15,3533,B,72.15609644714864,62.062584416400405,3.607804822357432,0.9748767963267996,B,1311.2255000014557,Correct,sub_004_day_13_data.csv,1,300,141.0,Training at home,,,,,,,,,,,,,
4,15,3534,B,54.483779645105656,31.040765771336613,2.7241889822552827,0.487587208545163,B,1013.3868000048096,Correct,sub_004_day_13_data.csv,1,300,141.0,Training at home,,,,,,,,,,,,,
4,15,3535,A,37.436302870219485,65.28470917618687,1.8718151435109744,1.0254898136982742,A,10240.421599999536,Correct,sub_004_day_13_data.csv,1,300,141.0,Training at home,,,,,,,,,,,,,
4,15,3536,A,30.70627514631377,47.05207419366722,1.5353137573156883,0.7390922531149341,A,670.1102000006358,Correct,sub_004_day_13_data.csv,1,300,141.0,Training at home,,,,,,,,,,,,,
4,15,3537,A,18.393229051306868,47.44083056625409,0.9196614525653434,0.7451988239357099,A,504.1851999994833,Correct,sub_004_day_13_data.csv,1,300,141.0,Training at home,,,,,,,,,,,,,
4,15,3538,A,40.76667135239408,67.21287327553817,2.0383335676197043,1.0557773445454623,A,482.5138000014704,Correct,sub_004_day_13_data.csv,1,300,141.0,Training at home,,,,,,,,,,,,,
4,15,3539,A,57.641879767485435,86.03006473008082,2.8820939883742716,1.3513570967193815,A,19407.180800000788,Correct,sub_004_day_13_data.csv,1,300,141.0,Training at home,,,,,,,,,,,,,
4,15,3540,B,61.3062207355428,53.822258477359725,3.06531103677714,0.8454380591604216,B,441.0448999988148,Correct,sub_004_day_13_data.csv,1,300,141.0,Training at home,,,,,,,,,,,,,
4,15,3541,A,48.374514684641994,70.71415038419586,2.4187257342321,1.110775276759168,A,474.49150000466034,Correct,sub_004_day_13_data.csv,1,300,141.0,Training at home,,,,,,,,,,,,,
4,15,3542,A,46.656122124147494,57.20610964889758,2.3328061062073746,0.898591469067144,A,503.9221000042744,Correct,sub_004_day_13_data.csv,1,300,141.0,Training at home,,,,,,,,,,,,,
4,15,3543,A,40.15183200704543,69.23688352998474,2.007591600352271,1.0875704232762609,A,726.2461999998777,Correct,sub_004_day_13_data.csv,1,300,141.0,Training at home,,,,,,,,,,,,,
4,15,3544,B,78.56969431334647,58.2973480691431,3.928484715667324,0.9157326020889354,B,2645.578100004059,Correct,sub_004_day_13_data.csv,1,300,141.0,Training at home,,,,,,,,,,,,,
4,15,3545,B,54.5264443479264,31.310426969517447,2.7263222173963197,0.4918230367409787,B,812.9921999934595,Correct,sub_004_day_13_data.csv,1,300,141.0,Training at home,,,,,,,,,,,,,
4,15,3546,B,83.51219756219595,69.02678066938964,4.175609878109798,1.084270135259542,B,989.3196999983048,Correct,sub_004_day_13_data.csv,1,300,141.0,Training at home,,,,,,,,,,,,,
4,15,3547,B,50.98101755399203,23.286286967068452,2.5490508776996017,0.36578014032563,B,798.2515999974567,Correct,sub_004_day_13_data.csv,1,300,141.0,Training at home,,,,,,,,,,,,,
4,15,3548,B,47.84196996357073,17.771253533591615,2.3920984981785365,0.2791501977310653,B,479.89500000403496,Correct,sub_004_day_13_data.csv,1,300,141.0,Training at home,,,,,,,,,,,,,
4,15,3549,B,39.79476539282612,20.10860133378821,1.9897382696413064,0.3158651711209748,B,1196.4152000000468,Correct,sub_004_day_13_data.csv,1,300,141.0,Training at home,,,,,,,,,,,,,
4,15,3550,A,37.15379002497469,65.41840613280954,1.8576895012487344,1.0275899205819394,A,590.7342999998946,Correct,sub_004_day_13_data.csv,1,300,142.0,Training at home,,,,,,,,,,,,,
4,15,3551,A,24.79808878435938,46.90585727034579,1.239904439217969,0.7367954830542486,A,888.2451000026776,Correct,sub_004_day_13_data.csv,1,300,142.0,Training at home,,,,,,,,,,,,,
4,15,3552,A,20.217201508835284,51.37181732259127,1.0108600754417645,0.8069466195110481,A,602.9166000007535,Correct,sub_004_day_13_data.csv,1,300,142.0,Training at home,,,,,,,,,,,,,
4,15,3553,A,62.01393322238803,88.42080330912887,3.1006966611194016,1.3889107305023365,B,1492.5211000008858,Incorrect,sub_004_day_13_data.csv,0,300,142.0,Training at home,,,,,,,,,,,,,
4,15,3554,B,55.02470138721654,31.10988729040956,2.7512350693608267,0.4886729668277857,B,820.2545999956783,Correct,sub_004_day_13_data.csv,1,300,142.0,Training at home,,,,,,,,,,,,,
4,15,3555,A,15.491841688475468,31.309712841021152,0.7745920844237734,0.4918118192367903,A,724.2869999972754,Correct,sub_004_day_13_data.csv,1,300,142.0,Training at home,,,,,,,,,,,,,
4,15,3556,A,46.5766642370768,64.6649110580698,2.3288332118538397,1.0157540476253473,B,1343.1421000059345,Incorrect,sub_004_day_13_data.csv,0,300,142.0,Training at home,,,,,,,,,,,,,
4,15,3557,B,60.88824546506874,44.62208666565148,3.044412273253437,0.7009220982832888,B,907.74059999967,Correct,sub_004_day_13_data.csv,1,300,142.0,Training at home,,,,,,,,,,,,,
4,15,3558,A,18.58879546790004,35.97789801006478,0.929439773395002,0.5651395004001116,A,913.8506000017514,Correct,sub_004_day_13_data.csv,1,300,142.0,Training at home,,,,,,,,,,,,,
4,15,3559,B,55.53404478197593,48.32018457902491,2.7767022390987965,0.7590116844678374,B,1200.3920000061044,Correct,sub_004_day_13_data.csv,1,300,142.0,Training at home,,,,,,,,,,,,,
4,15,3560,A,49.23290976003542,73.584713120811,2.461645488001771,1.1558659707842611,A,1515.4808000006597,Correct,sub_004_day_13_data.csv,1,300,142.0,Training at home,,,,,,,,,,,,,
4,15,3561,A,62.38866000434736,84.23248725058579,3.119433000217368,1.3231208157001813,A,627.6260000013281,Correct,sub_004_day_13_data.csv,1,300,142.0,Training at home,,,,,,,,,,,,,
4,15,3562,B,62.81023729816934,47.04428955452023,3.140511864908467,0.738969972289159,B,488.08110000391025,Correct,sub_004_day_13_data.csv,1,300,142.0,Training at home,,,,,,,,,,,,,
4,15,3563,A,60.08508581813662,86.46592089455157,3.004254290906831,1.358203509340997,A,839.7522000013851,Correct,sub_004_day_13_data.csv,1,300,142.0,Training at home,,,,,,,,,,,,,
4,15,3564,A,42.33878426915249,65.5214638911832,2.1169392134576244,1.02920874806495,A,812.8756000005524,Correct,sub_004_day_13_data.csv,1,300,142.0,Training at home,,,,,,,,,,,,,
4,15,3565,B,34.28018290774877,20.305851080785416,1.7140091453874384,0.3189635629014191,B,931.3696999961394,Correct,sub_004_day_13_data.csv,1,300,142.0,Training at home,,,,,,,,,,,,,
4,15,3566,A,24.02736414355857,49.06979018450305,1.2013682071779286,0.7707864617841365,A,820.303899999999,Correct,sub_004_day_13_data.csv,1,300,142.0,Training at home,,,,,,,,,,,,,
4,15,3567,B,74.51089434747365,56.48783412990295,3.7255447173736824,0.8873088235985094,B,472.94829999736976,Correct,sub_004_day_13_data.csv,1,300,142.0,Training at home,,,,,,,,,,,,,
4,15,3568,A,41.97537954393786,67.08561796985508,2.098768977196893,1.0537784228781406,A,453.32829999824753,Correct,sub_004_day_13_data.csv,1,300,142.0,Training at home,,,,,,,,,,,,,
4,15,3569,B,62.404989238978,51.22712957574718,3.1202494619489,0.8046738696982988,B,666.7089000038686,Correct,sub_004_day_13_data.csv,1,300,142.0,Training at home,,,,,,,,,,,,,
4,15,3570,A,29.2495281085385,42.79636711738039,1.462476405426925,0.6722437626814701,B,1094.3224999937229,Incorrect,sub_004_day_13_data.csv,0,300,142.0,Training at home,,,,,,,,,,,,,
4,15,3571,B,41.72162203612853,19.057090359501444,2.0860811018064265,0.299348075361033,B,1110.7292999950005,Correct,sub_004_day_13_data.csv,1,300,142.0,Training at home,,,,,,,,,,,,,
4,15,3572,A,34.50901322472481,61.58365387494056,1.7254506612362406,0.9673537729736492,A,894.8278000025311,Correct,sub_004_day_13_data.csv,1,300,142.0,Training at home,,,,,,,,,,,,,
4,15,3573,B,81.1231727327825,60.053140148162655,4.056158636639125,0.9433125195723304,B,1117.866500004311,Correct,sub_004_day_13_data.csv,1,300,142.0,Training at home,,,,,,,,,,,,,
4,15,3574,B,67.77700641269993,42.36611145676755,3.388850320634997,0.6654853225687365,B,2624.944499999401,Correct,sub_004_day_13_data.csv,1,300,142.0,Training at home,,,,,,,,,,,,,
4,15,3575,A,38.186952306710246,59.05302437463204,1.9093476153355124,0.9276027377380148,B,862.9456999988179,Incorrect,sub_004_day_13_data.csv,0,300,143.0,Training at home,,,,,,,,,,,,,
4,15,3576,A,23.707177792702865,38.27283140335246,1.1853588896351432,0.6011882298442641,A,1845.0551999994784,Correct,sub_004_day_13_data.csv,1,300,143.0,Training at home,,,,,,,,,,,,,
4,15,3577,B,33.168626645260616,18.948571249117148,1.6584313322630309,0.2976434611612459,A,912.526899999648,Incorrect,sub_004_day_13_data.csv,0,300,143.0,Training at home,,,,,,,,,,,,,
4,15,3578,A,23.65433943264789,53.64577332021353,1.1827169716323944,0.8426658367946307,A,802.8492999947048,Correct,sub_004_day_13_data.csv,1,300,143.0,Training at home,,,,,,,,,,,,,
4,15,3579,A,20.91898868582844,36.11195421042278,1.045949434291422,0.567245250271176,A,799.2936999944504,Correct,sub_004_day_13_data.csv,1,300,143.0,Training at home,,,,,,,,,,,,,
4,15,3580,A,31.75268360456254,55.5630615731009,1.587634180228127,0.8727825302450556,A,473.290599999018,Correct,sub_004_day_13_data.csv,1,300,143.0,Training at home,,,,,,,,,,,,,
4,15,3581,B,89.82881410989708,66.36852264920707,4.4914407054948535,1.0425143159217836,B,1972.7666999970097,Correct,sub_004_day_13_data.csv,1,300,143.0,Training at home,,,,,,,,,,,,,
4,15,3582,A,26.22675581759802,41.11079682491342,1.3113377908799009,0.645766886441853,A,60692.692600001465,Correct,sub_004_day_13_data.csv,1,300,143.0,Training at home,,,,,,,,,,,,,
4,15,3583,B,51.44285505755321,33.28599173067395,2.5721427528776606,0.5228551354426794,B,894.687600004545,Correct,sub_004_day_13_data.csv,1,300,143.0,Training at home,,,,,,,,,,,,,
4,15,3584,A,28.26309973410035,40.64518283941202,1.4131549867050175,0.6384530390605536,A,571.0483000002569,Correct,sub_004_day_13_data.csv,1,300,143.0,Training at home,,,,,,,,,,,,,
4,15,3585,A,45.86128075804342,56.187322723173715,2.293064037902171,0.8825884014600069,A,469.255099997099,Correct,sub_004_day_13_data.csv,1,300,143.0,Training at home,,,,,,,,,,,,,
4,15,3586,B,74.54138400779381,44.8087150347243,3.7270692003896904,0.7038536498494419,B,557.1675000028335,Correct,sub_004_day_13_data.csv,1,300,143.0,Training at home,,,,,,,,,,,,,
4,15,3587,A,15.984164219249497,35.856701581760476,0.7992082109624747,0.563235751356101,A,538.261199995759,Correct,sub_004_day_13_data.csv,1,300,143.0,Training at home,,,,,,,,,,,,,
4,15,3588,A,57.64318816284301,68.9832331955872,2.8821594081421504,1.0835860931406418,B,847.0591000004788,Incorrect,sub_004_day_13_data.csv,0,300,143.0,Training at home,,,,,,,,,,,,,
4,15,3589,B,61.20416676922232,42.55727457802395,3.060208338461116,0.6684881058556186,B,1058.3274999953574,Correct,sub_004_day_13_data.csv,1,300,143.0,Training at home,,,,,,,,,,,,,
4,15,3590,B,80.38676840156198,53.30033616273333,4.019338420078099,0.8372397226135472,B,36088.81259999907,Correct,sub_004_day_13_data.csv,1,300,143.0,Training at home,,,,,,,,,,,,,
4,15,3591,A,20.51984172727835,34.438619361123216,1.0259920863639176,0.5409605679233995,A,604.0164000005461,Correct,sub_004_day_13_data.csv,1,300,143.0,Training at home,,,,,,,,,,,,,
4,15,3592,B,54.160821224706986,36.20060003653281,2.7080410612353494,0.5686376956515694,B,865.1867000007769,Correct,sub_004_day_13_data.csv,1,300,143.0,Training at home,,,,,,,,,,,,,
4,15,3593,B,38.76910044344847,21.47982180878666,1.9384550221724235,0.3374042519745099,B,759.8853000017698,Correct,sub_004_day_13_data.csv,1,300,143.0,Training at home,,,,,,,,,,,,,
4,15,3594,A,22.23992002501841,53.262333396556656,1.1119960012509205,0.8366427765583633,A,572.7316999982577,Correct,sub_004_day_13_data.csv,1,300,143.0,Training at home,,,,,,,,,,,,,
4,15,3595,B,54.81295717989485,23.407653791972404,2.7406478589947425,0.3676865659531688,B,1013.1667999958154,Correct,sub_004_day_13_data.csv,1,300,143.0,Training at home,,,,,,,,,,,,,
4,15,3596,A,57.47465305777911,68.75473796904483,2.8737326528889553,1.0799968985152122,A,2344.223799998872,Correct,sub_004_day_13_data.csv,1,300,143.0,Training at home,,,,,,,,,,,,,
4,15,3597,B,33.16404005629398,14.548321907532276,1.6582020028146989,0.2285245061338142,B,654.9309999973048,Correct,sub_004_day_13_data.csv,1,300,143.0,Training at home,,,,,,,,,,,,,
4,15,3598,A,50.987113856221576,66.42768428104817,2.549355692811079,1.0434436246616157,A,531.614499996067,Correct,sub_004_day_13_data.csv,1,300,143.0,Training at home,,,,,,,,,,,,,
4,15,3599,A,49.55966683291861,64.38195074020459,2.4779833416459303,1.0113093173460332,A,694.459199999983,Correct,sub_004_day_13_data.csv,1,300,143.0,Training at home,,,,,,,,,,,,,
