subject,day,trial,cat,x,y,xt,yt,resp,rt,fb,f_name,acc,n_trials,block,session_type,ns_left_digit,ns_right_digit,ns_left_size,ns_right_size,ns_congruent,ns_cue,ns_correct_side,ns_resp,ns_rt,ns_fb,acc_stroop,acc_stroop_mean,resp_key
4,7,1200,A,36.003170191835196,46.3606983634237,1.8001585095917596,0.7282321469691212,A,849.0790000068955,Correct,sub_004_day_06_data.csv,1,300,48.0,Training at home,,,,,,,,,,,,,
4,7,1201,A,50.00873650204297,71.36447292346504,2.5004368251021485,1.1209905193183274,A,1159.3137999880128,Correct,sub_004_day_06_data.csv,1,300,48.0,Training at home,,,,,,,,,,,,,
4,7,1202,B,64.58465483295448,46.37477501108153,3.229232741647724,0.7284532624334664,B,2033.827699982794,Correct,sub_004_day_06_data.csv,1,300,48.0,Training at home,,,,,,,,,,,,,
4,7,1203,A,48.207371832273786,67.53723661522406,2.410368591613689,1.0608724319707177,A,884.2428000061773,Correct,sub_004_day_06_data.csv,1,300,48.0,Training at home,,,,,,,,,,,,,
4,7,1204,B,67.80190645425155,44.02838769925381,3.390095322712577,0.6915962967268949,B,673.8295000104699,Correct,sub_004_day_06_data.csv,1,300,48.0,Training at home,,,,,,,,,,,,,
4,7,1205,B,53.10241445870933,36.837098022134505,2.6551207229354667,0.5786357826295243,A,567.1152999857441,Incorrect,sub_004_day_06_data.csv,0,300,48.0,Training at home,,,,,,,,,,,,,
4,7,1206,B,51.94837884776865,31.505389260991393,2.5974189423884324,0.4948854972540865,B,1319.2943999893032,Correct,sub_004_day_06_data.csv,1,300,48.0,Training at home,,,,,,,,,,,,,
4,7,1207,A,50.01340251451131,64.07162417154373,2.5006701257255655,1.00643471900444,A,1123.4368000004906,Correct,sub_004_day_06_data.csv,1,300,48.0,Training at home,,,,,,,,,,,,,
4,7,1208,B,43.975944542832075,20.163094924128096,2.1987972271416036,0.3167211544363724,B,648.5163999896031,Correct,sub_004_day_06_data.csv,1,300,48.0,Training at home,,,,,,,,,,,,,
4,7,1209,A,60.39354315636653,72.90290845245967,3.019677157818327,1.1451562080978828,B,1745.2176000224426,Incorrect,sub_004_day_06_data.csv,0,300,48.0,Training at home,,,,,,,,,,,,,
4,7,1210,B,81.15062544069622,57.19279499038944,4.057531272034811,0.8983823229003728,B,815.009399986593,Correct,sub_004_day_06_data.csv,1,300,48.0,Training at home,,,,,,,,,,,,,
4,7,1211,B,54.79991036512307,44.468221118557906,2.7399955182561535,0.6985051839213401,B,540.1844999869354,Correct,sub_004_day_06_data.csv,1,300,48.0,Training at home,,,,,,,,,,,,,
4,7,1212,A,43.61779207642224,68.37901737782546,2.180889603821112,1.0740950932693265,A,577.9914000013378,Correct,sub_004_day_06_data.csv,1,300,48.0,Training at home,,,,,,,,,,,,,
4,7,1213,B,83.74140158317522,57.52169484634005,4.187070079158761,0.9035486697564789,B,767.5567000114825,Correct,sub_004_day_06_data.csv,1,300,48.0,Training at home,,,,,,,,,,,,,
4,7,1214,B,34.984781791088025,24.30515391224958,1.7492390895544014,0.3817844648754624,B,836.8124999979045,Correct,sub_004_day_06_data.csv,1,300,48.0,Training at home,,,,,,,,,,,,,
4,7,1215,A,45.79544976364195,76.30696244630728,2.2897724881820976,1.198626963195356,A,778.1688999966718,Correct,sub_004_day_06_data.csv,1,300,48.0,Training at home,,,,,,,,,,,,,
4,7,1216,A,36.59741762854328,66.50254858461136,1.829870881427164,1.0446195903920668,A,862.1485999901779,Correct,sub_004_day_06_data.csv,1,300,48.0,Training at home,,,,,,,,,,,,,
4,7,1217,A,20.517728347455915,35.34842050973513,1.0258864173727955,0.5552516909469334,B,498.88200001441874,Incorrect,sub_004_day_06_data.csv,0,300,48.0,Training at home,,,,,,,,,,,,,
4,7,1218,B,52.01727739197711,38.40366903397235,2.6008638695988555,0.6032434225401069,B,647.8860999923199,Correct,sub_004_day_06_data.csv,1,300,48.0,Training at home,,,,,,,,,,,,,
4,7,1219,A,27.508152283827812,59.576784737671545,1.375407614191391,0.9358299462818472,A,924.2511999909766,Correct,sub_004_day_06_data.csv,1,300,48.0,Training at home,,,,,,,,,,,,,
4,7,1220,A,68.98057458743389,83.30686049955324,3.449028729371695,1.3085811046951308,A,1085.6125999998767,Correct,sub_004_day_06_data.csv,1,300,48.0,Training at home,,,,,,,,,,,,,
4,7,1221,A,57.83782808055827,73.8495612490078,2.8918914040279136,1.160026195453562,A,623.8177999912295,Correct,sub_004_day_06_data.csv,1,300,48.0,Training at home,,,,,,,,,,,,,
4,7,1222,B,46.18344154764018,24.4164489306548,2.309172077382009,0.3835326829364773,B,547.1464000002015,Correct,sub_004_day_06_data.csv,1,300,48.0,Training at home,,,,,,,,,,,,,
4,7,1223,A,62.86421962429388,86.90315289056436,3.1432109812146938,1.3650715334739376,A,662.0156000135466,Correct,sub_004_day_06_data.csv,1,300,48.0,Training at home,,,,,,,,,,,,,
4,7,1224,A,14.88058500807223,38.38646024914858,0.7440292504036116,0.602973107580209,A,801.0375000012573,Correct,sub_004_day_06_data.csv,1,300,48.0,Training at home,,,,,,,,,,,,,
4,7,1225,B,82.52402688030695,53.74536415581477,4.126201344015348,0.8442302059820793,B,807.7453000005335,Correct,sub_004_day_06_data.csv,1,300,49.0,Training at home,,,,,,,,,,,,,
4,7,1226,B,65.97505391269824,42.753932453716054,3.298752695634912,0.671577200543343,B,504.9136999878101,Correct,sub_004_day_06_data.csv,1,300,49.0,Training at home,,,,,,,,,,,,,
4,7,1227,B,75.01466075969454,53.73205582542115,3.750733037984727,0.8440211592170989,B,482.1389999997336,Correct,sub_004_day_06_data.csv,1,300,49.0,Training at home,,,,,,,,,,,,,
4,7,1228,A,26.115986444855267,40.41266281003277,1.3057993222427633,0.6348006229800021,A,637.5212999992073,Correct,sub_004_day_06_data.csv,1,300,49.0,Training at home,,,,,,,,,,,,,
4,7,1229,B,86.3770150720215,64.7453577651511,4.318850753601075,1.0170177015452078,B,624.3358999781776,Correct,sub_004_day_06_data.csv,1,300,49.0,Training at home,,,,,,,,,,,,,
4,7,1230,A,44.29329478993507,51.42556753162437,2.214664739496753,0.8077909258201845,B,1211.1905999772716,Incorrect,sub_004_day_06_data.csv,0,300,49.0,Training at home,,,,,,,,,,,,,
4,7,1231,A,25.843930776840587,50.43723350397221,1.2921965388420291,0.7922662112173604,A,626.5540999884252,Correct,sub_004_day_06_data.csv,1,300,49.0,Training at home,,,,,,,,,,,,,
4,7,1232,A,49.846302133051786,77.5189058237587,2.492315106652589,1.2176641252511968,A,836.0161999880802,Correct,sub_004_day_06_data.csv,1,300,49.0,Training at home,,,,,,,,,,,,,
4,7,1233,B,79.68667862212322,67.56532913775575,3.9843339311061614,1.0613137082827495,A,932.2746000252664,Incorrect,sub_004_day_06_data.csv,0,300,49.0,Training at home,,,,,,,,,,,,,
4,7,1234,B,44.626343969345704,24.6452689198156,2.231317198467285,0.3871269789211877,B,593.9828999980818,Correct,sub_004_day_06_data.csv,1,300,49.0,Training at home,,,,,,,,,,,,,
4,7,1235,A,13.378319724638851,34.260960916104835,0.6689159862319427,0.5381699155948099,A,584.4775000005029,Correct,sub_004_day_06_data.csv,1,300,49.0,Training at home,,,,,,,,,,,,,
4,7,1236,A,23.43219727684511,52.05341315704003,1.1716098638422554,0.8176531018421562,A,613.4661000105552,Correct,sub_004_day_06_data.csv,1,300,49.0,Training at home,,,,,,,,,,,,,
4,7,1237,B,50.67694038094454,41.86896070298761,2.533847019047226,0.657676096789728,B,737.9545999865513,Correct,sub_004_day_06_data.csv,1,300,49.0,Training at home,,,,,,,,,,,,,
4,7,1238,A,41.148425990053255,68.81191902756981,2.057421299502663,1.080895096482145,A,492.28420000872575,Correct,sub_004_day_06_data.csv,1,300,49.0,Training at home,,,,,,,,,,,,,
4,7,1239,B,49.64890195392252,34.02348145322211,2.482445097696126,0.5344395969149558,B,659.1502999945078,Correct,sub_004_day_06_data.csv,1,300,49.0,Training at home,,,,,,,,,,,,,
4,7,1240,A,28.690722143662015,61.097632834314936,1.4345361071831009,0.9597193723200518,A,546.7553999915253,Correct,sub_004_day_06_data.csv,1,300,49.0,Training at home,,,,,,,,,,,,,
4,7,1241,A,23.16479143118267,41.642380462032406,1.1582395715591334,0.6541169826875607,A,516.0174000193365,Correct,sub_004_day_06_data.csv,1,300,49.0,Training at home,,,,,,,,,,,,,
4,7,1242,B,69.86322696009094,43.587485262965885,3.493161348004547,0.684670617452935,B,587.2089999902528,Correct,sub_004_day_06_data.csv,1,300,49.0,Training at home,,,,,,,,,,,,,
4,7,1243,A,23.401212787415943,41.53799572517907,1.170060639370797,0.6524773110753341,A,540.8045999938622,Correct,sub_004_day_06_data.csv,1,300,49.0,Training at home,,,,,,,,,,,,,
4,7,1244,A,53.23309614960047,82.50615283869769,2.6616548074800233,1.2960036181700465,A,768.5090000159107,Correct,sub_004_day_06_data.csv,1,300,49.0,Training at home,,,,,,,,,,,,,
4,7,1245,B,32.60615756410759,10.08602511582217,1.6303078782053797,0.1584309120389453,B,969.3394000059924,Correct,sub_004_day_06_data.csv,1,300,49.0,Training at home,,,,,,,,,,,,,
4,7,1246,B,70.21874151903774,38.724381921464264,3.5109370759518868,0.6082811687963876,B,543.509900016943,Correct,sub_004_day_06_data.csv,1,300,49.0,Training at home,,,,,,,,,,,,,
4,7,1247,A,58.70108392093928,83.76083377367792,2.935054196046964,1.315712100209712,A,679.3728999909945,Correct,sub_004_day_06_data.csv,1,300,49.0,Training at home,,,,,,,,,,,,,
4,7,1248,A,24.635847349294217,43.53675712866702,1.2317923674647109,0.6838737817827167,A,922.8923000046052,Correct,sub_004_day_06_data.csv,1,300,49.0,Training at home,,,,,,,,,,,,,
4,7,1249,B,64.42020098278805,52.973317264834165,3.2210100491394025,0.8321029217774218,B,1041.0249999840744,Correct,sub_004_day_06_data.csv,1,300,49.0,Training at home,,,,,,,,,,,,,
4,7,1250,B,73.65835658271295,45.79661152633322,3.682917829135647,0.7193714916521705,B,715.9760000067763,Correct,sub_004_day_06_data.csv,1,300,50.0,Training at home,,,,,,,,,,,,,
4,7,1251,A,42.78701825868815,69.22590896161006,2.1393509129344075,1.08739803515935,A,649.5444000174757,Correct,sub_004_day_06_data.csv,1,300,50.0,Training at home,,,,,,,,,,,,,
4,7,1252,A,61.53908432486614,80.86122761682013,3.076954216243307,1.270165193206271,A,1161.1929000064265,Correct,sub_004_day_06_data.csv,1,300,50.0,Training at home,,,,,,,,,,,,,
4,7,1253,A,43.68425412771264,50.94011464389342,2.1842127063856323,0.800165449691387,B,703.2195999927353,Incorrect,sub_004_day_06_data.csv,0,300,50.0,Training at home,,,,,,,,,,,,,
4,7,1254,B,81.20994224810667,53.57053215697896,4.060497112405334,0.8414839513663045,B,941.8377999973018,Correct,sub_004_day_06_data.csv,1,300,50.0,Training at home,,,,,,,,,,,,,
4,7,1255,A,21.72503669882019,50.33758909948105,1.0862518349410095,0.7907010005717566,A,602.2232999966945,Correct,sub_004_day_06_data.csv,1,300,50.0,Training at home,,,,,,,,,,,,,
4,7,1256,A,28.8825294591714,59.3721796779842,1.44412647295857,0.9326160175198418,A,746.9091999810189,Correct,sub_004_day_06_data.csv,1,300,50.0,Training at home,,,,,,,,,,,,,
4,7,1257,B,72.40000107398772,54.23014398298102,3.620000053699386,0.8518451097002494,B,612.9672999959439,Correct,sub_004_day_06_data.csv,1,300,50.0,Training at home,,,,,,,,,,,,,
4,7,1258,A,51.836667455726165,77.06318321681714,2.591833372786308,1.2105056512809846,A,550.4236999840941,Correct,sub_004_day_06_data.csv,1,300,50.0,Training at home,,,,,,,,,,,,,
4,7,1259,B,48.37855242466886,39.483954710857056,2.418927621233443,0.6202125102715031,B,579.1861999896355,Correct,sub_004_day_06_data.csv,1,300,50.0,Training at home,,,,,,,,,,,,,
4,7,1260,B,68.42462497686552,57.613756415417015,3.421231248843276,0.9049947695019296,B,581.7015999928117,Correct,sub_004_day_06_data.csv,1,300,50.0,Training at home,,,,,,,,,,,,,
4,7,1261,A,35.01539640559117,55.01906199676315,1.7507698202795583,0.8642374048821626,A,640.0396000244655,Correct,sub_004_day_06_data.csv,1,300,50.0,Training at home,,,,,,,,,,,,,
4,7,1262,B,65.75899610868777,41.02786855226628,3.2879498054343883,0.6444642521812373,B,625.4646999877878,Correct,sub_004_day_06_data.csv,1,300,50.0,Training at home,,,,,,,,,,,,,
4,7,1263,B,74.75944435767286,64.03273592386293,3.737972217883643,1.005823863838315,B,559.419600002002,Correct,sub_004_day_06_data.csv,1,300,50.0,Training at home,,,,,,,,,,,,,
4,7,1264,B,36.16243623030921,12.396716338940642,1.8081218115154605,0.1947271648952624,B,1090.7833999954164,Correct,sub_004_day_06_data.csv,1,300,50.0,Training at home,,,,,,,,,,,,,
4,7,1265,B,86.01892372368296,64.81573371117211,4.300946186184148,1.0181231643202533,B,772.1164000104181,Correct,sub_004_day_06_data.csv,1,300,50.0,Training at home,,,,,,,,,,,,,
4,7,1266,B,76.46275570816414,65.56969954587939,3.823137785408207,1.0299664319571231,B,737.3563000001013,Correct,sub_004_day_06_data.csv,1,300,50.0,Training at home,,,,,,,,,,,,,
4,7,1267,B,49.55568169603682,42.283183069005936,2.4777840848018413,0.664182686499907,B,646.9606999889947,Correct,sub_004_day_06_data.csv,1,300,50.0,Training at home,,,,,,,,,,,,,
4,7,1268,A,41.32120992227094,51.310263295012966,2.066060496113547,0.8059797311068537,B,765.894100011792,Incorrect,sub_004_day_06_data.csv,0,300,50.0,Training at home,,,,,,,,,,,,,
4,7,1269,A,47.89197804434597,60.50891195524263,2.3945989022172984,0.9504717663765092,A,538.2718999753706,Correct,sub_004_day_06_data.csv,1,300,50.0,Training at home,,,,,,,,,,,,,
4,7,1270,B,31.244490468963093,11.28249701414709,1.5622245234481544,0.1772250486689663,B,671.3401000015438,Correct,sub_004_day_06_data.csv,1,300,50.0,Training at home,,,,,,,,,,,,,
4,7,1271,B,49.471793263992296,29.90573930215433,2.473589663199615,0.4697582544590979,B,565.3850999951828,Correct,sub_004_day_06_data.csv,1,300,50.0,Training at home,,,,,,,,,,,,,
4,7,1272,B,84.41842466620986,54.641455406893954,4.220921233310492,0.8583059744387617,B,775.2927000110503,Correct,sub_004_day_06_data.csv,1,300,50.0,Training at home,,,,,,,,,,,,,
4,7,1273,B,51.68599024559644,33.5134788239195,2.584299512279822,0.526428494347313,B,630.0025999953505,Correct,sub_004_day_06_data.csv,1,300,50.0,Training at home,,,,,,,,,,,,,
4,7,1274,A,42.846413264233206,66.03900880548623,2.1423206632116605,1.037338324568336,B,805.3561999986414,Incorrect,sub_004_day_06_data.csv,0,300,50.0,Training at home,,,,,,,,,,,,,
4,7,1275,A,34.800048501260726,54.80753188950751,1.7400024250630364,0.8609146977273255,A,498.8896000140812,Correct,sub_004_day_06_data.csv,1,300,51.0,Training at home,,,,,,,,,,,,,
4,7,1276,A,13.313714682106736,35.293488845346566,0.6656857341053367,0.5543888263804704,A,677.990399999544,Correct,sub_004_day_06_data.csv,1,300,51.0,Training at home,,,,,,,,,,,,,
4,7,1277,A,60.33532736528382,84.12167420816508,3.016766368264191,1.3213801685002269,B,640.2986999892164,Incorrect,sub_004_day_06_data.csv,0,300,51.0,Training at home,,,,,,,,,,,,,
4,7,1278,A,45.57510653575889,59.6270328095434,2.278755326787945,0.9366192411490956,B,2642.547499999637,Incorrect,sub_004_day_06_data.csv,0,300,51.0,Training at home,,,,,,,,,,,,,
4,7,1279,A,35.435853607837785,44.03676463821404,1.771792680391889,0.69172788137638,B,984.0855000074952,Incorrect,sub_004_day_06_data.csv,0,300,51.0,Training at home,,,,,,,,,,,,,
4,7,1280,B,80.81979315298163,62.038672119219015,4.040989657649082,0.974501182841022,B,652.6701000111643,Correct,sub_004_day_06_data.csv,1,300,51.0,Training at home,,,,,,,,,,,,,
4,7,1281,B,59.5017368559517,41.689139099985525,2.9750868427975847,0.6548514656549876,B,553.2374000176787,Correct,sub_004_day_06_data.csv,1,300,51.0,Training at home,,,,,,,,,,,,,
4,7,1282,A,35.75274217922927,53.234505131123555,1.7876371089614636,0.8362056511871298,A,1066.176299995277,Correct,sub_004_day_06_data.csv,1,300,51.0,Training at home,,,,,,,,,,,,,
4,7,1283,A,26.56668144011369,37.03899612799401,1.3283340720056844,0.5818071906602338,A,579.4974000018556,Correct,sub_004_day_06_data.csv,1,300,51.0,Training at home,,,,,,,,,,,,,
4,7,1284,B,49.2489522680534,36.631002038116,2.46244761340267,0.5753984344828899,A,683.7716000154614,Incorrect,sub_004_day_06_data.csv,0,300,51.0,Training at home,,,,,,,,,,,,,
4,7,1285,B,38.02120491153061,12.293212285472684,1.9010602455765304,0.1931013270253039,B,881.6881999955513,Correct,sub_004_day_06_data.csv,1,300,51.0,Training at home,,,,,,,,,,,,,
4,7,1286,A,58.19121502137472,77.62132961049905,2.909560751068736,1.2192729943310785,A,1006.9887000136076,Correct,sub_004_day_06_data.csv,1,300,51.0,Training at home,,,,,,,,,,,,,
4,7,1287,B,58.259590393643144,38.76942619689372,2.9129795196821573,0.6089887226202648,B,798.1962999911048,Correct,sub_004_day_06_data.csv,1,300,51.0,Training at home,,,,,,,,,,,,,
4,7,1288,B,86.28582025467108,61.55708979057586,4.314291012733554,0.966936505312202,B,599.490299995523,Correct,sub_004_day_06_data.csv,1,300,51.0,Training at home,,,,,,,,,,,,,
4,7,1289,B,88.39462474118233,62.613020289298674,4.419731237059116,0.9835230227996468,B,448.0107999988832,Correct,sub_004_day_06_data.csv,1,300,51.0,Training at home,,,,,,,,,,,,,
4,7,1290,A,26.949811185112313,36.76976370553601,1.3474905592556157,0.5775780976577227,A,625.9488000068814,Correct,sub_004_day_06_data.csv,1,300,51.0,Training at home,,,,,,,,,,,,,
4,7,1291,B,64.89738743788872,43.63151344315037,3.244869371894436,0.6853622104900274,B,612.9976999945939,Correct,sub_004_day_06_data.csv,1,300,51.0,Training at home,,,,,,,,,,,,,
4,7,1292,B,82.67436755335153,59.94721580437846,4.133718377667576,0.9416486638709866,B,686.1659999995027,Correct,sub_004_day_06_data.csv,1,300,51.0,Training at home,,,,,,,,,,,,,
4,7,1293,B,49.71589222862587,19.51565442108346,2.4857946114312934,0.3065511827963648,B,725.9885999956168,Correct,sub_004_day_06_data.csv,1,300,51.0,Training at home,,,,,,,,,,,,,
4,7,1294,B,42.316057924053055,30.31466782007778,2.1158028962026525,0.4761816885978562,B,690.6743999861646,Correct,sub_004_day_06_data.csv,1,300,51.0,Training at home,,,,,,,,,,,,,
4,7,1295,B,54.09102055257775,40.529255216200625,2.7045510276288875,0.6366320522134085,B,480.5415000009816,Correct,sub_004_day_06_data.csv,1,300,51.0,Training at home,,,,,,,,,,,,,
4,7,1296,A,27.653012273034875,51.89021697804582,1.3826506136517438,0.8150896222570455,A,518.2239999994636,Correct,sub_004_day_06_data.csv,1,300,51.0,Training at home,,,,,,,,,,,,,
4,7,1297,A,50.67417915455489,59.51042516137935,2.533708957727745,0.9347875724949728,B,1566.4460000116378,Incorrect,sub_004_day_06_data.csv,0,300,51.0,Training at home,,,,,,,,,,,,,
4,7,1298,B,62.67105731086016,30.60163836596889,3.133552865543008,0.4806894113916971,B,593.342100008158,Correct,sub_004_day_06_data.csv,1,300,51.0,Training at home,,,,,,,,,,,,,
4,7,1299,A,54.35923883640615,83.26850693080455,2.7179619418203074,1.3079786482460316,A,919.4294000044464,Correct,sub_004_day_06_data.csv,1,300,51.0,Training at home,,,,,,,,,,,,,
4,7,1300,B,32.387214043682434,16.809695986513514,1.6193607021841216,0.2640460871015434,B,1012.4070000019856,Correct,sub_004_day_06_data.csv,1,300,52.0,Training at home,,,,,,,,,,,,,
4,7,1301,B,65.39082155467675,34.670136560221984,3.2695410777338374,0.5445972315827414,B,644.3168999976479,Correct,sub_004_day_06_data.csv,1,300,52.0,Training at home,,,,,,,,,,,,,
4,7,1302,B,80.1236822748944,67.2621648083823,4.0061841137447205,1.0565516141327986,A,808.6454000149388,Incorrect,sub_004_day_06_data.csv,0,300,52.0,Training at home,,,,,,,,,,,,,
4,7,1303,A,55.23639644463973,77.04000371018901,2.7618198222319865,1.2101415484423008,A,591.7237999965437,Correct,sub_004_day_06_data.csv,1,300,52.0,Training at home,,,,,,,,,,,,,
4,7,1304,A,30.817478559018483,42.68452840000513,1.540873927950924,0.6704870042170049,B,677.1215999906417,Incorrect,sub_004_day_06_data.csv,0,300,52.0,Training at home,,,,,,,,,,,,,
4,7,1305,A,46.068220703963256,66.1600529019133,2.3034110351981627,1.0392396807888145,A,1236.038799979724,Correct,sub_004_day_06_data.csv,1,300,52.0,Training at home,,,,,,,,,,,,,
4,7,1306,B,51.66530413116932,30.0326758977494,2.583265206558466,0.4717521698400638,B,1242.816500016488,Correct,sub_004_day_06_data.csv,1,300,52.0,Training at home,,,,,,,,,,,,,
4,7,1307,B,75.15976638058102,64.49414886258403,3.757988319029051,1.0130717213311025,B,868.0571999866515,Correct,sub_004_day_06_data.csv,1,300,52.0,Training at home,,,,,,,,,,,,,
4,7,1308,B,62.91004853516041,49.78093781915211,3.1455024267580205,0.7819571427072928,B,514.3905000004452,Correct,sub_004_day_06_data.csv,1,300,52.0,Training at home,,,,,,,,,,,,,
4,7,1309,B,53.93582085612674,32.40464072648748,2.696791042806337,0.5090109062427484,B,773.1959999946412,Correct,sub_004_day_06_data.csv,1,300,52.0,Training at home,,,,,,,,,,,,,
4,7,1310,A,59.24410635507664,72.54033063613726,2.9622053177538317,1.1394608490773168,B,1799.081600009231,Incorrect,sub_004_day_06_data.csv,0,300,52.0,Training at home,,,,,,,,,,,,,
4,7,1311,B,80.44164926148395,57.82607855167814,4.022082463074197,0.9083299178192916,B,2333.880099991802,Correct,sub_004_day_06_data.csv,1,300,52.0,Training at home,,,,,,,,,,,,,
4,7,1312,A,59.002353885348825,81.52358834877018,2.9501176942674414,1.2805695312538743,A,1953.956899989862,Correct,sub_004_day_06_data.csv,1,300,52.0,Training at home,,,,,,,,,,,,,
4,7,1313,A,47.959691664455384,60.9639120597696,2.3979845832227693,0.9576188913053318,A,794.018300017342,Correct,sub_004_day_06_data.csv,1,300,52.0,Training at home,,,,,,,,,,,,,
4,7,1314,A,16.61356044391513,46.59659301817061,0.8306780221957566,0.7319375715409913,A,905.577400000766,Correct,sub_004_day_06_data.csv,1,300,52.0,Training at home,,,,,,,,,,,,,
4,7,1315,B,42.297150918669914,23.612265755275203,2.1148575459334955,0.3709006031569121,B,1601.4298000081908,Correct,sub_004_day_06_data.csv,1,300,52.0,Training at home,,,,,,,,,,,,,
4,7,1316,B,48.05852733562866,28.821049681160936,2.402926366781433,0.4527199897354083,B,1608.073500014143,Correct,sub_004_day_06_data.csv,1,300,52.0,Training at home,,,,,,,,,,,,,
4,7,1317,B,79.45713229401892,57.0591082007488,3.9728566147009463,0.8962823757192878,B,541.8813999858685,Correct,sub_004_day_06_data.csv,1,300,52.0,Training at home,,,,,,,,,,,,,
4,7,1318,B,53.41462011549549,41.58416537276984,2.6707310057747744,0.6532025422037839,B,932.6093000127004,Correct,sub_004_day_06_data.csv,1,300,52.0,Training at home,,,,,,,,,,,,,
4,7,1319,A,27.475393666312076,54.7859055209196,1.373769683315604,0.8605749915239276,A,819.9832000245806,Correct,sub_004_day_06_data.csv,1,300,52.0,Training at home,,,,,,,,,,,,,
4,7,1320,B,87.35611677437267,67.67799015389944,4.367805838718633,1.063083383386064,B,604.4246999954339,Correct,sub_004_day_06_data.csv,1,300,52.0,Training at home,,,,,,,,,,,,,
4,7,1321,B,75.82198742388941,57.45530777274355,3.7910993711944703,0.9025058640429584,B,453.0154000094626,Correct,sub_004_day_06_data.csv,1,300,52.0,Training at home,,,,,,,,,,,,,
4,7,1322,B,49.04902981466276,29.409159901691655,2.452451490733138,0.4619580034770101,B,792.8858999803197,Correct,sub_004_day_06_data.csv,1,300,52.0,Training at home,,,,,,,,,,,,,
4,7,1323,B,64.4926686578589,33.441662510690776,3.224633432892945,0.5253004063370768,B,409.94160002446733,Correct,sub_004_day_06_data.csv,1,300,52.0,Training at home,,,,,,,,,,,,,
4,7,1324,B,54.67453938317273,22.77450895988003,2.7337269691586363,0.35774115018737,B,354.4895999948494,Correct,sub_004_day_06_data.csv,1,300,52.0,Training at home,,,,,,,,,,,,,
4,7,1325,B,42.22941730061572,33.67685763493491,2.1114708650307863,0.5289948427095043,B,395.1908999879379,Correct,sub_004_day_06_data.csv,1,300,53.0,Training at home,,,,,,,,,,,,,
4,7,1326,A,43.93726034240549,51.536406252923705,2.1968630171202745,0.8095319763830209,B,403.11579999979585,Incorrect,sub_004_day_06_data.csv,0,300,53.0,Training at home,,,,,,,,,,,,,
4,7,1327,A,36.24399062914655,53.38348437635301,1.8121995314573272,0.8385458116988806,A,730.1464000192937,Correct,sub_004_day_06_data.csv,1,300,53.0,Training at home,,,,,,,,,,,,,
4,7,1328,A,52.6672259005239,72.65457424834148,2.6333612950261953,1.1412553835414188,A,1012.8456999955232,Correct,sub_004_day_06_data.csv,1,300,53.0,Training at home,,,,,,,,,,,,,
4,7,1329,B,66.67009166508831,54.70970060414134,3.3335045832544155,0.8593779674903376,A,747.8719999780878,Incorrect,sub_004_day_06_data.csv,0,300,53.0,Training at home,,,,,,,,,,,,,
4,7,1330,B,51.243659344928886,28.86679294053937,2.5621829672464447,0.4534385231734809,B,5603.399899991928,Correct,sub_004_day_06_data.csv,1,300,53.0,Training at home,,,,,,,,,,,,,
4,7,1331,B,32.43648194866116,13.739099770810611,1.6218240974330582,0.2158132745345791,B,448.37250001728535,Correct,sub_004_day_06_data.csv,1,300,53.0,Training at home,,,,,,,,,,,,,
4,7,1332,B,68.10858395933873,50.63893319009042,3.4054291979669364,0.795434502478062,B,1288.0617000046186,Correct,sub_004_day_06_data.csv,1,300,53.0,Training at home,,,,,,,,,,,,,
4,7,1333,A,11.321617098938663,31.459614743219458,0.5660808549469332,0.4941664728103169,A,20112.755200010724,Correct,sub_004_day_06_data.csv,1,300,53.0,Training at home,,,,,,,,,,,,,
4,7,1334,A,17.952096238529037,35.957074637468445,0.8976048119264519,0.5648124076282538,A,6093.507999990834,Correct,sub_004_day_06_data.csv,1,300,53.0,Training at home,,,,,,,,,,,,,
4,7,1335,A,58.415839782409115,73.39546862092824,2.9207919891204557,1.1528933251314415,B,1661.010100011481,Incorrect,sub_004_day_06_data.csv,0,300,53.0,Training at home,,,,,,,,,,,,,
4,7,1336,A,63.574969660744955,78.70017047101383,3.1787484830372477,1.236219386940007,B,812.9568000149447,Incorrect,sub_004_day_06_data.csv,0,300,53.0,Training at home,,,,,,,,,,,,,
4,7,1337,B,66.34007625066393,40.004453477744626,3.317003812533196,0.6283884857827858,B,524.1229999810457,Correct,sub_004_day_06_data.csv,1,300,53.0,Training at home,,,,,,,,,,,,,
4,7,1338,A,48.71780505675238,61.70673201037841,2.435890252837619,0.9692870798041948,B,962.9431999928784,Incorrect,sub_004_day_06_data.csv,0,300,53.0,Training at home,,,,,,,,,,,,,
4,7,1339,A,44.08908685405724,53.84364084310401,2.2044543427028622,0.8457739325761146,A,1623.7290000135545,Correct,sub_004_day_06_data.csv,1,300,53.0,Training at home,,,,,,,,,,,,,
4,7,1340,A,60.52366697866945,73.06373653614065,3.0261833489334724,1.1476824897287985,A,716.1213000072166,Correct,sub_004_day_06_data.csv,1,300,53.0,Training at home,,,,,,,,,,,,,
4,7,1341,A,63.0215202677316,72.67650706875148,3.1510760133865796,1.1415999034787816,A,636.2756000016816,Correct,sub_004_day_06_data.csv,1,300,53.0,Training at home,,,,,,,,,,,,,
4,7,1342,A,24.174563363439734,51.17092653767402,1.208728168171987,0.8037910344406984,A,512.360599997919,Correct,sub_004_day_06_data.csv,1,300,53.0,Training at home,,,,,,,,,,,,,
4,7,1343,A,58.02186830200831,83.38989886401208,2.9010934151004153,1.309885468273881,A,517.0672999811359,Correct,sub_004_day_06_data.csv,1,300,53.0,Training at home,,,,,,,,,,,,,
4,7,1344,B,53.55471588567117,25.841221625335685,2.6777357942835582,0.4059129600897014,B,498.7306999973953,Correct,sub_004_day_06_data.csv,1,300,53.0,Training at home,,,,,,,,,,,,,
4,7,1345,A,63.21611358742822,73.35745117068707,3.160805679371411,1.1522961484195124,A,658.0065000161994,Correct,sub_004_day_06_data.csv,1,300,53.0,Training at home,,,,,,,,,,,,,
4,7,1346,A,40.66261967083938,66.67448523919028,2.033130983541969,1.0473203650466063,A,428.159200004302,Correct,sub_004_day_06_data.csv,1,300,53.0,Training at home,,,,,,,,,,,,,
4,7,1347,B,64.76852225715882,43.70639828590477,3.238426112857941,0.6865384988493397,B,648.2105999893975,Correct,sub_004_day_06_data.csv,1,300,53.0,Training at home,,,,,,,,,,,,,
4,7,1348,B,83.25365516183503,64.04773748804692,4.162682758091751,1.006059507857479,A,732.0357999997213,Incorrect,sub_004_day_06_data.csv,0,300,53.0,Training at home,,,,,,,,,,,,,
4,7,1349,A,41.89683947664799,56.93949098335878,2.0948419738323993,0.894403432862311,A,551.7496000102255,Correct,sub_004_day_06_data.csv,1,300,53.0,Training at home,,,,,,,,,,,,,
4,7,1350,A,60.22491548428988,78.79271262361044,3.0112457742144945,1.2376730356737315,A,604.7801999957301,Correct,sub_004_day_06_data.csv,1,300,54.0,Training at home,,,,,,,,,,,,,
4,7,1351,B,66.19936343334685,38.41417663543781,3.309968171667342,0.6034084755579605,B,564.9365000135731,Correct,sub_004_day_06_data.csv,1,300,54.0,Training at home,,,,,,,,,,,,,
4,7,1352,B,73.4057688851509,41.844514795484834,3.670288444257545,0.6572921013726227,B,1241.88139999751,Correct,sub_004_day_06_data.csv,1,300,54.0,Training at home,,,,,,,,,,,,,
4,7,1353,A,55.46422119260495,63.280945434429405,2.7732110596302477,0.9940147664451,A,764.4281999964733,Correct,sub_004_day_06_data.csv,1,300,54.0,Training at home,,,,,,,,,,,,,
4,7,1354,A,38.54426976780358,58.97093111247564,1.9272134883901788,0.9263132197915162,A,522.0372999901883,Correct,sub_004_day_06_data.csv,1,300,54.0,Training at home,,,,,,,,,,,,,
4,7,1355,A,61.53672652384276,73.42862866484573,3.076836326192138,1.1534142018832614,A,661.8629000149667,Correct,sub_004_day_06_data.csv,1,300,54.0,Training at home,,,,,,,,,,,,,
4,7,1356,A,52.661363047195834,76.54993945005711,2.6330681523597916,1.2024436370452145,A,670.6233999866527,Correct,sub_004_day_06_data.csv,1,300,54.0,Training at home,,,,,,,,,,,,,
4,7,1357,B,65.78571512883299,42.303068671095865,3.2892857564416493,0.6644950488070964,B,935.90799998492,Correct,sub_004_day_06_data.csv,1,300,54.0,Training at home,,,,,,,,,,,,,
4,7,1358,A,51.26495044839087,65.1295622370692,2.5632475224195432,1.0230527712774788,B,720.675399992615,Incorrect,sub_004_day_06_data.csv,0,300,54.0,Training at home,,,,,,,,,,,,,
4,7,1359,A,26.338729689973626,41.268209481093834,1.3169364844986813,0.6482395186630452,A,744.3938999786042,Correct,sub_004_day_06_data.csv,1,300,54.0,Training at home,,,,,,,,,,,,,
4,7,1360,B,77.48929543099268,58.51293718188866,3.874464771549634,0.9191190679529122,B,1131.9155000091996,Correct,sub_004_day_06_data.csv,1,300,54.0,Training at home,,,,,,,,,,,,,
4,7,1361,A,25.154655604583112,57.67430881292423,1.2577327802291556,0.905945924337759,A,882.5764000066556,Correct,sub_004_day_06_data.csv,1,300,54.0,Training at home,,,,,,,,,,,,,
4,7,1362,A,61.08932714368102,85.69235602843975,3.054466357184051,1.3460523808387366,A,957.810599997174,Correct,sub_004_day_06_data.csv,1,300,54.0,Training at home,,,,,,,,,,,,,
4,7,1363,A,34.29072185579798,63.5759079447775,1.7145360927898992,0.9986480267230696,A,657.6315000129398,Correct,sub_004_day_06_data.csv,1,300,54.0,Training at home,,,,,,,,,,,,,
4,7,1364,B,34.04903429220387,19.110218615973736,1.7024517146101936,0.30018261206219,A,526.1561000079382,Incorrect,sub_004_day_06_data.csv,0,300,54.0,Training at home,,,,,,,,,,,,,
4,7,1365,B,32.950103182613645,11.215554900428696,1.6475051591306822,0.176173524405599,B,554.7179999994114,Correct,sub_004_day_06_data.csv,1,300,54.0,Training at home,,,,,,,,,,,,,
4,7,1366,B,77.78971601992802,57.09735996728219,3.8894858009964017,0.8968832330629283,B,797.8393000084907,Correct,sub_004_day_06_data.csv,1,300,54.0,Training at home,,,,,,,,,,,,,
4,7,1367,A,60.59258190658756,86.15812820138589,3.029629095329378,1.3533687130226075,A,530.2086999872699,Correct,sub_004_day_06_data.csv,1,300,54.0,Training at home,,,,,,,,,,,,,
4,7,1368,A,50.26657300119153,72.85170443782864,2.513328650059577,1.144351897316887,A,551.2297000095714,Correct,sub_004_day_06_data.csv,1,300,54.0,Training at home,,,,,,,,,,,,,
4,7,1369,B,47.99483776508981,34.6156753151667,2.3997418882544905,0.5437417563458863,B,508.0798999988474,Correct,sub_004_day_06_data.csv,1,300,54.0,Training at home,,,,,,,,,,,,,
4,7,1370,A,14.79391986601044,43.54072767850839,0.739695993300522,0.6839361510337787,A,576.5086000028532,Correct,sub_004_day_06_data.csv,1,300,54.0,Training at home,,,,,,,,,,,,,
4,7,1371,B,59.88933914241305,36.31298007463353,2.9944669571206526,0.5704029571621062,B,581.3885000243317,Correct,sub_004_day_06_data.csv,1,300,54.0,Training at home,,,,,,,,,,,,,
4,7,1372,B,39.04092274346792,16.772612297636865,1.952046137173396,0.2634635778788289,B,1489.824000018416,Correct,sub_004_day_06_data.csv,1,300,54.0,Training at home,,,,,,,,,,,,,
4,7,1373,A,26.640282945151924,43.22341295135823,1.332014147257596,0.6789517829553245,B,722.2522999800276,Incorrect,sub_004_day_06_data.csv,0,300,54.0,Training at home,,,,,,,,,,,,,
4,7,1374,B,41.296246940300776,20.946762099867936,2.064812347015039,0.3290309696471911,B,752.908499998739,Correct,sub_004_day_06_data.csv,1,300,54.0,Training at home,,,,,,,,,,,,,
4,7,1375,B,35.357434003970724,23.38255286511942,1.7678717001985362,0.3672922815161706,B,572.1283000020776,Correct,sub_004_day_06_data.csv,1,300,55.0,Training at home,,,,,,,,,,,,,
4,7,1376,B,58.81418025072941,37.888412592877195,2.9407090125364705,0.59514979328981,B,806.7290000035428,Correct,sub_004_day_06_data.csv,1,300,55.0,Training at home,,,,,,,,,,,,,
4,7,1377,B,64.69165493514647,34.804596063724375,3.2345827467573236,0.5467093165247836,B,567.1899000008125,Correct,sub_004_day_06_data.csv,1,300,55.0,Training at home,,,,,,,,,,,,,
4,7,1378,A,47.224588377599595,77.4735259189715,2.36122941887998,1.2169512993736966,A,451.53340001706965,Correct,sub_004_day_06_data.csv,1,300,55.0,Training at home,,,,,,,,,,,,,
4,7,1379,A,39.955900688055394,62.07045893618686,1.9977950344027695,0.9750004889943578,A,809.3218999856617,Correct,sub_004_day_06_data.csv,1,300,55.0,Training at home,,,,,,,,,,,,,
4,7,1380,A,39.15376327838163,61.198322082667794,1.9576881639190815,0.9613009953346556,A,566.2982000212651,Correct,sub_004_day_06_data.csv,1,300,55.0,Training at home,,,,,,,,,,,,,
4,7,1381,A,36.05680335088953,56.18470975681996,1.8028401675444767,0.8825473570805018,A,454.300899989903,Correct,sub_004_day_06_data.csv,1,300,55.0,Training at home,,,,,,,,,,,,,
4,7,1382,B,76.8201587471482,49.10406714644057,3.8410079373574098,0.7713248830431881,B,701.6703000117559,Correct,sub_004_day_06_data.csv,1,300,55.0,Training at home,,,,,,,,,,,,,
4,7,1383,B,86.23638052935542,57.9296114752902,4.311819026467771,0.9099562091804134,B,620.2486999973189,Correct,sub_004_day_06_data.csv,1,300,55.0,Training at home,,,,,,,,,,,,,
4,7,1384,A,62.58043324338873,75.04088205660608,3.129021662169437,1.178739418939659,B,1151.0084999899846,Incorrect,sub_004_day_06_data.csv,0,300,55.0,Training at home,,,,,,,,,,,,,
4,7,1385,A,28.90041264259486,49.148778867276086,1.445020632129743,0.7720272131117191,A,595.0604999961797,Correct,sub_004_day_06_data.csv,1,300,55.0,Training at home,,,,,,,,,,,,,
4,7,1386,B,59.72392808997986,41.49613965770824,2.986196404498993,0.6518198375049613,B,569.3840999738313,Correct,sub_004_day_06_data.csv,1,300,55.0,Training at home,,,,,,,,,,,,,
4,7,1387,B,40.53859323522441,17.45407357963833,2.026929661761221,0.2741679466650374,B,570.3344000212383,Correct,sub_004_day_06_data.csv,1,300,55.0,Training at home,,,,,,,,,,,,,
4,7,1388,B,79.8319058311491,53.83832335558291,3.9915952915574553,0.8456904056774552,A,876.7542999994475,Incorrect,sub_004_day_06_data.csv,0,300,55.0,Training at home,,,,,,,,,,,,,
4,7,1389,B,59.28842267880877,46.19541426138028,2.964421133940439,0.7256358703654472,B,713.7637000123505,Correct,sub_004_day_06_data.csv,1,300,55.0,Training at home,,,,,,,,,,,,,
4,7,1390,A,20.61320279977522,36.72516808969931,1.030660139988761,0.5768775913622483,A,536.4130999951158,Correct,sub_004_day_06_data.csv,1,300,55.0,Training at home,,,,,,,,,,,,,
4,7,1391,B,71.80128595989243,42.06609588392584,3.5900642979946213,0.6607726889707263,B,634.8626000108197,Correct,sub_004_day_06_data.csv,1,300,55.0,Training at home,,,,,,,,,,,,,
4,7,1392,A,41.6994025031019,57.22968093648406,2.084970125155095,0.8989617259867306,A,512.1028000139631,Correct,sub_004_day_06_data.csv,1,300,55.0,Training at home,,,,,,,,,,,,,
4,7,1393,B,69.36323331275374,53.439533955131935,3.4681616656376866,0.839426236423524,A,586.0248999961186,Incorrect,sub_004_day_06_data.csv,0,300,55.0,Training at home,,,,,,,,,,,,,
4,7,1394,B,63.303210587087,33.623172338943704,3.1651605293543503,0.5281515560520453,B,544.0426999994088,Correct,sub_004_day_06_data.csv,1,300,55.0,Training at home,,,,,,,,,,,,,
4,7,1395,A,51.60039740845497,63.90183755593835,2.580019870422748,1.0037677170831214,A,726.6917999950238,Correct,sub_004_day_06_data.csv,1,300,55.0,Training at home,,,,,,,,,,,,,
4,7,1396,B,61.07248386284478,28.84282569553528,3.0536241931422388,0.4530620465693228,B,710.6797000160441,Correct,sub_004_day_06_data.csv,1,300,55.0,Training at home,,,,,,,,,,,,,
4,7,1397,B,44.351545230988535,30.169238442249803,2.217577261549427,0.4738972892728538,B,472.0513000211213,Correct,sub_004_day_06_data.csv,1,300,55.0,Training at home,,,,,,,,,,,,,
4,7,1398,A,23.53276644873462,47.96529006148744,1.176638322436731,0.7534370144223621,A,494.3090000015218,Correct,sub_004_day_06_data.csv,1,300,55.0,Training at home,,,,,,,,,,,,,
4,7,1399,B,57.483895981101675,36.87343936185471,2.8741947990550836,0.5792066310589573,B,543.0776000139304,Correct,sub_004_day_06_data.csv,1,300,55.0,Training at home,,,,,,,,,,,,,
4,7,1400,B,79.92310278273163,60.275737687657255,3.9961551391365817,0.9468090735462474,B,1866.3850000011737,Correct,sub_004_day_06_data.csv,1,300,56.0,Training at home,,,,,,,,,,,,,
4,7,1401,A,63.43652935284972,80.98531276232396,3.171826467642486,1.2721143181139434,A,940.4327999800444,Correct,sub_004_day_06_data.csv,1,300,56.0,Training at home,,,,,,,,,,,,,
4,7,1402,B,53.40703199136585,26.773484081880415,2.6703515995682925,0.4205569045131939,B,945.5652000033296,Correct,sub_004_day_06_data.csv,1,300,56.0,Training at home,,,,,,,,,,,,,
4,7,1403,B,52.69179960056351,41.35787060408542,2.6345899800281756,0.64964791228956,B,454.38529999228194,Correct,sub_004_day_06_data.csv,1,300,56.0,Training at home,,,,,,,,,,,,,
4,7,1404,A,59.141507987503715,87.27673741922698,2.9570753993751855,1.3709397855276444,A,600.890800007619,Correct,sub_004_day_06_data.csv,1,300,56.0,Training at home,,,,,,,,,,,,,
4,7,1405,B,43.79759715575922,27.28826803205105,2.189879857787961,0.4286431118934039,B,464.92580001358874,Correct,sub_004_day_06_data.csv,1,300,56.0,Training at home,,,,,,,,,,,,,
4,7,1406,B,42.29055192608013,33.15433426498852,2.1145275963040064,0.5207870648077414,B,561.7328000080306,Correct,sub_004_day_06_data.csv,1,300,56.0,Training at home,,,,,,,,,,,,,
4,7,1407,A,38.350079324898275,53.677834870885,1.9175039662449136,0.8431694584548917,A,492.8287999937311,Correct,sub_004_day_06_data.csv,1,300,56.0,Training at home,,,,,,,,,,,,,
4,7,1408,B,73.02996261184526,46.20031156143247,3.651498130592263,0.7257127969747791,B,1241.5232000057586,Correct,sub_004_day_06_data.csv,1,300,56.0,Training at home,,,,,,,,,,,,,
4,7,1409,A,40.34410641441957,59.031859742811136,2.0172053207209784,0.9272702844787928,A,484.886699996423,Correct,sub_004_day_06_data.csv,1,300,56.0,Training at home,,,,,,,,,,,,,
4,7,1410,B,85.38702863701843,66.29828203571032,4.269351431850922,1.0414109789450583,B,463.5909000062384,Correct,sub_004_day_06_data.csv,1,300,56.0,Training at home,,,,,,,,,,,,,
4,7,1411,A,19.277705658059507,36.922707986911504,0.9638852829029751,0.5799805408116118,A,524.1275999869686,Correct,sub_004_day_06_data.csv,1,300,56.0,Training at home,,,,,,,,,,,,,
4,7,1412,A,32.379946181399845,61.82129331979231,1.6189973090699925,0.9710866046443964,A,974.1892000020016,Correct,sub_004_day_06_data.csv,1,300,56.0,Training at home,,,,,,,,,,,,,
4,7,1413,B,72.9993886383555,59.68395002979484,3.6499694319177753,0.9375132947541188,B,536.9278999860398,Correct,sub_004_day_06_data.csv,1,300,56.0,Training at home,,,,,,,,,,,,,
4,7,1414,B,88.73249978208806,63.754571270500016,4.436624989104403,1.001454463680849,B,547.5799000123516,Correct,sub_004_day_06_data.csv,1,300,56.0,Training at home,,,,,,,,,,,,,
4,7,1415,B,51.0801570160274,33.154945121964474,2.5540078508013697,0.5207966601266818,B,729.5841999875847,Correct,sub_004_day_06_data.csv,1,300,56.0,Training at home,,,,,,,,,,,,,
4,7,1416,B,46.28853934886429,35.23958273863995,2.3144269674432145,0.5535420712364048,B,453.1428999907803,Correct,sub_004_day_06_data.csv,1,300,56.0,Training at home,,,,,,,,,,,,,
4,7,1417,A,48.76117587014604,73.44288060260963,2.438058793507302,1.1536380707981535,A,439.55050001386553,Correct,sub_004_day_06_data.csv,1,300,56.0,Training at home,,,,,,,,,,,,,
4,7,1418,B,43.79339814673844,22.387117231998516,2.189669907336922,0.3516560151555,B,469.3454999942333,Correct,sub_004_day_06_data.csv,1,300,56.0,Training at home,,,,,,,,,,,,,
4,7,1419,A,37.5446990337702,50.202183720140056,1.87723495168851,0.7885740578467856,A,523.5675999720115,Correct,sub_004_day_06_data.csv,1,300,56.0,Training at home,,,,,,,,,,,,,
4,7,1420,B,47.75000991485699,38.09806831363401,2.3875004957428496,0.5984430576503733,B,531.9924000068568,Correct,sub_004_day_06_data.csv,1,300,56.0,Training at home,,,,,,,,,,,,,
4,7,1421,B,74.89465702473622,60.55153481481254,3.744732851236811,0.9511412846890084,B,566.0919999936596,Correct,sub_004_day_06_data.csv,1,300,56.0,Training at home,,,,,,,,,,,,,
4,7,1422,A,56.2228855001316,71.80038575081994,2.81114427500658,1.127837821998446,B,529.5791999960784,Incorrect,sub_004_day_06_data.csv,0,300,56.0,Training at home,,,,,,,,,,,,,
4,7,1423,A,48.32928015650832,58.841412869532576,2.4164640078254163,0.9242787519888372,A,560.1961999782361,Correct,sub_004_day_06_data.csv,1,300,56.0,Training at home,,,,,,,,,,,,,
4,7,1424,A,14.678864897278924,41.084339518234344,0.7339432448639462,0.6453512960403691,A,554.2458999843802,Correct,sub_004_day_06_data.csv,1,300,56.0,Training at home,,,,,,,,,,,,,
4,7,1425,A,32.11375337170133,46.12610960014808,1.6056876685850665,0.724547235292514,A,501.63959999918006,Correct,sub_004_day_06_data.csv,1,300,57.0,Training at home,,,,,,,,,,,,,
4,7,1426,A,38.92292827165011,54.078706676254725,1.9461464135825053,0.8494663380487958,A,430.5070999835152,Correct,sub_004_day_06_data.csv,1,300,57.0,Training at home,,,,,,,,,,,,,
4,7,1427,B,49.89808411047921,37.810811405562426,2.4949042055239605,0.5939308366899203,B,591.0877000133041,Correct,sub_004_day_06_data.csv,1,300,57.0,Training at home,,,,,,,,,,,,,
4,7,1428,A,65.31205691484627,89.28617652717581,3.2656028457423134,1.4025039812244846,A,594.7295000078157,Correct,sub_004_day_06_data.csv,1,300,57.0,Training at home,,,,,,,,,,,,,
4,7,1429,B,54.85206349591942,26.395681451026316,2.7426031747959705,0.4146223946652033,B,563.835700013442,Correct,sub_004_day_06_data.csv,1,300,57.0,Training at home,,,,,,,,,,,,,
4,7,1430,B,63.121571560317776,55.39268817141276,3.1560785780158884,0.8701063111095028,B,873.9409999980126,Correct,sub_004_day_06_data.csv,1,300,57.0,Training at home,,,,,,,,,,,,,
4,7,1431,A,27.247557165607724,40.17165741339991,1.3623778582803865,0.6310149190623155,A,720.2864999999292,Correct,sub_004_day_06_data.csv,1,300,57.0,Training at home,,,,,,,,,,,,,
4,7,1432,A,33.17287731281915,47.15925969468483,1.6586438656409574,0.7407759190277754,A,396.22749999398366,Correct,sub_004_day_06_data.csv,1,300,57.0,Training at home,,,,,,,,,,,,,
4,7,1433,B,38.29599095811835,23.337563079101365,1.9147995479059177,0.3665855836099662,B,681.3043000001926,Correct,sub_004_day_06_data.csv,1,300,57.0,Training at home,,,,,,,,,,,,,
4,7,1434,A,52.70000144043433,70.69483330723577,2.6350000720217164,1.1104718448238349,A,595.5171000096016,Correct,sub_004_day_06_data.csv,1,300,57.0,Training at home,,,,,,,,,,,,,
4,7,1435,B,50.39228747969519,41.041511473987114,2.51961437398476,0.6446785546944956,B,718.296700011706,Correct,sub_004_day_06_data.csv,1,300,57.0,Training at home,,,,,,,,,,,,,
4,7,1436,A,23.781271137691107,50.045487720922935,1.1890635568845551,0.7861126828468485,A,516.704200010281,Correct,sub_004_day_06_data.csv,1,300,57.0,Training at home,,,,,,,,,,,,,
4,7,1437,B,39.571471889951766,23.298771359026865,1.9785735944975884,0.3659762446959353,B,517.4773999897297,Correct,sub_004_day_06_data.csv,1,300,57.0,Training at home,,,,,,,,,,,,,
4,7,1438,B,33.33165056079959,18.778535343899637,1.6665825280399793,0.2949725434078569,B,473.0254000169225,Correct,sub_004_day_06_data.csv,1,300,57.0,Training at home,,,,,,,,,,,,,
4,7,1439,B,54.66586976954366,40.67769012211163,2.733293488477183,0.6389636622631398,B,627.8212000033818,Correct,sub_004_day_06_data.csv,1,300,57.0,Training at home,,,,,,,,,,,,,
4,7,1440,B,65.69190771925747,57.46970323776421,3.2845953859628736,0.9027319874787278,B,599.5133999967948,Correct,sub_004_day_06_data.csv,1,300,57.0,Training at home,,,,,,,,,,,,,
4,7,1441,B,75.90845464235895,56.66982660319198,3.795422732117947,0.8901675546839768,B,526.3107999926433,Correct,sub_004_day_06_data.csv,1,300,57.0,Training at home,,,,,,,,,,,,,
4,7,1442,B,47.35666258857037,35.57865912685635,2.367833129428518,0.5588682706875368,B,477.35349999857135,Correct,sub_004_day_06_data.csv,1,300,57.0,Training at home,,,,,,,,,,,,,
4,7,1443,A,46.53828008204096,67.11478639360828,2.326914004102048,1.05423659940704,A,532.9152999911457,Correct,sub_004_day_06_data.csv,1,300,57.0,Training at home,,,,,,,,,,,,,
4,7,1444,A,29.52868713429507,39.66449393623285,1.4764343567147535,0.62304841379213,B,688.4806999878492,Incorrect,sub_004_day_06_data.csv,0,300,57.0,Training at home,,,,,,,,,,,,,
4,7,1445,A,40.334522063087256,63.95252485954093,2.016726103154363,1.004563911386262,A,513.0501999810804,Correct,sub_004_day_06_data.csv,1,300,57.0,Training at home,,,,,,,,,,,,,
4,7,1446,A,50.72451135779525,65.33667995566093,2.5362255678897627,1.0263061687932593,A,577.4092000210658,Correct,sub_004_day_06_data.csv,1,300,57.0,Training at home,,,,,,,,,,,,,
4,7,1447,B,72.9239469274026,63.301504189717974,3.64619734637013,0.9943377026180074,B,772.4133000010625,Correct,sub_004_day_06_data.csv,1,300,57.0,Training at home,,,,,,,,,,,,,
4,7,1448,A,48.075096067060485,78.85486193151664,2.4037548033530243,1.2386492747194506,A,550.615399988601,Correct,sub_004_day_06_data.csv,1,300,57.0,Training at home,,,,,,,,,,,,,
4,7,1449,A,65.53318470156238,77.92189022739562,3.276659235078119,1.2239941894610815,B,653.8083000050392,Incorrect,sub_004_day_06_data.csv,0,300,57.0,Training at home,,,,,,,,,,,,,
4,7,1450,B,50.937628094273194,24.851093439812367,2.546881404713659,0.3903600629209401,B,1952.350600011414,Correct,sub_004_day_06_data.csv,1,300,58.0,Training at home,,,,,,,,,,,,,
4,7,1451,A,55.88055635576244,78.80689629346875,2.794027817788122,1.237895832238871,A,474.7741000028327,Correct,sub_004_day_06_data.csv,1,300,58.0,Training at home,,,,,,,,,,,,,
4,7,1452,B,83.6978065519161,61.26993896686519,4.184890327595805,0.9624259507209936,B,573.0178999947384,Correct,sub_004_day_06_data.csv,1,300,58.0,Training at home,,,,,,,,,,,,,
4,7,1453,A,26.803795848890516,46.69654511746278,1.3401897924445256,0.7335076154452271,A,756.0770999989472,Correct,sub_004_day_06_data.csv,1,300,58.0,Training at home,,,,,,,,,,,,,
4,7,1454,A,33.06936267556777,55.20063453417089,1.6534681337783883,0.8670895396302315,A,437.5711999891791,Correct,sub_004_day_06_data.csv,1,300,58.0,Training at home,,,,,,,,,,,,,
4,7,1455,B,47.27871610641084,34.612434322569825,2.3639358053205424,0.5436908469532228,B,769.1239999840036,Correct,sub_004_day_06_data.csv,1,300,58.0,Training at home,,,,,,,,,,,,,
4,7,1456,A,37.263157615545595,56.53568172785799,1.8631578807772795,0.8880604119096469,A,1021.6584999870976,Correct,sub_004_day_06_data.csv,1,300,58.0,Training at home,,,,,,,,,,,,,
4,7,1457,A,28.586927315222816,54.86042640664851,1.429346365761141,0.8617455628596523,A,593.8110999995843,Correct,sub_004_day_06_data.csv,1,300,58.0,Training at home,,,,,,,,,,,,,
4,7,1458,B,67.15428492284266,51.54660078962171,3.357714246142133,0.8096921117910071,B,648.6689000157639,Correct,sub_004_day_06_data.csv,1,300,58.0,Training at home,,,,,,,,,,,,,
4,7,1459,A,52.36172131990574,80.58015678055347,2.6180860659952874,1.2657501428345024,A,473.9475999958813,Correct,sub_004_day_06_data.csv,1,300,58.0,Training at home,,,,,,,,,,,,,
4,7,1460,A,50.10338234102748,72.0605373686064,2.5051691170513744,1.1319242740547333,A,566.8322999845259,Correct,sub_004_day_06_data.csv,1,300,58.0,Training at home,,,,,,,,,,,,,
4,7,1461,B,58.67085519364115,34.32101618372684,2.933542759682058,0.5391132615326633,B,575.2554000064265,Correct,sub_004_day_06_data.csv,1,300,58.0,Training at home,,,,,,,,,,,,,
4,7,1462,B,78.91165416274376,55.99801782871355,3.945582708137187,0.8796148071313837,B,474.7856999747455,Correct,sub_004_day_06_data.csv,1,300,58.0,Training at home,,,,,,,,,,,,,
4,7,1463,A,57.81931911755011,80.18092179808704,2.890965955877505,1.2594789743946395,A,740.3284999891184,Correct,sub_004_day_06_data.csv,1,300,58.0,Training at home,,,,,,,,,,,,,
4,7,1464,B,57.70034818272951,43.46865905236036,2.8850174091364753,0.6828040997014738,B,452.4430999881588,Correct,sub_004_day_06_data.csv,1,300,58.0,Training at home,,,,,,,,,,,,,
4,7,1465,B,49.85701891746962,27.975908878959583,2.4928509458734807,0.4394445490581845,B,641.8767999857664,Correct,sub_004_day_06_data.csv,1,300,58.0,Training at home,,,,,,,,,,,,,
4,7,1466,A,64.9768288401257,79.28838041498972,3.248841442006285,1.2454589671338228,A,383.6613000021316,Correct,sub_004_day_06_data.csv,1,300,58.0,Training at home,,,,,,,,,,,,,
4,7,1467,B,60.7829627874209,32.67397537802072,3.039148139371045,0.5132416050558184,B,511.150300008012,Correct,sub_004_day_06_data.csv,1,300,58.0,Training at home,,,,,,,,,,,,,
4,7,1468,A,42.62671610239987,53.094802879764906,2.1313358051199938,0.8340112133543381,A,700.2261000161525,Correct,sub_004_day_06_data.csv,1,300,58.0,Training at home,,,,,,,,,,,,,
4,7,1469,B,86.21712932023405,68.80543785014528,4.310856466011702,1.0807932903852275,B,644.8548000189476,Correct,sub_004_day_06_data.csv,1,300,58.0,Training at home,,,,,,,,,,,,,
4,7,1470,B,46.6958153283519,39.45063493194057,2.334790766417595,0.6196891244081868,B,885.0391999876592,Correct,sub_004_day_06_data.csv,1,300,58.0,Training at home,,,,,,,,,,,,,
4,7,1471,A,25.200019381770815,45.62702474428241,1.2600009690885408,0.7167076287089866,B,822.2974000091199,Incorrect,sub_004_day_06_data.csv,0,300,58.0,Training at home,,,,,,,,,,,,,
4,7,1472,A,49.98664934907771,64.41655521315617,2.4993324674538857,1.0118528831360636,A,989.9458000145388,Correct,sub_004_day_06_data.csv,1,300,58.0,Training at home,,,,,,,,,,,,,
4,7,1473,A,64.64355677052126,83.1170680662488,3.2321778385260633,1.3055998521242502,A,690.7523999980185,Correct,sub_004_day_06_data.csv,1,300,58.0,Training at home,,,,,,,,,,,,,
4,7,1474,A,51.225867807268585,61.4510940661955,2.561293390363429,0.9652715283670756,A,655.7922999782022,Correct,sub_004_day_06_data.csv,1,300,58.0,Training at home,,,,,,,,,,,,,
4,7,1475,B,53.18775326246261,36.82717132683313,2.6593876631231304,0.5784798544643581,B,711.4313999773003,Correct,sub_004_day_06_data.csv,1,300,59.0,Training at home,,,,,,,,,,,,,
4,7,1476,B,47.953092728352395,37.52459275006533,2.3976546364176197,0.58943492456277,B,518.5299999720883,Correct,sub_004_day_06_data.csv,1,300,59.0,Training at home,,,,,,,,,,,,,
4,7,1477,A,42.77907278439484,69.40760771227916,2.138953639219742,1.0902521524606923,A,616.8162999965716,Correct,sub_004_day_06_data.csv,1,300,59.0,Training at home,,,,,,,,,,,,,
4,7,1478,A,18.335301672244103,41.471826672185955,0.9167650836122052,0.6514379300214431,B,420.3929000068456,Incorrect,sub_004_day_06_data.csv,0,300,59.0,Training at home,,,,,,,,,,,,,
4,7,1479,B,73.25065719761245,46.297132386792555,3.6625328598806224,0.7272336549431079,B,354.2310000048019,Correct,sub_004_day_06_data.csv,1,300,59.0,Training at home,,,,,,,,,,,,,
4,7,1480,A,47.55585870106341,69.97901652069237,2.3777929350531704,1.0992278210342297,A,833.7117999908514,Correct,sub_004_day_06_data.csv,1,300,59.0,Training at home,,,,,,,,,,,,,
4,7,1481,B,44.11614252374247,29.435762434701704,2.2058071261871235,0.4623758750883665,B,714.8418000142556,Correct,sub_004_day_06_data.csv,1,300,59.0,Training at home,,,,,,,,,,,,,
4,7,1482,A,67.60184268139469,84.25985165035846,3.3800921340697347,1.3235506546866598,A,825.5555999930948,Correct,sub_004_day_06_data.csv,1,300,59.0,Training at home,,,,,,,,,,,,,
4,7,1483,A,34.908515792603765,67.38374146111042,1.7454257896301884,1.058461335728092,A,1190.2974999975413,Correct,sub_004_day_06_data.csv,1,300,59.0,Training at home,,,,,,,,,,,,,
4,7,1484,B,53.62873964221144,45.965658590301395,2.681436982110572,0.7220268767235373,B,813.9141999999993,Correct,sub_004_day_06_data.csv,1,300,59.0,Training at home,,,,,,,,,,,,,
4,7,1485,B,67.08613756041896,43.84258833252456,3.3543068780209477,0.6886777670991036,B,555.0692999968305,Correct,sub_004_day_06_data.csv,1,300,59.0,Training at home,,,,,,,,,,,,,
4,7,1486,A,12.641156572269631,38.22657953507486,0.6320578286134817,0.6004617071962856,A,583.0614999867976,Correct,sub_004_day_06_data.csv,1,300,59.0,Training at home,,,,,,,,,,,,,
4,7,1487,A,30.18360354043302,48.23329959113138,1.5091801770216509,0.7576468982694695,A,617.7255999937188,Correct,sub_004_day_06_data.csv,1,300,59.0,Training at home,,,,,,,,,,,,,
4,7,1488,A,31.49065175967776,40.47572959863928,1.5745325879838878,0.6357912737788605,A,553.6705999984406,Correct,sub_004_day_06_data.csv,1,300,59.0,Training at home,,,,,,,,,,,,,
4,7,1489,A,44.99885759383197,71.27275423760977,2.249942879691598,1.1195498055699282,A,1051.089399988996,Correct,sub_004_day_06_data.csv,1,300,59.0,Training at home,,,,,,,,,,,,,
4,7,1490,A,39.621833357398785,57.79405662701123,1.981091667869939,0.9078269186028548,A,845.8040000114124,Correct,sub_004_day_06_data.csv,1,300,59.0,Training at home,,,,,,,,,,,,,
4,7,1491,B,73.03984742328885,62.92770704418503,3.651992371164442,0.9884661107863116,B,481.8900000245776,Correct,sub_004_day_06_data.csv,1,300,59.0,Training at home,,,,,,,,,,,,,
4,7,1492,A,52.130887376985456,76.28964553568974,2.606544368849273,1.1983549497994612,A,805.297300015809,Correct,sub_004_day_06_data.csv,1,300,59.0,Training at home,,,,,,,,,,,,,
4,7,1493,A,34.611966624184255,61.22623457173494,1.7305983312092126,0.9617394436876396,A,616.2104000104591,Correct,sub_004_day_06_data.csv,1,300,59.0,Training at home,,,,,,,,,,,,,
4,7,1494,B,40.567212304553806,15.94617223935114,2.0283606152276903,0.2504818878001152,B,513.884899992263,Correct,sub_004_day_06_data.csv,1,300,59.0,Training at home,,,,,,,,,,,,,
4,7,1495,A,66.67411680306321,79.11507457651324,3.3337058401531605,1.2427366853889128,A,661.35629999917,Correct,sub_004_day_06_data.csv,1,300,59.0,Training at home,,,,,,,,,,,,,
4,7,1496,A,33.318586117113234,45.969393240827216,1.6659293058556617,0.7220855404768154,A,607.6882000197656,Correct,sub_004_day_06_data.csv,1,300,59.0,Training at home,,,,,,,,,,,,,
4,7,1497,B,53.68908034348542,26.012931804068927,2.684454017174271,0.408610177269976,B,1015.850199997658,Correct,sub_004_day_06_data.csv,1,300,59.0,Training at home,,,,,,,,,,,,,
4,7,1498,B,47.91556589474267,39.90074045861695,2.3957782947371333,0.6267593654879202,B,601.4939000015147,Correct,sub_004_day_06_data.csv,1,300,59.0,Training at home,,,,,,,,,,,,,
4,7,1499,A,32.86307488071533,49.851601924022,1.6431537440357664,0.7830671318709516,A,1049.396299989894,Correct,sub_004_day_06_data.csv,1,300,59.0,Training at home,,,,,,,,,,,,,
