subject,day,trial,cat,x,y,xt,yt,resp,rt,fb,f_name,acc,n_trials,block,session_type,ns_left_digit,ns_right_digit,ns_left_size,ns_right_size,ns_congruent,ns_cue,ns_correct_side,ns_resp,ns_rt,ns_fb,acc_stroop,acc_stroop_mean,resp_key
4,20,4500,B,88.03391151383751,66.29053382384518,4.401695575691876,1.0412892703176886,B,10988.429700024426,Correct,sub_004_day_17_data.csv,1,300,180.0,Training at home,,,,,,,,,,,,,
4,20,4501,B,57.64984395256688,45.11156387995018,2.882492197628344,0.7086107883859908,B,53132.13489996269,Correct,sub_004_day_17_data.csv,1,300,180.0,Training at home,,,,,,,,,,,,,
4,20,4502,A,47.044513472925225,66.62590704934576,2.3522256736462612,1.0465573006249052,A,994.6414000587538,Correct,sub_004_day_17_data.csv,1,300,180.0,Training at home,,,,,,,,,,,,,
4,20,4503,B,86.9005979575253,65.6748152204836,4.345029897876265,1.031617585112692,B,611.085900105536,Correct,sub_004_day_17_data.csv,1,300,180.0,Training at home,,,,,,,,,,,,,
4,20,4504,A,66.90350153791812,84.25878609487944,3.3451750768959063,1.3235339169803353,A,623.0056000640616,Correct,sub_004_day_17_data.csv,1,300,180.0,Training at home,,,,,,,,,,,,,
4,20,4505,A,24.0270892897385,44.87871300405209,1.201354464486925,0.7049531753804738,A,740.4202999314293,Correct,sub_004_day_17_data.csv,1,300,180.0,Training at home,,,,,,,,,,,,,
4,20,4506,B,67.52379794373158,55.60463032772104,3.376189897186579,0.8734354907157231,B,1342.6029999973252,Correct,sub_004_day_17_data.csv,1,300,180.0,Training at home,,,,,,,,,,,,,
4,20,4507,A,23.13595208009188,46.35266075864597,1.156797604004594,0.7281058925685102,A,509.7101000137627,Correct,sub_004_day_17_data.csv,1,300,180.0,Training at home,,,,,,,,,,,,,
4,20,4508,B,62.574237374377766,46.59257944569384,3.1287118687188884,0.7318745264919528,B,1165.726999985054,Correct,sub_004_day_17_data.csv,1,300,180.0,Training at home,,,,,,,,,,,,,
4,20,4509,B,66.89781687361163,38.11659730877916,3.3448908436805818,0.5987341104255055,B,1392.6286000059918,Correct,sub_004_day_17_data.csv,1,300,180.0,Training at home,,,,,,,,,,,,,
4,20,4510,B,30.89688446905339,15.29421509490593,1.5448442234526696,0.2402409689228929,A,1673.745600041002,Incorrect,sub_004_day_17_data.csv,0,300,180.0,Training at home,,,,,,,,,,,,,
4,20,4511,A,12.193147626611909,30.30351521147717,0.6096573813305953,0.476006503831616,A,3008.08820000384,Correct,sub_004_day_17_data.csv,1,300,180.0,Training at home,,,,,,,,,,,,,
4,20,4512,A,37.78023096176741,47.65909688483614,1.8890115480883705,0.7486273432506271,A,2296.983200008981,Correct,sub_004_day_17_data.csv,1,300,180.0,Training at home,,,,,,,,,,,,,
4,20,4513,B,47.78653970298882,21.665249017556903,2.3893269851494408,0.3403169357587512,B,1142.0578999677673,Correct,sub_004_day_17_data.csv,1,300,180.0,Training at home,,,,,,,,,,,,,
4,20,4514,A,46.317122259399255,64.30235808568784,2.3158561129699624,1.0100590788524857,A,812.1832999167964,Correct,sub_004_day_17_data.csv,1,300,180.0,Training at home,,,,,,,,,,,,,
4,20,4515,A,41.38089552774856,51.54225714637289,2.0690447763874276,0.8096238820024054,A,1190.0935000739992,Correct,sub_004_day_17_data.csv,1,300,180.0,Training at home,,,,,,,,,,,,,
4,20,4516,B,60.412771164118446,37.404298077384105,3.0206385582059223,0.5875453402629637,B,1464.3362999195233,Correct,sub_004_day_17_data.csv,1,300,180.0,Training at home,,,,,,,,,,,,,
4,20,4517,B,71.60915537394625,45.3643458257097,3.5804577686973125,0.712581477904782,B,1625.2712999703365,Correct,sub_004_day_17_data.csv,1,300,180.0,Training at home,,,,,,,,,,,,,
4,20,4518,A,61.64907736579896,81.94251039210835,3.082453868289948,1.2871499433227642,A,783.9612999232486,Correct,sub_004_day_17_data.csv,1,300,180.0,Training at home,,,,,,,,,,,,,
4,20,4519,B,72.05075569610145,46.65433463990872,3.602537784805072,0.7328445748142851,B,672.8816999820992,Correct,sub_004_day_17_data.csv,1,300,180.0,Training at home,,,,,,,,,,,,,
4,20,4520,B,66.04694672965744,35.35614195835809,3.3023473364828715,0.555372979178278,B,352.94030001387,Correct,sub_004_day_17_data.csv,1,300,180.0,Training at home,,,,,,,,,,,,,
4,20,4521,A,47.379599218600326,60.768637244041315,2.3689799609300164,0.9545515216727164,A,739.5117999985814,Correct,sub_004_day_17_data.csv,1,300,180.0,Training at home,,,,,,,,,,,,,
4,20,4522,A,30.663858269483622,47.367735197734696,1.5331929134741813,0.7440506445719499,B,3706.4316000323743,Incorrect,sub_004_day_17_data.csv,0,300,180.0,Training at home,,,,,,,,,,,,,
4,20,4523,B,83.67270234025362,55.4118624159935,4.183635117012681,0.8704074994390677,B,1124.8134999768808,Correct,sub_004_day_17_data.csv,1,300,180.0,Training at home,,,,,,,,,,,,,
4,20,4524,A,52.20420104874949,79.69856645464009,2.6102100524374743,1.2519021543776765,B,688.9935000799596,Incorrect,sub_004_day_17_data.csv,0,300,180.0,Training at home,,,,,,,,,,,,,
4,20,4525,B,48.877469335259896,40.389642587324474,2.443873466762995,0.63443902216728,A,1479.1067000478506,Incorrect,sub_004_day_17_data.csv,0,300,181.0,Training at home,,,,,,,,,,,,,
4,20,4526,B,44.970117353907355,18.058193213603985,2.248505867695368,0.2836574356848166,B,556.1602000379935,Correct,sub_004_day_17_data.csv,1,300,181.0,Training at home,,,,,,,,,,,,,
4,20,4527,A,60.33180832130071,74.71621276733569,3.016590416065036,1.1736395256695684,A,481.73130000941455,Correct,sub_004_day_17_data.csv,1,300,181.0,Training at home,,,,,,,,,,,,,
4,20,4528,A,57.095339109082786,73.63363750375429,2.854766955454139,1.1566344731944416,A,2641.241900040768,Correct,sub_004_day_17_data.csv,1,300,181.0,Training at home,,,,,,,,,,,,,
4,20,4529,B,68.40094715823459,51.55411976482412,3.4200473579117294,0.809810219577299,B,556.3201999757439,Correct,sub_004_day_17_data.csv,1,300,181.0,Training at home,,,,,,,,,,,,,
4,20,4530,A,36.53572360793287,55.68714325009278,1.8267861803966436,0.8747316006694695,A,658.6193999974057,Correct,sub_004_day_17_data.csv,1,300,181.0,Training at home,,,,,,,,,,,,,
4,20,4531,B,84.22631911107717,60.43582369618083,4.211315955553858,0.9493236986878484,B,564.9599999887869,Correct,sub_004_day_17_data.csv,1,300,181.0,Training at home,,,,,,,,,,,,,
4,20,4532,B,77.75038229381745,45.99968992915538,3.887519114690873,0.7225614397442146,B,1235.9581999480724,Correct,sub_004_day_17_data.csv,1,300,181.0,Training at home,,,,,,,,,,,,,
4,20,4533,A,47.65804071592433,66.40535800145,2.3829020357962163,1.0430929242817777,A,859.545600018464,Correct,sub_004_day_17_data.csv,1,300,181.0,Training at home,,,,,,,,,,,,,
4,20,4534,A,43.27458826832677,70.73291835985688,2.1637294134163385,1.111070083431465,A,1711.5531999152154,Correct,sub_004_day_17_data.csv,1,300,181.0,Training at home,,,,,,,,,,,,,
4,20,4535,A,43.85380011274193,58.07445099015514,2.1926900056370964,0.9122313429596594,A,795.3166000079364,Correct,sub_004_day_17_data.csv,1,300,181.0,Training at home,,,,,,,,,,,,,
4,20,4536,B,41.207591123376005,28.9580434346025,2.0603795561688,0.4548718825824068,A,843.67019997444,Incorrect,sub_004_day_17_data.csv,0,300,181.0,Training at home,,,,,,,,,,,,,
4,20,4537,A,41.01100329789711,60.805397415045725,2.0505501648948554,0.9551289490885772,A,7294.919300009496,Correct,sub_004_day_17_data.csv,1,300,181.0,Training at home,,,,,,,,,,,,,
4,20,4538,B,49.7121221543286,21.837247472005178,2.4856061077164298,0.3430186811633687,B,494.96559996623546,Correct,sub_004_day_17_data.csv,1,300,181.0,Training at home,,,,,,,,,,,,,
4,20,4539,A,28.35183943668417,42.63517468876027,1.4175919718342085,0.6697117579336339,B,724.1891999728978,Incorrect,sub_004_day_17_data.csv,0,300,181.0,Training at home,,,,,,,,,,,,,
4,20,4540,B,47.19880829039728,39.809519351867074,2.3599404145198637,0.6253264676938315,B,442.2372999833897,Correct,sub_004_day_17_data.csv,1,300,181.0,Training at home,,,,,,,,,,,,,
4,20,4541,B,48.60480756411762,32.44775663439658,2.430240378205881,0.5096881693404488,B,593.1476000696421,Correct,sub_004_day_17_data.csv,1,300,181.0,Training at home,,,,,,,,,,,,,
4,20,4542,B,47.46578681754382,23.659772851722984,2.373289340877191,0.3716468428828807,B,656.3636000500992,Correct,sub_004_day_17_data.csv,1,300,181.0,Training at home,,,,,,,,,,,,,
4,20,4543,B,45.13627324762919,19.364465379559523,2.2568136623814596,0.3041763108855904,B,650.4444999154657,Correct,sub_004_day_17_data.csv,1,300,181.0,Training at home,,,,,,,,,,,,,
4,20,4544,A,28.99002810206973,46.871152393600475,1.4495014051034862,0.7362503401251145,B,1789.367699995637,Incorrect,sub_004_day_17_data.csv,0,300,181.0,Training at home,,,,,,,,,,,,,
4,20,4545,A,26.74120947136697,43.88607734888009,1.337060473568349,0.6893608909705755,A,487.03459999524057,Correct,sub_004_day_17_data.csv,1,300,181.0,Training at home,,,,,,,,,,,,,
4,20,4546,A,26.73680498570019,41.26116973146944,1.3368402492850096,0.6481289385345298,A,1693.7597999349236,Correct,sub_004_day_17_data.csv,1,300,181.0,Training at home,,,,,,,,,,,,,
4,20,4547,B,86.51852706327382,63.20227231541698,4.325926353163691,0.9927789719814778,B,5607.251100009307,Correct,sub_004_day_17_data.csv,1,300,181.0,Training at home,,,,,,,,,,,,,
4,20,4548,B,72.08217170842998,46.28313190312631,3.6041085854214994,0.727013735859945,B,6642.372800037265,Correct,sub_004_day_17_data.csv,1,300,181.0,Training at home,,,,,,,,,,,,,
4,20,4549,B,49.044224996348774,24.674681987798255,2.4522112498174384,0.3875889983126569,B,572.3291999893263,Correct,sub_004_day_17_data.csv,1,300,181.0,Training at home,,,,,,,,,,,,,
4,20,4550,A,18.864312766673446,42.96753798805027,0.9432156383336724,0.6749325084304953,A,2389.2949000000954,Correct,sub_004_day_17_data.csv,1,300,182.0,Training at home,,,,,,,,,,,,,
4,20,4551,B,50.8191627457017,37.44892750839096,2.5409581372850853,0.5882463777258887,B,528.5495999269187,Correct,sub_004_day_17_data.csv,1,300,182.0,Training at home,,,,,,,,,,,,,
4,20,4552,B,70.91469426818892,61.199059248062845,3.545734713409446,0.9613125747016036,B,802.6191999670118,Correct,sub_004_day_17_data.csv,1,300,182.0,Training at home,,,,,,,,,,,,,
4,20,4553,A,14.137189263071804,38.574960127371554,0.7068594631535902,0.6059340567433483,A,11198.966600000858,Correct,sub_004_day_17_data.csv,1,300,182.0,Training at home,,,,,,,,,,,,,
4,20,4554,B,36.680096026024984,15.0025255941035,1.834004801301249,0.235659120958642,B,2517.620600061491,Correct,sub_004_day_17_data.csv,1,300,182.0,Training at home,,,,,,,,,,,,,
4,20,4555,B,66.43484214674473,37.23559806561615,3.321742107337236,0.5848954066748102,B,1603.536400012672,Correct,sub_004_day_17_data.csv,1,300,182.0,Training at home,,,,,,,,,,,,,
4,20,4556,B,51.49962138173808,22.062639103421247,2.574981069086904,0.3465591246305555,B,694.285299978219,Correct,sub_004_day_17_data.csv,1,300,182.0,Training at home,,,,,,,,,,,,,
4,20,4557,A,45.08314710271782,66.57714264027732,2.2541573551358907,1.045791311078475,A,1299.9252999434248,Correct,sub_004_day_17_data.csv,1,300,182.0,Training at home,,,,,,,,,,,,,
4,20,4558,A,46.09143183852533,73.4285666634274,2.3045715919262664,1.1534132279672595,A,509.1112001100555,Correct,sub_004_day_17_data.csv,1,300,182.0,Training at home,,,,,,,,,,,,,
4,20,4559,B,66.22367356792515,47.327316473301515,3.3111836783962576,0.743415748733216,B,614.4941999809816,Correct,sub_004_day_17_data.csv,1,300,182.0,Training at home,,,,,,,,,,,,,
4,20,4560,A,47.1727157114392,66.7422016446548,2.35863578557196,1.0483840518562806,B,692.8425000514835,Incorrect,sub_004_day_17_data.csv,0,300,182.0,Training at home,,,,,,,,,,,,,
4,20,4561,B,63.66221331498468,49.269496484065385,3.183110665749234,0.7739234410020398,B,498.5701000550762,Correct,sub_004_day_17_data.csv,1,300,182.0,Training at home,,,,,,,,,,,,,
4,20,4562,B,36.04224231068842,18.485951731120295,1.8021121155344213,0.2903766507655152,B,849.2556000128388,Correct,sub_004_day_17_data.csv,1,300,182.0,Training at home,,,,,,,,,,,,,
4,20,4563,B,36.19051081070177,17.32867461886505,1.8095255405350883,0.2721981843953717,B,369.58810000214726,Correct,sub_004_day_17_data.csv,1,300,182.0,Training at home,,,,,,,,,,,,,
4,20,4564,B,52.06120109616094,22.389085959664587,2.6030600548080476,0.3516869398573632,B,409.4538000645116,Correct,sub_004_day_17_data.csv,1,300,182.0,Training at home,,,,,,,,,,,,,
4,20,4565,A,44.19812748977181,75.72638455662178,2.2099063744885905,1.1895072670299929,A,2812.069399980828,Correct,sub_004_day_17_data.csv,1,300,182.0,Training at home,,,,,,,,,,,,,
4,20,4566,A,17.935570707980915,41.5297413405394,0.8967785353990457,0.6523476515046145,A,1072.8341999929398,Correct,sub_004_day_17_data.csv,1,300,182.0,Training at home,,,,,,,,,,,,,
4,20,4567,B,68.943168897451,46.860440938608264,3.4471584448725503,0.7360820849835505,B,1027.578999986872,Correct,sub_004_day_17_data.csv,1,300,182.0,Training at home,,,,,,,,,,,,,
4,20,4568,A,28.66226064010089,37.89617624668279,1.4331130320050445,0.5952717444786134,A,1026.3340999372303,Correct,sub_004_day_17_data.csv,1,300,182.0,Training at home,,,,,,,,,,,,,
4,20,4569,B,72.00252524495146,57.54848953158645,3.600126262247573,0.9039695596881056,B,2570.8586999680847,Correct,sub_004_day_17_data.csv,1,300,182.0,Training at home,,,,,,,,,,,,,
4,20,4570,A,61.83798447881543,81.36795107422756,3.091899223940771,1.2781247866622352,B,1088.0268999608234,Incorrect,sub_004_day_17_data.csv,0,300,182.0,Training at home,,,,,,,,,,,,,
4,20,4571,B,63.43721719264817,47.73596096764498,3.1718608596324085,0.749834721440013,B,1327.7073000790551,Correct,sub_004_day_17_data.csv,1,300,182.0,Training at home,,,,,,,,,,,,,
4,20,4572,B,81.67270805888714,62.96143556412152,4.083635402944356,0.9889959171385564,B,814.1529000131413,Correct,sub_004_day_17_data.csv,1,300,182.0,Training at home,,,,,,,,,,,,,
4,20,4573,A,37.353761863673306,57.477174886726154,1.8676880931836652,0.9028493518661732,A,804.2545000789687,Correct,sub_004_day_17_data.csv,1,300,182.0,Training at home,,,,,,,,,,,,,
4,20,4574,B,44.54022567098545,33.194211990991136,2.2270112835492726,0.5214134626629999,B,401.1659000534564,Correct,sub_004_day_17_data.csv,1,300,182.0,Training at home,,,,,,,,,,,,,
4,20,4575,A,49.928389616897135,58.758551676568494,2.4964194808448568,0.9229771714134192,A,539.5075000124052,Correct,sub_004_day_17_data.csv,1,300,183.0,Training at home,,,,,,,,,,,,,
4,20,4576,A,31.12990689500691,55.79127745774268,1.5564953447503456,0.8763673369781712,A,427.346600103192,Correct,sub_004_day_17_data.csv,1,300,183.0,Training at home,,,,,,,,,,,,,
4,20,4577,A,33.03085088153265,54.286066223733826,1.6515425440766325,0.8527235342038559,A,747.9992000153288,Correct,sub_004_day_17_data.csv,1,300,183.0,Training at home,,,,,,,,,,,,,
4,20,4578,A,22.087385854977367,46.98405569348074,1.1043692927488684,0.7380238210124639,A,588.8938999269158,Correct,sub_004_day_17_data.csv,1,300,183.0,Training at home,,,,,,,,,,,,,
4,20,4579,B,64.26531585224566,45.55770519810806,3.2132657926122827,0.7156187598239291,B,4663.192100008018,Correct,sub_004_day_17_data.csv,1,300,183.0,Training at home,,,,,,,,,,,,,
4,20,4580,B,56.35892399070632,34.58745403805095,2.817946199535316,0.5432984575615775,B,694.0182999242097,Correct,sub_004_day_17_data.csv,1,300,183.0,Training at home,,,,,,,,,,,,,
4,20,4581,B,70.79499615470493,61.36781796176656,3.5397498077352463,0.963963430377608,B,3998.71479999274,Correct,sub_004_day_17_data.csv,1,300,183.0,Training at home,,,,,,,,,,,,,
4,20,4582,B,61.48873365746068,50.10759551586267,3.074436682873034,0.7870882698084152,B,450.6401000544429,Correct,sub_004_day_17_data.csv,1,300,183.0,Training at home,,,,,,,,,,,,,
4,20,4583,A,37.197424048658206,63.592965108758584,1.8598712024329105,0.99891596002834,B,377.1247999975458,Incorrect,sub_004_day_17_data.csv,0,300,183.0,Training at home,,,,,,,,,,,,,
4,20,4584,A,14.473759409934177,40.70718473909189,0.7236879704967087,0.6394269626232681,A,384.4257999444381,Correct,sub_004_day_17_data.csv,1,300,183.0,Training at home,,,,,,,,,,,,,
4,20,4585,A,61.29071084461904,82.22795571511655,3.0645355422309524,1.291633707971585,A,7269.795799977146,Correct,sub_004_day_17_data.csv,1,300,183.0,Training at home,,,,,,,,,,,,,
4,20,4586,A,62.236070947492465,79.72575088400204,3.111803547374623,1.2523291663955538,A,835.0381000200287,Correct,sub_004_day_17_data.csv,1,300,183.0,Training at home,,,,,,,,,,,,,
4,20,4587,A,41.66123003335601,62.078849411264095,2.083061501667801,0.9751322862686718,A,1020.882899989374,Correct,sub_004_day_17_data.csv,1,300,183.0,Training at home,,,,,,,,,,,,,
4,20,4588,A,63.182818121680185,84.44675219592882,3.159140906084009,1.3264864815912387,A,511.2265000352636,Correct,sub_004_day_17_data.csv,1,300,183.0,Training at home,,,,,,,,,,,,,
4,20,4589,B,68.23708149084679,35.57300915177522,3.4118540745423394,0.5587795210864975,B,548.4611999709159,Correct,sub_004_day_17_data.csv,1,300,183.0,Training at home,,,,,,,,,,,,,
4,20,4590,A,40.46384262367426,62.23689599925113,2.023192131183713,0.9776148762673966,A,645.6531999865547,Correct,sub_004_day_17_data.csv,1,300,183.0,Training at home,,,,,,,,,,,,,
4,20,4591,A,22.588792262728138,47.66902371628273,1.1294396131364066,0.7487832735543573,A,4125.357500044629,Correct,sub_004_day_17_data.csv,1,300,183.0,Training at home,,,,,,,,,,,,,
4,20,4592,B,58.3768316761273,32.295724526928836,2.918841583806365,0.5073000545807966,A,3068.3091999962926,Incorrect,sub_004_day_17_data.csv,0,300,183.0,Training at home,,,,,,,,,,,,,
4,20,4593,B,49.08587978307125,26.12937080020009,2.4542939891535624,0.4104391967441612,B,23609.000600059517,Correct,sub_004_day_17_data.csv,1,300,183.0,Training at home,,,,,,,,,,,,,
4,20,4594,A,43.530846323822345,70.59713882462849,2.1765423161911173,1.108937263479558,A,1300.773199996911,Correct,sub_004_day_17_data.csv,1,300,183.0,Training at home,,,,,,,,,,,,,
4,20,4595,B,41.047293152303325,14.91448145925337,2.052364657615166,0.2342761269224578,B,3434.4569999957457,Correct,sub_004_day_17_data.csv,1,300,183.0,Training at home,,,,,,,,,,,,,
4,20,4596,A,16.73061353383596,36.13374766549528,0.836530676691798,0.5675875810629366,A,484.46229996625334,Correct,sub_004_day_17_data.csv,1,300,183.0,Training at home,,,,,,,,,,,,,
4,20,4597,A,15.71803495637229,31.87424803445216,0.7859017478186145,0.5006795173186691,A,4296.032399986871,Correct,sub_004_day_17_data.csv,1,300,183.0,Training at home,,,,,,,,,,,,,
4,20,4598,A,43.86527754672427,61.82583270297682,2.1932638773362134,0.9711579091087178,A,458.3766999421641,Correct,sub_004_day_17_data.csv,1,300,183.0,Training at home,,,,,,,,,,,,,
4,20,4599,A,25.67618239317704,46.041294676956824,1.283809119658852,0.7232149655944521,A,986.4277000306174,Correct,sub_004_day_17_data.csv,1,300,183.0,Training at home,,,,,,,,,,,,,
4,20,4600,A,17.524395824427422,32.3462891912554,0.8762197912213711,0.5080943224706945,A,1438.8703000731766,Correct,sub_004_day_17_data.csv,1,300,184.0,Training at home,,,,,,,,,,,,,
4,20,4601,A,61.03283218749547,73.66773536974803,3.051641609374774,1.1571700812209869,B,1693.1387999793517,Incorrect,sub_004_day_17_data.csv,0,300,184.0,Training at home,,,,,,,,,,,,,
4,20,4602,A,29.977183839150896,59.99218174097368,1.4988591919575447,0.942354987151333,A,637.6886999933049,Correct,sub_004_day_17_data.csv,1,300,184.0,Training at home,,,,,,,,,,,,,
4,20,4603,A,38.068169102563566,58.894829380046914,1.9034084551281785,0.9251178165738984,A,1223.223900073208,Correct,sub_004_day_17_data.csv,1,300,184.0,Training at home,,,,,,,,,,,,,
4,20,4604,A,56.057462279351085,81.9348455316451,2.802873113967554,1.2870295439761537,B,787.7772999927402,Incorrect,sub_004_day_17_data.csv,0,300,184.0,Training at home,,,,,,,,,,,,,
4,20,4605,A,47.51724352898445,68.88796754916429,2.375862176449223,1.082089663865933,A,861.6165000712499,Correct,sub_004_day_17_data.csv,1,300,184.0,Training at home,,,,,,,,,,,,,
4,20,4606,B,32.47818354313088,15.557525303318371,1.623909177156544,0.2443770360047115,B,1633.08059994597,Correct,sub_004_day_17_data.csv,1,300,184.0,Training at home,,,,,,,,,,,,,
4,20,4607,B,43.893927342474186,19.27560439509356,2.194696367123709,0.3027804858056452,B,750.9482000023127,Correct,sub_004_day_17_data.csv,1,300,184.0,Training at home,,,,,,,,,,,,,
4,20,4608,B,47.079014593874206,33.98361182595512,2.35395072969371,0.5338133262743391,B,359.8431999562308,Correct,sub_004_day_17_data.csv,1,300,184.0,Training at home,,,,,,,,,,,,,
4,20,4609,B,35.13488314254339,17.216135941707893,1.7567441571271696,0.2704304309883635,B,749.3045000592247,Correct,sub_004_day_17_data.csv,1,300,184.0,Training at home,,,,,,,,,,,,,
4,20,4610,B,87.11521861558542,63.30847362403031,4.3557609307792715,0.994447178236184,B,779.8966999398544,Correct,sub_004_day_17_data.csv,1,300,184.0,Training at home,,,,,,,,,,,,,
4,20,4611,A,22.828480774475487,39.17430391063644,1.1414240387237742,0.6153485268757467,A,601.3241000473499,Correct,sub_004_day_17_data.csv,1,300,184.0,Training at home,,,,,,,,,,,,,
4,20,4612,A,33.62608193126035,42.64215313874476,1.6813040965630175,0.6698213751696573,A,627.2792000090703,Correct,sub_004_day_17_data.csv,1,300,184.0,Training at home,,,,,,,,,,,,,
4,20,4613,A,39.01475174819709,52.86849044763332,1.9507375874098545,0.830456305983335,A,974.0861000027508,Correct,sub_004_day_17_data.csv,1,300,184.0,Training at home,,,,,,,,,,,,,
4,20,4614,A,46.46872440925124,54.58320023168119,2.323436220462562,0.8573909042863517,B,622.2517000278458,Incorrect,sub_004_day_17_data.csv,0,300,184.0,Training at home,,,,,,,,,,,,,
4,20,4615,A,57.18725641294366,80.50766803496995,2.859362820647183,1.264611492281537,A,701.3014000840485,Correct,sub_004_day_17_data.csv,1,300,184.0,Training at home,,,,,,,,,,,,,
4,20,4616,B,41.475278650460226,26.259527112629826,2.0737639325230113,0.4124836873188992,B,615.3921999502927,Correct,sub_004_day_17_data.csv,1,300,184.0,Training at home,,,,,,,,,,,,,
4,20,4617,A,28.46514918831469,61.00644152535379,1.4232574594157343,0.9582869425885338,A,787.6994999824092,Correct,sub_004_day_17_data.csv,1,300,184.0,Training at home,,,,,,,,,,,,,
4,20,4618,B,87.54886625529252,65.02644545846964,4.377443312764626,1.021433016706928,B,567.4293999327347,Correct,sub_004_day_17_data.csv,1,300,184.0,Training at home,,,,,,,,,,,,,
4,20,4619,B,46.93309021982398,29.20464834685253,2.346654510991199,0.458745543485726,B,2401.410900056362,Correct,sub_004_day_17_data.csv,1,300,184.0,Training at home,,,,,,,,,,,,,
4,20,4620,B,80.21630221846199,61.18006533387742,4.010815110923099,0.9610142189952644,B,5389.810599968769,Correct,sub_004_day_17_data.csv,1,300,184.0,Training at home,,,,,,,,,,,,,
4,20,4621,A,52.31086683549327,76.73522301521055,2.6155433417746634,1.2053540644807996,A,1163.567499956116,Correct,sub_004_day_17_data.csv,1,300,184.0,Training at home,,,,,,,,,,,,,
4,20,4622,B,42.66694177192983,16.091254622020838,2.1333470885964916,0.2527608365379173,B,2156.196700059809,Correct,sub_004_day_17_data.csv,1,300,184.0,Training at home,,,,,,,,,,,,,
4,20,4623,B,57.73088499456791,50.73404760136376,2.8865442497283955,0.7969285561565962,A,1879.8018000088632,Incorrect,sub_004_day_17_data.csv,0,300,184.0,Training at home,,,,,,,,,,,,,
4,20,4624,B,55.13577593528305,35.76843365179105,2.7567887967641527,0.5618492419544036,B,2560.8070999151096,Correct,sub_004_day_17_data.csv,1,300,184.0,Training at home,,,,,,,,,,,,,
4,20,4625,A,53.8531252797552,66.04935435159838,2.6926562639877596,1.0375008320266526,A,730.2645000163466,Correct,sub_004_day_17_data.csv,1,300,185.0,Training at home,,,,,,,,,,,,,
4,20,4626,B,37.23318863051906,11.220932223252303,1.8616594315259531,0.1762579911949921,B,1232.0419000461698,Correct,sub_004_day_17_data.csv,1,300,185.0,Training at home,,,,,,,,,,,,,
4,20,4627,A,43.8658722318972,51.528094175503895,2.19329361159486,0.8094014105762302,A,699.6606999309734,Correct,sub_004_day_17_data.csv,1,300,185.0,Training at home,,,,,,,,,,,,,
4,20,4628,A,44.79264227176578,67.08589522723257,2.239632113588289,1.053782778026842,A,1644.8169000213966,Correct,sub_004_day_17_data.csv,1,300,185.0,Training at home,,,,,,,,,,,,,
4,20,4629,B,52.1712211923153,40.67976892478914,2.608561059615765,0.6389963160192396,B,864.8819000227377,Correct,sub_004_day_17_data.csv,1,300,185.0,Training at home,,,,,,,,,,,,,
4,20,4630,A,34.28468973012427,46.30603617400706,1.7142344865062136,0.7273735153056189,A,1544.6917000226676,Correct,sub_004_day_17_data.csv,1,300,185.0,Training at home,,,,,,,,,,,,,
4,20,4631,A,14.408288052605377,30.469226495373928,0.7204144026302687,0.4786094905921511,A,812.6851000124589,Correct,sub_004_day_17_data.csv,1,300,185.0,Training at home,,,,,,,,,,,,,
4,20,4632,B,41.505687780535695,17.646253455300812,2.075284389026785,0.2771867010927827,B,589.4307000562549,Correct,sub_004_day_17_data.csv,1,300,185.0,Training at home,,,,,,,,,,,,,
4,20,4633,A,45.46202606368424,72.81628845664096,2.273101303184212,1.1437955843852927,A,649.5530999964103,Correct,sub_004_day_17_data.csv,1,300,185.0,Training at home,,,,,,,,,,,,,
4,20,4634,A,61.5486904053481,72.08484265028869,3.077434520267405,1.132306060526616,A,851.9219000590965,Correct,sub_004_day_17_data.csv,1,300,185.0,Training at home,,,,,,,,,,,,,
4,20,4635,A,21.44228806821896,50.06748168309805,1.072114403410948,0.7864581631968118,A,831.5011999802664,Correct,sub_004_day_17_data.csv,1,300,185.0,Training at home,,,,,,,,,,,,,
4,20,4636,B,38.11509578430924,28.74208445016825,1.9057547892154616,0.45147960678753,B,612.3092999914661,Correct,sub_004_day_17_data.csv,1,300,185.0,Training at home,,,,,,,,,,,,,
4,20,4637,A,36.82663842644234,56.981990956104944,1.8413319213221169,0.8950710208730966,A,469.2093000048771,Correct,sub_004_day_17_data.csv,1,300,185.0,Training at home,,,,,,,,,,,,,
4,20,4638,B,48.88518369000924,27.165936623818812,2.4442591845004618,0.4267215346263754,B,658.287400030531,Correct,sub_004_day_17_data.csv,1,300,185.0,Training at home,,,,,,,,,,,,,
4,20,4639,A,63.67400099967156,88.95957366247237,3.1837000499835777,1.397373715422516,A,456.8354000803083,Correct,sub_004_day_17_data.csv,1,300,185.0,Training at home,,,,,,,,,,,,,
4,20,4640,A,47.358205152551704,57.68203415252998,2.3679102576275852,0.9060672736885188,A,710.3267000056803,Correct,sub_004_day_17_data.csv,1,300,185.0,Training at home,,,,,,,,,,,,,
4,20,4641,A,16.7393237459666,43.755066700141235,0.83696618729833,0.6873029805124755,A,543.5938000446185,Correct,sub_004_day_17_data.csv,1,300,185.0,Training at home,,,,,,,,,,,,,
4,20,4642,B,49.29939242714416,30.762595196524565,2.464969621357207,0.4832177153737911,B,552.9669000534341,Correct,sub_004_day_17_data.csv,1,300,185.0,Training at home,,,,,,,,,,,,,
4,20,4643,A,46.94018812676792,71.34778808937712,2.3470094063383957,1.1207284345573425,A,426.211699959822,Correct,sub_004_day_17_data.csv,1,300,185.0,Training at home,,,,,,,,,,,,,
4,20,4644,B,56.73523908322453,33.6378113709954,2.8367619541612266,0.5283815054297918,B,366.564100026153,Correct,sub_004_day_17_data.csv,1,300,185.0,Training at home,,,,,,,,,,,,,
4,20,4645,B,34.67315637424106,14.803209460027762,1.7336578187120528,0.2325282704458707,B,584.0590000152588,Correct,sub_004_day_17_data.csv,1,300,185.0,Training at home,,,,,,,,,,,,,
4,20,4646,B,74.81310900936509,62.91555217378121,3.740655450468255,0.988275182528482,B,1141.452500014566,Correct,sub_004_day_17_data.csv,1,300,185.0,Training at home,,,,,,,,,,,,,
4,20,4647,B,67.94808390057464,57.27279112464606,3.3974041950287326,0.8996388992388538,B,2061.8011000333354,Correct,sub_004_day_17_data.csv,1,300,185.0,Training at home,,,,,,,,,,,,,
4,20,4648,A,45.41071144131144,55.276393096248526,2.270535572065572,0.8682795523405796,B,800.0572000164539,Incorrect,sub_004_day_17_data.csv,0,300,185.0,Training at home,,,,,,,,,,,,,
4,20,4649,B,43.12299156466024,27.927666152780137,2.156149578233012,0.438686754087412,B,1538.1111999740824,Correct,sub_004_day_17_data.csv,1,300,185.0,Training at home,,,,,,,,,,,,,
4,20,4650,B,53.59003915370186,42.72564750370388,2.6795019576850927,0.6711329015875159,B,605.6331999134272,Correct,sub_004_day_17_data.csv,1,300,186.0,Training at home,,,,,,,,,,,,,
4,20,4651,B,59.52643796315026,26.995596483083546,2.9763218981575132,0.4240458379526486,B,421.8168000224978,Correct,sub_004_day_17_data.csv,1,300,186.0,Training at home,,,,,,,,,,,,,
4,20,4652,A,37.60262560618547,67.51336508907015,1.8801312803092736,1.060497458914742,A,711.9729000842199,Correct,sub_004_day_17_data.csv,1,300,186.0,Training at home,,,,,,,,,,,,,
4,20,4653,A,52.489158385709054,62.97198251734349,2.6244579192854527,0.9891615882923558,B,560.4259999236092,Incorrect,sub_004_day_17_data.csv,0,300,186.0,Training at home,,,,,,,,,,,,,
4,20,4654,A,47.19759225114521,59.388724468966934,2.3598796125572603,0.9328759024888746,B,546.7672999948263,Incorrect,sub_004_day_17_data.csv,0,300,186.0,Training at home,,,,,,,,,,,,,
4,20,4655,A,11.371874518657318,33.3328487772727,0.568593725932866,0.5235911642094973,A,898.9875999977812,Correct,sub_004_day_17_data.csv,1,300,186.0,Training at home,,,,,,,,,,,,,
4,20,4656,B,73.01953097025964,52.41426975344315,3.650976548512982,0.8233214240034535,B,892.703999998048,Correct,sub_004_day_17_data.csv,1,300,186.0,Training at home,,,,,,,,,,,,,
4,20,4657,A,45.67627147667703,68.14632788709753,2.2838135738338514,1.0704400152961342,A,13731.54930002056,Correct,sub_004_day_17_data.csv,1,300,186.0,Training at home,,,,,,,,,,,,,
4,20,4658,B,73.41757775805563,52.42729706244829,3.6708788879027816,0.8235260564947865,B,502.84249999094754,Correct,sub_004_day_17_data.csv,1,300,186.0,Training at home,,,,,,,,,,,,,
4,20,4659,A,55.49085019134582,78.93143436074661,2.774542509567291,1.2398520716251324,B,463.7010999722406,Incorrect,sub_004_day_17_data.csv,0,300,186.0,Training at home,,,,,,,,,,,,,
4,20,4660,B,58.59099226515673,45.18816939195684,2.929549613257836,0.7098141049547138,B,422.1419000532478,Correct,sub_004_day_17_data.csv,1,300,186.0,Training at home,,,,,,,,,,,,,
4,20,4661,A,49.83480210567428,81.17490982952097,2.491740105283714,1.2750925018811847,A,1010.894599952735,Correct,sub_004_day_17_data.csv,1,300,186.0,Training at home,,,,,,,,,,,,,
4,20,4662,B,56.37065864484375,33.02870296565483,2.8185329322421877,0.5188136529725031,B,466.3507998920977,Correct,sub_004_day_17_data.csv,1,300,186.0,Training at home,,,,,,,,,,,,,
4,20,4663,A,37.76644649421975,64.8737117450439,1.8883223247109873,1.019033881146659,A,510.84729994181544,Correct,sub_004_day_17_data.csv,1,300,186.0,Training at home,,,,,,,,,,,,,
4,20,4664,A,26.10652998681,37.417744836807955,1.3053264993405,0.5877565614660664,A,556.3434999203309,Correct,sub_004_day_17_data.csv,1,300,186.0,Training at home,,,,,,,,,,,,,
4,20,4665,B,70.2907496354614,56.00875722097176,3.5145374817730697,0.8797835011104959,B,730.3127999184653,Correct,sub_004_day_17_data.csv,1,300,186.0,Training at home,,,,,,,,,,,,,
4,20,4666,A,51.96513228151905,82.04598106804339,2.5982566140759524,1.2887752568996618,A,498.9907999988646,Correct,sub_004_day_17_data.csv,1,300,186.0,Training at home,,,,,,,,,,,,,
4,20,4667,B,65.26064399773408,48.55386681490151,3.2630321998867036,0.7626823564453591,B,385.81230002455413,Correct,sub_004_day_17_data.csv,1,300,186.0,Training at home,,,,,,,,,,,,,
4,20,4668,A,45.137419731506526,65.5071396079613,2.2568709865753265,1.028983742750261,B,308.39490005746484,Incorrect,sub_004_day_17_data.csv,0,300,186.0,Training at home,,,,,,,,,,,,,
4,20,4669,B,46.29592742359276,24.318317653169736,2.314796371179638,0.3819912404343051,B,417.48980002012104,Correct,sub_004_day_17_data.csv,1,300,186.0,Training at home,,,,,,,,,,,,,
4,20,4670,B,52.50710700145286,35.07461664296914,2.6253553500726428,0.5509507898651507,B,434.95320004876703,Correct,sub_004_day_17_data.csv,1,300,186.0,Training at home,,,,,,,,,,,,,
4,20,4671,B,82.96830446679067,57.235202815031656,4.1484152233395335,0.8990484634521264,B,9534.821000066586,Correct,sub_004_day_17_data.csv,1,300,186.0,Training at home,,,,,,,,,,,,,
4,20,4672,A,34.72195912049105,57.1115320125208,1.7360979560245524,0.8971058470289683,A,3049.1602999391034,Correct,sub_004_day_17_data.csv,1,300,186.0,Training at home,,,,,,,,,,,,,
4,20,4673,B,59.836705541660216,46.70470008231173,2.991835277083011,0.7336357133335257,B,518.1546999374405,Correct,sub_004_day_17_data.csv,1,300,186.0,Training at home,,,,,,,,,,,,,
4,20,4674,A,48.002818411838106,60.396986895148665,2.4001409205919053,0.9487136516437902,A,1998.9051000447944,Correct,sub_004_day_17_data.csv,1,300,186.0,Training at home,,,,,,,,,,,,,
4,20,4675,A,34.03023400238144,47.85257465901205,1.701511700119072,0.7516664850205468,B,411.3571000052616,Incorrect,sub_004_day_17_data.csv,0,300,187.0,Training at home,,,,,,,,,,,,,
4,20,4676,B,62.79254580214803,40.119063457370274,3.139627290107401,0.630188775132886,B,529.8896000022069,Correct,sub_004_day_17_data.csv,1,300,187.0,Training at home,,,,,,,,,,,,,
4,20,4677,B,54.81725172040334,22.592234401643527,2.740862586020167,0.3548779881219095,B,393.44250003341585,Correct,sub_004_day_17_data.csv,1,300,187.0,Training at home,,,,,,,,,,,,,
4,20,4678,A,29.746329920919933,62.74928709744013,1.4873164960459968,0.9856634968165736,A,393.6025999719277,Correct,sub_004_day_17_data.csv,1,300,187.0,Training at home,,,,,,,,,,,,,
4,20,4679,B,52.165914460639264,28.290979605926022,2.608295723031963,0.4443936684641793,B,482.0474999723956,Correct,sub_004_day_17_data.csv,1,300,187.0,Training at home,,,,,,,,,,,,,
4,20,4680,A,59.31116102460442,74.16739764645212,2.9655580512302206,1.1650187579098343,A,462.9021000582725,Correct,sub_004_day_17_data.csv,1,300,187.0,Training at home,,,,,,,,,,,,,
4,20,4681,B,86.38439041267827,67.24326749368664,4.319219520633913,1.0562547758076966,A,3525.8792999666184,Incorrect,sub_004_day_17_data.csv,0,300,187.0,Training at home,,,,,,,,,,,,,
4,20,4682,B,63.159964864206,31.92513401895396,3.1579982432102995,0.5014788324940768,B,501.0816999711096,Correct,sub_004_day_17_data.csv,1,300,187.0,Training at home,,,,,,,,,,,,,
4,20,4683,A,65.55109028413575,88.21451643550644,3.2775545142067877,1.3856703838688154,A,483.18530002143234,Correct,sub_004_day_17_data.csv,1,300,187.0,Training at home,,,,,,,,,,,,,
4,20,4684,A,49.17911917163884,78.16177060399207,2.458955958581942,1.2277622216053603,A,738.5326999938115,Correct,sub_004_day_17_data.csv,1,300,187.0,Training at home,,,,,,,,,,,,,
4,20,4685,B,71.08136865841585,57.245093899444214,3.554068432920793,0.8992038322427592,A,2056.0626999940723,Incorrect,sub_004_day_17_data.csv,0,300,187.0,Training at home,,,,,,,,,,,,,
4,20,4686,B,64.92308596969983,53.757209793005785,3.2461542984849916,0.8444162768159613,B,1051.0174999944866,Correct,sub_004_day_17_data.csv,1,300,187.0,Training at home,,,,,,,,,,,,,
4,20,4687,A,56.61119813838542,81.67507829738467,2.830559906919271,1.282949129802174,A,546.9220000086352,Correct,sub_004_day_17_data.csv,1,300,187.0,Training at home,,,,,,,,,,,,,
4,20,4688,B,34.02324734768246,14.08090820805602,1.7011623673841227,0.221182388911505,B,389.8586001014337,Correct,sub_004_day_17_data.csv,1,300,187.0,Training at home,,,,,,,,,,,,,
4,20,4689,A,32.98859758877269,60.515504355159344,1.6494298794386344,0.9505753195522486,A,485.7928999699652,Correct,sub_004_day_17_data.csv,1,300,187.0,Training at home,,,,,,,,,,,,,
4,20,4690,B,46.61205526377583,16.59805310673747,2.3306027631887916,0.2607216085200984,B,461.75069990567863,Correct,sub_004_day_17_data.csv,1,300,187.0,Training at home,,,,,,,,,,,,,
4,20,4691,B,38.052370000747665,17.577690074245695,1.9026185000373832,0.2761097100216425,B,601.6315000597388,Correct,sub_004_day_17_data.csv,1,300,187.0,Training at home,,,,,,,,,,,,,
4,20,4692,A,25.912239718618956,36.3830521583202,1.2956119859309478,0.571503646878765,B,925.6608999567106,Incorrect,sub_004_day_17_data.csv,0,300,187.0,Training at home,,,,,,,,,,,,,
4,20,4693,B,60.53134696672526,28.609478529289973,3.026567348336263,0.4493966378532615,B,395.68650000728667,Correct,sub_004_day_17_data.csv,1,300,187.0,Training at home,,,,,,,,,,,,,
4,20,4694,B,46.506586798878445,29.893643544979547,2.3253293399439223,0.4695682547496984,B,468.8719001132995,Correct,sub_004_day_17_data.csv,1,300,187.0,Training at home,,,,,,,,,,,,,
4,20,4695,B,37.07047850272411,25.40540714245926,1.8535239251362057,0.3990672022010384,B,3140.083600068465,Correct,sub_004_day_17_data.csv,1,300,187.0,Training at home,,,,,,,,,,,,,
4,20,4696,B,83.02257339702362,60.95424475941855,4.151128669851181,0.9574670377065172,B,1296.874799998477,Correct,sub_004_day_17_data.csv,1,300,187.0,Training at home,,,,,,,,,,,,,
4,20,4697,A,13.299541016157823,41.81896929407518,0.6649770508078913,0.6568908335748187,A,953.8851999677718,Correct,sub_004_day_17_data.csv,1,300,187.0,Training at home,,,,,,,,,,,,,
4,20,4698,B,58.024573562699565,42.40937683358872,2.901228678134978,0.6661649335186175,B,577.9821999603882,Correct,sub_004_day_17_data.csv,1,300,187.0,Training at home,,,,,,,,,,,,,
4,20,4699,A,13.576666584631404,41.40554290254211,0.6788333292315701,0.6503967470026165,A,780.2933000493795,Correct,sub_004_day_17_data.csv,1,300,187.0,Training at home,,,,,,,,,,,,,
4,20,4700,B,55.72954302083029,33.50312581577339,2.786477151041515,0.526265869675641,B,664.6868999814615,Correct,sub_004_day_17_data.csv,1,300,188.0,Training at home,,,,,,,,,,,,,
4,20,4701,B,87.8651244765807,61.15958278735937,4.393256223829035,0.9606924799069247,B,729.2970000999048,Correct,sub_004_day_17_data.csv,1,300,188.0,Training at home,,,,,,,,,,,,,
4,20,4702,A,24.42694547290379,55.21443508470229,1.2213472736451894,0.8673063181710562,A,905.8777999598532,Correct,sub_004_day_17_data.csv,1,300,188.0,Training at home,,,,,,,,,,,,,
4,20,4703,B,83.12586365574457,54.78013187691776,4.156293182787229,0.8604842993360242,B,657.7245000516996,Correct,sub_004_day_17_data.csv,1,300,188.0,Training at home,,,,,,,,,,,,,
4,20,4704,B,40.07291666766969,15.015594343105835,2.003645833383485,0.2358644043879287,B,605.8331999229267,Correct,sub_004_day_17_data.csv,1,300,188.0,Training at home,,,,,,,,,,,,,
4,20,4705,A,38.940488964164274,59.049543175671225,1.9470244482082135,0.92754805519261,A,763.956299982965,Correct,sub_004_day_17_data.csv,1,300,188.0,Training at home,,,,,,,,,,,,,
4,20,4706,A,25.185282770246324,43.70060791607686,1.2592641385123162,0.6864475439327752,B,510.8157000504434,Incorrect,sub_004_day_17_data.csv,0,300,188.0,Training at home,,,,,,,,,,,,,
4,20,4707,A,67.26263077250033,84.58683521405703,3.363131538625016,1.32868690049446,B,480.55570002179593,Incorrect,sub_004_day_17_data.csv,0,300,188.0,Training at home,,,,,,,,,,,,,
4,20,4708,A,14.068706933671976,33.51721925564831,0.7034353466835988,0.5264872489115153,A,519.4330000085756,Correct,sub_004_day_17_data.csv,1,300,188.0,Training at home,,,,,,,,,,,,,
4,20,4709,A,47.564461231153835,62.63004401496519,2.378223061557692,0.9837904308571004,B,1000.2712999703364,Incorrect,sub_004_day_17_data.csv,0,300,188.0,Training at home,,,,,,,,,,,,,
4,20,4710,B,64.23795466969976,51.533301735758464,3.2118977334849883,0.8094832107414247,B,587.0417999103665,Correct,sub_004_day_17_data.csv,1,300,188.0,Training at home,,,,,,,,,,,,,
4,20,4711,B,78.89878396307785,51.988672702119494,3.944939198153892,0.8166361611543141,B,552.2786999354139,Correct,sub_004_day_17_data.csv,1,300,188.0,Training at home,,,,,,,,,,,,,
4,20,4712,A,33.410360030817934,45.6413245871259,1.6705180015408967,0.7169322501151095,A,2272.341599920765,Correct,sub_004_day_17_data.csv,1,300,188.0,Training at home,,,,,,,,,,,,,
4,20,4713,B,63.009655006074375,50.649953759572256,3.150482750303719,0.7956076131786746,B,3255.0661999266595,Correct,sub_004_day_17_data.csv,1,300,188.0,Training at home,,,,,,,,,,,,,
4,20,4714,B,80.80068748945021,65.34518564025697,4.04003437447251,1.0264397757744628,B,6941.925499937497,Correct,sub_004_day_17_data.csv,1,300,188.0,Training at home,,,,,,,,,,,,,
4,20,4715,A,52.54391641249744,82.24018596393738,2.6271958206248716,1.2918258202708206,A,1976.2496000621468,Correct,sub_004_day_17_data.csv,1,300,188.0,Training at home,,,,,,,,,,,,,
4,20,4716,A,62.56339656566687,76.11467119075277,3.128169828283343,1.1956064592163578,B,1089.7206999361515,Incorrect,sub_004_day_17_data.csv,0,300,188.0,Training at home,,,,,,,,,,,,,
4,20,4717,A,68.52674433603262,82.17795940495276,3.426337216801631,1.2908483677679992,A,381.9762000348419,Correct,sub_004_day_17_data.csv,1,300,188.0,Training at home,,,,,,,,,,,,,
4,20,4718,B,73.6434182702183,54.92422202252809,3.682170913510915,0.8627476620505449,B,541.8048000428826,Correct,sub_004_day_17_data.csv,1,300,188.0,Training at home,,,,,,,,,,,,,
4,20,4719,A,50.14427273065302,66.55703334748029,2.507213636532651,1.0454754350458748,B,508.7193999206647,Incorrect,sub_004_day_17_data.csv,0,300,188.0,Training at home,,,,,,,,,,,,,
4,20,4720,B,48.33987173290515,31.219768573332075,2.4169935866452574,0.4903989779837677,B,441.03959994390607,Correct,sub_004_day_17_data.csv,1,300,188.0,Training at home,,,,,,,,,,,,,
4,20,4721,B,52.82614459127556,45.260895705426954,2.6413072295637776,0.7109564872153157,B,603.4145000157878,Correct,sub_004_day_17_data.csv,1,300,188.0,Training at home,,,,,,,,,,,,,
4,20,4722,A,51.12959428532264,64.36229488046405,2.556479714266132,1.011000563823229,A,3484.751099953428,Correct,sub_004_day_17_data.csv,1,300,188.0,Training at home,,,,,,,,,,,,,
4,20,4723,B,39.51067846924235,13.085322470909542,1.9755339234621176,0.2055437647223143,B,843.6139000114053,Correct,sub_004_day_17_data.csv,1,300,188.0,Training at home,,,,,,,,,,,,,
4,20,4724,B,71.56150458569691,43.332533372882935,3.5780752292848454,0.6806658425284179,B,1499.9831999884918,Correct,sub_004_day_17_data.csv,1,300,188.0,Training at home,,,,,,,,,,,,,
4,20,4725,A,59.85915467833521,71.13001208432487,2.9929577339167603,1.117307617069341,B,1714.3016000045463,Incorrect,sub_004_day_17_data.csv,0,300,189.0,Training at home,,,,,,,,,,,,,
4,20,4726,B,34.95093050747222,14.2218264622281,1.7475465253736109,0.2233959276718236,B,1464.877999969758,Correct,sub_004_day_17_data.csv,1,300,189.0,Training at home,,,,,,,,,,,,,
4,20,4727,B,72.05632546999594,56.90058802560456,3.6028162734997973,0.8937923466308932,A,622.5408000173047,Incorrect,sub_004_day_17_data.csv,0,300,189.0,Training at home,,,,,,,,,,,,,
4,20,4728,B,49.629049141673306,26.515231438661743,2.481452457083665,0.4165002814796642,B,575.8271999657154,Correct,sub_004_day_17_data.csv,1,300,189.0,Training at home,,,,,,,,,,,,,
4,20,4729,B,46.36134299567769,17.017822268994777,2.3180671497838845,0.2673153271018539,B,498.9820999326184,Correct,sub_004_day_17_data.csv,1,300,189.0,Training at home,,,,,,,,,,,,,
4,20,4730,A,43.429780490225745,56.91249797677766,2.171489024511287,0.8939794277064433,A,1012.4379999469966,Correct,sub_004_day_17_data.csv,1,300,189.0,Training at home,,,,,,,,,,,,,
4,20,4731,A,18.34755106846389,43.37851294775305,0.9173775534231944,0.6813880880015536,A,2988.3656000019982,Correct,sub_004_day_17_data.csv,1,300,189.0,Training at home,,,,,,,,,,,,,
4,20,4732,A,57.014305858421515,80.95011725331415,2.850715292921076,1.2715614683512204,A,571.8665000749752,Correct,sub_004_day_17_data.csv,1,300,189.0,Training at home,,,,,,,,,,,,,
4,20,4733,B,85.17707145720553,58.61435647960833,4.258853572860277,0.920712158556154,B,632.3818999808282,Correct,sub_004_day_17_data.csv,1,300,189.0,Training at home,,,,,,,,,,,,,
4,20,4734,B,82.63562854217962,59.00452445424014,4.131781427108981,0.9268409027700008,B,525.4488000646234,Correct,sub_004_day_17_data.csv,1,300,189.0,Training at home,,,,,,,,,,,,,
4,20,4735,B,61.63267651349974,48.81707430747671,3.0816338256749867,0.7668168100705794,B,445.6745000788942,Correct,sub_004_day_17_data.csv,1,300,189.0,Training at home,,,,,,,,,,,,,
4,20,4736,B,59.391223030550805,51.46207082025899,2.9695611515275404,0.8083643181372165,B,425.4170999629423,Correct,sub_004_day_17_data.csv,1,300,189.0,Training at home,,,,,,,,,,,,,
4,20,4737,A,51.22848570788051,67.53115975923072,2.5614242853940254,1.0607769769399895,B,773.2076999964193,Incorrect,sub_004_day_17_data.csv,0,300,189.0,Training at home,,,,,,,,,,,,,
4,20,4738,B,72.3906841441512,61.24220890666331,3.6195342072075594,0.9619903679539242,B,1244.3480000365523,Correct,sub_004_day_17_data.csv,1,300,189.0,Training at home,,,,,,,,,,,,,
4,20,4739,B,45.848388183105875,33.79074796609859,2.292419409155294,0.5307838278479978,B,3680.737899965606,Correct,sub_004_day_17_data.csv,1,300,189.0,Training at home,,,,,,,,,,,,,
4,20,4740,A,60.53164681649581,84.40476471455818,3.0265823408247905,1.3258269437761547,A,580.2728999406099,Correct,sub_004_day_17_data.csv,1,300,189.0,Training at home,,,,,,,,,,,,,
4,20,4741,A,20.47408156032588,42.98441739158591,1.023704078016294,0.6751976494812181,A,690.1378999464214,Correct,sub_004_day_17_data.csv,1,300,189.0,Training at home,,,,,,,,,,,,,
4,20,4742,A,52.11206795557375,65.5135361982571,2.6056033977786877,1.0290842201556676,B,1406.9790999637917,Incorrect,sub_004_day_17_data.csv,0,300,189.0,Training at home,,,,,,,,,,,,,
4,20,4743,B,38.21251204383789,16.603306307193673,1.9106256021918944,0.2608041255999035,B,625.0422999728471,Correct,sub_004_day_17_data.csv,1,300,189.0,Training at home,,,,,,,,,,,,,
4,20,4744,B,69.88597773519648,43.79811918433729,3.494298886759824,0.687979247352821,B,505.0853000720963,Correct,sub_004_day_17_data.csv,1,300,189.0,Training at home,,,,,,,,,,,,,
4,20,4745,A,39.91927738290777,51.11966964553381,1.9959638691453887,0.8029858930617308,B,380.7023999979719,Incorrect,sub_004_day_17_data.csv,0,300,189.0,Training at home,,,,,,,,,,,,,
4,20,4746,B,83.24808120335497,56.60816841753865,4.1624040601677486,0.8891990301685658,B,1237.6532000489533,Correct,sub_004_day_17_data.csv,1,300,189.0,Training at home,,,,,,,,,,,,,
4,20,4747,A,13.701462971036008,41.88615012672376,0.6850731485518005,0.6579461076263728,A,368.28209995292127,Correct,sub_004_day_17_data.csv,1,300,189.0,Training at home,,,,,,,,,,,,,
4,20,4748,B,75.07618778836458,57.422021048011,3.7538093894182287,0.9019829973935491,B,475.9402999188751,Correct,sub_004_day_17_data.csv,1,300,189.0,Training at home,,,,,,,,,,,,,
4,20,4749,B,63.84819823195486,53.49560572134641,3.192409911597743,0.84030700966759,A,1198.385399999097,Incorrect,sub_004_day_17_data.csv,0,300,189.0,Training at home,,,,,,,,,,,,,
4,20,4750,A,38.15998263795266,70.7768940756105,1.9079991318976328,1.1117608523592046,B,1639.848299906589,Incorrect,sub_004_day_17_data.csv,0,300,190.0,Training at home,,,,,,,,,,,,,
4,20,4751,B,45.98927526621877,19.94578301280514,2.2994637633109387,0.3133076269156236,B,3179.1089000180364,Correct,sub_004_day_17_data.csv,1,300,190.0,Training at home,,,,,,,,,,,,,
4,20,4752,A,22.20704372570631,42.9550021079866,1.1103521862853156,0.674735595286924,A,602.313100011088,Correct,sub_004_day_17_data.csv,1,300,190.0,Training at home,,,,,,,,,,,,,
4,20,4753,B,42.68311456378723,26.876654655382794,2.1341557281893615,0.4221775040921025,B,160482.0066000102,Correct,sub_004_day_17_data.csv,1,300,190.0,Training at home,,,,,,,,,,,,,
4,20,4754,B,41.1157275252564,16.135955494774695,2.0557863762628203,0.2534629962051801,B,471.29469993524253,Correct,sub_004_day_17_data.csv,1,300,190.0,Training at home,,,,,,,,,,,,,
4,20,4755,A,22.021465603315892,36.423042969787275,1.1010732801657943,0.5721318210763453,A,507.1860000025481,Correct,sub_004_day_17_data.csv,1,300,190.0,Training at home,,,,,,,,,,,,,
4,20,4756,A,47.127053150999075,66.89177785894863,2.356352657549954,1.050733589536167,A,452.69700000062585,Correct,sub_004_day_17_data.csv,1,300,190.0,Training at home,,,,,,,,,,,,,
4,20,4757,B,49.867798207188294,28.51065951986897,2.4933899103594146,0.4478443924831012,B,426.6728999791667,Correct,sub_004_day_17_data.csv,1,300,190.0,Training at home,,,,,,,,,,,,,
4,20,4758,B,51.4743715211898,29.95105752567816,2.57371857605949,0.4704701114495789,B,815.8955000108108,Correct,sub_004_day_17_data.csv,1,300,190.0,Training at home,,,,,,,,,,,,,
4,20,4759,A,59.653521262435355,76.57635280480396,2.982676063121768,1.2028585370513614,B,578.771400032565,Incorrect,sub_004_day_17_data.csv,0,300,190.0,Training at home,,,,,,,,,,,,,
4,20,4760,A,35.48692367365991,59.79121810609585,1.7743461836829957,0.9391982577564786,A,1970.6469000084328,Correct,sub_004_day_17_data.csv,1,300,190.0,Training at home,,,,,,,,,,,,,
4,20,4761,B,81.04005375958995,62.36265457109904,4.052002687979498,0.9795902872946132,B,8799.860200029798,Correct,sub_004_day_17_data.csv,1,300,190.0,Training at home,,,,,,,,,,,,,
4,20,4762,A,47.56517951464758,69.83382881573922,2.378258975732379,1.0969472178978676,A,926.3161999406292,Correct,sub_004_day_17_data.csv,1,300,190.0,Training at home,,,,,,,,,,,,,
4,20,4763,A,57.54857923943436,77.10987263546602,2.8774289619717184,1.2112390469541232,A,797.2595000173897,Correct,sub_004_day_17_data.csv,1,300,190.0,Training at home,,,,,,,,,,,,,
4,20,4764,A,24.211859018497627,48.21764454485586,1.2105929509248812,0.7574009893776157,A,724.3910999968648,Correct,sub_004_day_17_data.csv,1,300,190.0,Training at home,,,,,,,,,,,,,
4,20,4765,A,46.27608553139352,64.00279008094866,2.313804276569676,1.00535347563779,B,1225.8901000022888,Incorrect,sub_004_day_17_data.csv,0,300,190.0,Training at home,,,,,,,,,,,,,
4,20,4766,A,41.90624004508209,52.60807622483641,2.0953120022541047,0.8263657289371896,B,795.958700007759,Incorrect,sub_004_day_17_data.csv,0,300,190.0,Training at home,,,,,,,,,,,,,
4,20,4767,B,70.28219135264446,59.18201741287315,3.5141095676322234,0.9296289556445276,B,1196.7871999368072,Correct,sub_004_day_17_data.csv,1,300,190.0,Training at home,,,,,,,,,,,,,
4,20,4768,B,60.29622771780679,48.549979430516046,3.0148113858903396,0.7626212935542238,B,656.5947000635788,Correct,sub_004_day_17_data.csv,1,300,190.0,Training at home,,,,,,,,,,,,,
4,20,4769,A,43.25139849258252,57.94148234473241,2.162569924629126,0.91014267636157,A,665.0825999677181,Correct,sub_004_day_17_data.csv,1,300,190.0,Training at home,,,,,,,,,,,,,
4,20,4770,A,55.09276499440263,82.05554924840885,2.754638249720131,1.2889255535253836,A,578.7960001034662,Correct,sub_004_day_17_data.csv,1,300,190.0,Training at home,,,,,,,,,,,,,
4,20,4771,A,56.20473568700993,74.94709703809818,2.8102367843504963,1.1772662473138529,A,441.4196000434458,Correct,sub_004_day_17_data.csv,1,300,190.0,Training at home,,,,,,,,,,,,,
4,20,4772,B,58.516513105510725,48.18141250765791,2.9258256552755366,0.7568318578681873,B,479.09460007213056,Correct,sub_004_day_17_data.csv,1,300,190.0,Training at home,,,,,,,,,,,,,
4,20,4773,B,70.0003684858031,37.06921038994061,3.500018424290155,0.5822817951770592,B,343.81719992961735,Correct,sub_004_day_17_data.csv,1,300,190.0,Training at home,,,,,,,,,,,,,
4,20,4774,A,64.24110655169805,83.54226946787809,3.212055327584902,1.3122789001225232,A,582.0534999947995,Correct,sub_004_day_17_data.csv,1,300,190.0,Training at home,,,,,,,,,,,,,
4,20,4775,B,39.27412182258321,29.384065022431106,1.9637060911291604,0.4615638140353718,B,1395.9067000541836,Correct,sub_004_day_17_data.csv,1,300,191.0,Training at home,,,,,,,,,,,,,
4,20,4776,B,46.13295431995112,38.51788256157776,2.306647715997556,0.6050374844364356,B,883.917500032112,Correct,sub_004_day_17_data.csv,1,300,191.0,Training at home,,,,,,,,,,,,,
4,20,4777,B,74.86357590624351,45.89589273584645,3.743178795312176,0.7209309972444018,B,1318.9319999655709,Correct,sub_004_day_17_data.csv,1,300,191.0,Training at home,,,,,,,,,,,,,
4,20,4778,A,34.96399326800771,49.046307952448124,1.7481996634003856,0.7704176037455683,A,639.3836999777704,Correct,sub_004_day_17_data.csv,1,300,191.0,Training at home,,,,,,,,,,,,,
4,20,4779,A,40.756623936923475,55.38588327247744,2.0378311968461738,0.8699994200069848,B,1058.3659000694752,Incorrect,sub_004_day_17_data.csv,0,300,191.0,Training at home,,,,,,,,,,,,,
4,20,4780,A,17.851375707226723,44.34406682724905,0.8925687853613361,0.6965549728739023,A,823.8123999908566,Correct,sub_004_day_17_data.csv,1,300,191.0,Training at home,,,,,,,,,,,,,
4,20,4781,A,52.54471070823823,73.15273246009167,2.627235535411911,1.149080434433218,A,1508.6139000486585,Correct,sub_004_day_17_data.csv,1,300,191.0,Training at home,,,,,,,,,,,,,
4,20,4782,A,33.63924555677123,66.63654613318097,1.6819622778385617,1.0467244189629934,A,8281.619400018826,Correct,sub_004_day_17_data.csv,1,300,191.0,Training at home,,,,,,,,,,,,,
4,20,4783,A,25.658661385096867,40.06365684322229,1.2829330692548433,0.629318450073048,A,667.6711000036448,Correct,sub_004_day_17_data.csv,1,300,191.0,Training at home,,,,,,,,,,,,,
4,20,4784,A,29.68465865472732,59.37510444780428,1.484232932736366,0.9326619596967428,A,1146.8854999402538,Correct,sub_004_day_17_data.csv,1,300,191.0,Training at home,,,,,,,,,,,,,
4,20,4785,B,48.47376561865366,34.896234026311745,2.4236882809326827,0.5481487622750557,B,1251.9336999394,Correct,sub_004_day_17_data.csv,1,300,191.0,Training at home,,,,,,,,,,,,,
4,20,4786,B,34.316330855121045,14.280163120456455,1.715816542756052,0.2243122777564495,B,1346.7447999864817,Correct,sub_004_day_17_data.csv,1,300,191.0,Training at home,,,,,,,,,,,,,
4,20,4787,A,56.11784190783073,80.31628345596432,2.8058920953915365,1.261605230344465,A,1156.3113000011072,Correct,sub_004_day_17_data.csv,1,300,191.0,Training at home,,,,,,,,,,,,,
4,20,4788,A,20.16864674886127,40.72694651097088,1.0084323374430637,0.6397373798100529,A,1115.685399970971,Correct,sub_004_day_17_data.csv,1,300,191.0,Training at home,,,,,,,,,,,,,
4,20,4789,B,87.18243871775489,65.53508857350388,4.359121935887745,1.0294227640743807,B,14267.262600013057,Correct,sub_004_day_17_data.csv,1,300,191.0,Training at home,,,,,,,,,,,,,
4,20,4790,B,46.882413199767335,36.48912147164775,2.344120659988367,0.5731697797563707,B,2156.481900019571,Correct,sub_004_day_17_data.csv,1,300,191.0,Training at home,,,,,,,,,,,,,
4,20,4791,B,49.72714231981816,37.34357763102961,2.4863571159909084,0.5865915457220137,B,4005.4320000344887,Correct,sub_004_day_17_data.csv,1,300,191.0,Training at home,,,,,,,,,,,,,
4,20,4792,A,36.84954399793802,51.52123031905939,1.842477199896901,0.8092935933713236,B,1120.6498000537977,Incorrect,sub_004_day_17_data.csv,0,300,191.0,Training at home,,,,,,,,,,,,,
4,20,4793,B,35.04162756359618,20.52686966391421,1.752081378179809,0.3224353146867403,B,1005.0601999973878,Correct,sub_004_day_17_data.csv,1,300,191.0,Training at home,,,,,,,,,,,,,
4,20,4794,A,37.754280497662606,57.4602595245084,1.88771402488313,0.9025836459777928,A,546.9080000184476,Correct,sub_004_day_17_data.csv,1,300,191.0,Training at home,,,,,,,,,,,,,
4,20,4795,B,39.05671115604965,19.366718037895303,1.952835557802482,0.3042116955599841,B,1171.4174000080675,Correct,sub_004_day_17_data.csv,1,300,191.0,Training at home,,,,,,,,,,,,,
4,20,4796,A,31.199378834662507,47.02146620838052,1.5599689417331255,0.7386114640063448,A,21220.975399948657,Correct,sub_004_day_17_data.csv,1,300,191.0,Training at home,,,,,,,,,,,,,
4,20,4797,B,86.88082404088912,58.511984789214615,4.3440412020444565,0.9191041078037718,B,552.7310000034049,Correct,sub_004_day_17_data.csv,1,300,191.0,Training at home,,,,,,,,,,,,,
4,20,4798,B,43.58021962300928,31.594477276053144,2.179010981150464,0.4962848885222911,B,3567.7114999853075,Correct,sub_004_day_17_data.csv,1,300,191.0,Training at home,,,,,,,,,,,,,
4,20,4799,A,17.143128348855363,37.61898591632297,0.857156417442768,0.5909176489510907,A,576.2083999579772,Correct,sub_004_day_17_data.csv,1,300,191.0,Training at home,,,,,,,,,,,,,
