subject,day,trial,cat,x,y,xt,yt,resp,rt,fb,f_name,acc,n_trials,block,session_type,ns_left_digit,ns_right_digit,ns_left_size,ns_right_size,ns_congruent,ns_cue,ns_correct_side,ns_resp,ns_rt,ns_fb,acc_stroop,acc_stroop_mean,resp_key
4,14,3000,A,59.6372905824244,74.12084204987475,2.9818645291212196,1.1642874643088796,A,925.5246999673544,Correct,sub_004_day_12_data.csv,1,300,120.0,Training at home,,,,,,,,,,,,,
4,14,3001,B,53.22519223750472,22.93358822050569,2.661259611875236,0.3602399613699705,B,577.9639999382198,Correct,sub_004_day_12_data.csv,1,300,120.0,Training at home,,,,,,,,,,,,,
4,14,3002,A,47.364823904880026,62.679467383360446,2.3682411952440017,0.9845667713124312,A,434.0274999849498,Correct,sub_004_day_12_data.csv,1,300,120.0,Training at home,,,,,,,,,,,,,
4,14,3003,A,42.543568374895344,65.02385452589935,2.1271784187447675,1.0213923184332845,A,414.044399978593,Correct,sub_004_day_12_data.csv,1,300,120.0,Training at home,,,,,,,,,,,,,
4,14,3004,B,48.756807811002375,18.94548772759006,2.437840390550119,0.2975950253183625,B,1152.7623999863863,Correct,sub_004_day_12_data.csv,1,300,120.0,Training at home,,,,,,,,,,,,,
4,14,3005,A,20.43466908342345,50.33586615419621,1.0217334541711725,0.7906739366105097,A,562.0467999251559,Correct,sub_004_day_12_data.csv,1,300,120.0,Training at home,,,,,,,,,,,,,
4,14,3006,A,57.27998007509882,83.87029537823976,2.863999003754941,1.31743151907342,A,477.8558000689373,Correct,sub_004_day_12_data.csv,1,300,120.0,Training at home,,,,,,,,,,,,,
4,14,3007,A,41.612222420857016,70.68266558403285,2.080611121042851,1.1102807146747085,A,471.32880007848144,Correct,sub_004_day_12_data.csv,1,300,120.0,Training at home,,,,,,,,,,,,,
4,14,3008,A,28.653188455594737,46.28998157802977,1.432659422779737,0.7271213303017259,A,497.3312000511214,Correct,sub_004_day_12_data.csv,1,300,120.0,Training at home,,,,,,,,,,,,,
4,14,3009,B,48.207964139330045,22.170664166925107,2.4103982069665024,0.3482559783600919,B,452.695699990727,Correct,sub_004_day_12_data.csv,1,300,120.0,Training at home,,,,,,,,,,,,,
4,14,3010,A,33.03677930215409,60.78564785928175,1.6518389651077043,0.9548187237920784,A,436.8426000000909,Correct,sub_004_day_12_data.csv,1,300,120.0,Training at home,,,,,,,,,,,,,
4,14,3011,A,10.410465877316948,32.95073694378014,0.5205232938658475,0.5175889655647474,A,426.0736000724137,Correct,sub_004_day_12_data.csv,1,300,120.0,Training at home,,,,,,,,,,,,,
4,14,3012,B,39.49576842874512,15.438101792272125,1.974788421437256,0.2425011358798676,B,914.0418999595568,Correct,sub_004_day_12_data.csv,1,300,120.0,Training at home,,,,,,,,,,,,,
4,14,3013,A,33.06475050502733,57.571154705092816,1.6532375252513662,0.9043255834010052,A,353.6727000027895,Correct,sub_004_day_12_data.csv,1,300,120.0,Training at home,,,,,,,,,,,,,
4,14,3014,A,57.46434289471959,77.88849891753807,2.87321714473598,1.2234696799923708,A,419.5651999907568,Correct,sub_004_day_12_data.csv,1,300,120.0,Training at home,,,,,,,,,,,,,
4,14,3015,B,34.779126575453766,20.43167910896771,1.7389563287726884,0.320940064946185,B,1689.3958000000566,Correct,sub_004_day_12_data.csv,1,300,120.0,Training at home,,,,,,,,,,,,,
4,14,3016,B,38.733086198542445,26.33011952710668,1.9366543099271225,0.4135925503724976,B,701.3793000951409,Correct,sub_004_day_12_data.csv,1,300,120.0,Training at home,,,,,,,,,,,,,
4,14,3017,A,50.41950559531137,58.51112516232624,2.5209752797655685,0.919090604816185,B,1123.5772999934852,Incorrect,sub_004_day_12_data.csv,0,300,120.0,Training at home,,,,,,,,,,,,,
4,14,3018,A,51.47616045012452,69.61051489191583,2.573808022506226,1.0934394109852283,A,510.584200033918,Correct,sub_004_day_12_data.csv,1,300,120.0,Training at home,,,,,,,,,,,,,
4,14,3019,A,21.863373854174668,39.442145546480205,1.0931686927087334,0.619555773453208,A,794.1079000011086,Correct,sub_004_day_12_data.csv,1,300,120.0,Training at home,,,,,,,,,,,,,
4,14,3020,B,69.15891065977657,60.11524353365404,3.457945532988828,0.9442880372704442,B,542.8983999881893,Correct,sub_004_day_12_data.csv,1,300,120.0,Training at home,,,,,,,,,,,,,
4,14,3021,B,66.76087336394099,48.52008072105755,3.338043668197049,0.7621516457242907,B,5084.654800011776,Correct,sub_004_day_12_data.csv,1,300,120.0,Training at home,,,,,,,,,,,,,
4,14,3022,B,77.31757715434179,47.32781459794137,3.8658788577170897,0.7434235732567618,B,2607.686100061983,Correct,sub_004_day_12_data.csv,1,300,120.0,Training at home,,,,,,,,,,,,,
4,14,3023,B,70.14325256037941,46.57091140514429,3.5071626280189707,0.731534165706912,B,1640.5054000206292,Correct,sub_004_day_12_data.csv,1,300,120.0,Training at home,,,,,,,,,,,,,
4,14,3024,B,64.41776432114052,31.97119087124224,3.220888216057026,0.5022022918380584,B,1255.206799949519,Correct,sub_004_day_12_data.csv,1,300,120.0,Training at home,,,,,,,,,,,,,
4,14,3025,A,55.62122794365193,72.92183959767189,2.781061397182597,1.1454535778314965,A,821.8707999913022,Correct,sub_004_day_12_data.csv,1,300,121.0,Training at home,,,,,,,,,,,,,
4,14,3026,B,70.91304683618313,40.85350147492686,3.545652341809157,0.6417253005352499,B,853.1478999648243,Correct,sub_004_day_12_data.csv,1,300,121.0,Training at home,,,,,,,,,,,,,
4,14,3027,B,61.454250516214046,46.35873779628482,3.072712525810702,0.7282013504525193,B,1866.1548999371007,Correct,sub_004_day_12_data.csv,1,300,121.0,Training at home,,,,,,,,,,,,,
4,14,3028,A,46.45829660474931,55.58790351054034,2.322914830237466,0.8731727464858591,A,866.9054999481887,Correct,sub_004_day_12_data.csv,1,300,121.0,Training at home,,,,,,,,,,,,,
4,14,3029,B,84.48380716506968,66.22355508668485,4.224190358253484,1.0402371707746407,B,2858.25010004919,Correct,sub_004_day_12_data.csv,1,300,121.0,Training at home,,,,,,,,,,,,,
4,14,3030,A,47.20260477070029,74.88449429569766,2.3601302385350147,1.1762828857357528,A,697.9902999009937,Correct,sub_004_day_12_data.csv,1,300,121.0,Training at home,,,,,,,,,,,,,
4,14,3031,A,29.022593546646338,51.34108310730824,1.4511296773323168,0.806463847586313,A,936.5122999297456,Correct,sub_004_day_12_data.csv,1,300,121.0,Training at home,,,,,,,,,,,,,
4,14,3032,A,41.975802576526974,67.7760769145304,2.098790128826349,1.0646241266191274,A,1089.5211999304593,Correct,sub_004_day_12_data.csv,1,300,121.0,Training at home,,,,,,,,,,,,,
4,14,3033,B,50.446081205621034,41.10836657038891,2.522304060281052,0.6457287120930502,B,1844.7534999577329,Correct,sub_004_day_12_data.csv,1,300,121.0,Training at home,,,,,,,,,,,,,
4,14,3034,B,69.88404019025342,44.9100110597915,3.4942020095126707,0.7054448040903867,B,4436.160999932326,Correct,sub_004_day_12_data.csv,1,300,121.0,Training at home,,,,,,,,,,,,,
4,14,3035,B,57.585201714005784,28.18215064426016,2.879260085700289,0.4426841871318429,B,3881.951699964702,Correct,sub_004_day_12_data.csv,1,300,121.0,Training at home,,,,,,,,,,,,,
4,14,3036,B,56.00495673110766,34.533565635499556,2.8002478365553833,0.5424519805137318,B,1333.9944999897853,Correct,sub_004_day_12_data.csv,1,300,121.0,Training at home,,,,,,,,,,,,,
4,14,3037,A,60.56381458484814,76.7569177864033,3.028190729242407,1.2056948451498015,A,1402.2462000139058,Correct,sub_004_day_12_data.csv,1,300,121.0,Training at home,,,,,,,,,,,,,
4,14,3038,B,44.97348683023096,19.97228070764316,2.248674341511548,0.3137238517328245,B,1646.5978999622166,Correct,sub_004_day_12_data.csv,1,300,121.0,Training at home,,,,,,,,,,,,,
4,14,3039,A,45.83639735659345,68.51412857712074,2.291819867829673,1.0762174150249453,A,2939.4016000442207,Correct,sub_004_day_12_data.csv,1,300,121.0,Training at home,,,,,,,,,,,,,
4,14,3040,A,59.27731342987006,67.8003654791853,2.9638656714935028,1.0650056505005578,A,689.9880000855774,Correct,sub_004_day_12_data.csv,1,300,121.0,Training at home,,,,,,,,,,,,,
4,14,3041,B,36.6492407527635,13.628717548828874,1.8324620376381748,0.2140793946462554,B,3833.352699992247,Correct,sub_004_day_12_data.csv,1,300,121.0,Training at home,,,,,,,,,,,,,
4,14,3042,A,49.24984359925623,77.57956309779144,2.462492179962811,1.218616927483637,A,993.9301999984308,Correct,sub_004_day_12_data.csv,1,300,121.0,Training at home,,,,,,,,,,,,,
4,14,3043,A,56.20005964861936,71.95654781392088,2.8100029824309676,1.1302908099494826,A,518.2518999790773,Correct,sub_004_day_12_data.csv,1,300,121.0,Training at home,,,,,,,,,,,,,
4,14,3044,B,51.473253782403674,22.516070212110527,2.5736626891201837,0.353681603830392,B,1186.0785000026226,Correct,sub_004_day_12_data.csv,1,300,121.0,Training at home,,,,,,,,,,,,,
4,14,3045,A,43.54452962289578,64.94326823300017,2.177226481144789,1.0201264719045235,A,680.4502999875695,Correct,sub_004_day_12_data.csv,1,300,121.0,Training at home,,,,,,,,,,,,,
4,14,3046,A,49.82453618692788,70.8876171023594,2.491226809346394,1.1135000855962922,A,811.8170999223366,Correct,sub_004_day_12_data.csv,1,300,121.0,Training at home,,,,,,,,,,,,,
4,14,3047,A,19.178536580431697,35.101613783149865,0.9589268290215848,0.5513748599514491,A,799.3798000970855,Correct,sub_004_day_12_data.csv,1,300,121.0,Training at home,,,,,,,,,,,,,
4,14,3048,B,56.5175256556156,28.67900828189034,2.82587628278078,0.4504888086531377,B,1128.2136999070644,Correct,sub_004_day_12_data.csv,1,300,121.0,Training at home,,,,,,,,,,,,,
4,14,3049,B,53.90357940633665,40.08999944894858,2.695178970316832,0.6297322387561786,B,1539.0489000128582,Correct,sub_004_day_12_data.csv,1,300,121.0,Training at home,,,,,,,,,,,,,
4,14,3050,A,33.306169474251334,54.03665720622259,1.6653084737125667,0.8488058265180942,A,909.5323999645188,Correct,sub_004_day_12_data.csv,1,300,122.0,Training at home,,,,,,,,,,,,,
4,14,3051,A,53.120981255102336,77.34859640136078,2.6560490627551165,1.2149889110999843,A,1120.2822000486776,Correct,sub_004_day_12_data.csv,1,300,122.0,Training at home,,,,,,,,,,,,,
4,14,3052,B,72.63337273998334,44.39139464459353,3.631668636999167,0.6972983964903017,B,1211.6211000829935,Correct,sub_004_day_12_data.csv,1,300,122.0,Training at home,,,,,,,,,,,,,
4,14,3053,B,48.747734577865074,23.520591939359043,2.437386728893254,0.3694605942238684,B,2037.3938999837264,Correct,sub_004_day_12_data.csv,1,300,122.0,Training at home,,,,,,,,,,,,,
4,14,3054,A,68.32219146342655,81.72249552237899,3.4161095731713274,1.283693957830653,A,4796.112600015476,Correct,sub_004_day_12_data.csv,1,300,122.0,Training at home,,,,,,,,,,,,,
4,14,3055,A,29.05692970248277,49.08370803097854,1.4528464851241385,0.7710050828053425,A,7286.170199979097,Correct,sub_004_day_12_data.csv,1,300,122.0,Training at home,,,,,,,,,,,,,
4,14,3056,B,36.02872064447705,22.680868897511093,1.8014360322238523,0.3562702555272704,A,4498.588799964637,Incorrect,sub_004_day_12_data.csv,0,300,122.0,Training at home,,,,,,,,,,,,,
4,14,3057,B,56.75173827114458,44.692390389081005,2.83758691355723,0.7020264265885198,A,16436.33009993937,Incorrect,sub_004_day_12_data.csv,0,300,122.0,Training at home,,,,,,,,,,,,,
4,14,3058,B,87.42183915207157,69.96799101057255,4.3710919576035785,1.099054632726257,B,3524.7727000387385,Correct,sub_004_day_12_data.csv,1,300,122.0,Training at home,,,,,,,,,,,,,
4,14,3059,A,32.0303182055206,61.05244385304714,1.60151591027603,0.959009545462181,A,1478.8540999870747,Correct,sub_004_day_12_data.csv,1,300,122.0,Training at home,,,,,,,,,,,,,
4,14,3060,A,23.964899592568575,42.630604918199296,1.198244979628429,0.6696399761455191,A,4248.876300058328,Correct,sub_004_day_12_data.csv,1,300,122.0,Training at home,,,,,,,,,,,,,
4,14,3061,A,67.54604195824858,86.25843950618004,3.3773020979124286,1.354944399313674,A,3412.682499969378,Correct,sub_004_day_12_data.csv,1,300,122.0,Training at home,,,,,,,,,,,,,
4,14,3062,A,36.02803192270117,64.25434295502359,1.8014015961350582,1.009304858943706,A,3841.240999987349,Correct,sub_004_day_12_data.csv,1,300,122.0,Training at home,,,,,,,,,,,,,
4,14,3063,B,49.14088482978123,41.42656717761528,2.4570442414890614,0.6507269955432009,A,4216.665899963118,Incorrect,sub_004_day_12_data.csv,0,300,122.0,Training at home,,,,,,,,,,,,,
4,14,3064,A,33.709777053186485,60.27061143687246,1.6854888526593244,0.9467285505872172,A,4735.962899983861,Correct,sub_004_day_12_data.csv,1,300,122.0,Training at home,,,,,,,,,,,,,
4,14,3065,A,47.9874614858803,61.75291802451746,2.399373074294015,0.970012568017784,A,5446.778899990022,Correct,sub_004_day_12_data.csv,1,300,122.0,Training at home,,,,,,,,,,,,,
4,14,3066,B,79.51918221624554,49.081359722478496,3.975959110812277,0.7709681956616821,B,1041.2860000506043,Correct,sub_004_day_12_data.csv,1,300,122.0,Training at home,,,,,,,,,,,,,
4,14,3067,A,17.242873993514976,47.0568203363609,0.8621436996757488,0.739166805350031,A,752.53449997399,Correct,sub_004_day_12_data.csv,1,300,122.0,Training at home,,,,,,,,,,,,,
4,14,3068,B,56.20649274673983,32.91912301149118,2.8103246373369917,0.517092375077597,B,1060.638300026767,Correct,sub_004_day_12_data.csv,1,300,122.0,Training at home,,,,,,,,,,,,,
4,14,3069,B,84.86195866863481,58.05180103490859,4.2430979334317405,0.911875558294626,B,901.4169999863952,Correct,sub_004_day_12_data.csv,1,300,122.0,Training at home,,,,,,,,,,,,,
4,14,3070,A,21.218074818260092,48.10238403315981,1.0609037409130049,0.755590481493649,A,48546.71360005159,Correct,sub_004_day_12_data.csv,1,300,122.0,Training at home,,,,,,,,,,,,,
4,14,3071,B,74.0506590810536,48.99069662704187,3.70253295405268,0.769544063088805,B,1769.0257999347525,Correct,sub_004_day_12_data.csv,1,300,122.0,Training at home,,,,,,,,,,,,,
4,14,3072,A,26.65922479478582,39.561821623196344,1.332961239739291,0.6214356408703173,A,1170.1572999591008,Correct,sub_004_day_12_data.csv,1,300,122.0,Training at home,,,,,,,,,,,,,
4,14,3073,B,39.53498253619789,25.459919457542927,1.9767491268098945,0.3999234796440234,B,1497.7265000343325,Correct,sub_004_day_12_data.csv,1,300,122.0,Training at home,,,,,,,,,,,,,
4,14,3074,A,25.793997110685943,53.99530684994666,1.2896998555342971,0.8481562966405952,A,2909.9141000770032,Correct,sub_004_day_12_data.csv,1,300,122.0,Training at home,,,,,,,,,,,,,
4,14,3075,B,82.98288119580883,64.30863075280399,4.149144059790442,1.010157609677138,B,1156.2127000652254,Correct,sub_004_day_12_data.csv,1,300,123.0,Training at home,,,,,,,,,,,,,
4,14,3076,A,35.146294754512624,43.594227599051,1.757314737725631,0.6847765258205001,A,1185.2571000345051,Correct,sub_004_day_12_data.csv,1,300,123.0,Training at home,,,,,,,,,,,,,
4,14,3077,B,87.27829043576791,69.5098327426004,4.363914521788396,1.0918578994820434,A,4258.772700093687,Incorrect,sub_004_day_12_data.csv,0,300,123.0,Training at home,,,,,,,,,,,,,
4,14,3078,B,48.79723020337891,24.666085175817347,2.439861510168946,0.3874539599058393,A,1437.6197999808935,Incorrect,sub_004_day_12_data.csv,0,300,123.0,Training at home,,,,,,,,,,,,,
4,14,3079,B,74.26058822716044,51.62145597783359,3.713029411358022,0.8108679343378545,B,6774.747899966314,Correct,sub_004_day_12_data.csv,1,300,123.0,Training at home,,,,,,,,,,,,,
4,14,3080,B,61.731661746574645,49.425004458887734,3.0865830873287323,0.7763661545584223,A,2147.9837999213487,Incorrect,sub_004_day_12_data.csv,0,300,123.0,Training at home,,,,,,,,,,,,,
4,14,3081,B,83.93215727545781,63.96980795145676,4.196607863772891,1.0048353935592325,B,1448.8494000397625,Correct,sub_004_day_12_data.csv,1,300,123.0,Training at home,,,,,,,,,,,,,
4,14,3082,A,22.99439700393916,51.13072824553672,1.149719850196958,0.8031596011443715,A,497.8734999895096,Correct,sub_004_day_12_data.csv,1,300,123.0,Training at home,,,,,,,,,,,,,
4,14,3083,A,15.969388318855165,37.619016404376254,0.7984694159427582,0.5909181278563118,A,959.5762001117693,Correct,sub_004_day_12_data.csv,1,300,123.0,Training at home,,,,,,,,,,,,,
4,14,3084,A,24.417370943009885,51.544914694645854,1.2208685471504943,0.8096656266730599,A,537.3707000399008,Correct,sub_004_day_12_data.csv,1,300,123.0,Training at home,,,,,,,,,,,,,
4,14,3085,A,48.53890299548583,66.33514522440743,2.4269451497742915,1.041990024559052,A,585.1908000186086,Correct,sub_004_day_12_data.csv,1,300,123.0,Training at home,,,,,,,,,,,,,
4,14,3086,A,46.932936243454655,66.37176887120799,2.346646812172733,1.0425653074577337,A,875.0672000460327,Correct,sub_004_day_12_data.csv,1,300,123.0,Training at home,,,,,,,,,,,,,
4,14,3087,A,43.48931157044492,73.08272022687149,2.174465578522246,1.147980684845488,A,700.0904000597075,Correct,sub_004_day_12_data.csv,1,300,123.0,Training at home,,,,,,,,,,,,,
4,14,3088,B,61.9409671465634,54.04325668656861,3.09704835732817,0.8489094909129571,B,1400.8039999753237,Correct,sub_004_day_12_data.csv,1,300,123.0,Training at home,,,,,,,,,,,,,
4,14,3089,B,59.42837132442414,49.87019882113269,2.971418566221207,0.783359251247664,B,1685.35729998257,Correct,sub_004_day_12_data.csv,1,300,123.0,Training at home,,,,,,,,,,,,,
4,14,3090,A,45.24696403050794,70.57449915174362,2.262348201525397,1.1085816403294844,A,4698.392499936745,Correct,sub_004_day_12_data.csv,1,300,123.0,Training at home,,,,,,,,,,,,,
4,14,3091,B,70.38427421373471,52.12785519543887,3.519213710686736,0.8188224346469165,B,5344.537999946624,Correct,sub_004_day_12_data.csv,1,300,123.0,Training at home,,,,,,,,,,,,,
4,14,3092,A,45.76812967191449,69.10021117544366,2.2884064835957245,1.0854235789513855,A,729.264699970372,Correct,sub_004_day_12_data.csv,1,300,123.0,Training at home,,,,,,,,,,,,,
4,14,3093,B,51.00511673381845,31.37839078700666,2.5502558366909223,0.4928906098896488,B,1731.8038999801502,Correct,sub_004_day_12_data.csv,1,300,123.0,Training at home,,,,,,,,,,,,,
4,14,3094,A,16.066212717856047,36.46892733853593,0.8033106358928024,0.5728525710552222,A,1049.4756000116467,Correct,sub_004_day_12_data.csv,1,300,123.0,Training at home,,,,,,,,,,,,,
4,14,3095,B,74.4595051073643,54.56715376196642,3.7229752553682145,0.8571388469294918,B,8191.08750007581,Correct,sub_004_day_12_data.csv,1,300,123.0,Training at home,,,,,,,,,,,,,
4,14,3096,A,68.33213635190515,83.98941655934608,3.4166068175952575,1.319302670210673,A,968.001600005664,Correct,sub_004_day_12_data.csv,1,300,123.0,Training at home,,,,,,,,,,,,,
4,14,3097,A,51.93200761306687,69.93224503070478,2.5966003806533435,1.0984931361875172,A,2502.3291999241337,Correct,sub_004_day_12_data.csv,1,300,123.0,Training at home,,,,,,,,,,,,,
4,14,3098,B,68.30031751756668,59.63427798336477,3.4150158758783338,0.9367330480733516,B,4194.213700015098,Correct,sub_004_day_12_data.csv,1,300,123.0,Training at home,,,,,,,,,,,,,
4,14,3099,B,58.88866363352658,28.33590020609494,2.944433181676329,0.4450992796016069,B,1862.752599990927,Correct,sub_004_day_12_data.csv,1,300,123.0,Training at home,,,,,,,,,,,,,
4,14,3100,B,66.90736252831474,52.69840305403534,3.3453681264157367,0.8277845794523567,B,2351.786999963224,Correct,sub_004_day_12_data.csv,1,300,124.0,Training at home,,,,,,,,,,,,,
4,14,3101,A,19.201584519028188,34.6228931508656,0.9600792259514094,0.5438551338439187,A,6283.09389995411,Correct,sub_004_day_12_data.csv,1,300,124.0,Training at home,,,,,,,,,,,,,
4,14,3102,B,72.7316801583622,62.608106706953954,3.63658400791811,0.983445840428662,A,3108.660000027158,Incorrect,sub_004_day_12_data.csv,0,300,124.0,Training at home,,,,,,,,,,,,,
4,14,3103,A,37.00780482519838,45.88387119428994,1.850390241259919,0.720742163311208,A,4639.881600043736,Correct,sub_004_day_12_data.csv,1,300,124.0,Training at home,,,,,,,,,,,,,
4,14,3104,B,49.03135265493361,40.866671088580205,2.4515676327466807,0.6419321683427698,B,1991.296699969098,Correct,sub_004_day_12_data.csv,1,300,124.0,Training at home,,,,,,,,,,,,,
4,14,3105,A,52.032834299941705,63.82480190001651,2.601641714997085,1.002557643829579,A,1119.9891000287607,Correct,sub_004_day_12_data.csv,1,300,124.0,Training at home,,,,,,,,,,,,,
4,14,3106,B,81.25161856373295,59.41910404202103,4.062580928186647,0.9333531037065044,B,2071.572699933313,Correct,sub_004_day_12_data.csv,1,300,124.0,Training at home,,,,,,,,,,,,,
4,14,3107,B,69.98803073772066,56.55458659489521,3.4994015368860336,0.8883573688666531,B,1340.3234999859706,Correct,sub_004_day_12_data.csv,1,300,124.0,Training at home,,,,,,,,,,,,,
4,14,3108,B,38.690711049750085,13.101862843087694,1.9345355524875043,0.2058035802809269,B,4802.989799994975,Correct,sub_004_day_12_data.csv,1,300,124.0,Training at home,,,,,,,,,,,,,
4,14,3109,A,51.70153875612999,62.61635761483061,2.5850769378064995,0.983575445386516,A,4240.30390009284,Correct,sub_004_day_12_data.csv,1,300,124.0,Training at home,,,,,,,,,,,,,
4,14,3110,B,59.08128764156088,29.048450020950177,2.954064382078044,0.4562919859199367,B,1252.732599969022,Correct,sub_004_day_12_data.csv,1,300,124.0,Training at home,,,,,,,,,,,,,
4,14,3111,A,17.986484746593316,40.05983019718313,0.8993242373296658,0.6292583412576254,A,1183.5626000538468,Correct,sub_004_day_12_data.csv,1,300,124.0,Training at home,,,,,,,,,,,,,
4,14,3112,B,62.02762229868424,30.910551716507868,3.101381114934212,0.4855418109549423,B,2057.604599976912,Correct,sub_004_day_12_data.csv,1,300,124.0,Training at home,,,,,,,,,,,,,
4,14,3113,B,75.68968866146464,54.209157693219,3.784484433073232,0.851515457831537,B,4425.556399975903,Correct,sub_004_day_12_data.csv,1,300,124.0,Training at home,,,,,,,,,,,,,
4,14,3114,B,39.13975280695949,20.362223900874714,1.956987640347975,0.3198490650886924,B,3444.4385999813676,Correct,sub_004_day_12_data.csv,1,300,124.0,Training at home,,,,,,,,,,,,,
4,14,3115,A,24.075794980733868,41.04850964390968,1.2037897490366931,0.6447884816905821,A,1397.8426000103354,Correct,sub_004_day_12_data.csv,1,300,124.0,Training at home,,,,,,,,,,,,,
4,14,3116,B,47.74020896684363,30.32017188091172,2.3870104483421817,0.4762681461832604,B,1814.476800034754,Correct,sub_004_day_12_data.csv,1,300,124.0,Training at home,,,,,,,,,,,,,
4,14,3117,A,51.81068443683986,60.7370524470079,2.590534221841993,0.95405538884109,A,6436.732799978927,Correct,sub_004_day_12_data.csv,1,300,124.0,Training at home,,,,,,,,,,,,,
4,14,3118,A,27.601090918246413,49.553129142341945,1.3800545459123208,0.7783787323798387,A,4344.367799931206,Correct,sub_004_day_12_data.csv,1,300,124.0,Training at home,,,,,,,,,,,,,
4,14,3119,B,81.69678801877957,51.52261475404862,4.084839400938979,0.8093153400252812,B,1498.3388000400737,Correct,sub_004_day_12_data.csv,1,300,124.0,Training at home,,,,,,,,,,,,,
4,14,3120,A,22.783979974817377,34.19950537780863,1.139198998740869,0.537204574256641,A,3638.520500040613,Correct,sub_004_day_12_data.csv,1,300,124.0,Training at home,,,,,,,,,,,,,
4,14,3121,B,71.37102959627842,42.858325229013296,3.568551479813921,0.6732169984231513,B,2874.801700003445,Correct,sub_004_day_12_data.csv,1,300,124.0,Training at home,,,,,,,,,,,,,
4,14,3122,A,44.30042638573761,69.5580684663095,2.2150213192868806,1.092615584458269,A,3833.231700002216,Correct,sub_004_day_12_data.csv,1,300,124.0,Training at home,,,,,,,,,,,,,
4,14,3123,B,33.429348407319466,11.597335490438422,1.6714674203659734,0.1821705198898876,B,1473.8861999940127,Correct,sub_004_day_12_data.csv,1,300,124.0,Training at home,,,,,,,,,,,,,
4,14,3124,A,51.976872921292525,64.53112266101476,2.5988436460646263,1.013652504398729,A,1685.2742999326438,Correct,sub_004_day_12_data.csv,1,300,124.0,Training at home,,,,,,,,,,,,,
4,14,3125,B,80.16446364379199,49.36634634468628,4.0082231821895995,0.7754447550551788,B,1040.2078999904916,Correct,sub_004_day_12_data.csv,1,300,125.0,Training at home,,,,,,,,,,,,,
4,14,3126,B,39.13496374001946,27.897664461264025,1.9567481870009729,0.4382154886191005,A,925.517600029707,Incorrect,sub_004_day_12_data.csv,0,300,125.0,Training at home,,,,,,,,,,,,,
4,14,3127,A,22.971253897070124,40.91292921967185,1.148562694853506,0.6426587893668013,A,709.5125000923872,Correct,sub_004_day_12_data.csv,1,300,125.0,Training at home,,,,,,,,,,,,,
4,14,3128,A,55.454996797018936,84.13439649931584,2.7727498398509467,1.3215800097823072,A,497.51369992736727,Correct,sub_004_day_12_data.csv,1,300,125.0,Training at home,,,,,,,,,,,,,
4,14,3129,A,22.654233479853684,38.2787409486352,1.132711673992684,0.6012810567644956,A,1988.966100034304,Correct,sub_004_day_12_data.csv,1,300,125.0,Training at home,,,,,,,,,,,,,
4,14,3130,A,35.014281127368925,46.818449094250425,1.7507140563684462,0.7354224786348241,A,6013.141899951734,Correct,sub_004_day_12_data.csv,1,300,125.0,Training at home,,,,,,,,,,,,,
4,14,3131,A,57.238835316815646,80.83536063228948,2.861941765840782,1.269758875563411,A,3695.1909000054,Correct,sub_004_day_12_data.csv,1,300,125.0,Training at home,,,,,,,,,,,,,
4,14,3132,B,65.68649904857647,39.96262460342305,3.2843249524288236,0.6277314393614029,A,558.90589999035,Incorrect,sub_004_day_12_data.csv,0,300,125.0,Training at home,,,,,,,,,,,,,
4,14,3133,B,41.464706717534256,13.657471984440216,2.0732353358767126,0.214531068264629,B,968.3858000207692,Correct,sub_004_day_12_data.csv,1,300,125.0,Training at home,,,,,,,,,,,,,
4,14,3134,B,69.86449334873691,54.987112878544494,3.493224667436846,0.8637355493067405,B,1519.038699916564,Correct,sub_004_day_12_data.csv,1,300,125.0,Training at home,,,,,,,,,,,,,
4,14,3135,B,49.691553446683656,35.01963359737452,2.484577672334183,0.5500871182045904,B,1378.289399901405,Correct,sub_004_day_12_data.csv,1,300,125.0,Training at home,,,,,,,,,,,,,
4,14,3136,A,51.75049523551692,74.12805304766388,2.5875247617758466,1.1644007343972766,A,6345.596000086516,Correct,sub_004_day_12_data.csv,1,300,125.0,Training at home,,,,,,,,,,,,,
4,14,3137,A,41.244963112438654,66.04933219193353,2.0622481556219325,1.037500483943451,A,18962.60229998734,Correct,sub_004_day_12_data.csv,1,300,125.0,Training at home,,,,,,,,,,,,,
4,14,3138,B,66.52835067733804,47.144560427122165,3.326417533866902,0.7405450234728354,B,1912.230599904433,Correct,sub_004_day_12_data.csv,1,300,125.0,Training at home,,,,,,,,,,,,,
4,14,3139,B,69.79327092918066,51.858774252874895,3.4896635464590333,0.8145957210850164,B,1360.278300009668,Correct,sub_004_day_12_data.csv,1,300,125.0,Training at home,,,,,,,,,,,,,
4,14,3140,B,74.62200667525286,51.27419889617352,3.731100333762643,0.8054132328546029,B,3604.9599000252783,Correct,sub_004_day_12_data.csv,1,300,125.0,Training at home,,,,,,,,,,,,,
4,14,3141,A,45.27928600641714,66.50634678898564,2.2639643003208567,1.044679252446862,A,5136.585299973376,Correct,sub_004_day_12_data.csv,1,300,125.0,Training at home,,,,,,,,,,,,,
4,14,3142,B,43.57341093953381,21.337620838067735,2.1786705469766905,0.3351705643497904,B,17267.650100053288,Correct,sub_004_day_12_data.csv,1,300,125.0,Training at home,,,,,,,,,,,,,
4,14,3143,A,41.7847399717084,61.768008279405365,2.08923699858542,0.970249605187267,A,12597.781599964948,Correct,sub_004_day_12_data.csv,1,300,125.0,Training at home,,,,,,,,,,,,,
4,14,3144,B,41.41400203203665,20.60056811392254,2.0707001016018323,0.3235929672323759,B,28946.8394999858,Correct,sub_004_day_12_data.csv,1,300,125.0,Training at home,,,,,,,,,,,,,
4,14,3145,B,63.64595135410705,51.555753820037815,3.182297567705352,0.8098358872565735,B,4093.7758999643847,Correct,sub_004_day_12_data.csv,1,300,125.0,Training at home,,,,,,,,,,,,,
4,14,3146,B,43.687516092562646,25.881795573553585,2.1843758046281323,0.4065502941779438,B,1259.6349999075755,Correct,sub_004_day_12_data.csv,1,300,125.0,Training at home,,,,,,,,,,,,,
4,14,3147,B,58.29070725695168,44.30361247517045,2.914535362847584,0.6959195173974231,B,1144.7522999951616,Correct,sub_004_day_12_data.csv,1,300,125.0,Training at home,,,,,,,,,,,,,
4,14,3148,A,25.622373481218492,56.806076688430345,1.2811186740609246,0.8923077660181559,A,1293.586099985987,Correct,sub_004_day_12_data.csv,1,300,125.0,Training at home,,,,,,,,,,,,,
4,14,3149,B,66.24885682498832,37.22026976077538,3.312442841249416,0.5846546302254113,B,1448.0335999978706,Correct,sub_004_day_12_data.csv,1,300,125.0,Training at home,,,,,,,,,,,,,
4,14,3150,A,53.391725027122945,73.54597790840491,2.6695862513561472,1.1552575194906105,A,1176.738999900408,Correct,sub_004_day_12_data.csv,1,300,126.0,Training at home,,,,,,,,,,,,,
4,14,3151,B,32.02163468540648,12.962499379012268,1.601081734270324,0.2036144641063359,B,1079.4916999293491,Correct,sub_004_day_12_data.csv,1,300,126.0,Training at home,,,,,,,,,,,,,
4,14,3152,B,48.241983483685075,21.166671233916215,2.412099174184254,0.3324852942471079,B,4203.120100079104,Correct,sub_004_day_12_data.csv,1,300,126.0,Training at home,,,,,,,,,,,,,
4,14,3153,A,26.40870357218037,46.24984708513619,1.3204351786090185,0.7264908991615756,A,1073.0024999938903,Correct,sub_004_day_12_data.csv,1,300,126.0,Training at home,,,,,,,,,,,,,
4,14,3154,A,42.08574593790053,62.59484026305786,2.1042872968950266,0.983237451615246,A,1086.5397999295965,Correct,sub_004_day_12_data.csv,1,300,126.0,Training at home,,,,,,,,,,,,,
4,14,3155,B,76.50011176410446,51.47671505245577,3.825005588205223,0.8085943491986509,B,2972.938399994746,Correct,sub_004_day_12_data.csv,1,300,126.0,Training at home,,,,,,,,,,,,,
4,14,3156,B,70.1714150880451,56.667200215487,3.508570754402254,0.8901262994823795,B,1695.5341999419034,Correct,sub_004_day_12_data.csv,1,300,126.0,Training at home,,,,,,,,,,,,,
4,14,3157,A,65.1249613355152,78.386699182644,3.25624806677576,1.231295391456737,B,1632.4403999606147,Incorrect,sub_004_day_12_data.csv,0,300,126.0,Training at home,,,,,,,,,,,,,
4,14,3158,A,47.65919163051392,55.20576871120608,2.382959581525696,0.8671701870945114,A,4035.0217999657616,Correct,sub_004_day_12_data.csv,1,300,126.0,Training at home,,,,,,,,,,,,,
4,14,3159,A,44.878099095783135,76.28556060777942,2.2439049547891567,1.1982907839018933,A,6264.258800074458,Correct,sub_004_day_12_data.csv,1,300,126.0,Training at home,,,,,,,,,,,,,
4,14,3160,A,40.75849534651834,47.78236232341861,2.037924767325917,0.750563592232088,A,1442.950900061987,Correct,sub_004_day_12_data.csv,1,300,126.0,Training at home,,,,,,,,,,,,,
4,14,3161,B,46.79334451443226,20.81912359667575,2.339667225721613,0.3270260287274723,B,1578.5408000228929,Correct,sub_004_day_12_data.csv,1,300,126.0,Training at home,,,,,,,,,,,,,
4,14,3162,B,49.059647284225306,32.74864625294623,2.4529823642112656,0.5144145324163338,B,1142.0838000485674,Correct,sub_004_day_12_data.csv,1,300,126.0,Training at home,,,,,,,,,,,,,
4,14,3163,A,59.63528411287972,80.21089434345252,2.981764205643986,1.2599497820362875,A,7414.69370003324,Correct,sub_004_day_12_data.csv,1,300,126.0,Training at home,,,,,,,,,,,,,
4,14,3164,A,51.795665545685054,61.04755674565038,2.5897832772842526,0.9589327789587064,A,4741.794999921694,Correct,sub_004_day_12_data.csv,1,300,126.0,Training at home,,,,,,,,,,,,,
4,14,3165,A,34.92566448839661,58.87932016835582,1.7462832244198307,0.9248741984463398,A,4411.0037999926135,Correct,sub_004_day_12_data.csv,1,300,126.0,Training at home,,,,,,,,,,,,,
4,14,3166,B,53.613878210456996,23.075124232096726,2.6806939105228498,0.3624632038411345,B,5437.64579994604,Correct,sub_004_day_12_data.csv,1,300,126.0,Training at home,,,,,,,,,,,,,
4,14,3167,B,49.33330087018041,39.225650347193145,2.4666650435090203,0.6161550748151196,B,5142.4630000256,Correct,sub_004_day_12_data.csv,1,300,126.0,Training at home,,,,,,,,,,,,,
4,14,3168,A,25.80666333718068,47.59194214874468,1.290333166859034,0.7475724791228336,A,938.4776999941096,Correct,sub_004_day_12_data.csv,1,300,126.0,Training at home,,,,,,,,,,,,,
4,14,3169,B,48.13606596498408,22.67904216776953,2.406803298249204,0.3562415613235894,B,263.0729000084102,Correct,sub_004_day_12_data.csv,1,300,126.0,Training at home,,,,,,,,,,,,,
4,14,3170,B,39.53742810815967,18.401616230547116,1.9768714054079837,0.2890519118203276,A,215.93980002216995,Incorrect,sub_004_day_12_data.csv,0,300,126.0,Training at home,,,,,,,,,,,,,
4,14,3171,A,18.78340908127323,49.93471989942626,0.9391704540636616,0.7843727459755081,A,430.58549996931106,Correct,sub_004_day_12_data.csv,1,300,126.0,Training at home,,,,,,,,,,,,,
4,14,3172,B,32.415577208029426,10.803139545605404,1.6207788604014712,0.1696953191608965,A,1354.0440000360832,Incorrect,sub_004_day_12_data.csv,0,300,126.0,Training at home,,,,,,,,,,,,,
4,14,3173,A,42.988890987644034,59.94728708304054,2.1494445493822014,0.9416497835135924,A,2768.3091999497265,Correct,sub_004_day_12_data.csv,1,300,126.0,Training at home,,,,,,,,,,,,,
4,14,3174,B,78.70567731055371,60.334947859434635,3.9352838655276856,0.9477391447496154,B,1103.457299992442,Correct,sub_004_day_12_data.csv,1,300,126.0,Training at home,,,,,,,,,,,,,
4,14,3175,A,52.81618913521863,63.57727430414571,2.6408094567609317,0.9986694894458366,A,5520.218799938448,Correct,sub_004_day_12_data.csv,1,300,127.0,Training at home,,,,,,,,,,,,,
4,14,3176,B,66.4782898048627,49.05015829429968,3.323914490243135,0.7704780847739418,B,7606.730900006369,Correct,sub_004_day_12_data.csv,1,300,127.0,Training at home,,,,,,,,,,,,,
4,14,3177,A,58.9506669840628,74.18230618651272,2.9475333492031397,1.165252940709485,A,10293.284500017762,Correct,sub_004_day_12_data.csv,1,300,127.0,Training at home,,,,,,,,,,,,,
4,14,3178,A,31.322943284555507,41.32179885018829,1.5661471642277751,0.6490812985043334,A,1459.8770999582484,Correct,sub_004_day_12_data.csv,1,300,127.0,Training at home,,,,,,,,,,,,,
4,14,3179,B,50.43083106166163,31.293809518793942,2.521541553083081,0.4915620104354069,B,2230.4254000773653,Correct,sub_004_day_12_data.csv,1,300,127.0,Training at home,,,,,,,,,,,,,
4,14,3180,A,24.504309871457664,48.132089816056734,1.2252154935728832,0.7560570988402395,A,935.6701000360772,Correct,sub_004_day_12_data.csv,1,300,127.0,Training at home,,,,,,,,,,,,,
4,14,3181,B,54.16552229302411,37.87621987096174,2.708276114651205,0.5949582704618257,B,1045.0509000802413,Correct,sub_004_day_12_data.csv,1,300,127.0,Training at home,,,,,,,,,,,,,
4,14,3182,B,51.27983177987194,40.58545351905955,2.5639915889935967,0.6375148130904376,A,3497.270799940452,Incorrect,sub_004_day_12_data.csv,0,300,127.0,Training at home,,,,,,,,,,,,,
4,14,3183,B,56.74677292102264,44.9393975080912,2.8373386460511316,0.7059064053408538,B,3849.7331999242306,Correct,sub_004_day_12_data.csv,1,300,127.0,Training at home,,,,,,,,,,,,,
4,14,3184,B,50.98880043412144,38.68016634230953,2.549440021706072,0.607586632103154,B,7022.255199961364,Correct,sub_004_day_12_data.csv,1,300,127.0,Training at home,,,,,,,,,,,,,
4,14,3185,A,28.722246323040153,45.199030743623354,1.4361123161520075,0.7099847146677317,A,1464.1274000750857,Correct,sub_004_day_12_data.csv,1,300,127.0,Training at home,,,,,,,,,,,,,
4,14,3186,B,73.78915391448835,40.98617495427216,3.6894576957244176,0.643809330675437,B,4836.128199938685,Correct,sub_004_day_12_data.csv,1,300,127.0,Training at home,,,,,,,,,,,,,
4,14,3187,B,44.562120078631565,31.971022933282,2.228106003931578,0.5021996538747477,B,2064.005900057964,Correct,sub_004_day_12_data.csv,1,300,127.0,Training at home,,,,,,,,,,,,,
4,14,3188,A,59.76819739833076,73.04211500567583,2.9884098699165382,1.14734285952246,A,900.4414000082761,Correct,sub_004_day_12_data.csv,1,300,127.0,Training at home,,,,,,,,,,,,,
4,14,3189,A,52.30275344001208,68.68488298234371,2.6151376720006043,1.078899618950028,A,856.3583999639377,Correct,sub_004_day_12_data.csv,1,300,127.0,Training at home,,,,,,,,,,,,,
4,14,3190,B,61.499908147391714,42.0925810959474,3.074995407369586,0.6611887177083049,B,631.6181999864057,Correct,sub_004_day_12_data.csv,1,300,127.0,Training at home,,,,,,,,,,,,,
4,14,3191,A,22.74140182262423,40.942383248285935,1.1370700911312115,0.6431214521663645,A,489.0113999135792,Correct,sub_004_day_12_data.csv,1,300,127.0,Training at home,,,,,,,,,,,,,
4,14,3192,A,53.977013380802475,83.99101513403122,2.698850669040124,1.3193277805631078,A,618.753399932757,Correct,sub_004_day_12_data.csv,1,300,127.0,Training at home,,,,,,,,,,,,,
4,14,3193,B,48.999083010190226,18.040413338779835,2.449954150509511,0.2833781500641702,B,945.4735000617802,Correct,sub_004_day_12_data.csv,1,300,127.0,Training at home,,,,,,,,,,,,,
4,14,3194,A,51.00246404819133,80.34658304009534,2.550123202409566,1.2620811750990288,A,1049.0882999729365,Correct,sub_004_day_12_data.csv,1,300,127.0,Training at home,,,,,,,,,,,,,
4,14,3195,B,57.0388421854996,39.795269612817016,2.85194210927498,0.6251026333162554,B,732.8412999631837,Correct,sub_004_day_12_data.csv,1,300,127.0,Training at home,,,,,,,,,,,,,
4,14,3196,B,59.30273432156678,37.3424838958031,2.965136716078339,0.5865743653692509,A,616.1365000298247,Incorrect,sub_004_day_12_data.csv,0,300,127.0,Training at home,,,,,,,,,,,,,
4,14,3197,B,71.51646022703449,52.39891586378134,3.575823011351724,0.8230802456686257,B,1055.984399979934,Correct,sub_004_day_12_data.csv,1,300,127.0,Training at home,,,,,,,,,,,,,
4,14,3198,A,60.948789159882665,79.40844685280044,3.047439457994133,1.2473449663286669,A,2403.976400033571,Correct,sub_004_day_12_data.csv,1,300,127.0,Training at home,,,,,,,,,,,,,
4,14,3199,A,51.513800188619896,80.00507081993248,2.5756900094309945,1.256716713689155,A,504.6594999730587,Correct,sub_004_day_12_data.csv,1,300,127.0,Training at home,,,,,,,,,,,,,
4,14,3200,B,44.41779770393464,33.7580342006496,2.220889885196732,0.5302699612219688,B,608.6739000165835,Correct,sub_004_day_12_data.csv,1,300,128.0,Training at home,,,,,,,,,,,,,
4,14,3201,A,50.51550543300868,75.35404403455054,2.525775271650434,1.1836585557861288,A,795.7883999915794,Correct,sub_004_day_12_data.csv,1,300,128.0,Training at home,,,,,,,,,,,,,
4,14,3202,A,40.04382412363723,54.526650265420464,2.002191206181862,0.8565026194935245,A,1322.5230999523774,Correct,sub_004_day_12_data.csv,1,300,128.0,Training at home,,,,,,,,,,,,,
4,14,3203,A,44.89568691841017,52.56656101860744,2.244784345920509,0.8257136096026835,A,5666.9304999522865,Correct,sub_004_day_12_data.csv,1,300,128.0,Training at home,,,,,,,,,,,,,
4,14,3204,B,47.08987746605007,35.65817804610832,2.3544938733025034,0.5601173509502537,B,4908.233299967833,Correct,sub_004_day_12_data.csv,1,300,128.0,Training at home,,,,,,,,,,,,,
4,14,3205,B,36.18556919894387,23.419561705707835,1.8092784599471936,0.3678736150247228,B,2018.4237000066787,Correct,sub_004_day_12_data.csv,1,300,128.0,Training at home,,,,,,,,,,,,,
4,14,3206,A,55.011983136451725,81.60202933054576,2.7505991568225863,1.281801679314307,A,5733.360100071877,Correct,sub_004_day_12_data.csv,1,300,128.0,Training at home,,,,,,,,,,,,,
4,14,3207,B,58.74028967126221,50.95353550126943,2.9370144835631105,0.8003762640260738,B,1576.2948000337929,Correct,sub_004_day_12_data.csv,1,300,128.0,Training at home,,,,,,,,,,,,,
4,14,3208,A,68.85937782224246,88.04237812478378,3.442968891112123,1.3829664416069771,A,952.808800037019,Correct,sub_004_day_12_data.csv,1,300,128.0,Training at home,,,,,,,,,,,,,
4,14,3209,B,54.252246077452384,42.86434627529096,2.712612303872619,0.6733115767969156,B,966.7786000063644,Correct,sub_004_day_12_data.csv,1,300,128.0,Training at home,,,,,,,,,,,,,
4,14,3210,A,22.945782984817924,50.574656366637264,1.1472891492408963,0.7944248444962794,A,970.1488999417052,Correct,sub_004_day_12_data.csv,1,300,128.0,Training at home,,,,,,,,,,,,,
4,14,3211,B,52.49964270625922,32.918747347917645,2.6249821353129614,0.5170864741679828,B,938.70609998703,Correct,sub_004_day_12_data.csv,1,300,128.0,Training at home,,,,,,,,,,,,,
4,14,3212,B,88.91684455553676,64.53087453870145,4.445842227776837,1.0136486069025454,B,998.6413000151516,Correct,sub_004_day_12_data.csv,1,300,128.0,Training at home,,,,,,,,,,,,,
4,14,3213,A,53.317713622834134,79.73403846995785,2.665885681141707,1.2524593474913277,A,886.3828999456018,Correct,sub_004_day_12_data.csv,1,300,128.0,Training at home,,,,,,,,,,,,,
4,14,3214,A,43.58533907802089,63.67706801766555,2.1792669539010445,1.0002370454321785,A,649.626599973999,Correct,sub_004_day_12_data.csv,1,300,128.0,Training at home,,,,,,,,,,,,,
4,14,3215,A,50.83180449011509,79.01607297133071,2.5415902245057542,1.241181571811238,A,994.848300004378,Correct,sub_004_day_12_data.csv,1,300,128.0,Training at home,,,,,,,,,,,,,
4,14,3216,B,80.21604563874216,54.51619258029622,4.010802281937108,0.8563383505597248,B,999.0415000356734,Correct,sub_004_day_12_data.csv,1,300,128.0,Training at home,,,,,,,,,,,,,
4,14,3217,B,41.06113773783266,15.104562241172763,2.0530568868916332,0.2372619088627906,B,1123.839300009422,Correct,sub_004_day_12_data.csv,1,300,128.0,Training at home,,,,,,,,,,,,,
4,14,3218,A,61.80243249534499,76.50944496194847,3.0901216247672494,1.2018075511134496,A,859.9032999482006,Correct,sub_004_day_12_data.csv,1,300,128.0,Training at home,,,,,,,,,,,,,
4,14,3219,A,53.05771568487713,61.479280004532214,2.6528857842438565,0.9657142720511414,A,716.518500004895,Correct,sub_004_day_12_data.csv,1,300,128.0,Training at home,,,,,,,,,,,,,
4,14,3220,A,63.58576497177352,75.24003232738913,3.179288248588676,1.181867664077921,A,826.6131000127643,Correct,sub_004_day_12_data.csv,1,300,128.0,Training at home,,,,,,,,,,,,,
4,14,3221,B,86.04408836288269,68.22642802733974,4.302204418144134,1.0716982253568164,B,585.5583000229672,Correct,sub_004_day_12_data.csv,1,300,128.0,Training at home,,,,,,,,,,,,,
4,14,3222,A,60.74575366462774,75.53741281721035,3.037287683231387,1.1865389058886378,A,1148.8675000146031,Correct,sub_004_day_12_data.csv,1,300,128.0,Training at home,,,,,,,,,,,,,
4,14,3223,A,36.15664553107138,52.88589715912035,1.807832276553569,0.8307297299679888,A,1917.2337000491095,Correct,sub_004_day_12_data.csv,1,300,128.0,Training at home,,,,,,,,,,,,,
4,14,3224,A,58.45057492755734,69.96656281477827,2.922528746377867,1.0990321986791811,A,792.2862999839708,Correct,sub_004_day_12_data.csv,1,300,128.0,Training at home,,,,,,,,,,,,,
4,14,3225,A,12.342713162489808,39.00626264483616,0.6171356581244904,0.6127089408450561,A,968.0573999648914,Correct,sub_004_day_12_data.csv,1,300,129.0,Training at home,,,,,,,,,,,,,
4,14,3226,A,37.49917888307862,62.63930710300143,1.8749589441539312,0.9839359351037212,A,1676.6505999257788,Correct,sub_004_day_12_data.csv,1,300,129.0,Training at home,,,,,,,,,,,,,
4,14,3227,B,40.38089522084736,16.25258985694998,2.0190447610423683,0.2552950844820102,B,926.3408000115304,Correct,sub_004_day_12_data.csv,1,300,129.0,Training at home,,,,,,,,,,,,,
4,14,3228,B,86.24612863856399,61.27380880717218,4.312306431928199,0.9624867380303884,B,2672.541599953547,Correct,sub_004_day_12_data.csv,1,300,129.0,Training at home,,,,,,,,,,,,,
4,14,3229,A,26.600560676355503,43.056851156216965,1.330028033817775,0.676335436395402,A,822.3531000548974,Correct,sub_004_day_12_data.csv,1,300,129.0,Training at home,,,,,,,,,,,,,
4,14,3230,B,51.251733061894335,33.734043652018826,2.562586653094717,0.5298931185652987,B,890.224099974148,Correct,sub_004_day_12_data.csv,1,300,129.0,Training at home,,,,,,,,,,,,,
4,14,3231,B,66.3220657578917,44.0329286905928,3.3161032878945855,0.6916676264520479,B,870.294600026682,Correct,sub_004_day_12_data.csv,1,300,129.0,Training at home,,,,,,,,,,,,,
4,14,3232,B,75.13723627006934,44.31670210086155,3.756861813503467,0.69612512875697,B,432.210800005123,Correct,sub_004_day_12_data.csv,1,300,129.0,Training at home,,,,,,,,,,,,,
4,14,3233,B,44.51738737670824,28.03037986413174,2.2258693688354123,0.4403001772924376,B,345.0816000113264,Correct,sub_004_day_12_data.csv,1,300,129.0,Training at home,,,,,,,,,,,,,
4,14,3234,B,50.485361732384035,20.86846004183119,2.5242680866192018,0.3278010037957451,B,393.5149998869747,Correct,sub_004_day_12_data.csv,1,300,129.0,Training at home,,,,,,,,,,,,,
4,14,3235,A,32.562180128797394,43.41294000747809,1.6281090064398698,0.681928866991138,A,4265.587499947287,Correct,sub_004_day_12_data.csv,1,300,129.0,Training at home,,,,,,,,,,,,,
4,14,3236,A,45.368020719617626,69.08728667257554,2.2684010359808813,1.0852205613350767,A,523.2793000759557,Correct,sub_004_day_12_data.csv,1,300,129.0,Training at home,,,,,,,,,,,,,
4,14,3237,B,43.43963260716245,30.387220785088985,2.1719816303581228,0.4773213479072331,B,3498.673600028269,Correct,sub_004_day_12_data.csv,1,300,129.0,Training at home,,,,,,,,,,,,,
4,14,3238,A,33.26410603932618,58.67759356186911,1.663205301966309,0.9217054843214788,A,837.9553999984637,Correct,sub_004_day_12_data.csv,1,300,129.0,Training at home,,,,,,,,,,,,,
4,14,3239,B,82.63668234059938,67.59909576073483,4.131834117029968,1.061844113156187,B,826.5009999740869,Correct,sub_004_day_12_data.csv,1,300,129.0,Training at home,,,,,,,,,,,,,
4,14,3240,B,79.38086199308015,49.90687455102514,3.9690430996540074,0.7839353522656398,B,4037.2728999936953,Correct,sub_004_day_12_data.csv,1,300,129.0,Training at home,,,,,,,,,,,,,
4,14,3241,A,23.500757359943098,48.99896378961825,1.1750378679971547,0.7696739233748849,A,1230.7183999801057,Correct,sub_004_day_12_data.csv,1,300,129.0,Training at home,,,,,,,,,,,,,
4,14,3242,B,55.22129671962301,30.93863754401542,2.7610648359811507,0.485982982101781,B,511.14919991232455,Correct,sub_004_day_12_data.csv,1,300,129.0,Training at home,,,,,,,,,,,,,
4,14,3243,B,43.90128003474461,29.62255187860297,2.1950640017372307,0.465309956812008,B,767.9355000145733,Correct,sub_004_day_12_data.csv,1,300,129.0,Training at home,,,,,,,,,,,,,
4,14,3244,A,27.780677345268415,58.12214702990877,1.3890338672634208,0.912980550600136,A,608.3941999822855,Correct,sub_004_day_12_data.csv,1,300,129.0,Training at home,,,,,,,,,,,,,
4,14,3245,B,74.23463117196466,63.7991313222224,3.711731558598234,1.002154411336522,B,505.7286999654025,Correct,sub_004_day_12_data.csv,1,300,129.0,Training at home,,,,,,,,,,,,,
4,14,3246,B,72.02806052432919,61.19079085749979,3.6014030262164596,0.9611826951263542,B,791.6396000655368,Correct,sub_004_day_12_data.csv,1,300,129.0,Training at home,,,,,,,,,,,,,
4,14,3247,B,83.99243084615388,57.02371361119191,4.1996215423076935,0.895726398806644,B,402.7231000363827,Correct,sub_004_day_12_data.csv,1,300,129.0,Training at home,,,,,,,,,,,,,
4,14,3248,B,30.873990708565113,14.615589343581089,1.5436995354282557,0.229581140548398,A,1343.0851999437436,Incorrect,sub_004_day_12_data.csv,0,300,129.0,Training at home,,,,,,,,,,,,,
4,14,3249,A,47.35461960475614,71.75435927235135,2.367730980237807,1.1271148397653084,A,851.3401999371126,Correct,sub_004_day_12_data.csv,1,300,129.0,Training at home,,,,,,,,,,,,,
4,14,3250,B,78.8768257150361,59.2064705108765,3.9438412857518057,0.9300130640097518,B,1139.0688000246882,Correct,sub_004_day_12_data.csv,1,300,130.0,Training at home,,,,,,,,,,,,,
4,14,3251,B,70.98424593563315,51.154687501635586,3.5492122967816577,0.8035359522590999,B,988.0285999970512,Correct,sub_004_day_12_data.csv,1,300,130.0,Training at home,,,,,,,,,,,,,
4,14,3252,B,78.54882185956815,61.38799339861458,3.927441092978407,0.9642803453985316,B,867.7724999142811,Correct,sub_004_day_12_data.csv,1,300,130.0,Training at home,,,,,,,,,,,,,
4,14,3253,B,74.15972802129686,62.59531448997494,3.707986401064843,0.98324490075424,B,928.0291000613944,Correct,sub_004_day_12_data.csv,1,300,130.0,Training at home,,,,,,,,,,,,,
4,14,3254,B,63.339529329628974,47.80718641123415,3.166976466481449,0.7509535280916548,B,4439.002199913375,Correct,sub_004_day_12_data.csv,1,300,130.0,Training at home,,,,,,,,,,,,,
4,14,3255,B,64.97877961640664,41.76579629482628,3.2489389808203324,0.6560555940557702,B,449.45660000666976,Correct,sub_004_day_12_data.csv,1,300,130.0,Training at home,,,,,,,,,,,,,
4,14,3256,A,59.936466109391645,81.66210122256952,2.996823305469582,1.2827452863876525,A,3362.017600098625,Correct,sub_004_day_12_data.csv,1,300,130.0,Training at home,,,,,,,,,,,,,
4,14,3257,B,63.64513595973317,52.09061856192583,3.1822567979866587,0.8182375229754715,B,7259.262099978514,Correct,sub_004_day_12_data.csv,1,300,130.0,Training at home,,,,,,,,,,,,,
4,14,3258,A,47.74319697529609,70.36900819101844,2.387159848764804,1.1053537958665174,A,526.2370998971164,Correct,sub_004_day_12_data.csv,1,300,130.0,Training at home,,,,,,,,,,,,,
4,14,3259,B,71.30194222629656,50.146610924829226,3.565097111314828,0.7877011224193458,B,4358.4815999493,Correct,sub_004_day_12_data.csv,1,300,130.0,Training at home,,,,,,,,,,,,,
4,14,3260,A,62.53902387568847,83.25126077912068,3.1269511937844237,1.307707746328868,A,1152.938700048253,Correct,sub_004_day_12_data.csv,1,300,130.0,Training at home,,,,,,,,,,,,,
4,14,3261,A,36.67354588845643,46.87885079728059,1.8336772944228217,0.7363712663673436,A,3492.3631999408826,Correct,sub_004_day_12_data.csv,1,300,130.0,Training at home,,,,,,,,,,,,,
4,14,3262,A,11.046539437231026,37.1112718345815,0.5523269718615513,0.5829424948044751,A,801.7868000315502,Correct,sub_004_day_12_data.csv,1,300,130.0,Training at home,,,,,,,,,,,,,
4,14,3263,A,66.84315639247242,83.16485243677936,3.3421578196236212,1.3063504472613263,A,947.6545000215992,Correct,sub_004_day_12_data.csv,1,300,130.0,Training at home,,,,,,,,,,,,,
4,14,3264,B,60.85085622126927,32.53584701639649,3.0425428110634636,0.5110718898251629,B,1436.109200003557,Correct,sub_004_day_12_data.csv,1,300,130.0,Training at home,,,,,,,,,,,,,
4,14,3265,A,59.981449519817815,80.43842403308605,2.999072475990891,1.263523810043419,A,8610.966500011273,Correct,sub_004_day_12_data.csv,1,300,130.0,Training at home,,,,,,,,,,,,,
4,14,3266,A,31.67492610708448,41.79436330060182,1.583746305354224,0.6565043235331677,A,3541.0297999624163,Correct,sub_004_day_12_data.csv,1,300,130.0,Training at home,,,,,,,,,,,,,
4,14,3267,B,64.46339652517251,33.57661574848279,3.223169826258626,0.5274202468392044,B,800.6655999924988,Correct,sub_004_day_12_data.csv,1,300,130.0,Training at home,,,,,,,,,,,,,
4,14,3268,B,56.68174560427004,30.28910968648254,2.834087280213502,0.4757802223741449,B,1050.7629999192432,Correct,sub_004_day_12_data.csv,1,300,130.0,Training at home,,,,,,,,,,,,,
4,14,3269,A,41.44330714298808,73.88766182868137,2.0721653571494043,1.160624677959562,A,1152.9079000465572,Correct,sub_004_day_12_data.csv,1,300,130.0,Training at home,,,,,,,,,,,,,
4,14,3270,B,83.99108397929669,60.24683626940382,4.199554198964835,0.9463550911299308,B,2173.40620001778,Correct,sub_004_day_12_data.csv,1,300,130.0,Training at home,,,,,,,,,,,,,
4,14,3271,A,50.91412874057325,64.59725705555545,2.545706437028662,1.014691341038922,A,1880.086200078949,Correct,sub_004_day_12_data.csv,1,300,130.0,Training at home,,,,,,,,,,,,,
4,14,3272,A,43.87176096246156,65.80118136428783,2.193588048123078,1.0336025398578812,A,869.5578000042588,Correct,sub_004_day_12_data.csv,1,300,130.0,Training at home,,,,,,,,,,,,,
4,14,3273,A,32.24022904966004,42.43842542177275,1.6120114524830018,0.666621227674798,A,1161.242499947548,Correct,sub_004_day_12_data.csv,1,300,130.0,Training at home,,,,,,,,,,,,,
4,14,3274,A,50.92512263914112,63.60444566631801,2.5462561319570565,0.9990962962047788,A,862.9614999517798,Correct,sub_004_day_12_data.csv,1,300,130.0,Training at home,,,,,,,,,,,,,
4,14,3275,B,38.66965765664959,27.11374307334872,1.9334828828324797,0.4259016802527675,B,2935.9390999889,Correct,sub_004_day_12_data.csv,1,300,131.0,Training at home,,,,,,,,,,,,,
4,14,3276,B,48.10699904752592,26.00055409713172,2.405349952376296,0.408415748704065,B,931.5443000523372,Correct,sub_004_day_12_data.csv,1,300,131.0,Training at home,,,,,,,,,,,,,
4,14,3277,A,10.68157104607721,36.07803054313793,0.5340785523038605,0.5667123785515515,A,685.1026000222191,Correct,sub_004_day_12_data.csv,1,300,131.0,Training at home,,,,,,,,,,,,,
4,14,3278,A,63.53812417494433,86.13747602339754,3.176906208747216,1.3530443093693632,A,2314.207899966277,Correct,sub_004_day_12_data.csv,1,300,131.0,Training at home,,,,,,,,,,,,,
4,14,3279,A,37.22617250072908,48.748550169851,1.861308625036454,0.7657404354337869,A,4102.189199998975,Correct,sub_004_day_12_data.csv,1,300,131.0,Training at home,,,,,,,,,,,,,
4,14,3280,A,26.42731460614571,56.66528269566321,1.321365730307286,0.8900961791514218,A,835.8640000224113,Correct,sub_004_day_12_data.csv,1,300,131.0,Training at home,,,,,,,,,,,,,
4,14,3281,B,36.56431276530839,13.69573716323745,1.828215638265419,0.2151321362876174,B,476.1611000867561,Correct,sub_004_day_12_data.csv,1,300,131.0,Training at home,,,,,,,,,,,,,
4,14,3282,A,52.10580773628432,71.62174047229257,2.605290386814216,1.1250316685253454,A,703.9395999163389,Correct,sub_004_day_12_data.csv,1,300,131.0,Training at home,,,,,,,,,,,,,
4,14,3283,A,26.259973712594743,42.68240033580507,1.312998685629737,0.6704535766627187,A,2863.207200076431,Correct,sub_004_day_12_data.csv,1,300,131.0,Training at home,,,,,,,,,,,,,
4,14,3284,A,25.544119314707512,48.854274632418665,1.2772059657353756,0.7674011514083233,A,2804.0898999897763,Correct,sub_004_day_12_data.csv,1,300,131.0,Training at home,,,,,,,,,,,,,
4,14,3285,A,40.0658719033358,59.91677967796176,2.00329359516679,0.9411705743152144,A,7722.322099958547,Correct,sub_004_day_12_data.csv,1,300,131.0,Training at home,,,,,,,,,,,,,
4,14,3286,B,52.93806467409935,31.182139540083817,2.6469032337049674,0.4898079025116956,B,1280.8570000343025,Correct,sub_004_day_12_data.csv,1,300,131.0,Training at home,,,,,,,,,,,,,
4,14,3287,B,70.68126302810764,39.16426315126493,3.534063151405382,0.6151908069963568,B,1070.9706000052392,Correct,sub_004_day_12_data.csv,1,300,131.0,Training at home,,,,,,,,,,,,,
4,14,3288,A,45.73222270301997,73.21946902507567,2.286611135150998,1.1501287299446157,A,795.870800036937,Correct,sub_004_day_12_data.csv,1,300,131.0,Training at home,,,,,,,,,,,,,
4,14,3289,B,80.03804210155306,51.67741855657775,4.001902105077653,0.8117469924691475,B,2254.8184000188485,Correct,sub_004_day_12_data.csv,1,300,131.0,Training at home,,,,,,,,,,,,,
4,14,3290,A,62.71817640917943,84.05555445619166,3.1359088204589716,1.3203415618649423,A,2323.98570002988,Correct,sub_004_day_12_data.csv,1,300,131.0,Training at home,,,,,,,,,,,,,
4,14,3291,A,18.974661829745145,43.89110452288937,0.9487330914872572,0.6894398576352548,A,598.004600033164,Correct,sub_004_day_12_data.csv,1,300,131.0,Training at home,,,,,,,,,,,,,
4,14,3292,B,87.27965115182472,63.417419782647755,4.363982557591236,0.9961585004939308,B,639.447099994868,Correct,sub_004_day_12_data.csv,1,300,131.0,Training at home,,,,,,,,,,,,,
4,14,3293,B,54.03093599792062,27.628335344279932,2.7015467998960307,0.4339848767425253,B,925.7630000356584,Correct,sub_004_day_12_data.csv,1,300,131.0,Training at home,,,,,,,,,,,,,
4,14,3294,B,72.67590233372252,48.20880270379017,3.633795116686126,0.7572621020629346,B,439.72490006126463,Correct,sub_004_day_12_data.csv,1,300,131.0,Training at home,,,,,,,,,,,,,
4,14,3295,B,74.11632439230348,59.779663870609824,3.705816219615174,0.939016764249875,B,1563.3741000201553,Correct,sub_004_day_12_data.csv,1,300,131.0,Training at home,,,,,,,,,,,,,
4,14,3296,A,37.407287920449086,60.20583875925629,1.8703643960224543,0.945711103746456,A,4755.567499902099,Correct,sub_004_day_12_data.csv,1,300,131.0,Training at home,,,,,,,,,,,,,
4,14,3297,A,56.37910354438613,81.19261879875307,2.8189551772193067,1.275370673719396,A,1297.1065000165254,Correct,sub_004_day_12_data.csv,1,300,131.0,Training at home,,,,,,,,,,,,,
4,14,3298,A,39.09306782902218,67.94894639448037,1.954653391451109,1.067339554060331,A,5234.484300017357,Correct,sub_004_day_12_data.csv,1,300,131.0,Training at home,,,,,,,,,,,,,
4,14,3299,B,73.25745805804216,49.14250270048709,3.662872902902108,0.7719286273143342,B,1143.4312000637874,Correct,sub_004_day_12_data.csv,1,300,131.0,Training at home,,,,,,,,,,,,,
