subject,day,trial,cat,x,y,xt,yt,resp,rt,fb,f_name,acc,n_trials,block,session_type,ns_left_digit,ns_right_digit,ns_left_size,ns_right_size,ns_congruent,ns_cue,ns_correct_side,ns_resp,ns_rt,ns_fb,acc_stroop,acc_stroop_mean,resp_key
4,22,0,B,46.34311916912492,30.3100248521011,2.317155958456246,0.4761087570274243,B,2871.316700009629,Correct,sub_004_day_22_data.csv,1,403,,Dual-Task at home,6.0,5.0,small,big,False,Size,right,right,1370.8811999531465,Correct,1.0,0.9751861042183623,
4,22,1,A,49.63299455916667,56.81757183678567,2.4816497279583336,0.8924883313862809,A,4420.355300069787,Correct,sub_004_day_22_data.csv,1,403,,Dual-Task at home,6.0,2.0,small,big,False,Value,left,left,975.851400056854,Correct,1.0,0.9751861042183623,
4,22,2,B,64.15319439837783,42.09473356504297,3.2076597199188916,0.6612225286137934,B,1060.066399979405,Correct,sub_004_day_22_data.csv,1,403,,Dual-Task at home,6.0,4.0,small,big,False,Value,left,left,910.6335999676958,Correct,1.0,0.9751861042183623,
4,22,3,A,26.61909834729841,38.569895050205744,1.3309549173649204,0.6058544946972785,A,916.791999945417,Correct,sub_004_day_22_data.csv,1,403,,Dual-Task at home,3.0,2.0,small,big,False,Value,left,left,726.4639000641182,Correct,1.0,0.9751861042183623,
4,22,4,B,76.49227708575626,56.60685289475517,3.8246138542878128,0.8891783659850049,B,959.5385000575334,Correct,sub_004_day_22_data.csv,1,403,,Dual-Task at home,5.0,8.0,big,small,False,Size,left,left,601.0031000478193,Correct,1.0,0.9751861042183623,
4,22,5,B,48.19394102071156,41.05836840774837,2.4096970510355784,0.6449433427908277,B,1097.1236999612302,Correct,sub_004_day_22_data.csv,1,403,,Dual-Task at home,6.0,5.0,small,big,False,Size,right,right,749.2112000472844,Correct,1.0,0.9751861042183623,
4,22,6,A,56.38179372723219,68.16251579559778,2.8190896863616097,1.0706942943682412,A,1745.204399921931,Correct,sub_004_day_22_data.csv,1,403,,Dual-Task at home,3.0,6.0,big,small,False,Size,left,left,529.549099970609,Correct,1.0,0.9751861042183623,
4,22,7,A,44.630166804636616,69.75607496116098,2.231508340231831,1.0957258632062112,A,893.0196000728756,Correct,sub_004_day_22_data.csv,1,403,,Dual-Task at home,5.0,3.0,small,big,False,Size,right,right,849.6040999889374,Correct,1.0,0.9751861042183623,
4,22,8,A,41.3656152468788,58.6861800247489,2.06828076234394,0.9218403601649962,A,1160.981599939987,Correct,sub_004_day_22_data.csv,1,403,,Dual-Task at home,8.0,6.0,small,big,False,Size,right,right,460.4277999605983,Correct,1.0,0.9751861042183623,
4,22,9,A,43.86699784419597,55.13896686338547,2.193349892209798,0.8661208661227142,A,1622.0126999542117,Correct,sub_004_day_22_data.csv,1,403,,Dual-Task at home,3.0,6.0,big,small,False,Value,right,right,1363.1053999997675,Correct,1.0,0.9751861042183623,
4,22,10,B,62.07710198879079,48.07545854708142,3.1038550994395395,0.755167536947358,B,789.5605999510735,Correct,sub_004_day_22_data.csv,1,403,,Dual-Task at home,4.0,8.0,big,small,False,Value,right,right,854.8177999909967,Correct,1.0,0.9751861042183623,
4,22,11,B,72.26783740589451,50.64198894407938,3.6133918702947256,0.7954825021494766,B,1395.259500015527,Correct,sub_004_day_22_data.csv,1,403,,Dual-Task at home,6.0,7.0,big,small,False,Value,right,right,743.8784000696614,Correct,1.0,0.9751861042183623,
4,22,12,B,39.52776838102703,14.662511205667354,1.9763884190513517,0.2303181874345129,B,812.5460000010207,Correct,sub_004_day_22_data.csv,1,403,,Dual-Task at home,4.0,2.0,small,big,False,Value,left,left,656.7708000075072,Correct,1.0,0.9751861042183623,
4,22,13,B,64.7449784780674,32.81215674684459,3.23724892390337,0.5154121529216188,B,1649.7560000279918,Correct,sub_004_day_22_data.csv,1,403,,Dual-Task at home,4.0,5.0,big,small,False,Size,left,left,918.0971999885514,Correct,1.0,0.9751861042183623,
4,22,14,A,60.41439864184761,87.40229129239775,3.0207199320923803,1.3729119811555597,A,865.4674999415874,Correct,sub_004_day_22_data.csv,1,403,,Dual-Task at home,4.0,3.0,small,big,False,Value,left,left,604.7853999771178,Correct,1.0,0.9751861042183623,
4,22,15,B,72.32895912014978,59.06210141329622,3.6164479560074887,0.9277453195279336,B,1542.32459992636,Correct,sub_004_day_22_data.csv,1,403,,Dual-Task at home,8.0,7.0,big,small,True,Value,left,left,373.6496999626979,Correct,1.0,0.9751861042183623,
4,22,16,A,33.34654299963055,44.70687557933957,1.6673271499815274,0.7022539594250305,A,1007.162500056438,Correct,sub_004_day_22_data.csv,1,403,,Dual-Task at home,2.0,5.0,small,big,True,Size,right,right,546.7631999636069,Correct,1.0,0.9751861042183623,
4,22,17,B,41.87470863032958,26.542079213607284,2.0937354315164787,0.416922005342335,B,840.9492999780923,Correct,sub_004_day_22_data.csv,1,403,,Dual-Task at home,5.0,6.0,big,small,False,Size,left,left,418.3404000941664,Correct,1.0,0.9751861042183623,
4,22,18,A,60.47344734975623,75.74594820691838,3.023672367487811,1.189814572130239,A,774.2654000176117,Correct,sub_004_day_22_data.csv,1,403,,Dual-Task at home,8.0,4.0,big,small,True,Size,left,left,297.7820000378415,Correct,1.0,0.9751861042183623,
4,22,19,B,44.44787512092341,30.92182074730519,2.222393756046171,0.4857188244767721,B,681.0499000130221,Correct,sub_004_day_22_data.csv,1,403,,Dual-Task at home,7.0,5.0,small,big,False,Value,left,left,361.8875000393018,Correct,1.0,0.9751861042183623,
4,22,20,B,48.83216234808387,24.350765216199832,2.4416081174041935,0.3825009255625163,B,755.9066999237984,Correct,sub_004_day_22_data.csv,1,403,,Dual-Task at home,2.0,8.0,big,small,False,Value,right,right,574.4069999782369,Correct,1.0,0.9751861042183623,
4,22,21,A,55.64890044631704,65.63137822773623,2.7824450223158523,1.030935278426146,B,2510.1061000023037,Incorrect,sub_004_day_22_data.csv,0,403,,Dual-Task at home,5.0,7.0,big,small,False,Size,left,left,1235.4051999282092,Correct,1.0,0.9751861042183623,
4,22,22,A,18.376953713800688,45.212217440926885,0.9188476856900344,0.7101918508246011,A,592.7914999192581,Correct,sub_004_day_22_data.csv,1,403,,Dual-Task at home,2.0,8.0,big,small,False,Size,left,left,694.8660999769345,Correct,1.0,0.9751861042183623,
4,22,23,B,40.44900676440336,29.67518278193249,2.022450338220168,0.4661366811082671,B,775.1876999391243,Correct,sub_004_day_22_data.csv,1,403,,Dual-Task at home,8.0,2.0,small,big,False,Size,right,right,448.3331999508664,Correct,1.0,0.9751861042183623,
4,22,24,A,40.27587236082648,51.53119984605549,2.0137936180413236,0.809450194335177,A,648.9014000399038,Correct,sub_004_day_22_data.csv,1,403,,Dual-Task at home,8.0,6.0,small,big,False,Value,left,left,853.3620999660343,Correct,1.0,0.9751861042183623,
4,22,25,A,47.204398211046296,56.9299035748633,2.3602199105523147,0.8942528342018292,B,1356.988099985756,Incorrect,sub_004_day_22_data.csv,0,403,,Dual-Task at home,3.0,7.0,small,big,True,Size,right,right,455.9151999419555,Correct,1.0,0.9751861042183623,
4,22,26,B,38.65891413096632,12.256248387205876,1.932945706548316,0.1925206994690886,B,717.1144000021741,Correct,sub_004_day_22_data.csv,1,403,,Dual-Task at home,7.0,5.0,small,big,False,Size,right,right,798.1603000080213,Correct,1.0,0.9751861042183623,
4,22,27,B,77.67767662132046,45.371865925737666,3.883883831066023,0.7126996033597925,B,598.1546998955309,Correct,sub_004_day_22_data.csv,1,403,,Dual-Task at home,7.0,6.0,small,big,False,Size,right,right,513.5757001116872,Correct,1.0,0.9751861042183623,
4,22,28,B,56.94380388667545,45.71169171517031,2.8471901943337725,0.7180375743777022,B,927.659700042568,Correct,sub_004_day_22_data.csv,1,403,,Dual-Task at home,5.0,2.0,big,small,True,Size,left,left,172.66889999154955,Correct,1.0,0.9751861042183623,
4,22,29,A,58.31555419790487,73.04043628719589,2.915777709895244,1.1473164902742394,A,666.6863999562338,Correct,sub_004_day_22_data.csv,1,403,,Dual-Task at home,8.0,6.0,small,big,False,Value,left,left,337.6855000387877,Correct,1.0,0.9751861042183623,
4,22,30,A,32.56616915724155,50.8214068589788,1.6283084578620777,0.7983007921663287,A,770.7916999934241,Correct,sub_004_day_22_data.csv,1,403,,Dual-Task at home,5.0,7.0,big,small,False,Value,right,right,629.3167000403628,Correct,1.0,0.9751861042183623,
4,22,31,A,47.58147770318121,73.82522162122889,2.3790738851590603,1.1596438694744553,A,914.79700000491,Correct,sub_004_day_22_data.csv,1,403,,Dual-Task at home,7.0,8.0,big,small,False,Size,left,left,450.8887999691069,Correct,1.0,0.9751861042183623,
4,22,32,A,14.246594403511532,31.37310473977811,0.7123297201755767,0.4928075768539501,A,545.4096000175923,Correct,sub_004_day_22_data.csv,1,403,,Dual-Task at home,8.0,5.0,big,small,True,Size,left,left,209.51570000033823,Correct,1.0,0.9751861042183623,
4,22,33,A,28.01969425227695,41.465179018047905,1.4009847126138475,0.6513335089144247,A,625.6407999899238,Correct,sub_004_day_22_data.csv,1,403,,Dual-Task at home,5.0,7.0,big,small,False,Value,right,right,338.0784000037238,Correct,1.0,0.9751861042183623,
4,22,34,A,47.93336923801075,54.62575945898463,2.3966684619005374,0.8580594230655464,A,1260.8292000368235,Correct,sub_004_day_22_data.csv,1,403,,Dual-Task at home,6.0,7.0,big,small,False,Value,right,right,399.72700004000217,Correct,1.0,0.9751861042183623,
4,22,35,A,52.78994652790111,73.86038332712715,2.6394973263950554,1.1601961882591434,A,640.6464000465348,Correct,sub_004_day_22_data.csv,1,403,,Dual-Task at home,8.0,6.0,big,small,True,Size,left,left,595.7506999839097,Correct,1.0,0.9751861042183623,
4,22,36,A,49.02627362955282,72.62379933001853,2.451313681477641,1.1407719722548275,A,472.1309000160545,Correct,sub_004_day_22_data.csv,1,403,,Dual-Task at home,5.0,7.0,big,small,False,Value,right,right,440.51430001854897,Correct,1.0,0.9751861042183623,
4,22,37,A,65.94041444011864,84.00410679721529,3.297020722005932,1.3195334239275196,A,663.5796000482515,Correct,sub_004_day_22_data.csv,1,403,,Dual-Task at home,2.0,4.0,big,small,False,Size,left,left,360.1590999169275,Correct,1.0,0.9751861042183623,
4,22,38,A,55.22746176845451,66.27417582977421,2.7613730884227254,1.0410323195476845,A,938.4866999462248,Correct,sub_004_day_22_data.csv,1,403,,Dual-Task at home,3.0,5.0,big,small,False,Value,right,right,749.7170000569895,Correct,1.0,0.9751861042183623,
4,22,39,B,64.23273734988271,42.58379369831013,3.2116368674941356,0.6689046672229721,B,876.4505999861285,Correct,sub_004_day_22_data.csv,1,403,,Dual-Task at home,5.0,3.0,small,big,False,Value,left,left,351.6133999219164,Correct,1.0,0.9751861042183623,
4,22,40,B,44.88297857385552,36.91019662876831,2.244148928692776,0.5797840128574664,B,885.0230000680313,Correct,sub_004_day_22_data.csv,1,403,,Dual-Task at home,5.0,3.0,small,big,False,Value,left,left,627.9534000204876,Correct,1.0,0.9751861042183623,
4,22,41,A,65.99475144577322,79.73948329141625,3.299737572288661,1.2525448745467966,A,686.8244000943378,Correct,sub_004_day_22_data.csv,1,403,,Dual-Task at home,4.0,5.0,small,big,True,Value,right,right,212.4459999613464,Correct,1.0,0.9751861042183623,
4,22,42,B,67.04796880060515,41.23298966185599,3.352398440030257,0.6476862870361533,B,516.1445001140237,Correct,sub_004_day_22_data.csv,1,403,,Dual-Task at home,6.0,3.0,small,big,False,Size,right,right,503.44629993196577,Correct,1.0,0.9751861042183623,
4,22,43,A,34.875730565108036,57.88260751311515,1.7437865282554017,0.9092178726691196,A,488.99250000249594,Correct,sub_004_day_22_data.csv,1,403,,Dual-Task at home,6.0,2.0,small,big,False,Size,right,left,344.2866000114009,Incorrect,0.0,0.9751861042183623,
4,22,44,B,72.46511111435649,55.9481025440444,3.623255555717825,0.8788307396732916,B,1179.9991999287158,Correct,sub_004_day_22_data.csv,1,403,,Dual-Task at home,7.0,3.0,big,small,True,Size,left,left,204.27800004836172,Correct,1.0,0.9751861042183623,
4,22,45,B,60.22656121523701,32.3197754324563,3.0113280607618504,0.5076778453213829,B,597.1291000023484,Correct,sub_004_day_22_data.csv,1,403,,Dual-Task at home,6.0,7.0,big,small,False,Value,right,right,987.4879999551922,Correct,1.0,0.9751861042183623,
4,22,46,A,43.16384594367139,53.63750194465428,2.1581922971835694,0.8425359103311708,A,623.0088999727741,Correct,sub_004_day_22_data.csv,1,403,,Dual-Task at home,7.0,4.0,small,big,False,Value,left,left,610.7972000027075,Correct,1.0,0.9751861042183623,
4,22,47,B,45.51759004081217,29.976221650692572,2.2758795020406084,0.4708653886009755,A,469.20649998355657,Incorrect,sub_004_day_22_data.csv,0,403,,Dual-Task at home,3.0,2.0,big,small,True,Value,left,left,45.9677999606356,Correct,1.0,0.9751861042183623,
4,22,48,A,64.65952159141773,78.37250834579949,3.2329760795708866,1.231072482312842,A,614.3405999755487,Correct,sub_004_day_22_data.csv,1,403,,Dual-Task at home,3.0,5.0,big,small,False,Value,right,right,523.2025999575853,Correct,1.0,0.9751861042183623,
4,22,49,A,23.892880553457736,52.670464219574406,1.194644027672887,0.8273457172668951,A,554.9540999345481,Correct,sub_004_day_22_data.csv,1,403,,Dual-Task at home,4.0,6.0,big,small,False,Size,left,left,689.7927999962121,Correct,1.0,0.9751861042183623,
4,22,50,A,11.017438597810363,31.936771206572413,0.5508719298905183,0.5016616290097297,A,520.4831000883132,Correct,sub_004_day_22_data.csv,1,403,,Dual-Task at home,3.0,5.0,big,small,False,Size,left,left,425.9237999795005,Correct,1.0,0.9751861042183623,
4,22,51,A,11.110063669507078,36.16090233127112,0.5555031834753539,0.568014125555497,A,479.8043000046164,Correct,sub_004_day_22_data.csv,1,403,,Dual-Task at home,5.0,2.0,small,big,False,Value,left,left,956.711299950257,Correct,1.0,0.9751861042183623,
4,22,52,B,56.40878914871127,34.8027790447281,2.8204394574355636,0.546680774857133,B,615.7244000351056,Correct,sub_004_day_22_data.csv,1,403,,Dual-Task at home,2.0,3.0,big,small,False,Size,left,left,341.14470006898046,Correct,1.0,0.9751861042183623,
4,22,53,B,67.06712613246461,48.99155713299126,3.3533563066232306,0.7695575798846497,B,682.3266000719741,Correct,sub_004_day_22_data.csv,1,403,,Dual-Task at home,6.0,8.0,big,small,False,Value,right,right,382.6037000399083,Correct,1.0,0.9751861042183623,
4,22,54,B,35.304970384635624,16.89443750148332,1.7652485192317813,0.2653772037059595,B,707.090700045228,Correct,sub_004_day_22_data.csv,1,403,,Dual-Task at home,8.0,7.0,big,small,True,Value,left,left,167.71139996126294,Correct,1.0,0.9751861042183623,
4,22,55,A,30.392252786712596,60.46903260476528,1.5196126393356295,0.9498453430040612,A,613.9378000516444,Correct,sub_004_day_22_data.csv,1,403,,Dual-Task at home,3.0,6.0,big,small,False,Value,right,right,627.1508000791073,Correct,1.0,0.9751861042183623,
4,22,56,A,42.41172456761685,50.328572609024995,2.120586228380842,0.790559369870867,A,1122.5760999368504,Correct,sub_004_day_22_data.csv,1,403,,Dual-Task at home,6.0,3.0,small,big,False,Size,right,right,578.6649000365287,Correct,1.0,0.9751861042183623,
4,22,57,B,41.82884854031373,31.599103252544293,2.0914424270156866,0.4963575531910924,B,582.7599000185728,Correct,sub_004_day_22_data.csv,1,403,,Dual-Task at home,8.0,2.0,small,big,False,Value,left,left,355.8847999665886,Correct,1.0,0.9751861042183623,
4,22,58,A,44.554575573303154,53.7912723043575,2.227728778665158,0.8449513294930882,A,560.4796999832615,Correct,sub_004_day_22_data.csv,1,403,,Dual-Task at home,5.0,4.0,small,big,False,Size,right,right,712.8847000421956,Correct,1.0,0.9751861042183623,
4,22,59,B,40.277705018943635,16.87867187105392,2.013885250947182,0.2651295577622785,B,545.2887000283226,Correct,sub_004_day_22_data.csv,1,403,,Dual-Task at home,3.0,8.0,small,big,True,Size,right,right,108.37820009328424,Correct,1.0,0.9751861042183623,
4,22,60,A,52.211464547835625,73.634310141658,2.610573227391781,1.156645038965926,A,534.7806999925524,Correct,sub_004_day_22_data.csv,1,403,,Dual-Task at home,7.0,4.0,small,big,False,Value,left,left,534.5878999214619,Correct,1.0,0.9751861042183623,
4,22,61,B,52.47228490602954,30.21025564782632,2.623614245301477,0.4745415860314037,B,469.8482999810949,Correct,sub_004_day_22_data.csv,1,403,,Dual-Task at home,2.0,6.0,big,small,False,Value,right,right,370.2434999868274,Correct,1.0,0.9751861042183623,
4,22,62,A,55.40083202867612,77.75878448210894,2.770041601433806,1.2214321304053273,A,529.5493000885472,Correct,sub_004_day_22_data.csv,1,403,,Dual-Task at home,7.0,6.0,big,small,True,Value,left,left,153.69659999851137,Correct,1.0,0.9751861042183623,
4,22,63,B,75.1483701925872,59.141942157596624,3.75741850962936,0.92899945500669,B,516.0601999377832,Correct,sub_004_day_22_data.csv,1,403,,Dual-Task at home,5.0,8.0,big,small,False,Value,right,right,283.47210003994405,Correct,1.0,0.9751861042183623,
4,22,64,A,17.84078112948498,37.50670514449284,0.8920390564742491,0.589153946711486,A,428.0452999519184,Correct,sub_004_day_22_data.csv,1,403,,Dual-Task at home,7.0,5.0,small,big,False,Size,right,right,384.5576000167057,Correct,1.0,0.9751861042183623,
4,22,65,A,14.87763554460948,34.478169723175554,0.7438817772304739,0.5415818235577519,A,488.94900002051145,Correct,sub_004_day_22_data.csv,1,403,,Dual-Task at home,8.0,5.0,big,small,True,Size,left,left,96.47650003898887,Correct,1.0,0.9751861042183623,
4,22,66,B,77.80985067828476,64.18203268553518,3.890492533914238,1.0081690118866866,B,470.59300006367266,Correct,sub_004_day_22_data.csv,1,403,,Dual-Task at home,7.0,4.0,small,big,False,Size,right,right,452.360299997963,Correct,1.0,0.9751861042183623,
4,22,67,A,56.50255786508825,68.15358243732399,2.8251278932544124,1.070553969504617,A,545.5320000182837,Correct,sub_004_day_22_data.csv,1,403,,Dual-Task at home,4.0,8.0,big,small,False,Value,right,right,337.8484999993816,Correct,1.0,0.9751861042183623,
4,22,68,A,15.6847708124631,37.500385637927074,0.784238540623155,0.5890546801344794,A,492.4538999330253,Correct,sub_004_day_22_data.csv,1,403,,Dual-Task at home,5.0,4.0,big,small,True,Size,left,left,-6.585299968719482,Correct,1.0,0.9751861042183623,
4,22,69,B,57.81463347031289,37.69440465918487,2.8907316735156443,0.5921023237936803,B,629.753899993375,Correct,sub_004_day_22_data.csv,1,403,,Dual-Task at home,8.0,3.0,small,big,False,Size,right,right,393.0820999667049,Correct,1.0,0.9751861042183623,
4,22,70,A,30.640738776882017,48.10881093556067,1.5320369388441009,0.7556914350404885,A,1222.7546999929473,Correct,sub_004_day_22_data.csv,1,403,,Dual-Task at home,8.0,6.0,small,big,False,Size,right,right,361.6348000941798,Correct,1.0,0.9751861042183623,
4,22,71,B,81.8145272504967,68.01550246961384,4.090726362524834,1.0683850144437863,B,1119.5545999798924,Correct,sub_004_day_22_data.csv,1,403,,Dual-Task at home,2.0,7.0,big,small,False,Value,right,right,610.3131000418216,Correct,1.0,0.9751861042183623,
4,22,72,A,44.28279561389748,60.657832914031104,2.2141397806948735,0.9528110113269862,A,839.4566999049857,Correct,sub_004_day_22_data.csv,1,403,,Dual-Task at home,7.0,4.0,small,big,False,Value,left,left,627.6846000691876,Correct,1.0,0.9751861042183623,
4,22,73,A,45.872720942020806,69.04870497400661,2.29363604710104,1.084614521431141,A,1341.546699986793,Correct,sub_004_day_22_data.csv,1,403,,Dual-Task at home,5.0,8.0,small,big,True,Value,right,right,58.4478999953717,Correct,1.0,0.9751861042183623,
4,22,74,B,51.42875904288841,32.46589508239783,2.57143795214442,0.50997308741539,B,500.1945000840351,Correct,sub_004_day_22_data.csv,1,403,,Dual-Task at home,3.0,6.0,big,small,False,Value,right,right,709.9436999997124,Correct,1.0,0.9751861042183623,
4,22,75,B,66.35546383243917,55.91796222213392,3.3177731916219586,0.8783572966038374,B,712.5623000320047,Correct,sub_004_day_22_data.csv,1,403,,Dual-Task at home,6.0,8.0,small,big,True,Value,right,right,437.9791999235749,Correct,1.0,0.9751861042183623,
4,22,76,B,45.788856532197855,28.214683855132595,2.2894428266098927,0.4431952176132155,B,590.1623000390828,Correct,sub_004_day_22_data.csv,1,403,,Dual-Task at home,4.0,7.0,big,small,False,Size,left,left,390.6136000296101,Correct,1.0,0.9751861042183623,
4,22,77,A,69.34975941601577,88.25768407107472,3.467487970800789,1.386348459502686,A,501.3842000626027,Correct,sub_004_day_22_data.csv,1,403,,Dual-Task at home,3.0,4.0,big,small,False,Size,left,right,456.0488000279293,Incorrect,0.0,0.9751861042183623,
4,22,78,A,30.129353789445137,40.5687806673961,1.5064676894722568,0.6372529165489361,A,640.0867999764159,Correct,sub_004_day_22_data.csv,1,403,,Dual-Task at home,5.0,4.0,small,big,False,Size,right,right,672.3974000196904,Correct,1.0,0.9751861042183623,
4,22,79,A,55.445639015982046,83.61080693655686,2.772281950799102,1.3133554841630075,A,570.7747000269592,Correct,sub_004_day_22_data.csv,1,403,,Dual-Task at home,5.0,4.0,small,big,False,Value,left,left,383.73769994359463,Correct,1.0,0.9751861042183623,
4,22,80,A,20.691895658110987,51.65991774521747,1.0345947829055493,0.811472090367141,A,503.9164999034256,Correct,sub_004_day_22_data.csv,1,403,,Dual-Task at home,7.0,8.0,big,small,False,Value,right,right,358.51869999896735,Correct,1.0,0.9751861042183623,
4,22,81,A,48.656011199207406,60.980464305398606,2.4328005599603704,0.9578788933716744,A,946.8590000178664,Correct,sub_004_day_22_data.csv,1,403,,Dual-Task at home,6.0,4.0,small,big,False,Value,left,left,578.867599950172,Correct,1.0,0.9751861042183623,
4,22,82,A,11.93486385518952,34.192538822081374,0.596743192759476,0.5370951438551733,A,435.4490999830887,Correct,sub_004_day_22_data.csv,1,403,,Dual-Task at home,5.0,8.0,big,small,False,Value,right,right,511.4169000880793,Correct,1.0,0.9751861042183623,
4,22,83,B,54.90456258734214,48.03329749025066,2.745228129367107,0.7545052726153225,B,616.67859996669,Correct,sub_004_day_22_data.csv,1,403,,Dual-Task at home,5.0,3.0,small,big,False,Value,left,left,461.41690004151314,Correct,1.0,0.9751861042183623,
4,22,84,B,76.80336980964556,51.76145632341209,3.840168490482278,0.8130670546237018,B,536.8673999328166,Correct,sub_004_day_22_data.csv,1,403,,Dual-Task at home,2.0,7.0,big,small,False,Value,right,right,375.3088000230491,Correct,1.0,0.9751861042183623,
4,22,85,B,56.14158481166251,31.42967675172412,2.8070792405831253,0.493696207939592,B,498.9427999826148,Correct,sub_004_day_22_data.csv,1,403,,Dual-Task at home,6.0,3.0,small,big,False,Value,left,left,622.4429999710992,Correct,1.0,0.9751861042183623,
4,22,86,B,74.23050447612324,62.73350323031579,3.7115252238061625,0.9854155644115582,B,605.0674000289291,Correct,sub_004_day_22_data.csv,1,403,,Dual-Task at home,3.0,7.0,big,small,False,Size,left,left,313.72079998254776,Correct,1.0,0.9751861042183623,
4,22,87,B,59.70591470501637,32.73998218374992,2.9852957352508183,0.5142784375356473,B,549.994400003925,Correct,sub_004_day_22_data.csv,1,403,,Dual-Task at home,7.0,3.0,big,small,True,Size,left,left,199.73749993368983,Correct,1.0,0.9751861042183623,
4,22,88,B,74.6639563108458,60.094865268466805,3.7331978155422902,0.9439679362294184,B,406.4920999808237,Correct,sub_004_day_22_data.csv,1,403,,Dual-Task at home,2.0,8.0,small,big,True,Size,right,right,258.40880000032485,Correct,1.0,0.9751861042183623,
4,22,89,B,61.21417698588615,34.947417097363854,3.0607088492943073,0.5489527440750831,B,477.02830005437136,Correct,sub_004_day_22_data.csv,1,403,,Dual-Task at home,4.0,8.0,big,small,False,Size,left,left,335.832400014624,Correct,1.0,0.9751861042183623,
4,22,90,A,38.37157392692779,70.38847621289823,1.9185786963463896,1.105659598839105,A,496.12469994463027,Correct,sub_004_day_22_data.csv,1,403,,Dual-Task at home,3.0,6.0,big,small,False,Size,left,left,419.83050003182143,Correct,1.0,0.9751861042183623,
4,22,91,A,57.57694504436152,75.40758837184339,2.878847252218076,1.1844996282695317,A,517.0012000016868,Correct,sub_004_day_22_data.csv,1,403,,Dual-Task at home,2.0,7.0,big,small,False,Value,right,right,377.34100001398474,Correct,1.0,0.9751861042183623,
4,22,92,A,37.369081623918355,48.08435192572295,1.8684540811959176,0.7553072338123872,B,566.283900057897,Incorrect,sub_004_day_22_data.csv,0,403,,Dual-Task at home,4.0,3.0,big,small,True,Size,left,left,1.1871999595314264,Correct,1.0,0.9751861042183623,
4,22,93,B,81.94959299647353,58.65590060869875,4.0974796498236765,0.9213647322099052,B,518.6122000450268,Correct,sub_004_day_22_data.csv,1,403,,Dual-Task at home,3.0,8.0,big,small,False,Value,right,right,669.3576999241486,Correct,1.0,0.9751861042183623,
4,22,94,A,64.24746410983983,85.74895173819542,3.2123732054919913,1.3469413841687023,A,516.6199000086635,Correct,sub_004_day_22_data.csv,1,403,,Dual-Task at home,6.0,8.0,big,small,False,Value,right,right,505.38990006316453,Correct,1.0,0.9751861042183623,
4,22,95,A,47.08643507646878,78.09513966781766,2.354321753823439,1.226715585307424,A,482.18439996708184,Correct,sub_004_day_22_data.csv,1,403,,Dual-Task at home,3.0,8.0,big,small,False,Size,left,left,535.2712000021711,Correct,1.0,0.9751861042183623,
4,22,96,B,66.51256192820951,54.79485902638869,3.325628096410475,0.8607156328589554,B,468.0669999215752,Correct,sub_004_day_22_data.csv,1,403,,Dual-Task at home,7.0,4.0,small,big,False,Value,left,left,618.6583999078721,Correct,1.0,0.9751861042183623,
4,22,97,A,48.008382625740495,58.15221456504497,2.4004191312870247,0.9134528503376133,A,1050.0939999474213,Correct,sub_004_day_22_data.csv,1,403,,Dual-Task at home,4.0,7.0,big,small,False,Size,left,left,501.1289999820292,Correct,1.0,0.9751861042183623,
4,22,98,B,62.1967600030893,43.5286336819963,3.1098380001544648,0.6837461789808039,B,521.6354000149295,Correct,sub_004_day_22_data.csv,1,403,,Dual-Task at home,8.0,3.0,small,big,False,Size,right,right,339.0431000152603,Correct,1.0,0.9751861042183623,
4,22,99,B,54.62226685551595,38.83667828107562,2.7311133427757976,0.6100451158882872,B,451.711899950169,Correct,sub_004_day_22_data.csv,1,403,,Dual-Task at home,3.0,7.0,big,small,False,Size,left,left,719.1659000236541,Correct,1.0,0.9751861042183623,
4,22,100,B,65.31430446030237,50.14936273991416,3.2657152230151185,0.78774434782962,B,549.7320999857038,Correct,sub_004_day_22_data.csv,1,403,,Dual-Task at home,4.0,8.0,big,small,False,Size,left,left,780.3562000626698,Correct,1.0,0.9751861042183623,
4,22,101,A,67.29012095514935,86.77258504540242,3.3645060477574673,1.3630205785581588,A,667.0901000034064,Correct,sub_004_day_22_data.csv,1,403,,Dual-Task at home,7.0,2.0,big,small,True,Size,left,left,257.0553000550717,Correct,1.0,0.9751861042183623,
4,22,102,B,54.447927780613945,39.87338496750122,2.7223963890306973,0.6263296664382976,B,890.3232000302523,Correct,sub_004_day_22_data.csv,1,403,,Dual-Task at home,8.0,4.0,big,small,True,Size,left,left,225.7278999313712,Correct,1.0,0.9751861042183623,
4,22,103,A,31.794777187053658,58.08969405552485,1.5897388593526829,0.9124707804705776,A,493.4322000481188,Correct,sub_004_day_22_data.csv,1,403,,Dual-Task at home,4.0,3.0,small,big,False,Size,right,right,567.0539001002908,Correct,1.0,0.9751861042183623,
4,22,104,A,30.85804983847828,45.37974226826512,1.542902491923914,0.7128233246588995,A,590.3904000297189,Correct,sub_004_day_22_data.csv,1,403,,Dual-Task at home,7.0,6.0,small,big,False,Size,right,right,892.4691999563947,Correct,1.0,0.9751861042183623,
4,22,105,A,26.10549226898997,51.664431472986315,1.3052746134494984,0.8115429918371355,A,530.3593999706209,Correct,sub_004_day_22_data.csv,1,403,,Dual-Task at home,2.0,7.0,big,small,False,Size,left,left,354.2365999892354,Correct,1.0,0.9751861042183623,
4,22,106,B,60.66317824901568,38.510577431968755,3.0331589124507836,0.6049227357288696,B,512.604400049895,Correct,sub_004_day_22_data.csv,1,403,,Dual-Task at home,5.0,3.0,small,big,False,Value,left,left,379.3468999210745,Correct,1.0,0.9751861042183623,
4,22,107,B,55.42440689761725,26.369415927042347,2.771220344880863,0.4142098167792495,B,516.0071999998763,Correct,sub_004_day_22_data.csv,1,403,,Dual-Task at home,8.0,3.0,big,small,True,Value,left,left,121.90060003194958,Correct,1.0,0.9751861042183623,
4,22,108,A,53.99331305426858,71.28731809054986,2.699665652713429,1.119778574036951,A,431.4514000434429,Correct,sub_004_day_22_data.csv,1,403,,Dual-Task at home,4.0,8.0,big,small,False,Value,right,right,731.7701000720263,Correct,1.0,0.9751861042183623,
4,22,109,A,41.7424495712004,56.20736357010121,2.0871224785600195,0.8829032023474026,A,554.1399999056011,Correct,sub_004_day_22_data.csv,1,403,,Dual-Task at home,4.0,7.0,big,small,False,Value,right,right,523.627599934116,Correct,1.0,0.9751861042183623,
4,22,110,B,69.33068164260764,46.0953008846289,3.4665340821303823,0.7240632931208062,B,803.055000025779,Correct,sub_004_day_22_data.csv,1,403,,Dual-Task at home,4.0,6.0,big,small,False,Size,left,left,308.09780000709,Correct,1.0,0.9751861042183623,
4,22,111,A,45.42582818137829,75.92782886439423,2.2712914090689145,1.1926715468170197,A,871.127099962905,Correct,sub_004_day_22_data.csv,1,403,,Dual-Task at home,6.0,7.0,big,small,False,Value,right,right,493.3925000950694,Correct,1.0,0.9751861042183623,
4,22,112,B,49.38758746685886,34.24825770729918,2.469379373342943,0.5379703740575056,B,621.3697000639513,Correct,sub_004_day_22_data.csv,1,403,,Dual-Task at home,5.0,8.0,small,big,True,Value,right,right,83.21229997090995,Correct,1.0,0.9751861042183623,
4,22,113,A,34.35986758101545,46.95979408483942,1.7179933790507729,0.7376427205551047,A,596.3424999499694,Correct,sub_004_day_22_data.csv,1,403,,Dual-Task at home,7.0,6.0,small,big,False,Size,right,right,649.5337999658659,Correct,1.0,0.9751861042183623,
4,22,114,A,37.04193843656485,61.55274342942709,1.8520969218282424,0.9668682328309276,A,504.79290005750954,Correct,sub_004_day_22_data.csv,1,403,,Dual-Task at home,5.0,8.0,small,big,True,Value,right,right,94.83539999928324,Correct,1.0,0.9751861042183623,
4,22,115,A,20.92752783224723,33.51956482942276,1.0463763916123614,0.5265240930982068,A,542.7636000094935,Correct,sub_004_day_22_data.csv,1,403,,Dual-Task at home,3.0,6.0,big,small,False,Size,left,left,428.0946000944823,Correct,1.0,0.9751861042183623,
4,22,116,B,69.58106732438925,40.83177880734822,3.4790533662194627,0.6413840816708428,B,534.3804999720305,Correct,sub_004_day_22_data.csv,1,403,,Dual-Task at home,4.0,2.0,small,big,False,Value,left,left,717.4595999531448,Correct,1.0,0.9751861042183623,
4,22,117,A,55.92874256863371,81.13214052089695,2.7964371284316853,1.274420683152323,A,425.4203999880702,Correct,sub_004_day_22_data.csv,1,403,,Dual-Task at home,3.0,4.0,big,small,False,Size,left,left,602.543400018476,Correct,1.0,0.9751861042183623,
4,22,118,A,34.16339515822217,56.02747110731823,1.7081697579111086,0.8800774581498267,A,671.9525000080466,Correct,sub_004_day_22_data.csv,1,403,,Dual-Task at home,4.0,5.0,big,small,False,Size,left,left,317.03540007583797,Correct,1.0,0.9751861042183623,
4,22,119,A,13.41686596586722,37.918193140681595,0.670843298293361,0.595617585040821,A,441.2953000282869,Correct,sub_004_day_22_data.csv,1,403,,Dual-Task at home,3.0,5.0,big,small,False,Size,left,left,344.4005000637844,Correct,1.0,0.9751861042183623,
4,22,120,A,38.70124454727682,51.1211029718136,1.935062227363841,0.8030084076982847,A,807.8990000067279,Correct,sub_004_day_22_data.csv,1,403,,Dual-Task at home,6.0,2.0,small,big,False,Size,right,right,432.0284000132233,Correct,1.0,0.9751861042183623,
4,22,121,B,59.212681072096125,36.260458373711344,2.960634053604806,0.5695779482132503,B,550.90269993525,Correct,sub_004_day_22_data.csv,1,403,,Dual-Task at home,5.0,6.0,big,small,False,Value,right,right,411.87900002114475,Correct,1.0,0.9751861042183623,
4,22,122,B,53.453034522425554,46.672566014005945,2.672651726121278,0.7331309525689286,B,659.5059001119807,Correct,sub_004_day_22_data.csv,1,403,,Dual-Task at home,4.0,2.0,small,big,False,Size,right,right,341.29330003634095,Correct,1.0,0.9751861042183623,
4,22,123,B,54.01692765821653,22.88299457392496,2.700846382910827,0.3594452382278888,B,525.8937000762671,Correct,sub_004_day_22_data.csv,1,403,,Dual-Task at home,7.0,5.0,big,small,True,Value,left,left,90.55520000401884,Correct,1.0,0.9751861042183623,
4,22,124,A,34.372468194556916,64.51687619818941,1.718623409727846,1.01342872148397,A,417.67200001049787,Correct,sub_004_day_22_data.csv,1,403,,Dual-Task at home,3.0,6.0,big,small,False,Value,right,right,366.0924999276176,Correct,1.0,0.9751861042183623,
4,22,125,A,57.95557904513129,74.63602326816458,2.8977789522565645,1.1723799119621137,A,985.6075999559836,Correct,sub_004_day_22_data.csv,1,403,,Dual-Task at home,2.0,4.0,big,small,False,Size,left,left,349.0473999409005,Correct,1.0,0.9751861042183623,
4,22,126,B,86.95050448739403,68.21001781111924,4.347525224369702,1.0714404542832057,B,507.13850010652095,Correct,sub_004_day_22_data.csv,1,403,,Dual-Task at home,3.0,5.0,big,small,False,Value,right,right,320.85289992392063,Correct,1.0,0.9751861042183623,
4,22,127,B,61.37999279254933,51.61753569816072,3.068999639627466,0.8108063547287532,B,656.6463999915868,Correct,sub_004_day_22_data.csv,1,403,,Dual-Task at home,7.0,3.0,small,big,False,Value,left,left,539.1195999691263,Correct,1.0,0.9751861042183623,
4,22,128,A,31.44447295888054,56.11039707949429,1.572223647944027,0.881380056274727,A,594.647700083442,Correct,sub_004_day_22_data.csv,1,403,,Dual-Task at home,3.0,6.0,big,small,False,Value,right,right,536.9738000445068,Correct,1.0,0.9751861042183623,
4,22,129,B,60.41130234302912,28.12912730556536,3.0205651171514556,0.4418512984752809,B,449.85540001653135,Correct,sub_004_day_22_data.csv,1,403,,Dual-Task at home,8.0,4.0,small,big,False,Size,right,right,329.7331999056041,Correct,1.0,0.9751861042183623,
4,22,130,A,36.02720975771306,50.71053050795989,1.8013604878856528,0.7965591505172395,A,532.9486000118777,Correct,sub_004_day_22_data.csv,1,403,,Dual-Task at home,3.0,2.0,big,small,True,Value,left,left,130.6482000509277,Correct,1.0,0.9751861042183623,
4,22,131,A,38.09554553056997,58.94726187355285,1.9047772765284987,0.9259414242559364,A,588.3924000663683,Correct,sub_004_day_22_data.csv,1,403,,Dual-Task at home,8.0,6.0,small,big,False,Size,right,right,372.1483000554144,Correct,1.0,0.9751861042183623,
4,22,132,A,50.65710945578539,69.43491784589628,2.5328554727892696,1.0906811390363929,A,464.5592999877408,Correct,sub_004_day_22_data.csv,1,403,,Dual-Task at home,4.0,8.0,big,small,False,Value,right,right,501.9402001053095,Correct,1.0,0.9751861042183623,
4,22,133,B,84.2181614758322,55.535083813042235,4.21090807379161,0.8723430566177345,B,528.2303999410942,Correct,sub_004_day_22_data.csv,1,403,,Dual-Task at home,5.0,6.0,big,small,False,Size,left,left,341.7646000161767,Correct,1.0,0.9751861042183623,
4,22,134,B,41.395622278514985,32.244881987825856,2.069781113925749,0.5065014218441177,B,874.5392999844626,Correct,sub_004_day_22_data.csv,1,403,,Dual-Task at home,7.0,3.0,small,big,False,Value,left,left,321.44440000411123,Correct,1.0,0.9751861042183623,
4,22,135,B,79.91030754284066,53.44267995443447,3.995515377142033,0.8394756536650091,B,611.8224000092596,Correct,sub_004_day_22_data.csv,1,403,,Dual-Task at home,4.0,5.0,big,small,False,Size,left,left,323.0420999461785,Correct,1.0,0.9751861042183623,
4,22,136,B,52.58110270703368,43.03314647246092,2.629055135351684,0.6759630840936838,B,1434.4633999280632,Correct,sub_004_day_22_data.csv,1,403,,Dual-Task at home,6.0,3.0,small,big,False,Size,right,right,367.9303999524563,Correct,1.0,0.9751861042183623,
4,22,137,B,62.0106258168276,31.825293185714845,3.10053129084138,0.4999105363529154,B,534.2732999706641,Correct,sub_004_day_22_data.csv,1,403,,Dual-Task at home,2.0,5.0,big,small,False,Size,left,left,348.93449989613146,Correct,1.0,0.9751861042183623,
4,22,138,A,12.276588524627758,34.920646749059685,0.6138294262313879,0.5485322364272509,A,466.0340000409633,Correct,sub_004_day_22_data.csv,1,403,,Dual-Task at home,6.0,4.0,small,big,False,Value,left,left,314.91059996187687,Correct,1.0,0.9751861042183623,
4,22,139,A,22.352213115275447,35.770717555036335,1.1176106557637724,0.561885117422688,A,475.3121000248939,Correct,sub_004_day_22_data.csv,1,403,,Dual-Task at home,2.0,3.0,big,small,False,Size,left,left,366.9436000054702,Correct,1.0,0.9751861042183623,
4,22,140,B,71.98959147501667,61.676542634501594,3.599479573750833,0.9688128661968394,B,914.8948000511156,Correct,sub_004_day_22_data.csv,1,403,,Dual-Task at home,3.0,5.0,big,small,False,Value,right,right,328.40560004115105,Correct,1.0,0.9751861042183623,
4,22,141,A,39.607885712250706,69.47869823339735,1.9803942856125352,1.0913688397551164,A,731.5907999873161,Correct,sub_004_day_22_data.csv,1,403,,Dual-Task at home,6.0,2.0,small,big,False,Size,right,right,405.149900005199,Correct,1.0,0.9751861042183623,
4,22,142,A,53.28192433682171,66.09937024236899,2.6640962168410858,1.038286479801691,A,1041.9206999940798,Correct,sub_004_day_22_data.csv,1,403,,Dual-Task at home,5.0,7.0,big,small,False,Value,right,right,435.39580004289746,Correct,1.0,0.9751861042183623,
4,22,143,B,65.30573913234647,36.39896787843513,3.265286956617324,0.5717536504257134,B,528.7233999697492,Correct,sub_004_day_22_data.csv,1,403,,Dual-Task at home,8.0,5.0,small,big,False,Size,right,right,379.5391999883577,Correct,1.0,0.9751861042183623,
4,22,144,A,34.77154344537568,55.469150888693015,1.7385771722687835,0.8713073846639087,A,660.4124000295997,Correct,sub_004_day_22_data.csv,1,403,,Dual-Task at home,4.0,8.0,big,small,False,Value,right,right,563.9981999993324,Correct,1.0,0.9751861042183623,
4,22,145,B,34.69407685211415,18.942096550118396,1.7347038426057078,0.2975417568272026,B,480.8136000065133,Correct,sub_004_day_22_data.csv,1,403,,Dual-Task at home,6.0,4.0,small,big,False,Value,left,left,672.0967999426648,Correct,1.0,0.9751861042183623,
4,22,146,B,63.09913067598413,52.75495727800166,3.1549565337992065,0.828672931125067,B,656.3822999596596,Correct,sub_004_day_22_data.csv,1,403,,Dual-Task at home,3.0,7.0,big,small,False,Value,right,right,387.798500014469,Correct,1.0,0.9751861042183623,
4,22,147,B,86.95590988287394,60.208810550031984,4.347795494143697,0.9457577845268006,B,575.7518999744207,Correct,sub_004_day_22_data.csv,1,403,,Dual-Task at home,3.0,8.0,big,small,False,Value,right,right,734.1495000291616,Correct,1.0,0.9751861042183623,
4,22,148,A,59.19149366207659,67.84402974334726,2.95957468310383,1.065691527158136,B,1949.9011000152675,Incorrect,sub_004_day_22_data.csv,0,403,,Dual-Task at home,6.0,2.0,small,big,False,Size,right,right,576.274499995634,Correct,1.0,0.9751861042183623,
4,22,149,A,53.60945573252708,80.8500499974644,2.680472786626354,1.2699896155720083,A,662.0104999747127,Correct,sub_004_day_22_data.csv,1,403,,Dual-Task at home,3.0,8.0,big,small,False,Value,right,right,574.1136000724509,Correct,1.0,0.9751861042183623,
4,22,150,A,45.19347073841895,53.103421212877016,2.259673536920948,0.8341465898142941,A,2009.2486999928951,Correct,sub_004_day_22_data.csv,1,403,,Dual-Task at home,4.0,7.0,big,small,False,Value,right,right,694.6802999591455,Correct,1.0,0.9751861042183623,
4,22,151,B,31.505734296715847,13.969657701740813,1.5752867148357923,0.219434870044765,B,2043.9891000278296,Correct,sub_004_day_22_data.csv,1,403,,Dual-Task at home,6.0,5.0,small,big,False,Size,right,right,1232.410499942489,Correct,1.0,0.9751861042183623,
4,22,152,B,44.903586293128086,20.75476792935131,2.2451793146564043,0.3260151322690556,B,591.5298000909388,Correct,sub_004_day_22_data.csv,1,403,,Dual-Task at home,5.0,3.0,small,big,False,Value,left,left,808.2653000019491,Correct,1.0,0.9751861042183623,
4,22,153,A,59.190597120775536,70.37432743289446,2.9595298560387766,1.1054373503225194,A,757.7762000728399,Correct,sub_004_day_22_data.csv,1,403,,Dual-Task at home,4.0,2.0,small,big,False,Value,left,left,598.5499999951571,Correct,1.0,0.9751861042183623,
4,22,154,A,15.3030999041541,33.84681391610451,0.7651549952077049,0.5316645097312735,A,1273.5570999793708,Correct,sub_004_day_22_data.csv,1,403,,Dual-Task at home,7.0,6.0,small,big,False,Size,right,right,479.4922999572009,Correct,1.0,0.9751861042183623,
4,22,155,A,67.78625732931053,82.13514800898076,3.3893128664655263,1.2901758879326215,A,677.8867000248283,Correct,sub_004_day_22_data.csv,1,403,,Dual-Task at home,6.0,8.0,big,small,False,Size,left,left,402.00229990296066,Correct,1.0,0.9751861042183623,
4,22,156,B,40.305498303628944,30.508207129115505,2.0152749151814473,0.4792217969551251,B,725.7641999749467,Correct,sub_004_day_22_data.csv,1,403,,Dual-Task at home,3.0,6.0,big,small,False,Size,left,left,713.804200058803,Correct,1.0,0.9751861042183623,
4,22,157,A,60.12116647509875,80.33192291826782,3.006058323754937,1.261850894443859,A,485.91899999883026,Correct,sub_004_day_22_data.csv,1,403,,Dual-Task at home,4.0,2.0,small,big,False,Value,left,left,739.4102999242023,Correct,1.0,0.9751861042183623,
4,22,158,A,15.862976810284998,44.28616875320389,0.7931488405142499,0.6956455120535158,A,580.2233000285923,Correct,sub_004_day_22_data.csv,1,403,,Dual-Task at home,6.0,3.0,small,big,False,Value,left,left,673.4415999380872,Correct,1.0,0.9751861042183623,
4,22,159,B,59.20459963851999,39.91732864767066,2.960229981925999,0.6270199321522576,B,561.9055000133812,Correct,sub_004_day_22_data.csv,1,403,,Dual-Task at home,8.0,6.0,small,big,False,Value,left,left,315.3451000107452,Correct,1.0,0.9751861042183623,
4,22,160,B,45.02154794176171,24.348827423603964,2.2510773970880855,0.3824704867875995,B,680.5252999765798,Correct,sub_004_day_22_data.csv,1,403,,Dual-Task at home,3.0,4.0,big,small,False,Size,left,left,465.55119997356087,Correct,1.0,0.9751861042183623,
4,22,161,B,56.168945140651715,32.77794038963766,2.8084472570325856,0.5148746836394492,B,836.9254000717774,Correct,sub_004_day_22_data.csv,1,403,,Dual-Task at home,7.0,8.0,big,small,False,Value,right,right,384.40320000518113,Correct,1.0,0.9751861042183623,
4,22,162,B,64.81866484473657,52.59177739295874,3.240933242236829,0.8261097074847448,A,667.3502000048757,Incorrect,sub_004_day_22_data.csv,0,403,,Dual-Task at home,8.0,6.0,small,big,False,Size,right,right,461.04860003106296,Correct,1.0,0.9751861042183623,
4,22,163,B,56.35691067133332,35.46905952810059,2.817845533566666,0.5571466842160993,B,420.15350004658103,Correct,sub_004_day_22_data.csv,1,403,,Dual-Task at home,5.0,6.0,big,small,False,Size,left,left,394.8722000932321,Correct,1.0,0.9751861042183623,
4,22,164,A,26.15352209143635,39.59498204970467,1.3076761045718177,0.6219565236318596,A,666.4624999975786,Correct,sub_004_day_22_data.csv,1,403,,Dual-Task at home,4.0,5.0,small,big,True,Size,right,right,41.34400002658367,Correct,1.0,0.9751861042183623,
4,22,165,B,51.165402803504065,33.129180224705706,2.5582701401752033,0.5203919460669384,B,466.6525999782607,Correct,sub_004_day_22_data.csv,1,403,,Dual-Task at home,2.0,7.0,big,small,False,Size,left,left,335.11639991775155,Correct,1.0,0.9751861042183623,
4,22,166,B,42.41234412056831,27.06377874347236,2.1206172060284154,0.4251168423943618,B,741.4071999955922,Correct,sub_004_day_22_data.csv,1,403,,Dual-Task at home,2.0,8.0,big,small,False,Value,right,right,576.9234999315813,Correct,1.0,0.9751861042183623,
4,22,167,A,18.244650708352243,34.554270500274555,0.912232535417612,0.5427772117690852,A,599.3255000794306,Correct,sub_004_day_22_data.csv,1,403,,Dual-Task at home,3.0,6.0,big,small,False,Value,right,right,528.4715999150649,Correct,1.0,0.9751861042183623,
4,22,168,A,13.252078262698213,34.790812379888315,0.6626039131349105,0.5464928029253898,A,464.8967999964953,Correct,sub_004_day_22_data.csv,1,403,,Dual-Task at home,6.0,4.0,small,big,False,Size,right,right,265.0451000081375,Correct,1.0,0.9751861042183623,
4,22,169,A,55.1795408783957,76.9639219498843,2.758977043919785,1.2089464589460734,A,796.125499997288,Correct,sub_004_day_22_data.csv,1,403,,Dual-Task at home,4.0,8.0,small,big,True,Value,right,right,6.9568000035360456,Correct,1.0,0.9751861042183623,
4,22,170,B,57.35685302171183,31.24594078456159,2.867842651085591,0.4908100901164019,B,599.2469999473542,Correct,sub_004_day_22_data.csv,1,403,,Dual-Task at home,7.0,6.0,small,big,False,Size,right,right,321.0603001061827,Correct,1.0,0.9751861042183623,
4,22,171,A,57.25279270641245,70.72870061963455,2.8626396353206225,1.1110038313229786,A,998.5696000512688,Correct,sub_004_day_22_data.csv,1,403,,Dual-Task at home,6.0,5.0,small,big,False,Size,right,right,305.290799937211,Correct,1.0,0.9751861042183623,
4,22,172,B,46.80072217174243,24.418552196075,2.3400361085871215,0.3835657209524407,B,516.4648999925703,Correct,sub_004_day_22_data.csv,1,403,,Dual-Task at home,6.0,7.0,big,small,False,Value,right,right,733.4783000405878,Correct,1.0,0.9751861042183623,
4,22,173,A,39.54050164255057,56.57686503060789,1.9770250821275288,0.8887073177164951,A,1241.2403000053018,Correct,sub_004_day_22_data.csv,1,403,,Dual-Task at home,4.0,3.0,small,big,False,Size,right,right,720.0162999797612,Correct,1.0,0.9751861042183623,
4,22,174,B,47.90068808651166,29.34853927677108,2.3950344043255827,0.4610057769274776,B,765.7317999983206,Correct,sub_004_day_22_data.csv,1,403,,Dual-Task at home,5.0,8.0,big,small,False,Value,right,right,622.9510999983177,Correct,1.0,0.9751861042183623,
4,22,175,A,39.986122869134775,56.703115741143506,1.9993061434567383,0.890690459240141,A,627.8276999946684,Correct,sub_004_day_22_data.csv,1,403,,Dual-Task at home,8.0,7.0,small,big,False,Value,left,left,328.72759993188083,Correct,1.0,0.9751861042183623,
4,22,176,A,14.971600889899776,38.98188139163136,0.7485800444949888,0.6123259610152887,A,487.1230000862852,Correct,sub_004_day_22_data.csv,1,403,,Dual-Task at home,6.0,4.0,small,big,False,Size,right,right,417.09890007041395,Correct,1.0,0.9751861042183623,
4,22,177,A,22.891207867984473,52.85992985748273,1.1445603933992237,0.8303218365476976,A,516.1052999319509,Correct,sub_004_day_22_data.csv,1,403,,Dual-Task at home,8.0,3.0,small,big,False,Value,left,left,616.6012999601662,Correct,1.0,0.9751861042183623,
4,22,178,B,45.85059081779368,18.353716526437992,2.292529540889684,0.2882995050276358,B,552.5547999422997,Correct,sub_004_day_22_data.csv,1,403,,Dual-Task at home,4.0,2.0,big,small,True,Size,left,left,4.223800031468272,Correct,1.0,0.9751861042183623,
4,22,179,A,41.69336901481005,69.27625739635727,2.084668450740503,1.0881889065229575,A,551.3190000783652,Correct,sub_004_day_22_data.csv,1,403,,Dual-Task at home,7.0,6.0,big,small,True,Value,left,left,174.89470005966723,Correct,1.0,0.9751861042183623,
4,22,180,A,22.345878665575572,51.34530295622496,1.1172939332787786,0.8065301328180934,A,472.8915999876335,Correct,sub_004_day_22_data.csv,1,403,,Dual-Task at home,2.0,6.0,big,small,False,Value,right,right,412.8868000116199,Correct,1.0,0.9751861042183623,
4,22,181,A,30.491749240319436,39.842440525901424,1.5245874620159718,0.6258435922863008,B,535.0829000817612,Incorrect,sub_004_day_22_data.csv,0,403,,Dual-Task at home,4.0,6.0,big,small,False,Value,right,right,529.2635000078008,Correct,1.0,0.9751861042183623,
4,22,182,A,50.30490888593148,76.60721766882948,2.515245444296574,1.2033433612017446,A,642.9269999498501,Correct,sub_004_day_22_data.csv,1,403,,Dual-Task at home,5.0,4.0,small,big,False,Value,left,left,640.0665000546724,Correct,1.0,0.9751861042183623,
4,22,183,B,63.47018058469938,33.56920090870518,3.1735090292349692,0.5273037748083399,B,591.5174999972805,Correct,sub_004_day_22_data.csv,1,403,,Dual-Task at home,5.0,7.0,big,small,False,Size,left,left,251.29419995937496,Correct,1.0,0.9751861042183623,
4,22,184,B,34.804770610616785,20.42283854666901,1.7402385305308394,0.320801197718329,B,525.2425000071526,Correct,sub_004_day_22_data.csv,1,403,,Dual-Task at home,3.0,4.0,big,small,False,Value,right,right,480.34960008226335,Correct,1.0,0.9751861042183623,
4,22,185,A,60.62032063249691,80.43336273219657,3.031016031624846,1.263444307314959,A,780.8401000220329,Correct,sub_004_day_22_data.csv,1,403,,Dual-Task at home,6.0,3.0,small,big,False,Size,right,right,757.0083000464365,Correct,1.0,0.9751861042183623,
4,22,186,B,33.63721813315398,20.747931367106133,1.6818609066576988,0.3259077438004293,B,529.2269999627024,Correct,sub_004_day_22_data.csv,1,403,,Dual-Task at home,6.0,4.0,small,big,False,Value,left,left,610.6694999616593,Correct,1.0,0.9751861042183623,
4,22,187,A,47.70098814116706,61.52558879017201,2.3850494070583528,0.9664416887549546,A,668.0336999706924,Correct,sub_004_day_22_data.csv,1,403,,Dual-Task at home,3.0,4.0,small,big,True,Size,right,right,406.1875999905169,Correct,1.0,0.9751861042183623,
4,22,188,A,46.02343593980206,77.14942164905614,2.301171796990103,1.2118602814068806,A,498.67410003207624,Correct,sub_004_day_22_data.csv,1,403,,Dual-Task at home,8.0,6.0,small,big,False,Size,right,right,862.3250999953598,Correct,1.0,0.9751861042183623,
4,22,189,A,29.783769456033102,59.604297034550186,1.4891884728016551,0.9362621084306338,A,640.8053999766707,Correct,sub_004_day_22_data.csv,1,403,,Dual-Task at home,3.0,8.0,big,small,False,Size,left,left,359.00739999487996,Correct,1.0,0.9751861042183623,
4,22,190,B,66.55449045954714,48.67078819340215,3.327724522977357,0.7645189531640852,B,478.5177999874577,Correct,sub_004_day_22_data.csv,1,403,,Dual-Task at home,5.0,6.0,small,big,True,Size,right,right,155.34340008161962,Correct,1.0,0.9751861042183623,
4,22,191,A,49.12188611862172,58.44344957547909,2.456094305931086,0.9180275591838531,A,814.0516999410465,Correct,sub_004_day_22_data.csv,1,403,,Dual-Task at home,8.0,5.0,small,big,False,Size,right,right,841.1587999435142,Correct,1.0,0.9751861042183623,
4,22,192,B,52.84881180417466,27.151081814429077,2.642440590208733,0.426488195826129,B,473.4921000199392,Correct,sub_004_day_22_data.csv,1,403,,Dual-Task at home,2.0,5.0,big,small,False,Value,right,right,622.236399911344,Correct,1.0,0.9751861042183623,
4,22,193,B,37.73501219823278,28.35308323061882,1.886750609911639,0.4453691899196603,B,1618.0263999849558,Correct,sub_004_day_22_data.csv,1,403,,Dual-Task at home,4.0,7.0,big,small,False,Size,left,left,1281.62969998084,Correct,1.0,0.9751861042183623,
4,22,194,A,38.48616084586529,63.47719038613137,1.9243080422932648,0.9970973749379548,A,6985.4184000287205,Correct,sub_004_day_22_data.csv,1,403,,Dual-Task at home,4.0,6.0,big,small,False,Value,right,right,796.9905999489129,Correct,1.0,0.9751861042183623,
4,22,195,B,57.239123037872936,28.50919503551474,2.8619561518936467,0.4478213884166586,B,1028.3750999951735,Correct,sub_004_day_22_data.csv,1,403,,Dual-Task at home,6.0,3.0,small,big,False,Value,left,left,842.8158999886364,Correct,1.0,0.9751861042183623,
4,22,196,B,38.84178030373144,23.053314484785098,1.942089015186572,0.3621206171314801,B,754.1859999764711,Correct,sub_004_day_22_data.csv,1,403,,Dual-Task at home,6.0,8.0,big,small,False,Value,right,right,640.4957000631839,Correct,1.0,0.9751861042183623,
4,22,197,A,55.59974740095289,80.19514729331125,2.7799873700476443,1.2597024279510902,A,766.7569998884574,Correct,sub_004_day_22_data.csv,1,403,,Dual-Task at home,7.0,2.0,small,big,False,Size,right,left,1011.2788999686018,Incorrect,0.0,0.9751861042183623,
4,22,198,B,56.56750056811943,33.31740536922187,2.8283750284059717,0.5233485797231029,B,546.1439000209793,Correct,sub_004_day_22_data.csv,1,403,,Dual-Task at home,6.0,3.0,small,big,False,Size,right,right,462.59939996525645,Correct,1.0,0.9751861042183623,
4,22,199,B,61.79252604064929,44.55574198676627,3.089626302032465,0.699879958504336,B,623.1879000551999,Correct,sub_004_day_22_data.csv,1,403,,Dual-Task at home,4.0,3.0,small,big,False,Size,right,right,903.602399979718,Correct,1.0,0.9751861042183623,
4,22,200,B,63.7985766211418,46.81582909573443,3.18992883105709,0.735381323794373,B,729.7911000205204,Correct,sub_004_day_22_data.csv,1,403,,Dual-Task at home,6.0,2.0,small,big,False,Value,left,left,306.28530005924404,Correct,1.0,0.9751861042183623,
4,22,201,B,79.76650576441133,49.53174369806294,3.988325288220567,0.7780428106066353,B,599.9953000573441,Correct,sub_004_day_22_data.csv,1,403,,Dual-Task at home,4.0,2.0,small,big,False,Value,left,left,665.701900026761,Correct,1.0,0.9751861042183623,
4,22,202,B,79.91573153039978,51.25889402287871,3.99578657651999,0.8051728244670675,B,742.0491999946535,Correct,sub_004_day_22_data.csv,1,403,,Dual-Task at home,3.0,6.0,big,small,False,Size,left,left,300.6745999446139,Correct,1.0,0.9751861042183623,
4,22,203,B,48.315114564847505,25.588153524266698,2.415755728242375,0.4019377756538201,B,1168.149400036782,Correct,sub_004_day_22_data.csv,1,403,,Dual-Task at home,3.0,5.0,big,small,False,Size,left,left,350.3364999778569,Correct,1.0,0.9751861042183623,
4,22,204,A,36.40128437031886,44.28072708845853,1.8200642185159432,0.6955600345835793,A,497.4589000921696,Correct,sub_004_day_22_data.csv,1,403,,Dual-Task at home,6.0,2.0,small,big,False,Size,right,right,335.98940004594624,Correct,1.0,0.9751861042183623,
4,22,205,B,62.94771781418165,51.50285398687469,3.1473858907090824,0.8090049386203666,A,945.9079999942333,Incorrect,sub_004_day_22_data.csv,0,403,,Dual-Task at home,2.0,6.0,big,small,False,Size,left,left,609.1480000177398,Correct,1.0,0.9751861042183623,
4,22,206,B,84.92108873459762,55.25625272349559,4.246054436729881,0.8679631881051737,B,549.6839999686927,Correct,sub_004_day_22_data.csv,1,403,,Dual-Task at home,4.0,8.0,big,small,False,Value,right,right,875.6814000662416,Correct,1.0,0.9751861042183623,
4,22,207,B,73.12506416624065,58.623811637864414,3.656253208312032,0.9208606798347332,B,646.616299985908,Correct,sub_004_day_22_data.csv,1,403,,Dual-Task at home,8.0,4.0,small,big,False,Size,right,right,817.6089000189677,Correct,1.0,0.9751861042183623,
4,22,208,A,45.04102602067004,74.9106737052566,2.252051301033502,1.1766941109394813,A,764.1073000850156,Correct,sub_004_day_22_data.csv,1,403,,Dual-Task at home,6.0,7.0,big,small,False,Size,left,left,366.9365999521688,Correct,1.0,0.9751861042183623,
4,22,209,A,51.10809874804478,70.79753275339837,2.5554049374022387,1.1120850439517955,A,555.5719999829307,Correct,sub_004_day_22_data.csv,1,403,,Dual-Task at home,7.0,8.0,big,small,False,Value,right,right,621.2793999584392,Correct,1.0,0.9751861042183623,
4,22,210,A,38.96816107292378,64.49412369913848,1.948408053646189,1.0130713260646242,A,616.9174000388011,Correct,sub_004_day_22_data.csv,1,403,,Dual-Task at home,4.0,5.0,big,small,False,Value,right,right,336.37589996214956,Correct,1.0,0.9751861042183623,
4,22,211,B,40.80476820936051,16.146307601934467,2.0402384104680253,0.2536256067241917,B,508.8030999759212,Correct,sub_004_day_22_data.csv,1,403,,Dual-Task at home,6.0,5.0,small,big,False,Size,right,right,395.9422000916675,Correct,1.0,0.9751861042183623,
4,22,212,B,71.81378090382265,42.5651294296642,3.5906890451911324,0.6686114895766588,B,459.3512999126688,Correct,sub_004_day_22_data.csv,1,403,,Dual-Task at home,2.0,3.0,big,small,False,Size,left,left,1085.8226999407634,Correct,1.0,0.9751861042183623,
4,22,213,A,29.262142169097956,43.4657594897745,1.463107108454898,0.6827585534788819,A,1182.4176999507472,Correct,sub_004_day_22_data.csv,1,403,,Dual-Task at home,4.0,7.0,big,small,False,Size,left,left,848.0972999241203,Correct,1.0,0.9751861042183623,
4,22,214,A,48.61641914827213,73.75033490314732,2.430820957413607,1.1584675516575726,A,2190.6868000514805,Correct,sub_004_day_22_data.csv,1,403,,Dual-Task at home,4.0,2.0,small,big,False,Size,right,right,520.0722999870777,Correct,1.0,0.9751861042183623,
4,22,215,B,41.9236375776854,18.638233306486946,2.09618187888427,0.2927686841577599,B,618.5918999835849,Correct,sub_004_day_22_data.csv,1,403,,Dual-Task at home,7.0,5.0,big,small,True,Size,left,left,103.00040000583977,Correct,1.0,0.9751861042183623,
4,22,216,A,39.481211221619624,58.1691282619652,1.9740605610809812,0.9137185300675614,A,1074.944099993445,Correct,sub_004_day_22_data.csv,1,403,,Dual-Task at home,6.0,7.0,big,small,False,Size,left,left,794.3162000738084,Correct,1.0,0.9751861042183623,
4,22,217,B,76.49346960003554,47.272730199528,3.824673480001777,0.7425583095498476,B,582.4586000526324,Correct,sub_004_day_22_data.csv,1,403,,Dual-Task at home,4.0,8.0,big,small,False,Value,right,right,536.2423000624403,Correct,1.0,0.9751861042183623,
4,22,218,A,12.696543387169566,37.597999018004415,0.6348271693584784,0.5905879875231946,A,456.47140010260046,Correct,sub_004_day_22_data.csv,1,403,,Dual-Task at home,6.0,3.0,small,big,False,Size,right,right,981.2975000822915,Correct,1.0,0.9751861042183623,
4,22,219,A,11.657723305139257,35.553538822948745,0.5828861652569628,0.5584736818764764,A,651.587100001052,Correct,sub_004_day_22_data.csv,1,403,,Dual-Task at home,2.0,6.0,big,small,False,Value,right,right,721.2645999388769,Correct,1.0,0.9751861042183623,
4,22,220,B,44.72599697967807,35.53678832924082,2.236299848983904,0.5582105657365923,B,648.7922000233084,Correct,sub_004_day_22_data.csv,1,403,,Dual-Task at home,6.0,7.0,big,small,False,Value,right,right,494.0033999737352,Correct,1.0,0.9751861042183623,
4,22,221,B,48.05294375732989,34.302464786145464,2.402647187866495,0.5388218568608858,B,813.6499000247568,Correct,sub_004_day_22_data.csv,1,403,,Dual-Task at home,4.0,8.0,big,small,False,Size,left,left,339.24020000267774,Correct,1.0,0.9751861042183623,
4,22,222,A,45.39382164493446,74.9772559367191,2.269691082246723,1.177739982185592,A,537.9646000219509,Correct,sub_004_day_22_data.csv,1,403,,Dual-Task at home,8.0,5.0,small,big,False,Size,right,right,673.0850000167266,Correct,1.0,0.9751861042183623,
4,22,223,A,54.5886847018716,65.45199321649748,2.72943423509358,1.0281175052587872,A,1676.1798000661656,Correct,sub_004_day_22_data.csv,1,403,,Dual-Task at home,6.0,7.0,big,small,False,Value,right,right,361.17899999953806,Correct,1.0,0.9751861042183623,
4,22,224,A,38.61458808495573,50.44911237503461,1.9307294042477865,0.7924528040876733,A,932.2991999797524,Correct,sub_004_day_22_data.csv,1,403,,Dual-Task at home,7.0,5.0,big,small,True,Size,left,left,89.40799999982119,Correct,1.0,0.9751861042183623,
4,22,225,B,71.39966850125991,38.923173991339574,3.569983425062995,0.6114037873279485,B,505.67470001988113,Correct,sub_004_day_22_data.csv,1,403,,Dual-Task at home,7.0,5.0,small,big,False,Value,left,left,733.514399966225,Correct,1.0,0.9751861042183623,
4,22,226,A,31.50787316229801,62.931368043213126,1.5753936581149006,0.9885236176245692,A,738.0866999737918,Correct,sub_004_day_22_data.csv,1,403,,Dual-Task at home,2.0,4.0,big,small,False,Size,left,right,951.4199999393896,Incorrect,0.0,0.9751861042183623,
4,22,227,A,30.89706748991628,52.23591394792459,1.5448533744958142,0.8205198175617424,A,789.4586999900639,Correct,sub_004_day_22_data.csv,1,403,,Dual-Task at home,2.0,6.0,big,small,False,Size,left,left,644.9505999917164,Correct,1.0,0.9751861042183623,
4,22,228,B,49.61794251675141,35.71754262077686,2.4808971258375707,0.5610498475085645,B,626.8730000592768,Correct,sub_004_day_22_data.csv,1,403,,Dual-Task at home,3.0,4.0,big,small,False,Value,right,right,647.5088000297546,Correct,1.0,0.9751861042183623,
4,22,229,A,30.023731849430412,56.82069754804398,1.5011865924715206,0.8925374299439127,A,710.4879999533296,Correct,sub_004_day_22_data.csv,1,403,,Dual-Task at home,4.0,3.0,small,big,False,Value,left,left,628.3815000206232,Correct,1.0,0.9751861042183623,
4,22,230,B,86.76537213032339,63.5867231506201,4.338268606516169,0.9988179115791804,B,548.7005999311805,Correct,sub_004_day_22_data.csv,1,403,,Dual-Task at home,4.0,5.0,big,small,False,Value,right,right,705.0234000198543,Correct,1.0,0.9751861042183623,
4,22,231,A,55.69795486121264,83.03489766714745,2.7848977430606316,1.304309122513453,A,445.309399976395,Correct,sub_004_day_22_data.csv,1,403,,Dual-Task at home,2.0,3.0,big,small,False,Value,right,right,826.5535000246018,Correct,1.0,0.9751861042183623,
4,22,232,B,61.161637576488886,37.60888951896333,3.0580818788244444,0.5907590551122268,B,646.2500999914482,Correct,sub_004_day_22_data.csv,1,403,,Dual-Task at home,7.0,3.0,big,small,True,Size,left,left,148.01559993065894,Correct,1.0,0.9751861042183623,
4,22,233,B,63.38127420398272,46.349042015174035,3.169063710199136,0.7280490494789771,B,556.7346999887377,Correct,sub_004_day_22_data.csv,1,403,,Dual-Task at home,5.0,7.0,small,big,True,Size,right,right,58.368599973618984,Correct,1.0,0.9751861042183623,
4,22,234,B,63.26311367271124,34.19880385034333,3.163155683635562,0.5371935546889848,B,536.3167999312282,Correct,sub_004_day_22_data.csv,1,403,,Dual-Task at home,6.0,7.0,big,small,False,Value,right,right,333.53309996891767,Correct,1.0,0.9751861042183623,
4,22,235,A,29.929064812982965,62.49455958045747,1.4964532406491484,0.981662246336474,A,558.0076000187546,Correct,sub_004_day_22_data.csv,1,403,,Dual-Task at home,7.0,5.0,big,small,True,Size,left,left,2601.9136999966577,Correct,1.0,0.9751861042183623,
4,22,236,B,72.89131615220619,40.46349258656096,3.64456580761031,0.6355990552426249,B,537.5409000553191,Correct,sub_004_day_22_data.csv,1,403,,Dual-Task at home,7.0,3.0,small,big,False,Size,right,right,321.85830001253635,Correct,1.0,0.9751861042183623,
4,22,237,A,53.30479340714388,83.0365797453371,2.665239670357194,1.3043355445358702,A,443.142700009048,Correct,sub_004_day_22_data.csv,1,403,,Dual-Task at home,7.0,4.0,small,big,False,Size,right,right,412.416199920699,Correct,1.0,0.9751861042183623,
4,22,238,A,48.9887700313673,77.50953978320779,2.449438501568365,1.217517003830257,A,444.5673000300303,Correct,sub_004_day_22_data.csv,1,403,,Dual-Task at home,8.0,5.0,small,big,False,Size,right,right,605.1731000188738,Correct,1.0,0.9751861042183623,
4,22,239,B,74.93460790736937,54.61801749975809,3.746730395368468,0.8579378126543938,B,522.0515000401065,Correct,sub_004_day_22_data.csv,1,403,,Dual-Task at home,3.0,5.0,big,small,False,Size,left,left,372.89679993409663,Correct,1.0,0.9751861042183623,
4,22,240,B,55.18835467710345,41.33986025320413,2.7594177338551726,0.6493650063594738,A,1577.5993999559432,Incorrect,sub_004_day_22_data.csv,0,403,,Dual-Task at home,2.0,4.0,big,small,False,Value,right,right,334.8342999815941,Correct,1.0,0.9751861042183623,
4,22,241,B,62.164540048967936,46.14355392644276,3.1082270024483964,0.7248212501291852,B,620.2002000063658,Correct,sub_004_day_22_data.csv,1,403,,Dual-Task at home,7.0,5.0,small,big,False,Size,right,left,524.2371999192983,Incorrect,0.0,0.9751861042183623,
4,22,242,B,31.548862538762727,12.89683020871415,1.5774431269381364,0.2025829351914564,B,1039.754100027494,Correct,sub_004_day_22_data.csv,1,403,,Dual-Task at home,4.0,8.0,big,small,False,Value,right,right,378.9514999371022,Correct,1.0,0.9751861042183623,
4,22,243,A,36.71241726758994,67.90812012354084,1.8356208633794973,1.0666982564960454,A,769.8357000481337,Correct,sub_004_day_22_data.csv,1,403,,Dual-Task at home,8.0,3.0,small,big,False,Value,left,left,623.7546999473125,Correct,1.0,0.9751861042183623,
4,22,244,B,61.53390321790121,39.3797347227486,3.0766951608950603,0.6185754265265094,B,597.0566999167204,Correct,sub_004_day_22_data.csv,1,403,,Dual-Task at home,7.0,4.0,small,big,False,Value,left,left,381.4094000263139,Correct,1.0,0.9751861042183623,
4,22,245,B,44.46716839952047,32.93334664392301,2.2233584199760235,0.517315799373373,B,1426.356100011617,Correct,sub_004_day_22_data.csv,1,403,,Dual-Task at home,8.0,7.0,small,big,False,Value,left,right,417.2345999395475,Incorrect,0.0,0.9751861042183623,
4,22,246,A,62.64230247416555,77.18103421562806,3.132115123708277,1.2123568504413975,A,812.6392998965457,Correct,sub_004_day_22_data.csv,1,403,,Dual-Task at home,3.0,4.0,big,small,False,Value,right,right,809.1358999954537,Correct,1.0,0.9751861042183623,
4,22,247,B,65.98721142873474,48.83317708925805,3.2993605714367367,0.7670697519753122,B,799.2537999525666,Correct,sub_004_day_22_data.csv,1,403,,Dual-Task at home,7.0,8.0,big,small,False,Size,left,left,459.1088000452146,Correct,1.0,0.9751861042183623,
4,22,248,B,50.20237854850832,35.70227855259217,2.510118927425416,0.5608100800861999,B,722.5082999793813,Correct,sub_004_day_22_data.csv,1,403,,Dual-Task at home,6.0,2.0,small,big,False,Value,left,left,319.4368000840768,Correct,1.0,0.9751861042183623,
4,22,249,A,36.52553568752935,69.20786721093972,1.8262767843764676,1.0871146360025308,A,1195.49559999723,Correct,sub_004_day_22_data.csv,1,403,,Dual-Task at home,3.0,8.0,big,small,False,Value,right,right,428.9917999412864,Correct,1.0,0.9751861042183623,
4,22,250,B,65.0308586210688,32.902911890569236,3.25154293105344,0.5168377313856227,B,540.7235999591649,Correct,sub_004_day_22_data.csv,1,403,,Dual-Task at home,8.0,2.0,small,big,False,Value,left,left,338.80539995152503,Correct,1.0,0.9751861042183623,
4,22,251,B,38.90868324846341,14.393726654490376,1.94543416242317,0.2260961295776327,B,546.133300056681,Correct,sub_004_day_22_data.csv,1,403,,Dual-Task at home,5.0,4.0,small,big,False,Size,right,right,472.79489994980395,Correct,1.0,0.9751861042183623,
4,22,252,B,50.40661256214892,23.0501121119616,2.520330628107446,0.3620703143767983,B,525.7545000640675,Correct,sub_004_day_22_data.csv,1,403,,Dual-Task at home,4.0,3.0,big,small,True,Value,left,left,211.72939997632056,Correct,1.0,0.9751861042183623,
4,22,253,B,67.15588401570307,45.024866587361466,3.357794200785153,0.7072489504985766,B,608.942799968645,Correct,sub_004_day_22_data.csv,1,403,,Dual-Task at home,2.0,8.0,big,small,False,Value,right,right,690.1475000195205,Correct,1.0,0.9751861042183623,
4,22,254,B,67.35742067252407,39.44034552746703,3.3678710336262037,0.6195274988206675,B,1126.2316000647843,Correct,sub_004_day_22_data.csv,1,403,,Dual-Task at home,8.0,5.0,small,big,False,Value,left,left,307.8710000263527,Correct,1.0,0.9751861042183623,
4,22,255,B,62.63180160319519,37.48772739438776,3.13159008015976,0.5888558449099272,B,673.0077000102028,Correct,sub_004_day_22_data.csv,1,403,,Dual-Task at home,5.0,6.0,big,small,False,Value,right,right,365.9967000130564,Correct,1.0,0.9751861042183623,
4,22,256,B,33.99759985137048,15.383169750957771,1.699879992568524,0.2416382653926683,B,472.6597999688238,Correct,sub_004_day_22_data.csv,1,403,,Dual-Task at home,4.0,3.0,big,small,True,Value,left,left,134.59489995148033,Correct,1.0,0.9751861042183623,
4,22,257,A,32.301668793444186,61.58109402713908,1.6150834396722091,0.967313562978412,A,667.6002999302,Correct,sub_004_day_22_data.csv,1,403,,Dual-Task at home,5.0,4.0,small,big,False,Value,left,left,377.40060000214726,Correct,1.0,0.9751861042183623,
4,22,258,B,54.12615550655397,23.887935102794703,2.7063077753276987,0.3752308071418478,B,507.73599999956787,Correct,sub_004_day_22_data.csv,1,403,,Dual-Task at home,4.0,7.0,big,small,False,Size,left,left,938.9056999934836,Correct,1.0,0.9751861042183623,
4,22,259,B,49.341623619722384,27.60898162339047,2.4670811809861193,0.4336808692056955,B,933.3314000396058,Correct,sub_004_day_22_data.csv,1,403,,Dual-Task at home,3.0,5.0,big,small,False,Size,left,left,357.8731999732554,Correct,1.0,0.9751861042183623,
4,22,260,B,51.19350651559869,37.64880733813179,2.5596753257799345,0.5913860827494617,B,434.6461999230087,Correct,sub_004_day_22_data.csv,1,403,,Dual-Task at home,5.0,6.0,big,small,False,Size,left,left,680.9596000239253,Correct,1.0,0.9751861042183623,
4,22,261,B,75.5895628529221,61.627598361697565,3.779478142646105,0.9680440513574572,B,569.1920999670401,Correct,sub_004_day_22_data.csv,1,403,,Dual-Task at home,5.0,8.0,big,small,False,Size,left,left,505.3065000101924,Correct,1.0,0.9751861042183623,
4,22,262,A,24.869381153786943,53.35276272012669,1.2434690576893472,0.838063237051347,A,507.9349000006914,Correct,sub_004_day_22_data.csv,1,403,,Dual-Task at home,2.0,8.0,big,small,False,Value,right,right,305.5170000297949,Correct,1.0,0.9751861042183623,
4,22,263,A,25.993670008746157,58.16263629225218,1.299683500437308,0.9136165544457728,A,607.5306999264285,Correct,sub_004_day_22_data.csv,1,403,,Dual-Task at home,6.0,7.0,big,small,False,Size,left,left,542.1782999765128,Correct,1.0,0.9751861042183623,
4,22,264,B,51.9540114743763,36.21506358635292,2.5977005737188152,0.5688648885608678,B,441.4793999167159,Correct,sub_004_day_22_data.csv,1,403,,Dual-Task at home,5.0,2.0,small,big,False,Size,right,right,447.77910003904253,Correct,1.0,0.9751861042183623,
4,22,265,B,83.96049804307874,58.866963157013586,4.1980249021539375,0.9246800949660746,B,498.8598999334499,Correct,sub_004_day_22_data.csv,1,403,,Dual-Task at home,8.0,2.0,small,big,False,Size,right,right,355.34799995366484,Correct,1.0,0.9751861042183623,
4,22,266,B,58.13776705717834,40.41235557387233,2.9068883528589167,0.6347957969256792,B,801.9796999869868,Correct,sub_004_day_22_data.csv,1,403,,Dual-Task at home,6.0,2.0,small,big,False,Size,right,right,362.0533999055624,Correct,1.0,0.9751861042183623,
4,22,267,A,55.7403907972394,81.221191732248,2.78701953986197,1.2758194963091918,A,426.8349999329075,Correct,sub_004_day_22_data.csv,1,403,,Dual-Task at home,5.0,6.0,big,small,False,Size,left,left,320.76180004514754,Correct,1.0,0.9751861042183623,
4,22,268,B,59.34436686775158,41.86928883853404,2.967218343387579,0.6576812511308383,B,531.6930999979377,Correct,sub_004_day_22_data.csv,1,403,,Dual-Task at home,7.0,5.0,small,big,False,Value,left,left,519.545300048776,Correct,1.0,0.9751861042183623,
4,22,269,A,31.557949550781156,50.360833638371794,1.5778974775390575,0.7910661249348329,A,856.234599952586,Correct,sub_004_day_22_data.csv,1,403,,Dual-Task at home,2.0,5.0,big,small,False,Size,left,left,427.6998999994248,Correct,1.0,0.9751861042183623,
4,22,270,A,36.07961624972631,68.03517076978947,1.8039808124863157,1.0686939633804882,A,552.2969999583438,Correct,sub_004_day_22_data.csv,1,403,,Dual-Task at home,3.0,4.0,big,small,False,Size,left,left,1388.6083000106737,Correct,1.0,0.9751861042183623,
4,22,271,B,59.55164148917293,45.33874220209171,2.9775820744586463,0.7121792971254641,B,707.4044999899343,Correct,sub_004_day_22_data.csv,1,403,,Dual-Task at home,5.0,8.0,small,big,True,Value,right,right,103.78000000491738,Correct,1.0,0.9751861042183623,
4,22,272,B,68.6913076542816,57.93740785751682,3.43456538271408,0.910078674466052,B,661.2516000168398,Correct,sub_004_day_22_data.csv,1,403,,Dual-Task at home,3.0,8.0,big,small,False,Value,right,right,732.3467000387609,Correct,1.0,0.9751861042183623,
4,22,273,A,40.39511850581459,65.05210561578737,2.0197559252907293,1.0218360855155246,A,647.8486000560224,Correct,sub_004_day_22_data.csv,1,403,,Dual-Task at home,8.0,2.0,small,big,False,Size,right,right,630.642700009048,Correct,1.0,0.9751861042183623,
4,22,274,A,22.161307060870428,45.91522670149622,1.1080653530435214,0.7212346944666521,A,564.3857999239117,Correct,sub_004_day_22_data.csv,1,403,,Dual-Task at home,7.0,8.0,big,small,False,Size,left,left,376.4542000135407,Correct,1.0,0.9751861042183623,
4,22,275,A,30.835088855760972,39.839985620600594,1.5417544427880483,0.6258050307240091,B,612.9522999981418,Incorrect,sub_004_day_22_data.csv,0,403,,Dual-Task at home,5.0,8.0,small,big,True,Size,right,right,17.27089995983988,Correct,1.0,0.9751861042183623,
4,22,276,A,50.61835307444082,64.40702832357111,2.530917653722041,1.0117032351044035,A,688.3053999627009,Correct,sub_004_day_22_data.csv,1,403,,Dual-Task at home,2.0,5.0,big,small,False,Value,right,right,296.1059999652207,Correct,1.0,0.9751861042183623,
4,22,277,B,38.25188389444769,17.409335808004904,1.9125941947223848,0.2734652073915297,B,514.036100008525,Correct,sub_004_day_22_data.csv,1,403,,Dual-Task at home,7.0,3.0,big,small,True,Value,left,left,-0.6769000319764018,Correct,1.0,0.9751861042183623,
4,22,278,A,47.66670293661093,66.26826740771438,2.3833351468305466,1.040939510270997,A,1199.0049000596628,Correct,sub_004_day_22_data.csv,1,403,,Dual-Task at home,2.0,6.0,big,small,False,Value,right,right,683.612700086087,Correct,1.0,0.9751861042183623,
4,22,279,B,63.3370921092303,53.70098412039445,3.166854605461515,0.8435330860158667,B,573.2871999498457,Correct,sub_004_day_22_data.csv,1,403,,Dual-Task at home,8.0,6.0,small,big,False,Size,right,right,604.0266999043524,Correct,1.0,0.9751861042183623,
4,22,280,B,71.19817165544116,54.72848419691848,3.5599085827720582,0.8596730194757211,B,539.3736999249086,Correct,sub_004_day_22_data.csv,1,403,,Dual-Task at home,2.0,5.0,big,small,False,Size,left,left,1378.8257000269368,Correct,1.0,0.9751861042183623,
4,22,281,A,58.543725993298665,79.23653052691546,2.927186299664933,1.2446445109965047,A,628.2534999772906,Correct,sub_004_day_22_data.csv,1,403,,Dual-Task at home,6.0,3.0,small,big,False,Value,left,left,912.9568999633192,Correct,1.0,0.9751861042183623,
4,22,282,B,32.03347485616611,10.241663824183338,1.6016737428083052,0.1608756791529536,B,753.8944999687374,Correct,sub_004_day_22_data.csv,1,403,,Dual-Task at home,6.0,3.0,big,small,True,Size,left,left,60.23629999253899,Correct,1.0,0.9751861042183623,
4,22,283,A,15.44195399710592,31.857299538578538,0.7720976998552959,0.5004132909680392,A,592.0523999957368,Correct,sub_004_day_22_data.csv,1,403,,Dual-Task at home,8.0,3.0,big,small,True,Value,left,left,115.62830000184476,Correct,1.0,0.9751861042183623,
4,22,284,B,62.57944214203477,31.348837867439727,3.1289721071017387,0.4924263937146307,B,550.3949000267312,Correct,sub_004_day_22_data.csv,1,403,,Dual-Task at home,2.0,4.0,big,small,False,Size,left,left,799.9319999944419,Correct,1.0,0.9751861042183623,
4,22,285,B,75.202859904631,62.766451922288795,3.7601429952315497,0.9859331212547972,B,604.5249999733642,Correct,sub_004_day_22_data.csv,1,403,,Dual-Task at home,4.0,3.0,small,big,False,Value,left,left,488.1386000197381,Correct,1.0,0.9751861042183623,
4,22,286,B,57.669120442502056,43.52204546322743,2.883456022125103,0.6836426914823814,B,636.4857000298798,Correct,sub_004_day_22_data.csv,1,403,,Dual-Task at home,3.0,4.0,big,small,False,Value,right,right,965.6486000167206,Correct,1.0,0.9751861042183623,
4,22,287,B,35.79463152007604,11.463978354254742,1.789731576003802,0.1800757508931955,B,872.9886999353766,Correct,sub_004_day_22_data.csv,1,403,,Dual-Task at home,8.0,4.0,big,small,True,Value,left,left,161.19370004162192,Correct,1.0,0.9751861042183623,
4,22,288,B,40.174183290782366,23.45496769075255,2.0087091645391184,0.3684297709372708,B,836.0537000698969,Correct,sub_004_day_22_data.csv,1,403,,Dual-Task at home,3.0,2.0,small,big,False,Value,left,left,698.6929000122473,Correct,1.0,0.9751861042183623,
4,22,289,A,51.17427169730052,60.1555954347769,2.558713584865026,0.944921883451074,B,967.85519993864,Incorrect,sub_004_day_22_data.csv,0,403,,Dual-Task at home,2.0,6.0,big,small,False,Value,right,left,447.9093999834731,Incorrect,0.0,0.9751861042183623,
4,22,290,B,54.720482590868315,33.63084379351353,2.7360241295434156,0.5282720589786399,B,571.3078000117093,Correct,sub_004_day_22_data.csv,1,403,,Dual-Task at home,2.0,7.0,big,small,False,Value,right,right,574.4346999563277,Correct,1.0,0.9751861042183623,
4,22,291,B,57.1308463284069,27.12519622175671,2.856542316420345,0.4260815858872624,B,637.7571999328211,Correct,sub_004_day_22_data.csv,1,403,,Dual-Task at home,4.0,3.0,small,big,False,Size,right,right,1509.8348000319677,Correct,1.0,0.9751861042183623,
4,22,292,A,48.88614815859991,76.5673211361668,2.4443074079299953,1.2027166679321606,A,810.3392000775784,Correct,sub_004_day_22_data.csv,1,403,,Dual-Task at home,4.0,7.0,small,big,True,Size,right,right,659.9106999346986,Correct,1.0,0.9751861042183623,
4,22,293,B,79.62303145654498,63.92786644247397,3.9811515728272497,1.0041765778767284,B,653.0581000261009,Correct,sub_004_day_22_data.csv,1,403,,Dual-Task at home,7.0,6.0,small,big,False,Size,right,right,799.4688999606296,Correct,1.0,0.9751861042183623,
4,22,294,A,65.01743234846604,87.54503262571197,3.2508716174233023,1.3751541567760772,A,699.1131000686437,Correct,sub_004_day_22_data.csv,1,403,,Dual-Task at home,5.0,7.0,big,small,False,Value,right,right,463.34199991542846,Correct,1.0,0.9751861042183623,
4,22,295,A,24.842625081541264,36.06885389078742,1.242131254077063,0.566568232033507,A,483.2446000073105,Correct,sub_004_day_22_data.csv,1,403,,Dual-Task at home,6.0,2.0,small,big,False,Size,right,right,607.5443000299856,Correct,1.0,0.9751861042183623,
4,22,296,A,45.64133479966401,67.20790562596913,2.2820667399832004,1.0556993128885035,A,705.8368000434712,Correct,sub_004_day_22_data.csv,1,403,,Dual-Task at home,8.0,2.0,small,big,False,Size,right,right,399.6367999352515,Correct,1.0,0.9751861042183623,
4,22,297,B,87.66192148614977,61.04920645056063,4.383096074307488,0.9589586924628396,B,630.7010999880731,Correct,sub_004_day_22_data.csv,1,403,,Dual-Task at home,5.0,6.0,big,small,False,Size,left,left,415.8221000107005,Correct,1.0,0.9751861042183623,
4,22,298,B,57.27588282239075,44.830519067373025,2.863794141119538,0.7041961467933812,B,551.7287000548095,Correct,sub_004_day_22_data.csv,1,403,,Dual-Task at home,8.0,5.0,big,small,True,Size,left,left,38.135900045745075,Correct,1.0,0.9751861042183623,
4,22,299,A,20.01265770306874,47.32310622223368,1.000632885153437,0.7433496142640938,A,560.2299999445677,Correct,sub_004_day_22_data.csv,1,403,,Dual-Task at home,8.0,7.0,big,small,True,Size,left,left,-1.2910000514239073,Correct,1.0,0.9751861042183623,
4,22,300,B,60.26976383877573,49.91473573504955,3.0134881919387864,0.7840588354555379,B,890.2116999961436,Correct,sub_004_day_22_data.csv,1,403,,Dual-Task at home,7.0,3.0,big,small,True,Size,left,left,350.4918999969959,Correct,1.0,0.9751861042183623,
4,22,301,B,55.52173425683764,40.520309225237376,2.776086712841882,0.6364915289159623,B,846.2042000610381,Correct,sub_004_day_22_data.csv,1,403,,Dual-Task at home,3.0,2.0,small,big,False,Value,left,right,963.965000002645,Incorrect,0.0,0.9751861042183623,
4,22,302,B,66.31968228383963,41.65748057603952,3.315984114191981,0.6543541747237261,B,508.4844999946654,Correct,sub_004_day_22_data.csv,1,403,,Dual-Task at home,3.0,2.0,small,big,False,Size,right,right,381.37179997283965,Correct,1.0,0.9751861042183623,
4,22,303,B,32.84467379382151,12.288105080205623,1.6422336896910752,0.193021103232567,B,603.6150000290945,Correct,sub_004_day_22_data.csv,1,403,,Dual-Task at home,2.0,4.0,big,small,False,Value,right,right,465.3789999429137,Correct,1.0,0.9751861042183623,
4,22,304,A,20.23005651297369,37.365792372848745,1.0115028256486844,0.5869404940705156,A,494.8053000262007,Correct,sub_004_day_22_data.csv,1,403,,Dual-Task at home,8.0,6.0,small,big,False,Size,right,right,308.740200009197,Correct,1.0,0.9751861042183623,
4,22,305,B,66.32114761391998,42.54822209768854,3.3160573806959985,0.668345909827026,B,491.27450003288686,Correct,sub_004_day_22_data.csv,1,403,,Dual-Task at home,6.0,3.0,small,big,False,Value,left,left,1051.5392000088468,Correct,1.0,0.9751861042183623,
4,22,306,B,35.81194844519081,17.964151518670317,1.7905974222595404,0.282180232195143,B,473.6627000384033,Correct,sub_004_day_22_data.csv,1,403,,Dual-Task at home,4.0,7.0,big,small,False,Size,left,left,443.7582000391558,Correct,1.0,0.9751861042183623,
4,22,307,B,84.63332685242307,55.272690420856925,4.231666342621153,0.8682213908515353,B,526.0529000079259,Correct,sub_004_day_22_data.csv,1,403,,Dual-Task at home,2.0,7.0,big,small,False,Size,left,left,721.1718000471592,Correct,1.0,0.9751861042183623,
4,22,308,A,47.830849348285334,56.01548678820823,2.3915424674142667,0.8798892089054555,A,1129.046200076118,Correct,sub_004_day_22_data.csv,1,403,,Dual-Task at home,3.0,7.0,big,small,False,Size,left,left,327.90090003982186,Correct,1.0,0.9751861042183623,
4,22,309,A,69.08472374375646,86.32066564406753,3.454236187187823,1.355921845201917,A,675.9251999901608,Correct,sub_004_day_22_data.csv,1,403,,Dual-Task at home,8.0,7.0,small,big,False,Size,right,right,410.2435000240803,Correct,1.0,0.9751861042183623,
4,22,310,A,48.11039915500323,65.86239026572606,2.405519957750162,1.0345640070333446,A,1803.159000002779,Correct,sub_004_day_22_data.csv,1,403,,Dual-Task at home,6.0,7.0,big,small,False,Value,right,right,333.087700069882,Correct,1.0,0.9751861042183623,
4,22,311,A,58.8219881902324,77.00534479469154,2.94109940951162,1.2095971274707598,A,1177.7251999592409,Correct,sub_004_day_22_data.csv,1,403,,Dual-Task at home,8.0,3.0,big,small,True,Value,left,left,259.70690010581166,Correct,1.0,0.9751861042183623,
4,22,312,A,54.32932569787296,70.58054856728617,2.716466284893648,1.1086766643266193,A,900.9780999040232,Correct,sub_004_day_22_data.csv,1,403,,Dual-Task at home,5.0,8.0,big,small,False,Size,left,left,366.4517999859527,Correct,1.0,0.9751861042183623,
4,22,313,A,38.30467653285703,70.35255984136842,1.9152338266428517,1.1050954257943966,A,676.0303999762982,Correct,sub_004_day_22_data.csv,1,403,,Dual-Task at home,3.0,8.0,big,small,False,Value,right,right,703.1161999329925,Correct,1.0,0.9751861042183623,
4,22,314,A,56.16172513471645,71.65261461175315,2.8080862567358222,1.1255166383739217,A,1641.5295000188053,Correct,sub_004_day_22_data.csv,1,403,,Dual-Task at home,7.0,3.0,small,big,False,Size,right,right,763.7402999680489,Correct,1.0,0.9751861042183623,
4,22,315,A,42.379812691965974,52.85445826380462,2.118990634598299,0.8302358889551846,A,972.1210000570863,Correct,sub_004_day_22_data.csv,1,403,,Dual-Task at home,7.0,5.0,small,big,False,Value,left,left,372.5747999269515,Correct,1.0,0.9751861042183623,
4,22,316,A,44.97313337241213,76.49905935009232,2.2486566686206064,1.2016444143038982,A,662.2274999972433,Correct,sub_004_day_22_data.csv,1,403,,Dual-Task at home,8.0,6.0,big,small,True,Value,left,left,44.96949992608279,Correct,1.0,0.9751861042183623,
4,22,317,A,15.118613084515442,39.71625331153791,0.7559306542257721,0.6238614481581941,A,497.35610000789165,Correct,sub_004_day_22_data.csv,1,403,,Dual-Task at home,2.0,6.0,big,small,False,Value,right,right,500.8608000352978,Correct,1.0,0.9751861042183623,
4,22,318,A,32.85442481874764,55.16885228944089,1.642721240937382,0.8665903052974397,A,693.0319999810308,Correct,sub_004_day_22_data.csv,1,403,,Dual-Task at home,5.0,2.0,small,big,False,Value,left,left,569.9482999043539,Correct,1.0,0.9751861042183623,
4,22,319,B,35.72152255307608,15.575447614131363,1.786076127653804,0.2446585590046388,B,856.3027000054717,Correct,sub_004_day_22_data.csv,1,403,,Dual-Task at home,4.0,3.0,small,big,False,Value,left,left,327.2723000263795,Correct,1.0,0.9751861042183623,
4,22,320,A,27.800340816530955,44.662894346438755,1.3900170408265478,0.7015631038341454,A,507.1685001021251,Correct,sub_004_day_22_data.csv,1,403,,Dual-Task at home,7.0,3.0,small,big,False,Size,right,right,592.7918000379577,Correct,1.0,0.9751861042183623,
4,22,321,A,56.917969509303056,68.2150779376941,2.8458984754651526,1.071519938565575,A,537.9946000175551,Correct,sub_004_day_22_data.csv,1,403,,Dual-Task at home,3.0,8.0,big,small,False,Value,right,right,480.7868000352755,Correct,1.0,0.9751861042183623,
4,22,322,A,43.646542074461856,51.763484151745615,2.1823271037230927,0.8130989076766786,A,847.9173000669107,Correct,sub_004_day_22_data.csv,1,403,,Dual-Task at home,6.0,2.0,small,big,False,Size,right,right,742.3191000707448,Correct,1.0,0.9751861042183623,
4,22,323,A,56.73879730142493,70.72244328260757,2.8369398650712463,1.1109055413028035,A,1204.6779999509454,Correct,sub_004_day_22_data.csv,1,403,,Dual-Task at home,4.0,3.0,big,small,True,Size,left,left,170.5984000582248,Correct,1.0,0.9751861042183623,
4,22,324,A,44.203448955837786,69.13987291974568,2.21017244779189,1.0860465841740246,A,691.2886999780312,Correct,sub_004_day_22_data.csv,1,403,,Dual-Task at home,4.0,7.0,big,small,False,Size,left,left,563.5798999574035,Correct,1.0,0.9751861042183623,
4,22,325,B,52.3415005105719,25.232414486888857,2.6170750255285946,0.3963498399217134,B,992.9074000101537,Correct,sub_004_day_22_data.csv,1,403,,Dual-Task at home,8.0,3.0,small,big,False,Size,right,right,841.532799997367,Correct,1.0,0.9751861042183623,
4,22,326,A,60.49417156276134,79.88287880854816,3.0247085781380667,1.2547973260626937,A,491.5709000779316,Correct,sub_004_day_22_data.csv,1,403,,Dual-Task at home,5.0,8.0,big,small,False,Size,left,left,656.992599950172,Correct,1.0,0.9751861042183623,
4,22,327,B,38.21376976538707,15.628498764401652,1.9106884882693536,0.2454918845244069,B,406.6876000724733,Correct,sub_004_day_22_data.csv,1,403,,Dual-Task at home,6.0,5.0,small,big,False,Size,right,right,579.1001999750733,Correct,1.0,0.9751861042183623,
4,22,328,A,20.38108491313223,32.98207370942174,1.0190542456566118,0.518081202328382,A,541.3804999552667,Correct,sub_004_day_22_data.csv,1,403,,Dual-Task at home,2.0,4.0,big,small,False,Size,left,left,514.8603999987245,Correct,1.0,0.9751861042183623,
4,22,329,A,44.82177171044779,74.55478483221115,2.2410885855223897,1.1711038215942116,A,560.3556999703869,Correct,sub_004_day_22_data.csv,1,403,,Dual-Task at home,3.0,2.0,small,big,False,Value,left,left,424.4556999765337,Correct,1.0,0.9751861042183623,
4,22,330,B,60.336845127977064,36.38251650900891,3.0168422563988533,0.5714952329190588,B,428.1386999646202,Correct,sub_004_day_22_data.csv,1,403,,Dual-Task at home,3.0,8.0,big,small,False,Size,left,left,423.9405000116676,Correct,1.0,0.9751861042183623,
4,22,331,A,46.51972136515251,75.76990250894477,2.3259860682576257,1.1901908454265784,A,544.442499987781,Correct,sub_004_day_22_data.csv,1,403,,Dual-Task at home,8.0,4.0,small,big,False,Value,left,left,363.57259994838387,Correct,1.0,0.9751861042183623,
4,22,332,A,30.362033683158295,47.2091082091687,1.518101684157915,0.7415589376622498,A,747.6642000256106,Correct,sub_004_day_22_data.csv,1,403,,Dual-Task at home,2.0,3.0,big,small,False,Size,left,left,585.7177000725642,Correct,1.0,0.9751861042183623,
4,22,333,B,64.72076561235956,40.480234603775024,3.236038280617978,0.6358620382340547,B,530.4189999587834,Correct,sub_004_day_22_data.csv,1,403,,Dual-Task at home,7.0,4.0,small,big,False,Size,right,right,810.5509999440983,Correct,1.0,0.9751861042183623,
4,22,334,B,46.176556292256834,35.38711435136187,2.3088278146128416,0.555859492389902,B,584.2930999351665,Correct,sub_004_day_22_data.csv,1,403,,Dual-Task at home,8.0,4.0,big,small,True,Value,left,left,12.653800076805055,Correct,1.0,0.9751861042183623,
4,22,335,B,48.023095262620416,31.051221106038028,2.4011547631310206,0.487751440558607,B,824.3113000644371,Correct,sub_004_day_22_data.csv,1,403,,Dual-Task at home,6.0,4.0,small,big,False,Size,right,right,1039.5581999327987,Correct,1.0,0.9751861042183623,
4,22,336,B,54.40953971920656,29.70238544937596,2.720476985960328,0.4665639796092594,B,513.3374000433832,Correct,sub_004_day_22_data.csv,1,403,,Dual-Task at home,5.0,8.0,big,small,False,Value,right,right,671.073199948296,Correct,1.0,0.9751861042183623,
4,22,337,A,41.33482875342345,70.16294306502031,2.066741437671173,1.102116932436534,A,764.1081999754533,Correct,sub_004_day_22_data.csv,1,403,,Dual-Task at home,4.0,6.0,big,small,False,Size,left,left,563.6824999237433,Correct,1.0,0.9751861042183623,
4,22,338,A,68.26784837646537,84.4887454956214,3.4133924188232685,1.3271461108003098,A,787.8588000312448,Correct,sub_004_day_22_data.csv,1,403,,Dual-Task at home,7.0,4.0,small,big,False,Size,right,right,815.4655999969691,Correct,1.0,0.9751861042183623,
4,22,339,B,65.95809610395644,46.86596485934247,3.297904805197822,0.7361688545275384,B,972.0486999722198,Correct,sub_004_day_22_data.csv,1,403,,Dual-Task at home,8.0,5.0,small,big,False,Value,left,left,801.076199975796,Correct,1.0,0.9751861042183623,
4,22,340,A,64.02639395326379,75.66411909314832,3.2013196976631892,1.1885292034168895,A,722.1765998983756,Correct,sub_004_day_22_data.csv,1,403,,Dual-Task at home,4.0,8.0,big,small,False,Size,left,left,819.4945000577718,Correct,1.0,0.9751861042183623,
4,22,341,A,63.75439503648121,84.59241683097336,3.1877197518240608,1.3287745763279577,A,592.7045999560505,Correct,sub_004_day_22_data.csv,1,403,,Dual-Task at home,4.0,7.0,big,small,False,Value,right,right,545.3809999162331,Correct,1.0,0.9751861042183623,
4,22,342,B,35.0754854384834,20.885146079491825,1.7537742719241698,0.3280631074624059,B,605.8219000697136,Correct,sub_004_day_22_data.csv,1,403,,Dual-Task at home,4.0,5.0,big,small,False,Value,right,right,495.22579996846616,Correct,1.0,0.9751861042183623,
4,22,343,B,89.50886842597394,68.84264976358509,4.4754434212986975,1.08137781375467,B,500.7872999412939,Correct,sub_004_day_22_data.csv,1,403,,Dual-Task at home,6.0,8.0,big,small,False,Value,right,right,871.2779000634328,Correct,1.0,0.9751861042183623,
4,22,344,B,56.952866471662375,47.30199238364716,2.847643323583119,0.7430179588631313,B,514.4143000943586,Correct,sub_004_day_22_data.csv,1,403,,Dual-Task at home,4.0,2.0,small,big,False,Value,left,left,456.1511999927461,Correct,1.0,0.9751861042183623,
4,22,345,A,35.48579115986466,66.57614360664162,1.7742895579932332,1.045775618294822,A,630.0313000101596,Correct,sub_004_day_22_data.csv,1,403,,Dual-Task at home,5.0,6.0,small,big,True,Size,right,right,131.4141999464482,Correct,1.0,0.9751861042183623,
4,22,346,A,53.39302465488314,79.85053962906375,2.669651232744157,1.2542893434192366,A,627.138499985449,Correct,sub_004_day_22_data.csv,1,403,,Dual-Task at home,6.0,7.0,big,small,False,Value,right,right,317.18019989784807,Correct,1.0,0.9751861042183623,
4,22,347,B,52.00782358785946,41.77212154506106,2.600391179392973,0.6561549508541187,B,543.6193000059575,Correct,sub_004_day_22_data.csv,1,403,,Dual-Task at home,5.0,4.0,small,big,False,Value,left,left,680.1217999309301,Correct,1.0,0.9751861042183623,
4,22,348,A,37.49640338852369,56.07566930128473,1.8748201694261843,0.880834553610234,A,985.4618000099435,Correct,sub_004_day_22_data.csv,1,403,,Dual-Task at home,4.0,6.0,big,small,False,Size,left,left,346.38150001410395,Correct,1.0,0.9751861042183623,
4,22,349,A,27.122605844191433,57.2559569244536,1.3561302922095717,0.8993744682405852,A,648.2744000386447,Correct,sub_004_day_22_data.csv,1,403,,Dual-Task at home,4.0,3.0,big,small,True,Value,left,left,128.77249997109175,Correct,1.0,0.9751861042183623,
4,22,350,A,36.57454348859501,61.9016496562376,1.8287271744297504,0.972348839025626,A,710.2162000956014,Correct,sub_004_day_22_data.csv,1,403,,Dual-Task at home,5.0,3.0,small,big,False,Size,right,right,425.75789999682456,Correct,1.0,0.9751861042183623,
4,22,351,A,29.269730452549055,41.02803090178152,1.4634865226274527,0.6444668023614593,A,570.4816000070423,Correct,sub_004_day_22_data.csv,1,403,,Dual-Task at home,7.0,4.0,small,big,False,Value,left,left,774.024200043641,Correct,1.0,0.9751861042183623,
4,22,352,A,26.76806177013902,51.042234756744016,1.3384030885069509,0.801769548672963,A,13210.61550010927,Correct,sub_004_day_22_data.csv,1,403,,Dual-Task at home,6.0,4.0,small,big,False,Value,left,left,932.4468000559136,Correct,1.0,0.9751861042183623,
4,22,353,B,49.596745862057034,31.420487392676527,2.479837293102852,0.4935518618252165,B,1218.936299905181,Correct,sub_004_day_22_data.csv,1,403,,Dual-Task at home,4.0,3.0,small,big,False,Size,right,left,1518.4184000827372,Incorrect,0.0,0.9751861042183623,
4,22,354,B,62.66787993284203,47.931253923608026,3.133393996642101,0.7529023760187695,B,36851.05499997735,Correct,sub_004_day_22_data.csv,1,403,,Dual-Task at home,5.0,7.0,small,big,True,Size,right,right,93.08649995364247,Correct,1.0,0.9751861042183623,
4,22,355,B,77.99079858367013,59.05546266694852,3.8995399291835064,0.9276410383441588,B,999.7811999637634,Correct,sub_004_day_22_data.csv,1,403,,Dual-Task at home,6.0,4.0,small,big,False,Size,right,right,625.2024000277743,Correct,1.0,0.9751861042183623,
4,22,356,A,13.391589925203444,31.645552730538807,0.6695794962601722,0.4970871798852457,A,772.5874000461772,Correct,sub_004_day_22_data.csv,1,403,,Dual-Task at home,4.0,2.0,small,big,False,Size,right,right,389.4213000312447,Correct,1.0,0.9751861042183623,
4,22,357,A,49.05855753424273,67.47915659847665,2.4529278767121365,1.0599601132010472,A,614.2582000466064,Correct,sub_004_day_22_data.csv,1,403,,Dual-Task at home,5.0,6.0,big,small,False,Value,right,right,929.3761000735684,Correct,1.0,0.9751861042183623,
4,22,358,A,52.3515720168205,78.83655697039457,2.617578600841025,1.2383617410625238,A,676.3203999726102,Correct,sub_004_day_22_data.csv,1,403,,Dual-Task at home,3.0,7.0,big,small,False,Value,right,right,644.1556999925524,Correct,1.0,0.9751861042183623,
4,22,359,B,75.33209787322518,44.30836327433548,3.766604893661259,0.6959941427762006,B,538.626000052318,Correct,sub_004_day_22_data.csv,1,403,,Dual-Task at home,8.0,5.0,small,big,False,Size,right,right,707.3629000224173,Correct,1.0,0.9751861042183623,
4,22,360,A,35.77158541963152,69.06096514349878,1.788579270981576,1.0848071037231826,A,527.0371000515297,Correct,sub_004_day_22_data.csv,1,403,,Dual-Task at home,6.0,7.0,big,small,False,Size,left,left,367.4440999748185,Correct,1.0,0.9751861042183623,
4,22,361,A,38.5018275043277,57.114188811886216,1.9250913752163852,0.8971475799358105,A,578.4068000502884,Correct,sub_004_day_22_data.csv,1,403,,Dual-Task at home,6.0,3.0,small,big,False,Value,left,left,335.14159999322146,Correct,1.0,0.9751861042183623,
4,22,362,B,79.33015537669039,59.12146069567686,3.96650776883452,0.9286777329551806,B,1077.2944999625906,Correct,sub_004_day_22_data.csv,1,403,,Dual-Task at home,8.0,5.0,small,big,False,Value,left,left,808.148599928245,Correct,1.0,0.9751861042183623,
4,22,363,A,34.136539624828224,46.20282779893323,1.7068269812414112,0.7257523219410145,A,453.739499906078,Correct,sub_004_day_22_data.csv,1,403,,Dual-Task at home,4.0,7.0,small,big,True,Size,right,right,777.1035999758169,Correct,1.0,0.9751861042183623,
4,22,364,B,80.02964779134176,56.27089672305604,4.001482389567088,0.8839011787803142,B,616.8381000170484,Correct,sub_004_day_22_data.csv,1,403,,Dual-Task at home,5.0,2.0,small,big,False,Value,left,left,343.64869992714375,Correct,1.0,0.9751861042183623,
4,22,365,B,64.31744212401165,38.4819048499476,3.2158721062005826,0.604472347863684,B,823.032799991779,Correct,sub_004_day_22_data.csv,1,403,,Dual-Task at home,8.0,3.0,small,big,False,Size,right,right,343.4568999800831,Correct,1.0,0.9751861042183623,
4,22,366,B,63.55567490584198,36.23217686304763,3.1777837452920994,0.5691337032825825,B,1071.5333999833092,Correct,sub_004_day_22_data.csv,1,403,,Dual-Task at home,2.0,4.0,big,small,False,Value,right,right,582.8287999611348,Correct,1.0,0.9751861042183623,
4,22,367,A,65.4861552936812,87.50383342200736,3.2743077646840595,1.3745070011976166,A,2499.2074000183493,Correct,sub_004_day_22_data.csv,1,403,,Dual-Task at home,3.0,4.0,big,small,False,Value,right,right,1249.850200023502,Correct,1.0,0.9751861042183623,
4,22,368,B,43.50367679596188,25.45334980288706,2.1751838397980943,0.399820283750006,B,646.5409999946132,Correct,sub_004_day_22_data.csv,1,403,,Dual-Task at home,6.0,7.0,big,small,False,Value,right,right,281.8134999834001,Correct,1.0,0.9751861042183623,
4,22,369,A,42.66041338480809,64.73376053765193,2.133020669240405,1.0168355327216407,A,518.7357000540942,Correct,sub_004_day_22_data.csv,1,403,,Dual-Task at home,2.0,3.0,big,small,False,Value,right,right,941.9247000478208,Correct,1.0,0.9751861042183623,
4,22,370,B,36.83031872483399,24.903724813689863,1.8415159362416995,0.3911867946085496,B,1270.2484000474217,Correct,sub_004_day_22_data.csv,1,403,,Dual-Task at home,5.0,8.0,big,small,False,Size,left,left,480.37929995916784,Correct,1.0,0.9751861042183623,
4,22,371,B,87.95102053794174,68.46944675226182,4.397551026897087,1.0755155545613162,B,579.6443000435829,Correct,sub_004_day_22_data.csv,1,403,,Dual-Task at home,7.0,3.0,small,big,False,Size,right,right,394.9846000177786,Correct,1.0,0.9751861042183623,
4,22,372,A,44.22901982211992,62.37261965708778,2.2114509911059965,0.9797468184992866,A,501.7199999419972,Correct,sub_004_day_22_data.csv,1,403,,Dual-Task at home,6.0,8.0,big,small,False,Size,left,left,360.67099997308105,Correct,1.0,0.9751861042183623,
4,22,373,B,55.21366198606337,45.42433375779212,2.760683099303169,0.7135237661384528,B,826.2661999324337,Correct,sub_004_day_22_data.csv,1,403,,Dual-Task at home,5.0,2.0,small,big,False,Size,right,right,413.08870003558695,Correct,1.0,0.9751861042183623,
4,22,374,A,26.15601437398313,48.010535977891394,1.3078007186991565,0.7541477356152603,A,475.31629994045943,Correct,sub_004_day_22_data.csv,1,403,,Dual-Task at home,4.0,7.0,small,big,True,Size,right,right,43.49579999689013,Correct,1.0,0.9751861042183623,
4,22,375,B,66.29783987825995,44.993846531853336,3.3148919939129975,0.7067616886060851,B,618.1968000018969,Correct,sub_004_day_22_data.csv,1,403,,Dual-Task at home,3.0,2.0,big,small,True,Size,left,left,144.69400001689792,Correct,1.0,0.9751861042183623,
4,22,376,B,47.64314485009197,36.543401544978565,2.3821572425045985,0.5740224091544329,B,741.8694999068975,Correct,sub_004_day_22_data.csv,1,403,,Dual-Task at home,5.0,7.0,big,small,False,Value,right,right,602.7827999787405,Correct,1.0,0.9751861042183623,
4,22,377,B,47.09855631208589,38.701399373186234,2.3549278156042943,0.6079201597722325,B,495.2952000312507,Correct,sub_004_day_22_data.csv,1,403,,Dual-Task at home,4.0,7.0,big,small,False,Size,left,left,294.9548000469804,Correct,1.0,0.9751861042183623,
4,22,378,A,61.59374852540891,75.15702010797763,3.0796874262704454,1.1805637111846143,A,769.6501000318676,Correct,sub_004_day_22_data.csv,1,403,,Dual-Task at home,7.0,6.0,small,big,False,Size,right,right,807.3030000086874,Correct,1.0,0.9751861042183623,
4,22,379,A,67.23404559144578,87.59518825585471,3.361702279572289,1.3759419995720403,A,485.03189999610186,Correct,sub_004_day_22_data.csv,1,403,,Dual-Task at home,3.0,7.0,big,small,False,Value,right,right,526.8909999867901,Correct,1.0,0.9751861042183623,
4,22,380,B,76.88626825026634,63.33583592655199,3.844313412513317,0.994876984279121,B,503.3269000705331,Correct,sub_004_day_22_data.csv,1,403,,Dual-Task at home,2.0,7.0,big,small,False,Size,left,left,406.73879999667406,Correct,1.0,0.9751861042183623,
4,22,381,A,58.69581618025175,72.78969877169793,2.934790809012587,1.143377914590901,A,1344.2737000295892,Correct,sub_004_day_22_data.csv,1,403,,Dual-Task at home,3.0,2.0,small,big,False,Value,left,left,522.2929000156,Correct,1.0,0.9751861042183623,
4,22,382,A,19.21147322399148,35.22824746446088,0.960573661199574,0.5533640171659677,A,544.8810999514535,Correct,sub_004_day_22_data.csv,1,403,,Dual-Task at home,3.0,8.0,big,small,False,Value,right,right,545.6811999902129,Correct,1.0,0.9751861042183623,
4,22,383,A,21.655992327373717,48.47403054150961,1.082799616368686,0.7614282911954694,A,475.7274000439793,Correct,sub_004_day_22_data.csv,1,403,,Dual-Task at home,3.0,6.0,big,small,False,Value,right,right,2153.1933000078425,Correct,1.0,0.9751861042183623,
4,22,384,B,44.67933984522427,33.109896446979214,2.2339669922612133,0.5200890371947435,B,844.9837999651209,Correct,sub_004_day_22_data.csv,1,403,,Dual-Task at home,5.0,2.0,small,big,False,Value,left,right,751.8159999744967,Incorrect,0.0,0.9751861042183623,
4,22,385,B,79.85311255327778,54.01479319158412,3.99265562766389,0.8484623873792632,B,646.8625999987125,Correct,sub_004_day_22_data.csv,1,403,,Dual-Task at home,7.0,3.0,big,small,True,Value,left,left,21.83830004651099,Correct,1.0,0.9751861042183623,
4,22,386,B,50.03263992566065,41.99750599847453,2.5016319962830327,0.6596952815695042,B,1210.977699956857,Correct,sub_004_day_22_data.csv,1,403,,Dual-Task at home,2.0,7.0,big,small,False,Value,right,right,661.3309999229386,Correct,1.0,0.9751861042183623,
4,22,387,A,51.04915396377963,63.870039362136275,2.5524576981889817,1.0032682322228912,A,692.3430999740958,Correct,sub_004_day_22_data.csv,1,403,,Dual-Task at home,4.0,6.0,big,small,False,Size,left,left,2187.531700008549,Correct,1.0,0.9751861042183623,
4,22,388,B,35.38339786703646,23.366113896735072,1.7691698933518227,0.3670340588046263,B,665.7833000645041,Correct,sub_004_day_22_data.csv,1,403,,Dual-Task at home,8.0,7.0,small,big,False,Value,left,left,611.8389999028295,Correct,1.0,0.9751861042183623,
4,22,389,A,21.85788862439805,43.647744928642965,1.0928944312199025,0.6856171740679295,A,458.69769994169474,Correct,sub_004_day_22_data.csv,1,403,,Dual-Task at home,6.0,7.0,small,big,True,Size,right,right,544.4590999977663,Correct,1.0,0.9751861042183623,
4,22,390,B,53.04978981162245,34.73722772336934,2.6524894905811225,0.5456510971090641,B,579.7050000401214,Correct,sub_004_day_22_data.csv,1,403,,Dual-Task at home,6.0,3.0,small,big,False,Size,right,right,367.9903999436646,Correct,1.0,0.9751861042183623,
4,22,391,A,29.622074650071255,46.2803026525806,1.4811037325035628,0.7269692940962972,A,553.9992999983951,Correct,sub_004_day_22_data.csv,1,403,,Dual-Task at home,7.0,5.0,small,big,False,Size,right,right,1439.964900026098,Correct,1.0,0.9751861042183623,
4,22,392,A,32.69231183819231,47.10579894760503,1.6346155919096157,0.7399361595763688,A,604.3212999356911,Correct,sub_004_day_22_data.csv,1,403,,Dual-Task at home,7.0,8.0,big,small,False,Size,left,left,554.7452999744564,Correct,1.0,0.9751861042183623,
4,22,393,B,36.74504139366793,22.42413438657742,1.8372520696833965,0.3522374792599094,B,661.4205000223592,Correct,sub_004_day_22_data.csv,1,403,,Dual-Task at home,4.0,8.0,small,big,True,Value,right,right,390.50500001758337,Correct,1.0,0.9751861042183623,
4,22,394,B,59.81672115578493,48.381930692760434,2.9908360577892465,0.7599815901543338,B,600.8178999181837,Correct,sub_004_day_22_data.csv,1,403,,Dual-Task at home,3.0,4.0,big,small,False,Value,right,right,532.2512000566348,Correct,1.0,0.9751861042183623,
