subject,day,trial,cat,x,y,xt,yt,resp,rt,fb,f_name,acc,n_trials,block,session_type,ns_left_digit,ns_right_digit,ns_left_size,ns_right_size,ns_congruent,ns_cue,ns_correct_side,ns_resp,ns_rt,ns_fb,acc_stroop,acc_stroop_mean,resp_key
12,5,900,A,49.04430322368867,61.314668183672694,2.4522151611844336,0.9631285556156096,B,925.2384999999776,Incorrect,sub_012_day_05_data.csv,0,300,36.0,Training at home,,,,,,,,,,,,,
12,5,901,A,24.915614355192066,51.962242115240784,1.2457807177596032,0.8162209904664729,A,500.10419997852296,Correct,sub_012_day_05_data.csv,1,300,36.0,Training at home,,,,,,,,,,,,,
12,5,902,A,19.12424106913937,36.49478905825735,0.9562120534569684,0.5732588059986523,A,479.7332000453025,Correct,sub_012_day_05_data.csv,1,300,36.0,Training at home,,,,,,,,,,,,,
12,5,903,B,74.980352225662,64.24286801866724,3.7490176112831,1.009124611064918,B,498.9818999893032,Correct,sub_012_day_05_data.csv,1,300,36.0,Training at home,,,,,,,,,,,,,
12,5,904,B,64.78876651696808,53.103263617693344,3.2394383258484036,0.8341441143149377,B,450.9099999559112,Correct,sub_012_day_05_data.csv,1,300,36.0,Training at home,,,,,,,,,,,,,
12,5,905,B,66.47544810235277,41.84635007974349,3.3237724051176385,0.657320929950344,B,389.35079996008426,Correct,sub_012_day_05_data.csv,1,300,36.0,Training at home,,,,,,,,,,,,,
12,5,906,B,84.76735120421222,58.53183313466795,4.238367560210611,0.9194158848850824,B,403.269000002183,Correct,sub_012_day_05_data.csv,1,300,36.0,Training at home,,,,,,,,,,,,,
12,5,907,A,43.52998610970276,66.42873640281472,2.176499305485138,1.043460151351678,A,647.0205000368878,Correct,sub_012_day_05_data.csv,1,300,36.0,Training at home,,,,,,,,,,,,,
12,5,908,A,69.30396325570356,86.56042053479383,3.4651981627851787,1.359687906218757,B,1064.1992000164464,Incorrect,sub_012_day_05_data.csv,0,300,36.0,Training at home,,,,,,,,,,,,,
12,5,909,B,54.774359350110785,48.167535133164435,2.738717967505539,0.7566138725793883,B,486.8728999863378,Correct,sub_012_day_05_data.csv,1,300,36.0,Training at home,,,,,,,,,,,,,
12,5,910,A,37.293919728648454,64.27627473912976,1.8646959864324228,1.0096493626028462,A,774.4652000255883,Correct,sub_012_day_05_data.csv,1,300,36.0,Training at home,,,,,,,,,,,,,
12,5,911,A,58.54829268883866,76.03189302045695,2.927414634441933,1.194306182757963,B,1119.5107999956235,Incorrect,sub_012_day_05_data.csv,0,300,36.0,Training at home,,,,,,,,,,,,,
12,5,912,B,51.40224002922299,22.256629955617267,2.57011200146115,0.3496063258111687,B,720.7892999867909,Correct,sub_012_day_05_data.csv,1,300,36.0,Training at home,,,,,,,,,,,,,
12,5,913,A,23.508369105568825,48.64299621051355,1.1754184552784412,0.7640823977177277,A,549.0860999561846,Correct,sub_012_day_05_data.csv,1,300,36.0,Training at home,,,,,,,,,,,,,
12,5,914,B,72.89398298239487,47.44343330079255,3.6446991491197434,0.7452397075942361,B,589.0035000047646,Correct,sub_012_day_05_data.csv,1,300,36.0,Training at home,,,,,,,,,,,,,
12,5,915,B,82.17506845830107,56.59978576360022,4.108753422915054,0.8890673557484129,B,653.1118999700993,Correct,sub_012_day_05_data.csv,1,300,36.0,Training at home,,,,,,,,,,,,,
12,5,916,B,45.62244398717435,31.263648017187855,2.2811221993587174,0.4910882346760725,A,1310.515899967868,Incorrect,sub_012_day_05_data.csv,0,300,36.0,Training at home,,,,,,,,,,,,,
12,5,917,B,46.20197449703821,39.141575415075046,2.3100987248519105,0.6148344288696531,B,554.959399974905,Correct,sub_012_day_05_data.csv,1,300,36.0,Training at home,,,,,,,,,,,,,
12,5,918,B,74.7919812860516,44.99151317164957,3.73959906430258,0.7067250362697135,B,575.98159997724,Correct,sub_012_day_05_data.csv,1,300,36.0,Training at home,,,,,,,,,,,,,
12,5,919,A,62.38865162899691,71.59680916847083,3.119432581449846,1.1246400485206915,B,511.3230000133626,Incorrect,sub_012_day_05_data.csv,0,300,36.0,Training at home,,,,,,,,,,,,,
12,5,920,B,55.03105193418199,24.36912489637678,2.7515525967090992,0.3827893187443471,B,553.0270999879576,Correct,sub_012_day_05_data.csv,1,300,36.0,Training at home,,,,,,,,,,,,,
12,5,921,A,33.120679673462185,65.00212036399782,1.656033983673109,1.0210509190164752,A,540.6453000032343,Correct,sub_012_day_05_data.csv,1,300,36.0,Training at home,,,,,,,,,,,,,
12,5,922,B,47.930430140786775,23.66125407114099,2.396521507039339,0.3716701098230907,B,1270.8668999839574,Correct,sub_012_day_05_data.csv,1,300,36.0,Training at home,,,,,,,,,,,,,
12,5,923,B,59.40843880784098,49.498164856453016,2.970421940392049,0.7775153553960464,B,606.841400032863,Correct,sub_012_day_05_data.csv,1,300,36.0,Training at home,,,,,,,,,,,,,
12,5,924,A,52.26612945861094,59.41426563217741,2.6133064729305473,0.9332771021424052,B,556.3211999833584,Incorrect,sub_012_day_05_data.csv,0,300,36.0,Training at home,,,,,,,,,,,,,
12,5,925,B,73.75598328700357,60.82576190803077,3.687799164350179,0.9554488337963568,B,430.22939999355,Correct,sub_012_day_05_data.csv,1,300,37.0,Training at home,,,,,,,,,,,,,
12,5,926,A,30.6346819650774,58.6362219751917,1.53173409825387,0.9210556209576132,A,648.646799963899,Correct,sub_012_day_05_data.csv,1,300,37.0,Training at home,,,,,,,,,,,,,
12,5,927,B,39.06806467253061,12.749067947488602,1.9534032336265303,0.2002618910197365,B,1064.482300018426,Correct,sub_012_day_05_data.csv,1,300,37.0,Training at home,,,,,,,,,,,,,
12,5,928,A,63.6852112321812,83.06532699326013,3.18426056160906,1.3047871052502995,A,661.2833000253886,Correct,sub_012_day_05_data.csv,1,300,37.0,Training at home,,,,,,,,,,,,,
12,5,929,B,50.20026714009037,43.35479031562055,2.5100133570045187,0.6810154537673971,B,568.133199994918,Correct,sub_012_day_05_data.csv,1,300,37.0,Training at home,,,,,,,,,,,,,
12,5,930,B,84.75522583666447,57.40208608778058,4.237761291833223,0.9016698597705016,B,471.9092999584973,Correct,sub_012_day_05_data.csv,1,300,37.0,Training at home,,,,,,,,,,,,,
12,5,931,B,67.76209217818825,50.58925439865657,3.388104608909413,0.7946541498470231,B,422.3758999723941,Correct,sub_012_day_05_data.csv,1,300,37.0,Training at home,,,,,,,,,,,,,
12,5,932,B,82.91449992411971,56.88601739517089,4.145724996205986,0.8935634717032502,B,430.2655999781564,Correct,sub_012_day_05_data.csv,1,300,37.0,Training at home,,,,,,,,,,,,,
12,5,933,A,30.22251294862103,46.59721748870851,1.5111256474310517,0.7319473807012624,A,800.905000010971,Correct,sub_012_day_05_data.csv,1,300,37.0,Training at home,,,,,,,,,,,,,
12,5,934,A,37.499746223305785,54.954208809332854,1.874987311165289,0.863218693396198,A,737.2008999809623,Correct,sub_012_day_05_data.csv,1,300,37.0,Training at home,,,,,,,,,,,,,
12,5,935,B,72.8938246387491,57.10858468382449,3.644691231937455,0.8970595504980681,B,664.4553999649361,Correct,sub_012_day_05_data.csv,1,300,37.0,Training at home,,,,,,,,,,,,,
12,5,936,A,33.13137510974247,45.088550074880146,1.6565687554871236,0.7082492883812949,B,1661.9480000226758,Incorrect,sub_012_day_05_data.csv,0,300,37.0,Training at home,,,,,,,,,,,,,
12,5,937,B,78.22634687036228,50.10258249975355,3.9113173435181134,0.7870095255355114,B,531.6809000214562,Correct,sub_012_day_05_data.csv,1,300,37.0,Training at home,,,,,,,,,,,,,
12,5,938,B,40.4445544144426,14.675109889453466,2.02222772072213,0.2305160870966496,B,899.0666000172496,Correct,sub_012_day_05_data.csv,1,300,37.0,Training at home,,,,,,,,,,,,,
12,5,939,B,42.50784343167922,30.392964218927332,2.125392171583961,0.4774115655549978,B,513.5818999842741,Correct,sub_012_day_05_data.csv,1,300,37.0,Training at home,,,,,,,,,,,,,
12,5,940,A,50.42987131030422,58.38677704906993,2.521493565515211,0.9171373492207162,B,838.0641000112519,Incorrect,sub_012_day_05_data.csv,0,300,37.0,Training at home,,,,,,,,,,,,,
12,5,941,A,38.24905144393784,66.9003904826581,1.912452572196892,1.0508688763130358,A,818.1922000367194,Correct,sub_012_day_05_data.csv,1,300,37.0,Training at home,,,,,,,,,,,,,
12,5,942,A,62.18749605213378,75.66361870283981,3.109374802606689,1.188521343304304,B,933.6655999650249,Incorrect,sub_012_day_05_data.csv,0,300,37.0,Training at home,,,,,,,,,,,,,
12,5,943,B,51.030944013014974,24.838802595922928,2.5515472006507487,0.3901669987965928,B,436.7392999702133,Correct,sub_012_day_05_data.csv,1,300,37.0,Training at home,,,,,,,,,,,,,
12,5,944,A,43.840263176173686,55.68735627282447,2.192013158808684,0.8747349468227142,B,1529.4677000492811,Incorrect,sub_012_day_05_data.csv,0,300,37.0,Training at home,,,,,,,,,,,,,
12,5,945,A,58.70197561068088,68.37973475591,2.9350987805340436,1.0741063618179274,B,625.1680999994278,Incorrect,sub_012_day_05_data.csv,0,300,37.0,Training at home,,,,,,,,,,,,,
12,5,946,A,15.102966490858847,33.212524285812414,0.7551483245429423,0.5217011115174043,A,523.8711999845691,Correct,sub_012_day_05_data.csv,1,300,37.0,Training at home,,,,,,,,,,,,,
12,5,947,B,81.81446264093974,60.43422494931913,4.090723132046986,0.94929858563087,B,1181.14580004476,Correct,sub_012_day_05_data.csv,1,300,37.0,Training at home,,,,,,,,,,,,,
12,5,948,B,48.43059267750101,37.4954359704962,2.4215296338750503,0.5889769309402867,B,1224.7987000155265,Correct,sub_012_day_05_data.csv,1,300,37.0,Training at home,,,,,,,,,,,,,
12,5,949,A,17.79327501027734,33.50847971977215,0.889663750513867,0.5263499686029938,A,527.0715999649838,Correct,sub_012_day_05_data.csv,1,300,37.0,Training at home,,,,,,,,,,,,,
12,5,950,A,53.433446691286065,60.72540935953005,2.6716723345643034,0.9538724996506625,B,4122.219300013967,Incorrect,sub_012_day_05_data.csv,0,300,38.0,Training at home,,,,,,,,,,,,,
12,5,951,B,71.22009804760656,51.10179417368709,3.5610049023803274,0.8027051058065652,B,463.77580001717433,Correct,sub_012_day_05_data.csv,1,300,38.0,Training at home,,,,,,,,,,,,,
12,5,952,B,41.924654604417086,26.903147381286814,2.096232730220854,0.4225936508574706,B,598.7819000147283,Correct,sub_012_day_05_data.csv,1,300,38.0,Training at home,,,,,,,,,,,,,
12,5,953,A,56.06534342257882,75.97843234603258,2.803267171128941,1.1934664244478252,B,791.3800000096671,Incorrect,sub_012_day_05_data.csv,0,300,38.0,Training at home,,,,,,,,,,,,,
12,5,954,A,14.667558842514,32.4356605160643,0.7333779421257001,0.5094981639580007,A,581.2331999768503,Correct,sub_012_day_05_data.csv,1,300,38.0,Training at home,,,,,,,,,,,,,
12,5,955,B,44.29209264758544,26.75651565240971,2.214604632379272,0.4202903650463533,B,768.13789998414,Correct,sub_012_day_05_data.csv,1,300,38.0,Training at home,,,,,,,,,,,,,
12,5,956,B,86.1336456731814,68.4997024029258,4.30668228365907,1.075990809210594,B,521.3061000104062,Correct,sub_012_day_05_data.csv,1,300,38.0,Training at home,,,,,,,,,,,,,
12,5,957,B,47.46863850229671,18.022590934613532,2.3734319251148355,0.2830981963941794,B,893.0700999917462,Correct,sub_012_day_05_data.csv,1,300,38.0,Training at home,,,,,,,,,,,,,
12,5,958,B,70.02803817658217,38.57629144674053,3.501401908829109,0.605954969059094,B,440.2298999484629,Correct,sub_012_day_05_data.csv,1,300,38.0,Training at home,,,,,,,,,,,,,
12,5,959,A,63.54297669582293,87.11404543822853,3.1771488347911463,1.368384225866131,A,919.9035000056028,Correct,sub_012_day_05_data.csv,1,300,38.0,Training at home,,,,,,,,,,,,,
12,5,960,B,74.38929853101777,56.54060675716345,3.719464926550888,0.8881377740890707,B,723.8540999824181,Correct,sub_012_day_05_data.csv,1,300,38.0,Training at home,,,,,,,,,,,,,
12,5,961,A,14.591569035777855,37.79461592413041,0.7295784517888927,0.5936764386624795,A,526.7197999637574,Correct,sub_012_day_05_data.csv,1,300,38.0,Training at home,,,,,,,,,,,,,
12,5,962,B,78.19013170065983,51.15938976665478,3.909506585032992,0.8036098152652975,B,2240.4006000142545,Correct,sub_012_day_05_data.csv,1,300,38.0,Training at home,,,,,,,,,,,,,
12,5,963,B,68.13878465321883,48.17381154662006,3.406939232660942,0.7567124622514038,B,445.204499992542,Correct,sub_012_day_05_data.csv,1,300,38.0,Training at home,,,,,,,,,,,,,
12,5,964,A,23.575245998811912,51.212675156119126,1.1787622999405956,0.8044468202057218,A,583.4038999746554,Correct,sub_012_day_05_data.csv,1,300,38.0,Training at home,,,,,,,,,,,,,
12,5,965,B,48.53953578893743,27.345837935149625,2.4269767894468712,0.4295474178166157,B,841.7168000014499,Correct,sub_012_day_05_data.csv,1,300,38.0,Training at home,,,,,,,,,,,,,
12,5,966,B,75.1426542893757,58.58404259731198,3.757132714468785,0.920235989206534,B,448.8577000447549,Correct,sub_012_day_05_data.csv,1,300,38.0,Training at home,,,,,,,,,,,,,
12,5,967,A,43.246874285239954,67.60849060075033,2.162343714261998,1.061991686958059,B,891.0136999911629,Incorrect,sub_012_day_05_data.csv,0,300,38.0,Training at home,,,,,,,,,,,,,
12,5,968,B,50.199978944281,37.92117157669891,2.50999894721405,0.5956643702043768,B,541.8616999522783,Correct,sub_012_day_05_data.csv,1,300,38.0,Training at home,,,,,,,,,,,,,
12,5,969,A,18.38394020280676,37.71556810941526,0.919197010140338,0.5924347584925223,A,924.0921000018716,Correct,sub_012_day_05_data.csv,1,300,38.0,Training at home,,,,,,,,,,,,,
12,5,970,A,19.71556364195291,37.610702552888235,0.9857781820976456,0.5907875341825228,A,871.2510999757797,Correct,sub_012_day_05_data.csv,1,300,38.0,Training at home,,,,,,,,,,,,,
12,5,971,B,60.93034518008863,32.28000613601458,3.0465172590044314,0.5070531506736842,B,659.6529000089504,Correct,sub_012_day_05_data.csv,1,300,38.0,Training at home,,,,,,,,,,,,,
12,5,972,B,40.19100768213207,17.929349546744216,2.0095503841066034,0.2816335640984755,B,561.2574000260793,Correct,sub_012_day_05_data.csv,1,300,38.0,Training at home,,,,,,,,,,,,,
12,5,973,A,52.61054088649747,68.69348225645382,2.6305270443248734,1.0790346960318806,B,752.9614000231959,Incorrect,sub_012_day_05_data.csv,0,300,38.0,Training at home,,,,,,,,,,,,,
12,5,974,A,20.78141419172398,45.687305072737765,1.039070709586199,0.7176545098941431,A,478.2202999922447,Correct,sub_012_day_05_data.csv,1,300,38.0,Training at home,,,,,,,,,,,,,
12,5,975,B,82.4304813694412,53.47192213190857,4.121524068472059,0.8399349887146471,B,918.7348999548703,Correct,sub_012_day_05_data.csv,1,300,39.0,Training at home,,,,,,,,,,,,,
12,5,976,B,54.36601226771324,28.47035300691602,2.7183006133856615,0.4472112592581772,B,736.0960000078194,Correct,sub_012_day_05_data.csv,1,300,39.0,Training at home,,,,,,,,,,,,,
12,5,977,A,15.521876320544989,40.15994943012608,0.7760938160272494,0.6308310104911085,A,520.8466000040062,Correct,sub_012_day_05_data.csv,1,300,39.0,Training at home,,,,,,,,,,,,,
12,5,978,B,49.743616078283026,23.715615924914832,2.487180803914151,0.3725240238253476,B,732.1183999883942,Correct,sub_012_day_05_data.csv,1,300,39.0,Training at home,,,,,,,,,,,,,
12,5,979,B,33.16327386902183,18.54845658346819,1.6581636934510913,0.2913584746902646,B,1556.7772000213154,Correct,sub_012_day_05_data.csv,1,300,39.0,Training at home,,,,,,,,,,,,,
12,5,980,B,45.75969364792245,31.42376865669812,2.2879846823961225,0.4936034037999401,B,555.0393000012264,Correct,sub_012_day_05_data.csv,1,300,39.0,Training at home,,,,,,,,,,,,,
12,5,981,B,62.448318319676495,34.941890319668815,3.1224159159838245,0.5488659296540593,B,442.9163999739103,Correct,sub_012_day_05_data.csv,1,300,39.0,Training at home,,,,,,,,,,,,,
12,5,982,A,55.89492767820431,75.89417475301069,2.794746383910216,1.1921429092715918,A,714.6501000388525,Correct,sub_012_day_05_data.csv,1,300,39.0,Training at home,,,,,,,,,,,,,
12,5,983,B,40.48566492090767,13.37020692818198,2.0242832460453837,0.2100187193127592,B,589.6159000112675,Correct,sub_012_day_05_data.csv,1,300,39.0,Training at home,,,,,,,,,,,,,
12,5,984,A,30.623181922650993,63.41301753012952,1.5311590961325496,0.9960893500730784,A,646.6354000149295,Correct,sub_012_day_05_data.csv,1,300,39.0,Training at home,,,,,,,,,,,,,
12,5,985,B,79.3710445053201,58.87239243029973,3.9685522252660057,0.9247653777914248,B,681.0048999614082,Correct,sub_012_day_05_data.csv,1,300,39.0,Training at home,,,,,,,,,,,,,
12,5,986,A,63.378221930937194,81.66404726055418,3.16891109654686,1.2827758546808334,A,922.3493000026792,Correct,sub_012_day_05_data.csv,1,300,39.0,Training at home,,,,,,,,,,,,,
12,5,987,A,48.084911413058514,60.07853383577066,2.4042455706529258,0.9437114026845148,B,734.3070000060834,Incorrect,sub_012_day_05_data.csv,0,300,39.0,Training at home,,,,,,,,,,,,,
12,5,988,B,87.53485541940042,61.772605237106454,4.37674277097002,0.97032181402998,B,638.2882999605499,Correct,sub_012_day_05_data.csv,1,300,39.0,Training at home,,,,,,,,,,,,,
12,5,989,A,51.10093857455235,61.863851991389474,2.5550469287276174,0.9717551146945774,B,647.5049000000581,Incorrect,sub_012_day_05_data.csv,0,300,39.0,Training at home,,,,,,,,,,,,,
12,5,990,B,75.3038218692677,49.12834671307857,3.7651910934633848,0.7717062655840995,B,522.1981999929994,Correct,sub_012_day_05_data.csv,1,300,39.0,Training at home,,,,,,,,,,,,,
12,5,991,B,80.02233901490037,66.35468014912408,4.001116950745018,1.0422968784389433,B,470.9265999845229,Correct,sub_012_day_05_data.csv,1,300,39.0,Training at home,,,,,,,,,,,,,
12,5,992,A,25.828614515927804,58.24967696311217,1.2914307257963902,0.9149837861064593,A,588.1154999951832,Correct,sub_012_day_05_data.csv,1,300,39.0,Training at home,,,,,,,,,,,,,
12,5,993,B,51.18281727206332,26.103911695098333,2.559140863603166,0.410039286056388,B,893.3581000310369,Correct,sub_012_day_05_data.csv,1,300,39.0,Training at home,,,,,,,,,,,,,
12,5,994,A,17.642504303200877,32.022380106293085,0.8821252151600438,0.5030063704619515,A,976.6737000318244,Correct,sub_012_day_05_data.csv,1,300,39.0,Training at home,,,,,,,,,,,,,
12,5,995,B,65.90260431712261,38.63878327292025,3.29513021585613,0.6069365883692721,B,746.8390999711119,Correct,sub_012_day_05_data.csv,1,300,39.0,Training at home,,,,,,,,,,,,,
12,5,996,B,33.08158928230916,11.724824831778584,1.654079464115458,0.1841731177807138,B,1830.3032999974675,Correct,sub_012_day_05_data.csv,1,300,39.0,Training at home,,,,,,,,,,,,,
12,5,997,B,52.68545275676977,28.09229428966072,2.6342726378384884,0.4412727268144031,B,511.9130000239238,Correct,sub_012_day_05_data.csv,1,300,39.0,Training at home,,,,,,,,,,,,,
12,5,998,B,64.10331643543813,55.76662017365286,3.205165821771907,0.8759800212654009,B,428.4580000094138,Correct,sub_012_day_05_data.csv,1,300,39.0,Training at home,,,,,,,,,,,,,
12,5,999,A,44.99929725496754,57.19755488748993,2.2499648627483766,0.8984570911891866,B,407.26380003616214,Incorrect,sub_012_day_05_data.csv,0,300,39.0,Training at home,,,,,,,,,,,,,
12,5,1000,B,73.52211643229185,62.07738654461962,3.676105821614593,0.9751093076131544,B,1379.1015000315383,Correct,sub_012_day_05_data.csv,1,300,40.0,Training at home,,,,,,,,,,,,,
12,5,1001,A,34.02091439507441,50.55421820877864,1.7010457197537208,0.7941038026633717,A,824.6312999981456,Correct,sub_012_day_05_data.csv,1,300,40.0,Training at home,,,,,,,,,,,,,
12,5,1002,A,57.44418785749348,73.48405391222506,2.872209392874674,1.154284819633213,A,1886.957699956838,Correct,sub_012_day_05_data.csv,1,300,40.0,Training at home,,,,,,,,,,,,,
12,5,1003,B,43.03346574378051,32.47560991528933,2.1516732871890256,0.510125687653604,B,2237.2451000264846,Correct,sub_012_day_05_data.csv,1,300,40.0,Training at home,,,,,,,,,,,,,
12,5,1004,B,38.26298423871512,27.88984535862508,1.913149211935756,0.4380926664420597,B,1148.794699984137,Correct,sub_012_day_05_data.csv,1,300,40.0,Training at home,,,,,,,,,,,,,
12,5,1005,B,65.95551364114615,53.47635747990624,3.2977756820573076,0.8400046589980751,B,3892.5142000080086,Correct,sub_012_day_05_data.csv,1,300,40.0,Training at home,,,,,,,,,,,,,
12,5,1006,A,14.118595620266312,37.9596712927367,0.7059297810133157,0.596269122329725,A,2611.529000045266,Correct,sub_012_day_05_data.csv,1,300,40.0,Training at home,,,,,,,,,,,,,
12,5,1007,B,72.44071071953472,52.95627039340325,3.622035535976736,0.8318351501471515,B,674.4000999606214,Correct,sub_012_day_05_data.csv,1,300,40.0,Training at home,,,,,,,,,,,,,
12,5,1008,A,50.95712417553515,68.58787772426639,2.5478562087767576,1.0773758639193516,B,760.8470999985002,Incorrect,sub_012_day_05_data.csv,0,300,40.0,Training at home,,,,,,,,,,,,,
12,5,1009,A,59.870800890060075,81.14438218972353,2.9935400445030034,1.2746129748365895,A,1650.3761999774724,Correct,sub_012_day_05_data.csv,1,300,40.0,Training at home,,,,,,,,,,,,,
12,5,1010,A,44.358547945621225,52.45464943252502,2.217927397281062,0.8239557065192429,B,635.1420999853872,Incorrect,sub_012_day_05_data.csv,0,300,40.0,Training at home,,,,,,,,,,,,,
12,5,1011,A,25.85341629678704,39.219603401185225,1.2926708148393518,0.6160600896093438,A,2036.598899983801,Correct,sub_012_day_05_data.csv,1,300,40.0,Training at home,,,,,,,,,,,,,
12,5,1012,A,40.54090004700235,68.88800628497376,2.0270450023501176,1.0820902723266053,A,1113.874999980908,Correct,sub_012_day_05_data.csv,1,300,40.0,Training at home,,,,,,,,,,,,,
12,5,1013,A,55.53465361868658,69.04055543056063,2.776732680934329,1.084486508702041,A,980.8893000008538,Correct,sub_012_day_05_data.csv,1,300,40.0,Training at home,,,,,,,,,,,,,
12,5,1014,A,63.84764043041348,77.07225506385574,3.192382021520674,1.2106481515210397,A,1396.64339995943,Correct,sub_012_day_05_data.csv,1,300,40.0,Training at home,,,,,,,,,,,,,
12,5,1015,A,16.30266928623156,35.13567997199799,0.815133464311578,0.5519099703945546,A,1364.1289999941364,Correct,sub_012_day_05_data.csv,1,300,40.0,Training at home,,,,,,,,,,,,,
12,5,1016,A,35.67033968893184,59.729179104186315,1.783516984446592,0.9382237513933036,A,2541.8991000042297,Correct,sub_012_day_05_data.csv,1,300,40.0,Training at home,,,,,,,,,,,,,
12,5,1017,A,10.920476506470628,34.226236431666806,0.5460238253235314,0.5376244646687589,A,1137.1564999572,Correct,sub_012_day_05_data.csv,1,300,40.0,Training at home,,,,,,,,,,,,,
12,5,1018,B,62.275804835777755,49.76938221112469,3.1137902417888874,0.7817756276408594,B,1487.435800023377,Correct,sub_012_day_05_data.csv,1,300,40.0,Training at home,,,,,,,,,,,,,
12,5,1019,B,70.69077449418015,52.25761156134017,3.534538724709007,0.8208606428762765,B,1057.295000005979,Correct,sub_012_day_05_data.csv,1,300,40.0,Training at home,,,,,,,,,,,,,
12,5,1020,A,27.868764508033813,39.64549045564169,1.3934382254016908,0.622749907817041,A,3005.5833000224084,Correct,sub_012_day_05_data.csv,1,300,40.0,Training at home,,,,,,,,,,,,,
12,5,1021,A,12.406592725416946,39.084183661023175,0.6203296362708473,0.6139329213051232,A,932.281100016553,Correct,sub_012_day_05_data.csv,1,300,40.0,Training at home,,,,,,,,,,,,,
12,5,1022,A,30.69441246022546,41.67765125436192,1.5347206230112729,0.6546710149979041,A,2026.269800029695,Correct,sub_012_day_05_data.csv,1,300,40.0,Training at home,,,,,,,,,,,,,
12,5,1023,A,45.9732964638436,53.98567958525526,2.29866482319218,0.8480050719204519,B,3198.2779999962077,Incorrect,sub_012_day_05_data.csv,0,300,40.0,Training at home,,,,,,,,,,,,,
12,5,1024,A,50.74063348756496,58.82379812371724,2.537031674378248,0.9240020602085957,A,1116.0109000047669,Correct,sub_012_day_05_data.csv,1,300,40.0,Training at home,,,,,,,,,,,,,
12,5,1025,B,41.96198844671548,27.995367436902654,2.098099422335774,0.4397502033716014,B,1472.405800013803,Correct,sub_012_day_05_data.csv,1,300,41.0,Training at home,,,,,,,,,,,,,
12,5,1026,B,64.18806653831969,50.008286274818694,3.209403326915984,0.7855283238979284,B,632.1602000389248,Correct,sub_012_day_05_data.csv,1,300,41.0,Training at home,,,,,,,,,,,,,
12,5,1027,B,64.70736648769162,37.089346745015135,3.2353683243845808,0.5825980963029203,B,893.3805000269786,Correct,sub_012_day_05_data.csv,1,300,41.0,Training at home,,,,,,,,,,,,,
12,5,1028,A,51.06060044363654,61.17554925408577,2.5530300221818267,0.9609432805797822,B,3513.749599980656,Incorrect,sub_012_day_05_data.csv,0,300,41.0,Training at home,,,,,,,,,,,,,
12,5,1029,B,73.06906929766934,46.15486685371404,3.653453464883467,0.7249989531752152,B,1396.4260999928229,Correct,sub_012_day_05_data.csv,1,300,41.0,Training at home,,,,,,,,,,,,,
12,5,1030,A,47.550620248638694,66.79287445541856,2.377531012431935,1.0491800185064415,A,1277.5104999891482,Correct,sub_012_day_05_data.csv,1,300,41.0,Training at home,,,,,,,,,,,,,
12,5,1031,B,57.51993410735936,45.49647143941161,2.875996705367968,0.7146569021915667,B,612.4792000046,Correct,sub_012_day_05_data.csv,1,300,41.0,Training at home,,,,,,,,,,,,,
12,5,1032,A,38.21070245353667,49.32612107583647,1.9105351226768337,0.7748128980096425,B,2714.8067000089213,Incorrect,sub_012_day_05_data.csv,0,300,41.0,Training at home,,,,,,,,,,,,,
12,5,1033,A,28.72112134762717,49.7570214392355,1.4360560673813587,0.7815814650900604,A,1231.5524000441656,Correct,sub_012_day_05_data.csv,1,300,41.0,Training at home,,,,,,,,,,,,,
12,5,1034,A,25.317012300451395,57.48268628495979,1.2658506150225697,0.9029359247071822,A,1515.397000010125,Correct,sub_012_day_05_data.csv,1,300,41.0,Training at home,,,,,,,,,,,,,
12,5,1035,B,88.67823365614643,61.97798328487645,4.433911682807321,0.9735478848603942,B,1066.4575999835506,Correct,sub_012_day_05_data.csv,1,300,41.0,Training at home,,,,,,,,,,,,,
12,5,1036,A,62.86786795418205,77.7438847597816,3.143393397709102,1.2211980861143068,B,882.9136000131257,Incorrect,sub_012_day_05_data.csv,0,300,41.0,Training at home,,,,,,,,,,,,,
12,5,1037,B,86.72992577087183,69.44226597803993,4.336496288543591,1.0907965632261931,B,507.09719996666536,Correct,sub_012_day_05_data.csv,1,300,41.0,Training at home,,,,,,,,,,,,,
12,5,1038,A,55.32622690753027,81.60334837561433,2.7663113453765136,1.2818223988257926,A,811.7844000225887,Correct,sub_012_day_05_data.csv,1,300,41.0,Training at home,,,,,,,,,,,,,
12,5,1039,A,64.06193137299597,75.27180333885875,3.2030965686497983,1.1823667219590717,A,557.3499999591149,Correct,sub_012_day_05_data.csv,1,300,41.0,Training at home,,,,,,,,,,,,,
12,5,1040,A,27.781980789610483,55.66381424117458,1.389099039480524,0.8743651494543049,A,514.2720000003465,Correct,sub_012_day_05_data.csv,1,300,41.0,Training at home,,,,,,,,,,,,,
12,5,1041,A,31.169797847717835,40.92749244843583,1.558489892385892,0.6428875480292885,A,649.8720000381581,Correct,sub_012_day_05_data.csv,1,300,41.0,Training at home,,,,,,,,,,,,,
12,5,1042,A,64.66892373676015,80.16650552784844,3.233446186838007,1.259252524151271,A,695.6842000363395,Correct,sub_012_day_05_data.csv,1,300,41.0,Training at home,,,,,,,,,,,,,
12,5,1043,A,20.560101034787913,46.718689848717986,1.0280050517393955,0.7338554640703623,A,499.5195000083186,Correct,sub_012_day_05_data.csv,1,300,41.0,Training at home,,,,,,,,,,,,,
12,5,1044,B,38.758180357837944,28.75863259021251,1.9379090178918972,0.4517395443634981,B,870.2552000177093,Correct,sub_012_day_05_data.csv,1,300,41.0,Training at home,,,,,,,,,,,,,
12,5,1045,B,72.94455463361325,55.68865035332504,3.6472277316806623,0.874755274191683,B,447.4844000069425,Correct,sub_012_day_05_data.csv,1,300,41.0,Training at home,,,,,,,,,,,,,
12,5,1046,B,71.11105631111573,56.10115009917436,3.5555528155557865,0.8812348050475224,B,1113.821899984032,Correct,sub_012_day_05_data.csv,1,300,41.0,Training at home,,,,,,,,,,,,,
12,5,1047,A,16.734366317198457,40.652272954249355,0.836718315859923,0.638564410323984,A,2658.8460999773815,Correct,sub_012_day_05_data.csv,1,300,41.0,Training at home,,,,,,,,,,,,,
12,5,1048,A,41.760018494447955,74.59301804780803,2.088000924722398,1.1717043875404227,A,1107.6024999492802,Correct,sub_012_day_05_data.csv,1,300,41.0,Training at home,,,,,,,,,,,,,
12,5,1049,B,66.40356981618513,44.27214553194688,3.3201784908092566,0.6954252358091126,B,801.0184000013396,Correct,sub_012_day_05_data.csv,1,300,41.0,Training at home,,,,,,,,,,,,,
12,5,1050,B,32.56055882974389,12.483138480349377,1.6280279414871943,0.1960846807180482,B,1960.605799977202,Correct,sub_012_day_05_data.csv,1,300,42.0,Training at home,,,,,,,,,,,,,
12,5,1051,A,23.159492413418977,41.919604122636315,1.1579746206709487,0.6584716017653334,A,1587.2288000537085,Correct,sub_012_day_05_data.csv,1,300,42.0,Training at home,,,,,,,,,,,,,
12,5,1052,A,52.290745036141296,60.24044217811249,2.614537251807065,0.9462546529787944,B,1172.521399974357,Incorrect,sub_012_day_05_data.csv,0,300,42.0,Training at home,,,,,,,,,,,,,
12,5,1053,B,74.36696716085575,45.11783919978644,3.718348358042787,0.7087093608794733,B,744.3916999618523,Correct,sub_012_day_05_data.csv,1,300,42.0,Training at home,,,,,,,,,,,,,
12,5,1054,A,68.53226215855884,86.8901617099517,3.4266131079279423,1.3648674684860669,A,899.0314999828115,Correct,sub_012_day_05_data.csv,1,300,42.0,Training at home,,,,,,,,,,,,,
12,5,1055,B,47.41911661904315,34.19434622498143,2.3709558309521577,0.5371235344735378,B,1124.1806999896653,Correct,sub_012_day_05_data.csv,1,300,42.0,Training at home,,,,,,,,,,,,,
12,5,1056,B,77.34377266818129,62.61386451041127,3.867188633409064,0.9835362837938736,B,717.9667999735102,Correct,sub_012_day_05_data.csv,1,300,42.0,Training at home,,,,,,,,,,,,,
12,5,1057,A,49.80006256948263,65.15540772417285,2.4900031284741315,1.0234587512395452,A,4155.0504000042565,Correct,sub_012_day_05_data.csv,1,300,42.0,Training at home,,,,,,,,,,,,,
12,5,1058,B,51.20543265748242,41.50944569147149,2.5602716328741213,0.6520288481945566,B,622.1652000094764,Correct,sub_012_day_05_data.csv,1,300,42.0,Training at home,,,,,,,,,,,,,
12,5,1059,B,68.75126159183243,47.130166324952754,3.437563079591621,0.7403189214446833,B,578.7515999982134,Correct,sub_012_day_05_data.csv,1,300,42.0,Training at home,,,,,,,,,,,,,
12,5,1060,B,37.037131473820125,16.593632515796127,1.8518565736910064,0.2606521700399691,B,768.6148000066169,Correct,sub_012_day_05_data.csv,1,300,42.0,Training at home,,,,,,,,,,,,,
12,5,1061,A,24.74597621815287,50.085734822959616,1.2372988109076433,0.7867448828472821,A,871.1447000387125,Correct,sub_012_day_05_data.csv,1,300,42.0,Training at home,,,,,,,,,,,,,
12,5,1062,B,62.322286624635694,49.649734349852146,3.1161143312317847,0.7798962034309015,B,2013.3893999736756,Correct,sub_012_day_05_data.csv,1,300,42.0,Training at home,,,,,,,,,,,,,
12,5,1063,A,18.154778645755595,33.01707065644608,0.9077389322877798,0.5186309330867306,A,603.7876000045799,Correct,sub_012_day_05_data.csv,1,300,42.0,Training at home,,,,,,,,,,,,,
12,5,1064,A,26.57619571603072,56.32450377777409,1.328809785801536,0.8847432364267281,A,841.7389999958687,Correct,sub_012_day_05_data.csv,1,300,42.0,Training at home,,,,,,,,,,,,,
12,5,1065,A,36.41501117745313,64.34746243128949,1.8207505588726565,1.0107675762564212,A,4484.770699986257,Correct,sub_012_day_05_data.csv,1,300,42.0,Training at home,,,,,,,,,,,,,
12,5,1066,B,63.96398439208935,49.131381390178696,3.1981992196044677,0.7717539341805183,B,976.2918999767862,Correct,sub_012_day_05_data.csv,1,300,42.0,Training at home,,,,,,,,,,,,,
12,5,1067,B,30.68714041481331,14.71223683701796,1.5343570207406656,0.2310992758252438,B,890.9769000019878,Correct,sub_012_day_05_data.csv,1,300,42.0,Training at home,,,,,,,,,,,,,
12,5,1068,B,78.92141625021392,66.53004441372815,3.946070812510696,1.045051493865855,B,837.9089999943972,Correct,sub_012_day_05_data.csv,1,300,42.0,Training at home,,,,,,,,,,,,,
12,5,1069,B,50.32714950558509,30.944383807032885,2.5163574752792544,0.4860732441901874,B,1087.6396000385284,Correct,sub_012_day_05_data.csv,1,300,42.0,Training at home,,,,,,,,,,,,,
12,5,1070,B,77.12580328357033,64.04237898571358,3.856290164178517,1.0059753366996558,B,885.5436000158079,Correct,sub_012_day_05_data.csv,1,300,42.0,Training at home,,,,,,,,,,,,,
12,5,1071,B,57.5101441461207,33.97878595454257,2.8755072073060353,0.5337375216634549,B,514.966299990192,Correct,sub_012_day_05_data.csv,1,300,42.0,Training at home,,,,,,,,,,,,,
12,5,1072,B,68.23797431810088,58.82255256728412,3.4118987159050445,0.923982495053896,B,666.7865000199527,Correct,sub_012_day_05_data.csv,1,300,42.0,Training at home,,,,,,,,,,,,,
12,5,1073,B,59.29396536553558,30.27993880885956,2.964698268276779,0.4756361665653083,B,486.05820001102984,Correct,sub_012_day_05_data.csv,1,300,42.0,Training at home,,,,,,,,,,,,,
12,5,1074,A,11.181544349633024,30.652880650011323,0.5590772174816513,0.4814943233072014,A,648.4319999581203,Correct,sub_012_day_05_data.csv,1,300,42.0,Training at home,,,,,,,,,,,,,
12,5,1075,B,53.76583971927992,42.93615091479075,2.688291985963996,0.6744394814366464,B,1054.9127000267615,Correct,sub_012_day_05_data.csv,1,300,43.0,Training at home,,,,,,,,,,,,,
12,5,1076,A,19.778782345270923,44.12157082246749,0.9889391172635462,0.6930600138035281,A,633.5521999862976,Correct,sub_012_day_05_data.csv,1,300,43.0,Training at home,,,,,,,,,,,,,
12,5,1077,A,36.50642488458915,50.2726293877534,1.8253212442294575,0.7896806158060421,A,876.1514000361785,Correct,sub_012_day_05_data.csv,1,300,43.0,Training at home,,,,,,,,,,,,,
12,5,1078,B,51.110571469336485,25.538819614342245,2.5555285734668245,0.4011628404088626,B,816.5542000206187,Correct,sub_012_day_05_data.csv,1,300,43.0,Training at home,,,,,,,,,,,,,
12,5,1079,B,73.10874810437231,56.544206020466305,3.655437405218615,0.8881943111848235,B,486.8989000096917,Correct,sub_012_day_05_data.csv,1,300,43.0,Training at home,,,,,,,,,,,,,
12,5,1080,A,55.88200466497303,67.59149218831418,2.794100233248652,1.0617246765198984,A,758.6677999934182,Correct,sub_012_day_05_data.csv,1,300,43.0,Training at home,,,,,,,,,,,,,
12,5,1081,A,27.579278178228588,54.63878950324526,1.3789639089114294,0.858264098522172,A,766.3107000407763,Correct,sub_012_day_05_data.csv,1,300,43.0,Training at home,,,,,,,,,,,,,
12,5,1082,B,77.42524518068072,59.09374164781881,3.871262259034036,0.928242323169604,B,536.671599955298,Correct,sub_012_day_05_data.csv,1,300,43.0,Training at home,,,,,,,,,,,,,
12,5,1083,A,45.41602295405728,74.38673223454907,2.270801147702864,1.168464057563052,A,590.33969999291,Correct,sub_012_day_05_data.csv,1,300,43.0,Training at home,,,,,,,,,,,,,
12,5,1084,A,50.74131712426464,71.37367170046235,2.537065856213232,1.1211350133695113,A,875.6347000016831,Correct,sub_012_day_05_data.csv,1,300,43.0,Training at home,,,,,,,,,,,,,
12,5,1085,B,66.68558890718712,42.27759828720016,3.3342794453593565,0.6640949609524421,B,603.4128000028431,Correct,sub_012_day_05_data.csv,1,300,43.0,Training at home,,,,,,,,,,,,,
12,5,1086,A,65.22524366226267,83.16254160584259,3.2612621831131334,1.3063141488138528,A,1481.4526000409387,Correct,sub_012_day_05_data.csv,1,300,43.0,Training at home,,,,,,,,,,,,,
12,5,1087,B,58.135916182397345,26.29079749554686,2.906795809119867,0.4129748813451347,B,900.998700002674,Correct,sub_012_day_05_data.csv,1,300,43.0,Training at home,,,,,,,,,,,,,
12,5,1088,A,21.83001805619394,33.84020025428116,1.091500902809697,0.5315606225742856,A,508.3560000057332,Correct,sub_012_day_05_data.csv,1,300,43.0,Training at home,,,,,,,,,,,,,
12,5,1089,A,46.27077268114349,54.54241658342269,2.313538634057174,0.8567502762375742,A,930.9837999753654,Correct,sub_012_day_05_data.csv,1,300,43.0,Training at home,,,,,,,,,,,,,
12,5,1090,A,20.335332638069424,51.67082303947408,1.0167666319034712,0.8116433903287499,A,608.4728999994695,Correct,sub_012_day_05_data.csv,1,300,43.0,Training at home,,,,,,,,,,,,,
12,5,1091,A,51.36193895009978,63.605826164778335,2.568096947504989,0.9991179810238854,A,783.9842000394128,Correct,sub_012_day_05_data.csv,1,300,43.0,Training at home,,,,,,,,,,,,,
12,5,1092,B,39.87643890559504,15.011371731787396,1.9938219452797517,0.2357980757644438,B,595.9175999742001,Correct,sub_012_day_05_data.csv,1,300,43.0,Training at home,,,,,,,,,,,,,
12,5,1093,B,43.47006476829042,16.08456568474361,2.173503238414521,0.252655766956865,B,683.5906999767758,Correct,sub_012_day_05_data.csv,1,300,43.0,Training at home,,,,,,,,,,,,,
12,5,1094,B,77.38873465073632,45.89915678659071,3.869436732536816,0.7209822688335974,B,525.2147000283003,Correct,sub_012_day_05_data.csv,1,300,43.0,Training at home,,,,,,,,,,,,,
12,5,1095,B,43.763432350967875,25.29052336000338,2.188171617548394,0.3972626119661384,B,530.9009000193328,Correct,sub_012_day_05_data.csv,1,300,43.0,Training at home,,,,,,,,,,,,,
12,5,1096,A,47.107198074892224,72.97522198362076,2.355359903744611,1.1462921063891367,A,1038.917700003367,Correct,sub_012_day_05_data.csv,1,300,43.0,Training at home,,,,,,,,,,,,,
12,5,1097,A,19.21235269307915,43.26448635568204,0.9606176346539576,0.6795969624817326,A,782.0651000365615,Correct,sub_012_day_05_data.csv,1,300,43.0,Training at home,,,,,,,,,,,,,
12,5,1098,A,29.02672331273841,59.06018431310629,1.4513361656369204,0.9277152057885693,A,1734.4810999929905,Correct,sub_012_day_05_data.csv,1,300,43.0,Training at home,,,,,,,,,,,,,
12,5,1099,A,15.1177097652941,41.7742678291925,0.7558854882647051,0.656188664606418,A,569.1744000068866,Correct,sub_012_day_05_data.csv,1,300,43.0,Training at home,,,,,,,,,,,,,
12,5,1100,A,56.29240384375465,78.54566216780051,2.8146201921877325,1.233792376188539,B,699.4207000243478,Incorrect,sub_012_day_05_data.csv,0,300,44.0,Training at home,,,,,,,,,,,,,
12,5,1101,B,48.246133011447135,31.671258934356715,2.412306650572357,0.4974909719905758,B,900.8718999684788,Correct,sub_012_day_05_data.csv,1,300,44.0,Training at home,,,,,,,,,,,,,
12,5,1102,A,37.33572277366851,70.06664331420494,1.8667861386834257,1.1006042594880132,A,741.3276999723166,Correct,sub_012_day_05_data.csv,1,300,44.0,Training at home,,,,,,,,,,,,,
12,5,1103,A,35.37989328441598,65.26821553041339,1.7689946642207988,1.0252307321163094,A,1036.242600006517,Correct,sub_012_day_05_data.csv,1,300,44.0,Training at home,,,,,,,,,,,,,
12,5,1104,B,41.30351214660607,32.1323631275112,2.0651756073303034,0.5047339797193436,A,1620.4325000289828,Incorrect,sub_012_day_05_data.csv,0,300,44.0,Training at home,,,,,,,,,,,,,
12,5,1105,A,17.309076969662225,35.2546871583605,0.8654538484831114,0.5537793309065588,A,975.1897000242024,Correct,sub_012_day_05_data.csv,1,300,44.0,Training at home,,,,,,,,,,,,,
12,5,1106,A,13.53214589428627,41.177438822681424,0.6766072947143136,0.6468136964948955,A,1102.7511999709532,Correct,sub_012_day_05_data.csv,1,300,44.0,Training at home,,,,,,,,,,,,,
12,5,1107,A,38.69984183147951,49.92178329986544,1.9349920915739756,0.7841695383447944,A,1013.9718999853358,Correct,sub_012_day_05_data.csv,1,300,44.0,Training at home,,,,,,,,,,,,,
12,5,1108,B,80.48170683496302,50.158529652816654,4.024085341748151,0.7878883413607729,B,504.7712000086904,Correct,sub_012_day_05_data.csv,1,300,44.0,Training at home,,,,,,,,,,,,,
12,5,1109,A,18.154516840860374,40.88687986767107,0.9077258420430186,0.6422496071024193,A,699.9568999744952,Correct,sub_012_day_05_data.csv,1,300,44.0,Training at home,,,,,,,,,,,,,
12,5,1110,A,34.506178591766854,62.3119815453751,1.7253089295883428,0.9787943172678658,A,656.4987999736331,Correct,sub_012_day_05_data.csv,1,300,44.0,Training at home,,,,,,,,,,,,,
12,5,1111,B,48.85206764694833,35.12717313498466,2.4426033823474165,0.5517763453112228,A,961.564900004305,Incorrect,sub_012_day_05_data.csv,0,300,44.0,Training at home,,,,,,,,,,,,,
12,5,1112,A,21.208663116847205,36.33769173622169,1.0604331558423603,0.570791127034623,A,592.0559000223875,Correct,sub_012_day_05_data.csv,1,300,44.0,Training at home,,,,,,,,,,,,,
12,5,1113,B,71.78884056627425,47.10957533753685,3.5894420283137123,0.7399954789707033,B,1924.9550999957137,Correct,sub_012_day_05_data.csv,1,300,44.0,Training at home,,,,,,,,,,,,,
12,5,1114,B,63.381676176502474,49.183200834250385,3.1690838088251234,0.772567912104562,B,666.2639999995008,Correct,sub_012_day_05_data.csv,1,300,44.0,Training at home,,,,,,,,,,,,,
12,5,1115,A,20.854459088504473,34.912242668051974,1.0427229544252237,0.5484002254314809,A,887.8166999784298,Correct,sub_012_day_05_data.csv,1,300,44.0,Training at home,,,,,,,,,,,,,
12,5,1116,B,72.68922019094924,55.112543727561714,3.6344610095474623,0.8657058124757705,B,950.5849000415764,Correct,sub_012_day_05_data.csv,1,300,44.0,Training at home,,,,,,,,,,,,,
12,5,1117,B,40.82491951788761,23.77960350990083,2.0412459758943804,0.3735291384599126,B,991.1054999683984,Correct,sub_012_day_05_data.csv,1,300,44.0,Training at home,,,,,,,,,,,,,
12,5,1118,B,34.52640935681943,13.510773547598312,1.7263204678409716,0.2122267346072508,B,534.9423000006936,Correct,sub_012_day_05_data.csv,1,300,44.0,Training at home,,,,,,,,,,,,,
12,5,1119,B,36.981528128230536,22.836349303581795,1.8490764064115268,0.3587125360347147,B,545.918799994979,Correct,sub_012_day_05_data.csv,1,300,44.0,Training at home,,,,,,,,,,,,,
12,5,1120,B,45.22519393882162,15.75269840360711,2.261259696941081,0.2474428078949387,B,513.5900999885052,Correct,sub_012_day_05_data.csv,1,300,44.0,Training at home,,,,,,,,,,,,,
12,5,1121,A,27.994639913117332,52.04890335064414,1.3997319956558667,0.8175822619689438,A,933.8388000032865,Correct,sub_012_day_05_data.csv,1,300,44.0,Training at home,,,,,,,,,,,,,
12,5,1122,B,83.16285888310225,56.482361341400626,4.158142944155112,0.8872228572377419,B,560.8445999678224,Correct,sub_012_day_05_data.csv,1,300,44.0,Training at home,,,,,,,,,,,,,
12,5,1123,B,50.89646098887046,43.51030269433603,2.5448230494435227,0.6834582364999713,A,1050.7748000090942,Incorrect,sub_012_day_05_data.csv,0,300,44.0,Training at home,,,,,,,,,,,,,
12,5,1124,B,63.85605619131232,49.77943408866268,3.192802809565616,0.781933522164,B,690.2187000378035,Correct,sub_012_day_05_data.csv,1,300,44.0,Training at home,,,,,,,,,,,,,
12,5,1125,B,58.710036271160725,29.601828711720984,2.935501813558036,0.4649844380678303,B,1221.4810000150464,Correct,sub_012_day_05_data.csv,1,300,45.0,Training at home,,,,,,,,,,,,,
12,5,1126,B,82.07340451655492,65.5431235283623,4.103670225827745,1.029548976850157,B,648.5403999686241,Correct,sub_012_day_05_data.csv,1,300,45.0,Training at home,,,,,,,,,,,,,
12,5,1127,A,32.973786816186575,45.47148984307937,1.6486893408093288,0.7142644921940051,A,753.2948000007309,Correct,sub_012_day_05_data.csv,1,300,45.0,Training at home,,,,,,,,,,,,,
12,5,1128,A,50.76379813392416,60.34373283496849,2.538189906696208,0.947877138822611,B,1401.805899979081,Incorrect,sub_012_day_05_data.csv,0,300,45.0,Training at home,,,,,,,,,,,,,
12,5,1129,B,77.56991378912728,46.41856195375899,3.878495689456364,0.7291410661206594,B,1212.5466000288725,Correct,sub_012_day_05_data.csv,1,300,45.0,Training at home,,,,,,,,,,,,,
12,5,1130,A,20.46297291996891,36.06158907127838,1.0231486459984451,0.5664541165155106,A,732.6876999577507,Correct,sub_012_day_05_data.csv,1,300,45.0,Training at home,,,,,,,,,,,,,
12,5,1131,B,59.57448193678065,46.07724568512915,2.9787240968390325,0.7237796827102686,B,1029.381700034719,Correct,sub_012_day_05_data.csv,1,300,45.0,Training at home,,,,,,,,,,,,,
12,5,1132,A,42.52420747854979,71.4835176502469,2.1262103739274893,1.1228604695138598,A,539.9248999892734,Correct,sub_012_day_05_data.csv,1,300,45.0,Training at home,,,,,,,,,,,,,
12,5,1133,B,71.24401392154498,41.34847496587732,3.562200696077249,0.6495003259497084,B,729.8554999870248,Correct,sub_012_day_05_data.csv,1,300,45.0,Training at home,,,,,,,,,,,,,
12,5,1134,A,60.72680809784575,82.73175796906115,3.0363404048922873,1.2995474152708566,A,1184.1002000146543,Correct,sub_012_day_05_data.csv,1,300,45.0,Training at home,,,,,,,,,,,,,
12,5,1135,A,30.94680531463142,48.592690670358245,1.5473402657315711,0.7632922001407937,A,878.5188000183553,Correct,sub_012_day_05_data.csv,1,300,45.0,Training at home,,,,,,,,,,,,,
12,5,1136,B,45.65681245142142,25.62165621018289,2.282840622571071,0.4024640346135694,B,1056.4909999957308,Correct,sub_012_day_05_data.csv,1,300,45.0,Training at home,,,,,,,,,,,,,
12,5,1137,B,55.51115797064289,29.198043050946023,2.7755578985321443,0.4586417877402527,B,11322.8444000124,Correct,sub_012_day_05_data.csv,1,300,45.0,Training at home,,,,,,,,,,,,,
12,5,1138,A,35.85255896279973,45.684507868838494,1.7926279481399865,0.7176105715180404,A,11860.062599997036,Correct,sub_012_day_05_data.csv,1,300,45.0,Training at home,,,,,,,,,,,,,
12,5,1139,A,17.76157743621887,42.4827938823607,0.8880788718109436,0.667318165823969,A,3723.586999985855,Correct,sub_012_day_05_data.csv,1,300,45.0,Training at home,,,,,,,,,,,,,
12,5,1140,A,50.22919122454407,70.67126904308181,2.5114595612272037,1.1101016982280678,B,1802.574299974367,Incorrect,sub_012_day_05_data.csv,0,300,45.0,Training at home,,,,,,,,,,,,,
12,5,1141,B,37.25714979900076,18.587406891816887,1.862857489950038,0.291970304703081,B,3613.2513999473304,Correct,sub_012_day_05_data.csv,1,300,45.0,Training at home,,,,,,,,,,,,,
12,5,1142,A,57.99328814307867,68.58362440614113,2.8996644071539333,1.077309052954473,B,4175.761500024237,Incorrect,sub_012_day_05_data.csv,0,300,45.0,Training at home,,,,,,,,,,,,,
12,5,1143,A,48.672313227021974,76.5270713980863,2.4336156613510984,1.2020844265248476,A,787.9673999850638,Correct,sub_012_day_05_data.csv,1,300,45.0,Training at home,,,,,,,,,,,,,
12,5,1144,A,27.514326292864375,41.2613522971637,1.3757163146432188,0.6481318062697491,B,1018.5184000292792,Incorrect,sub_012_day_05_data.csv,0,300,45.0,Training at home,,,,,,,,,,,,,
12,5,1145,B,50.815720508349614,27.662409265215786,2.5407860254174808,0.4345201086409807,B,620.2638000249863,Correct,sub_012_day_05_data.csv,1,300,45.0,Training at home,,,,,,,,,,,,,
12,5,1146,A,32.192284034739814,55.60812870546237,1.6096142017369908,0.8734904431047814,A,821.4346999884583,Correct,sub_012_day_05_data.csv,1,300,45.0,Training at home,,,,,,,,,,,,,
12,5,1147,A,46.55299249988613,72.99907861332794,2.3276496249943066,1.1466668454522742,A,710.5008999933489,Correct,sub_012_day_05_data.csv,1,300,45.0,Training at home,,,,,,,,,,,,,
12,5,1148,A,24.721702306596576,44.553503145713464,1.236085115329829,0.6998447908713157,A,510.9808999695815,Correct,sub_012_day_05_data.csv,1,300,45.0,Training at home,,,,,,,,,,,,,
12,5,1149,A,43.38287474771427,59.47319530855387,2.1691437373857134,0.9342027673343188,A,11722.94210002292,Correct,sub_012_day_05_data.csv,1,300,45.0,Training at home,,,,,,,,,,,,,
12,5,1150,A,12.486016843840716,38.19362981985285,0.6243008421920357,0.5999441342798889,A,981.4877000171692,Correct,sub_012_day_05_data.csv,1,300,46.0,Training at home,,,,,,,,,,,,,
12,5,1151,B,69.51710699618693,59.88140699861431,3.4758553498093465,0.9406149415673356,B,3778.6678000120446,Correct,sub_012_day_05_data.csv,1,300,46.0,Training at home,,,,,,,,,,,,,
12,5,1152,A,33.435721145678485,49.89478599843977,1.6717860572839245,0.7837454657256664,A,5669.776000024285,Correct,sub_012_day_05_data.csv,1,300,46.0,Training at home,,,,,,,,,,,,,
12,5,1153,B,62.548619908641825,48.554518545447856,3.1274309954320914,0.7626925938048418,B,4115.322999947239,Correct,sub_012_day_05_data.csv,1,300,46.0,Training at home,,,,,,,,,,,,,
12,5,1154,A,52.693861223589145,78.32448444647503,2.6346930611794575,1.2303181246662698,A,5584.445099986624,Correct,sub_012_day_05_data.csv,1,300,46.0,Training at home,,,,,,,,,,,,,
12,5,1155,B,73.83120712243205,59.923278936497056,3.6915603561216024,0.9412726644295556,B,964.8792999796568,Correct,sub_012_day_05_data.csv,1,300,46.0,Training at home,,,,,,,,,,,,,
12,5,1156,B,58.731421714364025,27.040974927672885,2.9365710857182012,0.4247586408934146,B,1346.3006999809295,Correct,sub_012_day_05_data.csv,1,300,46.0,Training at home,,,,,,,,,,,,,
12,5,1157,B,78.19374226519895,59.55196347981602,3.909687113259947,0.935440054875188,B,895.8576999721117,Correct,sub_012_day_05_data.csv,1,300,46.0,Training at home,,,,,,,,,,,,,
12,5,1158,B,53.21157433834106,45.25399767953619,2.660578716917053,0.7108481332780022,B,1267.662399972323,Correct,sub_012_day_05_data.csv,1,300,46.0,Training at home,,,,,,,,,,,,,
12,5,1159,A,15.627367031841452,41.74937183677941,0.7813683515920726,0.655797599272074,A,590.3719000052661,Correct,sub_012_day_05_data.csv,1,300,46.0,Training at home,,,,,,,,,,,,,
12,5,1160,A,60.647192501525424,83.07923191843614,3.032359625076271,1.3050055233042082,A,1132.4584999820215,Correct,sub_012_day_05_data.csv,1,300,46.0,Training at home,,,,,,,,,,,,,
12,5,1161,B,37.17232565246487,23.60951484359048,1.8586162826232435,0.3708573919372152,B,1028.7663000053726,Correct,sub_012_day_05_data.csv,1,300,46.0,Training at home,,,,,,,,,,,,,
12,5,1162,A,22.60546177638737,39.97167824487448,1.1302730888193684,0.6278736536287631,A,818.2607000344433,Correct,sub_012_day_05_data.csv,1,300,46.0,Training at home,,,,,,,,,,,,,
12,5,1163,A,51.514191214340855,62.171829776278344,2.5757095607170424,0.976592818426956,A,1917.4827000242656,Correct,sub_012_day_05_data.csv,1,300,46.0,Training at home,,,,,,,,,,,,,
12,5,1164,B,37.057669450788566,15.165828248002835,1.8528834725394283,0.2382242730476513,B,746.2576000252739,Correct,sub_012_day_05_data.csv,1,300,46.0,Training at home,,,,,,,,,,,,,
12,5,1165,B,72.42417809409812,57.81444342986816,3.6212089047049063,0.9081471537532824,B,20659.23869999824,Correct,sub_012_day_05_data.csv,1,300,46.0,Training at home,,,,,,,,,,,,,
12,5,1166,B,43.1180332779786,25.9889898476352,2.15590166389893,0.4082340978977523,B,856.1481999931857,Correct,sub_012_day_05_data.csv,1,300,46.0,Training at home,,,,,,,,,,,,,
12,5,1167,B,40.15513476830647,26.60216889780312,2.0077567384153236,0.4178658918944657,B,621.3087000069208,Correct,sub_012_day_05_data.csv,1,300,46.0,Training at home,,,,,,,,,,,,,
12,5,1168,B,63.839825479322535,33.675306012798025,3.1919912739661265,0.5289704698859723,B,505.84330002311617,Correct,sub_012_day_05_data.csv,1,300,46.0,Training at home,,,,,,,,,,,,,
12,5,1169,A,41.18405086211848,61.375041297437875,2.059202543105924,0.9640768942690052,A,653.8731000036933,Correct,sub_012_day_05_data.csv,1,300,46.0,Training at home,,,,,,,,,,,,,
12,5,1170,B,31.834480309378225,16.102892773937484,1.5917240154689112,0.2529436482007308,B,705.9853000100702,Correct,sub_012_day_05_data.csv,1,300,46.0,Training at home,,,,,,,,,,,,,
12,5,1171,A,32.18985160073102,46.74125213855826,1.6094925800365507,0.7342098716904142,A,1059.4546999782324,Correct,sub_012_day_05_data.csv,1,300,46.0,Training at home,,,,,,,,,,,,,
12,5,1172,B,80.28749343272226,66.7395537660901,4.014374671636113,1.0483424590770485,B,667.9839999997057,Correct,sub_012_day_05_data.csv,1,300,46.0,Training at home,,,,,,,,,,,,,
12,5,1173,B,54.91974253580214,26.410379730272552,2.745987126790107,0.4148532746957051,B,535.8322999672964,Correct,sub_012_day_05_data.csv,1,300,46.0,Training at home,,,,,,,,,,,,,
12,5,1174,B,38.20829869496197,26.73643202621024,1.9104149347480983,0.4199748921837248,B,814.5068999729119,Correct,sub_012_day_05_data.csv,1,300,46.0,Training at home,,,,,,,,,,,,,
12,5,1175,A,56.41083719561192,68.83857307759591,2.820541859780596,1.0813137773208972,A,1319.1456999629736,Correct,sub_012_day_05_data.csv,1,300,47.0,Training at home,,,,,,,,,,,,,
12,5,1176,A,31.216044777218677,40.15467957640912,1.560802238860934,0.630748231822495,A,5289.507500012405,Correct,sub_012_day_05_data.csv,1,300,47.0,Training at home,,,,,,,,,,,,,
12,5,1177,A,39.77317067928615,67.63743492671973,1.9886585339643077,1.062446343367202,A,1329.8963000415824,Correct,sub_012_day_05_data.csv,1,300,47.0,Training at home,,,,,,,,,,,,,
12,5,1178,B,54.3531603443429,35.32839174991133,2.717658017217145,0.5549370799233184,B,661.4756999770179,Correct,sub_012_day_05_data.csv,1,300,47.0,Training at home,,,,,,,,,,,,,
12,5,1179,A,30.7230815292945,61.45124967033029,1.536154076464725,0.9652739725911093,A,843.7286000116728,Correct,sub_012_day_05_data.csv,1,300,47.0,Training at home,,,,,,,,,,,,,
12,5,1180,B,42.91108501430202,33.69835020712352,2.145554250715101,0.5293324472439765,B,881.5813999972306,Correct,sub_012_day_05_data.csv,1,300,47.0,Training at home,,,,,,,,,,,,,
12,5,1181,A,29.79736371169146,45.558304269624784,1.4898681855845728,0.7156281700173087,A,915.4939000145532,Correct,sub_012_day_05_data.csv,1,300,47.0,Training at home,,,,,,,,,,,,,
12,5,1182,B,57.734026083734605,40.94287952784377,2.88670130418673,0.6431292477074296,B,1332.5913000153378,Correct,sub_012_day_05_data.csv,1,300,47.0,Training at home,,,,,,,,,,,,,
12,5,1183,A,27.948522269941503,38.97267985055829,1.3974261134970754,0.6121814235461045,A,527.0475000143051,Correct,sub_012_day_05_data.csv,1,300,47.0,Training at home,,,,,,,,,,,,,
12,5,1184,A,19.509205183206035,50.086863752981024,0.9754602591603018,0.7867626160385904,A,540.2569999569096,Correct,sub_012_day_05_data.csv,1,300,47.0,Training at home,,,,,,,,,,,,,
12,5,1185,A,41.86691826174851,59.874605633096,2.093345913087426,0.940508105967602,A,731.872399977874,Correct,sub_012_day_05_data.csv,1,300,47.0,Training at home,,,,,,,,,,,,,
12,5,1186,B,47.96479153478099,23.09963626493941,2.3982395767390496,0.36284823795265,B,965.5001999926752,Correct,sub_012_day_05_data.csv,1,300,47.0,Training at home,,,,,,,,,,,,,
12,5,1187,B,68.01183419489718,37.7183552113141,3.400591709744859,0.5924785381867732,B,481.83820000849664,Correct,sub_012_day_05_data.csv,1,300,47.0,Training at home,,,,,,,,,,,,,
12,5,1188,A,27.049796356033156,44.00534797895772,1.3524898178016576,0.6912343896467802,B,1056.3195999711752,Incorrect,sub_012_day_05_data.csv,0,300,47.0,Training at home,,,,,,,,,,,,,
12,5,1189,B,61.72035487527536,46.88672990001853,3.086017743763768,0.7364950310237355,B,481.1851999838837,Correct,sub_012_day_05_data.csv,1,300,47.0,Training at home,,,,,,,,,,,,,
12,5,1190,A,43.0299004253249,66.48281710817785,2.151495021266245,1.044309649085027,A,1686.4641000283882,Correct,sub_012_day_05_data.csv,1,300,47.0,Training at home,,,,,,,,,,,,,
12,5,1191,B,74.48517016594433,42.94933841131463,3.7242585082972166,0.6746466301476398,B,474.5318000204861,Correct,sub_012_day_05_data.csv,1,300,47.0,Training at home,,,,,,,,,,,,,
12,5,1192,B,73.66437219846924,56.21393772544849,3.6832186099234616,0.8830064689381155,B,682.0808000047691,Correct,sub_012_day_05_data.csv,1,300,47.0,Training at home,,,,,,,,,,,,,
12,5,1193,A,39.56342502083011,54.170535819283515,1.9781712510415053,0.8509087868544192,A,2130.133799975738,Correct,sub_012_day_05_data.csv,1,300,47.0,Training at home,,,,,,,,,,,,,
12,5,1194,B,46.063503798138406,16.990263089430034,2.3031751899069204,0.2668824285215561,B,2514.435999968555,Correct,sub_012_day_05_data.csv,1,300,47.0,Training at home,,,,,,,,,,,,,
12,5,1195,B,66.06559586561282,38.83650681830994,3.303279793280641,0.6100424225574621,B,28195.45410003047,Correct,sub_012_day_05_data.csv,1,300,47.0,Training at home,,,,,,,,,,,,,
12,5,1196,A,18.927592519544355,35.369579318083645,0.9463796259772178,0.5555840527312653,A,4202.795799996238,Correct,sub_012_day_05_data.csv,1,300,47.0,Training at home,,,,,,,,,,,,,
12,5,1197,A,52.9647927476624,80.2345989399728,2.64823963738312,1.2603221329677097,A,1620.7586999516934,Correct,sub_012_day_05_data.csv,1,300,47.0,Training at home,,,,,,,,,,,,,
12,5,1198,A,66.90030288781774,81.10112112157101,3.3450151443908873,1.2739334315671176,A,17633.280500012916,Correct,sub_012_day_05_data.csv,1,300,47.0,Training at home,,,,,,,,,,,,,
12,5,1199,A,28.579118974190603,38.82960562416679,1.42895594870953,0.6099340188533565,A,4367.017499986105,Correct,sub_012_day_05_data.csv,1,300,47.0,Training at home,,,,,,,,,,,,,
