subject,day,trial,cat,x,y,xt,yt,resp,rt,fb,f_name,acc,n_trials,block,session_type,ns_left_digit,ns_right_digit,ns_left_size,ns_right_size,ns_congruent,ns_cue,ns_correct_side,ns_resp,ns_rt,ns_fb,acc_stroop,acc_stroop_mean,resp_key
12,13,2700,A,16.736248742746326,33.3615378664203,0.8368124371373163,0.5240418113680186,A,752.6367999962531,Correct,sub_012_day_13_data.csv,1,300,108.0,Training at home,,,,,,,,,,,,,
12,13,2701,B,56.68410827988171,33.90891650248065,2.8342054139940855,0.5326400148769146,B,1375.5987000185996,Correct,sub_012_day_13_data.csv,1,300,108.0,Training at home,,,,,,,,,,,,,
12,13,2702,A,31.967763294253675,64.49882788770672,1.598388164712684,1.0131452192858597,A,902.3762000142596,Correct,sub_012_day_13_data.csv,1,300,108.0,Training at home,,,,,,,,,,,,,
12,13,2703,A,57.84914647149181,65.66292651293601,2.89245732357459,1.0314308377312311,A,2747.728399990592,Correct,sub_012_day_13_data.csv,1,300,108.0,Training at home,,,,,,,,,,,,,
12,13,2704,B,65.76695285553119,43.10854949667885,3.288347642776559,0.6771475120283912,B,536.1962000024505,Correct,sub_012_day_13_data.csv,1,300,108.0,Training at home,,,,,,,,,,,,,
12,13,2705,A,37.95307093921883,69.16946830787991,1.8976535469609417,1.0865114674437375,A,619.4493000512011,Correct,sub_012_day_13_data.csv,1,300,108.0,Training at home,,,,,,,,,,,,,
12,13,2706,A,64.84214737312828,78.4721248536405,3.242107368656414,1.2326372547588895,A,1216.2155999685638,Correct,sub_012_day_13_data.csv,1,300,108.0,Training at home,,,,,,,,,,,,,
12,13,2707,A,32.273638791720714,48.04670000054062,1.6136819395860358,0.7547157987546557,A,945.7177000003868,Correct,sub_012_day_13_data.csv,1,300,108.0,Training at home,,,,,,,,,,,,,
12,13,2708,B,58.46311249600772,43.2385414429977,2.9231556248003856,0.679189420746297,B,1523.3098000171594,Correct,sub_012_day_13_data.csv,1,300,108.0,Training at home,,,,,,,,,,,,,
12,13,2709,B,84.64122377610437,60.715743725611425,4.232061188805218,0.9537206722281072,B,4698.010499996599,Correct,sub_012_day_13_data.csv,1,300,108.0,Training at home,,,,,,,,,,,,,
12,13,2710,B,65.99733730790638,34.51987525696582,3.2998668653953187,0.5422369325505995,B,974.7649999917484,Correct,sub_012_day_13_data.csv,1,300,108.0,Training at home,,,,,,,,,,,,,
12,13,2711,B,41.42510577504272,20.717351203571884,2.071255288752136,0.3254273917149054,B,1068.5182000161149,Correct,sub_012_day_13_data.csv,1,300,108.0,Training at home,,,,,,,,,,,,,
12,13,2712,B,52.96905418608885,36.68904555440305,2.6484527093044425,0.5763101799046695,B,816.3716999697499,Correct,sub_012_day_13_data.csv,1,300,108.0,Training at home,,,,,,,,,,,,,
12,13,2713,A,41.71063964015696,68.45940414275083,2.085531982007848,1.0753578056200033,A,530.8565000304952,Correct,sub_012_day_13_data.csv,1,300,108.0,Training at home,,,,,,,,,,,,,
12,13,2714,B,67.77813048233676,44.146575544882594,3.3889065241168383,0.6934527870647499,B,573.1471999897622,Correct,sub_012_day_13_data.csv,1,300,108.0,Training at home,,,,,,,,,,,,,
12,13,2715,A,40.85407278494942,62.26248232935641,2.0427036392474713,0.978016785400852,A,827.7480999822728,Correct,sub_012_day_13_data.csv,1,300,108.0,Training at home,,,,,,,,,,,,,
12,13,2716,B,45.95418438665219,31.832614600633903,2.297709219332609,0.5000255408695332,B,609.8486999981105,Correct,sub_012_day_13_data.csv,1,300,108.0,Training at home,,,,,,,,,,,,,
12,13,2717,B,89.50537012268667,66.71265332125358,4.475268506134333,1.0479199078776649,B,2596.512099960819,Correct,sub_012_day_13_data.csv,1,300,108.0,Training at home,,,,,,,,,,,,,
12,13,2718,B,56.46642923438833,30.47985024578112,2.8233214617194164,0.4787763680733151,B,506.6806000540964,Correct,sub_012_day_13_data.csv,1,300,108.0,Training at home,,,,,,,,,,,,,
12,13,2719,B,52.77593503616923,24.695912276709024,2.638796751808462,0.3879224829110352,B,595.0978000182658,Correct,sub_012_day_13_data.csv,1,300,108.0,Training at home,,,,,,,,,,,,,
12,13,2720,A,24.13533982819903,55.07989409979264,1.2067669914099517,0.8651929533220616,A,683.7691999971867,Correct,sub_012_day_13_data.csv,1,300,108.0,Training at home,,,,,,,,,,,,,
12,13,2721,A,44.92392409881488,66.77425974397872,2.246196204940744,1.0488876193029009,A,910.3280000272208,Correct,sub_012_day_13_data.csv,1,300,108.0,Training at home,,,,,,,,,,,,,
12,13,2722,B,68.61002565025333,36.96043876509635,3.4305012825126666,0.5805732144894106,B,1025.2799000008963,Correct,sub_012_day_13_data.csv,1,300,108.0,Training at home,,,,,,,,,,,,,
12,13,2723,B,56.22162409011277,42.836416683208625,2.8110812045056384,0.6728728597903973,B,3018.724799971096,Correct,sub_012_day_13_data.csv,1,300,108.0,Training at home,,,,,,,,,,,,,
12,13,2724,A,47.069617998991376,76.80771377168537,2.3534808999495684,1.2064927466207718,A,594.094599946402,Correct,sub_012_day_13_data.csv,1,300,108.0,Training at home,,,,,,,,,,,,,
12,13,2725,A,38.03586699112599,60.87199106406129,1.9017933495563,0.9561749996811924,A,507.4640999664553,Correct,sub_012_day_13_data.csv,1,300,109.0,Training at home,,,,,,,,,,,,,
12,13,2726,A,22.61161033850078,37.06496342975147,1.130580516925039,0.582215084082408,A,547.1979000139982,Correct,sub_012_day_13_data.csv,1,300,109.0,Training at home,,,,,,,,,,,,,
12,13,2727,A,22.958143435858776,42.27640328906949,1.1479071717929388,0.6640761899657004,A,423.5690000350587,Correct,sub_012_day_13_data.csv,1,300,109.0,Training at home,,,,,,,,,,,,,
12,13,2728,B,60.73186589498953,27.73867306969488,3.0365932947494763,0.4357180576804123,B,647.7306999731809,Correct,sub_012_day_13_data.csv,1,300,109.0,Training at home,,,,,,,,,,,,,
12,13,2729,A,58.959608444996874,72.92441461429259,2.947980422249844,1.145494026097989,A,613.4735000086948,Correct,sub_012_day_13_data.csv,1,300,109.0,Training at home,,,,,,,,,,,,,
12,13,2730,B,44.68960668471519,15.550528686824263,2.2344803342357595,0.2442671334098222,B,485.2316999458708,Correct,sub_012_day_13_data.csv,1,300,109.0,Training at home,,,,,,,,,,,,,
12,13,2731,B,52.17558423959574,33.678656010012816,2.6087792119797872,0.5290230915191699,B,650.0455999630503,Correct,sub_012_day_13_data.csv,1,300,109.0,Training at home,,,,,,,,,,,,,
12,13,2732,A,58.67634938809748,78.57207256703408,2.933817469404874,1.234207229769592,A,546.068700030446,Correct,sub_012_day_13_data.csv,1,300,109.0,Training at home,,,,,,,,,,,,,
12,13,2733,B,53.8589508438377,42.39149604361102,2.6929475421918845,0.6658840627264458,B,996.6396999661812,Correct,sub_012_day_13_data.csv,1,300,109.0,Training at home,,,,,,,,,,,,,
12,13,2734,B,78.87253411724151,50.38822107652565,3.943626705862075,0.7914963258073566,B,1263.8388000195846,Correct,sub_012_day_13_data.csv,1,300,109.0,Training at home,,,,,,,,,,,,,
12,13,2735,B,70.04741786090365,45.12889373596055,3.5023708930451822,0.7088830051276406,B,606.1129999579862,Correct,sub_012_day_13_data.csv,1,300,109.0,Training at home,,,,,,,,,,,,,
12,13,2736,B,35.37206737076687,20.8543301286178,1.7686033685383435,0.3275790516380098,B,542.6925999927334,Correct,sub_012_day_13_data.csv,1,300,109.0,Training at home,,,,,,,,,,,,,
12,13,2737,A,27.289315577669065,44.960087378353734,1.364465778883453,0.7062314010629563,A,898.6546999658458,Correct,sub_012_day_13_data.csv,1,300,109.0,Training at home,,,,,,,,,,,,,
12,13,2738,B,85.50203643962405,63.69108801145107,4.2751018219812025,1.000457270979578,B,2428.821000037715,Correct,sub_012_day_13_data.csv,1,300,109.0,Training at home,,,,,,,,,,,,,
12,13,2739,B,35.90900083081172,15.204976887400663,1.795450041540586,0.2388392184373026,B,980.8355999994092,Correct,sub_012_day_13_data.csv,1,300,109.0,Training at home,,,,,,,,,,,,,
12,13,2740,B,47.28134330544246,19.958368075469657,2.3640671652721235,0.3135053126176826,B,605.110100004822,Correct,sub_012_day_13_data.csv,1,300,109.0,Training at home,,,,,,,,,,,,,
12,13,2741,B,71.61915353686334,56.40641419096802,3.580957676843167,0.8860298821884408,B,1014.0119999996386,Correct,sub_012_day_13_data.csv,1,300,109.0,Training at home,,,,,,,,,,,,,
12,13,2742,A,23.331764811186556,44.33226974138021,1.1665882405593275,0.6963696646824058,A,512.0055000297725,Correct,sub_012_day_13_data.csv,1,300,109.0,Training at home,,,,,,,,,,,,,
12,13,2743,A,47.168117313301686,60.56320575120702,2.3584058656650844,0.9513246113291952,A,1336.4773000357673,Correct,sub_012_day_13_data.csv,1,300,109.0,Training at home,,,,,,,,,,,,,
12,13,2744,A,53.5950700818915,77.64682354050501,2.6797535040945752,1.2196734520471677,A,962.4165000277573,Correct,sub_012_day_13_data.csv,1,300,109.0,Training at home,,,,,,,,,,,,,
12,13,2745,A,39.60960466543958,57.06963152930538,1.980480233271979,0.8964476757777111,A,444.7295999852941,Correct,sub_012_day_13_data.csv,1,300,109.0,Training at home,,,,,,,,,,,,,
12,13,2746,A,24.36144480204492,54.41152529658172,1.218072240102246,0.8546942407117816,A,613.5538999806158,Correct,sub_012_day_13_data.csv,1,300,109.0,Training at home,,,,,,,,,,,,,
12,13,2747,B,30.962472737966472,13.409453869176978,1.5481236368983236,0.2106352088202881,B,526.5674000256695,Correct,sub_012_day_13_data.csv,1,300,109.0,Training at home,,,,,,,,,,,,,
12,13,2748,A,13.449138705129736,31.695086093528584,0.6724569352564869,0.497865248131627,A,519.992400018964,Correct,sub_012_day_13_data.csv,1,300,109.0,Training at home,,,,,,,,,,,,,
12,13,2749,A,30.73702484195809,54.98386398271872,1.5368512420979044,0.8636845157704476,A,629.0762000135146,Correct,sub_012_day_13_data.csv,1,300,109.0,Training at home,,,,,,,,,,,,,
12,13,2750,B,60.98561073454598,45.77485164398987,3.049280536727299,0.7190296882196062,B,1114.8717000032775,Correct,sub_012_day_13_data.csv,1,300,110.0,Training at home,,,,,,,,,,,,,
12,13,2751,A,29.3031230485798,59.87800553725104,1.46515615242899,0.940561511537184,A,598.5372000141069,Correct,sub_012_day_13_data.csv,1,300,110.0,Training at home,,,,,,,,,,,,,
12,13,2752,B,78.07516404097463,47.26058269165806,3.9037582020487314,0.7423674969424293,B,917.7251000073738,Correct,sub_012_day_13_data.csv,1,300,110.0,Training at home,,,,,,,,,,,,,
12,13,2753,A,58.163151753736045,78.81262780328734,2.908157587686802,1.2379858625845708,A,689.8962000268511,Correct,sub_012_day_13_data.csv,1,300,110.0,Training at home,,,,,,,,,,,,,
12,13,2754,B,73.39041233329573,44.39694148374983,3.6695206166647862,0.697385526036022,B,2044.7950000525452,Correct,sub_012_day_13_data.csv,1,300,110.0,Training at home,,,,,,,,,,,,,
12,13,2755,A,47.55426301154171,75.12761121066058,2.3777131505770854,1.1801017573058077,A,813.0901000113226,Correct,sub_012_day_13_data.csv,1,300,110.0,Training at home,,,,,,,,,,,,,
12,13,2756,A,42.53092465774927,67.81649400804612,2.1265462328874634,1.0652589968394697,A,636.1831999965943,Correct,sub_012_day_13_data.csv,1,300,110.0,Training at home,,,,,,,,,,,,,
12,13,2757,A,45.99204016056521,72.56819607181617,2.2996020080282604,1.139898558317407,A,618.7083999975584,Correct,sub_012_day_13_data.csv,1,300,110.0,Training at home,,,,,,,,,,,,,
12,13,2758,A,48.229229693551346,62.329678113213774,2.4114614846775675,0.9790722943054446,A,952.189100033138,Correct,sub_012_day_13_data.csv,1,300,110.0,Training at home,,,,,,,,,,,,,
12,13,2759,A,30.9212758676882,51.64967203926034,1.54606379338441,0.8113111511943122,A,909.1273000231012,Correct,sub_012_day_13_data.csv,1,300,110.0,Training at home,,,,,,,,,,,,,
12,13,2760,B,37.21607353779584,23.519971798144137,1.860803676889792,0.3694508530684436,B,1059.0907000005243,Correct,sub_012_day_13_data.csv,1,300,110.0,Training at home,,,,,,,,,,,,,
12,13,2761,B,38.62220921099647,26.614210801533535,1.9311104605498235,0.4180550456759394,B,1059.7898999694737,Correct,sub_012_day_13_data.csv,1,300,110.0,Training at home,,,,,,,,,,,,,
12,13,2762,B,49.093880888145634,34.01688153522364,2.454694044407282,0.5343359256454643,B,1201.539599976968,Correct,sub_012_day_13_data.csv,1,300,110.0,Training at home,,,,,,,,,,,,,
12,13,2763,B,73.38292343011675,42.82654067498767,3.6691461715058376,0.6727177278160286,B,823.5300999949686,Correct,sub_012_day_13_data.csv,1,300,110.0,Training at home,,,,,,,,,,,,,
12,13,2764,A,24.43771594803596,38.52744170631982,1.2218857974017978,0.6051876391309168,A,648.4153000055812,Correct,sub_012_day_13_data.csv,1,300,110.0,Training at home,,,,,,,,,,,,,
12,13,2765,A,61.92388872800096,84.93663249535761,3.096194436400048,1.334181503340358,A,655.9476000256836,Correct,sub_012_day_13_data.csv,1,300,110.0,Training at home,,,,,,,,,,,,,
12,13,2766,A,61.4402099224598,77.0271243241329,3.0720104961229904,1.209939239519218,A,991.2334000109696,Correct,sub_012_day_13_data.csv,1,300,110.0,Training at home,,,,,,,,,,,,,
12,13,2767,A,19.021719154413233,40.924244282538666,0.9510859577206616,0.6428365259586879,A,561.0827000346035,Correct,sub_012_day_13_data.csv,1,300,110.0,Training at home,,,,,,,,,,,,,
12,13,2768,A,49.269640285582994,79.87615518193986,2.46348201427915,1.2546917115829028,A,705.2224000217393,Correct,sub_012_day_13_data.csv,1,300,110.0,Training at home,,,,,,,,,,,,,
12,13,2769,A,22.122555696704342,39.981188914934414,1.1061277848352171,0.6280230468847182,A,479.49430003063753,Correct,sub_012_day_13_data.csv,1,300,110.0,Training at home,,,,,,,,,,,,,
12,13,2770,B,73.9993822838118,50.425697772525275,3.6999691141905897,0.792085008371523,B,884.0606000158004,Correct,sub_012_day_13_data.csv,1,300,110.0,Training at home,,,,,,,,,,,,,
12,13,2771,B,72.93277178279808,54.008264737297225,3.6466385891399047,0.8483598386591282,B,863.8663999736309,Correct,sub_012_day_13_data.csv,1,300,110.0,Training at home,,,,,,,,,,,,,
12,13,2772,A,38.03089537184139,59.85528552389768,1.9015447685920697,0.9402046264019822,A,651.5543999848887,Correct,sub_012_day_13_data.csv,1,300,110.0,Training at home,,,,,,,,,,,,,
12,13,2773,B,80.98693458351359,62.96394873952134,4.049346729175679,0.9890353940054228,B,959.0249999891968,Correct,sub_012_day_13_data.csv,1,300,110.0,Training at home,,,,,,,,,,,,,
12,13,2774,A,58.996757998571866,68.62085190645371,2.9498378999285935,1.0778938211619409,A,2233.6893000174314,Correct,sub_012_day_13_data.csv,1,300,110.0,Training at home,,,,,,,,,,,,,
12,13,2775,B,65.18149945824817,51.697364846749096,3.259074972912408,0.8120603080624907,B,926.8100000335836,Correct,sub_012_day_13_data.csv,1,300,111.0,Training at home,,,,,,,,,,,,,
12,13,2776,B,58.38825926086227,36.51205924168664,2.919412963043113,0.5735300854055904,B,845.5595000414178,Correct,sub_012_day_13_data.csv,1,300,111.0,Training at home,,,,,,,,,,,,,
12,13,2777,A,45.98082963230011,56.12746849020151,2.299041481615005,0.8816482133670482,A,838.9144000248052,Correct,sub_012_day_13_data.csv,1,300,111.0,Training at home,,,,,,,,,,,,,
12,13,2778,A,35.119372582401866,44.90212219394013,1.755968629120093,0.7053208860753676,A,930.8171999873592,Correct,sub_012_day_13_data.csv,1,300,111.0,Training at home,,,,,,,,,,,,,
12,13,2779,B,60.38782726211305,51.96384362517693,3.0193913631056524,0.8162461469257232,B,817.3307999968529,Correct,sub_012_day_13_data.csv,1,300,111.0,Training at home,,,,,,,,,,,,,
12,13,2780,B,63.87188281348471,34.46081462041286,3.1935941406742354,0.541309210241044,B,806.5977999940515,Correct,sub_012_day_13_data.csv,1,300,111.0,Training at home,,,,,,,,,,,,,
12,13,2781,A,64.70302724812917,76.72779476229744,3.2351513624064587,1.205237381756895,A,1051.5158000052909,Correct,sub_012_day_13_data.csv,1,300,111.0,Training at home,,,,,,,,,,,,,
12,13,2782,A,27.469873098352444,37.29614413773824,1.3734936549176222,0.5858464621517224,A,1133.699500001967,Correct,sub_012_day_13_data.csv,1,300,111.0,Training at home,,,,,,,,,,,,,
12,13,2783,A,47.3932392045414,79.09533746211079,2.36966196022707,1.242426655520864,A,549.6196000021882,Correct,sub_012_day_13_data.csv,1,300,111.0,Training at home,,,,,,,,,,,,,
12,13,2784,B,67.51215379931983,57.33430533854963,3.3756076899659915,0.9006051622513079,B,898.3154000015929,Correct,sub_012_day_13_data.csv,1,300,111.0,Training at home,,,,,,,,,,,,,
12,13,2785,B,41.01576410332103,17.096037994427913,2.0507882051660515,0.2685439368439336,B,898.3499999740161,Correct,sub_012_day_13_data.csv,1,300,111.0,Training at home,,,,,,,,,,,,,
12,13,2786,B,64.85578318437594,34.207825512409464,3.2427891592187965,0.5373352666253354,B,818.6698000063188,Correct,sub_012_day_13_data.csv,1,300,111.0,Training at home,,,,,,,,,,,,,
12,13,2787,A,47.08012407461512,68.20487966654659,2.3540062037307563,1.0713597444969931,A,748.0465999688022,Correct,sub_012_day_13_data.csv,1,300,111.0,Training at home,,,,,,,,,,,,,
12,13,2788,B,70.32974855744276,39.420389381963375,3.516487427872138,0.6192140284201261,B,861.0646999441087,Correct,sub_012_day_13_data.csv,1,300,111.0,Training at home,,,,,,,,,,,,,
12,13,2789,B,33.54187318008893,10.25366185791771,1.6770936590044463,0.1610641438261407,B,880.3548999712802,Correct,sub_012_day_13_data.csv,1,300,111.0,Training at home,,,,,,,,,,,,,
12,13,2790,A,58.871570952622506,84.0126526510452,2.943578547631126,1.3196676618855732,A,764.7734000347555,Correct,sub_012_day_13_data.csv,1,300,111.0,Training at home,,,,,,,,,,,,,
12,13,2791,A,61.54531546082477,84.89243384448069,3.0772657730412387,1.3334872325558902,A,515.2967000030912,Correct,sub_012_day_13_data.csv,1,300,111.0,Training at home,,,,,,,,,,,,,
12,13,2792,A,38.77728604142131,53.43369159447154,1.9388643020710656,0.8393344648368724,A,502.41660000756383,Correct,sub_012_day_13_data.csv,1,300,111.0,Training at home,,,,,,,,,,,,,
12,13,2793,B,40.53791276421505,27.21946232849452,2.0268956382107524,0.4275623144293126,B,991.89349997323,Correct,sub_012_day_13_data.csv,1,300,111.0,Training at home,,,,,,,,,,,,,
12,13,2794,B,63.94407046549418,30.757687236330295,3.197203523274709,0.4831406213153389,B,794.1771000041626,Correct,sub_012_day_13_data.csv,1,300,111.0,Training at home,,,,,,,,,,,,,
12,13,2795,B,65.83569449288603,45.462583360187814,3.2917847246443017,0.714124589487898,B,1241.0124000161886,Correct,sub_012_day_13_data.csv,1,300,111.0,Training at home,,,,,,,,,,,,,
12,13,2796,B,67.26956938921268,46.98443314406345,3.3634784694606337,0.7380297499923527,B,1115.5063000041991,Correct,sub_012_day_13_data.csv,1,300,111.0,Training at home,,,,,,,,,,,,,
12,13,2797,B,56.67593800446783,31.26838942002332,2.833796900223392,0.4911627124576503,B,570.3678999561816,Correct,sub_012_day_13_data.csv,1,300,111.0,Training at home,,,,,,,,,,,,,
12,13,2798,B,78.01541972513917,56.7293263983664,3.9007709862569584,0.891102175281027,B,765.8980999840423,Correct,sub_012_day_13_data.csv,1,300,111.0,Training at home,,,,,,,,,,,,,
12,13,2799,A,38.808378649733,53.10239262406467,1.94041893248665,0.8341304327790119,B,1466.4990999735892,Incorrect,sub_012_day_13_data.csv,0,300,111.0,Training at home,,,,,,,,,,,,,
12,13,2800,A,34.53701229632118,55.19932211799766,1.726850614816059,0.8670689242451901,A,926.6066999989562,Correct,sub_012_day_13_data.csv,1,300,112.0,Training at home,,,,,,,,,,,,,
12,13,2801,B,73.17271698418071,46.36089967383872,3.658635849209036,0.7282353091457257,B,465.2598000247963,Correct,sub_012_day_13_data.csv,1,300,112.0,Training at home,,,,,,,,,,,,,
12,13,2802,A,24.740028215746527,40.25150912576792,1.2370014107873262,0.6322692268270751,A,533.1295999931172,Correct,sub_012_day_13_data.csv,1,300,112.0,Training at home,,,,,,,,,,,,,
12,13,2803,A,42.28241194058765,63.77026227545665,2.1141205970293826,1.0017009374103447,A,862.5485999509692,Correct,sub_012_day_13_data.csv,1,300,112.0,Training at home,,,,,,,,,,,,,
12,13,2804,A,63.07095603151605,87.53072414017316,3.1535478015758027,1.3749293996108138,A,765.0072000105865,Correct,sub_012_day_13_data.csv,1,300,112.0,Training at home,,,,,,,,,,,,,
12,13,2805,A,28.489271759334287,54.348768062228984,1.4244635879667142,0.8537084523797707,A,471.227900008671,Correct,sub_012_day_13_data.csv,1,300,112.0,Training at home,,,,,,,,,,,,,
12,13,2806,B,46.56305841196525,35.59839601604428,2.3281529205982623,0.5591782970179243,B,2003.3000000403265,Correct,sub_012_day_13_data.csv,1,300,112.0,Training at home,,,,,,,,,,,,,
12,13,2807,A,59.92586039964986,73.66996862595705,2.9962930199824935,1.157205161127486,A,920.4597999923864,Correct,sub_012_day_13_data.csv,1,300,112.0,Training at home,,,,,,,,,,,,,
12,13,2808,A,50.366462781870865,58.33801926314353,2.518323139093543,0.9163714637103578,A,631.6248999792151,Correct,sub_012_day_13_data.csv,1,300,112.0,Training at home,,,,,,,,,,,,,
12,13,2809,A,34.36435004945845,62.764537668625294,1.7182175024729225,0.9859030522285652,A,652.2310999571346,Correct,sub_012_day_13_data.csv,1,300,112.0,Training at home,,,,,,,,,,,,,
12,13,2810,A,50.92302739533206,61.011424586744475,2.546151369766603,0.9583652163338208,B,571.0446999873966,Incorrect,sub_012_day_13_data.csv,0,300,112.0,Training at home,,,,,,,,,,,,,
12,13,2811,A,46.028140000191144,64.69806476094186,2.301407000009557,1.016274824772258,A,455.9525999939069,Correct,sub_012_day_13_data.csv,1,300,112.0,Training at home,,,,,,,,,,,,,
12,13,2812,A,46.250282316938346,68.36923164952225,2.3125141158469176,1.0739413794085892,A,490.28670002007857,Correct,sub_012_day_13_data.csv,1,300,112.0,Training at home,,,,,,,,,,,,,
12,13,2813,B,48.4659519319441,18.385899648014117,2.423297596597205,0.2888050363192015,B,549.7631000471301,Correct,sub_012_day_13_data.csv,1,300,112.0,Training at home,,,,,,,,,,,,,
12,13,2814,B,59.96317198228025,39.23399752620051,2.9981585991140127,0.6162861919963583,B,454.49790003476664,Correct,sub_012_day_13_data.csv,1,300,112.0,Training at home,,,,,,,,,,,,,
12,13,2815,B,43.476448105163485,19.089602573436014,2.173822405258174,0.299858776023277,B,465.20909998798743,Correct,sub_012_day_13_data.csv,1,300,112.0,Training at home,,,,,,,,,,,,,
12,13,2816,A,33.92942857753293,56.855613837284,1.6964714288766465,0.8930858937327479,A,755.9880999615416,Correct,sub_012_day_13_data.csv,1,300,112.0,Training at home,,,,,,,,,,,,,
12,13,2817,B,84.63712189005234,56.3198557688448,4.231856094502617,0.8846702256731978,B,436.48770003346726,Correct,sub_012_day_13_data.csv,1,300,112.0,Training at home,,,,,,,,,,,,,
12,13,2818,A,51.9067011498984,70.67402509913336,2.595335057494919,1.11014499025529,A,1034.3272000318393,Correct,sub_012_day_13_data.csv,1,300,112.0,Training at home,,,,,,,,,,,,,
12,13,2819,B,64.29591136354027,32.063211969087334,3.2147955681770135,0.5036477558628855,B,441.75599998561665,Correct,sub_012_day_13_data.csv,1,300,112.0,Training at home,,,,,,,,,,,,,
12,13,2820,A,32.413810381978294,42.60355847497358,1.6206905190989147,0.6692151316088009,A,617.1403999906033,Correct,sub_012_day_13_data.csv,1,300,112.0,Training at home,,,,,,,,,,,,,
12,13,2821,A,19.832265287899272,37.36489971955382,0.9916132643949636,0.5869264723053479,A,498.8489000243135,Correct,sub_012_day_13_data.csv,1,300,112.0,Training at home,,,,,,,,,,,,,
12,13,2822,B,58.659671055209294,40.560930145176464,2.932983552760465,0.6371296008342757,B,467.6249999902211,Correct,sub_012_day_13_data.csv,1,300,112.0,Training at home,,,,,,,,,,,,,
12,13,2823,A,53.738546960291266,83.89707532277652,2.6869273480145632,1.3178521774585212,A,477.60369995376095,Correct,sub_012_day_13_data.csv,1,300,112.0,Training at home,,,,,,,,,,,,,
12,13,2824,B,65.87933782204385,38.34349368377779,3.2939668911021927,0.6022981903496146,B,1049.3295000051148,Correct,sub_012_day_13_data.csv,1,300,112.0,Training at home,,,,,,,,,,,,,
12,13,2825,B,74.13238826420965,53.54117740780397,3.706619413210483,0.8410228480445237,B,451.9070000387728,Correct,sub_012_day_13_data.csv,1,300,113.0,Training at home,,,,,,,,,,,,,
12,13,2826,B,74.86979714444176,56.23225458114609,3.743489857222088,0.8832941894345977,B,875.5710999830626,Correct,sub_012_day_13_data.csv,1,300,113.0,Training at home,,,,,,,,,,,,,
12,13,2827,A,14.608927509342308,40.707989930122544,0.7304463754671154,0.6394396105344013,A,1744.3520999513566,Correct,sub_012_day_13_data.csv,1,300,113.0,Training at home,,,,,,,,,,,,,
12,13,2828,A,49.47486302843924,76.2596427856896,2.473743151421962,1.1978836677045217,A,542.1385000227019,Correct,sub_012_day_13_data.csv,1,300,113.0,Training at home,,,,,,,,,,,,,
12,13,2829,B,51.014071676361624,30.061746997466173,2.550703583818082,0.4722088176065737,B,488.79370000213385,Correct,sub_012_day_13_data.csv,1,300,113.0,Training at home,,,,,,,,,,,,,
12,13,2830,A,35.34232655584647,56.79217065462387,1.7671163277923234,0.8920893305499208,A,578.694399970118,Correct,sub_012_day_13_data.csv,1,300,113.0,Training at home,,,,,,,,,,,,,
12,13,2831,A,31.7873398479261,59.583057331438575,1.5893669923963047,0.9359284759543344,A,554.2914999532513,Correct,sub_012_day_13_data.csv,1,300,113.0,Training at home,,,,,,,,,,,,,
12,13,2832,A,63.31529636272677,75.83057790313276,3.1657648181363385,1.191143932289752,B,1149.2557000019588,Incorrect,sub_012_day_13_data.csv,0,300,113.0,Training at home,,,,,,,,,,,,,
12,13,2833,B,78.70254447929429,61.3996851743416,3.9351272239647144,0.9644639993821886,B,609.1486000223085,Correct,sub_012_day_13_data.csv,1,300,113.0,Training at home,,,,,,,,,,,,,
12,13,2834,A,17.678246426088755,45.676343830319986,0.8839123213044376,0.7174823311008737,A,467.73710002889857,Correct,sub_012_day_13_data.csv,1,300,113.0,Training at home,,,,,,,,,,,,,
12,13,2835,A,44.2369691379288,65.87405680946327,2.21184845689644,1.0347472646738325,A,779.2412000126205,Correct,sub_012_day_13_data.csv,1,300,113.0,Training at home,,,,,,,,,,,,,
12,13,2836,B,32.97576404453706,17.80708380550995,1.648788202226853,0.2797130183262392,B,505.02120004966855,Correct,sub_012_day_13_data.csv,1,300,113.0,Training at home,,,,,,,,,,,,,
12,13,2837,B,34.71097056249153,11.690835588634926,1.7355485281245766,0.1836392159979079,B,435.4737999965437,Correct,sub_012_day_13_data.csv,1,300,113.0,Training at home,,,,,,,,,,,,,
12,13,2838,A,25.966250305070737,45.8193519727232,1.2983125152535369,0.719728697748761,A,570.4010999761522,Correct,sub_012_day_13_data.csv,1,300,113.0,Training at home,,,,,,,,,,,,,
12,13,2839,A,42.63056114494224,65.15771878547226,2.1315280572471123,1.0234950533055465,A,634.451599966269,Correct,sub_012_day_13_data.csv,1,300,113.0,Training at home,,,,,,,,,,,,,
12,13,2840,B,78.37644586584663,62.296034703102535,3.9188222932923313,0.9785438248552086,B,463.7012999737635,Correct,sub_012_day_13_data.csv,1,300,113.0,Training at home,,,,,,,,,,,,,
12,13,2841,A,47.17880639426294,72.99668451898684,2.358940319713147,1.1466292391063042,A,549.1611000034027,Correct,sub_012_day_13_data.csv,1,300,113.0,Training at home,,,,,,,,,,,,,
12,13,2842,A,23.95743796230845,42.79822418421185,1.1978718981154224,0.6722729334190448,A,411.88620001776144,Correct,sub_012_day_13_data.csv,1,300,113.0,Training at home,,,,,,,,,,,,,
12,13,2843,A,42.71598398373549,66.64247882539689,2.135799199186774,1.0468176094744013,A,470.0093999854289,Correct,sub_012_day_13_data.csv,1,300,113.0,Training at home,,,,,,,,,,,,,
12,13,2844,A,46.0882378575959,54.04859146613211,2.304411892879795,0.8489932894343831,A,654.6049999888055,Correct,sub_012_day_13_data.csv,1,300,113.0,Training at home,,,,,,,,,,,,,
12,13,2845,A,42.78476589908222,51.585184905834055,2.139238294954111,0.8102981896711968,A,681.2944999546744,Correct,sub_012_day_13_data.csv,1,300,113.0,Training at home,,,,,,,,,,,,,
12,13,2846,A,15.883708470946864,32.129889371005916,0.7941854235473431,0.5046951220430249,A,548.1246000272222,Correct,sub_012_day_13_data.csv,1,300,113.0,Training at home,,,,,,,,,,,,,
12,13,2847,B,85.40328561149414,65.14329188520082,4.270164280574707,1.0232684360860125,B,598.9879000117071,Correct,sub_012_day_13_data.csv,1,300,113.0,Training at home,,,,,,,,,,,,,
12,13,2848,A,39.1482214949969,46.16214330728714,1.9574110747498452,0.7251132514406626,A,599.9360999558121,Correct,sub_012_day_13_data.csv,1,300,113.0,Training at home,,,,,,,,,,,,,
12,13,2849,A,45.621253315299526,70.68801193444992,2.2810626657649764,1.1103646949506774,B,1302.383599977475,Incorrect,sub_012_day_13_data.csv,0,300,113.0,Training at home,,,,,,,,,,,,,
12,13,2850,B,45.37444145064594,34.10349209845104,2.268722072532297,0.5356964011912568,B,600.167800032068,Correct,sub_012_day_13_data.csv,1,300,114.0,Training at home,,,,,,,,,,,,,
12,13,2851,B,43.99476529042683,23.257538600484015,2.1997382645213412,0.3653285620393081,B,447.2015000064858,Correct,sub_012_day_13_data.csv,1,300,114.0,Training at home,,,,,,,,,,,,,
12,13,2852,A,34.42259124262462,57.87249567005489,1.7211295621312308,0.9090590362097576,A,565.2059999993071,Correct,sub_012_day_13_data.csv,1,300,114.0,Training at home,,,,,,,,,,,,,
12,13,2853,B,76.51486325637852,50.929525769856,3.825743162818926,0.7999991200469583,B,564.1287999460474,Correct,sub_012_day_13_data.csv,1,300,114.0,Training at home,,,,,,,,,,,,,
12,13,2854,A,37.3925757564576,46.282745517301095,1.86962878782288,0.7270076665255952,B,570.022500003688,Incorrect,sub_012_day_13_data.csv,0,300,114.0,Training at home,,,,,,,,,,,,,
12,13,2855,A,31.672756176400956,40.389224994968906,1.5836378088200478,0.6344324626418978,A,614.2032000352629,Correct,sub_012_day_13_data.csv,1,300,114.0,Training at home,,,,,,,,,,,,,
12,13,2856,B,44.82998824219561,30.546096552257367,2.2414994121097807,0.4798169626220812,B,1540.3984999866225,Correct,sub_012_day_13_data.csv,1,300,114.0,Training at home,,,,,,,,,,,,,
12,13,2857,B,40.61315178360162,15.435812422555228,2.030657589180081,0.2424651745444478,B,586.6050000186078,Correct,sub_012_day_13_data.csv,1,300,114.0,Training at home,,,,,,,,,,,,,
12,13,2858,B,59.701546139950075,48.31563258010781,2.985077306997504,0.7589401818360517,B,454.6371000469662,Correct,sub_012_day_13_data.csv,1,300,114.0,Training at home,,,,,,,,,,,,,
12,13,2859,B,79.28267181390055,52.50491879781946,3.964133590695027,0.8247453358627911,B,502.5861999602057,Correct,sub_012_day_13_data.csv,1,300,114.0,Training at home,,,,,,,,,,,,,
12,13,2860,A,28.83585526207179,41.72987767186132,1.4417927631035894,0.6554913856456014,A,496.9416999956593,Correct,sub_012_day_13_data.csv,1,300,114.0,Training at home,,,,,,,,,,,,,
12,13,2861,A,36.699649392230874,44.376155700598574,1.8349824696115435,0.6970590237177865,A,461.5922999801114,Correct,sub_012_day_13_data.csv,1,300,114.0,Training at home,,,,,,,,,,,,,
12,13,2862,B,42.84506695392912,29.41203225980388,2.142253347696456,0.4620031223727294,B,609.1037000296637,Correct,sub_012_day_13_data.csv,1,300,114.0,Training at home,,,,,,,,,,,,,
12,13,2863,A,47.83611034154117,79.65779467437349,2.3918055170770587,1.2512617127508794,A,620.8424000069499,Correct,sub_012_day_13_data.csv,1,300,114.0,Training at home,,,,,,,,,,,,,
12,13,2864,B,69.78626011437008,38.40543740034269,3.489313005718504,0.6032711999740964,B,894.2326999967918,Correct,sub_012_day_13_data.csv,1,300,114.0,Training at home,,,,,,,,,,,,,
12,13,2865,A,30.169362651779835,53.747841346506725,1.5084681325889917,0.8442691176024764,A,1421.2229999830015,Correct,sub_012_day_13_data.csv,1,300,114.0,Training at home,,,,,,,,,,,,,
12,13,2866,B,55.07287126015679,30.047660800954667,2.7536435630078393,0.4719875521491858,B,1320.462400035467,Correct,sub_012_day_13_data.csv,1,300,114.0,Training at home,,,,,,,,,,,,,
12,13,2867,B,83.60755384648263,58.01934671926061,4.180377692324131,0.9113657670965408,B,1288.6822000145912,Correct,sub_012_day_13_data.csv,1,300,114.0,Training at home,,,,,,,,,,,,,
12,13,2868,A,27.266129695901785,50.40531040753715,1.363306484795089,0.7917647643911592,A,1541.9621000182815,Correct,sub_012_day_13_data.csv,1,300,114.0,Training at home,,,,,,,,,,,,,
12,13,2869,B,49.0942133743867,35.699771401806274,2.454710668719335,0.5607706978537479,B,3143.5098000220023,Correct,sub_012_day_13_data.csv,1,300,114.0,Training at home,,,,,,,,,,,,,
12,13,2870,B,65.62537669442226,34.77490038690507,3.2812688347211125,0.5462428579240891,B,917.2380000236444,Correct,sub_012_day_13_data.csv,1,300,114.0,Training at home,,,,,,,,,,,,,
12,13,2871,B,54.23062191384433,33.90149448997192,2.7115310956922167,0.5325234301770531,B,892.5316000240855,Correct,sub_012_day_13_data.csv,1,300,114.0,Training at home,,,,,,,,,,,,,
12,13,2872,B,31.618048206647245,17.395436212925183,1.5809024103323623,0.273246873062578,B,761.0634000157006,Correct,sub_012_day_13_data.csv,1,300,114.0,Training at home,,,,,,,,,,,,,
12,13,2873,A,50.22815640917218,73.74862256172077,2.511407820458609,1.158440654261342,A,527.327999996487,Correct,sub_012_day_13_data.csv,1,300,114.0,Training at home,,,,,,,,,,,,,
12,13,2874,B,80.36762271808165,57.37401886517368,4.018381135904082,0.9012289808687592,B,1981.4588999724947,Correct,sub_012_day_13_data.csv,1,300,114.0,Training at home,,,,,,,,,,,,,
12,13,2875,B,42.745935852640834,18.065139605609534,2.1372967926320414,0.2837665493552847,B,940.4940999811516,Correct,sub_012_day_13_data.csv,1,300,115.0,Training at home,,,,,,,,,,,,,
12,13,2876,B,58.22975704772395,30.940319830121844,2.911487852386198,0.4860094073901469,B,989.7556000505574,Correct,sub_012_day_13_data.csv,1,300,115.0,Training at home,,,,,,,,,,,,,
12,13,2877,B,45.91010687612871,31.283970415517167,2.2955053438064352,0.4914074581625458,B,748.3091999893077,Correct,sub_012_day_13_data.csv,1,300,115.0,Training at home,,,,,,,,,,,,,
12,13,2878,B,66.06958699304009,40.0091936347203,3.3034793496520045,0.628462943994444,B,767.6338999881409,Correct,sub_012_day_13_data.csv,1,300,115.0,Training at home,,,,,,,,,,,,,
12,13,2879,A,27.261710782586587,41.00723562798386,1.3630855391293293,0.6441401509644986,A,548.6337000038475,Correct,sub_012_day_13_data.csv,1,300,115.0,Training at home,,,,,,,,,,,,,
12,13,2880,A,27.335583631028953,56.73862635561726,1.3667791815514476,0.891248258667917,A,498.84899996686727,Correct,sub_012_day_13_data.csv,1,300,115.0,Training at home,,,,,,,,,,,,,
12,13,2881,A,59.33046953671938,80.00878321184697,2.9665234768359685,1.256775027804984,A,626.4571000356227,Correct,sub_012_day_13_data.csv,1,300,115.0,Training at home,,,,,,,,,,,,,
12,13,2882,B,68.70184693255382,45.19720534216455,3.4350923466276915,0.7099560413286675,B,1190.5637999880128,Correct,sub_012_day_13_data.csv,1,300,115.0,Training at home,,,,,,,,,,,,,
12,13,2883,B,42.56299464238033,21.451838734897745,2.1281497321190166,0.3369646948777386,B,835.9413000289351,Correct,sub_012_day_13_data.csv,1,300,115.0,Training at home,,,,,,,,,,,,,
12,13,2884,A,18.979998910857713,37.471133151381466,0.9489999455428856,0.5885951831503249,A,1739.9146999814548,Correct,sub_012_day_13_data.csv,1,300,115.0,Training at home,,,,,,,,,,,,,
12,13,2885,B,69.16394491264826,43.73909880594562,3.4581972456324133,0.6870521574169843,B,928.8235999993047,Correct,sub_012_day_13_data.csv,1,300,115.0,Training at home,,,,,,,,,,,,,
12,13,2886,B,51.36685082390362,25.96647808037163,2.568342541195181,0.4078804838844794,B,578.0109000043012,Correct,sub_012_day_13_data.csv,1,300,115.0,Training at home,,,,,,,,,,,,,
12,13,2887,B,65.66270101790963,38.64150677313327,3.2831350508954813,0.6069793690105786,B,495.5813999986276,Correct,sub_012_day_13_data.csv,1,300,115.0,Training at home,,,,,,,,,,,,,
12,13,2888,B,54.53249103448778,24.17704722847125,2.726624551724389,0.3797721697922936,B,409.9090000381693,Correct,sub_012_day_13_data.csv,1,300,115.0,Training at home,,,,,,,,,,,,,
12,13,2889,A,65.81971160444948,89.60191081731872,3.290985580222474,1.4074635238564817,A,521.1777000222355,Correct,sub_012_day_13_data.csv,1,300,115.0,Training at home,,,,,,,,,,,,,
12,13,2890,B,75.4898012591597,52.775680707429345,3.7744900629579856,0.8289984539933031,B,515.3464999748394,Correct,sub_012_day_13_data.csv,1,300,115.0,Training at home,,,,,,,,,,,,,
12,13,2891,A,47.80535297031054,76.03038582664362,2.3902676485155268,1.1942825078129056,A,567.3814000329003,Correct,sub_012_day_13_data.csv,1,300,115.0,Training at home,,,,,,,,,,,,,
12,13,2892,B,59.49349274871024,31.676843068035076,2.974674637435512,0.4975786873572788,B,1037.656100001186,Correct,sub_012_day_13_data.csv,1,300,115.0,Training at home,,,,,,,,,,,,,
12,13,2893,A,69.71579605195456,86.01973396671559,3.485789802597728,1.3511948214679104,A,1214.7574999835342,Correct,sub_012_day_13_data.csv,1,300,115.0,Training at home,,,,,,,,,,,,,
12,13,2894,B,52.72417109801599,38.98194231194615,2.636208554900799,0.6123269179493557,B,1219.2513000336476,Correct,sub_012_day_13_data.csv,1,300,115.0,Training at home,,,,,,,,,,,,,
12,13,2895,B,43.993585755996406,32.331182953717196,2.19967928779982,0.5078570342463274,B,2358.1567999790423,Correct,sub_012_day_13_data.csv,1,300,115.0,Training at home,,,,,,,,,,,,,
12,13,2896,A,28.254098478153445,49.436687402453266,1.4127049239076723,0.7765496698068113,A,782.4188999948092,Correct,sub_012_day_13_data.csv,1,300,115.0,Training at home,,,,,,,,,,,,,
12,13,2897,A,34.43694192006083,43.625906015293424,1.7218470960030416,0.6852741292192229,A,1113.6520000291057,Correct,sub_012_day_13_data.csv,1,300,115.0,Training at home,,,,,,,,,,,,,
12,13,2898,A,65.1536347199061,88.76743799536996,3.257681735995305,1.3943556554212089,A,707.4080999591388,Correct,sub_012_day_13_data.csv,1,300,115.0,Training at home,,,,,,,,,,,,,
12,13,2899,A,18.318227905464767,48.12196546662282,0.9159113952732384,0.7558980659312198,A,843.5670000035316,Correct,sub_012_day_13_data.csv,1,300,115.0,Training at home,,,,,,,,,,,,,
12,13,2900,B,76.2509116077529,61.02733987129848,3.8125455803876447,0.958615213038994,B,1145.946400007233,Correct,sub_012_day_13_data.csv,1,300,116.0,Training at home,,,,,,,,,,,,,
12,13,2901,B,88.55792930965887,64.1909436062106,4.427896465482944,1.0083089843013395,B,953.5787000204436,Correct,sub_012_day_13_data.csv,1,300,116.0,Training at home,,,,,,,,,,,,,
12,13,2902,A,64.40249775919337,88.49009967952313,3.220124887959668,1.3899992353430917,A,596.3202000129968,Correct,sub_012_day_13_data.csv,1,300,116.0,Training at home,,,,,,,,,,,,,
12,13,2903,B,39.26814992807629,12.794032242551673,1.9634074964038144,0.2009681885149564,B,670.0833999784663,Correct,sub_012_day_13_data.csv,1,300,116.0,Training at home,,,,,,,,,,,,,
12,13,2904,A,20.464391495725017,46.40301329512528,1.0232195747862507,0.7288968283619753,A,469.0475999959745,Correct,sub_012_day_13_data.csv,1,300,116.0,Training at home,,,,,,,,,,,,,
12,13,2905,B,52.898722879030906,35.244603454413635,2.6449361439515453,0.5536209364553566,B,494.4639999885112,Correct,sub_012_day_13_data.csv,1,300,116.0,Training at home,,,,,,,,,,,,,
12,13,2906,A,23.92680704789012,53.80229550485426,1.1963403523945062,0.8451244815215863,A,549.7433000127785,Correct,sub_012_day_13_data.csv,1,300,116.0,Training at home,,,,,,,,,,,,,
12,13,2907,B,69.69666938789749,56.69575947695678,3.484833469394874,0.8905749073125065,B,459.087900002487,Correct,sub_012_day_13_data.csv,1,300,116.0,Training at home,,,,,,,,,,,,,
12,13,2908,B,59.8894398773955,45.90252783807427,2.994471993869775,0.7210352211864756,B,486.6749999928288,Correct,sub_012_day_13_data.csv,1,300,116.0,Training at home,,,,,,,,,,,,,
12,13,2909,B,43.3334926759528,23.28171614673909,2.16667463379764,0.3657083420477919,B,493.88640001416206,Correct,sub_012_day_13_data.csv,1,300,116.0,Training at home,,,,,,,,,,,,,
12,13,2910,B,45.309563221922616,17.515250427755202,2.265478161096131,0.2751289103481061,B,524.3969000293873,Correct,sub_012_day_13_data.csv,1,300,116.0,Training at home,,,,,,,,,,,,,
12,13,2911,B,40.54191197135739,15.506372624228993,2.0270955985678696,0.2435735316005183,B,459.4916999922134,Correct,sub_012_day_13_data.csv,1,300,116.0,Training at home,,,,,,,,,,,,,
12,13,2912,B,59.66628065326909,37.51008782945355,2.983314032663454,0.589207081802596,B,499.87289996352047,Correct,sub_012_day_13_data.csv,1,300,116.0,Training at home,,,,,,,,,,,,,
12,13,2913,B,56.96263003142119,27.383360946595403,2.8481315015710593,0.4301368279021088,B,456.1432000482455,Correct,sub_012_day_13_data.csv,1,300,116.0,Training at home,,,,,,,,,,,,,
12,13,2914,A,25.843620348030207,57.18240476929233,1.2921810174015105,0.8982191136890337,A,445.6560999969952,Correct,sub_012_day_13_data.csv,1,300,116.0,Training at home,,,,,,,,,,,,,
12,13,2915,B,77.8441296497987,64.47470975633524,3.892206482489935,1.012766372564185,B,515.7925999956205,Correct,sub_012_day_13_data.csv,1,300,116.0,Training at home,,,,,,,,,,,,,
12,13,2916,A,33.504235338704135,49.81384496891797,1.675211766935207,0.7824740470070678,A,566.9585000141524,Correct,sub_012_day_13_data.csv,1,300,116.0,Training at home,,,,,,,,,,,,,
12,13,2917,A,60.45262365542468,81.94608286629699,3.0226311827712338,1.287206059616095,A,652.9612999875098,Correct,sub_012_day_13_data.csv,1,300,116.0,Training at home,,,,,,,,,,,,,
12,13,2918,B,48.11329004728385,36.6144169157959,2.4056645023641923,0.5751379159906912,B,467.7280999603681,Correct,sub_012_day_13_data.csv,1,300,116.0,Training at home,,,,,,,,,,,,,
12,13,2919,B,85.77623033997436,58.052059830896,4.2888115169987175,0.91187962345249,B,745.4678000067361,Correct,sub_012_day_13_data.csv,1,300,116.0,Training at home,,,,,,,,,,,,,
12,13,2920,A,14.484778984345231,32.559546585256015,0.7242389492172617,0.5114441617822747,A,515.3716999921016,Correct,sub_012_day_13_data.csv,1,300,116.0,Training at home,,,,,,,,,,,,,
12,13,2921,B,56.26759482861617,35.75890447597252,2.813379741430808,0.5616995580106722,B,1220.4658000264317,Correct,sub_012_day_13_data.csv,1,300,116.0,Training at home,,,,,,,,,,,,,
12,13,2922,A,30.706548835623465,61.61954504155675,1.5353274417811733,0.9679175501005002,A,869.9044999666512,Correct,sub_012_day_13_data.csv,1,300,116.0,Training at home,,,,,,,,,,,,,
12,13,2923,B,80.62204607259629,52.11065158815499,4.031102303629814,0.818552201015625,B,860.3732000337914,Correct,sub_012_day_13_data.csv,1,300,116.0,Training at home,,,,,,,,,,,,,
12,13,2924,B,52.824210197695265,25.783052897515844,2.6412105098847634,0.404999247849764,B,1950.1727999886496,Correct,sub_012_day_13_data.csv,1,300,116.0,Training at home,,,,,,,,,,,,,
12,13,2925,A,19.36005053794427,33.84500904469509,0.9680025268972136,0.5316361588774708,A,896.4052000083029,Correct,sub_012_day_13_data.csv,1,300,117.0,Training at home,,,,,,,,,,,,,
12,13,2926,A,57.47680823300264,78.51497563382495,2.8738404116501317,1.2333103532400302,A,756.8098000483587,Correct,sub_012_day_13_data.csv,1,300,117.0,Training at home,,,,,,,,,,,,,
12,13,2927,B,48.54772598289309,23.6835128633684,2.427386299144654,0.3720197501137876,B,904.5022999634966,Correct,sub_012_day_13_data.csv,1,300,117.0,Training at home,,,,,,,,,,,,,
12,13,2928,B,80.7084962197685,58.511722008860914,4.035424810988426,0.9190999800596285,B,1099.5304999523796,Correct,sub_012_day_13_data.csv,1,300,117.0,Training at home,,,,,,,,,,,,,
12,13,2929,A,57.33145224916764,72.26901221942296,2.866572612458382,1.1351989893536507,A,922.1579000004568,Correct,sub_012_day_13_data.csv,1,300,117.0,Training at home,,,,,,,,,,,,,
12,13,2930,B,78.08978038503916,54.98244293056621,3.904489019251958,0.8636621939354343,B,1034.2437999788672,Correct,sub_012_day_13_data.csv,1,300,117.0,Training at home,,,,,,,,,,,,,
12,13,2931,B,74.92984621623192,64.56693748447697,3.746492310811596,1.0142150823301217,B,1112.7708000130951,Correct,sub_012_day_13_data.csv,1,300,117.0,Training at home,,,,,,,,,,,,,
12,13,2932,B,51.774691421589885,20.92083125461407,2.5887345710794945,0.3286236488824364,B,1005.1891999901272,Correct,sub_012_day_13_data.csv,1,300,117.0,Training at home,,,,,,,,,,,,,
12,13,2933,B,60.8776869261246,29.910301906753425,3.04388434630623,0.4698299236845467,B,984.8647999460808,Correct,sub_012_day_13_data.csv,1,300,117.0,Training at home,,,,,,,,,,,,,
12,13,2934,B,34.99904403380666,18.42841689341769,1.749952201690333,0.2894728956482553,B,803.370600042399,Correct,sub_012_day_13_data.csv,1,300,117.0,Training at home,,,,,,,,,,,,,
12,13,2935,A,18.438677268915832,33.91107408427464,0.9219338634457916,0.5326739060924821,A,697.4051999859512,Correct,sub_012_day_13_data.csv,1,300,117.0,Training at home,,,,,,,,,,,,,
12,13,2936,B,79.28713430691377,51.03624829864626,3.964356715345689,0.8016755136090582,B,737.905599991791,Correct,sub_012_day_13_data.csv,1,300,117.0,Training at home,,,,,,,,,,,,,
12,13,2937,B,60.6524786301917,30.388107157729465,3.032623931509585,0.4773352710161114,B,773.2956999680027,Correct,sub_012_day_13_data.csv,1,300,117.0,Training at home,,,,,,,,,,,,,
12,13,2938,A,43.91695734067062,59.40400746158316,2.195847867033531,0.9331159671755144,A,1430.3828999982215,Correct,sub_012_day_13_data.csv,1,300,117.0,Training at home,,,,,,,,,,,,,
12,13,2939,A,30.568100213937043,55.876412903963626,1.528405010696852,0.8777046414402103,A,701.6758000245318,Correct,sub_012_day_13_data.csv,1,300,117.0,Training at home,,,,,,,,,,,,,
12,13,2940,B,63.53884243719381,55.16433397081866,3.1769421218596903,0.8665193317144889,B,725.2589999698102,Correct,sub_012_day_13_data.csv,1,300,117.0,Training at home,,,,,,,,,,,,,
12,13,2941,A,40.90805765747085,58.236808322116865,2.0454028828735424,0.9147816459663964,A,923.7492000102066,Correct,sub_012_day_13_data.csv,1,300,117.0,Training at home,,,,,,,,,,,,,
12,13,2942,B,48.190998117397314,28.620281648824935,2.409549905869866,0.4495663328580959,B,868.2399999815971,Correct,sub_012_day_13_data.csv,1,300,117.0,Training at home,,,,,,,,,,,,,
12,13,2943,B,55.01936538661139,40.786685935581,2.7509682693305693,0.640675764497477,B,814.7086999961175,Correct,sub_012_day_13_data.csv,1,300,117.0,Training at home,,,,,,,,,,,,,
12,13,2944,A,62.009536069913715,74.95245496496686,3.1004768034956856,1.1773504094322984,A,1033.033500018064,Correct,sub_012_day_13_data.csv,1,300,117.0,Training at home,,,,,,,,,,,,,
12,13,2945,B,36.98944819799976,16.832518732237585,1.849472409899988,0.2644045859530509,B,2939.563399995677,Correct,sub_012_day_13_data.csv,1,300,117.0,Training at home,,,,,,,,,,,,,
12,13,2946,A,27.629551764845083,53.913418009797994,1.381477588242254,0.8468699897474852,A,2193.6887999763712,Correct,sub_012_day_13_data.csv,1,300,117.0,Training at home,,,,,,,,,,,,,
12,13,2947,B,30.90279477070057,13.182184279305826,1.5451397385350285,0.2070652664506702,B,1855.078299995512,Correct,sub_012_day_13_data.csv,1,300,117.0,Training at home,,,,,,,,,,,,,
12,13,2948,A,29.221395066431235,40.83639634854272,1.4610697533215615,0.6414566138383143,B,6345.460699987598,Incorrect,sub_012_day_13_data.csv,0,300,117.0,Training at home,,,,,,,,,,,,,
12,13,2949,B,68.52303556201441,58.408283990791425,3.4261517781007207,0.9174751794712832,B,1894.476899993606,Correct,sub_012_day_13_data.csv,1,300,117.0,Training at home,,,,,,,,,,,,,
12,13,2950,A,41.533883618839184,67.07571397926058,2.076694180941959,1.0536228513576762,A,2417.0107000391,Correct,sub_012_day_13_data.csv,1,300,118.0,Training at home,,,,,,,,,,,,,
12,13,2951,A,58.25303391908915,72.84735383474415,2.9126516959544575,1.1442835582034423,A,1372.2770999884233,Correct,sub_012_day_13_data.csv,1,300,118.0,Training at home,,,,,,,,,,,,,
12,13,2952,A,47.36531361088539,66.33870383592708,2.3682656805442694,1.0420459230980876,A,1478.1869999715127,Correct,sub_012_day_13_data.csv,1,300,118.0,Training at home,,,,,,,,,,,,,
12,13,2953,A,52.59900729883805,78.6681311206587,2.629950364941903,1.2357161140014998,A,2000.793999992311,Correct,sub_012_day_13_data.csv,1,300,118.0,Training at home,,,,,,,,,,,,,
12,13,2954,B,40.235889211277275,22.26659720568856,2.011794460563864,0.3497628910091709,B,1131.9463000399992,Correct,sub_012_day_13_data.csv,1,300,118.0,Training at home,,,,,,,,,,,,,
12,13,2955,B,65.93809893262748,48.108892633420965,3.2969049466313742,0.7556927183474771,B,2077.2701000096276,Correct,sub_012_day_13_data.csv,1,300,118.0,Training at home,,,,,,,,,,,,,
12,13,2956,A,28.447087679997487,38.81799641723697,1.4223543839998742,0.6097516618573329,A,3479.172000021208,Correct,sub_012_day_13_data.csv,1,300,118.0,Training at home,,,,,,,,,,,,,
12,13,2957,B,52.12784199033979,27.34799963682149,2.60639209951699,0.4295813737470736,B,1447.5336000323296,Correct,sub_012_day_13_data.csv,1,300,118.0,Training at home,,,,,,,,,,,,,
12,13,2958,A,21.566148076233738,39.56521577684467,1.0783074038116869,0.621488956111151,A,1742.4628000007942,Correct,sub_012_day_13_data.csv,1,300,118.0,Training at home,,,,,,,,,,,,,
12,13,2959,B,51.48234092675856,42.52149174018325,2.574117046337928,0.6679260303531938,B,2899.727099982556,Correct,sub_012_day_13_data.csv,1,300,118.0,Training at home,,,,,,,,,,,,,
12,13,2960,B,42.80885102482255,18.26539195938038,2.1404425512411276,0.2869121059726374,B,2436.95740000112,Correct,sub_012_day_13_data.csv,1,300,118.0,Training at home,,,,,,,,,,,,,
12,13,2961,A,58.59451066646918,67.31799972896572,2.929725533323459,1.0574286670143918,A,1313.2110000005923,Correct,sub_012_day_13_data.csv,1,300,118.0,Training at home,,,,,,,,,,,,,
12,13,2962,A,31.164131805426788,44.310585542179574,1.5582065902713391,0.6960290500778673,A,2169.3581999861635,Correct,sub_012_day_13_data.csv,1,300,118.0,Training at home,,,,,,,,,,,,,
12,13,2963,A,18.46539472429596,34.84934013435411,0.923269736214798,0.547412154742694,A,1079.348500003107,Correct,sub_012_day_13_data.csv,1,300,118.0,Training at home,,,,,,,,,,,,,
12,13,2964,B,47.307986988050445,39.349449387682704,2.3653993494025225,0.6180997055957368,B,3489.0092000132427,Correct,sub_012_day_13_data.csv,1,300,118.0,Training at home,,,,,,,,,,,,,
12,13,2965,A,28.16405953409261,38.23905016548986,1.4082029767046305,0.6006575954007726,A,2583.431799954269,Correct,sub_012_day_13_data.csv,1,300,118.0,Training at home,,,,,,,,,,,,,
12,13,2966,A,20.826893579199105,36.56252018722097,1.0413446789599552,0.5743227240845096,A,4233.766300021671,Correct,sub_012_day_13_data.csv,1,300,118.0,Training at home,,,,,,,,,,,,,
12,13,2967,B,76.0243899102389,56.270366953491134,3.801219495511945,0.8838928571794481,B,1522.7979000192136,Correct,sub_012_day_13_data.csv,1,300,118.0,Training at home,,,,,,,,,,,,,
12,13,2968,A,41.61343370037071,61.16392952701251,2.0806716850185354,0.9607607583337318,A,1687.4438999802803,Correct,sub_012_day_13_data.csv,1,300,118.0,Training at home,,,,,,,,,,,,,
12,13,2969,A,62.442910286447926,75.01691680739975,3.1221455143223964,1.1783629736854189,A,3576.593400037382,Correct,sub_012_day_13_data.csv,1,300,118.0,Training at home,,,,,,,,,,,,,
12,13,2970,A,29.61105754630875,59.91657391824467,1.4805528773154375,0.9411673422491365,A,2456.1580999870785,Correct,sub_012_day_13_data.csv,1,300,118.0,Training at home,,,,,,,,,,,,,
12,13,2971,B,62.90463603015573,33.93828675296538,3.1452318015077867,0.5331013616926992,B,1581.4154999679886,Correct,sub_012_day_13_data.csv,1,300,118.0,Training at home,,,,,,,,,,,,,
12,13,2972,B,35.03110006733826,11.782070209136336,1.751555003366913,0.1850723260655093,B,1177.150800009258,Correct,sub_012_day_13_data.csv,1,300,118.0,Training at home,,,,,,,,,,,,,
12,13,2973,B,79.93031359439742,62.40284541727207,3.996515679719871,0.9802216036300072,B,1377.9291999526322,Correct,sub_012_day_13_data.csv,1,300,118.0,Training at home,,,,,,,,,,,,,
12,13,2974,A,56.653807743864334,81.0337614361014,2.8326903871932165,1.2728753481020203,A,3329.800700012129,Correct,sub_012_day_13_data.csv,1,300,118.0,Training at home,,,,,,,,,,,,,
12,13,2975,A,33.084248931847135,48.191865870997674,1.6542124465923569,0.7569960589155549,A,1169.3113999790512,Correct,sub_012_day_13_data.csv,1,300,119.0,Training at home,,,,,,,,,,,,,
12,13,2976,B,45.37880443181417,28.681927020250814,2.268940221590708,0.4505346560880928,B,1281.2634000438266,Correct,sub_012_day_13_data.csv,1,300,119.0,Training at home,,,,,,,,,,,,,
12,13,2977,B,78.85703753485512,51.70642777703741,3.942851876742756,0.8122026682385598,B,3158.5663000005297,Correct,sub_012_day_13_data.csv,1,300,119.0,Training at home,,,,,,,,,,,,,
12,13,2978,A,49.05591386968206,56.69257577205745,2.452795693484103,0.890524897792892,A,1649.697399989236,Correct,sub_012_day_13_data.csv,1,300,119.0,Training at home,,,,,,,,,,,,,
12,13,2979,A,62.2550557233165,81.33714141376649,3.1127527861658253,1.2776408296474144,A,1383.7087999563664,Correct,sub_012_day_13_data.csv,1,300,119.0,Training at home,,,,,,,,,,,,,
12,13,2980,A,34.133811493645354,42.41574915060587,1.7066905746822676,0.6662650296402546,A,2358.4050000063144,Correct,sub_012_day_13_data.csv,1,300,119.0,Training at home,,,,,,,,,,,,,
12,13,2981,B,66.06493204804282,38.000131196533424,3.3032466024021407,0.5969046650123886,B,1334.3005999922752,Correct,sub_012_day_13_data.csv,1,300,119.0,Training at home,,,,,,,,,,,,,
12,13,2982,A,40.29691217363735,59.07948597534816,2.0148456086818674,0.928018395590075,A,1597.1637000329792,Correct,sub_012_day_13_data.csv,1,300,119.0,Training at home,,,,,,,,,,,,,
12,13,2983,A,47.004377937793834,75.94921803618203,2.350218896889692,1.1930075271417944,A,1056.2637000111863,Correct,sub_012_day_13_data.csv,1,300,119.0,Training at home,,,,,,,,,,,,,
12,13,2984,A,52.95297733674305,77.64672427979444,2.6476488668371525,1.219671892863572,A,1457.4859999702312,Correct,sub_012_day_13_data.csv,1,300,119.0,Training at home,,,,,,,,,,,,,
12,13,2985,B,54.22869100803393,38.00480541195972,2.7114345504016963,0.5969780874166114,B,2608.2017000298947,Correct,sub_012_day_13_data.csv,1,300,119.0,Training at home,,,,,,,,,,,,,
12,13,2986,B,86.89542658303763,69.1052781275214,4.3447713291518815,1.0855031704485034,B,857.7973000355996,Correct,sub_012_day_13_data.csv,1,300,119.0,Training at home,,,,,,,,,,,,,
12,13,2987,A,32.58489141941457,53.31575365047965,1.6292445709707284,0.8374818999447503,A,992.5244000041856,Correct,sub_012_day_13_data.csv,1,300,119.0,Training at home,,,,,,,,,,,,,
12,13,2988,B,33.061203076917074,21.25425798603801,1.6530601538458538,0.3338611037321959,B,1415.670099959243,Correct,sub_012_day_13_data.csv,1,300,119.0,Training at home,,,,,,,,,,,,,
12,13,2989,A,30.95630081684599,56.318304115551264,1.5478150408422993,0.8846458523602583,A,1906.4815000165256,Correct,sub_012_day_13_data.csv,1,300,119.0,Training at home,,,,,,,,,,,,,
12,13,2990,A,42.56492065601965,67.65741528405026,2.1282460328009822,1.0627601940862303,A,1316.9436000171115,Correct,sub_012_day_13_data.csv,1,300,119.0,Training at home,,,,,,,,,,,,,
12,13,2991,B,78.87675093778802,62.16908807461773,3.9438375468894007,0.9765497518779794,B,1460.6217999826183,Correct,sub_012_day_13_data.csv,1,300,119.0,Training at home,,,,,,,,,,,,,
12,13,2992,A,11.413122076870575,31.504274902173204,0.5706561038435288,0.4948679929467032,A,963.1223999895157,Correct,sub_012_day_13_data.csv,1,300,119.0,Training at home,,,,,,,,,,,,,
12,13,2993,A,27.116608717258263,51.94432070863435,1.3558304358629132,0.8159394816697891,A,3243.379400053527,Correct,sub_012_day_13_data.csv,1,300,119.0,Training at home,,,,,,,,,,,,,
12,13,2994,B,46.30788133476013,26.826383626938387,2.315394066738006,0.4213878486238557,B,1289.4041999825276,Correct,sub_012_day_13_data.csv,1,300,119.0,Training at home,,,,,,,,,,,,,
12,13,2995,A,36.78017096805531,51.8614880733291,1.8390085484027656,0.814638349677027,A,1928.1654999940656,Correct,sub_012_day_13_data.csv,1,300,119.0,Training at home,,,,,,,,,,,,,
12,13,2996,A,35.28546549800285,50.28944381774098,1.7642732749001424,0.7899447362546587,A,991.8359000002964,Correct,sub_012_day_13_data.csv,1,300,119.0,Training at home,,,,,,,,,,,,,
12,13,2997,B,83.74837278533535,65.34856915016067,4.187418639266768,1.0264929238237468,B,1017.3771999543532,Correct,sub_012_day_13_data.csv,1,300,119.0,Training at home,,,,,,,,,,,,,
12,13,2998,B,53.47412663266572,43.266089048198296,2.673706331633286,0.6796221375169078,B,1038.0317999515682,Correct,sub_012_day_13_data.csv,1,300,119.0,Training at home,,,,,,,,,,,,,
12,13,2999,A,55.510481258114226,64.27708537013288,2.775524062905711,1.0096620959648672,A,1524.1088999900967,Correct,sub_012_day_13_data.csv,1,300,119.0,Training at home,,,,,,,,,,,,,
