subject,day,trial,cat,x,y,xt,yt,resp,rt,fb,f_name,acc,n_trials,block,session_type,ns_left_digit,ns_right_digit,ns_left_size,ns_right_size,ns_congruent,ns_cue,ns_correct_side,ns_resp,ns_rt,ns_fb,acc_stroop,acc_stroop_mean,resp_key
12,22,0,B,53.16397402139814,27.30291219025785,2.658198701069907,0.4288731417926063,B,1491.1444000026677,Correct,sub_012_day_22_data.csv,1,294,,Dual-Task at home,6.0,7.0,big,small,False,Size,left,left,8111.871499975678,Correct,1.0,0.826530612244898,
12,22,1,A,34.2363391996617,59.77100669151607,1.711816959983085,0.9388807775986662,A,1145.3816999855917,Correct,sub_012_day_22_data.csv,1,294,,Dual-Task at home,5.0,8.0,small,big,True,Size,right,left,7069.273799977964,Incorrect,0.0,0.826530612244898,
12,22,2,B,52.63852379853307,35.79089741255056,2.6319261899266535,0.5622021018832738,B,1032.2197999921627,Correct,sub_012_day_22_data.csv,1,294,,Dual-Task at home,3.0,2.0,small,big,False,Value,left,right,2453.8776999979746,Incorrect,0.0,0.826530612244898,
12,22,3,B,56.86414142640142,28.08086771076732,2.843207071320071,0.4410932385328672,B,752.4406999873463,Correct,sub_012_day_22_data.csv,1,294,,Dual-Task at home,4.0,3.0,big,small,True,Value,left,right,1580.9594999882393,Incorrect,0.0,0.826530612244898,
12,22,4,B,78.21888083017282,53.03918955601086,3.9109440415086407,0.833137641307601,B,677.2789999959059,Correct,sub_012_day_22_data.csv,1,294,,Dual-Task at home,3.0,7.0,big,small,False,Value,right,left,961.1125999945216,Incorrect,0.0,0.826530612244898,
12,22,5,A,58.24787423525672,86.06106316347297,2.912393711762836,1.3518440189724692,A,624.8051000002306,Correct,sub_012_day_22_data.csv,1,294,,Dual-Task at home,3.0,6.0,big,small,False,Value,right,right,1141.6873000271153,Correct,1.0,0.826530612244898,
12,22,6,B,38.016318637031105,12.541790436403376,1.9008159318515552,0.1970059834893378,B,589.1823999991175,Correct,sub_012_day_22_data.csv,1,294,,Dual-Task at home,5.0,4.0,small,big,False,Size,right,right,1233.6939999950118,Correct,1.0,0.826530612244898,
12,22,7,B,75.56606699820182,59.04198646520713,3.778303349910091,0.9274293546622135,B,431.1364000022877,Correct,sub_012_day_22_data.csv,1,294,,Dual-Task at home,6.0,3.0,small,big,False,Value,left,right,531.8471999780741,Incorrect,0.0,0.826530612244898,
12,22,8,A,41.55601815923317,65.03796818348069,2.077800907961658,1.021614015248148,A,655.1832999975886,Correct,sub_012_day_22_data.csv,1,294,,Dual-Task at home,3.0,2.0,small,big,False,Value,left,right,1138.8895999989472,Incorrect,0.0,0.826530612244898,
12,22,9,B,45.123299095276074,17.1005131751419,2.2561649547638036,0.2686142328182062,B,456.3941000087653,Correct,sub_012_day_22_data.csv,1,294,,Dual-Task at home,8.0,5.0,small,big,False,Value,left,left,1907.6299000007568,Correct,1.0,0.826530612244898,
12,22,10,B,64.67099028656878,32.038246491457684,3.233549514328439,0.5032555990573122,B,1207.113999989815,Correct,sub_012_day_22_data.csv,1,294,,Dual-Task at home,6.0,3.0,big,small,True,Value,left,left,2748.3116000075825,Correct,1.0,0.826530612244898,
12,22,11,B,83.83813383103184,60.238371196974455,4.1919066915515915,0.9462221220831498,B,742.4184000119567,Correct,sub_012_day_22_data.csv,1,294,,Dual-Task at home,7.0,8.0,big,small,False,Size,left,right,938.6097000096923,Incorrect,0.0,0.826530612244898,
12,22,12,B,61.66555793108653,53.25239672507311,3.0832778965543266,0.8364866916876941,B,545.9944999893196,Correct,sub_012_day_22_data.csv,1,294,,Dual-Task at home,7.0,8.0,big,small,False,Value,right,left,1383.325100003276,Incorrect,0.0,0.826530612244898,
12,22,13,B,43.276710163386795,20.992728659265712,2.1638355081693397,0.3297530106737653,B,1400.7257999910507,Correct,sub_012_day_22_data.csv,1,294,,Dual-Task at home,7.0,2.0,small,big,False,Value,left,left,1667.514700005995,Correct,1.0,0.826530612244898,
12,22,14,A,49.04007672130698,70.9583822006236,2.452003836065349,1.114611661160479,A,1015.2577999979258,Correct,sub_012_day_22_data.csv,1,294,,Dual-Task at home,4.0,2.0,small,big,False,Value,left,left,1192.4304999993185,Correct,1.0,0.826530612244898,
12,22,15,A,54.48689231272582,69.60858236400092,2.724344615636291,1.0934090549077269,A,2047.1248000103517,Correct,sub_012_day_22_data.csv,1,294,,Dual-Task at home,6.0,8.0,big,small,False,Size,left,left,1320.82329998957,Correct,1.0,0.826530612244898,
12,22,16,A,40.59417796913719,54.52190101711139,2.02970889845686,0.8564280184755348,A,1501.5915000112727,Correct,sub_012_day_22_data.csv,1,294,,Dual-Task at home,4.0,8.0,big,small,False,Value,right,left,1563.050299999304,Incorrect,0.0,0.826530612244898,
12,22,17,B,80.23015588699118,54.56041041860718,4.0115077943495585,0.8570329227397017,B,983.2977000041864,Correct,sub_012_day_22_data.csv,1,294,,Dual-Task at home,8.0,5.0,small,big,False,Value,left,right,1143.8106000132393,Incorrect,0.0,0.826530612244898,
12,22,18,A,38.62610086608818,55.45430330155454,1.9313050433044088,0.8710741593105198,A,1297.280500002671,Correct,sub_012_day_22_data.csv,1,294,,Dual-Task at home,8.0,3.0,small,big,False,Value,left,right,1690.4822000069544,Incorrect,0.0,0.826530612244898,
12,22,19,B,54.60679988386939,46.483248463563115,2.7303399941934696,0.7301571594405946,B,2491.740400000708,Correct,sub_012_day_22_data.csv,1,294,,Dual-Task at home,6.0,8.0,big,small,False,Value,right,left,1535.3795000119137,Incorrect,0.0,0.826530612244898,
12,22,20,A,15.905657412380735,32.32529744992688,0.7952828706190368,0.5077645849689757,A,1505.5891000083648,Correct,sub_012_day_22_data.csv,1,294,,Dual-Task at home,2.0,6.0,small,big,True,Size,right,right,4069.801399979042,Correct,1.0,0.826530612244898,
12,22,21,A,40.15886701460013,60.722029656608825,2.007943350730007,0.9538194114013192,A,3507.5916000059806,Correct,sub_012_day_22_data.csv,1,294,,Dual-Task at home,5.0,7.0,big,small,False,Size,left,right,1792.4130999890622,Incorrect,0.0,0.826530612244898,
12,22,22,A,21.787906415764944,38.41743002751929,1.0893953207882472,0.6034595797212725,A,617.445800016867,Correct,sub_012_day_22_data.csv,1,294,,Dual-Task at home,4.0,6.0,big,small,False,Size,left,right,3474.329500022577,Incorrect,0.0,0.826530612244898,
12,22,23,A,27.653822771820764,38.67552292927978,1.382691138591038,0.6075136935418448,A,1615.8999000035692,Correct,sub_012_day_22_data.csv,1,294,,Dual-Task at home,4.0,8.0,big,small,False,Value,right,right,3051.4770000008866,Correct,1.0,0.826530612244898,
12,22,24,B,74.22363547510827,52.1703323364423,3.711181773755414,0.8194896640175259,B,448.3951000147499,Correct,sub_012_day_22_data.csv,1,294,,Dual-Task at home,7.0,6.0,small,big,False,Value,left,right,1506.9823000230826,Incorrect,0.0,0.826530612244898,
12,22,25,B,47.64443667674158,26.47986143383288,2.382221833837079,0.4159446907430253,B,494.211399985943,Correct,sub_012_day_22_data.csv,1,294,,Dual-Task at home,5.0,4.0,small,big,False,Size,right,left,2307.8479999967385,Incorrect,0.0,0.826530612244898,
12,22,26,B,68.12319595531937,59.800281025271275,3.406159797765969,0.9393406177579868,A,992.0154999999796,Incorrect,sub_012_day_22_data.csv,0,294,,Dual-Task at home,2.0,8.0,small,big,True,Size,right,right,1431.7100000043863,Correct,1.0,0.826530612244898,
12,22,27,B,33.995356914217055,21.568256771721185,1.6997678457108527,0.3387933851238879,B,688.9242000179365,Correct,sub_012_day_22_data.csv,1,294,,Dual-Task at home,5.0,2.0,small,big,False,Size,right,right,909.592200012412,Correct,1.0,0.826530612244898,
12,22,28,B,54.11673364053784,42.11184378628419,2.705836682026892,0.6614912953405571,B,792.2280999773648,Correct,sub_012_day_22_data.csv,1,294,,Dual-Task at home,5.0,7.0,big,small,False,Value,right,left,2538.2551999937277,Incorrect,0.0,0.826530612244898,
12,22,29,B,41.47511803911459,28.275233614886815,2.0737559019557295,0.444146331015318,B,1207.6702999765985,Correct,sub_012_day_22_data.csv,1,294,,Dual-Task at home,5.0,8.0,big,small,False,Value,right,right,10091.030000010503,Correct,1.0,0.826530612244898,
12,22,30,A,49.33325012303809,75.00822120550934,2.4666625061519043,1.1782263834903313,A,639.4316999940202,Correct,sub_012_day_22_data.csv,1,294,,Dual-Task at home,4.0,2.0,small,big,False,Size,right,left,2624.8082000238355,Incorrect,0.0,0.826530612244898,
12,22,31,A,53.85979167943391,65.86286427560931,2.6929895839716953,1.0345714527631793,B,5556.534400006058,Incorrect,sub_012_day_22_data.csv,0,294,,Dual-Task at home,7.0,3.0,small,big,False,Size,right,right,25022.537999990163,Correct,1.0,0.826530612244898,
12,22,32,A,31.013663622037793,55.25755542085712,1.5506831811018895,0.8679836508274779,A,1061.8039999972098,Correct,sub_012_day_22_data.csv,1,294,,Dual-Task at home,6.0,7.0,big,small,False,Value,right,right,1731.4366000064183,Correct,1.0,0.826530612244898,
12,22,33,A,63.38969592307244,88.60259159731623,3.169484796153622,1.391766254255727,A,1819.3119999777991,Correct,sub_012_day_22_data.csv,1,294,,Dual-Task at home,2.0,3.0,big,small,False,Size,left,left,955.437199998414,Correct,1.0,0.826530612244898,
12,22,34,A,46.44002321454647,57.11782006213944,2.3220011607273237,0.8972046194814047,B,1170.2524999855086,Incorrect,sub_012_day_22_data.csv,0,294,,Dual-Task at home,7.0,3.0,small,big,False,Value,left,left,845.1214999950025,Correct,1.0,0.826530612244898,
12,22,35,A,24.94683195066664,38.828414632352136,1.2473415975333322,0.6099153107976796,A,1620.4600999772083,Correct,sub_012_day_22_data.csv,1,294,,Dual-Task at home,3.0,5.0,big,small,False,Size,left,left,991.8905000085942,Correct,1.0,0.826530612244898,
12,22,36,B,62.90407156536263,48.50351786565943,3.1452035782681316,0.7618914770000849,B,677.2892999870237,Correct,sub_012_day_22_data.csv,1,294,,Dual-Task at home,6.0,8.0,big,small,False,Value,right,right,1818.4284000017217,Correct,1.0,0.826530612244898,
12,22,37,B,50.087177831494415,24.44200135704881,2.5043588915747206,0.3839340595116815,B,899.7533999790903,Correct,sub_012_day_22_data.csv,1,294,,Dual-Task at home,2.0,5.0,big,small,False,Size,left,right,1367.1721999999136,Incorrect,0.0,0.826530612244898,
12,22,38,B,84.82725751082872,60.81617209317041,4.241362875541435,0.9552981973367838,B,719.5953000045847,Correct,sub_012_day_22_data.csv,1,294,,Dual-Task at home,8.0,6.0,small,big,False,Value,left,left,818.2575999817345,Correct,1.0,0.826530612244898,
12,22,39,A,36.47475610536842,53.54956374556082,1.823737805268421,0.8411545803299608,A,1134.1104000166524,Correct,sub_012_day_22_data.csv,1,294,,Dual-Task at home,5.0,4.0,small,big,False,Size,right,right,1473.6890000058338,Correct,1.0,0.826530612244898,
12,22,40,B,56.402027749529616,31.185600569186295,2.8201013874764804,0.4898622682297067,B,540.97269999329,Correct,sub_012_day_22_data.csv,1,294,,Dual-Task at home,6.0,8.0,big,small,False,Value,right,right,1841.603999986546,Correct,1.0,0.826530612244898,
12,22,41,A,42.02611871438044,71.43016137700289,2.101305935719022,1.1220223511336282,A,686.6168999986257,Correct,sub_012_day_22_data.csv,1,294,,Dual-Task at home,6.0,2.0,small,big,False,Size,right,right,1646.169399988139,Correct,1.0,0.826530612244898,
12,22,42,B,84.89688519372628,55.94428815999907,4.244844259686314,0.8787708234688177,B,587.119999981951,Correct,sub_012_day_22_data.csv,1,294,,Dual-Task at home,6.0,4.0,small,big,False,Value,left,left,932.6978999888524,Correct,1.0,0.826530612244898,
12,22,43,A,24.83886132060745,42.144892614380616,1.2419430660303723,0.6620104251183444,A,812.6327999925707,Correct,sub_012_day_22_data.csv,1,294,,Dual-Task at home,7.0,4.0,small,big,False,Size,right,right,1692.6335000025574,Correct,1.0,0.826530612244898,
12,22,44,B,66.48319468141366,57.53649975349971,3.3241597340706837,0.9037812246943282,B,951.8847000144888,Correct,sub_012_day_22_data.csv,1,294,,Dual-Task at home,8.0,3.0,big,small,True,Size,left,left,1055.1902999868616,Correct,1.0,0.826530612244898,
12,22,45,B,53.67530323103073,35.7852643364314,2.6837651615515363,0.5621136177305086,B,748.9743999904022,Correct,sub_012_day_22_data.csv,1,294,,Dual-Task at home,7.0,3.0,small,big,False,Value,left,left,1851.6713000135496,Correct,1.0,0.826530612244898,
12,22,46,B,39.25822435896781,23.61330599456038,1.9629112179483903,0.3709169431973935,B,666.6311000008136,Correct,sub_012_day_22_data.csv,1,294,,Dual-Task at home,7.0,5.0,small,big,False,Value,left,left,1379.286699986551,Correct,1.0,0.826530612244898,
12,22,47,B,83.39137578177098,56.99907598460862,4.169568789088549,0.8953393918732643,B,547.8349000040907,Correct,sub_012_day_22_data.csv,1,294,,Dual-Task at home,3.0,2.0,small,big,False,Size,right,right,1485.4024999949615,Correct,1.0,0.826530612244898,
12,22,48,B,55.131979129533605,47.89971534931459,2.75659895647668,0.7524069692522448,B,1090.0902999856044,Correct,sub_012_day_22_data.csv,1,294,,Dual-Task at home,2.0,7.0,big,small,False,Size,left,left,1568.650900007924,Correct,1.0,0.826530612244898,
12,22,49,B,39.01097191953062,14.541884385999325,1.950548595976531,0.228423385782038,B,685.0112000247464,Correct,sub_012_day_22_data.csv,1,294,,Dual-Task at home,4.0,6.0,big,small,False,Size,left,left,1463.4377000038512,Correct,1.0,0.826530612244898,
12,22,50,A,59.125903009239025,73.45683614224978,2.9562951504619512,1.1538572839022054,A,1207.56710000569,Correct,sub_012_day_22_data.csv,1,294,,Dual-Task at home,7.0,3.0,small,big,False,Value,left,left,1336.2685999891255,Correct,1.0,0.826530612244898,
12,22,51,B,77.47040882304873,46.4900017685695,3.873520441152437,0.7302632401075722,B,556.8892000010237,Correct,sub_012_day_22_data.csv,1,294,,Dual-Task at home,6.0,7.0,big,small,False,Size,left,left,1645.0699999986682,Correct,1.0,0.826530612244898,
12,22,52,B,74.73962763202779,51.97235983780255,3.7369813816013897,0.8163799192808285,B,961.908900004346,Correct,sub_012_day_22_data.csv,1,294,,Dual-Task at home,2.0,7.0,big,small,False,Value,right,right,1702.599200012628,Correct,1.0,0.826530612244898,
12,22,53,A,16.49093505289832,39.520143169308696,0.824546752644916,0.6207809572475852,A,609.4231000170112,Correct,sub_012_day_22_data.csv,1,294,,Dual-Task at home,6.0,5.0,small,big,False,Value,left,left,837.8244999912567,Correct,1.0,0.826530612244898,
12,22,54,A,55.4846322053577,82.81736988837832,2.774231610267885,1.3008922041547897,A,883.1792999990284,Correct,sub_012_day_22_data.csv,1,294,,Dual-Task at home,6.0,7.0,small,big,True,Size,right,left,2972.372099990025,Incorrect,0.0,0.826530612244898,
12,22,55,A,66.74870452914901,82.03898554314343,3.3374352264574503,1.288665371451493,A,1040.909000003012,Correct,sub_012_day_22_data.csv,1,294,,Dual-Task at home,5.0,6.0,big,small,False,Size,left,right,2132.7358999988064,Incorrect,0.0,0.826530612244898,
12,22,56,A,31.175564363968064,61.00981645525402,1.5587782181984031,0.9583399558634385,A,821.5340999886394,Correct,sub_012_day_22_data.csv,1,294,,Dual-Task at home,5.0,6.0,big,small,False,Value,right,right,460.096099996008,Correct,1.0,0.826530612244898,
12,22,57,A,17.429570328068603,44.40179440181641,0.8714785164034302,0.6974617554947541,A,536.6402000072412,Correct,sub_012_day_22_data.csv,1,294,,Dual-Task at home,3.0,6.0,big,small,False,Value,right,right,1501.0179999808315,Correct,1.0,0.826530612244898,
12,22,58,A,22.451383843996403,51.87654879734713,1.1225691921998202,0.8148749229766906,A,509.74830001359805,Correct,sub_012_day_22_data.csv,1,294,,Dual-Task at home,7.0,5.0,small,big,False,Size,right,right,1608.7554000259845,Correct,1.0,0.826530612244898,
12,22,59,A,30.23063565176834,55.22077041739888,1.5115317825884171,0.8674058333443445,A,869.2416000121739,Correct,sub_012_day_22_data.csv,1,294,,Dual-Task at home,8.0,4.0,big,small,True,Size,left,left,518.4298999956809,Correct,1.0,0.826530612244898,
12,22,60,B,33.30501496851331,19.721209030841138,1.6652507484256658,0.309780027055996,B,560.4074999864679,Correct,sub_012_day_22_data.csv,1,294,,Dual-Task at home,8.0,2.0,small,big,False,Value,left,left,929.2926000198348,Correct,1.0,0.826530612244898,
12,22,61,B,62.29780567159808,32.39085064703168,3.114890283579904,0.5087942921811945,B,496.8757999886293,Correct,sub_012_day_22_data.csv,1,294,,Dual-Task at home,5.0,2.0,small,big,False,Value,left,left,1045.662900025491,Correct,1.0,0.826530612244898,
12,22,62,A,51.72508061151099,65.99707599995543,2.5862540305755495,1.036679645599336,A,833.7075999879744,Correct,sub_012_day_22_data.csv,1,294,,Dual-Task at home,8.0,4.0,small,big,False,Size,right,left,3264.1847000049893,Incorrect,0.0,0.826530612244898,
12,22,63,A,24.83272869544429,53.94699881410879,1.2416364347722144,0.8473974757881074,A,477.06150001613423,Correct,sub_012_day_22_data.csv,1,294,,Dual-Task at home,4.0,7.0,big,small,False,Size,left,left,934.2828000080772,Correct,1.0,0.826530612244898,
12,22,64,B,55.69158567224414,41.51050077926334,2.784579283612207,0.6520454214748355,B,1124.6610000089277,Correct,sub_012_day_22_data.csv,1,294,,Dual-Task at home,7.0,5.0,small,big,False,Value,left,right,1233.0569000041578,Incorrect,0.0,0.826530612244898,
12,22,65,A,45.43250812371834,73.34651892490685,2.271625406185917,1.1521244251043603,A,644.0822000149637,Correct,sub_012_day_22_data.csv,1,294,,Dual-Task at home,4.0,5.0,small,big,True,Size,right,left,1223.7903000204824,Incorrect,0.0,0.826530612244898,
12,22,66,A,21.56725850599584,38.98133702170925,1.078362925299792,0.612317410072548,A,1500.0881000014488,Correct,sub_012_day_22_data.csv,1,294,,Dual-Task at home,4.0,7.0,big,small,False,Size,left,right,1087.4830999819096,Incorrect,0.0,0.826530612244898,
12,22,67,B,85.75895131174855,62.69427898376364,4.2879475655874275,0.984799431387504,B,1110.1533999899402,Correct,sub_012_day_22_data.csv,1,294,,Dual-Task at home,5.0,4.0,big,small,True,Size,left,left,551.8370000063442,Correct,1.0,0.826530612244898,
12,22,68,B,53.46998942926571,23.691123442386512,2.673499471463286,0.3721392968094519,B,1074.8821999877691,Correct,sub_012_day_22_data.csv,1,294,,Dual-Task at home,3.0,8.0,big,small,False,Value,right,right,661.9882000086363,Correct,1.0,0.826530612244898,
12,22,69,B,72.33117619150406,62.23393834743588,3.6165588095752024,0.9775684175813232,B,641.1696000141092,Correct,sub_012_day_22_data.csv,1,294,,Dual-Task at home,6.0,2.0,small,big,False,Value,left,left,896.3855000038166,Correct,1.0,0.826530612244898,
12,22,70,B,76.07535613992073,59.98761033709695,3.803767806996036,0.9422831797071548,B,605.2965999988373,Correct,sub_012_day_22_data.csv,1,294,,Dual-Task at home,3.0,7.0,big,small,False,Size,left,left,1191.3708000211043,Correct,1.0,0.826530612244898,
12,22,71,A,20.023218606824287,40.741660959563575,1.0011609303412143,0.6399685138280551,A,629.8085000016727,Correct,sub_012_day_22_data.csv,1,294,,Dual-Task at home,6.0,8.0,big,small,False,Size,left,left,750.2732999855652,Correct,1.0,0.826530612244898,
12,22,72,A,52.62080569436641,82.68909774402493,2.6310402847183205,1.2988773100229851,A,628.6311000003479,Correct,sub_012_day_22_data.csv,1,294,,Dual-Task at home,2.0,5.0,big,small,False,Size,left,left,1895.1084000000264,Correct,1.0,0.826530612244898,
12,22,73,B,40.371811067691866,27.84777796717298,2.018590553384593,0.4374318734023517,B,800.0071000133175,Correct,sub_012_day_22_data.csv,1,294,,Dual-Task at home,6.0,7.0,big,small,False,Value,right,right,1221.708299999591,Correct,1.0,0.826530612244898,
12,22,74,A,31.98562130588695,43.68511921277459,1.5992810652943477,0.6862042479502348,A,1191.593700001249,Correct,sub_012_day_22_data.csv,1,294,,Dual-Task at home,3.0,2.0,small,big,False,Value,left,left,747.8300000075251,Correct,1.0,0.826530612244898,
12,22,75,B,36.56813802872371,11.539375373029376,1.8284069014361852,0.1812600844946203,B,614.4092000031378,Correct,sub_012_day_22_data.csv,1,294,,Dual-Task at home,7.0,5.0,small,big,False,Value,left,left,991.3815999752842,Correct,1.0,0.826530612244898,
12,22,76,A,35.27321342823954,50.541464195663856,1.7636606714119774,0.7939034630938456,A,845.1438999909442,Correct,sub_012_day_22_data.csv,1,294,,Dual-Task at home,5.0,2.0,small,big,False,Value,left,left,798.477800010005,Correct,1.0,0.826530612244898,
12,22,77,A,44.66097191656382,76.53805760712231,2.233048595828191,1.2022569974928392,A,711.1297000083141,Correct,sub_012_day_22_data.csv,1,294,,Dual-Task at home,7.0,5.0,small,big,False,Size,right,right,743.9177000196651,Correct,1.0,0.826530612244898,
12,22,78,B,47.60438159024728,26.808440155537113,2.3802190795123637,0.421105993234185,B,538.4498000203166,Correct,sub_012_day_22_data.csv,1,294,,Dual-Task at home,8.0,2.0,small,big,False,Size,right,right,2376.501799997641,Correct,1.0,0.826530612244898,
12,22,79,A,37.940745866751776,67.39167249014383,1.8970372933375887,1.058585916040826,A,466.954400006216,Correct,sub_012_day_22_data.csv,1,294,,Dual-Task at home,3.0,4.0,big,small,False,Value,right,right,1021.5366999909749,Correct,1.0,0.826530612244898,
12,22,80,A,50.69529074884885,63.59955182630213,2.534764537442442,0.9990194239455704,A,509.2213999887462,Correct,sub_012_day_22_data.csv,1,294,,Dual-Task at home,3.0,4.0,big,small,False,Size,left,left,676.1953000095673,Correct,1.0,0.826530612244898,
12,22,81,B,62.96761242510118,30.70229839191712,3.148380621255059,0.4822705753818426,B,563.8529999996535,Correct,sub_012_day_22_data.csv,1,294,,Dual-Task at home,5.0,2.0,small,big,False,Value,left,left,2138.1195999856573,Correct,1.0,0.826530612244898,
12,22,82,A,51.752861187024074,69.18386866458121,2.587643059351204,1.086737667717847,A,724.4545000139624,Correct,sub_012_day_22_data.csv,1,294,,Dual-Task at home,6.0,3.0,small,big,False,Size,right,right,490.0334000121802,Correct,1.0,0.826530612244898,
12,22,83,A,26.26863000478532,43.16218586075304,1.313431500239266,0.677990030065095,A,781.4627999905497,Correct,sub_012_day_22_data.csv,1,294,,Dual-Task at home,7.0,4.0,small,big,False,Size,right,right,1235.7535999908578,Correct,1.0,0.826530612244898,
12,22,84,B,46.47766159597259,34.87186701529741,2.3238830797986294,0.5477660061610928,B,466.068899986567,Correct,sub_012_day_22_data.csv,1,294,,Dual-Task at home,2.0,8.0,big,small,False,Value,right,right,811.6451000096276,Correct,1.0,0.826530612244898,
12,22,85,B,50.7149107834841,33.17706783430731,2.535745539174205,0.5211441628795503,B,606.0342999990098,Correct,sub_012_day_22_data.csv,1,294,,Dual-Task at home,2.0,5.0,small,big,True,Value,right,right,2607.4826999974903,Correct,1.0,0.826530612244898,
12,22,86,B,62.92764568784567,47.88892384128843,3.146382284392283,0.7522374566405642,B,1371.5193000098225,Correct,sub_012_day_22_data.csv,1,294,,Dual-Task at home,3.0,8.0,big,small,False,Size,left,left,1078.2614999916404,Correct,1.0,0.826530612244898,
12,22,87,B,39.56409290538448,30.916676245901336,1.978204645269224,0.4856380148376885,B,920.1700999983586,Correct,sub_012_day_22_data.csv,1,294,,Dual-Task at home,6.0,7.0,big,small,False,Value,right,right,395.2510000090115,Correct,1.0,0.826530612244898,
12,22,88,A,43.661404242150255,53.72095946497397,2.1830702121075127,0.8438468579947864,A,642.9258999996819,Correct,sub_012_day_22_data.csv,1,294,,Dual-Task at home,3.0,2.0,big,small,True,Size,left,left,1481.5180999867152,Correct,1.0,0.826530612244898,
12,22,89,B,36.36719999893194,10.797631396854754,1.818359999946597,0.1696087973626469,B,556.0682000068482,Correct,sub_012_day_22_data.csv,1,294,,Dual-Task at home,7.0,3.0,small,big,False,Value,left,left,1819.6538999909535,Correct,1.0,0.826530612244898,
12,22,90,B,77.00950462752225,59.41915975094466,3.850475231376112,0.9333539787802304,A,849.4456000044011,Incorrect,sub_012_day_22_data.csv,0,294,,Dual-Task at home,2.0,6.0,big,small,False,Size,left,left,1752.9663999739569,Correct,1.0,0.826530612244898,
12,22,91,B,77.90812421089736,59.55823778542272,3.895406210544868,0.93553861143719,B,748.900299979141,Correct,sub_012_day_22_data.csv,1,294,,Dual-Task at home,3.0,5.0,big,small,False,Value,right,right,2239.6269000018947,Correct,1.0,0.826530612244898,
12,22,92,A,34.39087093766643,46.48705845736784,1.7195435468833211,0.7302170066833303,A,679.6782999881543,Correct,sub_012_day_22_data.csv,1,294,,Dual-Task at home,8.0,5.0,small,big,False,Value,left,left,1010.1351999910548,Correct,1.0,0.826530612244898,
12,22,93,B,75.20103369810268,52.36473156799099,3.7600516849051338,0.8225432800060102,B,571.9504000153393,Correct,sub_012_day_22_data.csv,1,294,,Dual-Task at home,4.0,7.0,big,small,False,Value,right,right,1856.2863000261132,Correct,1.0,0.826530612244898,
12,22,94,A,50.0782266123389,64.17900394175503,2.503911330616946,1.00812143649064,A,693.3954000123776,Correct,sub_012_day_22_data.csv,1,294,,Dual-Task at home,6.0,3.0,small,big,False,Value,left,left,800.4350000119302,Correct,1.0,0.826530612244898,
12,22,95,B,65.07624190754619,48.59527191474089,3.2538120953773095,0.7633327462327418,B,587.7725000027567,Correct,sub_012_day_22_data.csv,1,294,,Dual-Task at home,7.0,5.0,small,big,False,Value,left,left,1114.4909000140617,Correct,1.0,0.826530612244898,
12,22,96,B,49.879416467802386,32.8087730794804,2.4939708233901197,0.515359002398951,B,615.3616000083275,Correct,sub_012_day_22_data.csv,1,294,,Dual-Task at home,2.0,3.0,small,big,True,Value,right,right,890.2936000085901,Correct,1.0,0.826530612244898,
12,22,97,A,21.70561414671178,41.89157637619745,1.085280707335589,0.6580313429537882,A,598.2986000017263,Correct,sub_012_day_22_data.csv,1,294,,Dual-Task at home,5.0,2.0,small,big,False,Size,right,right,870.2348000078928,Correct,1.0,0.826530612244898,
12,22,98,B,55.9113458614626,42.64554704673926,2.79556729307313,0.6698746865517697,B,755.1894999924116,Correct,sub_012_day_22_data.csv,1,294,,Dual-Task at home,2.0,6.0,big,small,False,Size,left,left,1313.0175999831408,Correct,1.0,0.826530612244898,
12,22,99,A,58.95159451443979,81.74910144763587,2.9475797257219893,1.2841118827272977,A,600.220000022091,Correct,sub_012_day_22_data.csv,1,294,,Dual-Task at home,7.0,8.0,big,small,False,Size,left,right,1156.5662999928463,Incorrect,0.0,0.826530612244898,
12,22,100,A,36.50921945049234,54.21866968393054,1.825460972524617,0.8516648718322392,A,1486.0575000056997,Correct,sub_012_day_22_data.csv,1,294,,Dual-Task at home,4.0,6.0,big,small,False,Value,right,right,641.9579999928828,Correct,1.0,0.826530612244898,
12,22,101,A,19.459291886414803,34.025858235280666,0.97296459432074,0.5344769313202276,A,642.9293999972288,Correct,sub_012_day_22_data.csv,1,294,,Dual-Task at home,4.0,5.0,big,small,False,Size,left,left,778.6873000150081,Correct,1.0,0.826530612244898,
12,22,102,A,46.65212972879512,67.1597408752776,2.332606486439756,1.0549427427538314,A,919.971399998758,Correct,sub_012_day_22_data.csv,1,294,,Dual-Task at home,2.0,5.0,big,small,False,Size,left,left,848.4055000008084,Correct,1.0,0.826530612244898,
12,22,103,B,51.31959215431376,33.901148216208426,2.565979607715688,0.5325179909214955,B,603.1408999988344,Correct,sub_012_day_22_data.csv,1,294,,Dual-Task at home,8.0,6.0,big,small,True,Size,left,left,662.34050001367,Correct,1.0,0.826530612244898,
12,22,104,A,42.73446511492667,64.05998267546627,2.136723255746334,1.0062518548116717,A,677.6163000031374,Correct,sub_012_day_22_data.csv,1,294,,Dual-Task at home,3.0,2.0,big,small,True,Size,left,left,1740.316299983533,Correct,1.0,0.826530612244898,
12,22,105,A,28.765799316883665,37.94603528181635,1.4382899658441832,0.5960549283710667,A,529.2028999829199,Correct,sub_012_day_22_data.csv,1,294,,Dual-Task at home,2.0,5.0,big,small,False,Size,left,left,760.0343999802135,Correct,1.0,0.826530612244898,
12,22,106,A,37.35318548502195,55.33289990621921,1.8676592742510976,0.8691671592359882,A,709.8820999963209,Correct,sub_012_day_22_data.csv,1,294,,Dual-Task at home,3.0,6.0,small,big,True,Value,right,right,699.1972000105307,Correct,1.0,0.826530612244898,
12,22,107,B,31.381218967117903,12.603395577741727,1.569060948355895,0.1979736747865974,B,1237.862699985271,Correct,sub_012_day_22_data.csv,1,294,,Dual-Task at home,5.0,8.0,big,small,False,Value,right,right,1369.524600013392,Correct,1.0,0.826530612244898,
12,22,108,A,44.56837745632392,76.89447057220633,2.228418872816196,1.2078555192565996,A,554.2132999980822,Correct,sub_012_day_22_data.csv,1,294,,Dual-Task at home,3.0,8.0,big,small,False,Size,left,left,942.5991000025532,Correct,1.0,0.826530612244898,
12,22,109,B,69.82405943665806,51.111341439395495,3.491202971832903,0.8028550739056224,B,586.1667999997735,Correct,sub_012_day_22_data.csv,1,294,,Dual-Task at home,8.0,5.0,small,big,False,Size,right,right,2262.1361000055913,Correct,1.0,0.826530612244898,
12,22,110,B,51.27744925601238,32.228195867480906,2.563872462800619,0.5062393168786548,B,1506.5118999918925,Correct,sub_012_day_22_data.csv,1,294,,Dual-Task at home,7.0,3.0,small,big,False,Size,right,right,1577.9899000190198,Correct,1.0,0.826530612244898,
12,22,111,A,46.92900724658811,60.53467524760105,2.346450362329405,0.9508764552265366,A,1833.588799985591,Correct,sub_012_day_22_data.csv,1,294,,Dual-Task at home,7.0,3.0,big,small,True,Size,left,left,760.64100000076,Correct,1.0,0.826530612244898,
12,22,112,A,35.934260208230505,52.90779573313928,1.7967130104115254,0.8310737119642989,A,995.8978999929968,Correct,sub_012_day_22_data.csv,1,294,,Dual-Task at home,5.0,7.0,big,small,False,Size,left,left,1473.5643999883905,Correct,1.0,0.826530612244898,
12,22,113,B,52.07192718786617,38.93102076112123,2.603596359393309,0.6115270440994509,B,1356.135300011374,Correct,sub_012_day_22_data.csv,1,294,,Dual-Task at home,6.0,5.0,small,big,False,Value,left,left,910.73200001847,Correct,1.0,0.826530612244898,
12,22,114,A,46.60623311202976,62.493951996142336,2.330311655601488,0.9816527024243696,A,854.8967999813613,Correct,sub_012_day_22_data.csv,1,294,,Dual-Task at home,3.0,2.0,small,big,False,Value,left,left,1369.7729999839794,Correct,1.0,0.826530612244898,
12,22,115,B,82.4040539035451,64.94068852051896,4.120202695177255,1.0200859498756267,A,2403.7132000084966,Incorrect,sub_012_day_22_data.csv,0,294,,Dual-Task at home,2.0,4.0,big,small,False,Value,right,right,1489.4229999918025,Correct,1.0,0.826530612244898,
12,22,116,A,60.794933864220326,69.36968099056243,3.039746693211016,1.0896564009090923,B,807.6379999984056,Incorrect,sub_012_day_22_data.csv,0,294,,Dual-Task at home,5.0,6.0,big,small,False,Value,right,right,979.0725000202656,Correct,1.0,0.826530612244898,
12,22,117,B,44.02720949947915,31.763572565200818,2.2013604749739573,0.4989410311130058,B,520.4462000110652,Correct,sub_012_day_22_data.csv,1,294,,Dual-Task at home,2.0,6.0,small,big,True,Size,right,left,1584.362499997951,Incorrect,0.0,0.826530612244898,
12,22,118,A,29.65748617450817,51.53593404311688,1.4828743087254086,0.8095245589287206,A,515.6387000170071,Correct,sub_012_day_22_data.csv,1,294,,Dual-Task at home,8.0,2.0,small,big,False,Value,left,right,401.2354000005871,Incorrect,0.0,0.826530612244898,
12,22,119,B,35.66924939442602,16.57746355769795,1.7834624697213008,0.2603981886400819,B,590.0544000032824,Correct,sub_012_day_22_data.csv,1,294,,Dual-Task at home,8.0,2.0,small,big,False,Size,right,right,1158.5176000080537,Correct,1.0,0.826530612244898,
12,22,120,A,10.620847615778654,32.02323633647144,0.5310423807889327,0.503019820094142,A,513.1166000210214,Correct,sub_012_day_22_data.csv,1,294,,Dual-Task at home,5.0,8.0,big,small,False,Size,left,left,529.9831999873277,Correct,1.0,0.826530612244898,
12,22,121,B,74.77452002073365,52.11847162612969,3.738726001036682,0.8186750378848856,B,524.0370999963488,Correct,sub_012_day_22_data.csv,1,294,,Dual-Task at home,6.0,8.0,big,small,False,Value,right,right,1469.905000005383,Correct,1.0,0.826530612244898,
12,22,122,B,77.14912742885036,59.44886649927126,3.857456371442518,0.9338206112917546,B,956.588200002443,Correct,sub_012_day_22_data.csv,1,294,,Dual-Task at home,6.0,7.0,big,small,False,Size,left,left,1465.9121000149753,Correct,1.0,0.826530612244898,
12,22,123,A,35.538119877247446,52.58996350335797,1.7769059938623724,0.8260812149735236,A,869.4127000053413,Correct,sub_012_day_22_data.csv,1,294,,Dual-Task at home,7.0,6.0,small,big,False,Size,right,right,6251.988399977563,Correct,1.0,0.826530612244898,
12,22,124,A,43.066106678540336,53.68049215034761,2.1533053339270167,0.8432111989030829,B,2379.0345000161324,Incorrect,sub_012_day_22_data.csv,0,294,,Dual-Task at home,8.0,4.0,small,big,False,Value,left,left,951.5612000250258,Correct,1.0,0.826530612244898,
12,22,125,B,43.9834921797523,14.68788315433826,2.1991746089876147,0.2307167290722717,B,457.58759998716414,Correct,sub_012_day_22_data.csv,1,294,,Dual-Task at home,6.0,3.0,small,big,False,Size,right,right,1109.2400000197813,Correct,1.0,0.826530612244898,
12,22,126,A,13.290569691895584,38.72840751516602,0.6645284845947792,0.6083444026743865,A,479.8398000129964,Correct,sub_012_day_22_data.csv,1,294,,Dual-Task at home,5.0,2.0,small,big,False,Size,right,right,1158.6144999891983,Correct,1.0,0.826530612244898,
12,22,127,B,47.561357203367294,25.85086780930476,2.3780678601683647,0.4060644819931635,B,981.437599984929,Correct,sub_012_day_22_data.csv,1,294,,Dual-Task at home,4.0,3.0,small,big,False,Size,right,right,422.5567000103183,Correct,1.0,0.826530612244898,
12,22,128,A,63.444172058639865,83.77743973319802,3.1722086029319936,1.3159729460118827,A,603.2142999756616,Correct,sub_012_day_22_data.csv,1,294,,Dual-Task at home,4.0,8.0,small,big,True,Size,right,right,831.9475000025705,Correct,1.0,0.826530612244898,
12,22,129,A,48.409508742578225,76.63969808759501,2.420475437128911,1.2038535624266409,A,630.5824000155553,Correct,sub_012_day_22_data.csv,1,294,,Dual-Task at home,3.0,6.0,small,big,True,Size,right,right,1569.749199989019,Correct,1.0,0.826530612244898,
12,22,130,A,55.0763234301687,73.39274467233723,2.753816171508435,1.1528505374470304,A,434.85779999173246,Correct,sub_012_day_22_data.csv,1,294,,Dual-Task at home,6.0,3.0,small,big,False,Value,left,left,3636.739800014766,Correct,1.0,0.826530612244898,
12,22,131,B,50.288392280016595,33.87300527157529,2.5144196140008295,0.5320759225809463,B,1123.2324999873526,Correct,sub_012_day_22_data.csv,1,294,,Dual-Task at home,8.0,6.0,big,small,True,Size,left,right,992.1617000072728,Incorrect,0.0,0.826530612244898,
12,22,132,B,64.32823723602645,47.57750515167048,3.2164118618013227,0.7473457033030926,B,1007.1919000183698,Correct,sub_012_day_22_data.csv,1,294,,Dual-Task at home,7.0,5.0,small,big,False,Value,left,left,599.7503999969922,Correct,1.0,0.826530612244898,
12,22,133,A,28.385724089614833,57.86501797574314,1.4192862044807415,0.90894157686218,A,769.0403999877162,Correct,sub_012_day_22_data.csv,1,294,,Dual-Task at home,3.0,6.0,big,small,False,Size,left,left,2254.42889999249,Correct,1.0,0.826530612244898,
12,22,134,A,39.052974747435584,52.89941966845985,1.9526487373717791,0.8309421410479844,A,495.2237000106834,Correct,sub_012_day_22_data.csv,1,294,,Dual-Task at home,6.0,7.0,big,small,False,Value,right,right,1904.9915999930815,Correct,1.0,0.826530612244898,
12,22,135,B,48.35758109110148,39.926797121028955,2.417879054555074,0.6271686625839733,B,817.8248999756761,Correct,sub_012_day_22_data.csv,1,294,,Dual-Task at home,3.0,8.0,big,small,False,Value,right,right,1187.4486999877265,Correct,1.0,0.826530612244898,
12,22,136,B,36.050717807422025,24.85978553707611,1.802535890371101,0.3904965980654805,B,1035.4419999930542,Correct,sub_012_day_22_data.csv,1,294,,Dual-Task at home,5.0,3.0,small,big,False,Size,right,right,1482.7280000026803,Correct,1.0,0.826530612244898,
12,22,137,B,46.6556067350329,26.67023684796137,2.332780336751645,0.4189351007552762,B,1037.424700014526,Correct,sub_012_day_22_data.csv,1,294,,Dual-Task at home,5.0,3.0,small,big,False,Value,left,left,1363.4996000037063,Correct,1.0,0.826530612244898,
12,22,138,B,61.88705250829193,32.405719450448096,3.0943526254145968,0.5090278507990981,B,1235.364499996649,Correct,sub_012_day_22_data.csv,1,294,,Dual-Task at home,4.0,5.0,big,small,False,Size,left,left,3132.935899979202,Correct,1.0,0.826530612244898,
12,22,139,B,78.46065282461724,54.9976652564399,3.923032641230862,0.863901305671111,B,1150.799900002312,Correct,sub_012_day_22_data.csv,1,294,,Dual-Task at home,3.0,5.0,big,small,False,Size,left,left,1621.106000005966,Correct,1.0,0.826530612244898,
12,22,140,A,33.921991553769345,57.1800899774707,1.6960995776884673,0.8981827530241266,A,1298.3540999994148,Correct,sub_012_day_22_data.csv,1,294,,Dual-Task at home,5.0,8.0,small,big,True,Value,right,right,1168.866899999557,Correct,1.0,0.826530612244898,
12,22,141,A,40.57757916371229,69.77662500277626,2.0288789581856146,1.096048662505059,A,1412.413000012748,Correct,sub_012_day_22_data.csv,1,294,,Dual-Task at home,4.0,2.0,small,big,False,Value,left,left,1479.1956999979448,Correct,1.0,0.826530612244898,
12,22,142,B,39.32750230853645,22.38828335974813,1.9663751154268223,0.3516743326473567,B,971.9108999997844,Correct,sub_012_day_22_data.csv,1,294,,Dual-Task at home,7.0,8.0,big,small,False,Size,left,left,1037.0528000057675,Correct,1.0,0.826530612244898,
12,22,143,A,23.172609630469825,46.392723841857986,1.1586304815234911,0.7287352020080055,A,1676.8918999878224,Correct,sub_012_day_22_data.csv,1,294,,Dual-Task at home,5.0,6.0,big,small,False,Value,right,right,753.5288999788463,Correct,1.0,0.826530612244898,
12,22,144,B,54.93247663138604,35.57784619633782,2.7466238315693023,0.5588555012048124,B,1409.3595999875106,Correct,sub_012_day_22_data.csv,1,294,,Dual-Task at home,2.0,8.0,big,small,False,Size,left,left,531.7372000135947,Correct,1.0,0.826530612244898,
12,22,145,A,56.8555542293562,82.34843629028944,2.84277771146781,1.2935262124209022,A,447.6137000019662,Correct,sub_012_day_22_data.csv,1,294,,Dual-Task at home,4.0,3.0,big,small,True,Size,left,left,1676.2803999881726,Correct,1.0,0.826530612244898,
12,22,146,B,42.49302604801088,31.02215901710944,2.124651302400544,0.4872949343332269,B,505.28290000511333,Correct,sub_012_day_22_data.csv,1,294,,Dual-Task at home,8.0,3.0,small,big,False,Size,right,right,396.821500005899,Correct,1.0,0.826530612244898,
12,22,147,B,40.780954600211814,21.58500783533684,2.0390477300105907,0.3390565102158617,B,674.4170000019949,Correct,sub_012_day_22_data.csv,1,294,,Dual-Task at home,6.0,5.0,big,small,True,Size,left,left,760.6876000063494,Correct,1.0,0.826530612244898,
12,22,148,B,60.33741040835725,44.68922450615672,3.0168705204178625,0.7019766970158345,B,537.3859999817796,Correct,sub_012_day_22_data.csv,1,294,,Dual-Task at home,8.0,7.0,small,big,False,Value,left,left,2799.122600001283,Correct,1.0,0.826530612244898,
12,22,149,A,25.39053142817248,53.93859171281015,1.269526571408624,0.8472654173497184,A,839.6072000032291,Correct,sub_012_day_22_data.csv,1,294,,Dual-Task at home,2.0,3.0,big,small,False,Size,left,left,1158.25209999457,Correct,1.0,0.826530612244898,
12,22,150,B,64.09417091435435,38.14282091065442,3.2047085457177173,0.5991460298005153,B,865.9278000122868,Correct,sub_012_day_22_data.csv,1,294,,Dual-Task at home,8.0,4.0,small,big,False,Value,left,left,844.1380000149366,Correct,1.0,0.826530612244898,
12,22,151,A,53.00734811629821,74.5245266749128,2.6503674058149107,1.170628527570813,A,718.4790000028443,Correct,sub_012_day_22_data.csv,1,294,,Dual-Task at home,6.0,5.0,small,big,False,Value,left,right,1945.0881999800913,Incorrect,0.0,0.826530612244898,
12,22,152,B,59.72176637351353,28.70734322730457,2.986088318675677,0.4509338929349036,B,582.793200010201,Correct,sub_012_day_22_data.csv,1,294,,Dual-Task at home,5.0,2.0,small,big,False,Value,left,left,741.2450000119861,Correct,1.0,0.826530612244898,
12,22,153,A,38.73656385208392,68.2715890484917,1.936828192604196,1.0724076130182143,A,915.0603000016416,Correct,sub_012_day_22_data.csv,1,294,,Dual-Task at home,2.0,8.0,small,big,True,Value,right,right,760.7811999914702,Correct,1.0,0.826530612244898,
12,22,154,A,37.63172008868783,65.90952275041094,1.8815860044343913,1.0353043623715017,A,597.5607000000309,Correct,sub_012_day_22_data.csv,1,294,,Dual-Task at home,5.0,7.0,big,small,False,Value,right,right,2169.145199994091,Correct,1.0,0.826530612244898,
12,22,155,A,16.818559187216426,41.15014630892409,0.8409279593608212,0.6463849866913054,A,583.0798000097275,Correct,sub_012_day_22_data.csv,1,294,,Dual-Task at home,2.0,4.0,big,small,False,Value,right,right,568.5100999835413,Correct,1.0,0.826530612244898,
12,22,156,B,66.05546233261359,45.04711868248109,3.3027731166306795,0.7075984855913504,B,762.8058000118472,Correct,sub_012_day_22_data.csv,1,294,,Dual-Task at home,7.0,3.0,small,big,False,Value,left,left,897.4067000090145,Correct,1.0,0.826530612244898,
12,22,157,A,38.43913601026296,66.56768572528692,1.921956800513148,1.0456427622051776,A,562.4458000238519,Correct,sub_012_day_22_data.csv,1,294,,Dual-Task at home,5.0,4.0,small,big,False,Size,right,right,1302.8362999903038,Correct,1.0,0.826530612244898,
12,22,158,B,70.69079141750909,55.93859946316091,3.5345395708754546,0.8786814656278412,B,446.01280000642873,Correct,sub_012_day_22_data.csv,1,294,,Dual-Task at home,8.0,2.0,small,big,False,Value,left,left,847.5390000094194,Correct,1.0,0.826530612244898,
12,22,159,A,31.645277941535312,46.682185100855435,1.5822638970767655,0.7332820488318316,A,553.3293000189587,Correct,sub_012_day_22_data.csv,1,294,,Dual-Task at home,4.0,5.0,big,small,False,Size,left,right,3500.4868999822065,Incorrect,0.0,0.826530612244898,
12,22,160,A,17.40586656630055,34.72415526824747,0.8702933283150274,0.5454457554641878,A,730.3673999849707,Correct,sub_012_day_22_data.csv,1,294,,Dual-Task at home,7.0,6.0,small,big,False,Value,left,left,1642.1517999842763,Correct,1.0,0.826530612244898,
12,22,161,B,51.33942011691321,43.90339813962769,2.5669710058456605,0.6896329653154107,A,1699.306800001068,Incorrect,sub_012_day_22_data.csv,0,294,,Dual-Task at home,2.0,6.0,big,small,False,Value,right,right,906.0506999958308,Correct,1.0,0.826530612244898,
12,22,162,B,87.30119774698943,64.99850474688151,4.365059887349472,1.0209941250356211,B,513.3228999911807,Correct,sub_012_day_22_data.csv,1,294,,Dual-Task at home,5.0,6.0,big,small,False,Size,left,left,1500.2548999909775,Correct,1.0,0.826530612244898,
12,22,163,A,53.43696284294587,76.6630141129923,2.6718481421472933,1.2042198096971362,A,735.9973999846261,Correct,sub_012_day_22_data.csv,1,294,,Dual-Task at home,5.0,8.0,small,big,True,Size,right,right,773.8962000003085,Correct,1.0,0.826530612244898,
12,22,164,B,39.389290730385824,28.43218307091094,1.969464536519291,0.4466116873054696,B,571.0072000219952,Correct,sub_012_day_22_data.csv,1,294,,Dual-Task at home,8.0,3.0,small,big,False,Size,right,right,1042.2248000104446,Correct,1.0,0.826530612244898,
12,22,165,A,49.01539998764527,67.13542804441185,2.4507699993822634,1.0545608376996525,A,695.7465000159573,Correct,sub_012_day_22_data.csv,1,294,,Dual-Task at home,7.0,6.0,small,big,False,Value,left,left,2121.618600009242,Correct,1.0,0.826530612244898,
12,22,166,A,61.98492186335517,78.64252635427849,3.0992460931677583,1.235313915271715,A,623.088699998334,Correct,sub_012_day_22_data.csv,1,294,,Dual-Task at home,7.0,2.0,small,big,False,Value,left,left,916.5791000123136,Correct,1.0,0.826530612244898,
12,22,167,B,50.006639418396105,22.038844161631967,2.500331970919805,0.3461853545589664,B,1147.199200000614,Correct,sub_012_day_22_data.csv,1,294,,Dual-Task at home,5.0,8.0,big,small,False,Size,left,left,3424.679499992635,Correct,1.0,0.826530612244898,
12,22,168,A,51.55424831257585,75.59069378374825,2.5777124156287927,1.1873758413538955,A,569.4726000074297,Correct,sub_012_day_22_data.csv,1,294,,Dual-Task at home,3.0,5.0,big,small,False,Size,left,left,904.2319000000134,Correct,1.0,0.826530612244898,
12,22,169,A,40.33785928658243,52.91111485957461,2.016892964329122,0.8311258486804266,B,2815.07110001985,Incorrect,sub_012_day_22_data.csv,0,294,,Dual-Task at home,3.0,7.0,big,small,False,Size,left,left,821.4400999713689,Correct,1.0,0.826530612244898,
12,22,170,A,27.21353008699536,42.87578209299636,1.360676504349768,0.6734912102013708,A,492.01330001233146,Correct,sub_012_day_22_data.csv,1,294,,Dual-Task at home,2.0,7.0,big,small,False,Value,right,right,815.4739000019617,Correct,1.0,0.826530612244898,
12,22,171,A,58.66107995592952,84.92459912518684,2.933053997796476,1.3339924836037258,A,666.1928999819793,Correct,sub_012_day_22_data.csv,1,294,,Dual-Task at home,4.0,5.0,big,small,False,Value,right,right,1303.1467999971935,Correct,1.0,0.826530612244898,
12,22,172,A,38.90097864371354,60.03319719732717,1.945048932185677,0.942999256433152,A,791.3043000153266,Correct,sub_012_day_22_data.csv,1,294,,Dual-Task at home,6.0,7.0,big,small,False,Value,right,right,1250.0943999912124,Correct,1.0,0.826530612244898,
12,22,173,A,63.37839351802885,86.3263012718819,3.168919675901442,1.3560103694366168,A,7123.157399997581,Correct,sub_012_day_22_data.csv,1,294,,Dual-Task at home,3.0,6.0,big,small,False,Size,left,left,824.4437999965157,Correct,1.0,0.826530612244898,
12,22,174,A,25.264978891917988,52.74160820623205,1.2632489445958994,0.8284632443960487,A,504.58310000249185,Correct,sub_012_day_22_data.csv,1,294,,Dual-Task at home,3.0,6.0,big,small,False,Size,left,left,677.9308999830391,Correct,1.0,0.826530612244898,
12,22,175,A,17.061360517612517,39.417292891854686,0.8530680258806258,0.6191653888672393,A,824.9533999769483,Correct,sub_012_day_22_data.csv,1,294,,Dual-Task at home,4.0,7.0,big,small,False,Value,right,right,1137.183200014988,Correct,1.0,0.826530612244898,
12,22,176,A,31.834974386146612,60.70430044012343,1.5917487193073303,0.953540921519997,A,1115.703899995424,Correct,sub_012_day_22_data.csv,1,294,,Dual-Task at home,7.0,6.0,small,big,False,Size,right,right,838.3587000134867,Correct,1.0,0.826530612244898,
12,22,177,B,71.27792615937726,43.0118616324204,3.563896307968863,0.6756287426081631,B,1190.0580000074117,Correct,sub_012_day_22_data.csv,1,294,,Dual-Task at home,3.0,5.0,big,small,False,Value,right,right,892.0510000025388,Correct,1.0,0.826530612244898,
12,22,178,B,54.32572239571416,24.119162261510887,2.716286119785708,0.3788629148575139,B,459.6142999944277,Correct,sub_012_day_22_data.csv,1,294,,Dual-Task at home,6.0,3.0,small,big,False,Size,right,right,776.6833000059705,Correct,1.0,0.826530612244898,
12,22,179,B,55.6870648793379,27.662674748327436,2.784353243966895,0.4345242788399467,B,683.5007000190672,Correct,sub_012_day_22_data.csv,1,294,,Dual-Task at home,3.0,4.0,small,big,True,Value,right,right,839.0502999827731,Correct,1.0,0.826530612244898,
12,22,180,B,59.308586282520224,42.39569140773031,2.965429314126011,0.6659499633519274,B,968.8090999843552,Correct,sub_012_day_22_data.csv,1,294,,Dual-Task at home,7.0,8.0,big,small,False,Size,left,right,4294.5493000152055,Incorrect,0.0,0.826530612244898,
12,22,181,B,47.45721156534543,26.415571882832687,2.3728605782672716,0.4149348328374013,B,484.0414999925997,Correct,sub_012_day_22_data.csv,1,294,,Dual-Task at home,7.0,3.0,small,big,False,Value,left,left,708.1287000037264,Correct,1.0,0.826530612244898,
12,22,182,A,38.24900561194416,56.4309344534483,1.9124502805972083,0.8864150455708018,A,776.3862000138033,Correct,sub_012_day_22_data.csv,1,294,,Dual-Task at home,5.0,7.0,big,small,False,Size,left,left,963.3933999866712,Correct,1.0,0.826530612244898,
12,22,183,A,36.228402293257865,59.28519877918028,1.8114201146628932,0.9312497247564168,A,708.52789998753,Correct,sub_012_day_22_data.csv,1,294,,Dual-Task at home,2.0,6.0,big,small,False,Size,left,left,2297.768799995538,Correct,1.0,0.826530612244898,
12,22,184,B,62.94669931729087,34.828736222767944,3.1473349658645433,0.5470885092563225,B,936.8972000083886,Correct,sub_012_day_22_data.csv,1,294,,Dual-Task at home,5.0,7.0,big,small,False,Size,left,left,1399.1192000103183,Correct,1.0,0.826530612244898,
12,22,185,A,46.11647543152581,58.27310160733964,2.30582377157629,0.9153517395575488,B,962.737499998184,Incorrect,sub_012_day_22_data.csv,0,294,,Dual-Task at home,5.0,7.0,big,small,False,Value,right,right,3994.231299991952,Correct,1.0,0.826530612244898,
12,22,186,A,34.85963249907506,66.12766013421523,1.7429816249537533,1.038730856383666,A,736.5554999851156,Correct,sub_012_day_22_data.csv,1,294,,Dual-Task at home,8.0,2.0,small,big,False,Value,left,left,341.0357000248041,Correct,1.0,0.826530612244898,
12,22,187,A,45.316972760707785,62.25234802673976,2.265848638035389,0.9778575961476036,A,4196.841900004074,Correct,sub_012_day_22_data.csv,1,294,,Dual-Task at home,2.0,4.0,big,small,False,Value,right,right,1396.47090001381,Correct,1.0,0.826530612244898,
12,22,188,A,42.281568861354536,73.36468936409841,2.114078443067727,1.152409845695744,A,660.0527999980841,Correct,sub_012_day_22_data.csv,1,294,,Dual-Task at home,4.0,6.0,big,small,False,Size,left,left,1170.3233000007458,Correct,1.0,0.826530612244898,
12,22,189,B,51.61706122143833,21.42802311597347,2.5808530610719163,0.3365906000104726,B,5812.322800018592,Correct,sub_012_day_22_data.csv,1,294,,Dual-Task at home,8.0,5.0,small,big,False,Size,right,left,1793.748800002504,Incorrect,0.0,0.826530612244898,
12,22,190,B,45.27923021317083,19.650805937923753,2.2639615106585413,0.3086741378584997,B,923.9898000087125,Correct,sub_012_day_22_data.csv,1,294,,Dual-Task at home,7.0,5.0,small,big,False,Value,left,left,871.3176999881398,Correct,1.0,0.826530612244898,
12,22,191,A,24.970970469167963,54.676622331107296,1.2485485234583982,0.8588583751925515,A,745.6759999913629,Correct,sub_012_day_22_data.csv,1,294,,Dual-Task at home,4.0,8.0,big,small,False,Size,left,right,1356.9589999970049,Incorrect,0.0,0.826530612244898,
12,22,192,A,39.95894766677745,65.79018725491756,1.9979473833388723,1.0334298447917292,A,581.4765999966767,Correct,sub_012_day_22_data.csv,1,294,,Dual-Task at home,6.0,2.0,small,big,False,Value,left,left,1822.45849998435,Correct,1.0,0.826530612244898,
12,22,193,A,13.590325456296169,40.5592708558423,0.6795162728148084,0.6371035367783638,A,686.6484000056516,Correct,sub_012_day_22_data.csv,1,294,,Dual-Task at home,5.0,8.0,big,small,False,Size,left,left,873.9919000072405,Correct,1.0,0.826530612244898,
12,22,194,A,61.06590906103416,87.04048168475792,3.0532954530517085,1.367228689128762,A,617.9084000177681,Correct,sub_012_day_22_data.csv,1,294,,Dual-Task at home,2.0,5.0,small,big,True,Value,right,right,654.5588000153657,Correct,1.0,0.826530612244898,
12,22,195,A,33.37759934928782,53.64223778678736,1.668879967464391,0.84261030076544,A,678.5080000117887,Correct,sub_012_day_22_data.csv,1,294,,Dual-Task at home,2.0,5.0,big,small,False,Size,left,left,1095.059699990088,Correct,1.0,0.826530612244898,
12,22,196,B,75.49219141462842,55.502715297574014,3.7746095707314216,0.8718346131657216,B,625.1495000033174,Correct,sub_012_day_22_data.csv,1,294,,Dual-Task at home,7.0,2.0,small,big,False,Value,left,right,1721.7985999886878,Incorrect,0.0,0.826530612244898,
12,22,197,B,41.94362793420943,21.77166944971453,2.0971813967104715,0.3419885839980424,B,634.7906999872066,Correct,sub_012_day_22_data.csv,1,294,,Dual-Task at home,2.0,7.0,small,big,True,Value,right,right,852.6166999945417,Correct,1.0,0.826530612244898,
12,22,198,B,49.20460484927126,29.20654360300702,2.460230242463563,0.4587753140997841,B,1087.1105000260286,Correct,sub_012_day_22_data.csv,1,294,,Dual-Task at home,4.0,6.0,big,small,False,Size,left,left,1482.0654999930412,Correct,1.0,0.826530612244898,
12,22,199,B,53.539881382466575,25.132289293532665,2.6769940691233285,0.3947770770622781,B,589.9203000008129,Correct,sub_012_day_22_data.csv,1,294,,Dual-Task at home,3.0,7.0,big,small,False,Size,left,left,635.6755000015255,Correct,1.0,0.826530612244898,
12,22,200,A,55.99643145864309,84.50120936623095,2.7998215729321543,1.3273418928220209,A,563.3716999727767,Correct,sub_012_day_22_data.csv,1,294,,Dual-Task at home,7.0,8.0,big,small,False,Size,left,left,634.2784999869764,Correct,1.0,0.826530612244898,
12,22,201,A,61.24280608361235,71.1288859858627,3.0621403041806174,1.1172899283560611,A,898.7408999819309,Correct,sub_012_day_22_data.csv,1,294,,Dual-Task at home,4.0,6.0,big,small,False,Size,left,left,1212.2931999911088,Correct,1.0,0.826530612244898,
12,22,202,A,51.36373475577828,76.43501099844771,2.5681867377889143,1.2006383451488918,A,675.0004999921657,Correct,sub_012_day_22_data.csv,1,294,,Dual-Task at home,5.0,2.0,small,big,False,Value,left,left,804.0737999835983,Correct,1.0,0.826530612244898,
12,22,203,A,21.24853229339571,46.43408791699706,1.0624266146697854,0.7293849473809028,A,517.4051999929361,Correct,sub_012_day_22_data.csv,1,294,,Dual-Task at home,2.0,4.0,big,small,False,Size,left,left,569.4041999813635,Correct,1.0,0.826530612244898,
12,22,204,A,23.16873497133532,39.28740140285606,1.1584367485667662,0.6171250581292297,A,4223.69039998739,Correct,sub_012_day_22_data.csv,1,294,,Dual-Task at home,6.0,3.0,small,big,False,Size,right,right,667.8290999843739,Correct,1.0,0.826530612244898,
12,22,205,B,74.42919267094129,50.424962518494596,3.721459633547064,0.7920734590282165,B,614.3857999995816,Correct,sub_012_day_22_data.csv,1,294,,Dual-Task at home,2.0,6.0,big,small,False,Value,right,right,1031.937799998559,Correct,1.0,0.826530612244898,
12,22,206,A,41.14495526469291,73.52383906045092,2.0572477632346455,1.1549097632801544,A,541.4832000096794,Correct,sub_012_day_22_data.csv,1,294,,Dual-Task at home,3.0,2.0,small,big,False,Size,right,right,3511.7668000166304,Correct,1.0,0.826530612244898,
12,22,207,A,25.906552298861367,50.5721997589434,1.2953276149430684,0.7943862561928603,A,536.8549999839161,Correct,sub_012_day_22_data.csv,1,294,,Dual-Task at home,5.0,7.0,big,small,False,Value,right,right,2066.7072999931406,Correct,1.0,0.826530612244898,
12,22,208,A,62.80690103907013,87.09887549422268,3.1403450519535063,1.36814593694291,A,619.2569000122603,Correct,sub_012_day_22_data.csv,1,294,,Dual-Task at home,5.0,7.0,big,small,False,Value,right,right,654.8811999964528,Correct,1.0,0.826530612244898,
12,22,209,A,41.631210980273586,73.97371445835141,2.081560549013679,1.1619763895055293,A,715.168700000504,Correct,sub_012_day_22_data.csv,1,294,,Dual-Task at home,7.0,3.0,small,big,False,Size,right,right,1115.5296999786517,Correct,1.0,0.826530612244898,
12,22,210,B,78.24357298195315,48.11512115272357,3.912178649097658,0.7557905556998962,B,677.5138000084553,Correct,sub_012_day_22_data.csv,1,294,,Dual-Task at home,2.0,3.0,big,small,False,Value,right,left,2951.3981000054628,Incorrect,0.0,0.826530612244898,
12,22,211,B,76.35666410538161,49.23465780952236,3.81783320526908,0.7733761963820138,B,1543.7769000127446,Correct,sub_012_day_22_data.csv,1,294,,Dual-Task at home,3.0,7.0,big,small,False,Size,left,left,756.0766999959014,Correct,1.0,0.826530612244898,
12,22,212,A,50.32057234033572,81.5363202018496,2.516028617016786,1.280769522734379,A,471.2838999985251,Correct,sub_012_day_22_data.csv,1,294,,Dual-Task at home,8.0,7.0,small,big,False,Value,left,left,897.4496999871917,Correct,1.0,0.826530612244898,
12,22,213,B,57.2085938840664,49.46608042181602,2.86042969420332,0.7770113742752954,B,603.7572000059299,Correct,sub_012_day_22_data.csv,1,294,,Dual-Task at home,6.0,2.0,small,big,False,Size,right,left,3526.985000004061,Incorrect,0.0,0.826530612244898,
12,22,214,A,33.3625190047773,42.56846975559472,1.668125950238865,0.6686639592936784,A,725.1424000132829,Correct,sub_012_day_22_data.csv,1,294,,Dual-Task at home,2.0,6.0,big,small,False,Size,left,left,447.1262999868486,Correct,1.0,0.826530612244898,
12,22,215,B,32.53300530853629,17.416988859259053,1.626650265426815,0.2735854212395175,B,505.14369999291375,Correct,sub_012_day_22_data.csv,1,294,,Dual-Task at home,5.0,3.0,small,big,False,Size,right,right,1377.835300023435,Correct,1.0,0.826530612244898,
12,22,216,A,57.8902545303191,84.29734926529702,2.894512726515955,1.3241396658447502,A,606.972500012489,Correct,sub_012_day_22_data.csv,1,294,,Dual-Task at home,2.0,6.0,big,small,False,Size,left,left,1582.8701999853365,Correct,1.0,0.826530612244898,
12,22,217,B,68.58036500494114,45.47283540739133,3.429018250247057,0.714285628268792,A,1462.2376000043005,Incorrect,sub_012_day_22_data.csv,0,294,,Dual-Task at home,2.0,4.0,big,small,False,Value,right,right,1706.6262000007555,Correct,1.0,0.826530612244898,
12,22,218,B,58.59356500264417,39.13433927090058,2.9296782501322083,0.614720763782759,B,891.3092000002507,Correct,sub_012_day_22_data.csv,1,294,,Dual-Task at home,8.0,3.0,small,big,False,Size,right,left,2211.665899987566,Incorrect,0.0,0.826530612244898,
12,22,219,A,46.331094413009474,56.68426579023039,2.316554720650474,0.890394364903595,A,979.2781999858562,Correct,sub_012_day_22_data.csv,1,294,,Dual-Task at home,4.0,6.0,small,big,True,Size,right,right,843.4474999958184,Correct,1.0,0.826530612244898,
12,22,220,B,65.26024753856763,42.610706410830176,3.263012376928381,0.6693274111226778,B,738.2631999789737,Correct,sub_012_day_22_data.csv,1,294,,Dual-Task at home,8.0,5.0,big,small,True,Value,left,left,755.8473999961279,Correct,1.0,0.826530612244898,
12,22,221,B,63.580560827163225,50.77986172094185,3.1790280413581615,0.7976482026640823,B,1253.7844000034966,Correct,sub_012_day_22_data.csv,1,294,,Dual-Task at home,7.0,6.0,small,big,False,Size,right,right,945.1485000026878,Correct,1.0,0.826530612244898,
12,22,222,B,76.75812653869053,44.773508540645,3.837906326934527,0.7033006275336509,B,599.1792000131682,Correct,sub_012_day_22_data.csv,1,294,,Dual-Task at home,5.0,8.0,big,small,False,Value,right,right,929.1610999789556,Correct,1.0,0.826530612244898,
12,22,223,B,74.56289649064463,43.53388135096099,3.7281448245322313,0.6838286091721439,B,806.0322999954224,Correct,sub_012_day_22_data.csv,1,294,,Dual-Task at home,6.0,2.0,small,big,False,Value,left,left,1849.5771999878343,Correct,1.0,0.826530612244898,
12,22,224,A,61.26641573173124,83.76302459185062,3.063320786586562,1.3157465135010955,A,831.7159999860451,Correct,sub_012_day_22_data.csv,1,294,,Dual-Task at home,5.0,8.0,big,small,False,Size,left,left,1078.4321000101045,Correct,1.0,0.826530612244898,
12,22,225,B,83.89498824415814,68.41857313715369,4.194749412207907,1.07471643368389,A,752.5591000157874,Incorrect,sub_012_day_22_data.csv,0,294,,Dual-Task at home,5.0,4.0,small,big,False,Size,right,right,1005.9776999987662,Correct,1.0,0.826530612244898,
12,22,226,B,73.66267645908222,57.45480927250749,3.683133822954111,0.9024980336195612,B,1586.2983999832068,Correct,sub_012_day_22_data.csv,1,294,,Dual-Task at home,7.0,4.0,small,big,False,Size,right,right,835.6914999894798,Correct,1.0,0.826530612244898,
12,22,227,A,17.68122674216305,40.96342529369049,0.8840613371081525,0.6434519798426618,A,529.2262000148185,Correct,sub_012_day_22_data.csv,1,294,,Dual-Task at home,4.0,8.0,big,small,False,Value,right,right,506.33649999508634,Correct,1.0,0.826530612244898,
12,22,228,A,30.02636222845764,45.53203693479012,1.501318111422882,0.7152155636865789,A,805.1577000005636,Correct,sub_012_day_22_data.csv,1,294,,Dual-Task at home,8.0,7.0,small,big,False,Value,left,left,2010.5451999988873,Correct,1.0,0.826530612244898,
12,22,229,A,52.076771295529376,80.05864825173563,2.603838564776469,1.25755830601991,A,468.7254000164103,Correct,sub_012_day_22_data.csv,1,294,,Dual-Task at home,4.0,6.0,big,small,False,Size,left,right,1546.9297999807168,Incorrect,0.0,0.826530612244898,
12,22,230,A,45.599046746127584,76.36839481547584,2.279952337306379,1.1995919405937188,A,749.6793000027537,Correct,sub_012_day_22_data.csv,1,294,,Dual-Task at home,2.0,4.0,big,small,False,Size,left,left,861.353499989491,Correct,1.0,0.826530612244898,
12,22,231,A,46.13123317773386,74.66550125946628,2.306561658886693,1.1728429511666936,A,705.384500004584,Correct,sub_012_day_22_data.csv,1,294,,Dual-Task at home,5.0,2.0,big,small,True,Size,left,left,683.5266000125557,Correct,1.0,0.826530612244898,
12,22,232,B,67.57694985569357,47.80504143485339,3.3788474927846783,0.7509198348814553,B,679.857599985553,Correct,sub_012_day_22_data.csv,1,294,,Dual-Task at home,7.0,2.0,small,big,False,Size,right,left,2637.4100999964867,Incorrect,0.0,0.826530612244898,
12,22,233,A,43.55071201184016,58.48625237814035,2.1775356005920083,0.9186999040358216,A,973.159899993334,Correct,sub_012_day_22_data.csv,1,294,,Dual-Task at home,6.0,2.0,small,big,False,Value,left,left,1591.7916000180412,Correct,1.0,0.826530612244898,
12,22,234,B,60.494806805341874,38.920868754369934,3.0247403402670936,0.6113675767503055,B,613.3590999816079,Correct,sub_012_day_22_data.csv,1,294,,Dual-Task at home,2.0,7.0,big,small,False,Size,left,left,1007.2504999989178,Correct,1.0,0.826530612244898,
12,22,235,A,20.756779068149065,44.43512968293622,1.0378389534074532,0.6979853848661111,A,780.704800010426,Correct,sub_012_day_22_data.csv,1,294,,Dual-Task at home,8.0,7.0,small,big,False,Size,right,left,1089.0701999887824,Incorrect,0.0,0.826530612244898,
12,22,236,A,31.51689132620735,63.88016275986984,1.5758445663103675,1.003427250182637,A,739.9545999942347,Correct,sub_012_day_22_data.csv,1,294,,Dual-Task at home,4.0,2.0,big,small,True,Value,left,left,1220.529300015187,Correct,1.0,0.826530612244898,
12,22,237,B,89.39069231153874,68.21333265923793,4.469534615576936,1.071492523795693,B,1090.159399987897,Correct,sub_012_day_22_data.csv,1,294,,Dual-Task at home,5.0,6.0,big,small,False,Value,right,left,2170.4235000070184,Incorrect,0.0,0.826530612244898,
12,22,238,B,47.76296319465486,33.90584199812996,2.3881481597327427,0.5325917206755068,B,771.3600999850314,Correct,sub_012_day_22_data.csv,1,294,,Dual-Task at home,7.0,2.0,small,big,False,Size,right,right,993.8274000014644,Correct,1.0,0.826530612244898,
12,22,239,A,48.08961447051168,67.51852547216231,2.404480723525584,1.0605785180228022,A,735.3025999909732,Correct,sub_012_day_22_data.csv,1,294,,Dual-Task at home,4.0,8.0,big,small,False,Value,right,right,1279.9471000034828,Correct,1.0,0.826530612244898,
12,22,240,A,24.624741560433392,37.21215857359902,1.2312370780216697,0.5845272199951855,A,1150.1697000057902,Correct,sub_012_day_22_data.csv,1,294,,Dual-Task at home,2.0,5.0,big,small,False,Size,left,right,2363.6970999941695,Incorrect,0.0,0.826530612244898,
12,22,241,A,47.782054301610245,64.50257445344249,2.389102715080512,1.013204070202818,A,568.1596999929752,Correct,sub_012_day_22_data.csv,1,294,,Dual-Task at home,4.0,3.0,big,small,True,Size,left,left,894.0758999960963,Correct,1.0,0.826530612244898,
12,22,242,A,21.19138617677534,39.272879742441425,1.059569308838767,0.616896952420847,A,694.3489999976009,Correct,sub_012_day_22_data.csv,1,294,,Dual-Task at home,8.0,3.0,big,small,True,Size,left,left,641.6659000096843,Correct,1.0,0.826530612244898,
12,22,243,B,63.42227528892454,47.85643041720341,3.171113764446227,0.7517270511285867,B,899.6058999910019,Correct,sub_012_day_22_data.csv,1,294,,Dual-Task at home,5.0,3.0,small,big,False,Value,left,left,718.4400999976788,Correct,1.0,0.826530612244898,
12,22,244,A,43.62440741800516,74.6343752890209,2.1812203709002578,1.172354025566258,A,2630.745600006776,Correct,sub_012_day_22_data.csv,1,294,,Dual-Task at home,6.0,3.0,small,big,False,Value,left,right,4128.314199973829,Incorrect,0.0,0.826530612244898,
12,22,245,A,69.06608819859993,84.5874805254739,3.4533044099299963,1.3286970370224922,A,783.5455999884289,Correct,sub_012_day_22_data.csv,1,294,,Dual-Task at home,6.0,7.0,big,small,False,Value,right,right,1180.5044000211635,Correct,1.0,0.826530612244898,
12,22,246,B,37.12398835766124,16.065038675068266,1.856199417883062,0.2523490374061518,B,822.4957000056747,Correct,sub_012_day_22_data.csv,1,294,,Dual-Task at home,7.0,3.0,small,big,False,Size,right,right,1460.352399997646,Correct,1.0,0.826530612244898,
12,22,247,B,59.376671007303614,50.23031277754546,2.968833550365181,0.7890159080472716,B,2265.971400018316,Correct,sub_012_day_22_data.csv,1,294,,Dual-Task at home,6.0,7.0,big,small,False,Value,right,right,876.3908999972045,Correct,1.0,0.826530612244898,
12,22,248,B,34.78427018315632,11.057747638362668,1.739213509157816,0.1736946937296501,B,942.8689999913332,Correct,sub_012_day_22_data.csv,1,294,,Dual-Task at home,5.0,4.0,small,big,False,Value,left,left,1267.1733000024687,Correct,1.0,0.826530612244898,
12,22,249,B,31.03193777905459,13.424835441087858,1.5515968889527298,0.2108768219868675,B,1183.8348000019323,Correct,sub_012_day_22_data.csv,1,294,,Dual-Task at home,7.0,3.0,big,small,True,Value,left,left,1269.8608000064269,Correct,1.0,0.826530612244898,
12,22,250,B,74.5230851868865,42.51890820097513,3.7261542593443258,0.6678854482142114,B,1141.5963000035845,Correct,sub_012_day_22_data.csv,1,294,,Dual-Task at home,2.0,5.0,big,small,False,Value,right,right,816.0493000177667,Correct,1.0,0.826530612244898,
12,22,251,B,76.91099812889297,61.87990583027427,3.845549906444648,0.9720072878060892,B,1064.7613999899477,Correct,sub_012_day_22_data.csv,1,294,,Dual-Task at home,3.0,4.0,big,small,False,Value,right,right,617.8660999867134,Correct,1.0,0.826530612244898,
12,22,252,B,74.64314602282852,55.38386493822662,3.732157301141426,0.8699677160867103,B,517.5125999958254,Correct,sub_012_day_22_data.csv,1,294,,Dual-Task at home,6.0,4.0,small,big,False,Size,right,right,1230.9188000217546,Correct,1.0,0.826530612244898,
12,22,253,B,37.98644658944802,22.636948603157386,1.8993223294724009,0.3555803571568448,B,570.6724999763537,Correct,sub_012_day_22_data.csv,1,294,,Dual-Task at home,8.0,5.0,big,small,True,Value,left,left,684.1004000161774,Correct,1.0,0.826530612244898,
12,22,254,A,44.27002540080331,76.53066207628103,2.2135012700401657,1.2021408287660371,A,764.7188999981154,Correct,sub_012_day_22_data.csv,1,294,,Dual-Task at home,7.0,6.0,small,big,False,Value,left,left,466.88130000256933,Correct,1.0,0.826530612244898,
12,22,255,B,52.1558877353006,42.37122294794982,2.60779438676503,0.6655656136844721,B,634.6198000246659,Correct,sub_012_day_22_data.csv,1,294,,Dual-Task at home,5.0,3.0,small,big,False,Size,right,right,1166.3238999899477,Correct,1.0,0.826530612244898,
12,22,256,B,59.087139227540696,40.0529607317383,2.954356961377034,0.6291504359467476,B,545.8801999920979,Correct,sub_012_day_22_data.csv,1,294,,Dual-Task at home,6.0,2.0,small,big,False,Size,right,right,1537.6323999953456,Correct,1.0,0.826530612244898,
12,22,257,A,35.483276124999875,45.04561020942339,1.7741638062499936,0.7075747905519694,A,692.2562999825459,Correct,sub_012_day_22_data.csv,1,294,,Dual-Task at home,2.0,3.0,big,small,False,Size,left,right,4523.962899984326,Incorrect,0.0,0.826530612244898,
12,22,258,A,19.65182583673325,34.21615370497875,0.9825912918366624,0.5374660855683021,A,735.413399990648,Correct,sub_012_day_22_data.csv,1,294,,Dual-Task at home,4.0,5.0,big,small,False,Size,left,left,800.1558000105433,Correct,1.0,0.826530612244898,
12,22,259,A,54.57316883235774,76.92815967877934,2.728658441617887,1.2083847065051785,A,856.7549999861512,Correct,sub_012_day_22_data.csv,1,294,,Dual-Task at home,4.0,3.0,small,big,False,Value,left,left,1528.321899997536,Correct,1.0,0.826530612244898,
12,22,260,A,20.71075353969792,42.29495934681955,1.035537676984896,0.6643676678392363,A,915.2162999962457,Correct,sub_012_day_22_data.csv,1,294,,Dual-Task at home,2.0,8.0,big,small,False,Value,right,right,800.0196999928448,Correct,1.0,0.826530612244898,
12,22,261,A,64.96871629044081,86.44082211584478,3.24843581452204,1.3578092586470003,A,728.8783999974839,Correct,sub_012_day_22_data.csv,1,294,,Dual-Task at home,8.0,7.0,small,big,False,Size,right,left,631.2072000000626,Incorrect,0.0,0.826530612244898,
12,22,262,A,64.00177451263694,87.2181332077682,3.200088725631847,1.370019232726703,A,667.4840000050608,Correct,sub_012_day_22_data.csv,1,294,,Dual-Task at home,3.0,5.0,small,big,True,Value,right,right,311.01249999483116,Correct,1.0,0.826530612244898,
12,22,263,B,65.25949394926299,54.41701119477634,3.2629746974631497,0.8547804129991144,B,1000.6084000051488,Correct,sub_012_day_22_data.csv,1,294,,Dual-Task at home,4.0,7.0,big,small,False,Value,right,right,841.475299996091,Correct,1.0,0.826530612244898,
12,22,264,A,16.629524564793762,34.954370740716726,0.8314762282396881,0.5490619716494484,A,631.1433999799192,Correct,sub_012_day_22_data.csv,1,294,,Dual-Task at home,2.0,5.0,big,small,False,Size,left,left,866.9195999973454,Correct,1.0,0.826530612244898,
12,22,265,B,88.99453955734091,68.41482605183319,4.449726977867045,1.0746575746053135,B,728.2438999973238,Correct,sub_012_day_22_data.csv,1,294,,Dual-Task at home,5.0,3.0,big,small,True,Size,left,left,1516.463699983433,Correct,1.0,0.826530612244898,
12,22,266,B,61.19658147579251,36.55784880682977,3.0598290737896257,0.5742493462129138,B,1054.6582999813836,Correct,sub_012_day_22_data.csv,1,294,,Dual-Task at home,7.0,4.0,small,big,False,Size,right,right,1294.217100017704,Correct,1.0,0.826530612244898,
12,22,267,B,75.46360783906442,51.59925435859803,3.773180391953221,0.8105191921184136,B,1106.099199998425,Correct,sub_012_day_22_data.csv,1,294,,Dual-Task at home,8.0,6.0,big,small,True,Size,left,right,2940.2262000076007,Incorrect,0.0,0.826530612244898,
12,22,268,B,82.70624629759442,64.1929853100405,4.135312314879721,1.0083410553101038,B,1558.0009999976028,Correct,sub_012_day_22_data.csv,1,294,,Dual-Task at home,7.0,4.0,small,big,False,Size,right,left,861.3080999930389,Incorrect,0.0,0.826530612244898,
12,22,269,B,65.37639928320968,36.22675844969475,3.268819964160484,0.5690485910446649,B,474.9817000119947,Correct,sub_012_day_22_data.csv,1,294,,Dual-Task at home,4.0,7.0,big,small,False,Size,left,left,593.1459999992512,Correct,1.0,0.826530612244898,
12,22,270,A,39.73223509311612,66.80691441616116,1.9866117546558055,1.0494005576940697,A,1063.5336999839635,Correct,sub_012_day_22_data.csv,1,294,,Dual-Task at home,7.0,8.0,big,small,False,Value,right,right,366.3183999888133,Correct,1.0,0.826530612244898,
12,22,271,A,55.9175170918791,65.60009426561572,2.795875854593955,1.0304438710982815,A,1412.982700014254,Correct,sub_012_day_22_data.csv,1,294,,Dual-Task at home,5.0,4.0,small,big,False,Size,right,right,884.5231999875978,Correct,1.0,0.826530612244898,
12,22,272,A,48.01369247099157,59.40903178172608,2.4006846235495787,0.9331948890117658,A,1720.670799986692,Correct,sub_012_day_22_data.csv,1,294,,Dual-Task at home,7.0,6.0,small,big,False,Value,left,left,910.0742999871728,Correct,1.0,0.826530612244898,
12,22,273,B,60.400389332446736,53.07922369908535,3.0200194666223363,0.8337664961564788,A,764.8726000043098,Incorrect,sub_012_day_22_data.csv,0,294,,Dual-Task at home,7.0,6.0,small,big,False,Value,left,left,990.2467000065373,Correct,1.0,0.826530612244898,
12,22,274,A,50.81120385193351,75.8207502794942,2.5405601925966756,1.190989560338626,A,1328.742700017756,Correct,sub_012_day_22_data.csv,1,294,,Dual-Task at home,3.0,6.0,big,small,False,Value,right,right,603.1086999864783,Correct,1.0,0.826530612244898,
12,22,275,B,66.83833827469194,40.13383694204302,3.3419169137345968,0.630420836487465,B,629.1868999833241,Correct,sub_012_day_22_data.csv,1,294,,Dual-Task at home,2.0,3.0,big,small,False,Value,right,right,1189.521600026637,Correct,1.0,0.826530612244898,
12,22,276,B,70.72825555510228,44.54033848663798,3.536412777755114,0.699638000890123,B,503.99719999404624,Correct,sub_012_day_22_data.csv,1,294,,Dual-Task at home,2.0,5.0,big,small,False,Size,left,left,560.6346999993548,Correct,1.0,0.826530612244898,
12,22,277,A,51.87477202629432,76.60549214893433,2.593738601314716,1.203316256798613,A,572.0623999950476,Correct,sub_012_day_22_data.csv,1,294,,Dual-Task at home,7.0,3.0,big,small,True,Size,left,left,648.5545999894384,Correct,1.0,0.826530612244898,
12,22,278,A,23.9648325748223,52.02160677844482,1.1982416287411148,0.8171534884154961,A,665.3968000027817,Correct,sub_012_day_22_data.csv,1,294,,Dual-Task at home,2.0,8.0,big,small,False,Size,left,left,917.1107000147458,Correct,1.0,0.826530612244898,
12,22,279,B,67.6620202655929,50.87723944141917,3.383101013279645,0.7991778083204565,B,953.5619000089356,Correct,sub_012_day_22_data.csv,1,294,,Dual-Task at home,2.0,5.0,big,small,False,Size,left,left,642.2719999973197,Correct,1.0,0.826530612244898,
12,22,280,A,34.97459829370811,53.584233048245096,1.7487299146854056,0.8416991644630509,A,1003.8046000117902,Correct,sub_012_day_22_data.csv,1,294,,Dual-Task at home,2.0,7.0,small,big,True,Size,right,right,1549.6084000042174,Correct,1.0,0.826530612244898,
12,22,281,A,46.791165133811646,60.01506913344985,2.3395582566905824,0.942714501471648,B,658.5679999843705,Incorrect,sub_012_day_22_data.csv,0,294,,Dual-Task at home,2.0,4.0,big,small,False,Size,left,left,2243.362999986857,Correct,1.0,0.826530612244898,
12,22,282,B,58.150421937313475,33.23904734548097,2.9075210968656737,0.5221177347644317,B,1265.8791999856476,Correct,sub_012_day_22_data.csv,1,294,,Dual-Task at home,3.0,5.0,big,small,False,Size,left,right,603.7660999863874,Incorrect,0.0,0.826530612244898,
12,22,283,B,66.21745631534068,32.96839727138666,3.3108728157670337,0.5178663733420905,B,541.8997000087984,Correct,sub_012_day_22_data.csv,1,294,,Dual-Task at home,2.0,6.0,small,big,True,Value,right,right,1833.1103999807965,Correct,1.0,0.826530612244898,
12,22,284,A,35.81418246481307,53.508986216596874,1.7907091232406538,0.8405171899954911,A,598.0372999911197,Correct,sub_012_day_22_data.csv,1,294,,Dual-Task at home,7.0,6.0,big,small,True,Size,left,left,1169.857700006105,Correct,1.0,0.826530612244898,
12,22,285,B,55.536196307812745,43.38003968924036,2.7768098153906373,0.6814120700007559,B,718.0259000160731,Correct,sub_012_day_22_data.csv,1,294,,Dual-Task at home,3.0,4.0,big,small,False,Size,left,left,6351.21250001248,Correct,1.0,0.826530612244898,
12,22,286,B,65.96983955403044,40.02931533622757,3.2984919777015222,0.6287790149426088,B,593.5430999961682,Correct,sub_012_day_22_data.csv,1,294,,Dual-Task at home,8.0,3.0,small,big,False,Size,right,right,1113.4332999936305,Correct,1.0,0.826530612244898,
12,22,287,B,61.956319548163506,48.65087362791483,3.097815977408175,0.764206135900913,B,615.5499999877065,Correct,sub_012_day_22_data.csv,1,294,,Dual-Task at home,3.0,7.0,big,small,False,Size,left,left,708.4397000144236,Correct,1.0,0.826530612244898,
12,22,288,A,27.860377005517833,53.38642568699224,1.3930188502758916,0.8385920136983612,A,806.6831000032835,Correct,sub_012_day_22_data.csv,1,294,,Dual-Task at home,5.0,7.0,big,small,False,Value,right,right,1515.501799993217,Correct,1.0,0.826530612244898,
12,22,289,B,40.66753107048842,22.45024638163349,2.033376553524421,0.3526476455191031,B,651.3462000002619,Correct,sub_012_day_22_data.csv,1,294,,Dual-Task at home,4.0,2.0,small,big,False,Value,left,right,2156.782400008524,Incorrect,0.0,0.826530612244898,
12,22,290,B,62.23003022109658,53.36201812780921,3.111501511054829,0.8382086206552538,B,573.6305999744218,Correct,sub_012_day_22_data.csv,1,294,,Dual-Task at home,6.0,3.0,big,small,True,Value,left,left,2068.442799994955,Correct,1.0,0.826530612244898,
12,22,291,B,71.5284686466246,55.424326782202414,3.5764234323312305,0.8706032892456357,B,606.5828000137117,Correct,sub_012_day_22_data.csv,1,294,,Dual-Task at home,2.0,7.0,big,small,False,Size,left,left,2799.564399989322,Correct,1.0,0.826530612244898,
12,22,292,A,62.55541055833314,79.00033344707708,3.127770527916657,1.240934335942407,A,859.863999998197,Correct,sub_012_day_22_data.csv,1,294,,Dual-Task at home,8.0,4.0,small,big,False,Size,right,left,4396.032899996499,Incorrect,0.0,0.826530612244898,
12,22,293,B,77.00477001346117,45.991063656441675,3.850238500673058,0.7224259385692885,B,770.4435999912675,Correct,sub_012_day_22_data.csv,1,294,,Dual-Task at home,8.0,3.0,small,big,False,Size,right,right,1330.1194999949075,Correct,1.0,0.826530612244898,
