subject,day,trial,cat,x,y,xt,yt,resp,rt,fb,f_name,acc,n_trials,block,session_type,ns_left_digit,ns_right_digit,ns_left_size,ns_right_size,ns_congruent,ns_cue,ns_correct_side,ns_resp,ns_rt,ns_fb,acc_stroop,acc_stroop_mean,resp_key
12,18,3900,A,32.02218434332247,57.29686752281477,1.6011092171661234,0.9000170904169126,A,636.6736999480054,Correct,sub_012_day_18_data.csv,1,300,156.0,Training at home,,,,,,,,,,,,,
12,18,3901,A,10.489153123378276,31.25796782938261,0.5244576561689138,0.4909990104946725,A,474.76299991831183,Correct,sub_012_day_18_data.csv,1,300,156.0,Training at home,,,,,,,,,,,,,
12,18,3902,B,80.66825924944057,53.725480540536275,4.0334129624720285,0.8439178748836508,B,956.1348999850452,Correct,sub_012_day_18_data.csv,1,300,156.0,Training at home,,,,,,,,,,,,,
12,18,3903,A,38.64513339094866,69.76417100290737,1.932256669547433,1.0958530355325795,A,1084.812599932775,Correct,sub_012_day_18_data.csv,1,300,156.0,Training at home,,,,,,,,,,,,,
12,18,3904,A,38.69981210442774,51.13892036975336,1.934990605221387,0.8032882827306529,A,421.02929996326566,Correct,sub_012_day_18_data.csv,1,300,156.0,Training at home,,,,,,,,,,,,,
12,18,3905,B,61.7776321928265,47.846942035557326,3.088881609641325,0.7515780079782178,A,669.2167998990044,Incorrect,sub_012_day_18_data.csv,0,300,156.0,Training at home,,,,,,,,,,,,,
12,18,3906,A,46.408923734223855,65.1622425529679,2.3204461867111927,1.0235661124792008,A,639.3800999503583,Correct,sub_012_day_18_data.csv,1,300,156.0,Training at home,,,,,,,,,,,,,
12,18,3907,B,62.1816818550921,43.097553944139975,3.109084092754605,0.6769747942929998,B,1341.9376000529155,Correct,sub_012_day_18_data.csv,1,300,156.0,Training at home,,,,,,,,,,,,,
12,18,3908,B,42.86152458165715,31.286566452884376,2.1430762290828573,0.4914482366221522,A,573.439999949187,Incorrect,sub_012_day_18_data.csv,0,300,156.0,Training at home,,,,,,,,,,,,,
12,18,3909,B,41.5760745798159,32.80519106210717,2.078803728990795,0.5153027362016271,A,613.0939000286162,Incorrect,sub_012_day_18_data.csv,0,300,156.0,Training at home,,,,,,,,,,,,,
12,18,3910,B,76.04735319216967,64.56477183855863,3.802367659608484,1.014181064443585,B,583.0280999653041,Correct,sub_012_day_18_data.csv,1,300,156.0,Training at home,,,,,,,,,,,,,
12,18,3911,A,64.29715773886143,86.96710593807853,3.2148578869430713,1.366076105595164,A,492.0738000655547,Correct,sub_012_day_18_data.csv,1,300,156.0,Training at home,,,,,,,,,,,,,
12,18,3912,A,17.45922583532714,34.61017844844068,0.8729612917663571,0.5436554117652651,A,433.3430000115186,Correct,sub_012_day_18_data.csv,1,300,156.0,Training at home,,,,,,,,,,,,,
12,18,3913,A,20.47482632733013,36.07767988901121,1.0237413163665066,0.5667068704894092,A,474.2118999129161,Correct,sub_012_day_18_data.csv,1,300,156.0,Training at home,,,,,,,,,,,,,
12,18,3914,A,25.78721162208482,41.77692561801674,1.2893605811042408,0.6562304130556432,A,495.84399990271777,Correct,sub_012_day_18_data.csv,1,300,156.0,Training at home,,,,,,,,,,,,,
12,18,3915,B,66.21546822418567,35.99895686864153,3.3107734112092833,0.5654702921771002,B,711.4538000896573,Correct,sub_012_day_18_data.csv,1,300,156.0,Training at home,,,,,,,,,,,,,
12,18,3916,B,71.11073514518765,40.39651627709964,3.555536757259382,0.6345469938337837,B,611.5869000786915,Correct,sub_012_day_18_data.csv,1,300,156.0,Training at home,,,,,,,,,,,,,
12,18,3917,A,48.50320605889511,77.90785691626535,2.4251603029447555,1.2237737547253198,A,442.97089998144656,Correct,sub_012_day_18_data.csv,1,300,156.0,Training at home,,,,,,,,,,,,,
12,18,3918,B,62.87125755673343,34.59040302491846,3.1435628778366715,0.5433447801389699,B,472.6775001036003,Correct,sub_012_day_18_data.csv,1,300,156.0,Training at home,,,,,,,,,,,,,
12,18,3919,A,37.53906202421623,70.01656497029637,1.8769531012108116,1.0998176307013776,A,443.4120000805706,Correct,sub_012_day_18_data.csv,1,300,156.0,Training at home,,,,,,,,,,,,,
12,18,3920,B,55.17704628673049,42.984163816206575,2.7588523143365244,0.675193666328474,B,601.7478000139818,Correct,sub_012_day_18_data.csv,1,300,156.0,Training at home,,,,,,,,,,,,,
12,18,3921,A,40.24840552903242,53.52138807684512,2.012420276451621,0.8407119979607249,A,422.26230003871024,Correct,sub_012_day_18_data.csv,1,300,156.0,Training at home,,,,,,,,,,,,,
12,18,3922,A,46.62218378370338,68.48163045298635,2.331109189185169,1.0757069356847648,A,473.8274000119418,Correct,sub_012_day_18_data.csv,1,300,156.0,Training at home,,,,,,,,,,,,,
12,18,3923,B,66.84476819696782,50.016236301989096,3.3422384098483913,0.7856532026327002,B,514.7045000921935,Correct,sub_012_day_18_data.csv,1,300,156.0,Training at home,,,,,,,,,,,,,
12,18,3924,A,55.4996894151692,72.16026278105781,2.77498447075846,1.1334907571704007,A,562.002099934034,Correct,sub_012_day_18_data.csv,1,300,156.0,Training at home,,,,,,,,,,,,,
12,18,3925,B,69.19848149292383,44.737286522883515,3.459924074646192,0.7027316534091625,B,395.4551999922842,Correct,sub_012_day_18_data.csv,1,300,157.0,Training at home,,,,,,,,,,,,,
12,18,3926,B,38.226094593814565,17.95089697035493,1.911304729690728,0.2819720302370715,B,598.7996999174356,Correct,sub_012_day_18_data.csv,1,300,157.0,Training at home,,,,,,,,,,,,,
12,18,3927,B,58.03332104367227,49.908316445059846,2.901666052183613,0.7839580014841733,B,481.59099998883903,Correct,sub_012_day_18_data.csv,1,300,157.0,Training at home,,,,,,,,,,,,,
12,18,3928,A,45.43224143334238,61.042052760102024,2.271612071667118,0.9588463225558852,A,419.10709999501705,Correct,sub_012_day_18_data.csv,1,300,157.0,Training at home,,,,,,,,,,,,,
12,18,3929,A,12.271629809604004,39.96437278422951,0.6135814904802003,0.6277588997212965,A,444.0712999785319,Correct,sub_012_day_18_data.csv,1,300,157.0,Training at home,,,,,,,,,,,,,
12,18,3930,A,59.84434087339045,85.62184314519742,2.992217043669523,1.344944767058849,A,477.99769998528063,Correct,sub_012_day_18_data.csv,1,300,157.0,Training at home,,,,,,,,,,,,,
12,18,3931,B,64.0130386802703,56.55508939720383,3.200651934013515,0.8883652668668478,B,594.043800025247,Correct,sub_012_day_18_data.csv,1,300,157.0,Training at home,,,,,,,,,,,,,
12,18,3932,B,69.62803935751786,51.206969564926126,3.481401967875893,0.8043571969888401,B,451.14070002455264,Correct,sub_012_day_18_data.csv,1,300,157.0,Training at home,,,,,,,,,,,,,
12,18,3933,B,68.98558935772894,59.478464106441706,3.449279467886447,0.9342855294180074,B,438.7493999674916,Correct,sub_012_day_18_data.csv,1,300,157.0,Training at home,,,,,,,,,,,,,
12,18,3934,A,39.44656300076225,72.56261236061651,1.972328150038112,1.1398108495869836,A,422.7344000246376,Correct,sub_012_day_18_data.csv,1,300,157.0,Training at home,,,,,,,,,,,,,
12,18,3935,A,52.9377568875757,69.15409533601769,2.646887844378785,1.0862699893664067,A,474.1079000523314,Correct,sub_012_day_18_data.csv,1,300,157.0,Training at home,,,,,,,,,,,,,
12,18,3936,B,71.98010200098243,53.00208658892946,3.599005100049121,0.8325548292635545,B,411.6142999846488,Correct,sub_012_day_18_data.csv,1,300,157.0,Training at home,,,,,,,,,,,,,
12,18,3937,A,13.35994979534232,31.30130395446147,0.6679974897671159,0.4916797327555864,A,400.8975999895483,Correct,sub_012_day_18_data.csv,1,300,157.0,Training at home,,,,,,,,,,,,,
12,18,3938,A,46.1915055139348,70.08074954987669,2.30957527569674,1.100825839719794,A,602.9774999478832,Correct,sub_012_day_18_data.csv,1,300,157.0,Training at home,,,,,,,,,,,,,
12,18,3939,B,39.56498503306889,12.35509161327304,1.978249251653445,0.1940733252334372,B,459.7444999963045,Correct,sub_012_day_18_data.csv,1,300,157.0,Training at home,,,,,,,,,,,,,
12,18,3940,A,55.48630079764026,79.87174048827592,2.7743150398820133,1.2546223657369902,A,447.96499994117767,Correct,sub_012_day_18_data.csv,1,300,157.0,Training at home,,,,,,,,,,,,,
12,18,3941,A,47.18010157114058,63.252455426256546,2.359005078557029,0.9935672464432171,A,426.4153999974951,Correct,sub_012_day_18_data.csv,1,300,157.0,Training at home,,,,,,,,,,,,,
12,18,3942,B,62.478381995815944,43.943456258061744,3.1239190997907973,0.690262196768356,B,509.8666000412777,Correct,sub_012_day_18_data.csv,1,300,157.0,Training at home,,,,,,,,,,,,,
12,18,3943,B,65.74116397746485,54.53415891233322,3.2870581988732424,0.856620565043422,B,580.4904999677092,Correct,sub_012_day_18_data.csv,1,300,157.0,Training at home,,,,,,,,,,,,,
12,18,3944,A,48.84376642375151,77.87507732997614,2.4421883211875755,1.2232588541879503,A,429.9733000807464,Correct,sub_012_day_18_data.csv,1,300,157.0,Training at home,,,,,,,,,,,,,
12,18,3945,A,19.785712263222937,34.24320938532391,0.9892856131611468,0.5378910752013532,A,468.76819990575314,Correct,sub_012_day_18_data.csv,1,300,157.0,Training at home,,,,,,,,,,,,,
12,18,3946,B,63.134527403452495,47.76200134116446,3.1567263701726245,0.7502437626707407,B,662.3039999976754,Correct,sub_012_day_18_data.csv,1,300,157.0,Training at home,,,,,,,,,,,,,
12,18,3947,B,54.692266528617296,39.37200433893297,2.734613326430865,0.6184539979414864,B,459.7406000830233,Correct,sub_012_day_18_data.csv,1,300,157.0,Training at home,,,,,,,,,,,,,
12,18,3948,A,54.92728043776608,79.42930985027374,2.746364021888304,1.2476726815266368,A,505.0087999552488,Correct,sub_012_day_18_data.csv,1,300,157.0,Training at home,,,,,,,,,,,,,
12,18,3949,B,85.27691129214189,58.39520561344946,4.263845564607094,0.9172697448003916,B,428.0135999433696,Correct,sub_012_day_18_data.csv,1,300,157.0,Training at home,,,,,,,,,,,,,
12,18,3950,A,33.60996886206887,57.7714768059178,1.680498443103443,0.9074722356025224,A,403.62769993953407,Correct,sub_012_day_18_data.csv,1,300,158.0,Training at home,,,,,,,,,,,,,
12,18,3951,B,76.30238951037285,49.07982711021931,3.8151194755186424,0.7709441214446108,B,326.1503999819979,Correct,sub_012_day_18_data.csv,1,300,158.0,Training at home,,,,,,,,,,,,,
12,18,3952,B,86.77324854246491,58.334573298910904,4.3386624271232455,0.916317334630769,B,406.07569995336235,Correct,sub_012_day_18_data.csv,1,300,158.0,Training at home,,,,,,,,,,,,,
12,18,3953,A,57.056757904247334,64.95986382354462,2.8528378952123665,1.0203871548312058,A,828.8826999487355,Correct,sub_012_day_18_data.csv,1,300,158.0,Training at home,,,,,,,,,,,,,
12,18,3954,A,23.786240669636875,37.33296801697665,1.1893120334818437,0.5864248902941829,A,413.6146999662742,Correct,sub_012_day_18_data.csv,1,300,158.0,Training at home,,,,,,,,,,,,,
12,18,3955,A,59.52306749011749,86.13926054995528,2.9761533745058744,1.353072340646983,A,499.39579993952066,Correct,sub_012_day_18_data.csv,1,300,158.0,Training at home,,,,,,,,,,,,,
12,18,3956,B,72.0350527732479,41.95991659293201,3.6017526386623953,0.6591048285679784,B,2286.17179999128,Correct,sub_012_day_18_data.csv,1,300,158.0,Training at home,,,,,,,,,,,,,
12,18,3957,B,81.97787547686592,58.408222647385,4.098893773843296,0.9174742158913086,B,483.1605999497697,Correct,sub_012_day_18_data.csv,1,300,158.0,Training at home,,,,,,,,,,,,,
12,18,3958,A,17.40906566708754,32.72540502117851,0.8704532833543769,0.5140494600014246,A,393.7734999926761,Correct,sub_012_day_18_data.csv,1,300,158.0,Training at home,,,,,,,,,,,,,
12,18,3959,B,80.60546273627472,64.47886387209564,4.030273136813736,1.01283162526196,B,557.524099946022,Correct,sub_012_day_18_data.csv,1,300,158.0,Training at home,,,,,,,,,,,,,
12,18,3960,B,41.99363013137904,33.770215730857956,2.099681506568952,0.530461308251029,B,531.1982000712305,Correct,sub_012_day_18_data.csv,1,300,158.0,Training at home,,,,,,,,,,,,,
12,18,3961,A,18.787499370656644,40.294293375345475,0.9393749685328322,0.632941280247886,A,438.289999961853,Correct,sub_012_day_18_data.csv,1,300,158.0,Training at home,,,,,,,,,,,,,
12,18,3962,B,61.2260936559633,40.34397941986154,3.0613046827981645,0.633721746810074,B,380.71090006269515,Correct,sub_012_day_18_data.csv,1,300,158.0,Training at home,,,,,,,,,,,,,
12,18,3963,B,55.174026057597736,40.28833666447117,2.758701302879887,0.6328477124522746,B,408.9761999202892,Correct,sub_012_day_18_data.csv,1,300,158.0,Training at home,,,,,,,,,,,,,
12,18,3964,A,19.753110402682868,50.919067114511805,0.9876555201341434,0.7998348358729795,A,464.44879996124655,Correct,sub_012_day_18_data.csv,1,300,158.0,Training at home,,,,,,,,,,,,,
12,18,3965,A,40.80934164328643,57.8861303985876,2.040467082164321,0.909273210024718,A,475.25719995610416,Correct,sub_012_day_18_data.csv,1,300,158.0,Training at home,,,,,,,,,,,,,
12,18,3966,B,42.191192718461416,30.504410066508335,2.109559635923071,0.4791621528351655,B,417.2719999914989,Correct,sub_012_day_18_data.csv,1,300,158.0,Training at home,,,,,,,,,,,,,
12,18,3967,B,80.25194208128784,63.571937081402794,4.012597104064392,0.998585652547038,B,489.5417999941856,Correct,sub_012_day_18_data.csv,1,300,158.0,Training at home,,,,,,,,,,,,,
12,18,3968,A,65.01762178501669,83.03598958957528,3.250881089250834,1.3043262743908413,A,497.4497000221163,Correct,sub_012_day_18_data.csv,1,300,158.0,Training at home,,,,,,,,,,,,,
12,18,3969,A,49.52805627418823,75.83324842489311,2.4764028137094116,1.1911858807474696,A,716.8320999480784,Correct,sub_012_day_18_data.csv,1,300,158.0,Training at home,,,,,,,,,,,,,
12,18,3970,A,54.54117322905517,70.17578606759531,2.7270586614527583,1.102318669849232,A,485.0586000829935,Correct,sub_012_day_18_data.csv,1,300,158.0,Training at home,,,,,,,,,,,,,
12,18,3971,A,15.727841127437106,41.086032457654994,0.7863920563718553,0.6453778886706036,A,570.8597999764606,Correct,sub_012_day_18_data.csv,1,300,158.0,Training at home,,,,,,,,,,,,,
12,18,3972,A,64.8885756390794,77.79224633874011,3.2444287819539706,1.221957748020167,A,647.8772000409663,Correct,sub_012_day_18_data.csv,1,300,158.0,Training at home,,,,,,,,,,,,,
12,18,3973,B,64.18244787138713,54.38432757192163,3.2091223935693565,0.8542670198518492,B,1438.6439999798313,Correct,sub_012_day_18_data.csv,1,300,158.0,Training at home,,,,,,,,,,,,,
12,18,3974,B,59.7005824504808,49.580901018629454,2.98502912252404,0.778814971992445,B,575.8693999378011,Correct,sub_012_day_18_data.csv,1,300,158.0,Training at home,,,,,,,,,,,,,
12,18,3975,A,36.07476933012845,44.27466472551845,1.8037384665064224,0.6954648072091997,A,554.2522999458015,Correct,sub_012_day_18_data.csv,1,300,159.0,Training at home,,,,,,,,,,,,,
12,18,3976,A,45.69881945007854,52.72693357043423,2.284940972503927,0.8282327357559661,B,530.4809999652207,Incorrect,sub_012_day_18_data.csv,0,300,159.0,Training at home,,,,,,,,,,,,,
12,18,3977,B,31.355144029848987,10.410961970495038,1.5677572014924492,0.1635350082165496,B,670.6110000377521,Correct,sub_012_day_18_data.csv,1,300,159.0,Training at home,,,,,,,,,,,,,
12,18,3978,A,46.5284835177437,64.50654303371118,2.326424175887185,1.0132664085159044,A,1257.3551000095904,Correct,sub_012_day_18_data.csv,1,300,159.0,Training at home,,,,,,,,,,,,,
12,18,3979,B,78.12976979728433,49.94618590860989,3.906488489864216,0.7845528536265943,B,625.1916999462992,Correct,sub_012_day_18_data.csv,1,300,159.0,Training at home,,,,,,,,,,,,,
12,18,3980,B,84.39333655606606,59.02336244156753,4.219666827803303,0.9271368091829812,B,581.5100000472739,Correct,sub_012_day_18_data.csv,1,300,159.0,Training at home,,,,,,,,,,,,,
12,18,3981,B,44.4487556485399,23.79349413807104,2.222437782426995,0.373747331936979,B,523.2630999526009,Correct,sub_012_day_18_data.csv,1,300,159.0,Training at home,,,,,,,,,,,,,
12,18,3982,A,29.48663074587602,56.04908092048878,1.474331537293801,0.8804169043013368,A,1097.1168000251057,Correct,sub_012_day_18_data.csv,1,300,159.0,Training at home,,,,,,,,,,,,,
12,18,3983,A,67.58209843222481,81.7945556928387,3.3791049216112405,1.284825876341316,A,1337.7183000557125,Correct,sub_012_day_18_data.csv,1,300,159.0,Training at home,,,,,,,,,,,,,
12,18,3984,A,39.4636429149494,53.31102716916186,1.97318214574747,0.8374076565498237,A,1511.420499999076,Correct,sub_012_day_18_data.csv,1,300,159.0,Training at home,,,,,,,,,,,,,
12,18,3985,B,47.343855759107285,39.16882845830838,2.3671927879553643,0.6152625186717021,B,997.28860007599,Correct,sub_012_day_18_data.csv,1,300,159.0,Training at home,,,,,,,,,,,,,
12,18,3986,B,64.1976693063585,35.93889666260869,3.2098834653179256,0.564526868666871,B,691.9050000142306,Correct,sub_012_day_18_data.csv,1,300,159.0,Training at home,,,,,,,,,,,,,
12,18,3987,A,60.48164123141922,77.90492650962736,3.0240820615709607,1.2237277240054902,A,1190.7615000382066,Correct,sub_012_day_18_data.csv,1,300,159.0,Training at home,,,,,,,,,,,,,
12,18,3988,A,28.273769759953275,58.00507778672459,1.4136884879976637,0.9111416312283924,A,2850.08140001446,Correct,sub_012_day_18_data.csv,1,300,159.0,Training at home,,,,,,,,,,,,,
12,18,3989,A,61.34278679517425,80.3901713067118,3.0671393397587123,1.262765857989954,A,5105.587400030345,Correct,sub_012_day_18_data.csv,1,300,159.0,Training at home,,,,,,,,,,,,,
12,18,3990,A,39.05851928869578,70.05274518102267,1.952925964434789,1.100385948122493,A,1165.6116000376642,Correct,sub_012_day_18_data.csv,1,300,159.0,Training at home,,,,,,,,,,,,,
12,18,3991,B,74.87450753412662,60.033067245383904,3.743725376706331,0.9429972151528004,B,1317.0603000326082,Correct,sub_012_day_18_data.csv,1,300,159.0,Training at home,,,,,,,,,,,,,
12,18,3992,A,59.35957710268839,71.18816332592645,2.9679788551344193,1.1182210546364044,A,1489.6613999735564,Correct,sub_012_day_18_data.csv,1,300,159.0,Training at home,,,,,,,,,,,,,
12,18,3993,B,68.78802718389424,40.22095654246835,3.4394013591947123,0.6317893079708645,B,925.8939999854192,Correct,sub_012_day_18_data.csv,1,300,159.0,Training at home,,,,,,,,,,,,,
12,18,3994,A,55.54901962981087,72.61099964947027,2.7774509814905435,1.140570915342934,A,1293.2674000039697,Correct,sub_012_day_18_data.csv,1,300,159.0,Training at home,,,,,,,,,,,,,
12,18,3995,B,52.956452534874266,31.044139051798084,2.6478226267437135,0.4876401959107443,B,637.3357999837026,Correct,sub_012_day_18_data.csv,1,300,159.0,Training at home,,,,,,,,,,,,,
12,18,3996,B,31.632567197301547,16.762321251450743,1.581628359865077,0.2633019265033486,B,501.87899998854846,Correct,sub_012_day_18_data.csv,1,300,159.0,Training at home,,,,,,,,,,,,,
12,18,3997,A,35.37854402193935,67.43521470434503,1.7689272010969674,1.0592698755421035,A,1005.1138000562788,Correct,sub_012_day_18_data.csv,1,300,159.0,Training at home,,,,,,,,,,,,,
12,18,3998,A,61.404251788894584,88.42063518817027,3.0702125894447296,1.3889080896644943,A,956.0389000689612,Correct,sub_012_day_18_data.csv,1,300,159.0,Training at home,,,,,,,,,,,,,
12,18,3999,A,34.442794407173295,58.9256905302156,1.7221397203586648,0.9256025823871548,A,1495.5103000393135,Correct,sub_012_day_18_data.csv,1,300,159.0,Training at home,,,,,,,,,,,,,
12,18,4000,B,79.46597746905813,56.46795673663618,3.973298873452906,0.8869965902352124,B,1370.678700041026,Correct,sub_012_day_18_data.csv,1,300,160.0,Training at home,,,,,,,,,,,,,
12,18,4001,A,48.230069754826935,61.61176680119047,2.4115034877413466,0.9677953697865374,B,2789.5377000095323,Incorrect,sub_012_day_18_data.csv,0,300,160.0,Training at home,,,,,,,,,,,,,
12,18,4002,B,37.26954646856638,19.2585277160982,1.863477323428319,0.3025122459592476,B,1098.7122999504209,Correct,sub_012_day_18_data.csv,1,300,160.0,Training at home,,,,,,,,,,,,,
12,18,4003,B,72.53280493866777,54.89395382562456,3.626640246933389,0.8622722103253972,B,1782.2467000223696,Correct,sub_012_day_18_data.csv,1,300,160.0,Training at home,,,,,,,,,,,,,
12,18,4004,B,84.83127305071548,67.32514002619786,4.241563652535774,1.0575408265410366,B,1186.7216000100598,Correct,sub_012_day_18_data.csv,1,300,160.0,Training at home,,,,,,,,,,,,,
12,18,4005,B,55.3165800679371,25.09185503219659,2.7658290033968553,0.3941419371704444,B,444.8126000352204,Correct,sub_012_day_18_data.csv,1,300,160.0,Training at home,,,,,,,,,,,,,
12,18,4006,B,70.77284652071744,37.7584170479068,3.538642326035872,0.5931078280444181,B,1325.854599941522,Correct,sub_012_day_18_data.csv,1,300,160.0,Training at home,,,,,,,,,,,,,
12,18,4007,A,64.81093584538083,83.28548962236914,3.240546792269041,1.3082454117413191,A,1069.9642000254244,Correct,sub_012_day_18_data.csv,1,300,160.0,Training at home,,,,,,,,,,,,,
12,18,4008,A,47.5491520522674,56.00227854819276,2.37745760261337,0.8796817343564582,A,3618.5624999925494,Correct,sub_012_day_18_data.csv,1,300,160.0,Training at home,,,,,,,,,,,,,
12,18,4009,B,32.57686083748996,10.595791897103275,1.628843041874498,0.1664383099145295,B,2066.360899945721,Correct,sub_012_day_18_data.csv,1,300,160.0,Training at home,,,,,,,,,,,,,
12,18,4010,B,60.692048835956314,36.19410108290634,3.0346024417978157,0.5685356103267247,B,2475.5434999242425,Correct,sub_012_day_18_data.csv,1,300,160.0,Training at home,,,,,,,,,,,,,
12,18,4011,A,61.512205161434565,83.22832598629006,3.075610258071728,1.3073474874455266,A,1133.85829993058,Correct,sub_012_day_18_data.csv,1,300,160.0,Training at home,,,,,,,,,,,,,
12,18,4012,B,67.3785963822956,54.01239971380542,3.36892981911478,0.8484247907182328,B,1548.636900028214,Correct,sub_012_day_18_data.csv,1,300,160.0,Training at home,,,,,,,,,,,,,
12,18,4013,A,32.240794608801494,49.89582126447766,1.6120397304400746,0.783761727646562,A,1405.8000999502838,Correct,sub_012_day_18_data.csv,1,300,160.0,Training at home,,,,,,,,,,,,,
12,18,4014,A,29.8846839479154,56.76374263099291,1.4942341973957698,0.8916427841989454,A,1063.9590999344364,Correct,sub_012_day_18_data.csv,1,300,160.0,Training at home,,,,,,,,,,,,,
12,18,4015,B,53.28423579249037,34.09913232161641,2.664211789624518,0.5356279179768818,B,469.1235000500455,Correct,sub_012_day_18_data.csv,1,300,160.0,Training at home,,,,,,,,,,,,,
12,18,4016,B,62.50743909927262,37.44523788413388,3.125371954963631,0.5881884212435861,B,401.8272999674082,Correct,sub_012_day_18_data.csv,1,300,160.0,Training at home,,,,,,,,,,,,,
12,18,4017,B,50.45805709924673,38.527995351679934,2.5229028549623367,0.6051963357718969,B,389.9271000409499,Correct,sub_012_day_18_data.csv,1,300,160.0,Training at home,,,,,,,,,,,,,
12,18,4018,B,68.09980472251515,38.1567664037556,3.404990236125758,0.5993650850939021,B,400.913399993442,Correct,sub_012_day_18_data.csv,1,300,160.0,Training at home,,,,,,,,,,,,,
12,18,4019,B,48.055947763127094,17.344232534632635,2.4027973881563547,0.2724425675647748,B,323.65569996181875,Correct,sub_012_day_18_data.csv,1,300,160.0,Training at home,,,,,,,,,,,,,
12,18,4020,A,14.704839638513352,30.315559260113435,0.7352419819256676,0.4761956913051919,A,471.35609993711114,Correct,sub_012_day_18_data.csv,1,300,160.0,Training at home,,,,,,,,,,,,,
12,18,4021,B,81.49322573389544,64.76156924023152,4.074661286694772,1.0172723508002903,B,380.44059998355806,Correct,sub_012_day_18_data.csv,1,300,160.0,Training at home,,,,,,,,,,,,,
12,18,4022,A,53.227328703491054,60.75662544242708,2.6613664351745525,0.954362840734178,B,529.6506000449881,Incorrect,sub_012_day_18_data.csv,0,300,160.0,Training at home,,,,,,,,,,,,,
12,18,4023,A,56.76828305054113,70.74027872898206,2.8384141525270565,1.1111856998393217,A,564.9127999786288,Correct,sub_012_day_18_data.csv,1,300,160.0,Training at home,,,,,,,,,,,,,
12,18,4024,A,28.01024181589527,52.51178970809856,1.4005120907947637,0.8248532638690729,A,447.5139999995008,Correct,sub_012_day_18_data.csv,1,300,160.0,Training at home,,,,,,,,,,,,,
12,18,4025,A,14.331504952001817,33.01378005957664,0.7165752476000907,0.5185792445119759,A,499.38239995390177,Correct,sub_012_day_18_data.csv,1,300,161.0,Training at home,,,,,,,,,,,,,
12,18,4026,A,28.655135340477628,49.12213770897005,1.4327567670238812,0.7716087347756324,A,383.8634999701753,Correct,sub_012_day_18_data.csv,1,300,161.0,Training at home,,,,,,,,,,,,,
12,18,4027,B,56.65749173281998,46.57942817091328,2.832874586640999,0.7316679467507732,B,457.75469997897744,Correct,sub_012_day_18_data.csv,1,300,161.0,Training at home,,,,,,,,,,,,,
12,18,4028,A,61.09821047689705,80.2195817908902,3.054910523844853,1.260086244141531,B,619.2409000359476,Incorrect,sub_012_day_18_data.csv,0,300,161.0,Training at home,,,,,,,,,,,,,
12,18,4029,B,48.852157725702114,24.063041226948897,2.4426078862851055,0.3779813677080548,B,523.3318000100553,Correct,sub_012_day_18_data.csv,1,300,161.0,Training at home,,,,,,,,,,,,,
12,18,4030,A,28.344995880009677,48.43764896002674,1.4172497940004838,0.7608568106499065,A,2331.838099984452,Correct,sub_012_day_18_data.csv,1,300,161.0,Training at home,,,,,,,,,,,,,
12,18,4031,A,30.66867509076444,49.46192968534645,1.533433754538222,0.7769461746592967,A,2084.5620000036433,Correct,sub_012_day_18_data.csv,1,300,161.0,Training at home,,,,,,,,,,,,,
12,18,4032,B,40.55660605619613,22.40834115343753,2.0278303028098064,0.3519893997338658,B,1105.816500028595,Correct,sub_012_day_18_data.csv,1,300,161.0,Training at home,,,,,,,,,,,,,
12,18,4033,B,66.8464483838139,57.433804792892126,3.3423224191906944,0.9021680960253008,B,902.4167000316085,Correct,sub_012_day_18_data.csv,1,300,161.0,Training at home,,,,,,,,,,,,,
12,18,4034,B,61.21344741565194,41.786657515456426,3.060672370782598,0.656383281343153,B,842.7096001105383,Correct,sub_012_day_18_data.csv,1,300,161.0,Training at home,,,,,,,,,,,,,
12,18,4035,A,65.29808753068887,82.47666623093788,3.2649043765344437,1.295540443618459,A,1925.186899956316,Correct,sub_012_day_18_data.csv,1,300,161.0,Training at home,,,,,,,,,,,,,
12,18,4036,A,50.25232805145345,73.04495099258776,2.5126164025726725,1.1473874071007009,A,4961.845200043172,Correct,sub_012_day_18_data.csv,1,300,161.0,Training at home,,,,,,,,,,,,,
12,18,4037,A,61.74859835141994,81.48500745109077,3.087429917570997,1.2799635039302817,A,1695.8332000067458,Correct,sub_012_day_18_data.csv,1,300,161.0,Training at home,,,,,,,,,,,,,
12,18,4038,A,49.47209337801203,77.43655368822529,2.4736046689006015,1.216370540931201,A,612.6184000167996,Correct,sub_012_day_18_data.csv,1,300,161.0,Training at home,,,,,,,,,,,,,
12,18,4039,A,52.66291488015894,78.72853970410543,2.633145744007947,1.23666500981135,A,805.4574000416324,Correct,sub_012_day_18_data.csv,1,300,161.0,Training at home,,,,,,,,,,,,,
12,18,4040,A,50.51517035526451,80.95610452698484,2.525758517763226,1.271655516226115,A,445.5842999741435,Correct,sub_012_day_18_data.csv,1,300,161.0,Training at home,,,,,,,,,,,,,
12,18,4041,A,26.943970148316183,38.81108047882633,1.347198507415809,0.609643026550815,A,1202.2461999440566,Correct,sub_012_day_18_data.csv,1,300,161.0,Training at home,,,,,,,,,,,,,
12,18,4042,A,54.73966151640087,84.05369730323385,2.7369830758200435,1.3203123897744982,A,909.901599981822,Correct,sub_012_day_18_data.csv,1,300,161.0,Training at home,,,,,,,,,,,,,
12,18,4043,B,69.53612722681025,36.347798310059936,3.476806361340513,0.570949880725239,B,399.6019000187516,Correct,sub_012_day_18_data.csv,1,300,161.0,Training at home,,,,,,,,,,,,,
12,18,4044,A,58.12738826101961,71.58099129249624,2.9063694130509803,1.1243915819059056,B,1068.0908999638632,Incorrect,sub_012_day_18_data.csv,0,300,161.0,Training at home,,,,,,,,,,,,,
12,18,4045,A,57.82892236110587,76.97856781550452,2.8914461180552933,1.2091765156652634,A,1143.236399977468,Correct,sub_012_day_18_data.csv,1,300,161.0,Training at home,,,,,,,,,,,,,
12,18,4046,B,77.14804120464842,61.68277236299218,3.857402060232421,0.9689107225431388,B,705.4602999705821,Correct,sub_012_day_18_data.csv,1,300,161.0,Training at home,,,,,,,,,,,,,
12,18,4047,A,28.936287651124495,44.08621714324728,1.4468143825562247,0.6925046795089503,A,512.7077999059111,Correct,sub_012_day_18_data.csv,1,300,161.0,Training at home,,,,,,,,,,,,,
12,18,4048,B,43.638146777952784,18.27591467696089,2.181907338897639,0.2870773964338711,B,416.5816999739036,Correct,sub_012_day_18_data.csv,1,300,161.0,Training at home,,,,,,,,,,,,,
12,18,4049,A,53.77079368956893,72.68605473452777,2.6885396844784464,1.1417498778620905,A,727.8266999637708,Correct,sub_012_day_18_data.csv,1,300,161.0,Training at home,,,,,,,,,,,,,
12,18,4050,A,61.49320567360351,80.99217833347285,3.0746602836801755,1.2722221622533636,A,856.9980000611395,Correct,sub_012_day_18_data.csv,1,300,162.0,Training at home,,,,,,,,,,,,,
12,18,4051,A,64.33610001994282,85.70097579305161,3.216805000997141,1.3461877797846382,A,732.6911999844015,Correct,sub_012_day_18_data.csv,1,300,162.0,Training at home,,,,,,,,,,,,,
12,18,4052,A,43.60439189992887,63.67802450159347,2.180219594996444,1.0002520698465849,A,786.0883000539616,Correct,sub_012_day_18_data.csv,1,300,162.0,Training at home,,,,,,,,,,,,,
12,18,4053,B,79.46201932992918,50.94107665861796,3.9731009664964585,0.8001805609833433,B,509.1441998956725,Correct,sub_012_day_18_data.csv,1,300,162.0,Training at home,,,,,,,,,,,,,
12,18,4054,A,51.515123588965395,62.391764729863226,2.5757561794482693,0.9800475485992054,A,685.3001000126824,Correct,sub_012_day_18_data.csv,1,300,162.0,Training at home,,,,,,,,,,,,,
12,18,4055,B,40.740051876444255,18.17418620575199,2.037002593822213,0.285479449344817,B,408.7330000475049,Correct,sub_012_day_18_data.csv,1,300,162.0,Training at home,,,,,,,,,,,,,
12,18,4056,A,65.46536543397755,77.84719480121075,3.273268271698878,1.222820876450286,A,590.1828999631107,Correct,sub_012_day_18_data.csv,1,300,162.0,Training at home,,,,,,,,,,,,,
12,18,4057,A,56.64381224407102,68.33179400652163,2.832190612203551,1.073353310287497,A,529.1828999761492,Correct,sub_012_day_18_data.csv,1,300,162.0,Training at home,,,,,,,,,,,,,
12,18,4058,B,44.25691340218562,18.918769799151185,2.2128456701092807,0.297175341079849,B,393.54049996472895,Correct,sub_012_day_18_data.csv,1,300,162.0,Training at home,,,,,,,,,,,,,
12,18,4059,A,20.246115646928736,51.06554994913019,1.0123057823464368,0.8021357828585501,A,439.88780002109706,Correct,sub_012_day_18_data.csv,1,300,162.0,Training at home,,,,,,,,,,,,,
12,18,4060,A,16.9874344275584,39.614088426216995,0.84937172137792,0.6222566458922988,A,448.99020006414503,Correct,sub_012_day_18_data.csv,1,300,162.0,Training at home,,,,,,,,,,,,,
12,18,4061,B,37.4287134811375,12.652749861269392,1.871435674056875,0.1987489300593659,B,478.6457000300288,Correct,sub_012_day_18_data.csv,1,300,162.0,Training at home,,,,,,,,,,,,,
12,18,4062,A,51.46972100133544,75.99315476919824,2.573486050066772,1.1936976837301267,A,426.61389999557287,Correct,sub_012_day_18_data.csv,1,300,162.0,Training at home,,,,,,,,,,,,,
12,18,4063,A,50.29009846066483,77.360740487458,2.5145049230332415,1.2151796699583224,A,491.3141999859363,Correct,sub_012_day_18_data.csv,1,300,162.0,Training at home,,,,,,,,,,,,,
12,18,4064,A,65.96614503830841,88.28822192708839,3.2983072519154204,1.3868281470232309,A,492.46950005181134,Correct,sub_012_day_18_data.csv,1,300,162.0,Training at home,,,,,,,,,,,,,
12,18,4065,B,33.97790962494851,16.29331863739973,1.6988954812474253,0.2559348506692632,B,425.7038999348879,Correct,sub_012_day_18_data.csv,1,300,162.0,Training at home,,,,,,,,,,,,,
12,18,4066,B,64.20105455567136,47.91239980630992,3.210052727783568,0.7526062162368015,B,481.8592000519857,Correct,sub_012_day_18_data.csv,1,300,162.0,Training at home,,,,,,,,,,,,,
12,18,4067,B,39.70308305428854,14.27668486067181,1.985154152714427,0.2242576413795159,B,393.3968999190256,Correct,sub_012_day_18_data.csv,1,300,162.0,Training at home,,,,,,,,,,,,,
12,18,4068,B,53.99481408116717,30.699898234808582,2.6997407040583585,0.4822328738021444,B,431.7051999969408,Correct,sub_012_day_18_data.csv,1,300,162.0,Training at home,,,,,,,,,,,,,
12,18,4069,B,60.54157869211234,40.40066387060789,3.0270789346056173,0.6346121440802617,B,376.6372998943552,Correct,sub_012_day_18_data.csv,1,300,162.0,Training at home,,,,,,,,,,,,,
12,18,4070,A,57.63634886935071,70.32833039897798,2.881817443467536,1.1047148306033248,A,479.0819000918418,Correct,sub_012_day_18_data.csv,1,300,162.0,Training at home,,,,,,,,,,,,,
12,18,4071,A,13.201117839613737,31.234142770663944,0.6600558919806869,0.4906247673474629,A,507.05500005278736,Correct,sub_012_day_18_data.csv,1,300,162.0,Training at home,,,,,,,,,,,,,
12,18,4072,A,66.52835679984804,82.76192256979277,3.326417839992402,1.3000212397111413,A,524.8767000157386,Correct,sub_012_day_18_data.csv,1,300,162.0,Training at home,,,,,,,,,,,,,
12,18,4073,A,28.460496565357815,44.488698459675554,1.4230248282678906,0.6988268412434414,A,463.20780005771667,Correct,sub_012_day_18_data.csv,1,300,162.0,Training at home,,,,,,,,,,,,,
12,18,4074,A,49.20953140038993,72.7438170318863,2.4604765700194964,1.1426572059072704,A,839.8499999893829,Correct,sub_012_day_18_data.csv,1,300,162.0,Training at home,,,,,,,,,,,,,
12,18,4075,B,60.54772675129656,49.99347606256404,3.027386337564828,0.7852956856278419,B,1389.7134000435472,Correct,sub_012_day_18_data.csv,1,300,163.0,Training at home,,,,,,,,,,,,,
12,18,4076,B,59.43241703441783,48.454654187976864,2.9716208517208917,0.7611239281459101,B,1689.5407000556588,Correct,sub_012_day_18_data.csv,1,300,163.0,Training at home,,,,,,,,,,,,,
12,18,4077,B,65.64937787553298,33.392347860704874,3.282468893776649,0.5245257736265264,B,2338.9277000678703,Correct,sub_012_day_18_data.csv,1,300,163.0,Training at home,,,,,,,,,,,,,
12,18,4078,B,63.46035457039498,43.51686909785162,3.173017728519749,0.6835613813251966,B,1581.4652000553906,Correct,sub_012_day_18_data.csv,1,300,163.0,Training at home,,,,,,,,,,,,,
12,18,4079,B,67.25680358203384,49.52735066076399,3.362840179101692,0.7779738049381086,B,1901.5167999314144,Correct,sub_012_day_18_data.csv,1,300,163.0,Training at home,,,,,,,,,,,,,
12,18,4080,B,38.178129256529374,24.41450490967985,1.9089064628264685,0.3835021463264108,B,1329.9076000694183,Correct,sub_012_day_18_data.csv,1,300,163.0,Training at home,,,,,,,,,,,,,
12,18,4081,A,34.86792352081966,45.165514105432926,1.7433961760409828,0.7094582365461714,B,837.2493999777362,Incorrect,sub_012_day_18_data.csv,0,300,163.0,Training at home,,,,,,,,,,,,,
12,18,4082,A,62.88574511169992,77.56007771527374,3.144287255584996,1.2183108518107868,A,1402.90810004808,Correct,sub_012_day_18_data.csv,1,300,163.0,Training at home,,,,,,,,,,,,,
12,18,4083,A,56.48781010313051,67.14977291334553,2.8243905051565257,1.054786166373946,A,1280.646700062789,Correct,sub_012_day_18_data.csv,1,300,163.0,Training at home,,,,,,,,,,,,,
12,18,4084,B,43.41086124764611,23.54834756290817,2.1705430623823054,0.369896578539057,B,632.9937999835238,Correct,sub_012_day_18_data.csv,1,300,163.0,Training at home,,,,,,,,,,,,,
12,18,4085,A,37.68756301607238,57.12193699894074,1.884378150803619,0.8972692881734561,A,1884.0769999660552,Correct,sub_012_day_18_data.csv,1,300,163.0,Training at home,,,,,,,,,,,,,
12,18,4086,A,42.70604062545529,74.67301138453796,2.135302031272764,1.1729609199354571,A,892.6877999911085,Correct,sub_012_day_18_data.csv,1,300,163.0,Training at home,,,,,,,,,,,,,
12,18,4087,B,67.98160997813727,56.57916064337279,3.3990804989068635,0.8887433771174835,B,767.5494999857619,Correct,sub_012_day_18_data.csv,1,300,163.0,Training at home,,,,,,,,,,,,,
12,18,4088,B,74.02818157373012,47.65666367437762,3.701409078686506,0.7485891224701213,B,1071.0395000642166,Correct,sub_012_day_18_data.csv,1,300,163.0,Training at home,,,,,,,,,,,,,
12,18,4089,A,15.1799386194774,43.70598211934288,0.75899693097387,0.6865319617202722,A,926.7556000268088,Correct,sub_012_day_18_data.csv,1,300,163.0,Training at home,,,,,,,,,,,,,
12,18,4090,B,73.56641535532262,55.58901993303385,3.6783207677661314,0.8731902832093786,B,705.9785999590531,Correct,sub_012_day_18_data.csv,1,300,163.0,Training at home,,,,,,,,,,,,,
12,18,4091,B,35.31747859856216,24.332749048957417,1.765873929928108,0.3822179282692432,B,1549.9238000484183,Correct,sub_012_day_18_data.csv,1,300,163.0,Training at home,,,,,,,,,,,,,
12,18,4092,A,65.70624057378755,86.81610798729427,3.2853120286893778,1.3637042353307094,A,1443.4359000297263,Correct,sub_012_day_18_data.csv,1,300,163.0,Training at home,,,,,,,,,,,,,
12,18,4093,A,40.583941746626344,56.64961782901844,2.029197087331317,0.8898501160015685,A,1866.0518999677151,Correct,sub_012_day_18_data.csv,1,300,163.0,Training at home,,,,,,,,,,,,,
12,18,4094,B,75.27498831125257,42.52006044391939,3.763749415562629,0.6679035476040556,B,898.2628000667319,Correct,sub_012_day_18_data.csv,1,300,163.0,Training at home,,,,,,,,,,,,,
12,18,4095,A,45.42899934209879,53.81652809110959,2.2714499671049397,0.845348046463693,A,1479.110199958086,Correct,sub_012_day_18_data.csv,1,300,163.0,Training at home,,,,,,,,,,,,,
12,18,4096,B,56.241702364881384,38.05205328341699,2.812085118244069,0.5977202552459508,B,3266.1415999755263,Correct,sub_012_day_18_data.csv,1,300,163.0,Training at home,,,,,,,,,,,,,
12,18,4097,B,60.26340686223412,44.94538743549739,3.013170343111706,0.706000494900528,B,530.2320000482723,Correct,sub_012_day_18_data.csv,1,300,163.0,Training at home,,,,,,,,,,,,,
12,18,4098,B,41.40799164211491,27.179139596126923,2.070399582105745,0.426928926430419,B,843.927999958396,Correct,sub_012_day_18_data.csv,1,300,163.0,Training at home,,,,,,,,,,,,,
12,18,4099,B,67.11392930905866,55.23245607486543,3.355696465452933,0.8675893912225908,B,411.7980999872088,Correct,sub_012_day_18_data.csv,1,300,163.0,Training at home,,,,,,,,,,,,,
12,18,4100,B,44.0976379846635,27.196424883713163,2.204881899233175,0.4272004430928995,B,381.42779993359,Correct,sub_012_day_18_data.csv,1,300,164.0,Training at home,,,,,,,,,,,,,
12,18,4101,B,79.06347492606092,50.72271333207365,3.9531737463030456,0.7967505178709182,B,384.8500000312925,Correct,sub_012_day_18_data.csv,1,300,164.0,Training at home,,,,,,,,,,,,,
12,18,4102,B,62.2860051691904,34.49685810132488,3.11430025845952,0.541875379915259,B,470.1438000192866,Correct,sub_012_day_18_data.csv,1,300,164.0,Training at home,,,,,,,,,,,,,
12,18,4103,B,63.547935795890645,40.1141317161044,3.1773967897945323,0.6301113075222347,B,573.361299932003,Correct,sub_012_day_18_data.csv,1,300,164.0,Training at home,,,,,,,,,,,,,
12,18,4104,A,52.816030640579086,68.65652364598145,2.640801532028954,1.078454151536146,A,1599.5932000223547,Correct,sub_012_day_18_data.csv,1,300,164.0,Training at home,,,,,,,,,,,,,
12,18,4105,A,18.77398416923675,35.69495409152037,0.9386992084618376,0.5606950277207265,B,838.4698999579996,Incorrect,sub_012_day_18_data.csv,0,300,164.0,Training at home,,,,,,,,,,,,,
12,18,4106,A,35.78902936918089,49.48938621064629,1.7894514684590446,0.777377460750172,B,3305.9588000178337,Incorrect,sub_012_day_18_data.csv,0,300,164.0,Training at home,,,,,,,,,,,,,
12,18,4107,B,38.09355689817234,22.335812649592324,1.9046778449086168,0.3508501246595861,B,841.1176999798045,Correct,sub_012_day_18_data.csv,1,300,164.0,Training at home,,,,,,,,,,,,,
12,18,4108,B,41.96653134352397,27.639144564946484,2.0983265671761986,0.4341546675837107,B,772.9510000208393,Correct,sub_012_day_18_data.csv,1,300,164.0,Training at home,,,,,,,,,,,,,
12,18,4109,B,50.836344527238005,19.5194410651809,2.5418172263619003,0.3066106632627561,B,705.5146000348032,Correct,sub_012_day_18_data.csv,1,300,164.0,Training at home,,,,,,,,,,,,,
12,18,4110,A,55.86810952925126,79.09450602283238,2.7934054764625627,1.2424135953032194,A,1683.6328000063077,Correct,sub_012_day_18_data.csv,1,300,164.0,Training at home,,,,,,,,,,,,,
12,18,4111,A,34.71961301939857,52.69199669404498,1.7359806509699285,0.8276839485849469,A,1003.8199999835342,Correct,sub_012_day_18_data.csv,1,300,164.0,Training at home,,,,,,,,,,,,,
12,18,4112,B,55.08567261612116,35.18423238805228,2.7542836308060576,0.5526726299625055,B,797.0334000419825,Correct,sub_012_day_18_data.csv,1,300,164.0,Training at home,,,,,,,,,,,,,
12,18,4113,A,43.760167583058205,72.72121922239957,2.1880083791529104,1.1423022403459164,A,1263.1951000075787,Correct,sub_012_day_18_data.csv,1,300,164.0,Training at home,,,,,,,,,,,,,
12,18,4114,A,32.797606810004766,48.62065898751521,1.6398803405002382,0.7637315254393616,A,996.4140000520274,Correct,sub_012_day_18_data.csv,1,300,164.0,Training at home,,,,,,,,,,,,,
12,18,4115,B,49.97966019980792,22.7097186209247,2.4989830099903956,0.3567234259229418,B,1104.2654000921175,Correct,sub_012_day_18_data.csv,1,300,164.0,Training at home,,,,,,,,,,,,,
12,18,4116,A,36.26820503971192,50.92625168818215,1.813410251985596,0.7999476908922891,A,946.1790999630466,Correct,sub_012_day_18_data.csv,1,300,164.0,Training at home,,,,,,,,,,,,,
12,18,4117,A,62.18136988207795,77.73311506733327,3.109068494103898,1.2210289161809214,A,1101.483799982816,Correct,sub_012_day_18_data.csv,1,300,164.0,Training at home,,,,,,,,,,,,,
12,18,4118,B,49.58320781079429,25.33805780973221,2.4791603905397146,0.398009281356441,B,616.4885000325739,Correct,sub_012_day_18_data.csv,1,300,164.0,Training at home,,,,,,,,,,,,,
12,18,4119,A,18.57965455789744,37.4679542320053,0.928982727894872,0.5885452488015321,A,534.9824000149965,Correct,sub_012_day_18_data.csv,1,300,164.0,Training at home,,,,,,,,,,,,,
12,18,4120,A,26.369945662010423,51.67728074604898,1.318497283100521,0.8117448277464238,A,514.1636000480503,Correct,sub_012_day_18_data.csv,1,300,164.0,Training at home,,,,,,,,,,,,,
12,18,4121,B,60.17062501515943,33.082038634640114,3.0085312507579713,0.5196514477017955,B,362.4194000149146,Correct,sub_012_day_18_data.csv,1,300,164.0,Training at home,,,,,,,,,,,,,
12,18,4122,A,39.26245483981453,53.335675036458966,1.9631227419907264,0.8377948243439601,A,794.8049999540672,Correct,sub_012_day_18_data.csv,1,300,164.0,Training at home,,,,,,,,,,,,,
12,18,4123,B,65.56561497106956,56.35383465065105,3.2782807485534784,0.8852039647004963,B,1520.5433999653906,Correct,sub_012_day_18_data.csv,1,300,164.0,Training at home,,,,,,,,,,,,,
12,18,4124,B,52.99970625853361,26.26679368475026,2.64998531292668,0.4125978303668509,B,403.2122000353411,Correct,sub_012_day_18_data.csv,1,300,164.0,Training at home,,,,,,,,,,,,,
12,18,4125,A,29.333206187366542,39.253897059563826,1.4666603093683273,0.6165987731354785,A,637.0174000039697,Correct,sub_012_day_18_data.csv,1,300,165.0,Training at home,,,,,,,,,,,,,
12,18,4126,B,33.69840561409107,10.945146547464429,1.6849202807045538,0.1719259599298896,B,517.5480999751016,Correct,sub_012_day_18_data.csv,1,300,165.0,Training at home,,,,,,,,,,,,,
12,18,4127,A,51.2962653270453,66.96414381132244,2.5648132663522647,1.051870311257905,A,925.6652001058684,Correct,sub_012_day_18_data.csv,1,300,165.0,Training at home,,,,,,,,,,,,,
12,18,4128,A,55.422740254641624,72.01827384788238,2.771137012732081,1.131260400223626,A,2009.1838999651372,Correct,sub_012_day_18_data.csv,1,300,165.0,Training at home,,,,,,,,,,,,,
12,18,4129,A,21.300887745656677,37.301017650735886,1.065044387282834,0.5859230151148753,A,2081.24750002753,Correct,sub_012_day_18_data.csv,1,300,165.0,Training at home,,,,,,,,,,,,,
12,18,4130,A,55.97520051841511,74.5761756516476,2.7987600259207555,1.1714398278001907,A,3418.952999985777,Correct,sub_012_day_18_data.csv,1,300,165.0,Training at home,,,,,,,,,,,,,
12,18,4131,A,21.641516665011235,51.69006445371175,1.0820758332505618,0.8119456337568186,A,823.9314999664202,Correct,sub_012_day_18_data.csv,1,300,165.0,Training at home,,,,,,,,,,,,,
12,18,4132,B,76.5616621865195,51.036237982810874,3.828083109325975,0.8016753515682951,B,923.984199995175,Correct,sub_012_day_18_data.csv,1,300,165.0,Training at home,,,,,,,,,,,,,
12,18,4133,A,27.908969464184345,44.779797722363085,1.3954484732092172,0.703399417769064,A,960.7993999961764,Correct,sub_012_day_18_data.csv,1,300,165.0,Training at home,,,,,,,,,,,,,
12,18,4134,B,81.86810631652378,66.06559478184624,4.093405315826189,1.0377559361084416,B,759.0780999744311,Correct,sub_012_day_18_data.csv,1,300,165.0,Training at home,,,,,,,,,,,,,
12,18,4135,B,61.57604071894766,30.9206279537108,3.078802035947383,0.4857000881188052,B,1302.3716000607235,Correct,sub_012_day_18_data.csv,1,300,165.0,Training at home,,,,,,,,,,,,,
12,18,4136,B,74.11887822251502,47.19717329851761,3.7059439111257513,0.7413714645241364,B,797.7994000539184,Correct,sub_012_day_18_data.csv,1,300,165.0,Training at home,,,,,,,,,,,,,
12,18,4137,A,45.06829317974034,72.30737703279706,2.253414658987017,1.135801622432913,A,513.4882000274956,Correct,sub_012_day_18_data.csv,1,300,165.0,Training at home,,,,,,,,,,,,,
12,18,4138,A,59.08665129133546,82.92998763391164,2.954332564566773,1.302661199564946,A,638.7729999842122,Correct,sub_012_day_18_data.csv,1,300,165.0,Training at home,,,,,,,,,,,,,
12,18,4139,B,54.113534122591666,25.235199057063117,2.7056767061295837,0.3963935798477278,B,3152.2320000221953,Correct,sub_012_day_18_data.csv,1,300,165.0,Training at home,,,,,,,,,,,,,
12,18,4140,A,50.702080418400094,67.56005534256093,2.535104020920005,1.0612308677015465,A,2327.870600041934,Correct,sub_012_day_18_data.csv,1,300,165.0,Training at home,,,,,,,,,,,,,
12,18,4141,B,73.29194063691219,60.309884783290045,3.664597031845609,0.9473454548701544,B,1196.723400033079,Correct,sub_012_day_18_data.csv,1,300,165.0,Training at home,,,,,,,,,,,,,
12,18,4142,A,45.65893845518531,62.94315741753013,2.282946922759266,0.9887088046832928,B,1088.7999000260606,Incorrect,sub_012_day_18_data.csv,0,300,165.0,Training at home,,,,,,,,,,,,,
12,18,4143,A,61.083030939493106,88.10219656384567,3.0541515469746554,1.3839060674505077,A,1325.502200052142,Correct,sub_012_day_18_data.csv,1,300,165.0,Training at home,,,,,,,,,,,,,
12,18,4144,B,47.33560898341448,37.38766230867353,2.366780449170724,0.5872840262191239,B,1540.5312000075355,Correct,sub_012_day_18_data.csv,1,300,165.0,Training at home,,,,,,,,,,,,,
12,18,4145,A,48.10716142809349,67.50721239786286,2.4053580714046747,1.0604008126672588,A,1435.1305000018328,Correct,sub_012_day_18_data.csv,1,300,165.0,Training at home,,,,,,,,,,,,,
12,18,4146,B,52.329350678731686,44.12708223454926,2.616467533936584,0.6931465868620632,B,3058.4578999551013,Correct,sub_012_day_18_data.csv,1,300,165.0,Training at home,,,,,,,,,,,,,
12,18,4147,A,54.15616992232227,66.48276293156297,2.7078084961161135,1.0443087980807504,A,1561.187000013888,Correct,sub_012_day_18_data.csv,1,300,165.0,Training at home,,,,,,,,,,,,,
12,18,4148,B,49.71459888759702,38.53784607250676,2.485729944379851,0.6053510705328075,B,1119.286200031638,Correct,sub_012_day_18_data.csv,1,300,165.0,Training at home,,,,,,,,,,,,,
12,18,4149,A,34.98039415829789,44.89905236459246,1.7490197079148944,0.7052726653087354,A,2391.402400098741,Correct,sub_012_day_18_data.csv,1,300,165.0,Training at home,,,,,,,,,,,,,
12,18,4150,A,35.706913402311244,50.38183805715613,1.785345670115562,0.7913960615735618,A,861.7665000492707,Correct,sub_012_day_18_data.csv,1,300,166.0,Training at home,,,,,,,,,,,,,
12,18,4151,B,49.811063016250785,22.50048677691826,2.490553150812539,0.3534368198028035,B,840.7498999731615,Correct,sub_012_day_18_data.csv,1,300,166.0,Training at home,,,,,,,,,,,,,
12,18,4152,B,68.40975546400553,59.47850336219983,3.4204877732002763,0.934286146046014,B,1311.1724000191316,Correct,sub_012_day_18_data.csv,1,300,166.0,Training at home,,,,,,,,,,,,,
12,18,4153,A,30.20074547492213,52.56412425746632,1.5100372737461063,0.8256753330481862,A,1075.353700085543,Correct,sub_012_day_18_data.csv,1,300,166.0,Training at home,,,,,,,,,,,,,
12,18,4154,B,40.54595161497032,27.29996051601359,2.027297580748516,0.4288267770019985,B,3412.3109999345616,Correct,sub_012_day_18_data.csv,1,300,166.0,Training at home,,,,,,,,,,,,,
12,18,4155,B,72.0232943269297,49.484303080618645,3.601164716346485,0.7772976151304115,B,1060.2608000626788,Correct,sub_012_day_18_data.csv,1,300,166.0,Training at home,,,,,,,,,,,,,
12,18,4156,B,55.66975619987601,49.01743010335424,2.7834878099938005,0.7699639915527443,B,5091.264799935743,Correct,sub_012_day_18_data.csv,1,300,166.0,Training at home,,,,,,,,,,,,,
12,18,4157,B,52.68998865072893,28.91526292993661,2.634499432536446,0.4541998879865306,A,556.4491000259295,Incorrect,sub_012_day_18_data.csv,0,300,166.0,Training at home,,,,,,,,,,,,,
12,18,4158,B,77.66237400753491,51.37404504606734,3.8831187003767456,0.8069816125095812,B,610.9697000356391,Correct,sub_012_day_18_data.csv,1,300,166.0,Training at home,,,,,,,,,,,,,
12,18,4159,B,64.64852642335546,35.862879631880425,3.232426321167773,0.5633327959404528,B,498.8122000358999,Correct,sub_012_day_18_data.csv,1,300,166.0,Training at home,,,,,,,,,,,,,
12,18,4160,B,45.82869649492934,18.850355392582053,2.291434824746467,0.2961006900944626,B,507.0416999515146,Correct,sub_012_day_18_data.csv,1,300,166.0,Training at home,,,,,,,,,,,,,
12,18,4161,B,75.7346386589859,54.1738875720506,3.7867319329492943,0.8509614360637678,B,834.7528999438509,Correct,sub_012_day_18_data.csv,1,300,166.0,Training at home,,,,,,,,,,,,,
12,18,4162,A,42.33315711218263,67.9010009171848,2.1166578556091316,1.066586428264108,A,1162.1380998985842,Correct,sub_012_day_18_data.csv,1,300,166.0,Training at home,,,,,,,,,,,,,
12,18,4163,B,52.331990976764,41.08746091780112,2.616599548838201,0.6454003268701087,B,1534.4614998903126,Correct,sub_012_day_18_data.csv,1,300,166.0,Training at home,,,,,,,,,,,,,
12,18,4164,A,63.5349371443987,77.72036445220535,3.1767468572199347,1.220828629986848,A,775.5140999797732,Correct,sub_012_day_18_data.csv,1,300,166.0,Training at home,,,,,,,,,,,,,
12,18,4165,B,62.70533964710976,30.377634468673577,3.1352669823554877,0.4771707664011049,B,535.660200053826,Correct,sub_012_day_18_data.csv,1,300,166.0,Training at home,,,,,,,,,,,,,
12,18,4166,A,38.677871107016855,48.13972158964364,1.933893555350843,0.7561769784594121,A,1663.5874999919906,Correct,sub_012_day_18_data.csv,1,300,166.0,Training at home,,,,,,,,,,,,,
12,18,4167,A,37.820810629040366,56.544739655172194,1.8910405314520184,0.888202693499182,A,1488.3667000103742,Correct,sub_012_day_18_data.csv,1,300,166.0,Training at home,,,,,,,,,,,,,
12,18,4168,B,77.09467768627215,55.793000813419226,3.854733884313607,0.8763944073858361,B,1265.309000038542,Correct,sub_012_day_18_data.csv,1,300,166.0,Training at home,,,,,,,,,,,,,
12,18,4169,A,18.59553273593548,31.59588449911963,0.929776636796774,0.4963069931305292,A,765.0006000185385,Correct,sub_012_day_18_data.csv,1,300,166.0,Training at home,,,,,,,,,,,,,
12,18,4170,A,59.038829321082446,68.9468133353898,2.9519414660541226,1.0830140113144369,A,2267.742099938914,Correct,sub_012_day_18_data.csv,1,300,166.0,Training at home,,,,,,,,,,,,,
12,18,4171,B,36.739071326186945,20.108820427323604,1.8369535663093473,0.315868612634181,B,1161.8992000585422,Correct,sub_012_day_18_data.csv,1,300,166.0,Training at home,,,,,,,,,,,,,
12,18,4172,B,41.36268060989133,26.733091615012313,2.0681340304945666,0.4199224211273278,B,1217.5123000051826,Correct,sub_012_day_18_data.csv,1,300,166.0,Training at home,,,,,,,,,,,,,
12,18,4173,B,38.0567838265564,28.66143811850437,1.90283919132782,0.4502128171720589,B,1907.205899944529,Correct,sub_012_day_18_data.csv,1,300,166.0,Training at home,,,,,,,,,,,,,
12,18,4174,B,52.15180684284641,24.93061568518222,2.6075903421423208,0.3916091954301947,B,723.7587999552488,Correct,sub_012_day_18_data.csv,1,300,166.0,Training at home,,,,,,,,,,,,,
12,18,4175,B,82.30751746294396,63.16749054868794,4.115375873147198,0.9922326212673036,B,663.3425999898463,Correct,sub_012_day_18_data.csv,1,300,167.0,Training at home,,,,,,,,,,,,,
12,18,4176,B,65.73486522755262,44.6391489415568,3.286743261377631,0.7011901118864772,B,638.3798000169918,Correct,sub_012_day_18_data.csv,1,300,167.0,Training at home,,,,,,,,,,,,,
12,18,4177,B,78.02837825478777,52.41190746173268,3.901418912739388,0.8232843172120372,B,1152.6278000092134,Correct,sub_012_day_18_data.csv,1,300,167.0,Training at home,,,,,,,,,,,,,
12,18,4178,B,36.94018065384456,13.9885035648078,1.8470090326922275,0.219730900169574,B,829.724199953489,Correct,sub_012_day_18_data.csv,1,300,167.0,Training at home,,,,,,,,,,,,,
12,18,4179,A,31.37293412192531,48.196912263752694,1.5686467060962657,0.7570753274675863,A,2505.1128999330103,Correct,sub_012_day_18_data.csv,1,300,167.0,Training at home,,,,,,,,,,,,,
12,18,4180,A,54.759963325983335,77.6693541651253,2.7379981662991666,1.2200273622711073,A,1146.2302000727504,Correct,sub_012_day_18_data.csv,1,300,167.0,Training at home,,,,,,,,,,,,,
12,18,4181,B,65.06440326795402,46.17338813474999,3.253220163397702,0.7252898847774035,B,620.568500016816,Correct,sub_012_day_18_data.csv,1,300,167.0,Training at home,,,,,,,,,,,,,
12,18,4182,B,73.50410875518685,48.07980798980236,3.6752054377593426,0.7552358578338546,B,770.1348999980837,Correct,sub_012_day_18_data.csv,1,300,167.0,Training at home,,,,,,,,,,,,,
12,18,4183,A,23.9101705794814,51.52240163506803,1.19550852897407,0.8093119923601625,A,865.9891999559477,Correct,sub_012_day_18_data.csv,1,300,167.0,Training at home,,,,,,,,,,,,,
12,18,4184,B,46.84220124173885,25.47973629710398,2.3421100620869426,0.4002347618319353,B,1033.9346999535337,Correct,sub_012_day_18_data.csv,1,300,167.0,Training at home,,,,,,,,,,,,,
12,18,4185,B,51.58197502033016,39.98911852230617,2.579098751016508,0.6281476048660429,B,1595.44599999208,Correct,sub_012_day_18_data.csv,1,300,167.0,Training at home,,,,,,,,,,,,,
12,18,4186,B,68.28796630231373,43.337491849086696,3.4143983151156867,0.6807437300904915,B,790.1437999680638,Correct,sub_012_day_18_data.csv,1,300,167.0,Training at home,,,,,,,,,,,,,
12,18,4187,B,56.62608243215603,41.80200663570233,2.831304121607802,0.656624384760171,B,2226.131400093436,Correct,sub_012_day_18_data.csv,1,300,167.0,Training at home,,,,,,,,,,,,,
12,18,4188,A,68.6147993150704,84.65976977303265,3.43073996575352,1.329832553867813,A,3771.950599970296,Correct,sub_012_day_18_data.csv,1,300,167.0,Training at home,,,,,,,,,,,,,
12,18,4189,B,50.09977296603819,24.194895444790923,2.5049886483019095,0.3800525289186416,B,1324.8974999878556,Correct,sub_012_day_18_data.csv,1,300,167.0,Training at home,,,,,,,,,,,,,
12,18,4190,A,29.164507323961576,40.873081381147024,1.4582253661980789,0.6420328609829463,A,970.8161000162364,Correct,sub_012_day_18_data.csv,1,300,167.0,Training at home,,,,,,,,,,,,,
12,18,4191,B,88.57973514332431,67.26701709423938,4.428986757166216,1.0566278336608077,B,1976.9038000376895,Correct,sub_012_day_18_data.csv,1,300,167.0,Training at home,,,,,,,,,,,,,
12,18,4192,B,83.46725353592652,61.52533221901203,4.173362676796326,0.9664376585445978,B,1228.8819000823423,Correct,sub_012_day_18_data.csv,1,300,167.0,Training at home,,,,,,,,,,,,,
12,18,4193,B,76.9965218300818,51.75515600723868,3.8498260915040903,0.8129680894886735,B,460.96520009450614,Correct,sub_012_day_18_data.csv,1,300,167.0,Training at home,,,,,,,,,,,,,
12,18,4194,B,38.26668236958538,24.029857314989933,1.9133341184792692,0.3774601160379166,B,878.4032999537885,Correct,sub_012_day_18_data.csv,1,300,167.0,Training at home,,,,,,,,,,,,,
12,18,4195,A,26.356880674738115,58.363269370652155,1.3178440337369055,0.916768091471615,A,1344.7723999852317,Correct,sub_012_day_18_data.csv,1,300,167.0,Training at home,,,,,,,,,,,,,
12,18,4196,A,29.90649389209544,39.57547354826061,1.4953246946047722,0.6216500848077635,A,826.2890999903902,Correct,sub_012_day_18_data.csv,1,300,167.0,Training at home,,,,,,,,,,,,,
12,18,4197,B,73.04197005011827,62.96912533121355,3.6520985025059134,0.9891167077175772,A,811.1610000487417,Incorrect,sub_012_day_18_data.csv,0,300,167.0,Training at home,,,,,,,,,,,,,
12,18,4198,A,51.60019743005988,81.09079818044201,2.580009871502994,1.273771279187046,A,1157.1797000942752,Correct,sub_012_day_18_data.csv,1,300,167.0,Training at home,,,,,,,,,,,,,
12,18,4199,A,19.60946543201195,44.22699340588355,0.9804732716005976,0.69471598787144,A,883.8869999162853,Correct,sub_012_day_18_data.csv,1,300,167.0,Training at home,,,,,,,,,,,,,
