subject,day,trial,cat,x,y,xt,yt,resp,rt,fb,f_name,acc,n_trials,block,session_type,ns_left_digit,ns_right_digit,ns_left_size,ns_right_size,ns_congruent,ns_cue,ns_correct_side,ns_resp,ns_rt,ns_fb,acc_stroop,acc_stroop_mean,resp_key
12,20,4500,B,57.912661527797866,50.88371043550225,2.895633076389893,0.7992794544578208,B,1366.1694579932373,Correct,sub_012_day_20_data.csv,1,300,180.0,Training at home,,,,,,,,,,,,,
12,20,4501,A,28.506154521171176,37.77002761433069,1.4253077260585587,0.5932902063953246,A,581.8439169961493,Correct,sub_012_day_20_data.csv,1,300,180.0,Training at home,,,,,,,,,,,,,
12,20,4502,B,54.46347842863606,27.619563178680192,2.723173921431803,0.4338470838875041,B,437.065584002994,Correct,sub_012_day_20_data.csv,1,300,180.0,Training at home,,,,,,,,,,,,,
12,20,4503,B,67.54844004260362,51.79775151494981,3.3774220021301806,0.8136371781591796,B,581.1269590049051,Correct,sub_012_day_20_data.csv,1,300,180.0,Training at home,,,,,,,,,,,,,
12,20,4504,A,14.20838575594678,39.64586492063863,0.710419287797339,0.622755789899458,A,453.12787502189167,Correct,sub_012_day_20_data.csv,1,300,180.0,Training at home,,,,,,,,,,,,,
12,20,4505,B,80.22950876901874,54.952027380591176,4.011475438450937,0.863184427593652,B,493.5921670112293,Correct,sub_012_day_20_data.csv,1,300,180.0,Training at home,,,,,,,,,,,,,
12,20,4506,A,30.69555375894196,40.12559465442352,1.5347776879470982,0.630291366936294,A,502.38883402198553,Correct,sub_012_day_20_data.csv,1,300,180.0,Training at home,,,,,,,,,,,,,
12,20,4507,A,24.250008502641332,36.3517415295333,1.2125004251320666,0.5710118206718839,A,573.9464170183055,Correct,sub_012_day_20_data.csv,1,300,180.0,Training at home,,,,,,,,,,,,,
12,20,4508,B,48.317272760732074,20.008235286992132,2.415863638036603,0.3142886249445527,B,478.2238749903627,Correct,sub_012_day_20_data.csv,1,300,180.0,Training at home,,,,,,,,,,,,,
12,20,4509,B,44.96416739595376,16.312696091613493,2.248208369797688,0.2562392310082794,B,478.6369579960592,Correct,sub_012_day_20_data.csv,1,300,180.0,Training at home,,,,,,,,,,,,,
12,20,4510,A,45.734995042643675,68.51803878656604,2.2867497521321836,1.076278836451282,A,519.621626008302,Correct,sub_012_day_20_data.csv,1,300,180.0,Training at home,,,,,,,,,,,,,
12,20,4511,A,56.67877231430326,68.32612804162173,2.833938615715163,1.073264309518972,A,933.591000008164,Correct,sub_012_day_20_data.csv,1,300,180.0,Training at home,,,,,,,,,,,,,
12,20,4512,A,61.27824289880897,74.4087421859457,3.0639121449404483,1.1688097890711195,A,939.3814170034602,Correct,sub_012_day_20_data.csv,1,300,180.0,Training at home,,,,,,,,,,,,,
12,20,4513,A,34.04749217998543,61.71749221362147,1.7023746089992715,0.9694561006814923,A,591.4057500194758,Correct,sub_012_day_20_data.csv,1,300,180.0,Training at home,,,,,,,,,,,,,
12,20,4514,B,33.78021479919775,12.807342972515135,1.6890107399598877,0.2011772729722921,B,553.7052500003483,Correct,sub_012_day_20_data.csv,1,300,180.0,Training at home,,,,,,,,,,,,,
12,20,4515,B,81.86447975911105,65.97550549390506,4.093223987955553,1.0363408168826258,B,588.915582979098,Correct,sub_012_day_20_data.csv,1,300,180.0,Training at home,,,,,,,,,,,,,
12,20,4516,A,57.79708500313564,86.47419647560618,2.889854250156782,1.3583335018642235,A,515.1759590080474,Correct,sub_012_day_20_data.csv,1,300,180.0,Training at home,,,,,,,,,,,,,
12,20,4517,A,45.59620751965759,59.72360363358897,2.2798103759828794,0.9381361721059588,A,565.2119169826619,Correct,sub_012_day_20_data.csv,1,300,180.0,Training at home,,,,,,,,,,,,,
12,20,4518,B,70.21163322818792,58.41956389501217,3.510581661409396,0.9176523637924486,B,1089.3777500023134,Correct,sub_012_day_20_data.csv,1,300,180.0,Training at home,,,,,,,,,,,,,
12,20,4519,A,51.611379663725714,81.52342937651173,2.5805689831862857,1.2805670341234778,A,462.2859579976648,Correct,sub_012_day_20_data.csv,1,300,180.0,Training at home,,,,,,,,,,,,,
12,20,4520,A,47.73851295851513,72.21472327798385,2.3869256479257563,1.1343462206556696,A,527.474208996864,Correct,sub_012_day_20_data.csv,1,300,180.0,Training at home,,,,,,,,,,,,,
12,20,4521,A,59.49092817521387,70.97426227680886,2.9745464087606934,1.1148611048138894,A,683.7470000027679,Correct,sub_012_day_20_data.csv,1,300,180.0,Training at home,,,,,,,,,,,,,
12,20,4522,B,63.446102292901614,42.66691149833109,3.1723051146450807,0.6702102785726142,B,577.1522920113057,Correct,sub_012_day_20_data.csv,1,300,180.0,Training at home,,,,,,,,,,,,,
12,20,4523,A,45.56524962875241,74.83281902623922,2.2782624814376207,1.1754711725012383,A,671.8270419805776,Correct,sub_012_day_20_data.csv,1,300,180.0,Training at home,,,,,,,,,,,,,
12,20,4524,A,31.407885072506396,61.11001261686595,1.5703942536253197,0.959913833489628,A,479.9771250109188,Correct,sub_012_day_20_data.csv,1,300,180.0,Training at home,,,,,,,,,,,,,
12,20,4525,A,23.654931119801272,51.75026882361545,1.1827465559900636,0.812891321787836,A,1875.0456669949929,Correct,sub_012_day_20_data.csv,1,300,181.0,Training at home,,,,,,,,,,,,,
12,20,4526,B,63.175739183426025,40.3059927848765,3.158786959171301,0.6331250541430561,B,1410.380042012548,Correct,sub_012_day_20_data.csv,1,300,181.0,Training at home,,,,,,,,,,,,,
12,20,4527,A,44.27946397277474,66.29420599673765,2.213973198638737,1.041346952674597,A,902.4187500181142,Correct,sub_012_day_20_data.csv,1,300,181.0,Training at home,,,,,,,,,,,,,
12,20,4528,B,55.8709019955627,27.106972459561803,2.793545099778135,0.4257953277001011,B,708.586666994961,Correct,sub_012_day_20_data.csv,1,300,181.0,Training at home,,,,,,,,,,,,,
12,20,4529,A,48.731887935259536,73.45922798432332,2.4365943967629766,1.1538948548696393,A,540.6862090167124,Correct,sub_012_day_20_data.csv,1,300,181.0,Training at home,,,,,,,,,,,,,
12,20,4530,B,57.57943911036514,26.07342744633199,2.878971955518257,0.4095604405965153,B,500.0300419924315,Correct,sub_012_day_20_data.csv,1,300,181.0,Training at home,,,,,,,,,,,,,
12,20,4531,A,61.873217289190805,76.82168299623348,3.09366086445954,1.2067121746868552,A,1575.0435829977505,Correct,sub_012_day_20_data.csv,1,300,181.0,Training at home,,,,,,,,,,,,,
12,20,4532,B,70.6453256924837,54.2808527890104,3.532266284624185,0.8526416417627203,B,708.0777510127518,Correct,sub_012_day_20_data.csv,1,300,181.0,Training at home,,,,,,,,,,,,,
12,20,4533,A,23.50052496826344,47.302128976702974,1.1750262484131722,0.7430201044618348,A,427.0426670263987,Correct,sub_012_day_20_data.csv,1,300,181.0,Training at home,,,,,,,,,,,,,
12,20,4534,A,39.002539788063274,62.79329754585964,1.9501269894031636,0.986354811323753,A,692.9737080063205,Correct,sub_012_day_20_data.csv,1,300,181.0,Training at home,,,,,,,,,,,,,
12,20,4535,A,42.315793377554066,54.756711007716135,2.1157896688777034,0.860116405182902,A,479.5181670051534,Correct,sub_012_day_20_data.csv,1,300,181.0,Training at home,,,,,,,,,,,,,
12,20,4536,A,47.39627133086924,57.73188560342907,2.369813566543462,0.9068503384480956,A,489.4153750210535,Correct,sub_012_day_20_data.csv,1,300,181.0,Training at home,,,,,,,,,,,,,
12,20,4537,A,48.13350816572533,76.3632370882767,2.406675408286267,1.1995109232043286,A,1242.4260010011494,Correct,sub_012_day_20_data.csv,1,300,181.0,Training at home,,,,,,,,,,,,,
12,20,4538,A,54.989296054768566,73.8722040132903,2.7494648027384283,1.1603818671631962,A,559.5137079944834,Correct,sub_012_day_20_data.csv,1,300,181.0,Training at home,,,,,,,,,,,,,
12,20,4539,A,31.642052334918738,64.06371269740536,1.5821026167459369,1.006310445859279,A,953.1180420017336,Correct,sub_012_day_20_data.csv,1,300,181.0,Training at home,,,,,,,,,,,,,
12,20,4540,B,64.29746043201911,48.54638204918072,3.214873021600955,0.7625647860203478,A,423.12487500021234,Incorrect,sub_012_day_20_data.csv,0,300,181.0,Training at home,,,,,,,,,,,,,
12,20,4541,B,77.63949197091362,55.68084178231,3.8819745985456815,0.8746326174450034,B,490.642916993238,Correct,sub_012_day_20_data.csv,1,300,181.0,Training at home,,,,,,,,,,,,,
12,20,4542,B,42.23910186394546,15.397273630395825,2.1119550931972726,0.2418598086128167,B,678.9629579870962,Correct,sub_012_day_20_data.csv,1,300,181.0,Training at home,,,,,,,,,,,,,
12,20,4543,A,42.50632774126888,62.17576189170163,2.1253163870634437,0.9766545839515904,A,870.4652090091258,Correct,sub_012_day_20_data.csv,1,300,181.0,Training at home,,,,,,,,,,,,,
12,20,4544,A,13.07357034256538,41.25954944876773,0.6536785171282689,0.6481034871933674,A,503.6125840269961,Correct,sub_012_day_20_data.csv,1,300,181.0,Training at home,,,,,,,,,,,,,
12,20,4545,A,55.45792204183263,82.70746689839554,2.7728961020916314,1.299165852025102,A,580.2277089969721,Correct,sub_012_day_20_data.csv,1,300,181.0,Training at home,,,,,,,,,,,,,
12,20,4546,B,67.51069440400553,55.08559278299465,3.375534720200277,0.8652824680284747,B,590.5703750031535,Correct,sub_012_day_20_data.csv,1,300,181.0,Training at home,,,,,,,,,,,,,
12,20,4547,B,40.31099103328824,17.635019249156667,2.015549551664412,0.2770102345953258,B,580.6228340079542,Correct,sub_012_day_20_data.csv,1,300,181.0,Training at home,,,,,,,,,,,,,
12,20,4548,B,63.2175847920653,35.32045287352936,3.1608792396032652,0.5548123763447217,B,617.9677920008544,Correct,sub_012_day_20_data.csv,1,300,181.0,Training at home,,,,,,,,,,,,,
12,20,4549,A,58.11835241746003,86.62824320025562,2.9059176208730015,1.3607532621565652,A,771.160083997529,Correct,sub_012_day_20_data.csv,1,300,181.0,Training at home,,,,,,,,,,,,,
12,20,4550,A,11.389830247805088,36.24322679162792,0.5694915123902543,0.5693072751548351,A,1663.2915420050267,Correct,sub_012_day_20_data.csv,1,300,182.0,Training at home,,,,,,,,,,,,,
12,20,4551,A,42.21861341817254,54.61065984382924,2.110930670908627,0.8578222388653253,A,846.0780830064323,Correct,sub_012_day_20_data.csv,1,300,182.0,Training at home,,,,,,,,,,,,,
12,20,4552,B,74.77902514603201,48.78698209623508,3.738951257301601,0.7663441227217445,B,833.2889590237755,Correct,sub_012_day_20_data.csv,1,300,182.0,Training at home,,,,,,,,,,,,,
12,20,4553,A,24.94938682482283,50.642515041886405,1.2474693412411415,0.7954907660745048,A,894.7913759911899,Correct,sub_012_day_20_data.csv,1,300,182.0,Training at home,,,,,,,,,,,,,
12,20,4554,B,44.89202288939076,34.97315719012708,2.244601144469538,0.5493570685067214,B,646.118333999766,Correct,sub_012_day_20_data.csv,1,300,182.0,Training at home,,,,,,,,,,,,,
12,20,4555,B,70.71727347867682,55.10276264686314,3.5358636739338407,0.8655521716194365,B,1112.4520000012126,Correct,sub_012_day_20_data.csv,1,300,182.0,Training at home,,,,,,,,,,,,,
12,20,4556,A,35.98883076125879,53.60127223232757,1.7994415380629394,0.8419668153407341,A,2208.8743329804856,Correct,sub_012_day_20_data.csv,1,300,182.0,Training at home,,,,,,,,,,,,,
12,20,4557,A,26.96609897345033,47.947982558988656,1.3483049486725165,0.7531651488088515,A,543.3557920041494,Correct,sub_012_day_20_data.csv,1,300,182.0,Training at home,,,,,,,,,,,,,
12,20,4558,B,71.44526613765123,46.35761499544816,3.5722633068825616,0.7281837135382199,B,688.4594169969205,Correct,sub_012_day_20_data.csv,1,300,182.0,Training at home,,,,,,,,,,,,,
12,20,4559,A,31.33175373366327,51.06467664796504,1.5665876866831636,0.8021220650759263,A,734.6110419894103,Correct,sub_012_day_20_data.csv,1,300,182.0,Training at home,,,,,,,,,,,,,
12,20,4560,B,55.90153686665799,27.88379338246834,2.7950768433328994,0.4379976022228911,B,2070.1043760054745,Correct,sub_012_day_20_data.csv,1,300,182.0,Training at home,,,,,,,,,,,,,
12,20,4561,B,55.79443512643461,45.294449304611575,2.7897217563217307,0.7114835459188151,B,722.2936670004856,Correct,sub_012_day_20_data.csv,1,300,182.0,Training at home,,,,,,,,,,,,,
12,20,4562,B,60.94611789434229,50.99873405731343,3.0473058947171143,0.8010862412841773,B,1442.2090419975575,Correct,sub_012_day_20_data.csv,1,300,182.0,Training at home,,,,,,,,,,,,,
12,20,4563,B,64.70002622689154,32.49318598733868,3.235001311344577,0.5104017719477499,B,414.2966250074096,Correct,sub_012_day_20_data.csv,1,300,182.0,Training at home,,,,,,,,,,,,,
12,20,4564,B,63.71597917188433,38.567377426124786,3.1857989585942166,0.6058149479506924,B,738.7510419939645,Correct,sub_012_day_20_data.csv,1,300,182.0,Training at home,,,,,,,,,,,,,
12,20,4565,B,32.412915633543555,16.53757823149748,1.6206457816771778,0.2597716714011948,B,630.8656670153141,Correct,sub_012_day_20_data.csv,1,300,182.0,Training at home,,,,,,,,,,,,,
12,20,4566,B,65.35166210094229,57.36533125666185,3.2675831050471147,0.9010925162333692,B,3181.6810840100516,Correct,sub_012_day_20_data.csv,1,300,182.0,Training at home,,,,,,,,,,,,,
12,20,4567,B,71.13310629717358,49.38615323833928,3.5566553148586793,0.7757558810131322,B,959.5576249994338,Correct,sub_012_day_20_data.csv,1,300,182.0,Training at home,,,,,,,,,,,,,
12,20,4568,A,40.18882935339056,47.66465168695281,2.009441467669528,0.7487145978782364,A,753.548459004378,Correct,sub_012_day_20_data.csv,1,300,182.0,Training at home,,,,,,,,,,,,,
12,20,4569,B,40.13496620212519,19.54646303984772,2.0067483101062593,0.30703512344825,B,418.3509169961326,Correct,sub_012_day_20_data.csv,1,300,182.0,Training at home,,,,,,,,,,,,,
12,20,4570,B,77.92876131529862,58.539849460317384,3.896438065764931,0.9195418050339276,B,871.501666988479,Correct,sub_012_day_20_data.csv,1,300,182.0,Training at home,,,,,,,,,,,,,
12,20,4571,B,46.459133965802245,18.6352514678551,2.322956698290112,0.2927218455460599,B,438.8155009946786,Correct,sub_012_day_20_data.csv,1,300,182.0,Training at home,,,,,,,,,,,,,
12,20,4572,B,82.82086235293995,64.96144362025338,4.141043117646998,1.0204119702198775,B,1179.9705839948729,Correct,sub_012_day_20_data.csv,1,300,182.0,Training at home,,,,,,,,,,,,,
12,20,4573,B,42.50644127427393,28.003630961134355,2.1253220637136967,0.4398800065066968,B,686.4871669968124,Correct,sub_012_day_20_data.csv,1,300,182.0,Training at home,,,,,,,,,,,,,
12,20,4574,A,54.55011131934945,72.801744971287,2.7275055659674723,1.1435671358515644,A,864.0276250080206,Correct,sub_012_day_20_data.csv,1,300,182.0,Training at home,,,,,,,,,,,,,
12,20,4575,A,32.03427480411339,55.30022354873804,1.6017137402056694,0.8686538802129435,A,518.4463749756105,Correct,sub_012_day_20_data.csv,1,300,183.0,Training at home,,,,,,,,,,,,,
12,20,4576,A,40.07188536914822,67.37350443382859,2.003594268457411,1.0583005328795765,A,411.8500009935815,Correct,sub_012_day_20_data.csv,1,300,183.0,Training at home,,,,,,,,,,,,,
12,20,4577,A,59.876513786050594,74.38991656866855,2.99382568930253,1.1685140769664335,A,1149.1056670201942,Correct,sub_012_day_20_data.csv,1,300,183.0,Training at home,,,,,,,,,,,,,
12,20,4578,B,81.44286068106331,64.0213598659946,4.072143034053165,1.0056451691391854,B,710.2809169737156,Correct,sub_012_day_20_data.csv,1,300,183.0,Training at home,,,,,,,,,,,,,
12,20,4579,B,59.53439889343092,51.08032587353355,2.976719944671546,0.8023678825363283,B,833.8599170092493,Correct,sub_012_day_20_data.csv,1,300,183.0,Training at home,,,,,,,,,,,,,
12,20,4580,A,23.70541339738976,40.68664703270767,1.185270669869488,0.6391043570857768,A,758.4523340046871,Correct,sub_012_day_20_data.csv,1,300,183.0,Training at home,,,,,,,,,,,,,
12,20,4581,A,25.4032431223283,37.742569018810855,1.270162156116415,0.5928588877855095,A,601.618916989537,Correct,sub_012_day_20_data.csv,1,300,183.0,Training at home,,,,,,,,,,,,,
12,20,4582,A,49.788357564517206,60.487532956353256,2.4894178782258605,0.9501359458472496,A,673.4189169947058,Correct,sub_012_day_20_data.csv,1,300,183.0,Training at home,,,,,,,,,,,,,
12,20,4583,B,78.95876715585234,62.8278764175962,3.947938357792617,0.9868979749708384,B,996.307292021811,Correct,sub_012_day_20_data.csv,1,300,183.0,Training at home,,,,,,,,,,,,,
12,20,4584,A,41.92165149818444,51.39852113099633,2.096082574909222,0.8073660819525892,A,953.3234999980778,Correct,sub_012_day_20_data.csv,1,300,183.0,Training at home,,,,,,,,,,,,,
12,20,4585,B,45.10267500059448,21.83213199114538,2.255133750029724,0.3429383273779251,B,450.49866699264385,Correct,sub_012_day_20_data.csv,1,300,183.0,Training at home,,,,,,,,,,,,,
12,20,4586,B,63.55954707258606,33.68454757904885,3.1779773536293026,0.5291156360691786,B,676.385750004556,Correct,sub_012_day_20_data.csv,1,300,183.0,Training at home,,,,,,,,,,,,,
12,20,4587,B,46.81532794335951,23.466501901227904,2.3407663971679757,0.3686109498917425,B,773.9353759970982,Correct,sub_012_day_20_data.csv,1,300,183.0,Training at home,,,,,,,,,,,,,
12,20,4588,B,37.37769195409294,22.38970240741559,1.8688845977046469,0.3516966229959926,B,762.1858750062529,Correct,sub_012_day_20_data.csv,1,300,183.0,Training at home,,,,,,,,,,,,,
12,20,4589,A,38.23671221674087,68.72282653466517,1.9118356108370436,1.079495634876149,A,451.934041979257,Correct,sub_012_day_20_data.csv,1,300,183.0,Training at home,,,,,,,,,,,,,
12,20,4590,B,62.98945914953729,49.908717788665854,3.1494729574768643,0.7839643057747945,B,1874.6159579895905,Correct,sub_012_day_20_data.csv,1,300,183.0,Training at home,,,,,,,,,,,,,
12,20,4591,B,37.18295990785184,20.130473298189607,1.859147995392592,0.3162087351343898,B,577.5410839996766,Correct,sub_012_day_20_data.csv,1,300,183.0,Training at home,,,,,,,,,,,,,
12,20,4592,A,14.310433113721793,43.28358511922819,0.7155216556860896,0.6798969651579788,A,545.3996249998454,Correct,sub_012_day_20_data.csv,1,300,183.0,Training at home,,,,,,,,,,,,,
12,20,4593,A,41.180415267051806,58.88472158723764,2.0590207633525903,0.9249590437357303,A,684.5936250174418,Correct,sub_012_day_20_data.csv,1,300,183.0,Training at home,,,,,,,,,,,,,
12,20,4594,B,72.18066190073637,60.744219005144345,3.6090330950368186,0.9541679608730548,B,561.2989170185756,Correct,sub_012_day_20_data.csv,1,300,183.0,Training at home,,,,,,,,,,,,,
12,20,4595,B,54.000019337720246,46.026793609099535,2.7000009668860123,0.7229871833532037,B,641.197666991502,Correct,sub_012_day_20_data.csv,1,300,183.0,Training at home,,,,,,,,,,,,,
12,20,4596,A,43.70387920015332,67.92688593410273,2.1851939600076657,1.0669930291590448,A,2436.9535840232857,Correct,sub_012_day_20_data.csv,1,300,183.0,Training at home,,,,,,,,,,,,,
12,20,4597,A,62.05021826705624,85.25412775597059,3.102510913352812,1.3391687072318144,A,645.1606260088738,Correct,sub_012_day_20_data.csv,1,300,183.0,Training at home,,,,,,,,,,,,,
12,20,4598,A,21.63054540247156,35.206947717054035,1.081527270123578,0.5530294415160845,A,733.0580420093611,Correct,sub_012_day_20_data.csv,1,300,183.0,Training at home,,,,,,,,,,,,,
12,20,4599,B,60.75418120866838,29.04074986176265,3.0377090604334187,0.4561710321022617,B,821.2271670054179,Correct,sub_012_day_20_data.csv,1,300,183.0,Training at home,,,,,,,,,,,,,
12,20,4600,B,71.88761590191297,53.70925626375614,3.594380795095648,0.8436630245399394,B,583.6837920069229,Correct,sub_012_day_20_data.csv,1,300,184.0,Training at home,,,,,,,,,,,,,
12,20,4601,A,21.43383419218852,42.33786206903394,1.071691709609426,0.6650415822238749,A,651.1664589925203,Correct,sub_012_day_20_data.csv,1,300,184.0,Training at home,,,,,,,,,,,,,
12,20,4602,A,22.31290682429323,52.61629116623308,1.1156453412146616,0.826494768934897,A,885.1125419896562,Correct,sub_012_day_20_data.csv,1,300,184.0,Training at home,,,,,,,,,,,,,
12,20,4603,A,22.5599776103123,49.76286887514378,1.127998880515615,0.7816733163985194,A,741.2981670058798,Correct,sub_012_day_20_data.csv,1,300,184.0,Training at home,,,,,,,,,,,,,
12,20,4604,B,30.40445637115496,11.586455096065592,1.520222818557748,0.1819996110547384,B,1034.4807079818563,Correct,sub_012_day_20_data.csv,1,300,184.0,Training at home,,,,,,,,,,,,,
12,20,4605,B,56.43663934745462,29.35478392383804,2.8218319673727312,0.4611038676142266,B,1265.497375978157,Correct,sub_012_day_20_data.csv,1,300,184.0,Training at home,,,,,,,,,,,,,
12,20,4606,B,65.88014714307776,57.076107071349895,3.294007357153888,0.8965493933542864,B,655.5143760051578,Correct,sub_012_day_20_data.csv,1,300,184.0,Training at home,,,,,,,,,,,,,
12,20,4607,B,68.17469521583052,49.17864564182625,3.408734760791526,0.7724963593092852,B,695.7735000178218,Correct,sub_012_day_20_data.csv,1,300,184.0,Training at home,,,,,,,,,,,,,
12,20,4608,B,64.26692000888241,52.69301401265306,3.2133460004441203,0.8276999285882745,B,928.9326669822912,Correct,sub_012_day_20_data.csv,1,300,184.0,Training at home,,,,,,,,,,,,,
12,20,4609,A,35.490620931368404,64.53928676473316,1.77453104656842,1.0137807458400534,A,675.9200420056004,Correct,sub_012_day_20_data.csv,1,300,184.0,Training at home,,,,,,,,,,,,,
12,20,4610,B,60.18508418856456,34.76938541255385,3.0092542094282284,0.5461562289095565,B,595.6861669837963,Correct,sub_012_day_20_data.csv,1,300,184.0,Training at home,,,,,,,,,,,,,
12,20,4611,A,63.73982636527269,88.77442502458484,3.1869913182636345,1.3944654074194682,A,899.4048750028014,Correct,sub_012_day_20_data.csv,1,300,184.0,Training at home,,,,,,,,,,,,,
12,20,4612,A,63.14378524391169,78.76764420335711,3.1571892621955846,1.2372792618492068,A,1754.4878760236315,Correct,sub_012_day_20_data.csv,1,300,184.0,Training at home,,,,,,,,,,,,,
12,20,4613,A,51.761664733710326,73.66397802760478,2.588083236685516,1.1571110610286155,A,525.6488759769127,Correct,sub_012_day_20_data.csv,1,300,184.0,Training at home,,,,,,,,,,,,,
12,20,4614,A,22.126105595048013,50.31843015182694,1.106305279752401,0.7904000525257533,A,867.2964590077754,Correct,sub_012_day_20_data.csv,1,300,184.0,Training at home,,,,,,,,,,,,,
12,20,4615,A,40.31654233690468,64.34142532800519,2.015827116845234,1.0106727456597866,A,1064.3539589946158,Correct,sub_012_day_20_data.csv,1,300,184.0,Training at home,,,,,,,,,,,,,
12,20,4616,B,47.432687695496966,38.1277772440214,2.371634384774848,0.5989097244376287,A,1382.3545839986764,Incorrect,sub_012_day_20_data.csv,0,300,184.0,Training at home,,,,,,,,,,,,,
12,20,4617,B,70.12752125634916,53.20253003928958,3.506376062817458,0.8357033876191121,B,683.0071250151377,Correct,sub_012_day_20_data.csv,1,300,184.0,Training at home,,,,,,,,,,,,,
12,20,4618,A,65.66707695444609,79.39686553679068,3.2833538477223043,1.2471630474421913,A,925.1768749963958,Correct,sub_012_day_20_data.csv,1,300,184.0,Training at home,,,,,,,,,,,,,
12,20,4619,B,71.23375194447517,50.27531595469112,3.5616875972237585,0.7897228163008165,B,477.5760420016013,Correct,sub_012_day_20_data.csv,1,300,184.0,Training at home,,,,,,,,,,,,,
12,20,4620,B,37.37444083951185,24.511832660877147,1.8687220419755928,0.3850309670671699,B,1400.3643750038464,Correct,sub_012_day_20_data.csv,1,300,184.0,Training at home,,,,,,,,,,,,,
12,20,4621,B,71.76685619307474,59.74853443612522,3.5883428096537373,0.9385277842364388,B,877.3412919836119,Correct,sub_012_day_20_data.csv,1,300,184.0,Training at home,,,,,,,,,,,,,
12,20,4622,A,26.15806599457975,40.0239594236227,1.3079032997289874,0.6286948844641452,A,1048.6015010101255,Correct,sub_012_day_20_data.csv,1,300,184.0,Training at home,,,,,,,,,,,,,
12,20,4623,B,61.59214929778141,45.19488736445864,3.0796074648890706,0.7099196306200071,B,768.6613750120159,Correct,sub_012_day_20_data.csv,1,300,184.0,Training at home,,,,,,,,,,,,,
12,20,4624,A,12.752150083882816,40.893587832456504,0.6376075041941409,0.6423549755668715,A,676.3238759886008,Correct,sub_012_day_20_data.csv,1,300,184.0,Training at home,,,,,,,,,,,,,
12,20,4625,B,30.44635478395619,15.160374055465898,1.5223177391978095,0.2381385987916248,B,1126.179124985356,Correct,sub_012_day_20_data.csv,1,300,185.0,Training at home,,,,,,,,,,,,,
12,20,4626,A,41.76826412443667,65.8316822828794,2.0884132062218335,1.0340816471667562,A,751.6607090074103,Correct,sub_012_day_20_data.csv,1,300,185.0,Training at home,,,,,,,,,,,,,
12,20,4627,B,40.3067160362903,25.191485742501236,2.015335801814515,0.3957069327082694,B,510.95412601716816,Correct,sub_012_day_20_data.csv,1,300,185.0,Training at home,,,,,,,,,,,,,
12,20,4628,B,81.57182681624668,65.91603533051259,4.078591340812334,1.035406661740518,B,874.9214999843389,Correct,sub_012_day_20_data.csv,1,300,185.0,Training at home,,,,,,,,,,,,,
12,20,4629,B,67.69565766629958,45.275138381163686,3.384782883314979,0.7111802106426255,B,803.1115009798668,Correct,sub_012_day_20_data.csv,1,300,185.0,Training at home,,,,,,,,,,,,,
12,20,4630,A,40.779725741502766,57.12874521953267,2.0389862870751383,0.8973762314524343,A,607.2529169905465,Correct,sub_012_day_20_data.csv,1,300,185.0,Training at home,,,,,,,,,,,,,
12,20,4631,A,20.311641012741916,37.995315724752984,1.0155820506370958,0.5968290237585436,A,753.0587499786634,Correct,sub_012_day_20_data.csv,1,300,185.0,Training at home,,,,,,,,,,,,,
12,20,4632,B,37.22137849257497,19.99756758925744,1.8610689246287484,0.3141210571403826,B,1029.455957992468,Correct,sub_012_day_20_data.csv,1,300,185.0,Training at home,,,,,,,,,,,,,
12,20,4633,B,62.185418402375234,43.74761348165721,3.109270920118762,0.6871859056303005,B,553.7343750183936,Correct,sub_012_day_20_data.csv,1,300,185.0,Training at home,,,,,,,,,,,,,
12,20,4634,B,68.29442485037953,58.31951775446806,3.414721242518977,0.916080842691682,B,1648.9974169817287,Correct,sub_012_day_20_data.csv,1,300,185.0,Training at home,,,,,,,,,,,,,
12,20,4635,B,74.28419888245116,58.506770913503935,3.7142099441225582,0.9190222084356248,B,739.1452500014566,Correct,sub_012_day_20_data.csv,1,300,185.0,Training at home,,,,,,,,,,,,,
12,20,4636,A,38.25413120227442,46.10662363348054,1.9127065601137212,0.72424115044386,A,1421.715625008801,Correct,sub_012_day_20_data.csv,1,300,185.0,Training at home,,,,,,,,,,,,,
12,20,4637,B,78.93140252296512,48.47789782845081,3.946570126148256,0.7614890383966882,B,2309.6143329748884,Correct,sub_012_day_20_data.csv,1,300,185.0,Training at home,,,,,,,,,,,,,
12,20,4638,B,74.60249205569116,45.5808636752196,3.7301246027845583,0.7159825323317389,B,3375.6091670074966,Correct,sub_012_day_20_data.csv,1,300,185.0,Training at home,,,,,,,,,,,,,
12,20,4639,A,16.54446452209507,39.83369632320105,0.8272232261047534,0.6257062386714759,A,830.9257919900119,Correct,sub_012_day_20_data.csv,1,300,185.0,Training at home,,,,,,,,,,,,,
12,20,4640,A,21.297841234512667,38.02697318805717,1.0648920617256334,0.5973262980292822,A,830.7049169961829,Correct,sub_012_day_20_data.csv,1,300,185.0,Training at home,,,,,,,,,,,,,
12,20,4641,A,17.542309771374207,45.61170163807615,0.8771154885687104,0.716466933919548,A,537.6632080005948,Correct,sub_012_day_20_data.csv,1,300,185.0,Training at home,,,,,,,,,,,,,
12,20,4642,A,36.47216743849074,45.54014105012004,1.823608371924537,0.7153428628325004,A,425.0140840013046,Correct,sub_012_day_20_data.csv,1,300,185.0,Training at home,,,,,,,,,,,,,
12,20,4643,A,20.743765083980207,49.70629633041772,1.0371882541990105,0.780784676943988,A,941.9321250170468,Correct,sub_012_day_20_data.csv,1,300,185.0,Training at home,,,,,,,,,,,,,
12,20,4644,A,19.77295896825508,36.035816654085515,0.988647948412754,0.5660492843329189,A,935.087249992648,Correct,sub_012_day_20_data.csv,1,300,185.0,Training at home,,,,,,,,,,,,,
12,20,4645,B,54.579884563231914,27.379041193279733,2.728994228161596,0.4300689733756996,A,1354.1705420066137,Incorrect,sub_012_day_20_data.csv,0,300,185.0,Training at home,,,,,,,,,,,,,
12,20,4646,A,40.61529074541359,71.16326677310964,2.030764537270679,1.1178299804992593,A,1159.490582998842,Correct,sub_012_day_20_data.csv,1,300,185.0,Training at home,,,,,,,,,,,,,
12,20,4647,B,76.49849261883823,45.54679642410909,3.8249246309419114,0.7154474052026548,B,842.5881669973023,Correct,sub_012_day_20_data.csv,1,300,185.0,Training at home,,,,,,,,,,,,,
12,20,4648,B,35.75563022770221,19.267976274687985,1.7877815113851108,0.302660663570511,B,2211.343750008382,Correct,sub_012_day_20_data.csv,1,300,185.0,Training at home,,,,,,,,,,,,,
12,20,4649,B,72.29694823791479,51.424323566918424,3.614847411895739,0.8077713856682769,B,1085.6755829881877,Correct,sub_012_day_20_data.csv,1,300,185.0,Training at home,,,,,,,,,,,,,
12,20,4650,A,52.60603754464361,61.39099283847272,2.630301877232181,0.9643274604896476,B,1749.1187080158852,Incorrect,sub_012_day_20_data.csv,0,300,186.0,Training at home,,,,,,,,,,,,,
12,20,4651,A,33.3554926011978,50.57716837206184,1.66777463005989,0.7944643029852176,A,727.7057500032242,Correct,sub_012_day_20_data.csv,1,300,186.0,Training at home,,,,,,,,,,,,,
12,20,4652,B,70.33055986577745,52.87731739501014,3.5165279932888724,0.8305949593484983,B,744.1288760164753,Correct,sub_012_day_20_data.csv,1,300,186.0,Training at home,,,,,,,,,,,,,
12,20,4653,A,52.400179503542574,73.93686811965969,2.6200089751771287,1.161397608570801,A,2387.776458024746,Correct,sub_012_day_20_data.csv,1,300,186.0,Training at home,,,,,,,,,,,,,
12,20,4654,B,49.4611640189162,19.74606611210228,2.47305820094581,0.3101704811753944,B,4020.247250009561,Correct,sub_012_day_20_data.csv,1,300,186.0,Training at home,,,,,,,,,,,,,
12,20,4655,B,32.61400325658961,17.54188900450076,1.6307001628294808,0.2755473481331357,B,1092.53091699793,Correct,sub_012_day_20_data.csv,1,300,186.0,Training at home,,,,,,,,,,,,,
12,20,4656,B,59.966499587949045,35.66174004471801,2.998324979397452,0.5601733026935752,B,2247.551749984268,Correct,sub_012_day_20_data.csv,1,300,186.0,Training at home,,,,,,,,,,,,,
12,20,4657,B,55.15870884961133,42.846463970191785,2.7579354424805667,0.6730306822052713,B,2729.394666996086,Correct,sub_012_day_20_data.csv,1,300,186.0,Training at home,,,,,,,,,,,,,
12,20,4658,B,36.51188552970915,12.655151627800224,1.8255942764854576,0.1987866569198104,B,1106.2461669789627,Correct,sub_012_day_20_data.csv,1,300,186.0,Training at home,,,,,,,,,,,,,
12,20,4659,B,41.69503170085008,30.500054158456255,2.084751585042504,0.4790937303914849,B,3916.137209016597,Correct,sub_012_day_20_data.csv,1,300,186.0,Training at home,,,,,,,,,,,,,
12,20,4660,B,38.977157990360794,20.505268615638528,1.94885789951804,0.3220960062138767,B,439.97879201197065,Correct,sub_012_day_20_data.csv,1,300,186.0,Training at home,,,,,,,,,,,,,
12,20,4661,B,65.8677338998412,47.63984177022697,3.29338669499206,0.748324884617626,B,755.3988339786883,Correct,sub_012_day_20_data.csv,1,300,186.0,Training at home,,,,,,,,,,,,,
12,20,4662,B,78.21646165492116,65.85804795624576,3.9108230827460577,1.0344957981955298,B,672.8092089761049,Correct,sub_012_day_20_data.csv,1,300,186.0,Training at home,,,,,,,,,,,,,
12,20,4663,A,31.732502299419775,64.51259380669569,1.586625114970989,1.013361453835688,A,747.9151249863207,Correct,sub_012_day_20_data.csv,1,300,186.0,Training at home,,,,,,,,,,,,,
12,20,4664,A,13.942501777199666,41.21827833926223,0.6971250888599834,0.6474552021212276,A,1720.277124986751,Correct,sub_012_day_20_data.csv,1,300,186.0,Training at home,,,,,,,,,,,,,
12,20,4665,A,39.90820484607324,66.56024110833746,1.995410242303662,1.0455258224355917,A,1517.703084013192,Correct,sub_012_day_20_data.csv,1,300,186.0,Training at home,,,,,,,,,,,,,
12,20,4666,B,44.659888529479986,15.0513154635384,2.2329944264739994,0.2364255104355734,B,1292.1516670030542,Correct,sub_012_day_20_data.csv,1,300,186.0,Training at home,,,,,,,,,,,,,
12,20,4667,B,82.46309941170786,65.95936822694034,4.123154970585393,1.036087333285899,B,1922.0727919891945,Correct,sub_012_day_20_data.csv,1,300,186.0,Training at home,,,,,,,,,,,,,
12,20,4668,A,50.70462312967437,60.826350847028166,2.5352311564837184,0.9554580848284948,B,1878.6074169911444,Incorrect,sub_012_day_20_data.csv,0,300,186.0,Training at home,,,,,,,,,,,,,
12,20,4669,B,54.74387214319255,23.282842640667408,2.7371936071596275,0.3657260369730395,B,943.1526259868406,Correct,sub_012_day_20_data.csv,1,300,186.0,Training at home,,,,,,,,,,,,,
12,20,4670,A,20.27603592195638,36.14252091723912,1.013801796097819,0.5677253909790692,A,714.8047919909004,Correct,sub_012_day_20_data.csv,1,300,186.0,Training at home,,,,,,,,,,,,,
12,20,4671,A,19.561614271016865,44.3007049757196,0.9780807135508433,0.6958738465028473,A,589.7745000256691,Correct,sub_012_day_20_data.csv,1,300,186.0,Training at home,,,,,,,,,,,,,
12,20,4672,A,31.330179144087506,43.11231646346584,1.566508957204375,0.6772066834043128,A,2121.647459018277,Correct,sub_012_day_20_data.csv,1,300,186.0,Training at home,,,,,,,,,,,,,
12,20,4673,A,26.419391600710966,49.12615198359748,1.3209695800355483,0.7716717908540274,A,947.155792004196,Correct,sub_012_day_20_data.csv,1,300,186.0,Training at home,,,,,,,,,,,,,
12,20,4674,B,70.32678986157987,48.91595862579364,3.5163394930789935,0.7683700813104778,B,679.0565010160208,Correct,sub_012_day_20_data.csv,1,300,186.0,Training at home,,,,,,,,,,,,,
12,20,4675,B,74.9532184002362,45.13840220211487,3.74766092001181,0.7090323637647271,B,780.4719590058085,Correct,sub_012_day_20_data.csv,1,300,187.0,Training at home,,,,,,,,,,,,,
12,20,4676,B,67.64985548162919,40.25837619561159,3.382492774081459,0.6323770945079379,B,1657.8924589848612,Correct,sub_012_day_20_data.csv,1,300,187.0,Training at home,,,,,,,,,,,,,
12,20,4677,A,62.413417677858746,71.98182723053279,3.1206708838929376,1.1306878980970576,A,1619.620291981846,Correct,sub_012_day_20_data.csv,1,300,187.0,Training at home,,,,,,,,,,,,,
12,20,4678,B,66.3664204179656,37.72976672166096,3.31832102089828,0.5926577897721337,B,976.3222500041592,Correct,sub_012_day_20_data.csv,1,300,187.0,Training at home,,,,,,,,,,,,,
12,20,4679,A,37.696960970487794,70.93604851517006,1.8848480485243897,1.114260844449737,A,864.9735419894569,Correct,sub_012_day_20_data.csv,1,300,187.0,Training at home,,,,,,,,,,,,,
12,20,4680,B,85.68493374508377,63.39223477516433,4.284246687254188,0.9957628953214784,B,1304.0267080068588,Correct,sub_012_day_20_data.csv,1,300,187.0,Training at home,,,,,,,,,,,,,
12,20,4681,B,65.46886927349333,36.93836581493039,3.2734434636746665,0.5802264933989884,B,2499.5838750037365,Correct,sub_012_day_20_data.csv,1,300,187.0,Training at home,,,,,,,,,,,,,
12,20,4682,A,13.854547206001367,35.54421132422942,0.6927273603000684,0.5583271658692114,A,744.5348750043195,Correct,sub_012_day_20_data.csv,1,300,187.0,Training at home,,,,,,,,,,,,,
12,20,4683,A,22.65758393402406,38.69567839295399,1.132879196701203,0.6078302948248877,A,841.553959005978,Correct,sub_012_day_20_data.csv,1,300,187.0,Training at home,,,,,,,,,,,,,
12,20,4684,B,53.06208589028026,28.30831828548886,2.653104294514013,0.444666023805867,B,783.2497919735033,Correct,sub_012_day_20_data.csv,1,300,187.0,Training at home,,,,,,,,,,,,,
12,20,4685,B,40.077680042138525,21.469330332411044,2.0038840021069264,0.3372394522489752,A,1137.8488339832984,Incorrect,sub_012_day_20_data.csv,0,300,187.0,Training at home,,,,,,,,,,,,,
12,20,4686,A,34.12568525609701,58.65323409915589,1.7062842628048502,0.9213228467759524,A,810.8346670051105,Correct,sub_012_day_20_data.csv,1,300,187.0,Training at home,,,,,,,,,,,,,
12,20,4687,B,62.12264190320958,42.93162370381396,3.106132095160479,0.6743683681729169,B,751.8165830115322,Correct,sub_012_day_20_data.csv,1,300,187.0,Training at home,,,,,,,,,,,,,
12,20,4688,B,67.62525690900533,37.451338631188,3.3812628454502662,0.5882842515542192,B,477.38579200813547,Correct,sub_012_day_20_data.csv,1,300,187.0,Training at home,,,,,,,,,,,,,
12,20,4689,B,54.96296202072243,34.05132288324617,2.7481481010361217,0.5348769290751009,B,604.7040840203408,Correct,sub_012_day_20_data.csv,1,300,187.0,Training at home,,,,,,,,,,,,,
12,20,4690,B,41.13145320269441,27.94841192246772,2.0565726601347207,0.4390126278756299,B,626.2493340182118,Correct,sub_012_day_20_data.csv,1,300,187.0,Training at home,,,,,,,,,,,,,
12,20,4691,B,57.45784698817535,29.590034431614352,2.872892349408767,0.4647991739491434,B,799.6139170136303,Correct,sub_012_day_20_data.csv,1,300,187.0,Training at home,,,,,,,,,,,,,
12,20,4692,B,74.26663970084194,46.823345443298905,3.713331985042097,0.7354993903058248,B,683.6944170063362,Correct,sub_012_day_20_data.csv,1,300,187.0,Training at home,,,,,,,,,,,,,
12,20,4693,B,41.823437120303495,28.967889837710167,2.0911718560151744,0.4550265495207434,B,1737.8615839988925,Correct,sub_012_day_20_data.csv,1,300,187.0,Training at home,,,,,,,,,,,,,
12,20,4694,B,78.67421437257435,54.61696625696657,3.9337107186287175,0.8579212997712389,B,1169.9248749937396,Correct,sub_012_day_20_data.csv,1,300,187.0,Training at home,,,,,,,,,,,,,
12,20,4695,B,33.757681770127334,16.405754351330284,1.6878840885063666,0.25770098673369,B,906.6084170190152,Correct,sub_012_day_20_data.csv,1,300,187.0,Training at home,,,,,,,,,,,,,
12,20,4696,B,55.85490389936561,32.58441818262296,2.79274519496828,0.5118348439201299,B,890.5456670036074,Correct,sub_012_day_20_data.csv,1,300,187.0,Training at home,,,,,,,,,,,,,
12,20,4697,A,25.5976674854371,51.625416897795674,1.279883374271855,0.8109301523231262,A,1006.3817089830992,Correct,sub_012_day_20_data.csv,1,300,187.0,Training at home,,,,,,,,,,,,,
12,20,4698,A,49.32535916103453,56.24784479539182,2.466267958051726,0.8835390799473091,B,1855.03570799483,Incorrect,sub_012_day_20_data.csv,0,300,187.0,Training at home,,,,,,,,,,,,,
12,20,4699,B,73.1985976022173,41.483934484691346,3.6599298801108655,0.651628119095533,B,557.4952919851057,Correct,sub_012_day_20_data.csv,1,300,187.0,Training at home,,,,,,,,,,,,,
12,20,4700,B,59.88687845221342,49.41169369682615,2.994343922610671,0.7761570695968906,B,665.2279589907266,Correct,sub_012_day_20_data.csv,1,300,188.0,Training at home,,,,,,,,,,,,,
12,20,4701,B,44.33697682139518,32.7058912208084,2.2168488410697593,0.5137429379419929,B,830.2565839840099,Correct,sub_012_day_20_data.csv,1,300,188.0,Training at home,,,,,,,,,,,,,
12,20,4702,A,67.95682138694444,83.15457402346827,3.3978410693472223,1.306188994322583,A,1879.9202920054088,Correct,sub_012_day_20_data.csv,1,300,188.0,Training at home,,,,,,,,,,,,,
12,20,4703,A,34.56286631140064,55.20259157131147,1.728143315570032,0.8671202806977498,A,819.2735830089077,Correct,sub_012_day_20_data.csv,1,300,188.0,Training at home,,,,,,,,,,,,,
12,20,4704,B,46.03639640532643,24.681941612035555,2.3018198202663216,0.3877030322235155,B,1052.5968759902753,Correct,sub_012_day_20_data.csv,1,300,188.0,Training at home,,,,,,,,,,,,,
12,20,4705,A,33.580120266328834,45.69007787617479,1.6790060133164415,0.7176980649886814,A,665.6721259932965,Correct,sub_012_day_20_data.csv,1,300,188.0,Training at home,,,,,,,,,,,,,
12,20,4706,B,72.54566594099397,58.124509986017,3.6272832970496984,0.913017667827888,B,634.8839169950224,Correct,sub_012_day_20_data.csv,1,300,188.0,Training at home,,,,,,,,,,,,,
12,20,4707,A,40.920039373630075,62.716097529352275,2.0460019686815034,0.9851421563001704,A,768.3377919893246,Correct,sub_012_day_20_data.csv,1,300,188.0,Training at home,,,,,,,,,,,,,
12,20,4708,B,75.46878335722442,64.07092687692665,3.773439167861221,1.006423765926208,B,1161.1039580020588,Correct,sub_012_day_20_data.csv,1,300,188.0,Training at home,,,,,,,,,,,,,
12,20,4709,A,26.554880213016943,37.903161380971426,1.3277440106508471,0.5953814667114409,A,862.8705420123879,Correct,sub_012_day_20_data.csv,1,300,188.0,Training at home,,,,,,,,,,,,,
12,20,4710,A,38.496498587031624,68.63388225421087,1.9248249293515811,1.0780985013858788,A,894.3363340222277,Correct,sub_012_day_20_data.csv,1,300,188.0,Training at home,,,,,,,,,,,,,
12,20,4711,A,39.966319228415415,49.633067905026856,1.9983159614207708,0.7796344075277786,A,815.5313339957502,Correct,sub_012_day_20_data.csv,1,300,188.0,Training at home,,,,,,,,,,,,,
12,20,4712,B,31.957393624644855,11.124366657969452,1.5978696812322428,0.1747411428425803,B,1999.2981670075096,Correct,sub_012_day_20_data.csv,1,300,188.0,Training at home,,,,,,,,,,,,,
12,20,4713,B,85.5448007521449,63.543897031960626,4.277240037607245,0.9981452004803688,B,811.6325839946512,Correct,sub_012_day_20_data.csv,1,300,188.0,Training at home,,,,,,,,,,,,,
12,20,4714,A,65.21636544120689,89.67741130281398,3.2608182720603445,1.4086494827093534,A,1902.6545000087935,Correct,sub_012_day_20_data.csv,1,300,188.0,Training at home,,,,,,,,,,,,,
12,20,4715,B,65.58190871835491,35.54560808255241,3.2790954359177453,0.5583491060976431,B,509.73287600209005,Correct,sub_012_day_20_data.csv,1,300,188.0,Training at home,,,,,,,,,,,,,
12,20,4716,A,31.379220519666703,60.501613105830735,1.568961025983335,0.9503571163180488,A,659.8244170018006,Correct,sub_012_day_20_data.csv,1,300,188.0,Training at home,,,,,,,,,,,,,
12,20,4717,B,83.88988617707722,57.1408099163707,4.19449430885386,0.897565743267205,B,818.8551249913871,Correct,sub_012_day_20_data.csv,1,300,188.0,Training at home,,,,,,,,,,,,,
12,20,4718,B,68.68672066218731,54.54946512848753,3.434336033109366,0.8568609945245452,B,1232.544208993204,Correct,sub_012_day_20_data.csv,1,300,188.0,Training at home,,,,,,,,,,,,,
12,20,4719,A,23.723302295423352,39.689323891143474,1.1861651147711676,0.623438441811811,A,1842.1730420086533,Correct,sub_012_day_20_data.csv,1,300,188.0,Training at home,,,,,,,,,,,,,
12,20,4720,B,52.61646028383974,42.24055425838163,2.630823014191987,0.663513074708464,B,1095.8121670119,Correct,sub_012_day_20_data.csv,1,300,188.0,Training at home,,,,,,,,,,,,,
12,20,4721,A,41.30829019810387,73.50013946622298,2.0654145099051937,1.1545374909245567,A,1168.0884580127895,Correct,sub_012_day_20_data.csv,1,300,188.0,Training at home,,,,,,,,,,,,,
12,20,4722,B,82.32826956833348,52.0776454821436,4.116413478416674,0.8180337423147801,B,389.3205829954241,Correct,sub_012_day_20_data.csv,1,300,188.0,Training at home,,,,,,,,,,,,,
12,20,4723,B,66.31990773308384,43.87346590109353,3.315995386654192,0.6891627908119886,B,525.8894999860786,Correct,sub_012_day_20_data.csv,1,300,188.0,Training at home,,,,,,,,,,,,,
12,20,4724,A,40.60263297949465,67.60809371784826,2.0301316489747325,1.0619854527360115,A,726.0290839767549,Correct,sub_012_day_20_data.csv,1,300,188.0,Training at home,,,,,,,,,,,,,
12,20,4725,A,61.07111549233078,83.01972437591942,3.053555774616539,1.3040707810121897,A,681.7481670004781,Correct,sub_012_day_20_data.csv,1,300,189.0,Training at home,,,,,,,,,,,,,
12,20,4726,A,51.13721486659352,64.35882953604339,2.5568607433296764,1.0109461303203584,A,963.1291670084464,Correct,sub_012_day_20_data.csv,1,300,189.0,Training at home,,,,,,,,,,,,,
12,20,4727,B,50.65571858267015,33.117135635479684,2.5327859291335075,0.5202027501017986,B,1605.552249995526,Correct,sub_012_day_20_data.csv,1,300,189.0,Training at home,,,,,,,,,,,,,
12,20,4728,A,19.30967744614612,39.43517053564108,0.965483872307306,0.6194462102391534,A,784.339917008765,Correct,sub_012_day_20_data.csv,1,300,189.0,Training at home,,,,,,,,,,,,,
12,20,4729,B,85.94044098783874,68.70320172372814,4.297022049391938,1.0791873690668097,B,562.6520840160083,Correct,sub_012_day_20_data.csv,1,300,189.0,Training at home,,,,,,,,,,,,,
12,20,4730,B,46.469328323615066,26.091869353593545,2.3234664161807532,0.4098501253983707,B,880.3228750184644,Correct,sub_012_day_20_data.csv,1,300,189.0,Training at home,,,,,,,,,,,,,
12,20,4731,A,28.403140441833813,51.71749896868168,1.4201570220916906,0.8123765741102404,A,487.7018749830313,Correct,sub_012_day_20_data.csv,1,300,189.0,Training at home,,,,,,,,,,,,,
12,20,4732,A,34.141307535172196,56.46212158876943,1.7070653767586097,0.8869049319468584,A,522.0307919953484,Correct,sub_012_day_20_data.csv,1,300,189.0,Training at home,,,,,,,,,,,,,
12,20,4733,B,41.33855643386036,29.115509582021264,2.0669278216930183,0.4573453550420062,B,1193.5606669867411,Correct,sub_012_day_20_data.csv,1,300,189.0,Training at home,,,,,,,,,,,,,
12,20,4734,B,80.95270494293823,65.74458357414807,4.0476352471469115,1.032713503849319,B,954.731375008123,Correct,sub_012_day_20_data.csv,1,300,189.0,Training at home,,,,,,,,,,,,,
12,20,4735,A,23.256157754778403,43.971683424965555,1.16280788773892,0.6907055880692393,A,1453.5540009965189,Correct,sub_012_day_20_data.csv,1,300,189.0,Training at home,,,,,,,,,,,,,
12,20,4736,B,63.50411436482939,43.921545090937784,3.1752057182414695,0.689918016960015,B,838.233709015185,Correct,sub_012_day_20_data.csv,1,300,189.0,Training at home,,,,,,,,,,,,,
12,20,4737,B,60.73822157683819,50.7654371920866,3.03691107884191,0.7974216226946667,B,1533.181083999807,Correct,sub_012_day_20_data.csv,1,300,189.0,Training at home,,,,,,,,,,,,,
12,20,4738,A,56.533853627767954,66.19761843080687,2.8266926813883977,1.0398297587368155,A,1263.3751669782214,Correct,sub_012_day_20_data.csv,1,300,189.0,Training at home,,,,,,,,,,,,,
12,20,4739,A,23.62387111933119,49.86930825644922,1.1811935559665596,0.7833452622903283,A,947.1036669856404,Correct,sub_012_day_20_data.csv,1,300,189.0,Training at home,,,,,,,,,,,,,
12,20,4740,B,73.66076581266458,58.823540768870586,3.683038290633229,0.9239980176881176,B,758.1687920028344,Correct,sub_012_day_20_data.csv,1,300,189.0,Training at home,,,,,,,,,,,,,
12,20,4741,B,80.9655706605721,58.05229536783465,4.048278533028605,0.9118833232580706,B,615.4679589963052,Correct,sub_012_day_20_data.csv,1,300,189.0,Training at home,,,,,,,,,,,,,
12,20,4742,A,50.64868740922093,67.89133116090667,2.5324343704610466,1.066434536087681,A,2272.594999987632,Correct,sub_012_day_20_data.csv,1,300,189.0,Training at home,,,,,,,,,,,,,
12,20,4743,A,42.33061400774814,63.75701166107584,2.1165307003874068,1.0014927972463732,A,493.7238749989774,Correct,sub_012_day_20_data.csv,1,300,189.0,Training at home,,,,,,,,,,,,,
12,20,4744,B,68.9177024561235,52.9122369592581,3.445885122806174,0.8311434745810379,B,740.434000006644,Correct,sub_012_day_20_data.csv,1,300,189.0,Training at home,,,,,,,,,,,,,
12,20,4745,B,35.34047978241852,19.20714782503153,1.767023989120926,0.3017051725176611,B,800.4490839957725,Correct,sub_012_day_20_data.csv,1,300,189.0,Training at home,,,,,,,,,,,,,
12,20,4746,A,37.52412257355958,61.089139378915014,1.876206128677979,0.9595859574346116,A,832.5020839984063,Correct,sub_012_day_20_data.csv,1,300,189.0,Training at home,,,,,,,,,,,,,
12,20,4747,B,38.90889713299103,12.206169307255038,1.9454448566495517,0.1917340591207282,B,676.701917022001,Correct,sub_012_day_20_data.csv,1,300,189.0,Training at home,,,,,,,,,,,,,
12,20,4748,A,48.48865307832526,74.76553339874688,2.424432653916263,1.1744142523361276,A,793.5321670083795,Correct,sub_012_day_20_data.csv,1,300,189.0,Training at home,,,,,,,,,,,,,
12,20,4749,A,18.737444301632515,48.61377884503747,0.9368722150816255,0.763623452414043,A,1090.165083995089,Correct,sub_012_day_20_data.csv,1,300,189.0,Training at home,,,,,,,,,,,,,
12,20,4750,A,43.482440756045754,54.81393090132245,2.1741220378022876,0.8610152131698658,A,863.6284999956843,Correct,sub_012_day_20_data.csv,1,300,190.0,Training at home,,,,,,,,,,,,,
12,20,4751,B,54.29696690023596,42.40456071741048,2.7148483450117977,0.6660892821425953,B,1701.6567090176975,Correct,sub_012_day_20_data.csv,1,300,190.0,Training at home,,,,,,,,,,,,,
12,20,4752,B,45.24484075374041,22.387409821946516,2.2622420376870207,0.3516606111476557,B,1503.1947919924278,Correct,sub_012_day_20_data.csv,1,300,190.0,Training at home,,,,,,,,,,,,,
12,20,4753,B,75.76406532459299,58.14806570669242,3.7882032662296496,0.9133876802230076,B,566.6366670047864,Correct,sub_012_day_20_data.csv,1,300,190.0,Training at home,,,,,,,,,,,,,
12,20,4754,B,75.07207760469211,63.509247813618074,3.7536038802346057,0.9976009318313808,B,826.9370420021005,Correct,sub_012_day_20_data.csv,1,300,190.0,Training at home,,,,,,,,,,,,,
12,20,4755,B,73.6104303201034,62.151952824732234,3.6805215160051703,0.9762805920021908,B,974.7913329920266,Correct,sub_012_day_20_data.csv,1,300,190.0,Training at home,,,,,,,,,,,,,
12,20,4756,B,46.237370883181605,17.635617192759533,2.31186854415908,0.277019627071476,B,1150.2077089971865,Correct,sub_012_day_20_data.csv,1,300,190.0,Training at home,,,,,,,,,,,,,
12,20,4757,A,27.32762492157401,54.31521460871087,1.3663812460787006,0.8531813959643954,A,632.796292018611,Correct,sub_012_day_20_data.csv,1,300,190.0,Training at home,,,,,,,,,,,,,
12,20,4758,A,64.32603740780684,88.3097097930061,3.2163018703903417,1.387165677631773,A,1135.2689169871155,Correct,sub_012_day_20_data.csv,1,300,190.0,Training at home,,,,,,,,,,,,,
12,20,4759,A,27.62008576235631,54.29518917027917,1.3810042881178155,0.8528668371130856,A,864.4362080085557,Correct,sub_012_day_20_data.csv,1,300,190.0,Training at home,,,,,,,,,,,,,
12,20,4760,B,61.90216902549306,39.17373513455069,3.095108451274653,0.6153395925618841,B,3706.924792000791,Correct,sub_012_day_20_data.csv,1,300,190.0,Training at home,,,,,,,,,,,,,
12,20,4761,A,24.369321690925396,51.4118001969568,1.2184660845462698,0.8075746690329287,A,1026.8315840221476,Correct,sub_012_day_20_data.csv,1,300,190.0,Training at home,,,,,,,,,,,,,
12,20,4762,B,71.34179840681442,48.24956595447466,3.5670899203407207,0.7579024097073691,B,2077.0857500028796,Correct,sub_012_day_20_data.csv,1,300,190.0,Training at home,,,,,,,,,,,,,
12,20,4763,A,30.990169186100985,59.30022406494392,1.5495084593050492,0.9314857413932824,A,728.7955840001814,Correct,sub_012_day_20_data.csv,1,300,190.0,Training at home,,,,,,,,,,,,,
12,20,4764,A,35.87196436873866,65.10976949272624,1.7935982184369328,1.022741867576368,A,811.9900840101764,Correct,sub_012_day_20_data.csv,1,300,190.0,Training at home,,,,,,,,,,,,,
12,20,4765,A,18.578360712282738,42.630227646174234,0.9289180356141368,0.6696340499704073,A,715.2973750198726,Correct,sub_012_day_20_data.csv,1,300,190.0,Training at home,,,,,,,,,,,,,
12,20,4766,B,73.9987072414955,60.85439846582228,3.6999353620747746,0.955898655794266,B,871.3107499934267,Correct,sub_012_day_20_data.csv,1,300,190.0,Training at home,,,,,,,,,,,,,
12,20,4767,A,32.62791450177127,59.74964920740508,1.6313957250885636,0.9385452950227549,A,832.6069590111729,Correct,sub_012_day_20_data.csv,1,300,190.0,Training at home,,,,,,,,,,,,,
12,20,4768,A,21.231572167298634,49.80279312572911,1.0615786083649317,0.7823004450602141,A,733.0247919890098,Correct,sub_012_day_20_data.csv,1,300,190.0,Training at home,,,,,,,,,,,,,
12,20,4769,A,65.26848322855369,89.64168056771109,3.2634241614276847,1.4080882256348202,A,574.0894579794258,Correct,sub_012_day_20_data.csv,1,300,190.0,Training at home,,,,,,,,,,,,,
12,20,4770,A,30.559787515470333,50.553576380833775,1.5279893757735166,0.7940937208535893,A,496.8585839960724,Correct,sub_012_day_20_data.csv,1,300,190.0,Training at home,,,,,,,,,,,,,
12,20,4771,B,50.947575446733445,44.022075906946455,2.5473787723366725,0.6914971513251761,B,1019.3702919932548,Correct,sub_012_day_20_data.csv,1,300,190.0,Training at home,,,,,,,,,,,,,
12,20,4772,A,34.8585396247713,63.25939197076996,1.7429269812385653,0.9936762054296404,A,552.7440840087365,Correct,sub_012_day_20_data.csv,1,300,190.0,Training at home,,,,,,,,,,,,,
12,20,4773,A,38.79349208283806,51.66243744738465,1.9396746041419024,0.8115116697562292,A,870.1313750061672,Correct,sub_012_day_20_data.csv,1,300,190.0,Training at home,,,,,,,,,,,,,
12,20,4774,B,43.61778443044321,25.43728464243698,2.18088922152216,0.3995679327997623,A,714.030626026215,Incorrect,sub_012_day_20_data.csv,0,300,190.0,Training at home,,,,,,,,,,,,,
12,20,4775,B,66.06628234971969,56.12342659256964,3.3033141174859844,0.881584723387514,B,723.0688749987166,Correct,sub_012_day_20_data.csv,1,300,191.0,Training at home,,,,,,,,,,,,,
12,20,4776,A,57.64791270876548,80.52925079027864,2.882395635438274,1.2649505134091472,A,565.5595420103054,Correct,sub_012_day_20_data.csv,1,300,191.0,Training at home,,,,,,,,,,,,,
12,20,4777,A,39.81930843175875,65.84085460982271,1.990965421587938,1.0342257257414635,A,829.4455840077717,Correct,sub_012_day_20_data.csv,1,300,191.0,Training at home,,,,,,,,,,,,,
12,20,4778,B,54.30476987564281,31.700773946370564,2.7152384937821403,0.4979545927151424,B,898.6990000121295,Correct,sub_012_day_20_data.csv,1,300,191.0,Training at home,,,,,,,,,,,,,
12,20,4779,B,58.03092999998301,41.2162838318922,2.9015464999991503,0.6474238724727215,B,748.7642090127338,Correct,sub_012_day_20_data.csv,1,300,191.0,Training at home,,,,,,,,,,,,,
12,20,4780,A,62.10354010412215,77.69577915558557,3.105177005206108,1.220442445050613,A,1618.0271669873036,Correct,sub_012_day_20_data.csv,1,300,191.0,Training at home,,,,,,,,,,,,,
12,20,4781,A,54.24649411998562,79.10609653735482,2.712324705999281,1.2425956586795943,A,504.9290000170003,Correct,sub_012_day_20_data.csv,1,300,191.0,Training at home,,,,,,,,,,,,,
12,20,4782,A,29.019881707391647,49.31508499583741,1.4509940853695824,0.7746395436703952,A,521.6057509824168,Correct,sub_012_day_20_data.csv,1,300,191.0,Training at home,,,,,,,,,,,,,
12,20,4783,A,21.48473193948416,35.138040681147274,1.074236596974208,0.5519470523271578,A,490.7032919873018,Correct,sub_012_day_20_data.csv,1,300,191.0,Training at home,,,,,,,,,,,,,
12,20,4784,B,32.933023369677045,19.68739271322129,1.6466511684838523,0.3092488415809661,A,620.883416995639,Incorrect,sub_012_day_20_data.csv,0,300,191.0,Training at home,,,,,,,,,,,,,
12,20,4785,A,46.58002028290749,53.67086406735507,2.3290010141453745,0.8430599613290954,A,1095.1973339833785,Correct,sub_012_day_20_data.csv,1,300,191.0,Training at home,,,,,,,,,,,,,
12,20,4786,A,12.368173149606037,30.70694308088722,0.6184086574803018,0.4823435339855761,A,508.5057920077816,Correct,sub_012_day_20_data.csv,1,300,191.0,Training at home,,,,,,,,,,,,,
12,20,4787,A,52.43243343797563,76.00123643022255,2.6216216718987817,1.1938246301646405,A,650.7427920005284,Correct,sub_012_day_20_data.csv,1,300,191.0,Training at home,,,,,,,,,,,,,
12,20,4788,A,22.88553904955076,34.55777588063502,1.1442769524775378,0.5428322741550277,A,541.4285000006203,Correct,sub_012_day_20_data.csv,1,300,191.0,Training at home,,,,,,,,,,,,,
12,20,4789,A,47.72026618080607,62.294269181131774,2.3860133090403037,0.9785160921009431,A,508.419124991633,Correct,sub_012_day_20_data.csv,1,300,191.0,Training at home,,,,,,,,,,,,,
12,20,4790,A,40.452894359474854,71.55299661479962,2.0226447179737423,1.1239518425369492,A,800.0645840074867,Correct,sub_012_day_20_data.csv,1,300,191.0,Training at home,,,,,,,,,,,,,
12,20,4791,A,58.21360489370605,75.06263036399918,2.910680244685302,1.17908104055333,A,759.0858330077026,Correct,sub_012_day_20_data.csv,1,300,191.0,Training at home,,,,,,,,,,,,,
12,20,4792,A,48.142835666042245,68.34249214388221,2.4071417833021123,1.0735213562361925,A,1063.8497920008376,Correct,sub_012_day_20_data.csv,1,300,191.0,Training at home,,,,,,,,,,,,,
12,20,4793,A,57.21537218010003,80.48887464916143,2.8607686090050013,1.2643162864675768,A,1057.5668759993275,Correct,sub_012_day_20_data.csv,1,300,191.0,Training at home,,,,,,,,,,,,,
12,20,4794,A,46.37788368614789,53.405109337424655,2.3188941843073945,0.8388854957930648,A,1753.322542004753,Correct,sub_012_day_20_data.csv,1,300,191.0,Training at home,,,,,,,,,,,,,
12,20,4795,A,51.5206531483332,76.70792169518714,2.576032657416659,1.2049252163487052,A,649.4630000088364,Correct,sub_012_day_20_data.csv,1,300,191.0,Training at home,,,,,,,,,,,,,
12,20,4796,B,47.78772165254335,31.97304172380089,2.3893860826271673,0.5022313649620641,B,812.1996249828953,Correct,sub_012_day_20_data.csv,1,300,191.0,Training at home,,,,,,,,,,,,,
12,20,4797,A,62.36150095770368,87.73520280652427,3.1180750478851844,1.3781413429909364,A,1074.1769169981126,Correct,sub_012_day_20_data.csv,1,300,191.0,Training at home,,,,,,,,,,,,,
12,20,4798,B,63.662240573261506,48.60022328937307,3.1831120286630754,0.7634105222435902,A,1265.0183329824358,Incorrect,sub_012_day_20_data.csv,0,300,191.0,Training at home,,,,,,,,,,,,,
12,20,4799,A,57.55777853629678,78.22973757459883,2.877888926814839,1.2288298442830852,A,2805.3238339780364,Correct,sub_012_day_20_data.csv,1,300,191.0,Training at home,,,,,,,,,,,,,
