subject,day,trial,cat,x,y,xt,yt,resp,rt,fb,f_name,acc,n_trials,block,session_type,ns_left_digit,ns_right_digit,ns_left_size,ns_right_size,ns_congruent,ns_cue,ns_correct_side,ns_resp,ns_rt,ns_fb,acc_stroop,acc_stroop_mean,resp_key
12,8,1500,A,31.155219115993862,51.19449417791044,1.5577609557996934,0.8041612340678443,B,965.595082991058,Incorrect,sub_012_day_08_data.csv,0,300,60.0,Training at home,,,,,,,,,,,,,
12,8,1501,A,16.404339349492833,33.38622307224502,0.8202169674746416,0.524429565674375,A,551.4539160067216,Correct,sub_012_day_08_data.csv,1,300,60.0,Training at home,,,,,,,,,,,,,
12,8,1502,A,57.797979205265165,75.35834500899034,2.8898989602632583,1.1837261153346457,B,591.2712079880293,Incorrect,sub_012_day_08_data.csv,0,300,60.0,Training at home,,,,,,,,,,,,,
12,8,1503,A,29.67151164044514,42.4276734769191,1.4835755820222571,0.6664523365199777,B,925.8175420109184,Incorrect,sub_012_day_08_data.csv,0,300,60.0,Training at home,,,,,,,,,,,,,
12,8,1504,B,80.24518592118946,60.16063233553944,4.012259296059472,0.9450010029032364,B,416.0365409916267,Correct,sub_012_day_08_data.csv,1,300,60.0,Training at home,,,,,,,,,,,,,
12,8,1505,B,62.45288440011695,53.05510877261959,3.1226442200058475,0.8333876997773454,B,641.1887500144076,Correct,sub_012_day_08_data.csv,1,300,60.0,Training at home,,,,,,,,,,,,,
12,8,1506,B,35.40385657199559,18.175955152831808,1.7701928285997794,0.2855072359005697,B,811.8865409924183,Correct,sub_012_day_08_data.csv,1,300,60.0,Training at home,,,,,,,,,,,,,
12,8,1507,A,47.22946519040844,69.89382810666227,2.3614732595204218,1.09788968455579,A,740.1238330057822,Correct,sub_012_day_08_data.csv,1,300,60.0,Training at home,,,,,,,,,,,,,
12,8,1508,A,49.36169505745955,59.0039800787343,2.4680847528729775,0.9268323517395508,B,873.5599580104463,Incorrect,sub_012_day_08_data.csv,0,300,60.0,Training at home,,,,,,,,,,,,,
12,8,1509,B,35.386251984019886,18.330980582194723,1.7693125992009942,0.2879423696506004,B,576.6309160098899,Correct,sub_012_day_08_data.csv,1,300,60.0,Training at home,,,,,,,,,,,,,
12,8,1510,A,36.02400481385961,65.09897455507019,1.8012002406929808,1.0225723010921868,A,1229.4380420062223,Correct,sub_012_day_08_data.csv,1,300,60.0,Training at home,,,,,,,,,,,,,
12,8,1511,A,65.2546613980937,89.7522618121058,3.2627330699046855,1.4098252317598965,A,755.0354580162093,Correct,sub_012_day_08_data.csv,1,300,60.0,Training at home,,,,,,,,,,,,,
12,8,1512,B,52.688842303459026,22.53610909429508,2.634442115172951,0.3539963738556778,B,657.6499170041643,Correct,sub_012_day_08_data.csv,1,300,60.0,Training at home,,,,,,,,,,,,,
12,8,1513,A,15.6677326181822,37.77270295999364,0.78338663090911,0.5933322306267272,A,595.0666250137147,Correct,sub_012_day_08_data.csv,1,300,60.0,Training at home,,,,,,,,,,,,,
12,8,1514,B,87.30686756363596,64.22243766138565,4.365343378181798,1.0088036917631882,B,575.5878750060219,Correct,sub_012_day_08_data.csv,1,300,60.0,Training at home,,,,,,,,,,,,,
12,8,1515,A,44.58810152210314,67.51573168783787,2.2294050761051567,1.0605346333612553,A,602.6304580154829,Correct,sub_012_day_08_data.csv,1,300,60.0,Training at home,,,,,,,,,,,,,
12,8,1516,A,52.8362754193478,82.49177038894592,2.64181377096739,1.2957776991776426,A,796.1495000054128,Correct,sub_012_day_08_data.csv,1,300,60.0,Training at home,,,,,,,,,,,,,
12,8,1517,A,64.68473529567484,78.9584654254116,3.2342367647837422,1.240276674595984,A,737.6942499831785,Correct,sub_012_day_08_data.csv,1,300,60.0,Training at home,,,,,,,,,,,,,
12,8,1518,A,32.10242994009908,48.669140868411155,1.605121497004954,0.7644930770436362,A,1622.53354099812,Correct,sub_012_day_08_data.csv,1,300,60.0,Training at home,,,,,,,,,,,,,
12,8,1519,A,66.51272014168589,86.5390868904395,3.3256360070842947,1.3593527981168676,A,668.7702079943847,Correct,sub_012_day_08_data.csv,1,300,60.0,Training at home,,,,,,,,,,,,,
12,8,1520,B,38.650852876111166,27.933933301657135,1.9325426438055584,0.4387851982317667,B,955.7528749865014,Correct,sub_012_day_08_data.csv,1,300,60.0,Training at home,,,,,,,,,,,,,
12,8,1521,B,39.57480205867846,19.868643960210044,1.978740102933923,0.3120959295109354,B,528.7141659937333,Correct,sub_012_day_08_data.csv,1,300,60.0,Training at home,,,,,,,,,,,,,
12,8,1522,A,30.58583094331285,48.28705101095531,1.5292915471656423,0.758491223597664,A,1504.425708000781,Correct,sub_012_day_08_data.csv,1,300,60.0,Training at home,,,,,,,,,,,,,
12,8,1523,A,18.550492457108813,41.34884922228961,0.9275246228554408,0.6495062047556853,A,573.7643329775892,Correct,sub_012_day_08_data.csv,1,300,60.0,Training at home,,,,,,,,,,,,,
12,8,1524,B,56.31666851624925,34.36138427710284,2.8158334258124627,0.5397473620606106,B,645.7170830108225,Correct,sub_012_day_08_data.csv,1,300,60.0,Training at home,,,,,,,,,,,,,
12,8,1525,A,46.14642272765741,65.9226864829272,2.3073211363828703,1.0355111377983364,A,966.3933330157306,Correct,sub_012_day_08_data.csv,1,300,61.0,Training at home,,,,,,,,,,,,,
12,8,1526,B,62.09614077117496,44.78484059649936,3.1048070385587483,0.7034786310507616,B,727.2044580022339,Correct,sub_012_day_08_data.csv,1,300,61.0,Training at home,,,,,,,,,,,,,
12,8,1527,A,26.06100242267364,44.70647258933868,1.303050121133682,0.7022476292728993,A,586.5694580134004,Correct,sub_012_day_08_data.csv,1,300,61.0,Training at home,,,,,,,,,,,,,
12,8,1528,B,53.22833559121014,35.157841741764734,2.661416779560507,0.5522580866600033,B,668.0771239916794,Correct,sub_012_day_08_data.csv,1,300,61.0,Training at home,,,,,,,,,,,,,
12,8,1529,B,57.19745253352079,35.9982655856247,2.8598726266760393,0.5654594335288642,B,797.7344160026405,Correct,sub_012_day_08_data.csv,1,300,61.0,Training at home,,,,,,,,,,,,,
12,8,1530,B,70.15307497715459,59.07167980489305,3.507653748857729,0.9278957765513028,B,589.6788329991978,Correct,sub_012_day_08_data.csv,1,300,61.0,Training at home,,,,,,,,,,,,,
12,8,1531,A,67.60460497254417,85.14434135495695,3.380230248627208,1.337444186477372,A,648.8026249862742,Correct,sub_012_day_08_data.csv,1,300,61.0,Training at home,,,,,,,,,,,,,
12,8,1532,A,34.07892373616243,58.49388806984629,1.7039461868081216,0.9188198452006636,A,989.9646249832584,Correct,sub_012_day_08_data.csv,1,300,61.0,Training at home,,,,,,,,,,,,,
12,8,1533,A,43.55006931500636,70.00029083085676,2.177503465750318,1.0995619971168429,A,685.4461659968365,Correct,sub_012_day_08_data.csv,1,300,61.0,Training at home,,,,,,,,,,,,,
12,8,1534,A,16.445644184094547,44.01468900124547,0.8222822092047274,0.6913811180817612,A,550.2120419987477,Correct,sub_012_day_08_data.csv,1,300,61.0,Training at home,,,,,,,,,,,,,
12,8,1535,B,39.87705715260407,23.46377437484197,1.9938528576302033,0.3685681060074599,B,853.8211249979213,Correct,sub_012_day_08_data.csv,1,300,61.0,Training at home,,,,,,,,,,,,,
12,8,1536,B,85.81687496648874,67.48736371839546,4.290843748324437,1.0600890303392676,B,612.3000829829834,Correct,sub_012_day_08_data.csv,1,300,61.0,Training at home,,,,,,,,,,,,,
12,8,1537,A,33.28432392412545,66.21734161034679,1.6642161962062727,1.040139569716556,A,512.8949579957407,Correct,sub_012_day_08_data.csv,1,300,61.0,Training at home,,,,,,,,,,,,,
12,8,1538,A,38.931103781327096,71.77012933753291,1.9465551890663548,1.1273625553699134,A,826.178917021025,Correct,sub_012_day_08_data.csv,1,300,61.0,Training at home,,,,,,,,,,,,,
12,8,1539,B,66.86497890411438,52.61409223389338,3.343248945205719,0.8264602281864761,A,852.1764579927549,Incorrect,sub_012_day_08_data.csv,0,300,61.0,Training at home,,,,,,,,,,,,,
12,8,1540,B,67.38081569887825,52.68313592993523,3.369040784943912,0.827544764027785,A,1241.2516670010518,Incorrect,sub_012_day_08_data.csv,0,300,61.0,Training at home,,,,,,,,,,,,,
12,8,1541,B,54.54968264586877,46.23958718172373,2.7274841322934384,0.7263297369756403,B,580.6330410123337,Correct,sub_012_day_08_data.csv,1,300,61.0,Training at home,,,,,,,,,,,,,
12,8,1542,A,45.64071519625155,68.72383120041519,2.282035759812578,1.0795114161288468,A,1410.7693749829195,Correct,sub_012_day_08_data.csv,1,300,61.0,Training at home,,,,,,,,,,,,,
12,8,1543,B,67.28016505380337,43.03143075922482,3.364008252690169,0.6759361337331928,B,763.0675830005202,Correct,sub_012_day_08_data.csv,1,300,61.0,Training at home,,,,,,,,,,,,,
12,8,1544,A,26.03774344452702,57.12837820326275,1.301887172226351,0.8973704663743476,A,512.4385830131359,Correct,sub_012_day_08_data.csv,1,300,61.0,Training at home,,,,,,,,,,,,,
12,8,1545,A,49.165250276007185,59.43446696300728,2.458262513800359,0.9335944239050448,A,692.3598329885863,Correct,sub_012_day_08_data.csv,1,300,61.0,Training at home,,,,,,,,,,,,,
12,8,1546,A,32.33040484000678,62.789049639770845,1.616520242000339,0.9862880853709446,A,632.6442080026027,Correct,sub_012_day_08_data.csv,1,300,61.0,Training at home,,,,,,,,,,,,,
12,8,1547,A,44.491832891108544,61.92930039105771,2.224591644555427,0.9727831757525122,A,1391.3460409967229,Correct,sub_012_day_08_data.csv,1,300,61.0,Training at home,,,,,,,,,,,,,
12,8,1548,A,19.26608438436668,40.47581430548183,0.963304219218334,0.6357926043508318,A,545.6690830178559,Correct,sub_012_day_08_data.csv,1,300,61.0,Training at home,,,,,,,,,,,,,
12,8,1549,B,39.195990640488944,17.45811643038637,1.9597995320244472,0.2742314516160853,B,675.4781669878867,Correct,sub_012_day_08_data.csv,1,300,61.0,Training at home,,,,,,,,,,,,,
12,8,1550,B,48.91276507553968,27.76149577224557,2.445638253776984,0.436076555853754,B,470.73499899124727,Correct,sub_012_day_08_data.csv,1,300,62.0,Training at home,,,,,,,,,,,,,
12,8,1551,B,54.11351340731532,26.77718220410365,2.705675670365766,0.4206149944812368,B,628.0772080062889,Correct,sub_012_day_08_data.csv,1,300,62.0,Training at home,,,,,,,,,,,,,
12,8,1552,B,42.25715062046423,27.34201381326394,2.1128575310232116,0.4294873486505032,B,547.9651250061579,Correct,sub_012_day_08_data.csv,1,300,62.0,Training at home,,,,,,,,,,,,,
12,8,1553,A,22.57301431358241,44.03001522684445,1.1286507156791203,0.6916218618705062,A,659.8941249831114,Correct,sub_012_day_08_data.csv,1,300,62.0,Training at home,,,,,,,,,,,,,
12,8,1554,A,26.56530153530491,42.676974168948874,1.3282650767652455,0.6703683426330558,A,542.1178750111721,Correct,sub_012_day_08_data.csv,1,300,62.0,Training at home,,,,,,,,,,,,,
12,8,1555,B,65.92616526118664,37.98540077672807,3.296308263059332,0.5966732801191647,B,549.4181250105612,Correct,sub_012_day_08_data.csv,1,300,62.0,Training at home,,,,,,,,,,,,,
12,8,1556,B,43.71086686381947,20.401360937305594,2.1855433431909734,0.3204638282193651,B,555.5529160192236,Correct,sub_012_day_08_data.csv,1,300,62.0,Training at home,,,,,,,,,,,,,
12,8,1557,B,73.798312108235,53.42511322616899,3.6899156054117497,0.8391997161426771,B,545.052500005113,Correct,sub_012_day_08_data.csv,1,300,62.0,Training at home,,,,,,,,,,,,,
12,8,1558,B,81.22432298884759,60.99618259511511,4.061216149442379,0.958125795689176,B,506.4485829789191,Correct,sub_012_day_08_data.csv,1,300,62.0,Training at home,,,,,,,,,,,,,
12,8,1559,B,62.69837448624592,48.78312813053976,3.134918724312296,0.7662835847701663,B,513.2398740097415,Correct,sub_012_day_08_data.csv,1,300,62.0,Training at home,,,,,,,,,,,,,
12,8,1560,A,11.601411468929385,38.58023719809873,0.5800705734464693,0.6060169487764931,A,486.0547079879325,Correct,sub_012_day_08_data.csv,1,300,62.0,Training at home,,,,,,,,,,,,,
12,8,1561,B,70.96562304145863,54.565665155999085,3.5482811520729314,0.8571154639616365,B,573.4080410038587,Correct,sub_012_day_08_data.csv,1,300,62.0,Training at home,,,,,,,,,,,,,
12,8,1562,A,22.899249119050587,49.3825433554221,1.144962455952529,0.7756991771048677,A,624.9419999949168,Correct,sub_012_day_08_data.csv,1,300,62.0,Training at home,,,,,,,,,,,,,
12,8,1563,B,78.13636725642502,59.95406465974531,3.906818362821251,0.9417562454395164,B,531.7032920138445,Correct,sub_012_day_08_data.csv,1,300,62.0,Training at home,,,,,,,,,,,,,
12,8,1564,B,84.23390482799977,67.63803867285483,4.211695241399989,1.0624558269893154,B,448.8892079971265,Correct,sub_012_day_08_data.csv,1,300,62.0,Training at home,,,,,,,,,,,,,
12,8,1565,B,52.31509313908704,29.671911068111157,2.6157546569543517,0.4660852891477384,B,632.134290994145,Correct,sub_012_day_08_data.csv,1,300,62.0,Training at home,,,,,,,,,,,,,
12,8,1566,A,28.736320872745743,45.2322284955443,1.4368160436372872,0.7105061837354844,A,719.8272500245366,Correct,sub_012_day_08_data.csv,1,300,62.0,Training at home,,,,,,,,,,,,,
12,8,1567,A,39.371698454093945,64.16818802060321,1.9685849227046972,1.007951540398478,A,642.9134990030434,Correct,sub_012_day_08_data.csv,1,300,62.0,Training at home,,,,,,,,,,,,,
12,8,1568,B,39.51944718896658,25.652026223537803,1.975972359448329,0.4029410856677954,B,586.3585830084048,Correct,sub_012_day_08_data.csv,1,300,62.0,Training at home,,,,,,,,,,,,,
12,8,1569,B,62.62440671159108,40.19605781861828,3.131220335579554,0.6313981997312088,B,807.6367079920601,Correct,sub_012_day_08_data.csv,1,300,62.0,Training at home,,,,,,,,,,,,,
12,8,1570,A,23.622267966387216,54.08330743083198,1.181113398319361,0.8495386065327002,A,1177.2939579968806,Correct,sub_012_day_08_data.csv,1,300,62.0,Training at home,,,,,,,,,,,,,
12,8,1571,B,53.795331803791875,21.648745479808422,2.6897665901895937,0.3400576987940069,B,442.2391660045832,Correct,sub_012_day_08_data.csv,1,300,62.0,Training at home,,,,,,,,,,,,,
12,8,1572,B,57.64794359775218,43.34229175913644,2.882397179887609,0.6808191269012424,B,1777.2720830107571,Correct,sub_012_day_08_data.csv,1,300,62.0,Training at home,,,,,,,,,,,,,
12,8,1573,B,49.93083262210856,24.053987761358304,2.496541631105428,0.3778391562031102,B,582.8335419937503,Correct,sub_012_day_08_data.csv,1,300,62.0,Training at home,,,,,,,,,,,,,
12,8,1574,B,77.94284823972704,63.26706108729198,3.897142411986352,0.9937966716302656,B,518.2252499798778,Correct,sub_012_day_08_data.csv,1,300,62.0,Training at home,,,,,,,,,,,,,
12,8,1575,B,73.50818608727438,52.35028101844425,3.6754093043637193,0.8223162913045281,B,552.9749999986961,Correct,sub_012_day_08_data.csv,1,300,63.0,Training at home,,,,,,,,,,,,,
12,8,1576,A,26.096873137725215,56.789890644382496,1.3048436568862607,0.8920535162327989,A,462.9878749838099,Correct,sub_012_day_08_data.csv,1,300,63.0,Training at home,,,,,,,,,,,,,
12,8,1577,B,36.90501607764439,13.473229178216094,1.8452508038822195,0.2116369890320766,B,478.1287079968024,Correct,sub_012_day_08_data.csv,1,300,63.0,Training at home,,,,,,,,,,,,,
12,8,1578,A,50.69698589174534,80.30335930685484,2.534849294587267,1.2614022182849838,A,753.4595000033733,Correct,sub_012_day_08_data.csv,1,300,63.0,Training at home,,,,,,,,,,,,,
12,8,1579,B,52.50010788314845,32.83494270980426,2.6250053941574225,0.515770073990814,B,521.7868739855476,Correct,sub_012_day_08_data.csv,1,300,63.0,Training at home,,,,,,,,,,,,,
12,8,1580,B,71.85150991132984,40.79598140151582,3.5925754955664924,0.6408217773349396,B,547.4067920004018,Correct,sub_012_day_08_data.csv,1,300,63.0,Training at home,,,,,,,,,,,,,
12,8,1581,B,46.61513822063543,34.673100404117186,2.3307569110317714,0.5446437875337792,B,534.2389580036979,Correct,sub_012_day_08_data.csv,1,300,63.0,Training at home,,,,,,,,,,,,,
12,8,1582,A,68.05026225040707,87.08865624644079,3.402513112520354,1.3679854133741265,B,505.33741601975635,Incorrect,sub_012_day_08_data.csv,0,300,63.0,Training at home,,,,,,,,,,,,,
12,8,1583,B,47.87760646350563,23.81226975672373,2.393880323175282,0.3740422586651084,B,489.87133300397545,Correct,sub_012_day_08_data.csv,1,300,63.0,Training at home,,,,,,,,,,,,,
12,8,1584,A,35.74487262016245,60.63522262829513,1.7872436310081223,0.952455849789168,A,560.7677910011262,Correct,sub_012_day_08_data.csv,1,300,63.0,Training at home,,,,,,,,,,,,,
12,8,1585,A,64.39355406757323,80.16043703981256,3.219677703378662,1.2591572005641114,A,641.8654579902068,Correct,sub_012_day_08_data.csv,1,300,63.0,Training at home,,,,,,,,,,,,,
12,8,1586,B,40.59759206258325,24.56624759380488,2.029879603129163,0.3858857148348268,B,615.7506660092622,Correct,sub_012_day_08_data.csv,1,300,63.0,Training at home,,,,,,,,,,,,,
12,8,1587,B,88.20112855977798,69.15869085677816,4.410056427988899,1.0863421756377094,B,698.7578739935998,Correct,sub_012_day_08_data.csv,1,300,63.0,Training at home,,,,,,,,,,,,,
12,8,1588,B,57.09219357973228,29.217672061425397,2.854609678986614,0.4589501195158488,B,527.6473329868168,Correct,sub_012_day_08_data.csv,1,300,63.0,Training at home,,,,,,,,,,,,,
12,8,1589,A,17.71067004894797,48.21769712439313,0.8855335024473986,0.7574018152950558,A,528.1962490116712,Correct,sub_012_day_08_data.csv,1,300,63.0,Training at home,,,,,,,,,,,,,
12,8,1590,B,84.3664141360791,57.21467355693866,4.218320706803955,0.8987259906200835,B,539.53666597954,Correct,sub_012_day_08_data.csv,1,300,63.0,Training at home,,,,,,,,,,,,,
12,8,1591,A,37.257162968877864,68.23151407606753,1.8628581484438933,1.0717781168234115,A,539.6933330048341,Correct,sub_012_day_08_data.csv,1,300,63.0,Training at home,,,,,,,,,,,,,
12,8,1592,B,40.53279768835095,24.806231930840116,2.026639884417548,0.3896553799858593,B,565.5003329738975,Correct,sub_012_day_08_data.csv,1,300,63.0,Training at home,,,,,,,,,,,,,
12,8,1593,A,58.202844951513306,78.46422027759237,2.9101422475756653,1.2325130899686776,A,555.0150409981143,Correct,sub_012_day_08_data.csv,1,300,63.0,Training at home,,,,,,,,,,,,,
12,8,1594,B,49.13509927213088,33.78268085849863,2.456754963606544,0.5306571100181391,B,600.3678750130348,Correct,sub_012_day_08_data.csv,1,300,63.0,Training at home,,,,,,,,,,,,,
12,8,1595,A,36.65757321457384,62.66251534358881,1.8328786607286924,0.9843004892943816,A,708.3062079909723,Correct,sub_012_day_08_data.csv,1,300,63.0,Training at home,,,,,,,,,,,,,
12,8,1596,B,68.09366769673434,44.33608045506775,3.404683384836717,0.6964295232330343,B,544.7716250200756,Correct,sub_012_day_08_data.csv,1,300,63.0,Training at home,,,,,,,,,,,,,
12,8,1597,A,25.608973433470677,56.29710391627978,1.2804486716735335,0.8843128404088287,A,602.206000010483,Correct,sub_012_day_08_data.csv,1,300,63.0,Training at home,,,,,,,,,,,,,
12,8,1598,B,43.98340317643278,32.32442002311907,2.199170158821639,0.5077508023809084,B,505.7828330027405,Correct,sub_012_day_08_data.csv,1,300,63.0,Training at home,,,,,,,,,,,,,
12,8,1599,A,56.33747861132946,72.80345465305814,2.816873930566473,1.1435939914700255,A,631.7339990055189,Correct,sub_012_day_08_data.csv,1,300,63.0,Training at home,,,,,,,,,,,,,
12,8,1600,A,33.05037670242322,57.5692694254798,1.652518835121161,0.9042959694980944,A,573.1193750107195,Correct,sub_012_day_08_data.csv,1,300,64.0,Training at home,,,,,,,,,,,,,
12,8,1601,A,40.63260848559662,67.31004705976832,2.031630424279831,1.0573037467787572,A,516.803873993922,Correct,sub_012_day_08_data.csv,1,300,64.0,Training at home,,,,,,,,,,,,,
12,8,1602,B,76.30596446137017,61.25001215727915,3.815298223068509,0.9621129411279684,B,548.7572079873644,Correct,sub_012_day_08_data.csv,1,300,64.0,Training at home,,,,,,,,,,,,,
12,8,1603,B,68.05799865688823,41.30953337135323,3.4028999328444116,0.6488886328133285,B,427.3702909995336,Correct,sub_012_day_08_data.csv,1,300,64.0,Training at home,,,,,,,,,,,,,
12,8,1604,A,37.0879030400656,54.043033740270346,1.85439515200328,0.8489059888806931,A,684.2904579825699,Correct,sub_012_day_08_data.csv,1,300,64.0,Training at home,,,,,,,,,,,,,
12,8,1605,B,37.36271163233416,27.073688617190044,1.868135581616708,0.4252725063267092,B,595.472167013213,Correct,sub_012_day_08_data.csv,1,300,64.0,Training at home,,,,,,,,,,,,,
12,8,1606,B,64.2794507796729,43.09096155623931,3.2139725389836453,0.6768712413060081,B,473.9046239992604,Correct,sub_012_day_08_data.csv,1,300,64.0,Training at home,,,,,,,,,,,,,
12,8,1607,A,45.8895687914188,53.81146772721617,2.29447843957094,0.8452685584535328,B,1513.6693330132402,Incorrect,sub_012_day_08_data.csv,0,300,64.0,Training at home,,,,,,,,,,,,,
12,8,1608,A,61.52215610614867,81.26287779957369,3.0761078053074336,1.276474299523529,A,593.4892910008784,Correct,sub_012_day_08_data.csv,1,300,64.0,Training at home,,,,,,,,,,,,,
12,8,1609,A,52.91938096156673,72.0462547861272,2.6459690480783364,1.1316999237737784,A,690.3409580118023,Correct,sub_012_day_08_data.csv,1,300,64.0,Training at home,,,,,,,,,,,,,
12,8,1610,A,31.427754953216443,43.03257859073233,1.571387747660822,0.6759541638283504,A,833.343374019023,Correct,sub_012_day_08_data.csv,1,300,64.0,Training at home,,,,,,,,,,,,,
12,8,1611,B,83.59550972807034,67.11257911155815,4.179775486403517,1.0542019275016743,B,489.1844990197569,Correct,sub_012_day_08_data.csv,1,300,64.0,Training at home,,,,,,,,,,,,,
12,8,1612,A,33.649449982672095,48.67701102650894,1.6824724991336046,0.7646167011979492,A,1540.39966702112,Correct,sub_012_day_08_data.csv,1,300,64.0,Training at home,,,,,,,,,,,,,
12,8,1613,B,68.6726426914386,57.26573288545976,3.4336321345719294,0.899528028676979,B,521.3197080011014,Correct,sub_012_day_08_data.csv,1,300,64.0,Training at home,,,,,,,,,,,,,
12,8,1614,A,47.536338460099195,67.48466536744098,2.37681692300496,1.0600466447415906,B,896.438791998662,Incorrect,sub_012_day_08_data.csv,0,300,64.0,Training at home,,,,,,,,,,,,,
12,8,1615,A,29.577337349223782,60.70726769131209,1.4788668674611891,0.9535875309926752,A,601.4434579992667,Correct,sub_012_day_08_data.csv,1,300,64.0,Training at home,,,,,,,,,,,,,
12,8,1616,B,47.45496567555219,29.654116139874574,2.3727482837776095,0.4658057670686423,B,549.839332990814,Correct,sub_012_day_08_data.csv,1,300,64.0,Training at home,,,,,,,,,,,,,
12,8,1617,B,76.66205214048918,63.78877224292201,3.8331026070244594,1.0019916912993814,B,609.687957999995,Correct,sub_012_day_08_data.csv,1,300,64.0,Training at home,,,,,,,,,,,,,
12,8,1618,B,47.60037878414936,30.58594346001348,2.3800189392074684,0.4804428763854557,B,548.4666660195217,Correct,sub_012_day_08_data.csv,1,300,64.0,Training at home,,,,,,,,,,,,,
12,8,1619,A,58.0946258136105,85.96668601572165,2.904731290680525,1.3503615462022578,A,610.3596249886323,Correct,sub_012_day_08_data.csv,1,300,64.0,Training at home,,,,,,,,,,,,,
12,8,1620,A,57.04621327987728,83.39027923649249,2.852310663993864,1.3098914431508315,A,663.7388330127578,Correct,sub_012_day_08_data.csv,1,300,64.0,Training at home,,,,,,,,,,,,,
12,8,1621,B,36.32646916897441,14.43581582151272,1.816323458448721,0.2267572646671983,B,947.870125004556,Correct,sub_012_day_08_data.csv,1,300,64.0,Training at home,,,,,,,,,,,,,
12,8,1622,B,41.44962973639868,19.984627667456063,2.0724814868199335,0.3139177973240364,B,543.0103329999838,Correct,sub_012_day_08_data.csv,1,300,64.0,Training at home,,,,,,,,,,,,,
12,8,1623,B,36.629906930848904,16.2182694461929,1.8314953465424453,0.254755980730497,B,564.5559990080073,Correct,sub_012_day_08_data.csv,1,300,64.0,Training at home,,,,,,,,,,,,,
12,8,1624,A,10.52460662599252,33.41271652083696,0.5262303312996259,0.5248457237916985,A,557.2725420061033,Correct,sub_012_day_08_data.csv,1,300,64.0,Training at home,,,,,,,,,,,,,
12,8,1625,B,62.544997408579526,51.95448334120597,3.1272498704289764,0.8160991159289299,B,651.0678750055376,Correct,sub_012_day_08_data.csv,1,300,65.0,Training at home,,,,,,,,,,,,,
12,8,1626,A,59.63099456720708,80.75988474768391,2.9815497283603545,1.2685733031404107,A,713.8595409924164,Correct,sub_012_day_08_data.csv,1,300,65.0,Training at home,,,,,,,,,,,,,
12,8,1627,A,41.17638364358165,71.02557220461331,2.058819182179082,1.1156670792751229,A,662.7157080220059,Correct,sub_012_day_08_data.csv,1,300,65.0,Training at home,,,,,,,,,,,,,
12,8,1628,A,51.52174890852277,80.52322575335472,2.5760874454261384,1.2648558723504584,A,1246.5081669797655,Correct,sub_012_day_08_data.csv,1,300,65.0,Training at home,,,,,,,,,,,,,
12,8,1629,B,40.31674550107365,17.865957608351867,2.0158372750536824,0.2806378058587244,B,637.3848750081379,Correct,sub_012_day_08_data.csv,1,300,65.0,Training at home,,,,,,,,,,,,,
12,8,1630,A,57.856905491334814,86.08225137300269,2.892845274566741,1.3521768425894758,A,613.7698749953415,Correct,sub_012_day_08_data.csv,1,300,65.0,Training at home,,,,,,,,,,,,,
12,8,1631,B,37.71825760105742,27.282005450547423,1.8859128800528708,0.4285447394931823,B,739.2449170001782,Correct,sub_012_day_08_data.csv,1,300,65.0,Training at home,,,,,,,,,,,,,
12,8,1632,B,59.58795912887947,49.90443922339617,2.9793979564439734,0.7838970982286985,B,547.7944999875035,Correct,sub_012_day_08_data.csv,1,300,65.0,Training at home,,,,,,,,,,,,,
12,8,1633,A,65.7812793600899,82.06282428993407,3.289063968004495,1.2890398296104346,A,706.3023330119904,Correct,sub_012_day_08_data.csv,1,300,65.0,Training at home,,,,,,,,,,,,,
12,8,1634,B,82.12617665187129,65.68467243007626,4.106308832593564,1.031772421798898,B,595.7653749792371,Correct,sub_012_day_08_data.csv,1,300,65.0,Training at home,,,,,,,,,,,,,
12,8,1635,B,81.2745107879044,61.47215218019009,4.063725539395221,0.965602308448195,B,617.3067500058096,Correct,sub_012_day_08_data.csv,1,300,65.0,Training at home,,,,,,,,,,,,,
12,8,1636,A,35.40936501840106,47.012599850412585,1.7704682509200529,0.7384721915810639,A,561.3840830046684,Correct,sub_012_day_08_data.csv,1,300,65.0,Training at home,,,,,,,,,,,,,
12,8,1637,A,20.55568592710841,37.6941271377036,1.0277842963554205,0.5920979644964464,A,560.8620829880238,Correct,sub_012_day_08_data.csv,1,300,65.0,Training at home,,,,,,,,,,,,,
12,8,1638,B,67.83376125469137,40.11068506457732,3.391688062734568,0.6300571676466497,B,679.1545829910319,Correct,sub_012_day_08_data.csv,1,300,65.0,Training at home,,,,,,,,,,,,,
12,8,1639,B,64.76181994865499,43.32172894521941,3.2380909974327494,0.6804961269755481,B,549.3354579957668,Correct,sub_012_day_08_data.csv,1,300,65.0,Training at home,,,,,,,,,,,,,
12,8,1640,A,39.748184383347755,51.705129630384334,1.987409219167388,0.8121822769986169,A,2373.3447499980684,Correct,sub_012_day_08_data.csv,1,300,65.0,Training at home,,,,,,,,,,,,,
12,8,1641,B,81.28737744758861,52.89963543091086,4.06436887237943,0.8309455302366395,B,458.6812499910593,Correct,sub_012_day_08_data.csv,1,300,65.0,Training at home,,,,,,,,,,,,,
12,8,1642,A,27.270214085679353,43.56899604912552,1.3635107042839676,0.6843801895610773,A,879.6948329836596,Correct,sub_012_day_08_data.csv,1,300,65.0,Training at home,,,,,,,,,,,,,
12,8,1643,B,57.9290346262777,39.32260193673517,2.896451731313885,0.6176779868224149,B,466.363082989119,Correct,sub_012_day_08_data.csv,1,300,65.0,Training at home,,,,,,,,,,,,,
12,8,1644,A,57.61732719433945,70.03948314599346,2.880866359716973,1.100177628563396,A,645.7391660078429,Correct,sub_012_day_08_data.csv,1,300,65.0,Training at home,,,,,,,,,,,,,
12,8,1645,B,52.44004387113174,36.8311846736677,2.622002193556587,0.5785428959690171,B,798.20037499303,Correct,sub_012_day_08_data.csv,1,300,65.0,Training at home,,,,,,,,,,,,,
12,8,1646,A,30.27025770974498,46.607127876330765,1.5135128854872488,0.7321030527060037,A,682.0957500021905,Correct,sub_012_day_08_data.csv,1,300,65.0,Training at home,,,,,,,,,,,,,
12,8,1647,B,57.18113128009597,29.619494474879673,2.8590565640047987,0.4652619312266272,B,408.2775830174796,Correct,sub_012_day_08_data.csv,1,300,65.0,Training at home,,,,,,,,,,,,,
12,8,1648,A,17.427411164045996,36.20420981483354,0.8713705582022997,0.5686943979165225,A,503.83916599093936,Correct,sub_012_day_08_data.csv,1,300,65.0,Training at home,,,,,,,,,,,,,
12,8,1649,B,76.03724523580297,57.39997780281535,3.801862261790149,0.9016367429077096,B,422.773333004443,Correct,sub_012_day_08_data.csv,1,300,65.0,Training at home,,,,,,,,,,,,,
12,8,1650,B,63.03732012488354,53.824155333875225,3.1518660062441772,0.8454678549128914,B,434.8593750037253,Correct,sub_012_day_08_data.csv,1,300,66.0,Training at home,,,,,,,,,,,,,
12,8,1651,A,22.28177418171058,44.686746372293314,1.114088709085529,0.701937770580135,A,508.9052919938694,Correct,sub_012_day_08_data.csv,1,300,66.0,Training at home,,,,,,,,,,,,,
12,8,1652,A,54.34471640827655,66.06486260808668,2.717235820413827,1.0377444351499208,B,521.2241669942159,Incorrect,sub_012_day_08_data.csv,0,300,66.0,Training at home,,,,,,,,,,,,,
12,8,1653,A,41.4958918349631,63.54106798530103,2.074794591748155,0.9981007619193564,A,537.0654579892289,Correct,sub_012_day_08_data.csv,1,300,66.0,Training at home,,,,,,,,,,,,,
12,8,1654,B,82.5594388522681,57.545942859272934,4.127971942613405,0.9039295566529492,B,574.0963739808649,Correct,sub_012_day_08_data.csv,1,300,66.0,Training at home,,,,,,,,,,,,,
12,8,1655,A,52.547787955983615,79.12795981138039,2.627389397799181,1.2429390861849052,A,947.9978739982472,Correct,sub_012_day_08_data.csv,1,300,66.0,Training at home,,,,,,,,,,,,,
12,8,1656,A,55.27741322124783,80.93419273708218,2.763870661062392,1.271311326635189,A,644.6056250133552,Correct,sub_012_day_08_data.csv,1,300,66.0,Training at home,,,,,,,,,,,,,
12,8,1657,B,85.25956829414994,56.21173110755472,4.262978414707497,0.8829718074652937,B,778.4015829965938,Correct,sub_012_day_08_data.csv,1,300,66.0,Training at home,,,,,,,,,,,,,
12,8,1658,A,34.66679058134298,62.119411868237606,1.733339529067149,0.9757694398528692,A,662.6690829871222,Correct,sub_012_day_08_data.csv,1,300,66.0,Training at home,,,,,,,,,,,,,
12,8,1659,B,54.936859879427494,24.443600821658578,2.7468429939713745,0.3839591838430201,B,584.6072910062503,Correct,sub_012_day_08_data.csv,1,300,66.0,Training at home,,,,,,,,,,,,,
12,8,1660,B,51.67855699256612,33.24543803388428,2.583927849628306,0.5222181194631277,B,592.2494579863269,Correct,sub_012_day_08_data.csv,1,300,66.0,Training at home,,,,,,,,,,,,,
12,8,1661,A,22.948445280416017,42.15860709276345,1.147422264020801,0.662225851641021,A,543.8357499951962,Correct,sub_012_day_08_data.csv,1,300,66.0,Training at home,,,,,,,,,,,,,
12,8,1662,B,38.40317384586648,27.329111293498855,1.9201586922933245,0.4292846763439693,B,711.5596240037121,Correct,sub_012_day_08_data.csv,1,300,66.0,Training at home,,,,,,,,,,,,,
12,8,1663,B,53.58218846853717,30.17775512242904,2.679109423426859,0.4740310689722741,B,476.4232920133509,Correct,sub_012_day_08_data.csv,1,300,66.0,Training at home,,,,,,,,,,,,,
12,8,1664,B,63.35981785252783,46.78670088645193,3.1679908926263916,0.7349237789529023,B,621.4057489996776,Correct,sub_012_day_08_data.csv,1,300,66.0,Training at home,,,,,,,,,,,,,
12,8,1665,B,77.09367404007268,50.37027907614999,3.8546837020036344,0.7912144935245022,B,526.2107499875128,Correct,sub_012_day_08_data.csv,1,300,66.0,Training at home,,,,,,,,,,,,,
12,8,1666,B,51.8259503232306,31.424019347925768,2.59129751616153,0.4936073416485355,B,454.1505000088364,Correct,sub_012_day_08_data.csv,1,300,66.0,Training at home,,,,,,,,,,,,,
12,8,1667,A,30.78619669409186,54.44640979346924,1.539309834704593,0.8552422051075117,A,716.3399579876568,Correct,sub_012_day_08_data.csv,1,300,66.0,Training at home,,,,,,,,,,,,,
12,8,1668,B,57.4811308248057,37.33122942577203,2.874056541240285,0.5863975805674025,B,644.4065419782419,Correct,sub_012_day_08_data.csv,1,300,66.0,Training at home,,,,,,,,,,,,,
12,8,1669,A,31.103537219501177,48.618948273049845,1.5551768609750587,0.7637046535993777,A,604.3966659926809,Correct,sub_012_day_08_data.csv,1,300,66.0,Training at home,,,,,,,,,,,,,
12,8,1670,A,48.36566120583294,71.22168067786757,2.418283060291647,1.1187475439695342,A,612.5692919886205,Correct,sub_012_day_08_data.csv,1,300,66.0,Training at home,,,,,,,,,,,,,
12,8,1671,A,37.93081670182922,60.4914658900221,1.8965408350914612,0.9501977242248548,A,791.6608749947045,Correct,sub_012_day_08_data.csv,1,300,66.0,Training at home,,,,,,,,,,,,,
12,8,1672,B,68.93852207435982,58.537862077717634,3.446926103717991,0.9195105873010512,B,1906.8151670217048,Correct,sub_012_day_08_data.csv,1,300,66.0,Training at home,,,,,,,,,,,,,
12,8,1673,B,42.23334780515583,17.788906418335568,2.1116673902577916,0.2794274885961967,B,2483.948874025373,Correct,sub_012_day_08_data.csv,1,300,66.0,Training at home,,,,,,,,,,,,,
12,8,1674,A,36.48953888678998,53.560981851738305,1.8244769443394988,0.8413339355223866,A,1753.9642909832764,Correct,sub_012_day_08_data.csv,1,300,66.0,Training at home,,,,,,,,,,,,,
12,8,1675,B,65.64398825738255,56.845244692344195,3.282199412869127,0.8929230155849136,B,424.6749170124531,Correct,sub_012_day_08_data.csv,1,300,67.0,Training at home,,,,,,,,,,,,,
12,8,1676,A,41.477224479870486,56.80537540869632,2.073861223993524,0.8922967503418533,A,805.3764580108691,Correct,sub_012_day_08_data.csv,1,300,67.0,Training at home,,,,,,,,,,,,,
12,8,1677,A,24.153372779124744,46.46144768737818,1.2076686389562372,0.7298147136490688,A,590.7572500000242,Correct,sub_012_day_08_data.csv,1,300,67.0,Training at home,,,,,,,,,,,,,
12,8,1678,B,51.10299243725881,21.571381040186267,2.555149621862941,0.3388424610181766,B,1029.8645830189344,Correct,sub_012_day_08_data.csv,1,300,67.0,Training at home,,,,,,,,,,,,,
12,8,1679,B,66.75066204079857,38.62319409892502,3.337533102039929,0.6066917141967775,B,493.38149998220615,Correct,sub_012_day_08_data.csv,1,300,67.0,Training at home,,,,,,,,,,,,,
12,8,1680,B,61.81477257834912,45.3604342883736,3.090738628917456,0.7125200356199853,B,499.4504989881534,Correct,sub_012_day_08_data.csv,1,300,67.0,Training at home,,,,,,,,,,,,,
12,8,1681,A,19.247975976781436,33.09450909610216,0.9623987988390718,0.5198473332523755,A,601.5908329864033,Correct,sub_012_day_08_data.csv,1,300,67.0,Training at home,,,,,,,,,,,,,
12,8,1682,A,42.422068997259565,64.65101366484684,2.121103449862978,1.0155357478830809,A,611.9052910071332,Correct,sub_012_day_08_data.csv,1,300,67.0,Training at home,,,,,,,,,,,,,
12,8,1683,A,58.25395935283969,68.37932724101195,2.912697967641985,1.074099960588878,A,672.7586659835652,Correct,sub_012_day_08_data.csv,1,300,67.0,Training at home,,,,,,,,,,,,,
12,8,1684,B,79.82030078459766,54.84818006559932,3.991015039229883,0.8615531977842847,B,655.9367080044467,Correct,sub_012_day_08_data.csv,1,300,67.0,Training at home,,,,,,,,,,,,,
12,8,1685,B,77.10079938688501,55.448177415711584,3.8550399693442503,0.8709779341207151,B,42220.15379200457,Correct,sub_012_day_08_data.csv,1,300,67.0,Training at home,,,,,,,,,,,,,
12,8,1686,A,46.56981512615843,62.02766369705099,2.3284907563079216,0.9743282629499684,A,2729.72566599492,Correct,sub_012_day_08_data.csv,1,300,67.0,Training at home,,,,,,,,,,,,,
12,8,1687,A,35.69519837969048,65.97890006592898,1.784759918984524,1.036394138695288,A,1259.5221240189858,Correct,sub_012_day_08_data.csv,1,300,67.0,Training at home,,,,,,,,,,,,,
12,8,1688,B,59.09773546404782,48.86489906733288,2.954886773202391,0.7675680396416987,B,743.9310410118196,Correct,sub_012_day_08_data.csv,1,300,67.0,Training at home,,,,,,,,,,,,,
12,8,1689,A,38.60003068174676,63.13041367414669,1.930001534087338,0.9916502190839194,A,1469.2258330178447,Correct,sub_012_day_08_data.csv,1,300,67.0,Training at home,,,,,,,,,,,,,
12,8,1690,B,84.73355284679492,66.018566557503,4.236677642339746,1.037017218487901,B,495.43704200186767,Correct,sub_012_day_08_data.csv,1,300,67.0,Training at home,,,,,,,,,,,,,
12,8,1691,A,10.13410432711067,33.23586773555766,0.5067052163555334,0.5220677895685499,A,527.3172079760116,Correct,sub_012_day_08_data.csv,1,300,67.0,Training at home,,,,,,,,,,,,,
12,8,1692,B,44.41232052805292,28.186213254283743,2.2206160264026464,0.4427480024608654,B,661.1505420005415,Correct,sub_012_day_08_data.csv,1,300,67.0,Training at home,,,,,,,,,,,,,
12,8,1693,A,29.053727779699567,61.7120463721878,1.4526863889849784,0.969370557604289,A,820.4535830009263,Correct,sub_012_day_08_data.csv,1,300,67.0,Training at home,,,,,,,,,,,,,
12,8,1694,B,52.65658012680627,27.86854946765455,2.6328290063403137,0.4377581513689363,B,505.00945799285546,Correct,sub_012_day_08_data.csv,1,300,67.0,Training at home,,,,,,,,,,,,,
12,8,1695,A,60.96586283078568,79.28210238423537,3.048293141539284,1.2453603520573382,A,522.0554169791285,Correct,sub_012_day_08_data.csv,1,300,67.0,Training at home,,,,,,,,,,,,,
12,8,1696,A,52.93177593648319,83.26243208864,2.6465887968241595,1.3078832248484522,A,514.7212500160094,Correct,sub_012_day_08_data.csv,1,300,67.0,Training at home,,,,,,,,,,,,,
12,8,1697,A,62.105149936554426,84.64484555548447,3.105257496827721,1.3295981248067632,A,558.6283740121871,Correct,sub_012_day_08_data.csv,1,300,67.0,Training at home,,,,,,,,,,,,,
12,8,1698,A,17.602649288051424,45.19604815377011,0.8801324644025712,0.7099378642558736,A,479.7122080053669,Correct,sub_012_day_08_data.csv,1,300,67.0,Training at home,,,,,,,,,,,,,
12,8,1699,B,46.40783220255199,34.89442379370082,2.320391610127599,0.5481203272076969,B,613.0768329894636,Correct,sub_012_day_08_data.csv,1,300,67.0,Training at home,,,,,,,,,,,,,
12,8,1700,A,35.82857913598055,56.45957971367521,1.7914289567990271,0.8868650042662468,A,601.7819999833591,Correct,sub_012_day_08_data.csv,1,300,68.0,Training at home,,,,,,,,,,,,,
12,8,1701,A,44.06736877733972,72.49642424512578,2.203368438866986,1.1387711691000808,A,571.3067910110112,Correct,sub_012_day_08_data.csv,1,300,68.0,Training at home,,,,,,,,,,,,,
12,8,1702,B,46.93356503476538,37.777100443271195,2.3466782517382687,0.5934013061325225,B,600.7793740136549,Correct,sub_012_day_08_data.csv,1,300,68.0,Training at home,,,,,,,,,,,,,
12,8,1703,B,82.55527603209052,57.08070851953226,4.127763801604527,0.8966216727333142,B,504.2426659783814,Correct,sub_012_day_08_data.csv,1,300,68.0,Training at home,,,,,,,,,,,,,
12,8,1704,A,26.474307941011272,43.372118009122445,1.3237153970505635,0.6812876365404432,A,518.9262489730027,Correct,sub_012_day_08_data.csv,1,300,68.0,Training at home,,,,,,,,,,,,,
12,8,1705,A,53.00999803867357,66.9264609627404,2.650499901933679,1.0512783904565466,A,724.37870799331,Correct,sub_012_day_08_data.csv,1,300,68.0,Training at home,,,,,,,,,,,,,
12,8,1706,A,20.590978358678807,38.74118407800657,1.0295489179339403,0.6085450964541764,A,1112.0110409974586,Correct,sub_012_day_08_data.csv,1,300,68.0,Training at home,,,,,,,,,,,,,
12,8,1707,A,12.29857857341668,33.00143775283536,0.6149289286708339,0.5183853720110421,A,959.3360830040184,Correct,sub_012_day_08_data.csv,1,300,68.0,Training at home,,,,,,,,,,,,,
12,8,1708,B,31.70549684671205,18.637398777519355,1.5852748423356025,0.2927555754073909,A,574.0873749891762,Incorrect,sub_012_day_08_data.csv,0,300,68.0,Training at home,,,,,,,,,,,,,
12,8,1709,B,37.52502481872536,25.347226475902957,1.8762512409362675,0.3981533024278672,B,846.7104159935843,Correct,sub_012_day_08_data.csv,1,300,68.0,Training at home,,,,,,,,,,,,,
12,8,1710,A,46.51754807846679,63.53536080159439,2.3258774039233394,0.9980111136873292,A,1058.139958011452,Correct,sub_012_day_08_data.csv,1,300,68.0,Training at home,,,,,,,,,,,,,
12,8,1711,A,49.70890745238056,56.46782863673982,2.485445372619028,0.8869945780467458,A,1038.8804159883875,Correct,sub_012_day_08_data.csv,1,300,68.0,Training at home,,,,,,,,,,,,,
12,8,1712,A,43.220432272758835,51.233222161041134,2.1610216136379417,0.8047695718043032,A,859.80666600517,Correct,sub_012_day_08_data.csv,1,300,68.0,Training at home,,,,,,,,,,,,,
12,8,1713,B,59.3159400596127,34.539411569663535,2.965797002980634,0.5425438082328463,B,491.899624990765,Correct,sub_012_day_08_data.csv,1,300,68.0,Training at home,,,,,,,,,,,,,
12,8,1714,A,40.04383237777509,49.58052115357743,2.0021916188887543,0.778809005086161,B,884.7600410226732,Incorrect,sub_012_day_08_data.csv,0,300,68.0,Training at home,,,,,,,,,,,,,
12,8,1715,B,64.35574467562398,31.22004942822566,3.2177872337811992,0.4904033896421197,A,1018.5439579945524,Incorrect,sub_012_day_08_data.csv,0,300,68.0,Training at home,,,,,,,,,,,,,
12,8,1716,A,18.061958958445366,38.24206322145055,0.9030979479222684,0.6007049243731273,A,532.1720829815604,Correct,sub_012_day_08_data.csv,1,300,68.0,Training at home,,,,,,,,,,,,,
12,8,1717,A,17.893884105501012,41.31657825524069,0.8946942052750506,0.6489992935906597,A,483.8217080105096,Correct,sub_012_day_08_data.csv,1,300,68.0,Training at home,,,,,,,,,,,,,
12,8,1718,B,41.80758739918555,24.971188669618073,2.0903793699592774,0.3922465143793841,B,817.5731660157908,Correct,sub_012_day_08_data.csv,1,300,68.0,Training at home,,,,,,,,,,,,,
12,8,1719,B,72.29783777855894,60.184796367673336,3.614891888927947,0.9453805706324012,A,677.538292016834,Incorrect,sub_012_day_08_data.csv,0,300,68.0,Training at home,,,,,,,,,,,,,
12,8,1720,B,62.904669281618865,55.38204849143969,3.145233464080943,0.869939183407303,B,560.8961660182104,Correct,sub_012_day_08_data.csv,1,300,68.0,Training at home,,,,,,,,,,,,,
12,8,1721,B,70.12880501552154,53.90380563029104,3.506440250776077,0.8467189988432723,B,452.22762401681393,Correct,sub_012_day_08_data.csv,1,300,68.0,Training at home,,,,,,,,,,,,,
12,8,1722,A,45.31639841770398,72.88928679313476,2.265819920885199,1.1449422395735585,A,847.1176250022836,Correct,sub_012_day_08_data.csv,1,300,68.0,Training at home,,,,,,,,,,,,,
12,8,1723,B,45.950011394721216,35.67143989276028,2.297500569736061,0.560325667550328,B,513.7951660144608,Correct,sub_012_day_08_data.csv,1,300,68.0,Training at home,,,,,,,,,,,,,
12,8,1724,B,82.30701105826208,52.699450478176274,4.115350552913104,0.8278010323522886,B,483.4431659837719,Correct,sub_012_day_08_data.csv,1,300,68.0,Training at home,,,,,,,,,,,,,
12,8,1725,B,55.75751827270512,41.016580827479565,2.787875913635256,0.6442869450149087,B,588.0046240054071,Correct,sub_012_day_08_data.csv,1,300,69.0,Training at home,,,,,,,,,,,,,
12,8,1726,B,33.35168937926993,18.684209598283687,1.6675844689634964,0.2934908780604996,B,641.4314580033533,Correct,sub_012_day_08_data.csv,1,300,69.0,Training at home,,,,,,,,,,,,,
12,8,1727,B,79.12865076975606,59.40672646522758,3.956432538487803,0.9331586771848864,B,636.5160419954918,Correct,sub_012_day_08_data.csv,1,300,69.0,Training at home,,,,,,,,,,,,,
12,8,1728,A,58.09769875365528,72.70679312946993,2.904884937682764,1.142075635808078,A,571.7397080152296,Correct,sub_012_day_08_data.csv,1,300,69.0,Training at home,,,,,,,,,,,,,
12,8,1729,B,50.86958479454254,37.45731993677675,2.543479239727127,0.5883782056827017,B,1207.526083017001,Correct,sub_012_day_08_data.csv,1,300,69.0,Training at home,,,,,,,,,,,,,
12,8,1730,A,34.16097598071278,42.524404850217266,1.7080487990356388,0.6679717893786037,A,1805.7312079763503,Correct,sub_012_day_08_data.csv,1,300,69.0,Training at home,,,,,,,,,,,,,
12,8,1731,A,51.85400692736255,59.30801263178879,2.5927003463681273,0.9316080839151916,A,1645.952082995791,Correct,sub_012_day_08_data.csv,1,300,69.0,Training at home,,,,,,,,,,,,,
12,8,1732,A,53.77406741256361,70.24219944164508,2.688703370628181,1.1033618886893062,A,620.6100410199724,Correct,sub_012_day_08_data.csv,1,300,69.0,Training at home,,,,,,,,,,,,,
12,8,1733,A,49.11331923115036,63.213883485652445,2.4556659615575183,0.9929613598170344,A,699.498541012872,Correct,sub_012_day_08_data.csv,1,300,69.0,Training at home,,,,,,,,,,,,,
12,8,1734,A,36.4712286184524,45.37411588316293,1.82356143092262,0.712734945608383,A,665.4811240150593,Correct,sub_012_day_08_data.csv,1,300,69.0,Training at home,,,,,,,,,,,,,
12,8,1735,B,45.466471799514814,37.99932106781672,2.2733235899757407,0.5968919395402644,A,1061.3982490031049,Incorrect,sub_012_day_08_data.csv,0,300,69.0,Training at home,,,,,,,,,,,,,
12,8,1736,A,30.082198970641112,62.3121559390963,1.5041099485320557,0.9787970566380328,A,688.6255829886068,Correct,sub_012_day_08_data.csv,1,300,69.0,Training at home,,,,,,,,,,,,,
12,8,1737,A,46.10635567984838,77.1626350382644,2.305317783992419,1.212067836839209,A,734.6853750059381,Correct,sub_012_day_08_data.csv,1,300,69.0,Training at home,,,,,,,,,,,,,
12,8,1738,A,33.44593782251616,54.75479569802461,1.6722968911258078,0.8600863195686205,A,590.1535830053035,Correct,sub_012_day_08_data.csv,1,300,69.0,Training at home,,,,,,,,,,,,,
12,8,1739,A,35.444090891924695,58.435767646569914,1.7722045445962349,0.9179068917267208,A,576.0847490164451,Correct,sub_012_day_08_data.csv,1,300,69.0,Training at home,,,,,,,,,,,,,
12,8,1740,B,64.99694035075335,54.31732860521639,3.2498470175376672,0.8532146025438526,B,869.2849159997422,Correct,sub_012_day_08_data.csv,1,300,69.0,Training at home,,,,,,,,,,,,,
12,8,1741,A,45.35753499779089,74.14871181037846,2.2678767498895445,1.1647252414831584,A,646.4174580178224,Correct,sub_012_day_08_data.csv,1,300,69.0,Training at home,,,,,,,,,,,,,
12,8,1742,B,48.997891238691295,39.22686647801382,2.4498945619345647,0.6161741777533798,B,580.8514579839539,Correct,sub_012_day_08_data.csv,1,300,69.0,Training at home,,,,,,,,,,,,,
12,8,1743,B,38.00685421841795,22.995248372028012,1.900342710920898,0.3612085167651792,B,536.2228750018403,Correct,sub_012_day_08_data.csv,1,300,69.0,Training at home,,,,,,,,,,,,,
12,8,1744,A,15.552171622087172,39.22439540036417,0.7776085811043586,0.6161353621564268,A,549.7632490005344,Correct,sub_012_day_08_data.csv,1,300,69.0,Training at home,,,,,,,,,,,,,
12,8,1745,B,56.35612610035384,30.74262367376003,2.817806305017692,0.4829040034278009,B,488.32754101022147,Correct,sub_012_day_08_data.csv,1,300,69.0,Training at home,,,,,,,,,,,,,
12,8,1746,A,44.427209108575646,68.35769106733058,2.2213604554287825,1.0737601003674315,A,654.5562499959487,Correct,sub_012_day_08_data.csv,1,300,69.0,Training at home,,,,,,,,,,,,,
12,8,1747,A,23.777558447229374,38.19800383946939,1.188877922361469,0.6000128412193587,A,701.333082979545,Correct,sub_012_day_08_data.csv,1,300,69.0,Training at home,,,,,,,,,,,,,
12,8,1748,B,76.70390580730138,54.73234795031348,3.8351952903650695,0.8597337111721259,B,597.322957997676,Correct,sub_012_day_08_data.csv,1,300,69.0,Training at home,,,,,,,,,,,,,
12,8,1749,B,60.61561652581834,50.23276897681976,3.0307808262909166,0.7890544899352512,B,465.85858301841654,Correct,sub_012_day_08_data.csv,1,300,69.0,Training at home,,,,,,,,,,,,,
12,8,1750,B,45.3590998029164,28.698402190668837,2.26795499014582,0.4507934474598521,B,578.4520829911344,Correct,sub_012_day_08_data.csv,1,300,70.0,Training at home,,,,,,,,,,,,,
12,8,1751,A,36.51204417602756,63.18964527463443,1.825602208801378,0.9925806268886826,A,499.2295830161311,Correct,sub_012_day_08_data.csv,1,300,70.0,Training at home,,,,,,,,,,,,,
12,8,1752,B,70.69170390355147,49.79310792269399,3.5345851951775735,0.7821483102466958,B,465.5125410063192,Correct,sub_012_day_08_data.csv,1,300,70.0,Training at home,,,,,,,,,,,,,
12,8,1753,B,47.53859641077147,23.229146041767343,2.3769298205385736,0.3648825727699035,B,562.4896670051385,Correct,sub_012_day_08_data.csv,1,300,70.0,Training at home,,,,,,,,,,,,,
12,8,1754,A,22.988077049845792,43.96439556563461,1.1494038524922896,0.6905911106425668,A,612.495040986687,Correct,sub_012_day_08_data.csv,1,300,70.0,Training at home,,,,,,,,,,,,,
12,8,1755,B,62.24637278143373,53.477113755352256,3.1123186390716864,0.8400165385450016,B,510.2444999793079,Correct,sub_012_day_08_data.csv,1,300,70.0,Training at home,,,,,,,,,,,,,
12,8,1756,B,77.97708901396035,50.19063643765267,3.898854450698018,0.7883926735576291,B,512.7813750004862,Correct,sub_012_day_08_data.csv,1,300,70.0,Training at home,,,,,,,,,,,,,
12,8,1757,A,52.99698117490517,81.0004260077638,2.6498490587452586,1.272351716418172,A,704.815332981525,Correct,sub_012_day_08_data.csv,1,300,70.0,Training at home,,,,,,,,,,,,,
12,8,1758,B,31.634425956212723,12.136777339158794,1.5817212978106363,0.1906440526347817,B,1023.1040829967242,Correct,sub_012_day_08_data.csv,1,300,70.0,Training at home,,,,,,,,,,,,,
12,8,1759,A,51.73739688159426,60.044668757596774,2.586869844079713,0.9431794512804929,A,1552.9922500136308,Correct,sub_012_day_08_data.csv,1,300,70.0,Training at home,,,,,,,,,,,,,
12,8,1760,B,33.434216659870366,13.690117052104252,1.6717108329935184,0.2150438557883754,B,681.5261250012554,Correct,sub_012_day_08_data.csv,1,300,70.0,Training at home,,,,,,,,,,,,,
12,8,1761,B,37.82250662320459,17.89859077169205,1.8911253311602296,0.281150406389789,B,591.0151240241248,Correct,sub_012_day_08_data.csv,1,300,70.0,Training at home,,,,,,,,,,,,,
12,8,1762,A,31.49024113083165,48.181476570402296,1.5745120565415822,0.756832864163423,A,599.8394580092281,Correct,sub_012_day_08_data.csv,1,300,70.0,Training at home,,,,,,,,,,,,,
12,8,1763,B,71.4068166077527,58.61824536414722,3.5703408303876354,0.9207732450116444,B,614.2404989805073,Correct,sub_012_day_08_data.csv,1,300,70.0,Training at home,,,,,,,,,,,,,
12,8,1764,A,48.98180572949626,71.36913078160114,2.449090286474813,1.1210636847828366,A,764.9531240167562,Correct,sub_012_day_08_data.csv,1,300,70.0,Training at home,,,,,,,,,,,,,
12,8,1765,A,38.17505241516597,57.41658988779068,1.9087526207582983,0.901897684928306,A,691.6131239850074,Correct,sub_012_day_08_data.csv,1,300,70.0,Training at home,,,,,,,,,,,,,
12,8,1766,B,81.7270646077321,52.042784700997224,4.086353230386606,0.8174861504450408,B,618.7902080127969,Correct,sub_012_day_08_data.csv,1,300,70.0,Training at home,,,,,,,,,,,,,
12,8,1767,A,62.23772379412529,82.96456249776041,3.111886189706264,1.3032043002562768,A,723.4488740214147,Correct,sub_012_day_08_data.csv,1,300,70.0,Training at home,,,,,,,,,,,,,
12,8,1768,B,72.1165854203543,40.05494702095828,3.605829271017715,0.6291816365048546,B,597.7434990054462,Correct,sub_012_day_08_data.csv,1,300,70.0,Training at home,,,,,,,,,,,,,
12,8,1769,B,74.65115705436556,53.10458183734906,3.732557852718278,0.8341648208608687,B,1235.9772920026444,Correct,sub_012_day_08_data.csv,1,300,70.0,Training at home,,,,,,,,,,,,,
12,8,1770,B,44.25151099951549,15.496063643123572,2.2125755499757744,0.2434115985039845,B,843.0498329980765,Correct,sub_012_day_08_data.csv,1,300,70.0,Training at home,,,,,,,,,,,,,
12,8,1771,A,23.446441966386367,50.7985210795302,1.1723220983193183,0.7979413031833916,A,547.5240829982795,Correct,sub_012_day_08_data.csv,1,300,70.0,Training at home,,,,,,,,,,,,,
12,8,1772,B,48.38348029486287,26.186195025130782,2.4191740147431435,0.4113317895821022,B,521.0376660106704,Correct,sub_012_day_08_data.csv,1,300,70.0,Training at home,,,,,,,,,,,,,
12,8,1773,A,13.421922725204375,30.111821466010426,0.6710961362602188,0.4729953855191289,A,680.4301670053974,Correct,sub_012_day_08_data.csv,1,300,70.0,Training at home,,,,,,,,,,,,,
12,8,1774,A,48.216588658775535,70.51347438443884,2.410829432938777,1.1076230655262256,A,1277.2230409900658,Correct,sub_012_day_08_data.csv,1,300,70.0,Training at home,,,,,,,,,,,,,
12,8,1775,A,61.866570759889655,79.44118799535283,3.093328537994483,1.2478592629932306,A,1264.8382920015138,Correct,sub_012_day_08_data.csv,1,300,71.0,Training at home,,,,,,,,,,,,,
12,8,1776,B,60.570580551975915,46.47364750009348,3.0285290275987955,0.7300063478590766,A,1719.4097909959964,Incorrect,sub_012_day_08_data.csv,0,300,71.0,Training at home,,,,,,,,,,,,,
12,8,1777,B,73.24916368870504,46.18571365008405,3.662458184435252,0.7254834935195293,B,419.80525001417845,Correct,sub_012_day_08_data.csv,1,300,71.0,Training at home,,,,,,,,,,,,,
12,8,1778,B,80.88477538561014,67.00507367531317,4.044238769280508,1.0525132360580336,B,723.2224580075126,Correct,sub_012_day_08_data.csv,1,300,71.0,Training at home,,,,,,,,,,,,,
12,8,1779,A,53.50605064173445,78.78770584753654,2.675302532086722,1.237594389419072,A,576.8059169931803,Correct,sub_012_day_08_data.csv,1,300,71.0,Training at home,,,,,,,,,,,,,
12,8,1780,B,53.60497263317093,44.92904197584482,2.6802486316585465,0.7057437410207077,B,903.3367500232998,Correct,sub_012_day_08_data.csv,1,300,71.0,Training at home,,,,,,,,,,,,,
12,8,1781,A,38.79119923335167,59.129185769387966,1.9395599616675836,0.9287990781292768,B,2412.486123997951,Incorrect,sub_012_day_08_data.csv,0,300,71.0,Training at home,,,,,,,,,,,,,
12,8,1782,B,41.30513605208745,25.49988073680264,2.0652568026043725,0.4005511899507752,B,610.4646250023507,Correct,sub_012_day_08_data.csv,1,300,71.0,Training at home,,,,,,,,,,,,,
12,8,1783,B,78.08111752727123,54.30837068038963,3.9040558763635618,0.8530738917897167,B,505.2008329948876,Correct,sub_012_day_08_data.csv,1,300,71.0,Training at home,,,,,,,,,,,,,
12,8,1784,A,57.8108936035356,83.2167876309805,2.89054468017678,1.3071662433841515,A,588.3232920023147,Correct,sub_012_day_08_data.csv,1,300,71.0,Training at home,,,,,,,,,,,,,
12,8,1785,A,59.23215343822357,84.71621037482426,2.961607671911178,1.3307191207675766,A,976.3391250162384,Correct,sub_012_day_08_data.csv,1,300,71.0,Training at home,,,,,,,,,,,,,
12,8,1786,A,56.246591883454656,66.04636388855401,2.8123295941727324,1.0374538579429975,A,1496.2964989827017,Correct,sub_012_day_08_data.csv,1,300,71.0,Training at home,,,,,,,,,,,,,
12,8,1787,A,27.615247517421253,54.80318945060561,1.3807623758710628,0.860846486856561,A,694.9722909776028,Correct,sub_012_day_08_data.csv,1,300,71.0,Training at home,,,,,,,,,,,,,
12,8,1788,A,17.449738287899386,33.63464700529059,0.8724869143949693,0.5283317996895343,A,642.4754159816075,Correct,sub_012_day_08_data.csv,1,300,71.0,Training at home,,,,,,,,,,,,,
12,8,1789,A,18.702410618614955,41.33224762925718,0.9351205309307477,0.6492454275421427,A,541.3987910142168,Correct,sub_012_day_08_data.csv,1,300,71.0,Training at home,,,,,,,,,,,,,
12,8,1790,A,23.95651022300091,49.18116028709927,1.1978255111500458,0.7725358592648656,A,506.4660409989301,Correct,sub_012_day_08_data.csv,1,300,71.0,Training at home,,,,,,,,,,,,,
12,8,1791,B,58.519930898887225,28.440326408349044,2.925996544944361,0.4467396025508258,B,715.5170000041835,Correct,sub_012_day_08_data.csv,1,300,71.0,Training at home,,,,,,,,,,,,,
12,8,1792,A,64.21877755031944,85.2263891580621,3.210938877515972,1.3387329903547636,A,581.4895420044195,Correct,sub_012_day_08_data.csv,1,300,71.0,Training at home,,,,,,,,,,,,,
12,8,1793,B,50.14943970807815,28.62105157971928,2.5074719854039076,0.4495784269043031,B,778.1508750049397,Correct,sub_012_day_08_data.csv,1,300,71.0,Training at home,,,,,,,,,,,,,
12,8,1794,B,66.85560149652186,36.27218740746312,3.3427800748260927,0.5697621874445917,B,586.9700000039302,Correct,sub_012_day_08_data.csv,1,300,71.0,Training at home,,,,,,,,,,,,,
12,8,1795,A,49.441935674833104,63.18994234558423,2.472096783741655,0.99258529326825,A,728.9461249893066,Correct,sub_012_day_08_data.csv,1,300,71.0,Training at home,,,,,,,,,,,,,
12,8,1796,B,80.5160488316728,66.73838178669376,4.02580244158364,1.04832404966774,B,551.1566670029424,Correct,sub_012_day_08_data.csv,1,300,71.0,Training at home,,,,,,,,,,,,,
12,8,1797,A,52.85146162316539,59.85241795412434,2.6425730811582695,0.9401595827213144,B,671.9459580199327,Incorrect,sub_012_day_08_data.csv,0,300,71.0,Training at home,,,,,,,,,,,,,
12,8,1798,B,78.52427773541586,50.04611567147266,3.9262138867707934,0.7861225466710178,B,608.1635410082527,Correct,sub_012_day_08_data.csv,1,300,71.0,Training at home,,,,,,,,,,,,,
12,8,1799,B,64.68333907539463,40.490305150261406,3.2341669537697317,0.6360202260083511,B,608.7946660118178,Correct,sub_012_day_08_data.csv,1,300,71.0,Training at home,,,,,,,,,,,,,
