subject,day,trial,cat,x,y,xt,yt,resp,rt,fb,f_name,acc,n_trials,block,session_type,ns_left_digit,ns_right_digit,ns_left_size,ns_right_size,ns_congruent,ns_cue,ns_correct_side,ns_resp,ns_rt,ns_fb,acc_stroop,acc_stroop_mean,resp_key
12,24,600,B,73.5293796037413,54.347741881429286,3.676468980187065,0.8536923331694628,B,682.8589000506327,Correct,sub_012_day_24_data.csv,1,600,,Button-Switch at home,,,,,,,,,,,,,d
12,24,601,B,68.7854245900401,44.488597174744854,3.4392712295020043,0.6988252502634703,B,601.7665999825113,Correct,sub_012_day_24_data.csv,1,600,,Button-Switch at home,,,,,,,,,,,,,d
12,24,602,B,54.48274922324299,28.99615164266718,2.7241374611621496,0.4554704849148941,B,797.915400005877,Correct,sub_012_day_24_data.csv,1,600,,Button-Switch at home,,,,,,,,,,,,,d
12,24,603,B,46.58011068922702,16.299985328776906,2.3290055344613507,0.2560395708125347,B,528.6478000343777,Correct,sub_012_day_24_data.csv,1,600,,Button-Switch at home,,,,,,,,,,,,,d
12,24,604,B,84.48120101252753,59.6309821942929,4.224060050626377,0.9366812779396716,B,1138.9447000110522,Correct,sub_012_day_24_data.csv,1,600,,Button-Switch at home,,,,,,,,,,,,,d
12,24,605,A,33.19832350587697,42.078879341123674,1.6599161752938485,0.6609734910468271,A,1106.2018999946304,Correct,sub_012_day_24_data.csv,1,600,,Button-Switch at home,,,,,,,,,,,,,k
12,24,606,B,61.36654739667681,37.283549527473525,3.0683273698338405,0.5856486264763101,A,1285.1099999970756,Incorrect,sub_012_day_24_data.csv,0,600,,Button-Switch at home,,,,,,,,,,,,,k
12,24,607,A,58.469177486545064,69.78131180313828,2.923458874327253,1.0961222825929895,A,1125.239200016949,Correct,sub_012_day_24_data.csv,1,600,,Button-Switch at home,,,,,,,,,,,,,k
12,24,608,A,14.154194929479868,42.80656695785305,0.7077097464739934,0.6724039814009537,A,781.1167000327259,Correct,sub_012_day_24_data.csv,1,600,,Button-Switch at home,,,,,,,,,,,,,k
12,24,609,B,56.14278805739004,47.88917807270319,2.807139402869502,0.7522414500982887,B,817.8136000060476,Correct,sub_012_day_24_data.csv,1,600,,Button-Switch at home,,,,,,,,,,,,,d
12,24,610,B,45.709999952695576,32.78555653897031,2.2854999976347785,0.5149943178334098,B,734.0604999917559,Correct,sub_012_day_24_data.csv,1,600,,Button-Switch at home,,,,,,,,,,,,,d
12,24,611,A,42.97638311042728,57.60608757593643,2.148819155521364,0.9048743076530606,A,580.4440000210889,Correct,sub_012_day_24_data.csv,1,600,,Button-Switch at home,,,,,,,,,,,,,k
12,24,612,B,62.41627725206337,44.00823711173012,3.1208138626031685,0.6912797720382452,B,1380.0409999676049,Correct,sub_012_day_24_data.csv,1,600,,Button-Switch at home,,,,,,,,,,,,,d
12,24,613,B,88.10763811319936,62.61163165613897,4.405381905659968,0.9835012102009816,B,1319.2441000137478,Correct,sub_012_day_24_data.csv,1,600,,Button-Switch at home,,,,,,,,,,,,,d
12,24,614,A,51.77391567244032,74.65653299968885,2.588695783622017,1.172702078071532,A,958.45500001451,Correct,sub_012_day_24_data.csv,1,600,,Button-Switch at home,,,,,,,,,,,,,k
12,24,615,B,54.24847595829613,46.65433164650988,2.712423797914807,0.7328445277940863,B,1434.6913999761457,Correct,sub_012_day_24_data.csv,1,600,,Button-Switch at home,,,,,,,,,,,,,d
12,24,616,A,26.159681037507323,44.45146742377607,1.3079840518753665,0.6982420174991045,A,1042.643200024031,Correct,sub_012_day_24_data.csv,1,600,,Button-Switch at home,,,,,,,,,,,,,k
12,24,617,B,42.246476766109055,24.021831978190143,2.112323838305453,0.3773340543422526,B,931.5288999932818,Correct,sub_012_day_24_data.csv,1,600,,Button-Switch at home,,,,,,,,,,,,,d
12,24,618,A,50.224274243938424,58.21138892088982,2.511213712196921,0.9143823589456286,A,873.0286000063643,Correct,sub_012_day_24_data.csv,1,600,,Button-Switch at home,,,,,,,,,,,,,k
12,24,619,B,74.98543307837026,58.42736543525725,3.749271653918513,0.917774910100052,A,1233.2611000165343,Incorrect,sub_012_day_24_data.csv,0,600,,Button-Switch at home,,,,,,,,,,,,,k
12,24,620,B,50.1464657913826,22.362867038243454,2.5073232895691304,0.3512750940027548,B,998.709500010591,Correct,sub_012_day_24_data.csv,1,600,,Button-Switch at home,,,,,,,,,,,,,d
12,24,621,B,68.51921177245801,44.37400818754976,3.4259605886229,0.6970252906616982,B,1122.1021999954246,Correct,sub_012_day_24_data.csv,1,600,,Button-Switch at home,,,,,,,,,,,,,d
12,24,622,B,87.03470127084331,68.82939698152464,4.351735063542166,1.0811696395408663,B,1407.859000028111,Correct,sub_012_day_24_data.csv,1,600,,Button-Switch at home,,,,,,,,,,,,,d
12,24,623,A,37.37754193272995,53.07145127492791,1.8688770966364976,0.8336444072033109,A,822.4292999948375,Correct,sub_012_day_24_data.csv,1,600,,Button-Switch at home,,,,,,,,,,,,,k
12,24,624,B,33.232456027766396,21.316343455304477,1.66162280138832,0.3348363400029071,B,1376.9108999986202,Correct,sub_012_day_24_data.csv,1,600,,Button-Switch at home,,,,,,,,,,,,,d
12,24,625,B,67.58271448703276,50.96558885987143,3.379135724351638,0.8005655977402495,B,1432.1632000501268,Correct,sub_012_day_24_data.csv,1,600,,Button-Switch at home,,,,,,,,,,,,,d
12,24,626,A,44.313978449226425,73.49612659894667,2.2156989224613213,1.1544744569527814,A,819.903300027363,Correct,sub_012_day_24_data.csv,1,600,,Button-Switch at home,,,,,,,,,,,,,k
12,24,627,B,69.24979388817363,41.01057530265376,3.462489694408681,0.6441926104515403,B,493.0316000245511,Correct,sub_012_day_24_data.csv,1,600,,Button-Switch at home,,,,,,,,,,,,,d
12,24,628,B,58.03823118470056,49.64788774199114,2.901911559235028,0.7798671969824507,B,655.911699985154,Correct,sub_012_day_24_data.csv,1,600,,Button-Switch at home,,,,,,,,,,,,,d
12,24,629,B,42.232018971519025,14.439423309210458,2.1116009485759513,0.2268139309514439,B,770.8975999848917,Correct,sub_012_day_24_data.csv,1,600,,Button-Switch at home,,,,,,,,,,,,,d
12,24,630,B,57.2364604062038,48.59680069178141,2.8618230203101898,0.7633567602063392,B,1022.0891000353732,Correct,sub_012_day_24_data.csv,1,600,,Button-Switch at home,,,,,,,,,,,,,d
12,24,631,B,49.131071167205306,21.910404946141497,2.456553558360265,0.3441678360798779,B,552.4917000439018,Correct,sub_012_day_24_data.csv,1,600,,Button-Switch at home,,,,,,,,,,,,,d
12,24,632,B,75.66518926663278,49.57437922083977,3.7832594633316385,0.7787125278323236,B,630.3517000051215,Correct,sub_012_day_24_data.csv,1,600,,Button-Switch at home,,,,,,,,,,,,,d
12,24,633,A,37.0795410564283,64.08426913782885,1.8539770528214148,1.006633345670371,A,656.8930000066757,Correct,sub_012_day_24_data.csv,1,600,,Button-Switch at home,,,,,,,,,,,,,k
12,24,634,A,57.40624481403757,80.0701447147533,2.870312240701878,1.2577388920387027,A,987.5644000130706,Correct,sub_012_day_24_data.csv,1,600,,Button-Switch at home,,,,,,,,,,,,,k
12,24,635,A,39.80290607529285,50.1831363980796,1.9901453037646428,0.7882748632115071,A,775.9016000200063,Correct,sub_012_day_24_data.csv,1,600,,Button-Switch at home,,,,,,,,,,,,,k
12,24,636,A,47.46598965981567,61.074034311283214,2.3732994829907836,0.9593486875870916,A,492.3353999620303,Correct,sub_012_day_24_data.csv,1,600,,Button-Switch at home,,,,,,,,,,,,,k
12,24,637,A,53.25189427860307,67.63918080144836,2.6625947139301536,1.0624737675033098,A,444.0476999734528,Correct,sub_012_day_24_data.csv,1,600,,Button-Switch at home,,,,,,,,,,,,,k
12,24,638,A,20.495928214112013,48.749039445178695,1.024796410705601,0.7657481209526621,A,432.1506000123918,Correct,sub_012_day_24_data.csv,1,600,,Button-Switch at home,,,,,,,,,,,,,k
12,24,639,B,56.13716656686992,44.66770086585771,2.8068583283434965,0.7016386044646252,B,1505.0069999997504,Correct,sub_012_day_24_data.csv,1,600,,Button-Switch at home,,,,,,,,,,,,,d
12,24,640,B,56.1144711562635,45.451799004455175,2.8057235578131747,0.7139551892241812,B,681.8403999786824,Correct,sub_012_day_24_data.csv,1,600,,Button-Switch at home,,,,,,,,,,,,,d
12,24,641,B,72.67211185422036,46.95382042201069,3.6336055927110182,0.7375488864788159,B,513.1111000082456,Correct,sub_012_day_24_data.csv,1,600,,Button-Switch at home,,,,,,,,,,,,,d
12,24,642,B,44.67465653483722,16.651782225344512,2.233732826741861,0.2615655835415971,B,790.0425000116229,Correct,sub_012_day_24_data.csv,1,600,,Button-Switch at home,,,,,,,,,,,,,d
12,24,643,A,14.40519147564012,38.17492209422305,0.720259573782006,0.5996502740128691,A,535.1334000006318,Correct,sub_012_day_24_data.csv,1,600,,Button-Switch at home,,,,,,,,,,,,,k
12,24,644,A,18.408343648053496,36.64771728011433,0.9204171824026748,0.5756609968902144,A,898.4838000033051,Correct,sub_012_day_24_data.csv,1,600,,Button-Switch at home,,,,,,,,,,,,,k
12,24,645,B,76.67670478640355,58.58691369085326,3.8338352393201776,0.9202810882384196,B,719.5240000146441,Correct,sub_012_day_24_data.csv,1,600,,Button-Switch at home,,,,,,,,,,,,,d
12,24,646,A,36.72540395916788,55.12651097137251,1.8362701979583935,0.8659252094285051,A,561.0304000438191,Correct,sub_012_day_24_data.csv,1,600,,Button-Switch at home,,,,,,,,,,,,,k
12,24,647,B,75.74995039911829,51.30410769449196,3.7874975199559144,0.8058830391599776,B,602.3247999837622,Correct,sub_012_day_24_data.csv,1,600,,Button-Switch at home,,,,,,,,,,,,,d
12,24,648,A,17.646086105318727,48.526256279217876,0.8823043052659364,0.7622486511650323,A,971.099799964577,Correct,sub_012_day_24_data.csv,1,600,,Button-Switch at home,,,,,,,,,,,,,k
12,24,649,A,50.40896280783254,77.38212048537963,2.5204481403916272,1.2155155061803444,A,974.0874000126496,Correct,sub_012_day_24_data.csv,1,600,,Button-Switch at home,,,,,,,,,,,,,k
12,24,650,A,68.09788772742752,86.46681602307171,3.404894386371376,1.3582175699869117,A,1625.3113999846391,Correct,sub_012_day_24_data.csv,1,600,,Button-Switch at home,,,,,,,,,,,,,k
12,24,651,A,53.830884328330285,74.6873633092697,2.6915442164165144,1.1731863594419676,A,537.6383000402711,Correct,sub_012_day_24_data.csv,1,600,,Button-Switch at home,,,,,,,,,,,,,k
12,24,652,A,32.677382899842215,48.81074384498885,1.6338691449921106,0.7667173713983509,A,472.3006000276655,Correct,sub_012_day_24_data.csv,1,600,,Button-Switch at home,,,,,,,,,,,,,k
12,24,653,A,48.816642056386605,63.46510832736935,2.4408321028193303,0.9969075904027196,A,615.2323000133038,Correct,sub_012_day_24_data.csv,1,600,,Button-Switch at home,,,,,,,,,,,,,k
12,24,654,B,61.82302066749243,39.0648763053876,3.0911510333746213,0.6136296420719982,B,721.2101999903098,Correct,sub_012_day_24_data.csv,1,600,,Button-Switch at home,,,,,,,,,,,,,d
12,24,655,B,67.58224291856459,35.90701686047052,3.3791121459282296,0.5640261019058951,B,491.5151000022888,Correct,sub_012_day_24_data.csv,1,600,,Button-Switch at home,,,,,,,,,,,,,d
12,24,656,B,69.39217468087412,48.56869802132232,3.469608734043706,0.7629153244910365,B,660.0953000015579,Correct,sub_012_day_24_data.csv,1,600,,Button-Switch at home,,,,,,,,,,,,,d
12,24,657,A,27.4673775256436,53.40548874968336,1.37336887628218,0.8388914555868882,A,739.6593999583274,Correct,sub_012_day_24_data.csv,1,600,,Button-Switch at home,,,,,,,,,,,,,k
12,24,658,A,38.71957675154159,68.47339752368529,1.9359788375770792,1.0755776131337162,A,794.7626999812201,Correct,sub_012_day_24_data.csv,1,600,,Button-Switch at home,,,,,,,,,,,,,k
12,24,659,B,57.69698374223018,48.5945803405727,2.884849187111509,0.7633218830111109,A,601.7620000056922,Incorrect,sub_012_day_24_data.csv,0,600,,Button-Switch at home,,,,,,,,,,,,,k
12,24,660,B,60.40589050983517,36.26622789624091,3.0202945254917584,0.5696685756612183,B,737.2471999842674,Correct,sub_012_day_24_data.csv,1,600,,Button-Switch at home,,,,,,,,,,,,,d
12,24,661,A,25.76233135667099,44.71913441728351,1.2881165678335496,0.7024465208011618,A,515.6957000144757,Correct,sub_012_day_24_data.csv,1,600,,Button-Switch at home,,,,,,,,,,,,,k
12,24,662,B,61.4500257060952,53.4965045215245,3.0725012853047597,0.8403211279877725,B,774.2402000003494,Correct,sub_012_day_24_data.csv,1,600,,Button-Switch at home,,,,,,,,,,,,,d
12,24,663,B,76.58225383046499,47.68526855593179,3.8291126915232496,0.7490384468988585,B,627.5418000295758,Correct,sub_012_day_24_data.csv,1,600,,Button-Switch at home,,,,,,,,,,,,,d
12,24,664,A,14.344486726475193,40.97346671207784,0.7172243363237597,0.6436097100738484,A,663.3733999915421,Correct,sub_012_day_24_data.csv,1,600,,Button-Switch at home,,,,,,,,,,,,,k
12,24,665,B,59.85665572905503,36.65721871653845,2.9928327864527513,0.5758102451045574,B,557.554800005164,Correct,sub_012_day_24_data.csv,1,600,,Button-Switch at home,,,,,,,,,,,,,d
12,24,666,A,35.36364204221648,64.35862429511516,1.7681821021108244,1.0109429064033968,A,657.7401999966241,Correct,sub_012_day_24_data.csv,1,600,,Button-Switch at home,,,,,,,,,,,,,k
12,24,667,B,64.58554866211338,36.42245095377766,3.2292774331056693,0.5721225217106123,B,734.4381000148132,Correct,sub_012_day_24_data.csv,1,600,,Button-Switch at home,,,,,,,,,,,,,d
12,24,668,B,80.91490378732973,56.412628033037265,4.045745189366487,0.8861274889914176,B,1812.8234999603592,Correct,sub_012_day_24_data.csv,1,600,,Button-Switch at home,,,,,,,,,,,,,d
12,24,669,A,30.79425499260973,49.74909404117289,1.5397127496304863,0.7814569418124825,A,1450.1600000075996,Correct,sub_012_day_24_data.csv,1,600,,Button-Switch at home,,,,,,,,,,,,,k
12,24,670,A,32.30439108960819,58.93934088669229,1.6152195544804095,0.925817001685285,A,514.5899000344798,Correct,sub_012_day_24_data.csv,1,600,,Button-Switch at home,,,,,,,,,,,,,k
12,24,671,A,29.007419645465436,38.26078841225316,1.450370982273272,0.6009990589824401,A,568.8143000006676,Correct,sub_012_day_24_data.csv,1,600,,Button-Switch at home,,,,,,,,,,,,,k
12,24,672,A,30.932408359361773,54.83618910528384,1.5466204179680887,0.861364844220102,A,662.1299000107683,Correct,sub_012_day_24_data.csv,1,600,,Button-Switch at home,,,,,,,,,,,,,k
12,24,673,B,37.6486847411531,20.571799002853943,1.8824342370576548,0.3231410630924589,B,589.3919999944046,Correct,sub_012_day_24_data.csv,1,600,,Button-Switch at home,,,,,,,,,,,,,d
12,24,674,A,21.53124803748685,34.19400880536024,1.0765624018743425,0.5371182342985221,A,465.0073000229895,Correct,sub_012_day_24_data.csv,1,600,,Button-Switch at home,,,,,,,,,,,,,k
12,24,675,B,74.56013120981771,42.527188004267956,3.7280065604908854,0.6680155070602009,B,475.3826999804005,Correct,sub_012_day_24_data.csv,1,600,,Button-Switch at home,,,,,,,,,,,,,d
12,24,676,A,47.70395378980119,79.41336970450524,2.3851976894900595,1.2474222943024196,A,413.2377000059933,Correct,sub_012_day_24_data.csv,1,600,,Button-Switch at home,,,,,,,,,,,,,k
12,24,677,A,42.24187977274542,56.15720972196041,2.112093988637271,0.8821153875430607,A,460.0583999999799,Correct,sub_012_day_24_data.csv,1,600,,Button-Switch at home,,,,,,,,,,,,,k
12,24,678,B,63.954892229798666,37.88210164207606,3.1977446114899335,0.59505066110644,B,497.0800000010058,Correct,sub_012_day_24_data.csv,1,600,,Button-Switch at home,,,,,,,,,,,,,d
12,24,679,A,38.64552099588358,69.84918211769958,1.9322760497941789,1.0971883870011028,A,599.0262000123039,Correct,sub_012_day_24_data.csv,1,600,,Button-Switch at home,,,,,,,,,,,,,k
12,24,680,A,29.835511475206033,57.22695462176087,1.4917755737603016,0.898918901135202,A,471.0903000086546,Correct,sub_012_day_24_data.csv,1,600,,Button-Switch at home,,,,,,,,,,,,,k
12,24,681,A,11.376024727994045,37.35859993494724,0.5688012363997021,0.5868275155201519,A,806.7317000241019,Correct,sub_012_day_24_data.csv,1,600,,Button-Switch at home,,,,,,,,,,,,,k
12,24,682,A,55.03712368570056,77.21867062459953,2.751856184285028,1.2129480417710592,A,1111.59820004832,Correct,sub_012_day_24_data.csv,1,600,,Button-Switch at home,,,,,,,,,,,,,k
12,24,683,A,67.63213907927756,88.97370862047565,3.3816069539638782,1.3975957468236258,A,541.4149999851361,Correct,sub_012_day_24_data.csv,1,600,,Button-Switch at home,,,,,,,,,,,,,k
12,24,684,B,44.839126761704534,28.168763267923275,2.2419563380852265,0.4424738987160888,B,930.826600000728,Correct,sub_012_day_24_data.csv,1,600,,Button-Switch at home,,,,,,,,,,,,,d
12,24,685,A,41.99360072406417,70.29145937607306,2.0996800362032086,1.1041356619298826,A,748.5319000552408,Correct,sub_012_day_24_data.csv,1,600,,Button-Switch at home,,,,,,,,,,,,,k
12,24,686,B,38.09569363169421,12.756373960191723,1.9047846815847107,0.2003766535989122,B,442.20440002391115,Correct,sub_012_day_24_data.csv,1,600,,Button-Switch at home,,,,,,,,,,,,,d
12,24,687,B,69.55650754496293,41.84790054271327,3.477825377248146,0.6573452845657216,B,580.8245999505743,Correct,sub_012_day_24_data.csv,1,600,,Button-Switch at home,,,,,,,,,,,,,d
12,24,688,A,63.164201798462614,83.22869646781182,3.1582100899231307,1.3073533069556618,A,454.05929995467886,Correct,sub_012_day_24_data.csv,1,600,,Button-Switch at home,,,,,,,,,,,,,k
12,24,689,A,27.352156527371857,46.30778445069701,1.367607826368593,0.7274009771716468,A,423.5587000148371,Correct,sub_012_day_24_data.csv,1,600,,Button-Switch at home,,,,,,,,,,,,,k
12,24,690,B,89.22917296822612,66.00631216681347,4.461458648411306,1.036824726969079,B,641.6405999916606,Correct,sub_012_day_24_data.csv,1,600,,Button-Switch at home,,,,,,,,,,,,,d
12,24,691,B,75.39962081169425,46.64106815693096,3.769981040584713,0.7326361853869757,B,501.4587000478059,Correct,sub_012_day_24_data.csv,1,600,,Button-Switch at home,,,,,,,,,,,,,d
12,24,692,B,76.29862312354588,43.79531779376898,3.8149311561772943,0.6879352432126749,B,887.4108000309207,Correct,sub_012_day_24_data.csv,1,600,,Button-Switch at home,,,,,,,,,,,,,d
12,24,693,B,39.003667453407985,14.773632694482412,1.9501833726703992,0.2320636796990996,B,629.3755999649875,Correct,sub_012_day_24_data.csv,1,600,,Button-Switch at home,,,,,,,,,,,,,d
12,24,694,B,85.77917721707931,56.886709469092885,4.288958860853966,0.8935743427749957,B,805.9574000071734,Correct,sub_012_day_24_data.csv,1,600,,Button-Switch at home,,,,,,,,,,,,,d
12,24,695,A,17.55024584740075,34.7202648128992,0.8775122923700374,0.5453846443344816,A,877.9613999649882,Correct,sub_012_day_24_data.csv,1,600,,Button-Switch at home,,,,,,,,,,,,,k
12,24,696,B,66.79329638901295,45.548491166064714,3.3396648194506473,0.7154740261470424,B,360.24469998665154,Correct,sub_012_day_24_data.csv,1,600,,Button-Switch at home,,,,,,,,,,,,,d
12,24,697,A,13.837711429984708,36.49852019048148,0.6918855714992354,0.5733174144865768,A,576.0546999517828,Correct,sub_012_day_24_data.csv,1,600,,Button-Switch at home,,,,,,,,,,,,,k
12,24,698,A,47.60759119905663,62.16742241921922,2.3803795599528312,0.9765235878241626,B,592.6309000351466,Incorrect,sub_012_day_24_data.csv,0,600,,Button-Switch at home,,,,,,,,,,,,,d
12,24,699,B,56.364555937398386,25.85274655989945,2.818227796869919,0.4060939933384945,B,599.5970999938436,Correct,sub_012_day_24_data.csv,1,600,,Button-Switch at home,,,,,,,,,,,,,d
12,24,700,A,58.78802146343524,77.28025689731412,2.939401073171762,1.21391543668067,A,672.659499978181,Correct,sub_012_day_24_data.csv,1,600,,Button-Switch at home,,,,,,,,,,,,,k
12,24,701,A,58.13533793759855,66.21199521564726,2.9067668968799274,1.0400555887449998,B,1167.27690002881,Incorrect,sub_012_day_24_data.csv,0,600,,Button-Switch at home,,,,,,,,,,,,,d
12,24,702,A,26.16138286728085,54.43881335400435,1.3080691433640426,0.8551228805154298,A,996.73359998269,Correct,sub_012_day_24_data.csv,1,600,,Button-Switch at home,,,,,,,,,,,,,k
12,24,703,B,66.2932088384244,33.30101241444983,3.31466044192122,0.5230910797916904,B,918.6833999701776,Correct,sub_012_day_24_data.csv,1,600,,Button-Switch at home,,,,,,,,,,,,,d
12,24,704,A,42.97369800519415,67.64357771182729,2.1486849002597075,1.0625428340100345,A,972.355600039009,Correct,sub_012_day_24_data.csv,1,600,,Button-Switch at home,,,,,,,,,,,,,k
12,24,705,B,57.62379168773154,31.18177748340683,2.881189584386578,0.4898022153387126,B,507.04890000633895,Correct,sub_012_day_24_data.csv,1,600,,Button-Switch at home,,,,,,,,,,,,,d
12,24,706,A,30.639510364614697,43.26678062942308,1.5319755182307346,0.6796330008493836,A,865.0138999801129,Correct,sub_012_day_24_data.csv,1,600,,Button-Switch at home,,,,,,,,,,,,,k
12,24,707,B,33.99504792907945,18.235549471086557,1.6997523964539725,0.2864433412626938,B,511.3094999687746,Correct,sub_012_day_24_data.csv,1,600,,Button-Switch at home,,,,,,,,,,,,,d
12,24,708,B,65.19981082106874,53.88333522743488,3.259990541053437,0.8463974505071278,B,644.3524000351317,Correct,sub_012_day_24_data.csv,1,600,,Button-Switch at home,,,,,,,,,,,,,d
12,24,709,A,31.07106923719042,63.40379621588872,1.553553461859521,0.9959445020077016,A,434.9459999939427,Correct,sub_012_day_24_data.csv,1,600,,Button-Switch at home,,,,,,,,,,,,,k
12,24,710,B,58.72863865852034,34.350108421284425,2.936431932926017,0.5395702413316001,B,558.0246999743395,Correct,sub_012_day_24_data.csv,1,600,,Button-Switch at home,,,,,,,,,,,,,d
12,24,711,A,36.38938313003311,67.94397638701803,1.8194691565016552,1.067261485365671,A,710.3741999599151,Correct,sub_012_day_24_data.csv,1,600,,Button-Switch at home,,,,,,,,,,,,,k
12,24,712,A,26.65833878702732,38.37125032849832,1.332916939351366,0.6027341907053263,A,660.2797000086866,Correct,sub_012_day_24_data.csv,1,600,,Button-Switch at home,,,,,,,,,,,,,k
12,24,713,A,51.7441096581532,75.64174542050523,2.5872054829076596,1.1881777585888431,A,631.9082999834791,Correct,sub_012_day_24_data.csv,1,600,,Button-Switch at home,,,,,,,,,,,,,k
12,24,714,A,16.178602699704253,39.99374737510848,0.8089301349852127,0.6282203147158344,A,791.5041000233032,Correct,sub_012_day_24_data.csv,1,600,,Button-Switch at home,,,,,,,,,,,,,k
12,24,715,A,50.89626305399459,73.73986152577044,2.5448131526997293,1.1583030362304452,A,754.3553999857977,Correct,sub_012_day_24_data.csv,1,600,,Button-Switch at home,,,,,,,,,,,,,k
12,24,716,A,42.44775461241901,70.6085737040926,2.1223877306209507,1.109116882146154,A,1253.6092000082135,Correct,sub_012_day_24_data.csv,1,600,,Button-Switch at home,,,,,,,,,,,,,k
12,24,717,B,49.45732586637024,35.47811344219657,2.472866293318512,0.5572889027661502,B,739.6726000006311,Correct,sub_012_day_24_data.csv,1,600,,Button-Switch at home,,,,,,,,,,,,,d
12,24,718,B,49.06823170627899,23.11293111497241,2.4534115853139498,0.3630570729686214,B,496.8342999927699,Correct,sub_012_day_24_data.csv,1,600,,Button-Switch at home,,,,,,,,,,,,,d
12,24,719,A,32.45278913784922,46.15646885667107,1.622639456892461,0.7250241173788196,A,636.9896000251174,Correct,sub_012_day_24_data.csv,1,600,,Button-Switch at home,,,,,,,,,,,,,k
12,24,720,A,18.788792283329176,46.63341143730046,0.9394396141664588,0.7325159139162668,A,559.7781999967992,Correct,sub_012_day_24_data.csv,1,600,,Button-Switch at home,,,,,,,,,,,,,k
12,24,721,B,52.777050152616994,33.261506495105124,2.6388525076308498,0.5224705222617573,B,442.14699999429286,Correct,sub_012_day_24_data.csv,1,600,,Button-Switch at home,,,,,,,,,,,,,d
12,24,722,B,46.19047380730138,23.92426476850284,2.309523690365069,0.3758014721963282,B,2239.5378000219353,Correct,sub_012_day_24_data.csv,1,600,,Button-Switch at home,,,,,,,,,,,,,d
12,24,723,A,30.43107291658508,42.20877398516491,1.5215536458292542,0.6630138713441303,A,554.9736000248231,Correct,sub_012_day_24_data.csv,1,600,,Button-Switch at home,,,,,,,,,,,,,k
12,24,724,B,64.06295076193284,50.64212794528678,3.203147538096642,0.7954846855753366,B,503.6720999632962,Correct,sub_012_day_24_data.csv,1,600,,Button-Switch at home,,,,,,,,,,,,,d
12,24,725,B,35.868166896820554,18.94570203912112,1.7934083448410276,0.2975983917160203,B,1304.232799971942,Correct,sub_012_day_24_data.csv,1,600,,Button-Switch at home,,,,,,,,,,,,,d
12,24,726,B,49.03417025184296,27.538628833664824,2.451708512592148,0.4325757701688873,B,775.2978000207804,Correct,sub_012_day_24_data.csv,1,600,,Button-Switch at home,,,,,,,,,,,,,d
12,24,727,A,67.50854678844925,84.33696244819626,3.3754273394224628,1.324761908266658,A,472.9251000098884,Correct,sub_012_day_24_data.csv,1,600,,Button-Switch at home,,,,,,,,,,,,,k
12,24,728,A,49.47475779318161,73.60014098336747,2.4737378896590805,1.1561083110826014,A,537.3045000014827,Correct,sub_012_day_24_data.csv,1,600,,Button-Switch at home,,,,,,,,,,,,,k
12,24,729,A,30.90324235059319,51.570618113642254,1.5451621175296597,0.8100693750345161,A,715.9258000319824,Correct,sub_012_day_24_data.csv,1,600,,Button-Switch at home,,,,,,,,,,,,,k
12,24,730,A,28.375307555468915,46.95310589643084,1.4187653777734457,0.7375376627372536,A,609.2839000048116,Correct,sub_012_day_24_data.csv,1,600,,Button-Switch at home,,,,,,,,,,,,,k
12,24,731,A,30.742418562055512,55.6738319162958,1.5371209281027758,0.8745225067271392,A,425.1984999864362,Correct,sub_012_day_24_data.csv,1,600,,Button-Switch at home,,,,,,,,,,,,,k
12,24,732,B,80.76459239419036,57.82857463286887,4.038229619709518,0.9083691261709496,B,902.2958000423388,Correct,sub_012_day_24_data.csv,1,600,,Button-Switch at home,,,,,,,,,,,,,d
12,24,733,A,35.4265911252934,45.71444460036778,1.7713295562646698,0.718080816597265,A,1548.3120999997482,Correct,sub_012_day_24_data.csv,1,600,,Button-Switch at home,,,,,,,,,,,,,k
12,24,734,B,41.08511766691744,15.242535241398656,2.054255883345872,0.2394291836823077,B,1705.645199981518,Correct,sub_012_day_24_data.csv,1,600,,Button-Switch at home,,,,,,,,,,,,,d
12,24,735,A,66.47967244236247,86.55399549544424,3.3239836221181234,1.3595869819366584,A,1273.315400001593,Correct,sub_012_day_24_data.csv,1,600,,Button-Switch at home,,,,,,,,,,,,,k
12,24,736,A,23.07124693642951,43.89531601677956,1.1535623468214755,0.6895060116265852,A,485.3566999663599,Correct,sub_012_day_24_data.csv,1,600,,Button-Switch at home,,,,,,,,,,,,,k
12,24,737,A,38.881721473696054,62.99169266066687,1.944086073684803,0.9894711944996856,A,1284.5043999841437,Correct,sub_012_day_24_data.csv,1,600,,Button-Switch at home,,,,,,,,,,,,,k
12,24,738,A,47.98553939770103,72.37306917678028,2.3992769698850513,1.136833512217594,A,659.3206999823451,Correct,sub_012_day_24_data.csv,1,600,,Button-Switch at home,,,,,,,,,,,,,k
12,24,739,A,20.244067450575617,44.417599554351064,1.012203372528781,0.697710022250213,A,449.2189000011422,Correct,sub_012_day_24_data.csv,1,600,,Button-Switch at home,,,,,,,,,,,,,k
12,24,740,A,40.55934925536561,52.53066396418416,2.0279674627682804,0.8251497399903753,A,894.8414999758825,Correct,sub_012_day_24_data.csv,1,600,,Button-Switch at home,,,,,,,,,,,,,k
12,24,741,B,37.79310565394484,23.726232782741235,1.889655282697242,0.3726907930381059,A,628.4902999759652,Incorrect,sub_012_day_24_data.csv,0,600,,Button-Switch at home,,,,,,,,,,,,,k
12,24,742,B,83.03185124847666,67.9662810295989,4.151592562423833,1.067611845872036,B,825.7932999986224,Correct,sub_012_day_24_data.csv,1,600,,Button-Switch at home,,,,,,,,,,,,,d
12,24,743,B,56.53202258549575,44.06533315407287,2.8266011292747875,0.6921766345741104,B,556.6263000364415,Correct,sub_012_day_24_data.csv,1,600,,Button-Switch at home,,,,,,,,,,,,,d
12,24,744,B,50.56520537407068,41.90449079487672,2.528260268703534,0.6582342021680291,B,454.5955000212416,Correct,sub_012_day_24_data.csv,1,600,,Button-Switch at home,,,,,,,,,,,,,d
12,24,745,B,70.46477822537797,53.49508677494257,3.5232389112688987,0.8402988580765404,B,462.850600015372,Correct,sub_012_day_24_data.csv,1,600,,Button-Switch at home,,,,,,,,,,,,,d
12,24,746,B,46.88707002222119,25.471591868466405,2.3443535011110597,0.4001068294460578,B,1270.7758999895304,Correct,sub_012_day_24_data.csv,1,600,,Button-Switch at home,,,,,,,,,,,,,d
12,24,747,B,33.90984816802644,20.796676441381724,1.695492408401322,0.3266734296366437,B,1121.3185000233352,Correct,sub_012_day_24_data.csv,1,600,,Button-Switch at home,,,,,,,,,,,,,d
12,24,748,B,60.63256555664156,33.64448779979537,3.031628277832078,0.5284863785281428,B,415.0341000058688,Correct,sub_012_day_24_data.csv,1,600,,Button-Switch at home,,,,,,,,,,,,,d
12,24,749,A,63.05668859073155,82.4421912515482,3.1528344295365773,1.2949989119085428,A,1361.5461000008509,Correct,sub_012_day_24_data.csv,1,600,,Button-Switch at home,,,,,,,,,,,,,k
12,24,750,B,40.2004682604352,23.046920702234505,2.01002341302176,0.3620201838300322,B,486.9258999824524,Correct,sub_012_day_24_data.csv,1,600,,Button-Switch at home,,,,,,,,,,,,,d
12,24,751,B,47.59957853391919,23.881969914006262,2.3799789266959595,0.3751371061754728,B,372.42560001323,Correct,sub_012_day_24_data.csv,1,600,,Button-Switch at home,,,,,,,,,,,,,d
12,24,752,B,75.07767344850396,46.8595354571742,3.753883672425198,0.7360678617144446,B,2868.214599962812,Correct,sub_012_day_24_data.csv,1,600,,Button-Switch at home,,,,,,,,,,,,,d
12,24,753,B,86.07068529951738,68.19239299380175,4.303534264975869,1.0711636043001782,B,1409.6112999832258,Correct,sub_012_day_24_data.csv,1,600,,Button-Switch at home,,,,,,,,,,,,,d
12,24,754,B,83.10112641302635,54.85770620915607,4.155056320651317,0.8617028340973595,B,1656.3435000134632,Correct,sub_012_day_24_data.csv,1,600,,Button-Switch at home,,,,,,,,,,,,,d
12,24,755,B,49.22712940511724,29.19999752467504,2.461356470255862,0.4586724885417962,B,912.282100005541,Correct,sub_012_day_24_data.csv,1,600,,Button-Switch at home,,,,,,,,,,,,,d
12,24,756,B,69.87320467563505,50.120386771512585,3.493660233781753,0.7872891943823148,B,825.212299998384,Correct,sub_012_day_24_data.csv,1,600,,Button-Switch at home,,,,,,,,,,,,,d
12,24,757,A,26.002263234118473,52.1183858109752,1.3001131617059236,0.818673689903591,A,553.1682999571785,Correct,sub_012_day_24_data.csv,1,600,,Button-Switch at home,,,,,,,,,,,,,k
12,24,758,B,45.356299227523394,24.52212582288989,2.2678149613761693,0.3851926516779772,B,520.619600021746,Correct,sub_012_day_24_data.csv,1,600,,Button-Switch at home,,,,,,,,,,,,,d
12,24,759,B,49.198628832077446,37.7953571309871,2.459931441603872,0.5936880815125584,B,529.114999982994,Correct,sub_012_day_24_data.csv,1,600,,Button-Switch at home,,,,,,,,,,,,,d
12,24,760,A,28.760875499114533,56.42723310136961,1.4380437749557269,0.8863569048683079,A,1495.8443000214174,Correct,sub_012_day_24_data.csv,1,600,,Button-Switch at home,,,,,,,,,,,,,k
12,24,761,A,36.49433659689209,51.94535141696396,1.8247168298446044,0.8159556719983706,A,464.7307000122965,Correct,sub_012_day_24_data.csv,1,600,,Button-Switch at home,,,,,,,,,,,,,k
12,24,762,A,54.35960581973701,66.56788928145961,2.7179802909868505,1.0456459596580612,A,602.3267999989912,Correct,sub_012_day_24_data.csv,1,600,,Button-Switch at home,,,,,,,,,,,,,k
12,24,763,A,53.23574900531331,62.24891512419011,2.6617874502656655,0.9778036722404512,B,1093.1241000071168,Incorrect,sub_012_day_24_data.csv,0,600,,Button-Switch at home,,,,,,,,,,,,,d
12,24,764,A,59.781329328842915,86.41608175082797,2.9890664664421456,1.3574206379020808,A,625.2438999945298,Correct,sub_012_day_24_data.csv,1,600,,Button-Switch at home,,,,,,,,,,,,,k
12,24,765,B,75.73168694486435,63.71380664328528,3.7865843472432177,1.000814134413928,B,633.1990999751724,Correct,sub_012_day_24_data.csv,1,600,,Button-Switch at home,,,,,,,,,,,,,d
12,24,766,B,41.95736228565034,30.241809269947257,2.097868114282517,0.47503722916865,B,555.9399999910966,Correct,sub_012_day_24_data.csv,1,600,,Button-Switch at home,,,,,,,,,,,,,d
12,24,767,B,79.90437063005015,57.82023160089027,3.995218531502508,0.908238074131086,B,567.2595999785699,Correct,sub_012_day_24_data.csv,1,600,,Button-Switch at home,,,,,,,,,,,,,d
12,24,768,A,51.78679630326836,65.0463993355389,2.5893398151634184,1.0217464514749848,A,403.9372999686748,Correct,sub_012_day_24_data.csv,1,600,,Button-Switch at home,,,,,,,,,,,,,k
12,24,769,A,35.37080372367802,48.29221715020246,1.7685401861839012,0.7585723731231953,A,530.5536999949254,Correct,sub_012_day_24_data.csv,1,600,,Button-Switch at home,,,,,,,,,,,,,k
12,24,770,B,76.97349881716985,60.7416514876964,3.848674940858493,0.9541276304032928,B,1613.5410999995656,Correct,sub_012_day_24_data.csv,1,600,,Button-Switch at home,,,,,,,,,,,,,d
12,24,771,B,69.29728760904347,56.03474766030028,3.4648643804521733,0.880191757976786,B,499.42349997581914,Correct,sub_012_day_24_data.csv,1,600,,Button-Switch at home,,,,,,,,,,,,,d
12,24,772,B,62.4955130732128,54.07044170071576,3.12477565366064,0.8493365121166192,B,1124.2644999874756,Correct,sub_012_day_24_data.csv,1,600,,Button-Switch at home,,,,,,,,,,,,,d
12,24,773,B,34.93818102024693,16.203026674258485,1.7469090510123464,0.2545165478288496,B,928.0886999913492,Correct,sub_012_day_24_data.csv,1,600,,Button-Switch at home,,,,,,,,,,,,,d
12,24,774,A,42.75989388390456,57.610109745032965,2.137994694195228,0.9049374877374864,A,906.3178000506014,Correct,sub_012_day_24_data.csv,1,600,,Button-Switch at home,,,,,,,,,,,,,k
12,24,775,A,51.80464340804387,76.74820222045942,2.590232170402194,1.205557941360096,A,698.7373000010848,Correct,sub_012_day_24_data.csv,1,600,,Button-Switch at home,,,,,,,,,,,,,k
12,24,776,A,20.426652612872154,44.67557710947359,1.0213326306436077,0.7017623242100328,A,562.619199976325,Correct,sub_012_day_24_data.csv,1,600,,Button-Switch at home,,,,,,,,,,,,,k
12,24,777,A,20.86638500458707,36.78989478423722,1.0433192502293536,0.5778943159025054,A,476.9504999858327,Correct,sub_012_day_24_data.csv,1,600,,Button-Switch at home,,,,,,,,,,,,,k
12,24,778,B,73.32532718919208,51.783177522943944,3.666266359459604,0.8134082504280838,B,591.4612000342458,Correct,sub_012_day_24_data.csv,1,600,,Button-Switch at home,,,,,,,,,,,,,d
12,24,779,A,38.63843174912395,54.69362860359831,1.9319215874561977,0.8591255090961653,A,617.5189999630675,Correct,sub_012_day_24_data.csv,1,600,,Button-Switch at home,,,,,,,,,,,,,k
12,24,780,B,75.35525401109713,53.90911247809181,3.7677627005548566,0.8468023586135953,B,710.5264999554493,Correct,sub_012_day_24_data.csv,1,600,,Button-Switch at home,,,,,,,,,,,,,d
12,24,781,B,47.03783365682092,19.69351061794087,2.351891682841046,0.3093449414035781,B,672.0190999913029,Correct,sub_012_day_24_data.csv,1,600,,Button-Switch at home,,,,,,,,,,,,,d
12,24,782,B,76.89655003444136,57.50232206942175,3.844827501722068,0.903244362888248,B,794.1558999591507,Correct,sub_012_day_24_data.csv,1,600,,Button-Switch at home,,,,,,,,,,,,,d
12,24,783,A,44.91655434073353,55.811127412597195,2.245827717036677,0.8766791393398964,B,714.1183000057936,Incorrect,sub_012_day_24_data.csv,0,600,,Button-Switch at home,,,,,,,,,,,,,d
12,24,784,B,69.6366824611473,45.44502528896159,3.4818341230573653,0.7138487879500204,B,365.6747000059113,Correct,sub_012_day_24_data.csv,1,600,,Button-Switch at home,,,,,,,,,,,,,d
12,24,785,B,63.18252070993039,34.932664204438595,3.159126035496519,0.5487210061749171,B,687.7213999978267,Correct,sub_012_day_24_data.csv,1,600,,Button-Switch at home,,,,,,,,,,,,,d
12,24,786,A,66.26558120045956,81.60277604361785,3.3132790600229782,1.281813408655815,A,759.3371999682859,Correct,sub_012_day_24_data.csv,1,600,,Button-Switch at home,,,,,,,,,,,,,k
12,24,787,B,33.137698886123644,16.062340347224822,1.6568849443061822,0.2523066521715021,B,1442.7339999820106,Correct,sub_012_day_24_data.csv,1,600,,Button-Switch at home,,,,,,,,,,,,,d
12,24,788,B,62.62359818030338,41.17185320117552,3.1311799090151693,0.646725957757452,B,849.2714999592863,Correct,sub_012_day_24_data.csv,1,600,,Button-Switch at home,,,,,,,,,,,,,d
12,24,789,A,37.07817140918406,59.76097749048731,1.8539085704592029,0.9387232392772996,A,558.6303999880329,Correct,sub_012_day_24_data.csv,1,600,,Button-Switch at home,,,,,,,,,,,,,k
12,24,790,A,40.91055206601242,49.03452768413433,2.0455276033006213,0.7702325597236087,A,395.0588000006974,Correct,sub_012_day_24_data.csv,1,600,,Button-Switch at home,,,,,,,,,,,,,k
12,24,791,A,31.438399512509207,60.77486557650373,1.5719199756254605,0.9546493560902566,A,718.1755999918096,Correct,sub_012_day_24_data.csv,1,600,,Button-Switch at home,,,,,,,,,,,,,k
12,24,792,B,61.4701635656244,41.800402646190136,3.07350817828122,0.6565991893518314,A,438.9394000172615,Incorrect,sub_012_day_24_data.csv,0,600,,Button-Switch at home,,,,,,,,,,,,,k
12,24,793,B,34.28888431223967,20.41659329540513,1.7144442156119837,0.3207030975408769,B,486.32810002891347,Correct,sub_012_day_24_data.csv,1,600,,Button-Switch at home,,,,,,,,,,,,,d
12,24,794,A,24.60691291070369,51.793237944817555,1.2303456455351849,0.8135662791653347,A,443.100799981039,Correct,sub_012_day_24_data.csv,1,600,,Button-Switch at home,,,,,,,,,,,,,k
12,24,795,B,46.4416212655135,36.39303968217514,2.3220810632756748,0.5716605305366164,B,736.7793000303209,Correct,sub_012_day_24_data.csv,1,600,,Button-Switch at home,,,,,,,,,,,,,d
12,24,796,A,37.65512220128264,67.05957691643975,1.882756110064132,1.053369370967634,A,575.5395999876782,Correct,sub_012_day_24_data.csv,1,600,,Button-Switch at home,,,,,,,,,,,,,k
12,24,797,A,30.447679869098582,55.29738981876426,1.5223839934549293,0.868609368086604,A,545.1385999913327,Correct,sub_012_day_24_data.csv,1,600,,Button-Switch at home,,,,,,,,,,,,,k
12,24,798,B,46.736515295574534,26.772699603538364,2.3368257647787267,0.4205445819562123,B,590.5803000205196,Correct,sub_012_day_24_data.csv,1,600,,Button-Switch at home,,,,,,,,,,,,,d
12,24,799,B,69.2921416155348,36.03939191882026,3.46460708077674,0.5661054444600453,B,949.4638000032865,Correct,sub_012_day_24_data.csv,1,600,,Button-Switch at home,,,,,,,,,,,,,d
12,24,800,B,46.43783781687463,25.512620869058154,2.3218918908437316,0.4007513114802737,B,476.5828999807127,Correct,sub_012_day_24_data.csv,1,600,,Button-Switch at home,,,,,,,,,,,,,d
12,24,801,B,53.46044525500653,28.34994542980601,2.673022262750327,0.4453199014597503,B,587.3279999941587,Correct,sub_012_day_24_data.csv,1,600,,Button-Switch at home,,,,,,,,,,,,,d
12,24,802,A,42.208569362232296,64.02788987160508,2.110428468111615,1.005747742227454,A,630.7915999786928,Correct,sub_012_day_24_data.csv,1,600,,Button-Switch at home,,,,,,,,,,,,,k
12,24,803,A,53.91068981067587,61.98851135600416,2.695534490533794,0.9737132594149508,B,1573.5327000147663,Incorrect,sub_012_day_24_data.csv,0,600,,Button-Switch at home,,,,,,,,,,,,,d
12,24,804,A,52.338962131619155,73.92219218121522,2.6169481065809577,1.161167079468793,A,980.7319000246936,Correct,sub_012_day_24_data.csv,1,600,,Button-Switch at home,,,,,,,,,,,,,k
12,24,805,A,41.04041965906349,49.37691306233132,2.0520209829531746,0.7756107366678098,A,1040.3618999989703,Correct,sub_012_day_24_data.csv,1,600,,Button-Switch at home,,,,,,,,,,,,,k
12,24,806,A,42.63447331866246,56.641785272496456,2.131723665933123,0.889727082491427,A,986.4897000370548,Correct,sub_012_day_24_data.csv,1,600,,Button-Switch at home,,,,,,,,,,,,,k
12,24,807,B,75.9798835207306,63.86688773216683,3.79899417603653,1.003218726535097,B,983.6572000058368,Correct,sub_012_day_24_data.csv,1,600,,Button-Switch at home,,,,,,,,,,,,,d
12,24,808,B,60.4591486376947,30.488931102944058,3.022957431884735,0.4789190098440719,B,653.6125999991782,Correct,sub_012_day_24_data.csv,1,600,,Button-Switch at home,,,,,,,,,,,,,d
12,24,809,B,47.18617393416599,18.792548099215292,2.3593086967082995,0.2951926552536379,B,1007.800799969118,Correct,sub_012_day_24_data.csv,1,600,,Button-Switch at home,,,,,,,,,,,,,d
12,24,810,A,46.015642845118016,68.00391621999117,2.3007821422559007,1.0682030180603002,A,519.9698000214994,Correct,sub_012_day_24_data.csv,1,600,,Button-Switch at home,,,,,,,,,,,,,k
12,24,811,A,51.50887467554282,61.41650047330931,2.575443733777141,0.964728133480713,A,846.9473000150174,Correct,sub_012_day_24_data.csv,1,600,,Button-Switch at home,,,,,,,,,,,,,k
12,24,812,A,45.77819590476695,64.45598603120418,2.288909795238348,1.0124722609775867,A,1942.76850001188,Correct,sub_012_day_24_data.csv,1,600,,Button-Switch at home,,,,,,,,,,,,,k
12,24,813,A,23.453923571689355,34.51990367584348,1.1726961785844678,0.5422373789532858,A,469.1031000111252,Correct,sub_012_day_24_data.csv,1,600,,Button-Switch at home,,,,,,,,,,,,,k
12,24,814,B,58.90703098825487,32.454769933401366,2.9453515494127434,0.5097983339836031,B,631.1107000219636,Correct,sub_012_day_24_data.csv,1,600,,Button-Switch at home,,,,,,,,,,,,,d
12,24,815,B,70.82644724439442,60.963998308863495,3.541322362219721,0.9576202461029306,B,916.2240999867208,Correct,sub_012_day_24_data.csv,1,600,,Button-Switch at home,,,,,,,,,,,,,d
12,24,816,A,27.894970683597975,45.371770871327115,1.3947485341798989,0.7126981102486032,A,836.5425000083633,Correct,sub_012_day_24_data.csv,1,600,,Button-Switch at home,,,,,,,,,,,,,k
12,24,817,A,51.90735288374145,64.40948661928547,2.595367644187073,1.0117418499231867,A,641.4638999849558,Correct,sub_012_day_24_data.csv,1,600,,Button-Switch at home,,,,,,,,,,,,,k
12,24,818,A,22.53369903172784,35.984815832190336,1.126684951586392,0.5652481652959541,A,466.03390004020184,Correct,sub_012_day_24_data.csv,1,600,,Button-Switch at home,,,,,,,,,,,,,k
12,24,819,A,40.05144015289625,70.83264026723175,2.0025720076448126,1.1126365114895191,A,735.016499995254,Correct,sub_012_day_24_data.csv,1,600,,Button-Switch at home,,,,,,,,,,,,,k
12,24,820,A,37.56493487973252,62.8649707689685,1.8782467439866255,0.9874806516796426,A,1544.102399959229,Correct,sub_012_day_24_data.csv,1,600,,Button-Switch at home,,,,,,,,,,,,,k
12,24,821,B,46.10810275550913,17.239637325357073,2.3054051377754563,0.2707995898594708,B,1168.289499997627,Correct,sub_012_day_24_data.csv,1,600,,Button-Switch at home,,,,,,,,,,,,,d
12,24,822,A,38.91047354205202,67.04290957013406,1.9455236771026008,1.05310756090409,A,703.9039999945089,Correct,sub_012_day_24_data.csv,1,600,,Button-Switch at home,,,,,,,,,,,,,k
12,24,823,A,38.99541733836704,52.47601319778009,1.949770866918352,0.8242912877591348,A,679.9664999707602,Correct,sub_012_day_24_data.csv,1,600,,Button-Switch at home,,,,,,,,,,,,,k
12,24,824,B,44.245955154604246,18.76047206312836,2.2122977577302123,0.2946888060570031,B,908.7791999918408,Correct,sub_012_day_24_data.csv,1,600,,Button-Switch at home,,,,,,,,,,,,,d
12,24,825,B,50.77396111239984,26.079069387980596,2.538698055619992,0.4096490640086914,B,651.2227999628522,Correct,sub_012_day_24_data.csv,1,600,,Button-Switch at home,,,,,,,,,,,,,d
12,24,826,A,25.65522953716227,56.08197323115354,1.2827614768581137,0.8809335755090569,A,1575.1103999791667,Correct,sub_012_day_24_data.csv,1,600,,Button-Switch at home,,,,,,,,,,,,,k
12,24,827,A,23.86273044479239,54.532563830838534,1.1931365222396195,0.856595509561894,A,458.8416999904439,Correct,sub_012_day_24_data.csv,1,600,,Button-Switch at home,,,,,,,,,,,,,k
12,24,828,A,66.98073531832979,84.4377397069505,3.3490367659164892,1.3263449137454142,A,849.5321999653243,Correct,sub_012_day_24_data.csv,1,600,,Button-Switch at home,,,,,,,,,,,,,k
12,24,829,A,62.93548682877401,82.71551688434235,3.1467743414387006,1.299292300908662,A,2671.4403000078164,Correct,sub_012_day_24_data.csv,1,600,,Button-Switch at home,,,,,,,,,,,,,k
12,24,830,B,60.23385065378776,48.1338829259514,3.011692532689388,0.7560852649446004,A,1094.8184999870136,Incorrect,sub_012_day_24_data.csv,0,600,,Button-Switch at home,,,,,,,,,,,,,k
12,24,831,A,68.45538324997925,83.38245399327528,3.4227691624989625,1.3097685245178128,A,449.5456000440754,Correct,sub_012_day_24_data.csv,1,600,,Button-Switch at home,,,,,,,,,,,,,k
12,24,832,A,63.778586822323824,80.21078179118034,3.188929341116191,1.2599480140693304,A,461.0569999786094,Correct,sub_012_day_24_data.csv,1,600,,Button-Switch at home,,,,,,,,,,,,,k
12,24,833,B,53.50458420991458,29.31998235318141,2.675229210495729,0.4605572058206854,B,487.4775999924168,Correct,sub_012_day_24_data.csv,1,600,,Button-Switch at home,,,,,,,,,,,,,d
12,24,834,A,60.332446675191214,75.95521088119602,3.016622333759561,1.1931016625311448,A,411.92230000160635,Correct,sub_012_day_24_data.csv,1,600,,Button-Switch at home,,,,,,,,,,,,,k
12,24,835,B,58.77537736554657,49.04732684443131,2.9387688682773283,0.7704336084634142,A,448.3836999861523,Incorrect,sub_012_day_24_data.csv,0,600,,Button-Switch at home,,,,,,,,,,,,,k
12,24,836,A,45.839674215455574,74.83311437045643,2.2919837107727785,1.1754758117573536,A,839.0801000059582,Correct,sub_012_day_24_data.csv,1,600,,Button-Switch at home,,,,,,,,,,,,,k
12,24,837,B,84.6997248872139,67.60379929538018,4.234986244360695,1.0619179961056262,B,751.7306999652646,Correct,sub_012_day_24_data.csv,1,600,,Button-Switch at home,,,,,,,,,,,,,d
12,24,838,B,44.564464524053605,30.99110879148759,2.2282232262026804,0.4868071985296973,B,1106.2538000405766,Correct,sub_012_day_24_data.csv,1,600,,Button-Switch at home,,,,,,,,,,,,,d
12,24,839,A,53.43838308005226,77.8158869262519,2.6719191540026133,1.2223290935004352,A,880.5960000026971,Correct,sub_012_day_24_data.csv,1,600,,Button-Switch at home,,,,,,,,,,,,,k
12,24,840,A,23.746881269332967,50.52494836898979,1.1873440634666483,0.7936440330951096,A,634.465100010857,Correct,sub_012_day_24_data.csv,1,600,,Button-Switch at home,,,,,,,,,,,,,k
12,24,841,B,80.63974458240432,58.613598987437776,4.031987229120216,0.9207002598969632,B,759.218699997291,Correct,sub_012_day_24_data.csv,1,600,,Button-Switch at home,,,,,,,,,,,,,d
12,24,842,A,19.936039541102595,39.838991877804894,0.9968019770551296,0.6257894210486765,A,463.6700000264682,Correct,sub_012_day_24_data.csv,1,600,,Button-Switch at home,,,,,,,,,,,,,k
12,24,843,B,51.76867573983411,31.89238003271095,2.588433786991706,0.5009643340812926,B,1620.9584000171162,Correct,sub_012_day_24_data.csv,1,600,,Button-Switch at home,,,,,,,,,,,,,d
12,24,844,A,19.786829678376023,51.166227531450815,0.9893414839188012,0.8037172226235484,A,856.5287999808788,Correct,sub_012_day_24_data.csv,1,600,,Button-Switch at home,,,,,,,,,,,,,k
12,24,845,A,34.97732949980321,67.31838101725988,1.7488664749901606,1.057434656276911,A,511.29220001166686,Correct,sub_012_day_24_data.csv,1,600,,Button-Switch at home,,,,,,,,,,,,,k
12,24,846,B,45.959083400666074,24.035933489073734,2.2979541700333037,0.3775555603572347,B,602.4730999488384,Correct,sub_012_day_24_data.csv,1,600,,Button-Switch at home,,,,,,,,,,,,,d
12,24,847,A,37.73540964229761,65.34577422616599,1.8867704821148803,1.0264490212603017,A,980.9986000182108,Correct,sub_012_day_24_data.csv,1,600,,Button-Switch at home,,,,,,,,,,,,,k
12,24,848,B,66.65977114146663,52.63613867210428,3.3329885570733317,0.8268065328280821,B,579.2491000029258,Correct,sub_012_day_24_data.csv,1,600,,Button-Switch at home,,,,,,,,,,,,,d
12,24,849,A,50.69665780584211,77.84859713539683,2.5348328902921056,1.2228429042641706,A,452.43220002157614,Correct,sub_012_day_24_data.csv,1,600,,Button-Switch at home,,,,,,,,,,,,,k
12,24,850,A,59.7970031512733,84.97281027696476,2.9898501575636653,1.334749782604959,A,903.1134999822824,Correct,sub_012_day_24_data.csv,1,600,,Button-Switch at home,,,,,,,,,,,,,k
12,24,851,A,65.7064383170613,80.6576776207553,3.2853219158530647,1.2669678373448936,A,1469.156600011047,Correct,sub_012_day_24_data.csv,1,600,,Button-Switch at home,,,,,,,,,,,,,k
12,24,852,A,29.888602969499644,48.58724834394617,1.494430148474982,0.7632067122774205,A,1289.1529999906195,Correct,sub_012_day_24_data.csv,1,600,,Button-Switch at home,,,,,,,,,,,,,k
12,24,853,A,19.585119810950317,51.12989174699953,0.979255990547516,0.8031464614560756,A,438.3676000288688,Correct,sub_012_day_24_data.csv,1,600,,Button-Switch at home,,,,,,,,,,,,,k
12,24,854,A,64.68054327584582,76.40532231405729,3.234027163792291,1.2001719963850133,A,838.2471000077203,Correct,sub_012_day_24_data.csv,1,600,,Button-Switch at home,,,,,,,,,,,,,k
12,24,855,A,55.86930300614073,72.47156491073078,2.7934651503070365,1.1383806795885385,A,498.4330000006594,Correct,sub_012_day_24_data.csv,1,600,,Button-Switch at home,,,,,,,,,,,,,k
12,24,856,A,35.45914101078608,56.24040824681887,1.772957050539304,0.8834222669154849,A,629.68929996714,Correct,sub_012_day_24_data.csv,1,600,,Button-Switch at home,,,,,,,,,,,,,k
12,24,857,B,85.52598195381952,64.52507664965569,4.276299097690976,1.013557533874383,B,773.0703999986872,Correct,sub_012_day_24_data.csv,1,600,,Button-Switch at home,,,,,,,,,,,,,d
12,24,858,A,36.45840977914656,49.248363670991,1.822920488957328,0.7735914875505188,A,986.8929999647662,Correct,sub_012_day_24_data.csv,1,600,,Button-Switch at home,,,,,,,,,,,,,k
12,24,859,B,37.82803898426182,12.818163664150592,1.8914019492130911,0.2013472439990356,B,924.4413999840616,Correct,sub_012_day_24_data.csv,1,600,,Button-Switch at home,,,,,,,,,,,,,d
12,24,860,A,54.844151344074064,74.86548363749186,2.742207567203703,1.1759842670149565,A,480.1216999767348,Correct,sub_012_day_24_data.csv,1,600,,Button-Switch at home,,,,,,,,,,,,,k
12,24,861,B,76.108869083448,48.74078344764389,3.8054434541724,0.7656184360466453,B,475.5280999816023,Correct,sub_012_day_24_data.csv,1,600,,Button-Switch at home,,,,,,,,,,,,,d
12,24,862,A,16.745663052360936,33.13146671720084,0.8372831526180469,0.5204278622070645,A,443.5929000028409,Correct,sub_012_day_24_data.csv,1,600,,Button-Switch at home,,,,,,,,,,,,,k
12,24,863,A,55.684465962907936,70.10986196698624,2.784223298145397,1.1012831364983922,A,1022.6383000263012,Correct,sub_012_day_24_data.csv,1,600,,Button-Switch at home,,,,,,,,,,,,,k
12,24,864,B,45.73597482139824,19.682006093697392,2.286798741069912,0.3091642287593463,B,591.1968000000343,Correct,sub_012_day_24_data.csv,1,600,,Button-Switch at home,,,,,,,,,,,,,d
12,24,865,A,54.72601345765242,77.72290658387914,2.736300672882621,1.2208685616978023,A,479.94970000581816,Correct,sub_012_day_24_data.csv,1,600,,Button-Switch at home,,,,,,,,,,,,,k
12,24,866,A,49.78175690122072,78.39410315333411,2.4890878450610363,1.2314116927563743,A,487.9085999564268,Correct,sub_012_day_24_data.csv,1,600,,Button-Switch at home,,,,,,,,,,,,,k
12,24,867,A,54.07261460471918,66.9638593183765,2.7036307302359592,1.0518658424531604,A,468.42109999852255,Correct,sub_012_day_24_data.csv,1,600,,Button-Switch at home,,,,,,,,,,,,,k
12,24,868,B,66.44139458046753,43.87282686399211,3.3220697290233767,0.6891527528406727,B,1168.9621999976223,Correct,sub_012_day_24_data.csv,1,600,,Button-Switch at home,,,,,,,,,,,,,d
12,24,869,B,78.86270060812005,57.93736700572255,3.943135030406003,0.910078032767568,B,1551.2690999894403,Correct,sub_012_day_24_data.csv,1,600,,Button-Switch at home,,,,,,,,,,,,,d
12,24,870,A,37.80032395351175,57.25518060838261,1.8900161976755872,0.8993622738962579,A,739.1446999972686,Correct,sub_012_day_24_data.csv,1,600,,Button-Switch at home,,,,,,,,,,,,,k
12,24,871,B,38.699460263384154,20.560671383583905,1.9349730131692076,0.3229662708577054,B,546.3177000056021,Correct,sub_012_day_24_data.csv,1,600,,Button-Switch at home,,,,,,,,,,,,,d
12,24,872,B,62.92640650658834,43.533416734377546,3.146320325329417,0.6838213109919173,B,743.1613000226207,Correct,sub_012_day_24_data.csv,1,600,,Button-Switch at home,,,,,,,,,,,,,d
12,24,873,B,58.70441853576546,31.548398333030583,2.9352209267882734,0.4955610821778667,B,544.79050001828,Correct,sub_012_day_24_data.csv,1,600,,Button-Switch at home,,,,,,,,,,,,,d
12,24,874,B,73.19478565280758,56.0324124553678,3.659739282640379,0.8801550766634835,B,699.1692000301555,Correct,sub_012_day_24_data.csv,1,600,,Button-Switch at home,,,,,,,,,,,,,d
12,24,875,A,63.57968069724524,81.51572650145377,3.1789840348622618,1.2804460376450095,A,719.9544999748468,Correct,sub_012_day_24_data.csv,1,600,,Button-Switch at home,,,,,,,,,,,,,k
12,24,876,B,82.87173933936329,56.97480175835359,4.143586966968164,0.8949580932188924,B,583.1547999987379,Correct,sub_012_day_24_data.csv,1,600,,Button-Switch at home,,,,,,,,,,,,,d
12,24,877,B,54.234512922181025,22.421629630371584,2.711725646109051,0.3521981346414329,B,676.2443999759853,Correct,sub_012_day_24_data.csv,1,600,,Button-Switch at home,,,,,,,,,,,,,d
12,24,878,A,63.3043192382872,72.93386917165984,3.16521596191436,1.1456425379378283,A,938.6387000558898,Correct,sub_012_day_24_data.csv,1,600,,Button-Switch at home,,,,,,,,,,,,,k
12,24,879,A,56.28751783113712,70.44127644908264,2.814375891556856,1.1064889830096287,A,510.44119999278337,Correct,sub_012_day_24_data.csv,1,600,,Button-Switch at home,,,,,,,,,,,,,k
12,24,880,B,72.98772943318725,61.681405403132835,3.649386471659363,0.9688892503878797,B,878.7560999626294,Correct,sub_012_day_24_data.csv,1,600,,Button-Switch at home,,,,,,,,,,,,,d
12,24,881,A,43.08200365054829,50.833980930440696,2.154100182527414,0.7984983052189806,A,630.4517999524251,Correct,sub_012_day_24_data.csv,1,600,,Button-Switch at home,,,,,,,,,,,,,k
12,24,882,B,49.23841887267603,30.037154694671585,2.461920943633802,0.4718225226176021,B,616.609199962113,Correct,sub_012_day_24_data.csv,1,600,,Button-Switch at home,,,,,,,,,,,,,d
12,24,883,A,53.815512953450686,70.36573305329351,2.690775647672534,1.105302350123437,A,635.719700017944,Correct,sub_012_day_24_data.csv,1,600,,Button-Switch at home,,,,,,,,,,,,,k
12,24,884,A,23.610715920785385,49.7374219829297,1.1805357960392693,0.7812735975503372,A,681.4300999976695,Correct,sub_012_day_24_data.csv,1,600,,Button-Switch at home,,,,,,,,,,,,,k
12,24,885,A,54.72059890280157,76.42755700271115,2.7360299451400785,1.2005212580576623,A,670.6200999906287,Correct,sub_012_day_24_data.csv,1,600,,Button-Switch at home,,,,,,,,,,,,,k
12,24,886,B,65.32477226558802,53.548109105873344,3.266238613279401,0.8411317309031818,B,629.8119000275619,Correct,sub_012_day_24_data.csv,1,600,,Button-Switch at home,,,,,,,,,,,,,d
12,24,887,A,58.96300061338045,73.80675320979822,2.9481500306690225,1.1593537683460848,A,1040.9986000158824,Correct,sub_012_day_24_data.csv,1,600,,Button-Switch at home,,,,,,,,,,,,,k
12,24,888,A,22.403583004273074,36.51078070104847,1.1201791502136538,0.5735100021362094,A,1085.7653999701142,Correct,sub_012_day_24_data.csv,1,600,,Button-Switch at home,,,,,,,,,,,,,k
12,24,889,B,45.624550193250386,29.65172756087121,2.2812275096625196,0.4657682473573949,B,497.95889999950305,Correct,sub_012_day_24_data.csv,1,600,,Button-Switch at home,,,,,,,,,,,,,d
12,24,890,B,70.83986342792304,53.1757838061537,3.5419931713961517,0.8352832587714578,B,923.7823999719694,Correct,sub_012_day_24_data.csv,1,600,,Button-Switch at home,,,,,,,,,,,,,d
12,24,891,A,34.10775193408764,63.87886555109411,1.705387596704382,1.003406873674837,A,675.3178999642842,Correct,sub_012_day_24_data.csv,1,600,,Button-Switch at home,,,,,,,,,,,,,k
12,24,892,B,58.177874598145976,38.97966891945153,2.908893729907299,0.6122912075835566,B,724.3434999836609,Correct,sub_012_day_24_data.csv,1,600,,Button-Switch at home,,,,,,,,,,,,,d
12,24,893,A,36.510562335394,55.30566317733635,1.8255281167697,0.8687393256991571,A,716.0648999852128,Correct,sub_012_day_24_data.csv,1,600,,Button-Switch at home,,,,,,,,,,,,,k
12,24,894,B,66.11076414121204,46.434889989098416,3.305538207060602,0.7293975463000092,B,854.6788999810815,Correct,sub_012_day_24_data.csv,1,600,,Button-Switch at home,,,,,,,,,,,,,d
12,24,895,B,55.131528093182105,46.82467778764707,2.7565764046591053,0.7355203187219062,B,621.1045999662019,Correct,sub_012_day_24_data.csv,1,600,,Button-Switch at home,,,,,,,,,,,,,d
12,24,896,B,51.11322225714624,24.122021359139413,2.555661112857312,0.3789078254580423,B,429.5613000285812,Correct,sub_012_day_24_data.csv,1,600,,Button-Switch at home,,,,,,,,,,,,,d
12,24,897,A,16.154721056418204,32.58937037894754,0.8077360528209101,0.5119126328380921,A,932.7539000078104,Correct,sub_012_day_24_data.csv,1,600,,Button-Switch at home,,,,,,,,,,,,,k
12,24,898,B,61.229067756327055,36.24713680516604,3.061453387816353,0.5693686935038692,B,510.5558999930509,Correct,sub_012_day_24_data.csv,1,600,,Button-Switch at home,,,,,,,,,,,,,d
12,24,899,A,35.46832434615683,59.121194474116706,1.7734162173078414,0.9286735511566924,A,602.5171999935992,Correct,sub_012_day_24_data.csv,1,600,,Button-Switch at home,,,,,,,,,,,,,k
12,24,900,A,54.47639575740949,66.60257885128404,2.7238197878704744,1.046190862146644,A,501.8377999658696,Correct,sub_012_day_24_data.csv,1,600,,Button-Switch at home,,,,,,,,,,,,,k
12,24,901,A,36.799153592923865,50.928798751185866,1.8399576796461932,0.7999877000643928,A,703.7255999748595,Correct,sub_012_day_24_data.csv,1,600,,Button-Switch at home,,,,,,,,,,,,,k
12,24,902,A,13.776126733493417,40.99971773316163,0.6888063366746708,0.6440220601487787,A,500.52709999727085,Correct,sub_012_day_24_data.csv,1,600,,Button-Switch at home,,,,,,,,,,,,,k
12,24,903,A,39.61533568500936,58.02373954416279,1.980766784250468,0.9114347694287468,A,658.6005999706686,Correct,sub_012_day_24_data.csv,1,600,,Button-Switch at home,,,,,,,,,,,,,k
12,24,904,A,61.42440959632006,70.38789708321953,3.071220479816003,1.1056505018913845,A,784.6435999963433,Correct,sub_012_day_24_data.csv,1,600,,Button-Switch at home,,,,,,,,,,,,,k
12,24,905,A,20.48089367250467,44.01755972663762,1.0240446836252337,0.6914262113307734,A,498.7279000342824,Correct,sub_012_day_24_data.csv,1,600,,Button-Switch at home,,,,,,,,,,,,,k
12,24,906,A,65.19729735700861,76.90872749162041,3.2598648678504305,1.2080794664230703,A,749.182200001087,Correct,sub_012_day_24_data.csv,1,600,,Button-Switch at home,,,,,,,,,,,,,k
12,24,907,B,66.80027216088712,46.76713664216075,3.340013608044356,0.7346164645222111,B,551.892300019972,Correct,sub_012_day_24_data.csv,1,600,,Button-Switch at home,,,,,,,,,,,,,d
12,24,908,B,80.7695191911917,49.52675920187998,4.038475959559586,0.7779645143236842,B,568.9274999895133,Correct,sub_012_day_24_data.csv,1,600,,Button-Switch at home,,,,,,,,,,,,,d
12,24,909,B,64.39272799110539,47.36334376756503,3.2196363995552697,0.743981664148151,B,501.6897999448702,Correct,sub_012_day_24_data.csv,1,600,,Button-Switch at home,,,,,,,,,,,,,d
12,24,910,B,57.3745690409018,46.01170707307603,2.8687284520450897,0.7227502045995059,B,1069.01520001702,Correct,sub_012_day_24_data.csv,1,600,,Button-Switch at home,,,,,,,,,,,,,d
12,24,911,A,61.80928488071518,76.77666829233226,3.090464244035759,1.2060050853714572,A,700.8645000169054,Correct,sub_012_day_24_data.csv,1,600,,Button-Switch at home,,,,,,,,,,,,,k
12,24,912,A,55.33318809357196,75.98144241162025,2.766659404678598,1.1935137064475103,A,622.3458000458777,Correct,sub_012_day_24_data.csv,1,600,,Button-Switch at home,,,,,,,,,,,,,k
12,24,913,B,87.39522855033763,65.78188408460221,4.369761427516881,1.0332994188974085,B,937.2584000229836,Correct,sub_012_day_24_data.csv,1,600,,Button-Switch at home,,,,,,,,,,,,,d
12,24,914,B,67.20725576055294,41.20595948917964,3.360362788027647,0.647261698076627,B,996.6075000120328,Correct,sub_012_day_24_data.csv,1,600,,Button-Switch at home,,,,,,,,,,,,,d
12,24,915,B,63.62700951223582,46.88713882345484,3.1813504756117914,0.7365014543780526,B,1343.9968000166118,Correct,sub_012_day_24_data.csv,1,600,,Button-Switch at home,,,,,,,,,,,,,d
12,24,916,A,50.902816255158946,59.66297041795048,2.545140812757947,0.937183747781892,A,1556.0333000030369,Correct,sub_012_day_24_data.csv,1,600,,Button-Switch at home,,,,,,,,,,,,,k
12,24,917,A,35.39025908328032,60.8247642244561,1.769512954164016,0.9554331622194128,A,604.7464999719523,Correct,sub_012_day_24_data.csv,1,600,,Button-Switch at home,,,,,,,,,,,,,k
12,24,918,B,54.289734719946864,28.529897887133416,2.714486735997343,0.4481465880494265,B,1296.6821999871172,Correct,sub_012_day_24_data.csv,1,600,,Button-Switch at home,,,,,,,,,,,,,d
12,24,919,B,78.323986191667,65.21213471509046,3.9161993095833503,1.024349816729181,B,977.0091999671422,Correct,sub_012_day_24_data.csv,1,600,,Button-Switch at home,,,,,,,,,,,,,d
12,24,920,A,49.42072640842147,72.20665940397485,2.4710363204210735,1.1342195536189388,A,567.0579000143334,Correct,sub_012_day_24_data.csv,1,600,,Button-Switch at home,,,,,,,,,,,,,k
12,24,921,B,68.56197368605041,47.455114554924286,3.4280986843025203,0.745423196305061,B,430.34399999305606,Correct,sub_012_day_24_data.csv,1,600,,Button-Switch at home,,,,,,,,,,,,,d
12,24,922,B,41.53160060004117,13.974705748969445,2.0765800300020585,0.2195141645852072,B,495.7973000127822,Correct,sub_012_day_24_data.csv,1,600,,Button-Switch at home,,,,,,,,,,,,,d
12,24,923,B,56.05146084487189,48.250415260418954,2.8025730422435946,0.7579157505739451,B,406.13909997045994,Correct,sub_012_day_24_data.csv,1,600,,Button-Switch at home,,,,,,,,,,,,,d
12,24,924,A,11.710113068260494,37.41051880690901,0.5855056534130247,0.5876430552538408,A,454.0208000107668,Correct,sub_012_day_24_data.csv,1,600,,Button-Switch at home,,,,,,,,,,,,,k
12,24,925,A,59.92729546987418,74.647194510162,2.9963647734937093,1.1725553894210663,A,768.9487999887206,Correct,sub_012_day_24_data.csv,1,600,,Button-Switch at home,,,,,,,,,,,,,k
12,24,926,B,67.71680684089338,58.11352212580386,3.385840342044669,0.9128450709232666,B,1236.4465999999084,Correct,sub_012_day_24_data.csv,1,600,,Button-Switch at home,,,,,,,,,,,,,d
12,24,927,B,65.25070423422504,55.08955183157779,3.2625352117112523,0.8653446566181946,B,445.6320999888703,Correct,sub_012_day_24_data.csv,1,600,,Button-Switch at home,,,,,,,,,,,,,d
12,24,928,B,52.91415627224512,44.989313670068555,2.645707813612256,0.706690486579671,B,809.7627999959514,Correct,sub_012_day_24_data.csv,1,600,,Button-Switch at home,,,,,,,,,,,,,d
12,24,929,B,38.12137945935902,18.638155500952244,1.906068972967951,0.2927674619912788,B,481.6982999909669,Correct,sub_012_day_24_data.csv,1,600,,Button-Switch at home,,,,,,,,,,,,,d
12,24,930,A,23.960974427596614,47.37589017962162,1.198048721379831,0.7441787427278805,A,678.3407999901101,Correct,sub_012_day_24_data.csv,1,600,,Button-Switch at home,,,,,,,,,,,,,k
12,24,931,B,59.36184252506727,42.11157118656819,2.9680921262533633,0.6614870133542313,B,635.5294000240974,Correct,sub_012_day_24_data.csv,1,600,,Button-Switch at home,,,,,,,,,,,,,d
12,24,932,A,59.200366526327386,82.30882718350774,2.9600183263163693,1.292904034026499,A,504.5240999897942,Correct,sub_012_day_24_data.csv,1,600,,Button-Switch at home,,,,,,,,,,,,,k
12,24,933,A,19.21631319496092,39.72402134338853,0.960815659748046,0.6239834681171678,A,579.570000001695,Correct,sub_012_day_24_data.csv,1,600,,Button-Switch at home,,,,,,,,,,,,,k
12,24,934,A,38.40871920001522,59.64786863759449,1.920435960000761,0.9369465295707796,A,785.8140000025742,Correct,sub_012_day_24_data.csv,1,600,,Button-Switch at home,,,,,,,,,,,,,k
12,24,935,A,28.894667088543663,56.16236009250546,1.444733354427183,0.8821962893743986,A,1330.071299977135,Correct,sub_012_day_24_data.csv,1,600,,Button-Switch at home,,,,,,,,,,,,,k
12,24,936,B,69.82743292855753,47.30435941690688,3.491371646427877,0.7430551401346291,B,1090.0420999969356,Correct,sub_012_day_24_data.csv,1,600,,Button-Switch at home,,,,,,,,,,,,,d
12,24,937,B,81.82674833641833,66.02919379457622,4.091337416820917,1.037184150737487,B,1043.7214000266977,Correct,sub_012_day_24_data.csv,1,600,,Button-Switch at home,,,,,,,,,,,,,d
12,24,938,A,54.01365210711057,68.41864837091646,2.700682605355529,1.074717615453072,A,1333.7379999575203,Correct,sub_012_day_24_data.csv,1,600,,Button-Switch at home,,,,,,,,,,,,,k
12,24,939,B,64.69590663472405,46.1658030924196,3.2347953317362026,0.7251707392110919,B,721.8167000100948,Correct,sub_012_day_24_data.csv,1,600,,Button-Switch at home,,,,,,,,,,,,,d
12,24,940,A,30.646841262005697,47.39945507731377,1.5323420631002846,0.7445488992752418,A,1389.0522999572568,Correct,sub_012_day_24_data.csv,1,600,,Button-Switch at home,,,,,,,,,,,,,k
12,24,941,A,58.216817627123234,71.49885927818075,2.9108408813561617,1.1231014552419152,A,1416.8006000109017,Correct,sub_012_day_24_data.csv,1,600,,Button-Switch at home,,,,,,,,,,,,,k
12,24,942,B,69.07538999521397,38.92955133612814,3.4537694997606985,0.6115039624256344,B,712.798600026872,Correct,sub_012_day_24_data.csv,1,600,,Button-Switch at home,,,,,,,,,,,,,d
12,24,943,A,50.74329420043877,64.59150782807379,2.5371647100219383,1.0146010323848211,A,586.9649000233039,Correct,sub_012_day_24_data.csv,1,600,,Button-Switch at home,,,,,,,,,,,,,k
12,24,944,B,63.24990322518115,42.89198662450685,3.1624951612590575,0.6737457503871119,B,841.0445000045002,Correct,sub_012_day_24_data.csv,1,600,,Button-Switch at home,,,,,,,,,,,,,d
12,24,945,A,50.288109095538395,68.70137920258063,2.5144054547769197,1.0791587409715695,A,545.8639000426047,Correct,sub_012_day_24_data.csv,1,600,,Button-Switch at home,,,,,,,,,,,,,k
12,24,946,A,34.22164838425726,50.7683758897675,1.7110824192128629,0.7974677836498938,A,599.6241000248119,Correct,sub_012_day_24_data.csv,1,600,,Button-Switch at home,,,,,,,,,,,,,k
12,24,947,A,48.17480651183182,59.0316023613095,2.408740325591591,0.9272662415396192,A,677.6715000160038,Correct,sub_012_day_24_data.csv,1,600,,Button-Switch at home,,,,,,,,,,,,,k
12,24,948,A,34.13009966267354,52.73699667010508,1.7065049831336767,0.8283908065559574,A,541.6311000008136,Correct,sub_012_day_24_data.csv,1,600,,Button-Switch at home,,,,,,,,,,,,,k
12,24,949,A,30.036259594369294,60.59972161246577,1.5018129797184647,0.9518982011365452,A,759.2035999987274,Correct,sub_012_day_24_data.csv,1,600,,Button-Switch at home,,,,,,,,,,,,,k
12,24,950,A,40.0457144812367,61.85636181331493,2.002285724061835,0.971637459252512,A,670.2247000066563,Correct,sub_012_day_24_data.csv,1,600,,Button-Switch at home,,,,,,,,,,,,,k
12,24,951,B,52.316425034526176,42.63106911088472,2.6158212517263086,0.6696472676671709,B,771.7509000212885,Correct,sub_012_day_24_data.csv,1,600,,Button-Switch at home,,,,,,,,,,,,,d
12,24,952,B,83.26878336359977,58.43986736501434,4.1634391681799885,0.9179712899534548,B,577.1186000201851,Correct,sub_012_day_24_data.csv,1,600,,Button-Switch at home,,,,,,,,,,,,,d
12,24,953,A,25.78111821421357,57.8549181579055,1.2890559107106785,0.9087829292945732,A,807.5304999947548,Correct,sub_012_day_24_data.csv,1,600,,Button-Switch at home,,,,,,,,,,,,,k
12,24,954,A,26.871138455749815,43.434714695513435,1.3435569227874908,0.6822709029909682,A,960.155599983409,Correct,sub_012_day_24_data.csv,1,600,,Button-Switch at home,,,,,,,,,,,,,k
12,24,955,B,73.58185683555439,46.623893535986696,3.6790928417777193,0.7323664070720423,B,484.25829998450354,Correct,sub_012_day_24_data.csv,1,600,,Button-Switch at home,,,,,,,,,,,,,d
12,24,956,B,70.30116176438979,49.80423436812872,3.5150580882194897,0.7823230840428874,B,729.1519999853335,Correct,sub_012_day_24_data.csv,1,600,,Button-Switch at home,,,,,,,,,,,,,d
12,24,957,A,44.32320354525826,65.54118492692022,2.2161601772629127,1.0295185253699133,A,415.0342000066303,Correct,sub_012_day_24_data.csv,1,600,,Button-Switch at home,,,,,,,,,,,,,k
12,24,958,A,26.61216931200707,56.79482655709019,1.3306084656003534,0.8921310493683052,A,517.761800030712,Correct,sub_012_day_24_data.csv,1,600,,Button-Switch at home,,,,,,,,,,,,,k
12,24,959,B,64.35205966142561,49.71271256399883,3.217602983071281,0.7808854629053985,B,547.7268000249751,Correct,sub_012_day_24_data.csv,1,600,,Button-Switch at home,,,,,,,,,,,,,d
12,24,960,A,45.29039065323022,59.61261360065176,2.264519532661511,0.9363927447454728,B,1107.739600003697,Incorrect,sub_012_day_24_data.csv,0,600,,Button-Switch at home,,,,,,,,,,,,,d
12,24,961,A,53.9129451132134,72.06063865199113,2.6956472556606697,1.13192586501042,A,498.257500003092,Correct,sub_012_day_24_data.csv,1,600,,Button-Switch at home,,,,,,,,,,,,,k
12,24,962,A,18.009373784112764,43.97271250843413,0.9004686892056383,0.6907217528745633,A,485.0768000469543,Correct,sub_012_day_24_data.csv,1,600,,Button-Switch at home,,,,,,,,,,,,,k
12,24,963,B,58.33360537108667,33.90334468678259,2.916680268554334,0.5325524930005936,B,711.0741999931633,Correct,sub_012_day_24_data.csv,1,600,,Button-Switch at home,,,,,,,,,,,,,d
12,24,964,B,60.52157323738164,50.462306140297635,3.0260786618690823,0.7926600512677908,B,689.228400005959,Correct,sub_012_day_24_data.csv,1,600,,Button-Switch at home,,,,,,,,,,,,,d
12,24,965,B,76.5796506191461,61.532876270986435,3.8289825309573047,0.9665561602359034,B,774.7011999599636,Correct,sub_012_day_24_data.csv,1,600,,Button-Switch at home,,,,,,,,,,,,,d
12,24,966,B,61.71683468045765,30.40353591714595,3.0858417340228823,0.4775776254022956,B,455.1997999660671,Correct,sub_012_day_24_data.csv,1,600,,Button-Switch at home,,,,,,,,,,,,,d
12,24,967,B,41.64014649471616,31.53285628230581,2.082007324735808,0.4953169482159734,B,364.7313000401482,Correct,sub_012_day_24_data.csv,1,600,,Button-Switch at home,,,,,,,,,,,,,d
12,24,968,A,67.40880251200772,88.52158111832921,3.370440125600386,1.39049374462748,A,520.5941000021994,Correct,sub_012_day_24_data.csv,1,600,,Button-Switch at home,,,,,,,,,,,,,k
12,24,969,B,65.94787825470524,56.09970211406572,3.297393912735262,0.8812120601506234,B,553.2997999689542,Correct,sub_012_day_24_data.csv,1,600,,Button-Switch at home,,,,,,,,,,,,,d
12,24,970,B,46.79915536083769,33.10421991956895,2.3399577680418844,0.5199998705106935,B,920.4438999877312,Correct,sub_012_day_24_data.csv,1,600,,Button-Switch at home,,,,,,,,,,,,,d
12,24,971,A,24.24905281942965,50.55593634229053,1.2124526409714824,0.7941307910414659,A,527.332000026945,Correct,sub_012_day_24_data.csv,1,600,,Button-Switch at home,,,,,,,,,,,,,k
12,24,972,A,30.47334466337204,57.007433078271504,1.523667233168602,0.8954706647935476,A,1309.1099000303077,Correct,sub_012_day_24_data.csv,1,600,,Button-Switch at home,,,,,,,,,,,,,k
12,24,973,B,40.31785351355257,17.552116266352122,2.0158926756776285,0.2757079975866287,B,1484.2713000252843,Correct,sub_012_day_24_data.csv,1,600,,Button-Switch at home,,,,,,,,,,,,,d
12,24,974,B,57.141222377664285,44.956881526399926,2.8570611188832142,0.7061810436582234,B,1895.4257000004873,Correct,sub_012_day_24_data.csv,1,600,,Button-Switch at home,,,,,,,,,,,,,d
12,24,975,A,34.19548360130834,67.24824541598196,1.7097741800654171,1.056332968828262,A,811.632799974177,Correct,sub_012_day_24_data.csv,1,600,,Button-Switch at home,,,,,,,,,,,,,k
12,24,976,B,77.8983978084406,45.700228957826035,3.8949198904220306,0.717857517806389,B,463.7061000103131,Correct,sub_012_day_24_data.csv,1,600,,Button-Switch at home,,,,,,,,,,,,,d
12,24,977,B,65.42937694349517,35.32883013300662,3.271468847174759,0.5549439660288765,B,503.42039996758103,Correct,sub_012_day_24_data.csv,1,600,,Button-Switch at home,,,,,,,,,,,,,d
12,24,978,B,71.38035844971681,43.547287588485055,3.5690179224858407,0.6840391938587331,B,1048.4283999539912,Correct,sub_012_day_24_data.csv,1,600,,Button-Switch at home,,,,,,,,,,,,,d
12,24,979,B,60.49882983235731,27.60467880698257,3.024941491617866,0.4336132807236114,B,784.38460000325,Correct,sub_012_day_24_data.csv,1,600,,Button-Switch at home,,,,,,,,,,,,,d
12,24,980,A,29.38387426142184,49.07939755218443,1.469193713071092,0.7709373739627774,A,990.4639999731444,Correct,sub_012_day_24_data.csv,1,600,,Button-Switch at home,,,,,,,,,,,,,k
12,24,981,A,52.793746602336725,60.663477253690864,2.6396873301168364,0.9528996724070335,B,3011.910600005649,Incorrect,sub_012_day_24_data.csv,0,600,,Button-Switch at home,,,,,,,,,,,,,d
12,24,982,B,52.145380953869406,40.05816518125538,2.60726904769347,0.6292321872485918,B,598.822099971585,Correct,sub_012_day_24_data.csv,1,600,,Button-Switch at home,,,,,,,,,,,,,d
12,24,983,B,83.81712238276727,57.192860874844,4.190856119138363,0.8983833578109651,B,712.9190000123344,Correct,sub_012_day_24_data.csv,1,600,,Button-Switch at home,,,,,,,,,,,,,d
12,24,984,B,34.430525010807955,15.573642031763717,1.721526250540398,0.2446301969831305,B,539.8494999972172,Correct,sub_012_day_24_data.csv,1,600,,Button-Switch at home,,,,,,,,,,,,,d
12,24,985,B,59.564564357640975,36.89678031580351,2.9782282178820485,0.579573269906224,B,474.91940000327304,Correct,sub_012_day_24_data.csv,1,600,,Button-Switch at home,,,,,,,,,,,,,d
12,24,986,A,22.861510351763037,44.26099247735876,1.1430755175881515,0.6952500440373169,A,812.4257000163198,Correct,sub_012_day_24_data.csv,1,600,,Button-Switch at home,,,,,,,,,,,,,k
12,24,987,B,60.8298689413106,33.1173550001232,3.04149344706553,0.5202061958735612,B,631.0778000042774,Correct,sub_012_day_24_data.csv,1,600,,Button-Switch at home,,,,,,,,,,,,,d
12,24,988,A,17.048905924715914,35.37430638810456,0.8524452962357957,0.5556583053735188,A,684.1783000272699,Correct,sub_012_day_24_data.csv,1,600,,Button-Switch at home,,,,,,,,,,,,,k
12,24,989,A,32.79781662533275,51.362518896535505,1.6398908312666376,0.8068005601761143,A,443.72260000091046,Correct,sub_012_day_24_data.csv,1,600,,Button-Switch at home,,,,,,,,,,,,,k
12,24,990,A,43.68942523983259,67.12830772099392,2.1844712619916296,1.0544489919209472,A,432.9585999948904,Correct,sub_012_day_24_data.csv,1,600,,Button-Switch at home,,,,,,,,,,,,,k
12,24,991,A,66.1972849558121,89.38241682304525,3.309864247790605,1.4040157202568986,A,636.6119000012986,Correct,sub_012_day_24_data.csv,1,600,,Button-Switch at home,,,,,,,,,,,,,k
12,24,992,B,78.05255991142988,62.75118849520675,3.902627995571494,0.9856933639028492,B,556.1661000247113,Correct,sub_012_day_24_data.csv,1,600,,Button-Switch at home,,,,,,,,,,,,,d
12,24,993,A,47.87256481002951,75.55960214485782,2.3936282405014753,1.1868874550322646,A,513.426800025627,Correct,sub_012_day_24_data.csv,1,600,,Button-Switch at home,,,,,,,,,,,,,k
12,24,994,B,71.726400760749,39.97911147720842,3.5863200380374503,0.6279904145692268,B,533.1910999957472,Correct,sub_012_day_24_data.csv,1,600,,Button-Switch at home,,,,,,,,,,,,,d
12,24,995,B,56.31706560883837,47.77658732875835,2.8158532804419183,0.7504728788280922,B,1175.267899991013,Correct,sub_012_day_24_data.csv,1,600,,Button-Switch at home,,,,,,,,,,,,,d
12,24,996,A,57.71444104459758,68.82542189032434,2.885722052229879,1.0811071989543053,B,1664.4495999789797,Incorrect,sub_012_day_24_data.csv,0,600,,Button-Switch at home,,,,,,,,,,,,,d
12,24,997,A,15.808823813829983,43.00355930216216,0.7904411906914993,0.6754983299094282,A,474.7018999769352,Correct,sub_012_day_24_data.csv,1,600,,Button-Switch at home,,,,,,,,,,,,,k
12,24,998,B,44.7283323055626,26.648758972627835,2.2364166152781304,0.4185977270784635,B,545.3997000004165,Correct,sub_012_day_24_data.csv,1,600,,Button-Switch at home,,,,,,,,,,,,,d
12,24,999,B,58.596585328892424,41.99490968272622,2.9298292664446213,0.6596544987370978,B,581.0946999699809,Correct,sub_012_day_24_data.csv,1,600,,Button-Switch at home,,,,,,,,,,,,,d
12,24,1000,B,64.35173761864765,31.59701672398203,3.217586880932382,0.4963247780770788,B,506.3997999532148,Correct,sub_012_day_24_data.csv,1,600,,Button-Switch at home,,,,,,,,,,,,,d
12,24,1001,B,48.73719083297012,39.87003031919583,2.436859541648506,0.6262769717459395,B,489.5113999955356,Correct,sub_012_day_24_data.csv,1,600,,Button-Switch at home,,,,,,,,,,,,,d
12,24,1002,A,44.76219548702782,52.80713553205937,2.2381097743513907,0.8294925452231913,B,1240.5111999833025,Incorrect,sub_012_day_24_data.csv,0,600,,Button-Switch at home,,,,,,,,,,,,,d
12,24,1003,B,58.34124325997536,38.4662014469614,2.9170621629987683,0.604225679386395,B,401.92979999119416,Correct,sub_012_day_24_data.csv,1,600,,Button-Switch at home,,,,,,,,,,,,,d
12,24,1004,A,44.6646001044945,72.74703716009185,2.233230005224725,1.142707787562841,A,525.0626999768429,Correct,sub_012_day_24_data.csv,1,600,,Button-Switch at home,,,,,,,,,,,,,k
12,24,1005,A,12.870067777744012,34.11215568657113,0.6435033888872006,0.5358324885152157,A,546.9448000076227,Correct,sub_012_day_24_data.csv,1,600,,Button-Switch at home,,,,,,,,,,,,,k
12,24,1006,B,78.2130228382769,46.61273985445208,3.910651141913845,0.7321912054521941,B,833.6524000042118,Correct,sub_012_day_24_data.csv,1,600,,Button-Switch at home,,,,,,,,,,,,,d
12,24,1007,A,22.235723724034035,37.55839765808493,1.1117861862017018,0.5899659308162186,A,552.63599997852,Correct,sub_012_day_24_data.csv,1,600,,Button-Switch at home,,,,,,,,,,,,,k
12,24,1008,B,81.82270520695896,54.45223431630747,4.091135260347948,0.8553336964983078,A,1736.5088000078686,Incorrect,sub_012_day_24_data.csv,0,600,,Button-Switch at home,,,,,,,,,,,,,k
12,24,1009,A,46.08739302095988,58.026144904624054,2.304369651047994,0.9114725527425188,B,832.7209000126459,Incorrect,sub_012_day_24_data.csv,0,600,,Button-Switch at home,,,,,,,,,,,,,d
12,24,1010,A,63.58999325223019,76.83535424936953,3.1794996626115095,1.2069269222289432,B,913.8322999933736,Incorrect,sub_012_day_24_data.csv,0,600,,Button-Switch at home,,,,,,,,,,,,,d
12,24,1011,A,31.85132913961923,60.076451006883175,1.5925664569809614,0.9436786856848566,A,716.1936000338756,Correct,sub_012_day_24_data.csv,1,600,,Button-Switch at home,,,,,,,,,,,,,k
12,24,1012,A,20.13004746715895,41.63191117897986,1.0065023733579477,0.6539525315739295,A,477.423100033775,Correct,sub_012_day_24_data.csv,1,600,,Button-Switch at home,,,,,,,,,,,,,k
12,24,1013,B,69.88877258731847,48.434821284254795,3.494438629365924,0.7608123936227471,B,756.9642000016756,Correct,sub_012_day_24_data.csv,1,600,,Button-Switch at home,,,,,,,,,,,,,d
12,24,1014,B,41.60406449031426,18.34157809654496,2.080203224515713,0.2881088350167455,B,647.6161999744363,Correct,sub_012_day_24_data.csv,1,600,,Button-Switch at home,,,,,,,,,,,,,d
12,24,1015,A,65.83283054497296,81.97824532942629,3.291641527248649,1.2877112664055368,A,730.0510999630205,Correct,sub_012_day_24_data.csv,1,600,,Button-Switch at home,,,,,,,,,,,,,k
12,24,1016,B,46.328527233793565,29.177446664675017,2.3164263616896785,0.4583182604612552,B,2830.1725999917835,Correct,sub_012_day_24_data.csv,1,600,,Button-Switch at home,,,,,,,,,,,,,d
12,24,1017,B,51.728409692068894,33.24795655043357,2.586420484603445,0.5222576802285738,B,977.7574999607168,Correct,sub_012_day_24_data.csv,1,600,,Button-Switch at home,,,,,,,,,,,,,d
12,24,1018,B,65.56216422122135,50.689393620628174,3.2781082110610673,0.7962271330674341,B,670.6574999843724,Correct,sub_012_day_24_data.csv,1,600,,Button-Switch at home,,,,,,,,,,,,,d
12,24,1019,A,24.97990068414311,57.03942195891535,1.2489950342071554,0.8959731449556839,A,639.2885000095703,Correct,sub_012_day_24_data.csv,1,600,,Button-Switch at home,,,,,,,,,,,,,k
12,24,1020,A,43.04571242783369,68.20369840993197,2.1522856213916843,1.0713411893614808,A,1223.6826000153087,Correct,sub_012_day_24_data.csv,1,600,,Button-Switch at home,,,,,,,,,,,,,k
12,24,1021,A,39.41660601780196,54.2710991118232,1.970830300890098,0.8524884313597365,A,1383.9900000020862,Correct,sub_012_day_24_data.csv,1,600,,Button-Switch at home,,,,,,,,,,,,,k
12,24,1022,B,51.20872792358129,38.53800926736903,2.560436396179065,0.6053536339917096,B,892.8414999973029,Correct,sub_012_day_24_data.csv,1,600,,Button-Switch at home,,,,,,,,,,,,,d
12,24,1023,B,55.05320464503632,42.912740629582046,2.752660232251817,0.6740717535364958,B,763.4131999802776,Correct,sub_012_day_24_data.csv,1,600,,Button-Switch at home,,,,,,,,,,,,,d
12,24,1024,B,79.04488219580517,60.6460050396459,3.9522441097902585,0.9526252195106056,B,660.4344000224955,Correct,sub_012_day_24_data.csv,1,600,,Button-Switch at home,,,,,,,,,,,,,d
12,24,1025,A,63.15579790093743,73.64443998083925,3.1577898950468715,1.156804158107695,A,1566.9317999854684,Correct,sub_012_day_24_data.csv,1,600,,Button-Switch at home,,,,,,,,,,,,,k
12,24,1026,A,42.35951087020438,60.97957987701141,2.117975543510219,0.9578650008030553,B,1780.2634999970903,Incorrect,sub_012_day_24_data.csv,0,600,,Button-Switch at home,,,,,,,,,,,,,d
12,24,1027,B,52.909668052825126,42.17990374322125,2.645483402641256,0.6625603786441425,A,1037.3643999919295,Incorrect,sub_012_day_24_data.csv,0,600,,Button-Switch at home,,,,,,,,,,,,,k
12,24,1028,B,73.30790586517764,63.22716581310151,3.6653952932588822,0.9931699981287172,B,396.4871999924071,Correct,sub_012_day_24_data.csv,1,600,,Button-Switch at home,,,,,,,,,,,,,d
12,24,1029,B,80.51148647082897,66.10231696308837,4.0255743235414485,1.038332766782512,B,450.76500001596287,Correct,sub_012_day_24_data.csv,1,600,,Button-Switch at home,,,,,,,,,,,,,d
12,24,1030,A,24.52311752898524,37.19179273332416,1.226155876449262,0.5842073141242272,A,711.2884999951348,Correct,sub_012_day_24_data.csv,1,600,,Button-Switch at home,,,,,,,,,,,,,k
12,24,1031,B,32.5025629297827,11.5132356899943,1.625128146489135,0.1808494833136695,A,921.1906000273302,Incorrect,sub_012_day_24_data.csv,0,600,,Button-Switch at home,,,,,,,,,,,,,k
12,24,1032,A,43.58632593661957,66.50397393714812,2.1793162968309785,1.044641979777358,A,709.2809000168927,Correct,sub_012_day_24_data.csv,1,600,,Button-Switch at home,,,,,,,,,,,,,k
12,24,1033,A,40.68393715591593,60.93090658172574,2.0341968577957967,0.9571004424685778,A,470.8530000061728,Correct,sub_012_day_24_data.csv,1,600,,Button-Switch at home,,,,,,,,,,,,,k
12,24,1034,B,69.64395312084032,51.949463115872824,3.482197656042016,0.8160202584137999,B,547.6084999972954,Correct,sub_012_day_24_data.csv,1,600,,Button-Switch at home,,,,,,,,,,,,,d
12,24,1035,A,27.307047591700297,49.21846883447147,1.3653523795850149,0.7731219005565688,A,640.220400004182,Correct,sub_012_day_24_data.csv,1,600,,Button-Switch at home,,,,,,,,,,,,,k
12,24,1036,B,80.63710150293247,51.67714115171485,4.031855075146623,0.8117426350037508,B,539.6616000216454,Correct,sub_012_day_24_data.csv,1,600,,Button-Switch at home,,,,,,,,,,,,,d
12,24,1037,A,36.74875557131818,65.61718141270899,1.837437778565909,1.0307122753771765,A,1984.598399954848,Correct,sub_012_day_24_data.csv,1,600,,Button-Switch at home,,,,,,,,,,,,,k
12,24,1038,A,64.913090335127,84.93263411882168,3.2456545167563498,1.3341186969886,A,615.5581999919377,Correct,sub_012_day_24_data.csv,1,600,,Button-Switch at home,,,,,,,,,,,,,k
12,24,1039,A,36.831617102093816,60.910032092443934,1.8415808551046908,0.956772546757702,A,521.582200017292,Correct,sub_012_day_24_data.csv,1,600,,Button-Switch at home,,,,,,,,,,,,,k
12,24,1040,B,84.34479827574017,65.91283346992009,4.217239913787009,1.035356367031942,B,487.3028000001795,Correct,sub_012_day_24_data.csv,1,600,,Button-Switch at home,,,,,,,,,,,,,d
12,24,1041,B,39.457628773595744,22.56832008048867,1.972881438679787,0.3545023428436311,B,593.9251000527292,Correct,sub_012_day_24_data.csv,1,600,,Button-Switch at home,,,,,,,,,,,,,d
12,24,1042,A,20.306925030870307,42.48182809878986,1.0153462515435152,0.6673029953311135,A,768.743299995549,Correct,sub_012_day_24_data.csv,1,600,,Button-Switch at home,,,,,,,,,,,,,k
12,24,1043,B,44.41546387513936,21.493304660137465,2.2207731937569677,0.3376160401082756,A,684.7810999606736,Incorrect,sub_012_day_24_data.csv,0,600,,Button-Switch at home,,,,,,,,,,,,,k
12,24,1044,B,55.82912147031554,37.402935060494,2.791456073515777,0.5875239300437204,B,1195.2762000146322,Correct,sub_012_day_24_data.csv,1,600,,Button-Switch at home,,,,,,,,,,,,,d
12,24,1045,B,62.66610887794302,31.053105677324353,3.133305443897151,0.4877810433351484,B,538.2615000125952,Correct,sub_012_day_24_data.csv,1,600,,Button-Switch at home,,,,,,,,,,,,,d
12,24,1046,A,62.37642497106562,83.43678919949728,3.1188212485532807,1.3106220199413043,A,513.6903000529855,Correct,sub_012_day_24_data.csv,1,600,,Button-Switch at home,,,,,,,,,,,,,k
12,24,1047,B,42.81498672117067,18.502973450925577,2.1407493360585335,0.2906440273149738,B,520.0710000353865,Correct,sub_012_day_24_data.csv,1,600,,Button-Switch at home,,,,,,,,,,,,,d
12,24,1048,A,59.63837944000039,80.26757272265158,2.981918972000019,1.2608400839348333,A,525.9101999690756,Correct,sub_012_day_24_data.csv,1,600,,Button-Switch at home,,,,,,,,,,,,,k
12,24,1049,B,70.0569946062018,40.35312709139563,3.5028497303100896,0.6338654380985188,B,1647.323899960611,Correct,sub_012_day_24_data.csv,1,600,,Button-Switch at home,,,,,,,,,,,,,d
12,24,1050,B,83.62645837814392,58.6581174778686,4.181322918907196,0.9213995547093952,B,529.7358999960124,Correct,sub_012_day_24_data.csv,1,600,,Button-Switch at home,,,,,,,,,,,,,d
12,24,1051,B,45.14855865560912,21.150910105256997,2.2574279327804563,0.3322377190170675,B,589.1677999752574,Correct,sub_012_day_24_data.csv,1,600,,Button-Switch at home,,,,,,,,,,,,,d
12,24,1052,B,35.800498042260614,20.008031827363503,1.7900249021130308,0.3142854290081797,B,450.95929998205975,Correct,sub_012_day_24_data.csv,1,600,,Button-Switch at home,,,,,,,,,,,,,d
12,24,1053,A,12.703648727407051,38.99990656843853,0.6351824363703527,0.6126090998304741,A,732.1783000370488,Correct,sub_012_day_24_data.csv,1,600,,Button-Switch at home,,,,,,,,,,,,,k
12,24,1054,B,65.47145913098353,53.11184441113178,3.2735729565491765,0.8342789011030783,B,498.30040003871545,Correct,sub_012_day_24_data.csv,1,600,,Button-Switch at home,,,,,,,,,,,,,d
12,24,1055,B,58.698039441021365,37.81077965704301,2.934901972051068,0.5939303379853436,B,790.7819999963976,Correct,sub_012_day_24_data.csv,1,600,,Button-Switch at home,,,,,,,,,,,,,d
12,24,1056,B,34.09387758654704,16.17542736873615,1.7046938793273518,0.2540830189514838,B,729.2459000018425,Correct,sub_012_day_24_data.csv,1,600,,Button-Switch at home,,,,,,,,,,,,,d
12,24,1057,A,36.46500634529192,61.23260133835626,1.823250317264596,0.9618394526238628,A,1169.1521999891847,Correct,sub_012_day_24_data.csv,1,600,,Button-Switch at home,,,,,,,,,,,,,k
12,24,1058,B,31.630851590315803,15.450748145534458,1.58154257951579,0.2426997843323858,B,556.9754000171088,Correct,sub_012_day_24_data.csv,1,600,,Button-Switch at home,,,,,,,,,,,,,d
12,24,1059,B,60.162147938242654,32.70265827839696,3.0081073969121324,0.5136921550013466,B,462.8889000159688,Correct,sub_012_day_24_data.csv,1,600,,Button-Switch at home,,,,,,,,,,,,,d
12,24,1060,B,45.493927067249224,25.16878831769559,2.274696353362461,0.3953504023931453,B,1032.338700024411,Correct,sub_012_day_24_data.csv,1,600,,Button-Switch at home,,,,,,,,,,,,,d
12,24,1061,A,38.36519075391201,57.35160254311553,1.9182595376956004,0.9008768661052672,A,780.2488000015728,Correct,sub_012_day_24_data.csv,1,600,,Button-Switch at home,,,,,,,,,,,,,k
12,24,1062,B,64.69779713137798,35.11817321278743,3.234889856568899,0.5516349748639342,B,485.1390999974683,Correct,sub_012_day_24_data.csv,1,600,,Button-Switch at home,,,,,,,,,,,,,d
12,24,1063,B,84.83916053467469,57.15077241405314,4.241958026733735,0.8977222338148576,B,839.6203999873251,Correct,sub_012_day_24_data.csv,1,600,,Button-Switch at home,,,,,,,,,,,,,d
12,24,1064,B,87.59795339378385,63.25494825884595,4.379897669689193,0.9936064037659644,B,434.2975000035949,Correct,sub_012_day_24_data.csv,1,600,,Button-Switch at home,,,,,,,,,,,,,d
12,24,1065,A,30.9464051240318,52.2807323905555,1.54732025620159,0.8212238240123154,A,560.3797000367194,Correct,sub_012_day_24_data.csv,1,600,,Button-Switch at home,,,,,,,,,,,,,k
12,24,1066,B,68.05219825027466,41.53588542444105,3.402609912513733,0.6524441625488568,B,832.9732999554835,Correct,sub_012_day_24_data.csv,1,600,,Button-Switch at home,,,,,,,,,,,,,d
12,24,1067,B,51.93103064984199,35.3336475667127,2.5965515324920996,0.5550196381005774,B,682.7970999875106,Correct,sub_012_day_24_data.csv,1,600,,Button-Switch at home,,,,,,,,,,,,,d
12,24,1068,B,70.86684135829849,54.838693066465176,3.5433420679149243,0.8614041763503626,B,502.94919998850673,Correct,sub_012_day_24_data.csv,1,600,,Button-Switch at home,,,,,,,,,,,,,d
12,24,1069,B,84.46151426278495,69.25285670190563,4.223075713139247,1.087821329274067,B,501.72400003066286,Correct,sub_012_day_24_data.csv,1,600,,Button-Switch at home,,,,,,,,,,,,,d
12,24,1070,B,37.17650537823697,24.835042018657095,1.8588252689118483,0.3901079277870348,B,620.4386000172235,Correct,sub_012_day_24_data.csv,1,600,,Button-Switch at home,,,,,,,,,,,,,d
12,24,1071,A,21.13712285734808,51.449204995646056,1.056856142867404,0.8081622222367847,A,686.5431999904104,Correct,sub_012_day_24_data.csv,1,600,,Button-Switch at home,,,,,,,,,,,,,k
12,24,1072,A,15.513853654081135,30.5263068552718,0.7756926827040567,0.4795061067887481,A,535.0675000227056,Correct,sub_012_day_24_data.csv,1,600,,Button-Switch at home,,,,,,,,,,,,,k
12,24,1073,B,39.18535368198016,20.30040806505187,1.959267684099008,0.3188780642102096,B,466.1979000084102,Correct,sub_012_day_24_data.csv,1,600,,Button-Switch at home,,,,,,,,,,,,,d
12,24,1074,B,53.59777902895087,23.01006199106331,2.6798889514475435,0.3614412085488512,B,706.3876999891363,Correct,sub_012_day_24_data.csv,1,600,,Button-Switch at home,,,,,,,,,,,,,d
12,24,1075,B,86.01749745933336,64.29310973636579,4.300874872966668,1.0099138061210458,B,595.0271000037901,Correct,sub_012_day_24_data.csv,1,600,,Button-Switch at home,,,,,,,,,,,,,d
12,24,1076,A,23.883146166186418,44.86858908973306,1.1941573083093209,0.7047941493062226,A,793.890300032217,Correct,sub_012_day_24_data.csv,1,600,,Button-Switch at home,,,,,,,,,,,,,k
12,24,1077,A,39.572926896151266,65.12971811516492,1.9786463448075633,1.023055219804881,A,548.6182000022382,Correct,sub_012_day_24_data.csv,1,600,,Button-Switch at home,,,,,,,,,,,,,k
12,24,1078,B,52.43798715424703,30.65637251749844,2.6218993577123517,0.4815491734334257,B,504.5392999891192,Correct,sub_012_day_24_data.csv,1,600,,Button-Switch at home,,,,,,,,,,,,,d
12,24,1079,A,29.28994974817619,46.596994950928675,1.4644974874088097,0.7319438850859911,A,1004.8116999678314,Correct,sub_012_day_24_data.csv,1,600,,Button-Switch at home,,,,,,,,,,,,,k
12,24,1080,B,45.59522621620421,34.618589755468975,2.27976131081021,0.5437875362671011,B,1617.0863999868743,Correct,sub_012_day_24_data.csv,1,600,,Button-Switch at home,,,,,,,,,,,,,d
12,24,1081,A,22.410067397223585,34.575247347441284,1.1205033698611793,0.5431067153138577,A,568.0920000304468,Correct,sub_012_day_24_data.csv,1,600,,Button-Switch at home,,,,,,,,,,,,,k
12,24,1082,B,35.05370258526804,11.470439293247026,1.752685129263402,0.1801772390855627,B,607.7616999973543,Correct,sub_012_day_24_data.csv,1,600,,Button-Switch at home,,,,,,,,,,,,,d
12,24,1083,A,37.59700838784401,58.02028844241519,1.8798504193922003,0.9113805596492616,A,726.9063999992795,Correct,sub_012_day_24_data.csv,1,600,,Button-Switch at home,,,,,,,,,,,,,k
12,24,1084,B,67.56022159104492,36.377112913184085,3.378011079552246,0.5714103534343276,B,488.4705999866128,Correct,sub_012_day_24_data.csv,1,600,,Button-Switch at home,,,,,,,,,,,,,d
12,24,1085,A,30.27166989151507,48.60152089724269,1.5135834945757538,0.7634309050203423,A,665.7614999567159,Correct,sub_012_day_24_data.csv,1,600,,Button-Switch at home,,,,,,,,,,,,,k
12,24,1086,A,34.84007802399079,48.24632772890128,1.7420039011995396,0.757851543779009,A,697.9867999907583,Correct,sub_012_day_24_data.csv,1,600,,Button-Switch at home,,,,,,,,,,,,,k
12,24,1087,B,70.31758050631692,42.96484656966941,3.515879025315846,0.6748902317294303,B,690.1637999690138,Correct,sub_012_day_24_data.csv,1,600,,Button-Switch at home,,,,,,,,,,,,,d
12,24,1088,A,53.429148226313266,77.1816097862304,2.6714574113156635,1.2123658914832771,A,528.2302999985404,Correct,sub_012_day_24_data.csv,1,600,,Button-Switch at home,,,,,,,,,,,,,k
12,24,1089,B,76.07925518068379,52.81168672999478,3.8039627590341896,0.8295640352731859,B,712.2901999973692,Correct,sub_012_day_24_data.csv,1,600,,Button-Switch at home,,,,,,,,,,,,,d
12,24,1090,B,76.85449565926025,49.896459183389254,3.842724782963012,0.7837717480533933,B,512.4135999940336,Correct,sub_012_day_24_data.csv,1,600,,Button-Switch at home,,,,,,,,,,,,,d
12,24,1091,A,68.7720320328606,82.84712944026317,3.4386016016430294,1.3013596661026672,A,644.2155999829993,Correct,sub_012_day_24_data.csv,1,600,,Button-Switch at home,,,,,,,,,,,,,k
12,24,1092,B,46.513380555606176,28.41649299516867,2.3256690277803087,0.4463652281720386,B,582.7970000100322,Correct,sub_012_day_24_data.csv,1,600,,Button-Switch at home,,,,,,,,,,,,,d
12,24,1093,A,16.68566371530779,46.724889434251345,0.8342831857653894,0.733952846932197,A,417.6530000404455,Correct,sub_012_day_24_data.csv,1,600,,Button-Switch at home,,,,,,,,,,,,,k
12,24,1094,A,18.85721102387552,40.998482320679365,0.942860551193776,0.6440026543348866,A,1145.854500005953,Correct,sub_012_day_24_data.csv,1,600,,Button-Switch at home,,,,,,,,,,,,,k
12,24,1095,B,48.36490881583862,38.83010015023187,2.4182454407919307,0.6099417868506218,B,536.879500024952,Correct,sub_012_day_24_data.csv,1,600,,Button-Switch at home,,,,,,,,,,,,,d
12,24,1096,A,37.05328357329672,46.950982149702654,1.8526641786648357,0.737504303001657,A,512.3441999894567,Correct,sub_012_day_24_data.csv,1,600,,Button-Switch at home,,,,,,,,,,,,,k
12,24,1097,B,53.15243886199624,40.36716859860345,2.657621943099812,0.634086001577966,B,761.7479000473395,Correct,sub_012_day_24_data.csv,1,600,,Button-Switch at home,,,,,,,,,,,,,d
12,24,1098,A,42.80749734715266,54.86634519056976,2.1403748673576333,0.8618385349000781,B,636.7599000222981,Incorrect,sub_012_day_24_data.csv,0,600,,Button-Switch at home,,,,,,,,,,,,,d
12,24,1099,B,39.3652307655819,22.73636175119911,1.968261538279095,0.3571419352346354,B,535.1039999513887,Correct,sub_012_day_24_data.csv,1,600,,Button-Switch at home,,,,,,,,,,,,,d
12,24,1100,B,86.57413672688568,67.82547835568529,4.328706836344284,1.065400122642172,B,1774.480100022629,Correct,sub_012_day_24_data.csv,1,600,,Button-Switch at home,,,,,,,,,,,,,d
12,24,1101,B,69.03146427785913,50.9327420720207,3.4515732138929565,0.8000496416032201,B,436.1062000389211,Correct,sub_012_day_24_data.csv,1,600,,Button-Switch at home,,,,,,,,,,,,,d
12,24,1102,A,50.053714024984714,70.07056808230405,2.5026857012492356,1.1006659096011493,A,492.4971000291407,Correct,sub_012_day_24_data.csv,1,600,,Button-Switch at home,,,,,,,,,,,,,k
12,24,1103,A,32.577182174767664,64.32144485753804,1.6288591087383832,1.0103588931636125,A,482.5814999639988,Correct,sub_012_day_24_data.csv,1,600,,Button-Switch at home,,,,,,,,,,,,,k
12,24,1104,A,31.166656630386576,61.32533211398478,1.5583328315193288,0.963296064241244,A,399.03560001403093,Correct,sub_012_day_24_data.csv,1,600,,Button-Switch at home,,,,,,,,,,,,,k
12,24,1105,A,39.25976757126605,67.15678801771128,1.9629883785633029,1.054896359375644,A,407.7977000270039,Correct,sub_012_day_24_data.csv,1,600,,Button-Switch at home,,,,,,,,,,,,,k
12,24,1106,B,43.91421612448546,32.48142487613271,2.195710806224273,0.5102170288449364,B,960.087699990254,Correct,sub_012_day_24_data.csv,1,600,,Button-Switch at home,,,,,,,,,,,,,d
12,24,1107,A,49.161012263079975,59.15354713324328,2.4580506131539988,0.9291817455378732,B,816.8516000150703,Incorrect,sub_012_day_24_data.csv,0,600,,Button-Switch at home,,,,,,,,,,,,,d
12,24,1108,B,54.33388846697803,33.78077926447667,2.7166944233489017,0.5306272398490915,B,517.6445000106469,Correct,sub_012_day_24_data.csv,1,600,,Button-Switch at home,,,,,,,,,,,,,d
12,24,1109,B,61.23359199411255,41.53248948879061,3.0616795997056276,0.6523908193163994,B,402.0232000038959,Correct,sub_012_day_24_data.csv,1,600,,Button-Switch at home,,,,,,,,,,,,,d
12,24,1110,B,46.22687617684606,30.139126959726248,2.3113438088423033,0.4734242992114303,B,427.4321999982931,Correct,sub_012_day_24_data.csv,1,600,,Button-Switch at home,,,,,,,,,,,,,d
12,24,1111,A,14.35550276011408,31.957140580454553,0.717775138005704,0.5019815903864614,A,483.1920999567956,Correct,sub_012_day_24_data.csv,1,600,,Button-Switch at home,,,,,,,,,,,,,k
12,24,1112,B,46.25580551988353,25.36425030492731,2.3127902759941765,0.3984207121088615,B,464.3291999818757,Correct,sub_012_day_24_data.csv,1,600,,Button-Switch at home,,,,,,,,,,,,,d
12,24,1113,A,20.91333993504521,49.83698068917816,1.0456669967522607,0.7828374620510925,A,427.12720000417903,Correct,sub_012_day_24_data.csv,1,600,,Button-Switch at home,,,,,,,,,,,,,k
12,24,1114,A,49.47293226736125,68.06446840324875,2.473646613368062,1.0691541695307043,A,413.02179999183863,Correct,sub_012_day_24_data.csv,1,600,,Button-Switch at home,,,,,,,,,,,,,k
12,24,1115,B,43.02177613272712,29.5221418004714,2.151088806636356,0.4637327189929855,B,582.0695000002161,Correct,sub_012_day_24_data.csv,1,600,,Button-Switch at home,,,,,,,,,,,,,d
12,24,1116,A,26.60513055651736,48.840150772815434,1.330256527825868,0.7671792943404743,A,407.4751999578438,Correct,sub_012_day_24_data.csv,1,600,,Button-Switch at home,,,,,,,,,,,,,k
12,24,1117,B,58.207949232617295,46.87397218378153,2.9103974616308648,0.736294633285702,B,584.1302999760956,Correct,sub_012_day_24_data.csv,1,600,,Button-Switch at home,,,,,,,,,,,,,d
12,24,1118,A,28.713915576856344,46.07195231663892,1.4356957788428173,0.7236965346724604,A,435.4624000261538,Correct,sub_012_day_24_data.csv,1,600,,Button-Switch at home,,,,,,,,,,,,,k
12,24,1119,A,56.70434832316514,84.3880445369418,2.835217416158257,1.325564303840323,A,581.4040999975987,Correct,sub_012_day_24_data.csv,1,600,,Button-Switch at home,,,,,,,,,,,,,k
12,24,1120,B,72.10648990195436,40.57819060700125,3.6053244950977184,0.6374007275346073,B,430.6230999645777,Correct,sub_012_day_24_data.csv,1,600,,Button-Switch at home,,,,,,,,,,,,,d
12,24,1121,A,45.29652755846089,63.16177520149864,2.2648263779230446,0.9921428448035904,A,450.77580003999174,Correct,sub_012_day_24_data.csv,1,600,,Button-Switch at home,,,,,,,,,,,,,k
12,24,1122,B,70.06995244591765,41.58703538682964,3.5034976222958822,0.6532476242792138,B,499.7210999717936,Correct,sub_012_day_24_data.csv,1,600,,Button-Switch at home,,,,,,,,,,,,,d
12,24,1123,A,21.49341307704243,41.45549804874453,1.0746706538521216,0.651181440604209,A,739.1509999870323,Correct,sub_012_day_24_data.csv,1,600,,Button-Switch at home,,,,,,,,,,,,,k
12,24,1124,A,58.486627812029454,73.30778361984675,2.9243313906014725,1.1515159723553037,A,510.00230002682656,Correct,sub_012_day_24_data.csv,1,600,,Button-Switch at home,,,,,,,,,,,,,k
12,24,1125,A,58.18221096295531,82.8362493073509,2.9091105481477655,1.301188761374531,A,662.3702999786474,Correct,sub_012_day_24_data.csv,1,600,,Button-Switch at home,,,,,,,,,,,,,k
12,24,1126,A,37.03341019856885,69.26944332146022,1.8516705099284425,1.0880818712847695,A,537.1919000172056,Correct,sub_012_day_24_data.csv,1,600,,Button-Switch at home,,,,,,,,,,,,,k
12,24,1127,B,78.99753796715642,66.03813281497654,3.9498768983578207,1.0373245645415867,B,511.3543000188656,Correct,sub_012_day_24_data.csv,1,600,,Button-Switch at home,,,,,,,,,,,,,d
12,24,1128,B,63.24909762620464,33.82582844056347,3.162454881310232,0.5313348706523144,B,881.3519999966957,Correct,sub_012_day_24_data.csv,1,600,,Button-Switch at home,,,,,,,,,,,,,d
12,24,1129,B,51.41557626913532,42.67734084276117,2.5707788134567657,0.6703741023318307,B,594.6150000090711,Correct,sub_012_day_24_data.csv,1,600,,Button-Switch at home,,,,,,,,,,,,,d
12,24,1130,A,49.060826269421575,66.44256532330677,2.4530413134710787,1.0436773755268025,A,774.8525000060908,Correct,sub_012_day_24_data.csv,1,600,,Button-Switch at home,,,,,,,,,,,,,k
12,24,1131,A,33.43912301401343,55.69229400261912,1.6719561507006715,0.8748125085009557,A,406.0013999696821,Correct,sub_012_day_24_data.csv,1,600,,Button-Switch at home,,,,,,,,,,,,,k
12,24,1132,A,45.72996789087493,60.200306692374454,2.286498394543746,0.9456242062430804,A,1619.6563999983482,Correct,sub_012_day_24_data.csv,1,600,,Button-Switch at home,,,,,,,,,,,,,k
12,24,1133,B,67.59727499321426,37.32098552539961,3.3798637496607125,0.5862366697566321,B,413.92500000074506,Correct,sub_012_day_24_data.csv,1,600,,Button-Switch at home,,,,,,,,,,,,,d
12,24,1134,A,26.01822873399502,36.100253565171826,1.3009114366997512,0.5670614569653627,A,496.8993999646045,Correct,sub_012_day_24_data.csv,1,600,,Button-Switch at home,,,,,,,,,,,,,k
12,24,1135,A,42.33612960625064,70.45598965278297,2.116806480312532,1.1067200974729074,A,462.93850004440174,Correct,sub_012_day_24_data.csv,1,600,,Button-Switch at home,,,,,,,,,,,,,k
12,24,1136,B,80.94685109205577,62.45202475630269,4.047342554602789,0.980994110881042,B,497.0253999927081,Correct,sub_012_day_24_data.csv,1,600,,Button-Switch at home,,,,,,,,,,,,,d
12,24,1137,B,71.67653080469225,58.615261874839874,3.5838265402346123,0.9207263804711942,B,388.0350000108592,Correct,sub_012_day_24_data.csv,1,600,,Button-Switch at home,,,,,,,,,,,,,d
12,24,1138,A,39.305579340433205,65.88329226301104,1.9652789670216604,1.0348923348389238,A,457.03300001332536,Correct,sub_012_day_24_data.csv,1,600,,Button-Switch at home,,,,,,,,,,,,,k
12,24,1139,A,54.18174085461929,69.59943849849422,2.709087042730965,1.0932654234042205,A,537.9105999600142,Correct,sub_012_day_24_data.csv,1,600,,Button-Switch at home,,,,,,,,,,,,,k
12,24,1140,B,81.24104347093723,60.432744345404934,4.062052173546862,0.9492753283589714,B,531.8693000008352,Correct,sub_012_day_24_data.csv,1,600,,Button-Switch at home,,,,,,,,,,,,,d
12,24,1141,B,41.90538768873393,17.746748098606936,2.0952693844366963,0.2787652672584608,A,2221.159200009424,Incorrect,sub_012_day_24_data.csv,0,600,,Button-Switch at home,,,,,,,,,,,,,k
12,24,1142,B,69.03104697766044,51.901351375774766,3.4515523488830215,0.8152645209675825,B,564.5187000045553,Correct,sub_012_day_24_data.csv,1,600,,Button-Switch at home,,,,,,,,,,,,,d
12,24,1143,B,32.949763141167196,17.268005758462802,1.6474881570583595,0.2712452001646649,B,522.2479000221938,Correct,sub_012_day_24_data.csv,1,600,,Button-Switch at home,,,,,,,,,,,,,d
12,24,1144,A,45.838987590761505,72.69686456985808,2.291949379538075,1.1419196783583911,A,859.8357000155374,Correct,sub_012_day_24_data.csv,1,600,,Button-Switch at home,,,,,,,,,,,,,k
12,24,1145,B,43.982529900234155,27.81581323576303,2.199126495011708,0.4369297725754944,B,594.0183000057004,Correct,sub_012_day_24_data.csv,1,600,,Button-Switch at home,,,,,,,,,,,,,d
12,24,1146,A,48.5837375924488,64.35637071494472,2.4291868796224403,1.010907507248858,A,490.6587000004947,Correct,sub_012_day_24_data.csv,1,600,,Button-Switch at home,,,,,,,,,,,,,k
12,24,1147,B,73.48172382949178,58.918924635299206,3.674086191474589,0.9254963039583334,B,985.4321000166236,Correct,sub_012_day_24_data.csv,1,600,,Button-Switch at home,,,,,,,,,,,,,d
12,24,1148,B,60.585893957864414,47.577945904352504,3.0292946978932207,0.7473526266300321,B,831.9344000192359,Correct,sub_012_day_24_data.csv,1,600,,Button-Switch at home,,,,,,,,,,,,,d
12,24,1149,B,75.41093015489638,62.66592662527467,3.770546507744819,0.9843540735817996,B,509.0752000105567,Correct,sub_012_day_24_data.csv,1,600,,Button-Switch at home,,,,,,,,,,,,,d
