subject,day,trial,cat,x,y,xt,yt,resp,rt,fb,f_name,acc,n_trials,block,session_type,ns_left_digit,ns_right_digit,ns_left_size,ns_right_size,ns_congruent,ns_cue,ns_correct_side,ns_resp,ns_rt,ns_fb,acc_stroop,acc_stroop_mean,resp_key
12,7,1200,B,51.62314148224777,31.490510340539615,2.5811570741123884,0.4946517797181634,B,822.0676239870954,Correct,sub_012_day_07_data.csv,1,300,48.0,Training at home,,,,,,,,,,,,,
12,7,1201,B,47.77409162452108,21.91350293055967,2.3887045812260537,0.3442164991053232,B,673.6552910006139,Correct,sub_012_day_07_data.csv,1,300,48.0,Training at home,,,,,,,,,,,,,
12,7,1202,A,12.773810293484791,33.308844675208846,0.6386905146742397,0.523214108655998,A,654.7297909855843,Correct,sub_012_day_07_data.csv,1,300,48.0,Training at home,,,,,,,,,,,,,
12,7,1203,A,58.662136501059734,84.72593383220195,2.933106825052987,1.3308718564789028,A,588.0504160013516,Correct,sub_012_day_07_data.csv,1,300,48.0,Training at home,,,,,,,,,,,,,
12,7,1204,B,75.8317081064158,51.89341248581819,3.7915854053207902,0.8151398171757563,B,776.9501659786329,Correct,sub_012_day_07_data.csv,1,300,48.0,Training at home,,,,,,,,,,,,,
12,7,1205,B,76.20089182920928,52.627595366421275,3.810044591460464,0.8266723348962265,B,867.0721660018899,Correct,sub_012_day_07_data.csv,1,300,48.0,Training at home,,,,,,,,,,,,,
12,7,1206,B,71.12508325169489,39.12518952691758,3.5562541625847444,0.614577039940363,B,2092.208957008552,Correct,sub_012_day_07_data.csv,1,300,48.0,Training at home,,,,,,,,,,,,,
12,7,1207,B,74.32587713738182,44.64181109012665,3.716293856869091,0.7012319288184262,B,707.9011250170879,Correct,sub_012_day_07_data.csv,1,300,48.0,Training at home,,,,,,,,,,,,,
12,7,1208,B,63.8318670764474,44.48998868115256,3.19159335382237,0.6988471079950097,B,657.1295409812592,Correct,sub_012_day_07_data.csv,1,300,48.0,Training at home,,,,,,,,,,,,,
12,7,1209,B,35.16991097555667,23.479455038989222,1.758495548777833,0.368814417303902,A,596.6094160103239,Incorrect,sub_012_day_07_data.csv,0,300,48.0,Training at home,,,,,,,,,,,,,
12,7,1210,B,69.44040158943777,45.255620357227066,3.4720200794718887,0.7108736222395662,B,551.1802910186816,Correct,sub_012_day_07_data.csv,1,300,48.0,Training at home,,,,,,,,,,,,,
12,7,1211,B,55.47382035070446,47.73299940732852,2.7736910175352225,0.749788201359346,B,622.4424579995684,Correct,sub_012_day_07_data.csv,1,300,48.0,Training at home,,,,,,,,,,,,,
12,7,1212,B,43.5114914704188,31.335588543856,2.17557457352094,0.4922182738264524,B,983.0515409994404,Correct,sub_012_day_07_data.csv,1,300,48.0,Training at home,,,,,,,,,,,,,
12,7,1213,A,55.45171347944488,77.81986050205496,2.772585673972244,1.2223915102831917,A,578.0904990097042,Correct,sub_012_day_07_data.csv,1,300,48.0,Training at home,,,,,,,,,,,,,
12,7,1214,A,51.09387374091504,79.34976796601327,2.554693687045752,1.24642324053041,A,936.5139580040704,Correct,sub_012_day_07_data.csv,1,300,48.0,Training at home,,,,,,,,,,,,,
12,7,1215,B,61.620310131873005,48.94645213709657,3.0810155065936504,0.7688490722659351,B,589.6952909824904,Correct,sub_012_day_07_data.csv,1,300,48.0,Training at home,,,,,,,,,,,,,
12,7,1216,B,76.54978401601011,53.343126718834974,3.8274892008005055,0.8379118750970066,B,551.4719990023877,Correct,sub_012_day_07_data.csv,1,300,48.0,Training at home,,,,,,,,,,,,,
12,7,1217,B,48.32051660707235,38.190579871708806,2.4160258303536177,0.5998962258064731,B,732.4040410167072,Correct,sub_012_day_07_data.csv,1,300,48.0,Training at home,,,,,,,,,,,,,
12,7,1218,A,59.27574051614064,68.98455505824919,2.9637870258070325,1.0836068569107813,B,704.1569580032956,Incorrect,sub_012_day_07_data.csv,0,300,48.0,Training at home,,,,,,,,,,,,,
12,7,1219,A,56.53312923764173,80.61143435580833,2.826656461882086,1.2662414498377166,A,684.3795409949962,Correct,sub_012_day_07_data.csv,1,300,48.0,Training at home,,,,,,,,,,,,,
12,7,1220,B,48.1648072948222,30.12381945124138,2.40824036474111,0.4731838494304262,B,529.5743329916149,Correct,sub_012_day_07_data.csv,1,300,48.0,Training at home,,,,,,,,,,,,,
12,7,1221,B,64.63965745573272,42.53233638043539,3.231982872786636,0.6680963775639286,B,553.3905829943251,Correct,sub_012_day_07_data.csv,1,300,48.0,Training at home,,,,,,,,,,,,,
12,7,1222,A,20.631312810099388,38.305192734932206,1.0315656405049694,0.6016965604520207,A,585.4014159995131,Correct,sub_012_day_07_data.csv,1,300,48.0,Training at home,,,,,,,,,,,,,
12,7,1223,B,31.078893955083505,13.310629971701978,1.553944697754175,0.2090828866687553,B,889.5211240160279,Correct,sub_012_day_07_data.csv,1,300,48.0,Training at home,,,,,,,,,,,,,
12,7,1224,B,76.4946495606969,61.56541856392512,3.8247324780348446,0.9670673333780392,B,632.6105000043754,Correct,sub_012_day_07_data.csv,1,300,48.0,Training at home,,,,,,,,,,,,,
12,7,1225,B,65.4332389278159,41.88824437979007,3.271661946390795,0.6579790040766121,B,527.0597500202712,Correct,sub_012_day_07_data.csv,1,300,49.0,Training at home,,,,,,,,,,,,,
12,7,1226,B,67.62028265419873,58.68372867203409,3.3810141327099363,0.9218018544065952,B,606.758665991947,Correct,sub_012_day_07_data.csv,1,300,49.0,Training at home,,,,,,,,,,,,,
12,7,1227,A,46.64620377131868,56.72316495068156,2.332310188565934,0.8910053914871161,B,653.5360410052817,Incorrect,sub_012_day_07_data.csv,0,300,49.0,Training at home,,,,,,,,,,,,,
12,7,1228,B,76.6684992339446,58.36454376855628,3.8334249616972302,0.9167881096670818,B,658.0033330246806,Correct,sub_012_day_07_data.csv,1,300,49.0,Training at home,,,,,,,,,,,,,
12,7,1229,B,33.90537456277965,22.474511418938725,1.6952687281389824,0.3530287998337891,B,808.2836660032626,Correct,sub_012_day_07_data.csv,1,300,49.0,Training at home,,,,,,,,,,,,,
12,7,1230,A,43.86832083000645,56.22740016234733,2.1934160415003223,0.8832179364024196,B,1266.2001659919042,Incorrect,sub_012_day_07_data.csv,0,300,49.0,Training at home,,,,,,,,,,,,,
12,7,1231,A,10.730355799032893,33.646162971486476,0.5365177899516447,0.5285126920635342,A,760.932873992715,Correct,sub_012_day_07_data.csv,1,300,49.0,Training at home,,,,,,,,,,,,,
12,7,1232,B,78.0827690839128,61.44217898283222,3.90413845419564,0.9651314905650744,B,1983.3550000039395,Correct,sub_012_day_07_data.csv,1,300,49.0,Training at home,,,,,,,,,,,,,
12,7,1233,B,38.211048113046616,12.244363436766308,1.9105524056523309,0.1923340111041424,B,892.8242499823682,Correct,sub_012_day_07_data.csv,1,300,49.0,Training at home,,,,,,,,,,,,,
12,7,1234,A,23.858932962672107,47.88348985140722,1.1929466481336053,0.7521520997271118,A,666.9738740019966,Correct,sub_012_day_07_data.csv,1,300,49.0,Training at home,,,,,,,,,,,,,
12,7,1235,A,29.74646932368096,57.0898901541749,1.487323466184048,0.8967658975130206,A,696.8923750100657,Correct,sub_012_day_07_data.csv,1,300,49.0,Training at home,,,,,,,,,,,,,
12,7,1236,A,42.865846055724695,61.42056771986071,2.1432923027862345,0.964792021640144,A,1120.996790996287,Correct,sub_012_day_07_data.csv,1,300,49.0,Training at home,,,,,,,,,,,,,
12,7,1237,B,35.50029107518288,14.941761770417,1.775014553759144,0.2347046450481543,B,823.858998977812,Correct,sub_012_day_07_data.csv,1,300,49.0,Training at home,,,,,,,,,,,,,
12,7,1238,A,48.96809858004716,77.91575204069804,2.448404929002358,1.2238977710499044,A,655.4852080007549,Correct,sub_012_day_07_data.csv,1,300,49.0,Training at home,,,,,,,,,,,,,
12,7,1239,A,35.69863372076168,51.073218882209105,1.784931686038084,0.8022562461776581,A,1874.9978749838192,Correct,sub_012_day_07_data.csv,1,300,49.0,Training at home,,,,,,,,,,,,,
12,7,1240,B,43.17163312860474,28.04455383454453,2.158581656430237,0.4405228214990427,B,1464.4494999956803,Correct,sub_012_day_07_data.csv,1,300,49.0,Training at home,,,,,,,,,,,,,
12,7,1241,B,69.45951314638255,48.954548683492554,3.4729756573191275,0.7689762525193204,B,714.9839159974363,Correct,sub_012_day_07_data.csv,1,300,49.0,Training at home,,,,,,,,,,,,,
12,7,1242,B,57.67313791641682,26.44825066070678,2.883656895820841,0.415448149879889,B,1226.1448740027845,Correct,sub_012_day_07_data.csv,1,300,49.0,Training at home,,,,,,,,,,,,,
12,7,1243,A,45.5381531692432,62.626068112435725,2.27690765846216,0.9837279775262104,A,1452.9239580151625,Correct,sub_012_day_07_data.csv,1,300,49.0,Training at home,,,,,,,,,,,,,
12,7,1244,A,17.70619369467539,34.35880573548363,0.8853096847337696,0.539706858423571,A,926.6119989915752,Correct,sub_012_day_07_data.csv,1,300,49.0,Training at home,,,,,,,,,,,,,
12,7,1245,B,51.90103805000378,39.831173206611446,2.5950519025001886,0.6256666056487656,A,2067.925791023299,Incorrect,sub_012_day_07_data.csv,0,300,49.0,Training at home,,,,,,,,,,,,,
12,7,1246,A,56.505270354320864,66.47312210619181,2.825263517716043,1.0441573603499472,A,1641.092125006253,Correct,sub_012_day_07_data.csv,1,300,49.0,Training at home,,,,,,,,,,,,,
12,7,1247,B,33.974648546764506,19.327700733224216,1.6987324273382254,0.3035988131713963,B,2581.9097080093343,Correct,sub_012_day_07_data.csv,1,300,49.0,Training at home,,,,,,,,,,,,,
12,7,1248,A,27.005150144588487,46.99831980527654,1.3502575072294245,0.7382478811566021,A,967.2694159962704,Correct,sub_012_day_07_data.csv,1,300,49.0,Training at home,,,,,,,,,,,,,
12,7,1249,B,72.92280854075965,58.69391481695335,3.6461404270379822,0.9219618579968288,B,1550.0529989949428,Correct,sub_012_day_07_data.csv,1,300,49.0,Training at home,,,,,,,,,,,,,
12,7,1250,B,69.08105608454476,52.147674752802175,3.4540528042272376,0.8191337595259662,B,726.2669990013819,Correct,sub_012_day_07_data.csv,1,300,50.0,Training at home,,,,,,,,,,,,,
12,7,1251,A,47.56666841098479,54.41131757208927,2.3783334205492395,0.8546909777830843,B,1052.811291010585,Incorrect,sub_012_day_07_data.csv,0,300,50.0,Training at home,,,,,,,,,,,,,
12,7,1252,A,38.49842297676948,56.666523285019395,1.9249211488384743,0.8901156662834595,A,540.1096240093466,Correct,sub_012_day_07_data.csv,1,300,50.0,Training at home,,,,,,,,,,,,,
12,7,1253,A,27.401268966187786,48.25449033233017,1.3700634483093892,0.7579797616538408,A,541.5291659883223,Correct,sub_012_day_07_data.csv,1,300,50.0,Training at home,,,,,,,,,,,,,
12,7,1254,A,20.55229817718333,52.240640165895975,1.0276149088591666,0.8205940568200333,A,489.0739159891382,Correct,sub_012_day_07_data.csv,1,300,50.0,Training at home,,,,,,,,,,,,,
12,7,1255,A,48.200380392877065,73.39927287008526,2.4100190196438533,1.1529530821374625,A,772.2076659847517,Correct,sub_012_day_07_data.csv,1,300,50.0,Training at home,,,,,,,,,,,,,
12,7,1256,A,18.110168610492977,46.04375967205388,0.9055084305246488,0.7232536856468923,A,527.3480410105549,Correct,sub_012_day_07_data.csv,1,300,50.0,Training at home,,,,,,,,,,,,,
12,7,1257,A,47.372347356294505,56.51114841913553,2.3686173678147253,0.8876750435973932,A,717.0848319947254,Correct,sub_012_day_07_data.csv,1,300,50.0,Training at home,,,,,,,,,,,,,
12,7,1258,A,43.15848084165018,67.17545367962099,2.157924042082509,1.0551895589072935,A,656.8508740165271,Correct,sub_012_day_07_data.csv,1,300,50.0,Training at home,,,,,,,,,,,,,
12,7,1259,A,26.12011165748317,39.94091655608688,1.3060055828741586,0.6273904501512275,A,613.0067909834906,Correct,sub_012_day_07_data.csv,1,300,50.0,Training at home,,,,,,,,,,,,,
12,7,1260,A,18.119411407765732,37.07435825697176,0.9059705703882868,0.5823626576832929,A,570.5511659907643,Correct,sub_012_day_07_data.csv,1,300,50.0,Training at home,,,,,,,,,,,,,
12,7,1261,B,77.39211426505601,60.42595142651902,3.869605713252801,0.9491686254386292,B,648.8857489894144,Correct,sub_012_day_07_data.csv,1,300,50.0,Training at home,,,,,,,,,,,,,
12,7,1262,B,38.453441771724094,17.074672488178965,1.9226720885862048,0.268208328256574,B,783.7920819874853,Correct,sub_012_day_07_data.csv,1,300,50.0,Training at home,,,,,,,,,,,,,
12,7,1263,A,44.77214699340201,68.37636779959577,2.2386073496701004,1.0740534737918186,A,661.196373985149,Correct,sub_012_day_07_data.csv,1,300,50.0,Training at home,,,,,,,,,,,,,
12,7,1264,A,19.033954365926704,40.37622669147376,0.9516977182963352,0.6342282857680505,A,530.1460409827996,Correct,sub_012_day_07_data.csv,1,300,50.0,Training at home,,,,,,,,,,,,,
12,7,1265,B,66.0097027513308,38.907004882809744,3.30048513756654,0.6111498035650865,B,970.7311249803752,Correct,sub_012_day_07_data.csv,1,300,50.0,Training at home,,,,,,,,,,,,,
12,7,1266,A,22.97672025073443,52.74510159334501,1.1488360125367216,0.8285181183925,A,675.329124002019,Correct,sub_012_day_07_data.csv,1,300,50.0,Training at home,,,,,,,,,,,,,
12,7,1267,B,84.09610759820664,60.9429458671964,4.204805379910332,0.9572895551225232,B,666.0354999767151,Correct,sub_012_day_07_data.csv,1,300,50.0,Training at home,,,,,,,,,,,,,
12,7,1268,A,22.44471598341748,40.638912810997944,1.122235799170874,0.6383545496845364,A,880.0236660172231,Correct,sub_012_day_07_data.csv,1,300,50.0,Training at home,,,,,,,,,,,,,
12,7,1269,B,68.01317061656367,50.44739609430528,3.4006585308281836,0.7924258448130195,B,781.0391660023015,Correct,sub_012_day_07_data.csv,1,300,50.0,Training at home,,,,,,,,,,,,,
12,7,1270,A,15.561922131775235,35.33214948969896,0.7780961065887618,0.5549961063618731,A,544.1297910001595,Correct,sub_012_day_07_data.csv,1,300,50.0,Training at home,,,,,,,,,,,,,
12,7,1271,A,24.369592885648796,56.22909361021816,1.21847964428244,0.8832445370193707,A,778.1235000002198,Correct,sub_012_day_07_data.csv,1,300,50.0,Training at home,,,,,,,,,,,,,
12,7,1272,A,16.700350019381734,43.45705755487547,0.8350175009690867,0.6826218638051279,A,619.6394989965484,Correct,sub_012_day_07_data.csv,1,300,50.0,Training at home,,,,,,,,,,,,,
12,7,1273,A,50.43560629557464,77.15250522131566,2.521780314778732,1.2119087180466672,A,834.5629159884993,Correct,sub_012_day_07_data.csv,1,300,50.0,Training at home,,,,,,,,,,,,,
12,7,1274,B,65.5700977274228,41.4443596302071,3.2785048863711403,0.6510064787349601,B,724.3249570019543,Correct,sub_012_day_07_data.csv,1,300,50.0,Training at home,,,,,,,,,,,,,
12,7,1275,B,53.10667769725022,31.053832900814673,2.655333884862511,0.4877924665350219,B,881.7189160035923,Correct,sub_012_day_07_data.csv,1,300,51.0,Training at home,,,,,,,,,,,,,
12,7,1276,B,65.7036364998502,42.943408254229645,3.28518182499251,0.6745534794579757,B,511.7859989986755,Correct,sub_012_day_07_data.csv,1,300,51.0,Training at home,,,,,,,,,,,,,
12,7,1277,A,43.08294251286077,53.16456085713897,2.1541471256430382,0.8351069691005764,B,1096.7393750033807,Incorrect,sub_012_day_07_data.csv,0,300,51.0,Training at home,,,,,,,,,,,,,
12,7,1278,A,36.02074144688941,57.68089790133008,1.8010370723444706,0.9060494254964074,A,583.4281659917906,Correct,sub_012_day_07_data.csv,1,300,51.0,Training at home,,,,,,,,,,,,,
12,7,1279,B,80.6282354929622,56.939327081878545,4.0314117746481095,0.8944008583038799,B,645.7262490002904,Correct,sub_012_day_07_data.csv,1,300,51.0,Training at home,,,,,,,,,,,,,
12,7,1280,A,42.601623562919634,74.50213191927045,2.1300811781459816,1.1702767515717885,A,534.6829160116613,Correct,sub_012_day_07_data.csv,1,300,51.0,Training at home,,,,,,,,,,,,,
12,7,1281,B,76.0113069003623,64.78744642471366,3.8005653450181143,1.0176788286636138,B,969.7329989867284,Correct,sub_012_day_07_data.csv,1,300,51.0,Training at home,,,,,,,,,,,,,
12,7,1282,B,54.83852388614732,38.88691245611691,2.741926194307366,0.6108341924646316,B,528.6165820143651,Correct,sub_012_day_07_data.csv,1,300,51.0,Training at home,,,,,,,,,,,,,
12,7,1283,B,40.72995268828345,16.69711503200423,2.0364976344141725,0.2622776696034409,B,578.1175819865894,Correct,sub_012_day_07_data.csv,1,300,51.0,Training at home,,,,,,,,,,,,,
12,7,1284,B,60.31918251095249,38.17076711915411,3.0159591255476244,0.5995850078171069,B,508.13695800025016,Correct,sub_012_day_07_data.csv,1,300,51.0,Training at home,,,,,,,,,,,,,
12,7,1285,B,73.67740954011629,57.424288120113175,3.683870477005814,0.902018608478856,B,518.8428749970626,Correct,sub_012_day_07_data.csv,1,300,51.0,Training at home,,,,,,,,,,,,,
12,7,1286,A,45.35702116445158,56.667672687811304,2.267851058222579,0.8901337210602948,B,768.4544159856159,Incorrect,sub_012_day_07_data.csv,0,300,51.0,Training at home,,,,,,,,,,,,,
12,7,1287,A,42.14313411200688,66.2480448025078,2.1071567056003437,1.04062185433123,A,532.4750829895493,Correct,sub_012_day_07_data.csv,1,300,51.0,Training at home,,,,,,,,,,,,,
12,7,1288,A,43.6403646676536,53.23243185862001,2.18201823338268,0.8361730842987994,B,730.4459160077386,Incorrect,sub_012_day_07_data.csv,0,300,51.0,Training at home,,,,,,,,,,,,,
12,7,1289,A,54.311085187400224,68.95474407433552,2.7155542593700113,1.083138587070484,A,1371.817708015442,Correct,sub_012_day_07_data.csv,1,300,51.0,Training at home,,,,,,,,,,,,,
12,7,1290,A,27.235236640442963,58.47389895756705,1.361761832022148,0.9185058569592226,A,564.7655829961877,Correct,sub_012_day_07_data.csv,1,300,51.0,Training at home,,,,,,,,,,,,,
12,7,1291,B,38.17194307592713,19.480458985159423,1.9085971537963564,0.3059983341816705,B,742.4588750000112,Correct,sub_012_day_07_data.csv,1,300,51.0,Training at home,,,,,,,,,,,,,
12,7,1292,A,48.491307693251,70.2629551702233,2.42456538466255,1.1036879189114124,A,563.6481660185382,Correct,sub_012_day_07_data.csv,1,300,51.0,Training at home,,,,,,,,,,,,,
12,7,1293,B,89.49838822590579,66.78882805168524,4.474919411295289,1.0491164577452312,B,575.6861240079161,Correct,sub_012_day_07_data.csv,1,300,51.0,Training at home,,,,,,,,,,,,,
12,7,1294,A,54.912383420003806,83.92142091590487,2.7456191710001905,1.3182345971411178,A,583.8674159895163,Correct,sub_012_day_07_data.csv,1,300,51.0,Training at home,,,,,,,,,,,,,
12,7,1295,B,46.70215953702982,37.742721547699304,2.335107976851491,0.5928612837036866,B,689.5008749852423,Correct,sub_012_day_07_data.csv,1,300,51.0,Training at home,,,,,,,,,,,,,
12,7,1296,B,74.70509687960278,60.21205758823997,3.7352548439801385,0.9458087888837012,B,594.7760409908369,Correct,sub_012_day_07_data.csv,1,300,51.0,Training at home,,,,,,,,,,,,,
12,7,1297,A,54.00585099366489,80.82644797257949,2.700292549683245,1.2696188758320666,A,548.2419159961864,Correct,sub_012_day_07_data.csv,1,300,51.0,Training at home,,,,,,,,,,,,,
12,7,1298,B,50.40620004213392,37.25754094149679,2.520310002106696,0.5852400845631364,B,546.3025830104016,Correct,sub_012_day_07_data.csv,1,300,51.0,Training at home,,,,,,,,,,,,,
12,7,1299,B,62.27854019858226,41.63137418663579,3.1139270099291134,0.6539440965179137,B,574.0454570041038,Correct,sub_012_day_07_data.csv,1,300,51.0,Training at home,,,,,,,,,,,,,
12,7,1300,B,77.3240464921542,47.930558593025594,3.86620232460771,0.7528914537915217,B,533.8428739923984,Correct,sub_012_day_07_data.csv,1,300,52.0,Training at home,,,,,,,,,,,,,
12,7,1301,B,48.82531116357059,18.38949398157078,2.441265558178529,0.2888614959786824,B,640.0772909983061,Correct,sub_012_day_07_data.csv,1,300,52.0,Training at home,,,,,,,,,,,,,
12,7,1302,B,46.381355932970465,31.7185698103587,2.319067796648523,0.4982341294929894,B,491.01895801140927,Correct,sub_012_day_07_data.csv,1,300,52.0,Training at home,,,,,,,,,,,,,
12,7,1303,B,65.99757633123237,35.63005939210752,3.2998788165616184,0.5596756641660648,B,456.8037079880014,Correct,sub_012_day_07_data.csv,1,300,52.0,Training at home,,,,,,,,,,,,,
12,7,1304,B,48.085668845687536,26.642216552901903,2.4042834422843766,0.418494958989725,B,441.6359580063727,Correct,sub_012_day_07_data.csv,1,300,52.0,Training at home,,,,,,,,,,,,,
12,7,1305,A,39.06147143621861,48.71768068425797,1.9530735718109304,0.7652555386879911,A,828.8457910239231,Correct,sub_012_day_07_data.csv,1,300,52.0,Training at home,,,,,,,,,,,,,
12,7,1306,A,61.54636762096345,83.84470177022544,3.077318381048173,1.3170294956188369,A,681.9640410249121,Correct,sub_012_day_07_data.csv,1,300,52.0,Training at home,,,,,,,,,,,,,
12,7,1307,A,30.924370271986433,43.33521610987648,1.5462185135993218,0.6807079828625702,A,470.4178319952917,Correct,sub_012_day_07_data.csv,1,300,52.0,Training at home,,,,,,,,,,,,,
12,7,1308,A,20.46834530166479,39.30095429298809,1.0234172650832398,0.617337946429598,A,606.8915829819161,Correct,sub_012_day_07_data.csv,1,300,52.0,Training at home,,,,,,,,,,,,,
12,7,1309,A,46.41024990975912,63.17633067874816,2.3205124954879555,0.9923714817055734,A,473.175374994753,Correct,sub_012_day_07_data.csv,1,300,52.0,Training at home,,,,,,,,,,,,,
12,7,1310,A,65.2470147297309,88.85525594986926,3.262350736486545,1.39573509662475,A,579.3625410005916,Correct,sub_012_day_07_data.csv,1,300,52.0,Training at home,,,,,,,,,,,,,
12,7,1311,A,39.28749562576479,54.74034075274258,1.9643747812882395,0.8598592618190903,A,789.4136660033837,Correct,sub_012_day_07_data.csv,1,300,52.0,Training at home,,,,,,,,,,,,,
12,7,1312,B,64.65315816840835,38.1349557821782,3.2326579084204177,0.5990224846513132,B,632.6836239895783,Correct,sub_012_day_07_data.csv,1,300,52.0,Training at home,,,,,,,,,,,,,
12,7,1313,A,34.88410212828141,64.78307892489393,1.744205106414071,1.0176102241368723,A,1641.6992910089905,Correct,sub_012_day_07_data.csv,1,300,52.0,Training at home,,,,,,,,,,,,,
12,7,1314,A,26.0143283261828,43.14752786025559,1.30071641630914,0.6777597827316996,A,1162.3665830120444,Correct,sub_012_day_07_data.csv,1,300,52.0,Training at home,,,,,,,,,,,,,
12,7,1315,B,53.65800263851871,36.015631473285396,2.6829001319259356,0.5657322162543537,B,1378.3807909931056,Correct,sub_012_day_07_data.csv,1,300,52.0,Training at home,,,,,,,,,,,,,
12,7,1316,A,33.955151619887076,44.40326809601077,1.697757580994354,0.6974849042290272,A,787.6145409827586,Correct,sub_012_day_07_data.csv,1,300,52.0,Training at home,,,,,,,,,,,,,
12,7,1317,B,80.3010047462944,58.68586056812654,4.015050237314719,0.9218353421521064,B,573.085498996079,Correct,sub_012_day_07_data.csv,1,300,52.0,Training at home,,,,,,,,,,,,,
12,7,1318,B,72.69109868654607,43.36828103601852,3.634554934327304,0.6812273655078667,B,469.8866659891792,Correct,sub_012_day_07_data.csv,1,300,52.0,Training at home,,,,,,,,,,,,,
12,7,1319,B,79.06335084078309,54.2531087461761,3.953167542039154,0.852205839356975,B,658.5565409914125,Correct,sub_012_day_07_data.csv,1,300,52.0,Training at home,,,,,,,,,,,,,
12,7,1320,A,59.68420343727607,82.444070256856,2.9842101718638037,1.295028427254898,A,634.392415988259,Correct,sub_012_day_07_data.csv,1,300,52.0,Training at home,,,,,,,,,,,,,
12,7,1321,A,47.09763099550423,61.59031298608481,2.354881549775212,0.9674583740469004,A,743.1516240176279,Correct,sub_012_day_07_data.csv,1,300,52.0,Training at home,,,,,,,,,,,,,
12,7,1322,B,45.67690748380629,35.930474579761544,2.283845374190314,0.5643945748988684,B,860.4938329954166,Correct,sub_012_day_07_data.csv,1,300,52.0,Training at home,,,,,,,,,,,,,
12,7,1323,B,64.91017270995415,44.602580464944594,3.245508635497708,0.7006156955990878,B,512.0405000052415,Correct,sub_012_day_07_data.csv,1,300,52.0,Training at home,,,,,,,,,,,,,
12,7,1324,A,22.21596846706494,49.006489505709006,1.110798423353247,0.7697921370468035,A,698.1637910066638,Correct,sub_012_day_07_data.csv,1,300,52.0,Training at home,,,,,,,,,,,,,
12,7,1325,B,62.5421353855969,54.613415122301504,3.1271067692798447,0.8578655186783607,B,581.9034159940202,Correct,sub_012_day_07_data.csv,1,300,53.0,Training at home,,,,,,,,,,,,,
12,7,1326,A,34.09059389314125,52.40832029492895,1.7045296946570627,0.823227970127648,A,704.3310000153724,Correct,sub_012_day_07_data.csv,1,300,53.0,Training at home,,,,,,,,,,,,,
12,7,1327,B,50.02999402598024,35.26859806079666,2.501499701299012,0.55399784285105,B,571.4102910133079,Correct,sub_012_day_07_data.csv,1,300,53.0,Training at home,,,,,,,,,,,,,
12,7,1328,B,59.68147077520817,30.269394240321567,2.9840735387604083,0.4754705328700371,B,482.65429100138135,Correct,sub_012_day_07_data.csv,1,300,53.0,Training at home,,,,,,,,,,,,,
12,7,1329,B,78.96025467383593,57.91490802458565,3.948012733691797,0.909725247916834,B,500.10387401562184,Correct,sub_012_day_07_data.csv,1,300,53.0,Training at home,,,,,,,,,,,,,
12,7,1330,B,56.90651338247722,46.89937885580866,2.845325669123861,0.7366937203566648,B,584.1099160024896,Correct,sub_012_day_07_data.csv,1,300,53.0,Training at home,,,,,,,,,,,,,
12,7,1331,A,41.11033775229496,51.67558748681854,2.055516887614748,0.8117182300926288,A,804.3036239978392,Correct,sub_012_day_07_data.csv,1,300,53.0,Training at home,,,,,,,,,,,,,
12,7,1332,A,17.866222993706554,39.05079171750855,0.8933111496853278,0.61340840188295,A,581.475291022798,Correct,sub_012_day_07_data.csv,1,300,53.0,Training at home,,,,,,,,,,,,,
12,7,1333,B,47.49864844133096,31.24527248662248,2.374932422066548,0.4907995925169223,B,663.882791006472,Correct,sub_012_day_07_data.csv,1,300,53.0,Training at home,,,,,,,,,,,,,
12,7,1334,B,62.86205759494042,41.76714099853819,3.143102879747021,0.6560767166122832,B,599.4233329838607,Correct,sub_012_day_07_data.csv,1,300,53.0,Training at home,,,,,,,,,,,,,
12,7,1335,A,31.224567630011503,47.364115726621755,1.5612283815005754,0.7439937900526584,A,511.5350410051178,Correct,sub_012_day_07_data.csv,1,300,53.0,Training at home,,,,,,,,,,,,,
12,7,1336,A,62.33831660882729,72.73525625460236,3.1169158304413647,1.142522733532149,A,764.9189159856178,Correct,sub_012_day_07_data.csv,1,300,53.0,Training at home,,,,,,,,,,,,,
12,7,1337,A,17.987023636871946,41.89299468816529,0.8993511818435974,0.6580536217460815,A,960.6994159985334,Correct,sub_012_day_07_data.csv,1,300,53.0,Training at home,,,,,,,,,,,,,
12,7,1338,B,48.69625080278047,37.76592423029541,2.4348125401390233,0.593225750589624,B,1657.5236659846269,Correct,sub_012_day_07_data.csv,1,300,53.0,Training at home,,,,,,,,,,,,,
12,7,1339,B,37.22649418449966,12.629747489017362,1.8613247092249827,0.1983876096409554,B,729.0959990059491,Correct,sub_012_day_07_data.csv,1,300,53.0,Training at home,,,,,,,,,,,,,
12,7,1340,A,19.284046182447145,45.96624559920214,0.9642023091223572,0.7220360974377881,A,945.1553749968298,Correct,sub_012_day_07_data.csv,1,300,53.0,Training at home,,,,,,,,,,,,,
12,7,1341,B,63.32794893925375,47.790976730229715,3.166397446962687,0.7506989070178521,B,1057.9542079940438,Correct,sub_012_day_07_data.csv,1,300,53.0,Training at home,,,,,,,,,,,,,
12,7,1342,B,79.58457481302574,58.12812624367106,3.9792287406512865,0.9130744718702852,B,1243.0631659808569,Correct,sub_012_day_07_data.csv,1,300,53.0,Training at home,,,,,,,,,,,,,
12,7,1343,A,28.325796659430207,48.75511319936813,1.4162898329715103,0.7658435272603684,A,1366.9098740210757,Correct,sub_012_day_07_data.csv,1,300,53.0,Training at home,,,,,,,,,,,,,
12,7,1344,A,42.015932183302134,59.99727489899236,2.1007966091651067,0.9424349902904084,A,1090.6246660160832,Correct,sub_012_day_07_data.csv,1,300,53.0,Training at home,,,,,,,,,,,,,
12,7,1345,B,67.7654673722315,49.88862395601665,3.388273368611575,0.7836486725896283,B,2563.4958320006263,Correct,sub_012_day_07_data.csv,1,300,53.0,Training at home,,,,,,,,,,,,,
12,7,1346,B,65.89847858590831,56.89050074925595,3.2949239292954156,0.8936338960645357,B,3043.229708011495,Correct,sub_012_day_07_data.csv,1,300,53.0,Training at home,,,,,,,,,,,,,
12,7,1347,B,53.008161815527885,35.94454402823089,2.6504080907763945,0.5646155772786251,B,2173.5900830244645,Correct,sub_012_day_07_data.csv,1,300,53.0,Training at home,,,,,,,,,,,,,
12,7,1348,B,51.07281750842749,41.17875363287656,2.553640875421374,0.6468343494851451,B,1523.887666000519,Correct,sub_012_day_07_data.csv,1,300,53.0,Training at home,,,,,,,,,,,,,
12,7,1349,B,45.363373668594775,23.297490094767134,2.2681686834297388,0.365956118644007,B,2491.3108320033643,Correct,sub_012_day_07_data.csv,1,300,53.0,Training at home,,,,,,,,,,,,,
12,7,1350,A,18.936223500965134,48.306732724134825,0.946811175048257,0.758800383225338,A,912.8009570122232,Correct,sub_012_day_07_data.csv,1,300,54.0,Training at home,,,,,,,,,,,,,
12,7,1351,B,55.73717412597546,26.98519325073303,2.786858706298773,0.4238824243610187,B,1183.1600830191746,Correct,sub_012_day_07_data.csv,1,300,54.0,Training at home,,,,,,,,,,,,,
12,7,1352,B,49.215243412408626,20.92747396099733,2.4607621706204315,0.3287279922703045,B,905.0724160042593,Correct,sub_012_day_07_data.csv,1,300,54.0,Training at home,,,,,,,,,,,,,
12,7,1353,B,39.431041573958474,21.627996296958703,1.9715520786979237,0.3397317713919636,B,731.2009989982471,Correct,sub_012_day_07_data.csv,1,300,54.0,Training at home,,,,,,,,,,,,,
12,7,1354,A,29.268990270634504,56.711569964100065,1.4634495135317251,0.8908232578638017,A,1046.8460409902036,Correct,sub_012_day_07_data.csv,1,300,54.0,Training at home,,,,,,,,,,,,,
12,7,1355,B,83.36904633418331,54.20106474660635,4.168452316709165,0.851388334123416,B,518.1107079843059,Correct,sub_012_day_07_data.csv,1,300,54.0,Training at home,,,,,,,,,,,,,
12,7,1356,B,76.6211422609424,44.240977299994526,3.831057113047121,0.694935646366478,B,751.2257909984328,Correct,sub_012_day_07_data.csv,1,300,54.0,Training at home,,,,,,,,,,,,,
12,7,1357,B,66.92364326784374,52.77936386636685,3.3461821633921875,0.8290563089186034,B,522.6882080023643,Correct,sub_012_day_07_data.csv,1,300,54.0,Training at home,,,,,,,,,,,,,
12,7,1358,A,46.536506755754054,56.6680149703858,2.3268253377877026,0.8901390976224022,A,1652.568748977501,Correct,sub_012_day_07_data.csv,1,300,54.0,Training at home,,,,,,,,,,,,,
12,7,1359,A,44.43183813906941,60.19004844444966,2.22159190695347,0.945463070061484,A,1680.387415981386,Correct,sub_012_day_07_data.csv,1,300,54.0,Training at home,,,,,,,,,,,,,
12,7,1360,A,21.064394249281857,48.79723054753914,1.0532197124640927,0.766505105018382,A,894.4336239947006,Correct,sub_012_day_07_data.csv,1,300,54.0,Training at home,,,,,,,,,,,,,
12,7,1361,B,74.33842644189329,55.7733461627018,3.716921322094664,0.8760856728543222,B,399.4692909764126,Correct,sub_012_day_07_data.csv,1,300,54.0,Training at home,,,,,,,,,,,,,
12,7,1362,B,39.939109109932176,23.351745175951397,1.996955455496609,0.366808355466349,B,1530.535665981006,Correct,sub_012_day_07_data.csv,1,300,54.0,Training at home,,,,,,,,,,,,,
12,7,1363,B,49.46078533505805,38.0740440084482,2.4730392667529024,0.5980656847469767,B,655.523625027854,Correct,sub_012_day_07_data.csv,1,300,54.0,Training at home,,,,,,,,,,,,,
12,7,1364,A,39.62547050040301,69.69407882197409,1.9812735250201507,1.094752030129109,A,962.3521240137052,Correct,sub_012_day_07_data.csv,1,300,54.0,Training at home,,,,,,,,,,,,,
12,7,1365,B,54.96110015912283,30.677991009443723,2.748055007956142,0.4818887559108106,B,907.2630830050912,Correct,sub_012_day_07_data.csv,1,300,54.0,Training at home,,,,,,,,,,,,,
12,7,1366,A,24.532565213268335,51.397508864402894,1.226628260663417,0.8073501813061219,A,724.5167079963721,Correct,sub_012_day_07_data.csv,1,300,54.0,Training at home,,,,,,,,,,,,,
12,7,1367,B,56.19106580272782,49.22432731052261,2.809553290136391,0.7732139252831861,B,1179.9165410047865,Correct,sub_012_day_07_data.csv,1,300,54.0,Training at home,,,,,,,,,,,,,
12,7,1368,B,46.31693851182888,18.353896372148405,2.315846925591444,0.2883023300374489,B,1360.7096660125535,Correct,sub_012_day_07_data.csv,1,300,54.0,Training at home,,,,,,,,,,,,,
12,7,1369,B,82.94952394213692,53.093858994630395,4.147476197106846,0.8339963868413162,B,1230.0982080050744,Correct,sub_012_day_07_data.csv,1,300,54.0,Training at home,,,,,,,,,,,,,
12,7,1370,A,32.703601982322745,64.36779917529125,1.6351800991161372,1.0110870250841908,A,569.3659999815281,Correct,sub_012_day_07_data.csv,1,300,54.0,Training at home,,,,,,,,,,,,,
12,7,1371,B,64.35294154378171,51.09743308871569,3.2176470771890853,0.8026366020440262,B,797.399999020854,Correct,sub_012_day_07_data.csv,1,300,54.0,Training at home,,,,,,,,,,,,,
12,7,1372,B,73.36867250203655,59.59605818638514,3.668433625101827,0.9361326929062872,B,730.4577910108492,Correct,sub_012_day_07_data.csv,1,300,54.0,Training at home,,,,,,,,,,,,,
12,7,1373,B,85.59911567689193,68.22095680367612,4.2799557838445965,1.0716122835764776,B,1543.9780410088133,Correct,sub_012_day_07_data.csv,1,300,54.0,Training at home,,,,,,,,,,,,,
12,7,1374,B,32.539756050645195,10.297530315257523,1.6269878025322595,0.1617532279426561,B,2364.3635410116985,Correct,sub_012_day_07_data.csv,1,300,54.0,Training at home,,,,,,,,,,,,,
12,7,1375,B,50.39643430690838,33.55282936248671,2.519821715345419,0.5270466111617007,B,847.5200409884565,Correct,sub_012_day_07_data.csv,1,300,55.0,Training at home,,,,,,,,,,,,,
12,7,1376,A,28.90860628418003,55.61429475759896,1.4454303142090017,0.8735872992252514,A,1764.2752490064595,Correct,sub_012_day_07_data.csv,1,300,55.0,Training at home,,,,,,,,,,,,,
12,7,1377,B,55.530217464980126,30.018306267868397,2.7765108732490065,0.4715264522217189,B,889.5904159871861,Correct,sub_012_day_07_data.csv,1,300,55.0,Training at home,,,,,,,,,,,,,
12,7,1378,A,47.36408503242603,67.49535591566595,2.3682042516213015,1.0602145714804223,A,1356.218875007471,Correct,sub_012_day_07_data.csv,1,300,55.0,Training at home,,,,,,,,,,,,,
12,7,1379,A,36.404293443298776,50.927308097759834,1.8202146721649388,0.7999642849351313,A,1352.3425409803167,Correct,sub_012_day_07_data.csv,1,300,55.0,Training at home,,,,,,,,,,,,,
12,7,1380,A,24.20757031289593,51.90114114265903,1.2103785156447964,0.8152612186335229,A,555.5548330012243,Correct,sub_012_day_07_data.csv,1,300,55.0,Training at home,,,,,,,,,,,,,
12,7,1381,B,87.00970498897964,59.957350729084624,4.350485249448982,0.9418078628959944,B,531.8057489930652,Correct,sub_012_day_07_data.csv,1,300,55.0,Training at home,,,,,,,,,,,,,
12,7,1382,B,64.19338038375278,38.744228345178335,3.2096690191876394,0.6085929156910884,B,601.629541022703,Correct,sub_012_day_07_data.csv,1,300,55.0,Training at home,,,,,,,,,,,,,
12,7,1383,B,39.947971462423624,22.25509690425971,1.9973985731211812,0.3495822446967563,B,811.9744570285548,Correct,sub_012_day_07_data.csv,1,300,55.0,Training at home,,,,,,,,,,,,,
12,7,1384,B,61.46657914653561,45.25517467667042,3.07332895732678,0.7108666215057531,B,490.91120800585486,Correct,sub_012_day_07_data.csv,1,300,55.0,Training at home,,,,,,,,,,,,,
12,7,1385,B,53.97535596540382,37.84793606622335,2.698767798270191,0.5945139894959172,B,577.7798740018625,Correct,sub_012_day_07_data.csv,1,300,55.0,Training at home,,,,,,,,,,,,,
12,7,1386,A,24.09039832771245,40.71432001958659,1.2045199163856224,0.6395390433471854,A,570.3747909865342,Correct,sub_012_day_07_data.csv,1,300,55.0,Training at home,,,,,,,,,,,,,
12,7,1387,B,48.44824280252477,19.560161978905835,2.422412140126238,0.3072503058797848,B,670.0592490087729,Correct,sub_012_day_07_data.csv,1,300,55.0,Training at home,,,,,,,,,,,,,
12,7,1388,A,68.93995486294834,87.4645706459753,3.446997743147417,1.3738902629539071,A,625.4854990111198,Correct,sub_012_day_07_data.csv,1,300,55.0,Training at home,,,,,,,,,,,,,
12,7,1389,A,55.84105770319358,76.21363218839024,2.792052885159679,1.1971609349322068,A,900.9008329885546,Correct,sub_012_day_07_data.csv,1,300,55.0,Training at home,,,,,,,,,,,,,
12,7,1390,A,49.56200027461513,63.29328151946632,2.4781000137307565,0.99420854121573,A,1512.1028739959002,Correct,sub_012_day_07_data.csv,1,300,55.0,Training at home,,,,,,,,,,,,,
12,7,1391,A,67.736280341445,80.75399625521649,3.3868140170722496,1.268480806917029,A,661.2101239734329,Correct,sub_012_day_07_data.csv,1,300,55.0,Training at home,,,,,,,,,,,,,
12,7,1392,A,43.06760063957672,63.53503539883059,2.153380031978836,0.9980060022726682,A,1332.1714159974365,Correct,sub_012_day_07_data.csv,1,300,55.0,Training at home,,,,,,,,,,,,,
12,7,1393,A,13.87542104287381,39.409959898590294,0.6937710521436905,0.6190502024783981,A,599.5627489755861,Correct,sub_012_day_07_data.csv,1,300,55.0,Training at home,,,,,,,,,,,,,
12,7,1394,A,29.924555059736008,51.716006106061705,1.4962277529868004,0.8123531242790416,A,1099.8623740160838,Correct,sub_012_day_07_data.csv,1,300,55.0,Training at home,,,,,,,,,,,,,
12,7,1395,A,42.77611137596547,55.8224255775894,2.1388055687982734,0.8768566105005889,A,1392.6421239739284,Correct,sub_012_day_07_data.csv,1,300,55.0,Training at home,,,,,,,,,,,,,
12,7,1396,A,25.06366861087564,38.70646100120616,1.253183430543782,0.6079996676392454,A,571.1420830048155,Correct,sub_012_day_07_data.csv,1,300,55.0,Training at home,,,,,,,,,,,,,
12,7,1397,A,26.333795888639003,40.802473021309964,1.3166897944319502,0.6409237474602155,A,540.5549989955034,Correct,sub_012_day_07_data.csv,1,300,55.0,Training at home,,,,,,,,,,,,,
12,7,1398,B,70.27476887040568,41.03930255924439,3.513738443520284,0.6446438571428549,B,522.8253319801297,Correct,sub_012_day_07_data.csv,1,300,55.0,Training at home,,,,,,,,,,,,,
12,7,1399,B,62.7215716085878,35.32760171745791,3.1360785804293903,0.5549246701225597,B,453.0045000137761,Correct,sub_012_day_07_data.csv,1,300,55.0,Training at home,,,,,,,,,,,,,
12,7,1400,A,63.54706512773228,86.14507818438506,3.177353256386614,1.353163723834912,A,678.0207080009859,Correct,sub_012_day_07_data.csv,1,300,56.0,Training at home,,,,,,,,,,,,,
12,7,1401,B,67.9296899159976,50.37953200750777,3.39648449579988,0.791359838230391,B,513.2819990103599,Correct,sub_012_day_07_data.csv,1,300,56.0,Training at home,,,,,,,,,,,,,
12,7,1402,B,76.45030324746554,52.46807577690247,3.8225151623732767,0.8241666070435468,B,498.5772910004016,Correct,sub_012_day_07_data.csv,1,300,56.0,Training at home,,,,,,,,,,,,,
12,7,1403,A,26.821975280994113,37.79866425739792,1.3410987640497058,0.593740029732742,A,599.4256660051178,Correct,sub_012_day_07_data.csv,1,300,56.0,Training at home,,,,,,,,,,,,,
12,7,1404,B,52.40736067107116,33.28912760501882,2.620368033553558,0.5229043936417016,B,637.1524580172263,Correct,sub_012_day_07_data.csv,1,300,56.0,Training at home,,,,,,,,,,,,,
12,7,1405,A,49.87080623051988,80.3435552708392,2.493540311525994,1.2620336150107698,A,640.4516250186134,Correct,sub_012_day_07_data.csv,1,300,56.0,Training at home,,,,,,,,,,,,,
12,7,1406,B,70.90026567915942,42.0529503321617,3.545013283957971,0.6605661991264782,B,1139.1520829929505,Correct,sub_012_day_07_data.csv,1,300,56.0,Training at home,,,,,,,,,,,,,
12,7,1407,B,53.09606785534249,41.05327528721779,2.654803392767125,0.644863340240614,B,664.0477490145713,Correct,sub_012_day_07_data.csv,1,300,56.0,Training at home,,,,,,,,,,,,,
12,7,1408,B,59.615077450987584,31.332134803858747,2.9807538725493794,0.4921640226054385,B,489.7236239921767,Correct,sub_012_day_07_data.csv,1,300,56.0,Training at home,,,,,,,,,,,,,
12,7,1409,B,64.27385704551847,36.191026330166075,3.2136928522759236,0.5684873122236225,B,598.3767079887912,Correct,sub_012_day_07_data.csv,1,300,56.0,Training at home,,,,,,,,,,,,,
12,7,1410,A,43.06584481476889,72.71220847583007,2.1532922407384443,1.142160699869786,A,681.6220830078237,Correct,sub_012_day_07_data.csv,1,300,56.0,Training at home,,,,,,,,,,,,,
12,7,1411,B,79.2977424894174,53.561425351593186,3.9648871244708697,0.8413409020018163,B,421.8305829854216,Correct,sub_012_day_07_data.csv,1,300,56.0,Training at home,,,,,,,,,,,,,
12,7,1412,A,51.2144085948478,63.36918697767486,2.5607204297423896,0.9954008613651066,A,866.2470830022357,Correct,sub_012_day_07_data.csv,1,300,56.0,Training at home,,,,,,,,,,,,,
12,7,1413,A,30.11045232038299,54.109647843813995,1.5055226160191495,0.8499523607722842,A,845.2923749864567,Correct,sub_012_day_07_data.csv,1,300,56.0,Training at home,,,,,,,,,,,,,
12,7,1414,B,52.41696227426051,42.15645867367799,2.6208481137130257,0.6621921043529424,A,620.6373750173952,Incorrect,sub_012_day_07_data.csv,0,300,56.0,Training at home,,,,,,,,,,,,,
12,7,1415,A,18.69849245271235,39.73524522878425,0.9349246226356176,0.6241597724966875,A,546.5582910110243,Correct,sub_012_day_07_data.csv,1,300,56.0,Training at home,,,,,,,,,,,,,
12,7,1416,B,63.77313353783279,42.841777942137185,3.1886566768916396,0.6729570742487171,B,541.8270410154946,Correct,sub_012_day_07_data.csv,1,300,56.0,Training at home,,,,,,,,,,,,,
12,7,1417,B,53.23000907991814,32.03614041042836,2.661500453995907,0.5032225168138642,B,607.8268749988638,Correct,sub_012_day_07_data.csv,1,300,56.0,Training at home,,,,,,,,,,,,,
12,7,1418,B,55.54675667034885,35.31401917315598,2.7773378335174423,0.5547113160155795,B,520.979623979656,Correct,sub_012_day_07_data.csv,1,300,56.0,Training at home,,,,,,,,,,,,,
12,7,1419,A,57.89858159280327,82.97753418129761,2.8949290796401637,1.3034080589848027,A,622.9163329990115,Correct,sub_012_day_07_data.csv,1,300,56.0,Training at home,,,,,,,,,,,,,
12,7,1420,A,62.540096025565745,76.60678903088976,3.127004801278287,1.203336628172732,A,1082.9499160172418,Correct,sub_012_day_07_data.csv,1,300,56.0,Training at home,,,,,,,,,,,,,
12,7,1421,B,34.21545582223199,14.178100179572237,1.7107727911115995,0.2227090768300213,B,565.649415977532,Correct,sub_012_day_07_data.csv,1,300,56.0,Training at home,,,,,,,,,,,,,
12,7,1422,A,19.60097348410939,38.921178540631985,0.9800486742054696,0.6113724428615307,A,703.9694990089629,Correct,sub_012_day_07_data.csv,1,300,56.0,Training at home,,,,,,,,,,,,,
12,7,1423,B,83.13673494689182,57.81433467155436,4.156836747344591,0.9081454453816844,B,482.50812402693555,Correct,sub_012_day_07_data.csv,1,300,56.0,Training at home,,,,,,,,,,,,,
12,7,1424,A,43.48962347058002,55.25782467287059,2.174481173529001,0.8679878802282153,A,3004.182790988125,Correct,sub_012_day_07_data.csv,1,300,56.0,Training at home,,,,,,,,,,,,,
12,7,1425,B,78.72722668396936,58.4838589406252,3.936361334198468,0.9186623080072492,B,553.2108329934999,Correct,sub_012_day_07_data.csv,1,300,57.0,Training at home,,,,,,,,,,,,,
12,7,1426,A,57.22206829396153,68.54166404580873,2.8611034146980763,1.0766499411556618,A,1285.11637399788,Correct,sub_012_day_07_data.csv,1,300,57.0,Training at home,,,,,,,,,,,,,
12,7,1427,B,62.38705980334873,37.416476918637926,3.119352990167436,0.5877366450540248,B,571.1402489978354,Correct,sub_012_day_07_data.csv,1,300,57.0,Training at home,,,,,,,,,,,,,
12,7,1428,A,57.490205672524795,78.8916172328552,2.8745102836262397,1.239226625642779,A,696.1251249886118,Correct,sub_012_day_07_data.csv,1,300,57.0,Training at home,,,,,,,,,,,,,
12,7,1429,A,26.33871814879923,52.598785317339306,1.3169359074399616,0.8262197877034991,B,574.700291006593,Incorrect,sub_012_day_07_data.csv,0,300,57.0,Training at home,,,,,,,,,,,,,
12,7,1430,B,75.23156706124489,51.548941037833366,3.761578353062245,0.8097288723239535,B,496.39245800790377,Correct,sub_012_day_07_data.csv,1,300,57.0,Training at home,,,,,,,,,,,,,
12,7,1431,A,53.52334317097062,70.35879890311534,2.676167158548531,1.1051934287471437,A,702.6325819897465,Correct,sub_012_day_07_data.csv,1,300,57.0,Training at home,,,,,,,,,,,,,
12,7,1432,A,61.363069193712406,76.83019984879094,3.0681534596856204,1.2068459570939862,A,1604.0932909818366,Correct,sub_012_day_07_data.csv,1,300,57.0,Training at home,,,,,,,,,,,,,
12,7,1433,A,31.62240445749625,62.26689430322505,1.5811202228748125,0.97808608852432,A,654.0027910086792,Correct,sub_012_day_07_data.csv,1,300,57.0,Training at home,,,,,,,,,,,,,
12,7,1434,B,57.00848036619141,39.12282869007469,2.85042401830957,0.6145399560019532,B,1190.3637909854297,Correct,sub_012_day_07_data.csv,1,300,57.0,Training at home,,,,,,,,,,,,,
12,7,1435,A,22.125978711140956,52.02318285857649,1.1062989355570478,0.8171782454243117,A,601.8792490067426,Correct,sub_012_day_07_data.csv,1,300,57.0,Training at home,,,,,,,,,,,,,
12,7,1436,A,58.725214588464105,72.83204313096611,2.9362607294232053,1.1440430582308905,A,688.4462080197409,Correct,sub_012_day_07_data.csv,1,300,57.0,Training at home,,,,,,,,,,,,,
12,7,1437,A,59.84452331374405,86.51496593460236,2.9922261656872022,1.3589739070285898,A,607.7198330021929,Correct,sub_012_day_07_data.csv,1,300,57.0,Training at home,,,,,,,,,,,,,
12,7,1438,A,38.98968492278408,53.90718964655218,1.949484246139204,0.8467721548464003,A,1245.9837080095897,Correct,sub_012_day_07_data.csv,1,300,57.0,Training at home,,,,,,,,,,,,,
12,7,1439,A,65.22995450080617,75.63484841957288,3.2614977250403085,1.1880694207515383,A,811.4823749929201,Correct,sub_012_day_07_data.csv,1,300,57.0,Training at home,,,,,,,,,,,,,
12,7,1440,A,46.88328425924412,75.08942542311605,2.3441642129622062,1.1795019363577002,A,818.4972909803037,Correct,sub_012_day_07_data.csv,1,300,57.0,Training at home,,,,,,,,,,,,,
12,7,1441,A,32.549644746754275,42.69006620365979,1.6274822373377136,0.6705739918333975,A,1261.9917070260271,Correct,sub_012_day_07_data.csv,1,300,57.0,Training at home,,,,,,,,,,,,,
12,7,1442,A,32.02902099379021,65.19784254438981,1.6014510496895105,1.0241253158367956,A,1039.8975409916602,Correct,sub_012_day_07_data.csv,1,300,57.0,Training at home,,,,,,,,,,,,,
12,7,1443,A,22.251174715069507,49.36730712025826,1.1125587357534754,0.7754598468825722,A,1039.976041007321,Correct,sub_012_day_07_data.csv,1,300,57.0,Training at home,,,,,,,,,,,,,
12,7,1444,B,52.246406493422995,26.615077355655245,2.61232032467115,0.4180686574762528,B,1188.5142069950234,Correct,sub_012_day_07_data.csv,1,300,57.0,Training at home,,,,,,,,,,,,,
12,7,1445,A,48.29257607409579,63.14373446348208,2.4146288037047894,0.9918594615534998,A,1161.8233319895808,Correct,sub_012_day_07_data.csv,1,300,57.0,Training at home,,,,,,,,,,,,,
12,7,1446,A,41.74031341073323,71.7946499865305,2.087015670536662,1.1277477248236738,A,829.3320410011802,Correct,sub_012_day_07_data.csv,1,300,57.0,Training at home,,,,,,,,,,,,,
12,7,1447,A,52.15156082218746,61.1477382835299,2.607578041109373,0.9605064268758444,A,1220.5529999919236,Correct,sub_012_day_07_data.csv,1,300,57.0,Training at home,,,,,,,,,,,,,
12,7,1448,B,56.2732084748992,47.22849346039668,2.8136604237449596,0.7418634404764789,B,2429.192248993786,Correct,sub_012_day_07_data.csv,1,300,57.0,Training at home,,,,,,,,,,,,,
12,7,1449,A,25.765189118760556,40.81316713932708,1.2882594559380278,0.6410917302732114,A,546.2604580097832,Correct,sub_012_day_07_data.csv,1,300,57.0,Training at home,,,,,,,,,,,,,
12,7,1450,A,20.605681486463627,49.86345918757909,1.0302840743231814,0.7832533853313646,A,458.4252499917056,Correct,sub_012_day_07_data.csv,1,300,58.0,Training at home,,,,,,,,,,,,,
12,7,1451,A,32.84740798174679,47.062974444259694,1.6423703990873395,0.7392634738508521,A,513.7845410208683,Correct,sub_012_day_07_data.csv,1,300,58.0,Training at home,,,,,,,,,,,,,
12,7,1452,A,64.85896504769792,77.54117653739377,3.242948252384896,1.2180139528029277,A,757.5142489804421,Correct,sub_012_day_07_data.csv,1,300,58.0,Training at home,,,,,,,,,,,,,
12,7,1453,B,36.10726717305354,26.33816267465095,1.8053633586526772,0.4137188918386815,B,918.9029579865746,Correct,sub_012_day_07_data.csv,1,300,58.0,Training at home,,,,,,,,,,,,,
12,7,1454,A,32.60199012116136,51.27211772410532,1.630099506058068,0.8053805418802016,A,647.1921660122462,Correct,sub_012_day_07_data.csv,1,300,58.0,Training at home,,,,,,,,,,,,,
12,7,1455,B,87.462248848589,60.57876279272743,4.37311244242945,0.951568980765956,B,525.7953330001328,Correct,sub_012_day_07_data.csv,1,300,58.0,Training at home,,,,,,,,,,,,,
12,7,1456,B,82.30003600661139,54.31268326128666,4.115001800330569,0.8531416336520375,B,534.9436250107829,Correct,sub_012_day_07_data.csv,1,300,58.0,Training at home,,,,,,,,,,,,,
12,7,1457,B,67.02403447542927,49.93055938150279,3.3512017237714637,0.7843073927127904,B,505.5866250186227,Correct,sub_012_day_07_data.csv,1,300,58.0,Training at home,,,,,,,,,,,,,
12,7,1458,A,33.53421534699103,59.78234543525298,1.6767107673495516,0.9390588861687904,A,569.8488740017638,Correct,sub_012_day_07_data.csv,1,300,58.0,Training at home,,,,,,,,,,,,,
12,7,1459,B,78.78449440765317,48.56536163578175,3.9392247203826583,0.7628629166695176,B,472.18333199271,Correct,sub_012_day_07_data.csv,1,300,58.0,Training at home,,,,,,,,,,,,,
12,7,1460,B,72.63860375510495,43.313202548110766,3.631930187755247,0.6803621946429576,B,647.9846239963081,Correct,sub_012_day_07_data.csv,1,300,58.0,Training at home,,,,,,,,,,,,,
12,7,1461,A,54.63191736887987,79.89992137206157,2.7315958684439936,1.2550650300243538,A,544.595165993087,Correct,sub_012_day_07_data.csv,1,300,58.0,Training at home,,,,,,,,,,,,,
12,7,1462,A,26.692174581805496,37.8179422289911,1.3346087290902746,0.5940428474024083,A,1190.501666016644,Correct,sub_012_day_07_data.csv,1,300,58.0,Training at home,,,,,,,,,,,,,
12,7,1463,A,28.804758665530343,40.846010363645874,1.4402379332765174,0.6416076304344122,A,928.9363739953842,Correct,sub_012_day_07_data.csv,1,300,58.0,Training at home,,,,,,,,,,,,,
12,7,1464,B,65.06978267476099,32.16276463403713,3.253489133738049,0.5052115254671433,B,1315.0896659935825,Correct,sub_012_day_07_data.csv,1,300,58.0,Training at home,,,,,,,,,,,,,
12,7,1465,B,62.53755857472539,33.687200392203906,3.1268779287362696,0.5291573063607748,B,574.1970819944981,Correct,sub_012_day_07_data.csv,1,300,58.0,Training at home,,,,,,,,,,,,,
12,7,1466,B,50.429337637546574,33.905170766506686,2.5214668818773287,0.5325811769938241,B,489.37358299735934,Correct,sub_012_day_07_data.csv,1,300,58.0,Training at home,,,,,,,,,,,,,
12,7,1467,B,78.31598350490228,56.29396118576949,3.9157991752451142,0.884263474513412,B,466.0946240182966,Correct,sub_012_day_07_data.csv,1,300,58.0,Training at home,,,,,,,,,,,,,
12,7,1468,A,40.72017146468401,68.75291065618349,2.0360085732342004,1.0799681951519071,A,665.7333330076654,Correct,sub_012_day_07_data.csv,1,300,58.0,Training at home,,,,,,,,,,,,,
12,7,1469,B,52.09095937679613,27.457389814862267,2.6045479688398063,0.4312996706456126,B,604.4920829881448,Correct,sub_012_day_07_data.csv,1,300,58.0,Training at home,,,,,,,,,,,,,
12,7,1470,A,57.46680976280017,69.8472509469536,2.873340488140008,1.0971580522419606,A,1533.2393330172636,Correct,sub_012_day_07_data.csv,1,300,58.0,Training at home,,,,,,,,,,,,,
12,7,1471,A,18.10871525874823,42.653391549473056,0.9054357629374116,0.6699979077125675,A,913.965832995018,Correct,sub_012_day_07_data.csv,1,300,58.0,Training at home,,,,,,,,,,,,,
12,7,1472,B,52.88583954895552,22.10203449470744,2.6442919774477764,0.3471779459898054,B,797.3000819911249,Correct,sub_012_day_07_data.csv,1,300,58.0,Training at home,,,,,,,,,,,,,
12,7,1473,B,52.09716795302346,27.310819063584695,2.604858397651173,0.4289973426683888,B,575.6689580157399,Correct,sub_012_day_07_data.csv,1,300,58.0,Training at home,,,,,,,,,,,,,
12,7,1474,A,38.4946270222587,51.73782250213791,1.924731351112935,0.8126958154272458,A,626.0087910050061,Correct,sub_012_day_07_data.csv,1,300,58.0,Training at home,,,,,,,,,,,,,
12,7,1475,A,36.20775422950114,51.14873615672979,1.810387711475057,0.8034424687519247,A,565.3102080104873,Correct,sub_012_day_07_data.csv,1,300,59.0,Training at home,,,,,,,,,,,,,
12,7,1476,A,39.3227555348716,65.23358236496942,1.96613777674358,1.0246867156256632,A,884.482207999099,Correct,sub_012_day_07_data.csv,1,300,59.0,Training at home,,,,,,,,,,,,,
12,7,1477,A,44.293790791428734,56.1634316437329,2.2146895395714368,0.8822131212617189,A,497.76812401250936,Correct,sub_012_day_07_data.csv,1,300,59.0,Training at home,,,,,,,,,,,,,
12,7,1478,B,57.26583810035368,32.97257498179266,2.8632919050176837,0.5179319966636922,B,928.026706998935,Correct,sub_012_day_07_data.csv,1,300,59.0,Training at home,,,,,,,,,,,,,
12,7,1479,B,71.4672549827321,43.0487401233904,3.573362749136605,0.6762080285896973,B,542.4990819883533,Correct,sub_012_day_07_data.csv,1,300,59.0,Training at home,,,,,,,,,,,,,
12,7,1480,A,38.00051846525875,67.18300526938914,1.9000259232629375,1.0553081790019865,A,602.2342910000589,Correct,sub_012_day_07_data.csv,1,300,59.0,Training at home,,,,,,,,,,,,,
12,7,1481,A,13.466264805683467,37.341074933737424,0.6733132402841734,0.5865522334448774,A,529.5316239935346,Correct,sub_012_day_07_data.csv,1,300,59.0,Training at home,,,,,,,,,,,,,
12,7,1482,A,63.71966754754549,82.44881633750545,3.1859833773772746,1.295102978515406,A,879.9130830157083,Correct,sub_012_day_07_data.csv,1,300,59.0,Training at home,,,,,,,,,,,,,
12,7,1483,A,59.92594043649361,71.93244675179831,2.9962970218246805,1.1299122313509429,A,1320.2246660075616,Correct,sub_012_day_07_data.csv,1,300,59.0,Training at home,,,,,,,,,,,,,
12,7,1484,B,65.8535457865733,35.0160875293318,3.2926772893286653,0.5500314166980297,B,417.9895830166061,Correct,sub_012_day_07_data.csv,1,300,59.0,Training at home,,,,,,,,,,,,,
12,7,1485,B,68.37348919827592,51.59923058362645,3.418674459913796,0.8105188186620331,B,443.0083739862312,Correct,sub_012_day_07_data.csv,1,300,59.0,Training at home,,,,,,,,,,,,,
12,7,1486,A,43.781317589393,51.6638466506715,2.18906587946965,0.8115338054696961,A,905.1443329954054,Correct,sub_012_day_07_data.csv,1,300,59.0,Training at home,,,,,,,,,,,,,
12,7,1487,A,15.976862728377217,44.35773756091025,0.7988431364188608,0.6967697122560984,A,531.0526660177857,Correct,sub_012_day_07_data.csv,1,300,59.0,Training at home,,,,,,,,,,,,,
12,7,1488,B,59.962754516291014,30.62513789811222,2.9981377258145505,0.4810585411794185,B,557.9760830150917,Correct,sub_012_day_07_data.csv,1,300,59.0,Training at home,,,,,,,,,,,,,
12,7,1489,A,59.855628877735455,70.8580650012675,2.9927814438867726,1.11303588227785,A,628.4061659825966,Correct,sub_012_day_07_data.csv,1,300,59.0,Training at home,,,,,,,,,,,,,
12,7,1490,A,41.10835740398708,56.83953316264824,2.0554178701993537,0.8928332990862456,A,558.6898739857133,Correct,sub_012_day_07_data.csv,1,300,59.0,Training at home,,,,,,,,,,,,,
12,7,1491,A,55.76675269798298,73.37366839935171,2.7883376348991487,1.1525508880516844,A,963.224581995746,Correct,sub_012_day_07_data.csv,1,300,59.0,Training at home,,,,,,,,,,,,,
12,7,1492,B,54.94134015999395,38.71599174534326,2.7470670079996973,0.6081493762180673,A,3051.8484160129447,Incorrect,sub_012_day_07_data.csv,0,300,59.0,Training at home,,,,,,,,,,,,,
12,7,1493,B,73.99653342555797,58.17991783059186,3.6998266712778984,0.913888012215226,B,543.0661659920588,Correct,sub_012_day_07_data.csv,1,300,59.0,Training at home,,,,,,,,,,,,,
12,7,1494,A,42.957608983845766,50.572119253804985,2.1478804491922885,0.7943849916211033,B,922.0237910049036,Incorrect,sub_012_day_07_data.csv,0,300,59.0,Training at home,,,,,,,,,,,,,
12,7,1495,B,46.64501163215615,36.75630975896011,2.3322505816078074,0.5773667635590994,B,994.8797499819192,Correct,sub_012_day_07_data.csv,1,300,59.0,Training at home,,,,,,,,,,,,,
12,7,1496,A,25.48010511344029,48.4066611500193,1.2740052556720145,0.7603700552685555,A,562.6817080192268,Correct,sub_012_day_07_data.csv,1,300,59.0,Training at home,,,,,,,,,,,,,
12,7,1497,B,59.69925143893895,32.644150043983515,2.9849625719469475,0.5127731098043076,B,537.8997910011094,Correct,sub_012_day_07_data.csv,1,300,59.0,Training at home,,,,,,,,,,,,,
12,7,1498,B,68.68982763969247,60.113155144150376,3.434491381984623,0.9442552329248316,A,882.365249999566,Incorrect,sub_012_day_07_data.csv,0,300,59.0,Training at home,,,,,,,,,,,,,
12,7,1499,A,43.973855909447806,65.10150214313211,2.1986927954723905,1.02261200435262,A,601.1077080038376,Correct,sub_012_day_07_data.csv,1,300,59.0,Training at home,,,,,,,,,,,,,
