subject,day,trial,cat,x,y,xt,yt,resp,rt,fb,f_name,acc,n_trials,block,session_type,ns_left_digit,ns_right_digit,ns_left_size,ns_right_size,ns_congruent,ns_cue,ns_correct_side,ns_resp,ns_rt,ns_fb,acc_stroop,acc_stroop_mean,resp_key
12,23,0,B,88.36537495088206,65.16332621575818,4.4182687475441025,1.0235831346145057,B,700.6456000090111,Correct,sub_012_day_23_data.csv,1,600,,Button-Switch at home,,,,,,,,,,,,,d
12,23,1,B,66.38885154774398,49.25187598569835,3.319442577387199,0.7736466588609273,B,762.9111999995075,Correct,sub_012_day_23_data.csv,1,600,,Button-Switch at home,,,,,,,,,,,,,d
12,23,2,A,11.944139354189367,39.316986343203965,0.5972069677094684,0.6175897772854989,A,537.368699995568,Correct,sub_012_day_23_data.csv,1,600,,Button-Switch at home,,,,,,,,,,,,,k
12,23,3,A,48.51717060732634,64.69049706630767,2.425858530366317,1.0161559517029213,A,1302.556700014975,Correct,sub_012_day_23_data.csv,1,600,,Button-Switch at home,,,,,,,,,,,,,k
12,23,4,B,80.34825347691955,56.984791939683,4.017412673845978,0.8951150186202549,B,1187.083299999358,Correct,sub_012_day_23_data.csv,1,600,,Button-Switch at home,,,,,,,,,,,,,d
12,23,5,A,35.43386724488074,63.056682508529896,1.7716933622440367,0.9904920526427076,A,867.4056000018027,Correct,sub_012_day_23_data.csv,1,600,,Button-Switch at home,,,,,,,,,,,,,k
12,23,6,A,26.259753366630605,46.78739196122034,1.3129876683315302,0.7349346343299799,A,1391.774500021711,Correct,sub_012_day_23_data.csv,1,600,,Button-Switch at home,,,,,,,,,,,,,k
12,23,7,B,39.26992678692055,12.12577488462463,1.9634963393460276,0.1904712264831017,B,1815.8973999961745,Correct,sub_012_day_23_data.csv,1,600,,Button-Switch at home,,,,,,,,,,,,,d
12,23,8,B,51.4790453446315,33.66385551674815,2.5739522672315753,0.5287906059146211,B,1669.9352999858093,Correct,sub_012_day_23_data.csv,1,600,,Button-Switch at home,,,,,,,,,,,,,d
12,23,9,B,54.837383626597024,25.176730533229453,2.741869181329851,0.3954751584230173,B,860.1657999970485,Correct,sub_012_day_23_data.csv,1,600,,Button-Switch at home,,,,,,,,,,,,,d
12,23,10,A,54.57204461424063,67.87752922739433,2.7286022307120317,1.0662177358230425,A,1229.4631999975536,Correct,sub_012_day_23_data.csv,1,600,,Button-Switch at home,,,,,,,,,,,,,k
12,23,11,B,65.5968993209925,40.54455385332305,3.2798449660496254,0.6368723626433772,B,1227.0039999857545,Correct,sub_012_day_23_data.csv,1,600,,Button-Switch at home,,,,,,,,,,,,,d
12,23,12,A,20.077312318554323,51.33531630326613,1.0038656159277162,0.8063732628402461,A,915.8020000031684,Correct,sub_012_day_23_data.csv,1,600,,Button-Switch at home,,,,,,,,,,,,,k
12,23,13,A,37.934498022042746,68.5613705488032,1.8967249011021377,1.0769594901808386,A,1474.4247000198811,Correct,sub_012_day_23_data.csv,1,600,,Button-Switch at home,,,,,,,,,,,,,k
12,23,14,B,62.6700337257543,53.84590970796849,3.133501686287715,0.8458095718220655,A,2365.5443000025116,Incorrect,sub_012_day_23_data.csv,0,600,,Button-Switch at home,,,,,,,,,,,,,k
12,23,15,A,34.70608742330962,58.04692254614123,1.7353043711654808,0.9117989271722652,A,1226.1030999943614,Correct,sub_012_day_23_data.csv,1,600,,Button-Switch at home,,,,,,,,,,,,,k
12,23,16,B,30.501878344128347,12.453012165504216,1.5250939172064173,0.1956114576710618,B,1147.2474999900442,Correct,sub_012_day_23_data.csv,1,600,,Button-Switch at home,,,,,,,,,,,,,d
12,23,17,A,42.00279780095301,60.76714344165536,2.1001398900476507,0.9545280570797084,A,3452.530599985039,Correct,sub_012_day_23_data.csv,1,600,,Button-Switch at home,,,,,,,,,,,,,k
12,23,18,A,26.838347074961696,52.45184574345221,1.3419173537480846,0.8239116662742726,A,802.5900999782607,Correct,sub_012_day_23_data.csv,1,600,,Button-Switch at home,,,,,,,,,,,,,k
12,23,19,B,36.48976771114444,26.204797039783767,1.824488385557222,0.4116239893449812,A,1094.865099992603,Incorrect,sub_012_day_23_data.csv,0,600,,Button-Switch at home,,,,,,,,,,,,,k
12,23,20,B,32.13742174176559,15.540501752112425,1.6068710870882796,0.2441096306876785,B,843.82540002116,Correct,sub_012_day_23_data.csv,1,600,,Button-Switch at home,,,,,,,,,,,,,d
12,23,21,B,70.68403686748485,42.8181053099192,3.5342018433742424,0.6725852254113814,B,913.0670999875292,Correct,sub_012_day_23_data.csv,1,600,,Button-Switch at home,,,,,,,,,,,,,d
12,23,22,B,81.13080388231062,52.29906445580883,4.056540194115531,0.8215117834199404,B,856.9056000269484,Correct,sub_012_day_23_data.csv,1,600,,Button-Switch at home,,,,,,,,,,,,,d
12,23,23,B,62.697623296139234,54.986443028389736,3.134881164806962,0.8637250273251146,B,929.9647000152618,Correct,sub_012_day_23_data.csv,1,600,,Button-Switch at home,,,,,,,,,,,,,d
12,23,24,B,65.4707176441414,49.6830160065153,3.2735358822070704,0.7804189904712627,B,1635.1667999988422,Correct,sub_012_day_23_data.csv,1,600,,Button-Switch at home,,,,,,,,,,,,,d
12,23,25,A,56.85573793622424,77.14785696116013,2.8427868968112127,1.2118357033468845,A,1526.4289999904577,Correct,sub_012_day_23_data.csv,1,600,,Button-Switch at home,,,,,,,,,,,,,k
12,23,26,A,23.830899017496012,37.16661611850941,1.1915449508748006,0.5838118407835058,A,1463.0886999948416,Correct,sub_012_day_23_data.csv,1,600,,Button-Switch at home,,,,,,,,,,,,,k
12,23,27,A,49.52545760178272,70.51016792001963,2.4762728800891356,1.107571127704582,A,1232.9965000099037,Correct,sub_012_day_23_data.csv,1,600,,Button-Switch at home,,,,,,,,,,,,,k
12,23,28,A,11.27896032461101,31.39207070857436,0.5639480162305505,0.4931054935951427,A,1113.1521000061184,Correct,sub_012_day_23_data.csv,1,600,,Button-Switch at home,,,,,,,,,,,,,k
12,23,29,B,41.83552044471706,30.94348664393624,2.0917760222358535,0.4860591515852199,B,839.9876000185031,Correct,sub_012_day_23_data.csv,1,600,,Button-Switch at home,,,,,,,,,,,,,d
12,23,30,B,46.286759259154785,26.01893529136452,2.3143379629577394,0.4087044798278949,B,1003.444000001764,Correct,sub_012_day_23_data.csv,1,600,,Button-Switch at home,,,,,,,,,,,,,d
12,23,31,B,35.117209509680976,13.291241547953206,1.7558604754840488,0.2087783340206861,B,767.9401999921538,Correct,sub_012_day_23_data.csv,1,600,,Button-Switch at home,,,,,,,,,,,,,d
12,23,32,A,67.52278707583427,87.30444773598548,3.376139353791714,1.37137505816543,A,1001.1047000007238,Correct,sub_012_day_23_data.csv,1,600,,Button-Switch at home,,,,,,,,,,,,,k
12,23,33,A,57.61693356143531,68.39321345814658,2.880846678071766,1.0743180847775593,A,1046.7175999947358,Correct,sub_012_day_23_data.csv,1,600,,Button-Switch at home,,,,,,,,,,,,,k
12,23,34,B,80.86161505784719,66.9204167652672,4.04308075289236,1.0511834484246534,B,1473.1509999837726,Correct,sub_012_day_23_data.csv,1,600,,Button-Switch at home,,,,,,,,,,,,,d
12,23,35,A,28.881806855626408,57.692779553968506,1.4440903427813203,0.9062360620596144,A,895.4373000015039,Correct,sub_012_day_23_data.csv,1,600,,Button-Switch at home,,,,,,,,,,,,,k
12,23,36,A,15.426169257991427,44.671493287367824,0.7713084628995714,0.7016981756824026,A,734.6370999875944,Correct,sub_012_day_23_data.csv,1,600,,Button-Switch at home,,,,,,,,,,,,,k
12,23,37,A,36.15127728825195,62.84366978732676,1.8075638644125973,0.9871460566424428,A,920.0694999890402,Correct,sub_012_day_23_data.csv,1,600,,Button-Switch at home,,,,,,,,,,,,,k
12,23,38,A,31.151982720902453,40.28325664228624,1.557599136045123,0.6327679156503934,A,1544.721699989168,Correct,sub_012_day_23_data.csv,1,600,,Button-Switch at home,,,,,,,,,,,,,k
12,23,39,B,72.81341421937528,48.03122468896967,3.640670710968763,0.7544727131289392,B,1113.9886000019033,Correct,sub_012_day_23_data.csv,1,600,,Button-Switch at home,,,,,,,,,,,,,d
12,23,40,B,56.153350849830346,39.73916048307236,2.8076675424915174,0.6242212731672296,B,939.7215000062716,Correct,sub_012_day_23_data.csv,1,600,,Button-Switch at home,,,,,,,,,,,,,d
12,23,41,A,25.428045250112937,37.90728344822233,1.271402262505647,0.5954462159924061,A,1069.5602000050712,Correct,sub_012_day_23_data.csv,1,600,,Button-Switch at home,,,,,,,,,,,,,k
12,23,42,B,56.57408749008823,45.87992462026775,2.8287043745044116,0.7206801706714333,B,913.9561000047252,Correct,sub_012_day_23_data.csv,1,600,,Button-Switch at home,,,,,,,,,,,,,d
12,23,43,A,34.6865272051499,63.39998158721409,1.734326360257495,0.9958845819605996,A,1579.146900010528,Correct,sub_012_day_23_data.csv,1,600,,Button-Switch at home,,,,,,,,,,,,,k
12,23,44,A,30.733473720417766,56.93325148178981,1.5366736860208885,0.8943054230008555,A,1217.8797000087798,Correct,sub_012_day_23_data.csv,1,600,,Button-Switch at home,,,,,,,,,,,,,k
12,23,45,B,49.28786871108155,19.777072351201248,2.4643934355540775,0.3106575260402383,B,1310.8044000109658,Correct,sub_012_day_23_data.csv,1,600,,Button-Switch at home,,,,,,,,,,,,,d
12,23,46,A,20.042637297572515,32.61137482486747,1.0021318648786255,0.5122582778663337,A,1000.1304000033996,Correct,sub_012_day_23_data.csv,1,600,,Button-Switch at home,,,,,,,,,,,,,k
12,23,47,B,66.00006627970016,54.2468866924936,3.300003313985008,0.8521081035662789,B,1336.7263000109233,Correct,sub_012_day_23_data.csv,1,600,,Button-Switch at home,,,,,,,,,,,,,d
12,23,48,A,39.836574730062615,64.03751183042687,1.9918287365031304,1.0058988836031924,A,1897.7523000212384,Correct,sub_012_day_23_data.csv,1,600,,Button-Switch at home,,,,,,,,,,,,,k
12,23,49,A,23.19930947303787,46.791650503769354,1.1599654736518936,0.7350015273599146,A,986.0123000107706,Correct,sub_012_day_23_data.csv,1,600,,Button-Switch at home,,,,,,,,,,,,,k
12,23,50,A,11.721340799334133,37.50023334205481,0.5860670399667066,0.5890522878765121,A,817.8468000260182,Correct,sub_012_day_23_data.csv,1,600,,Button-Switch at home,,,,,,,,,,,,,k
12,23,51,A,18.857406429761728,43.922558422546246,0.9428703214880864,0.6899339343356989,A,1257.3433999787085,Correct,sub_012_day_23_data.csv,1,600,,Button-Switch at home,,,,,,,,,,,,,k
12,23,52,B,45.48284118434921,37.873295783167514,2.2741420592174606,0.5949123389981618,B,1235.3333999635652,Correct,sub_012_day_23_data.csv,1,600,,Button-Switch at home,,,,,,,,,,,,,d
12,23,53,A,44.12218951533441,57.84939951322776,2.206109475766721,0.9086962426266864,B,1519.5824999827892,Incorrect,sub_012_day_23_data.csv,0,600,,Button-Switch at home,,,,,,,,,,,,,d
12,23,54,A,43.29610770692898,64.8776321460009,2.164805385346449,1.0190954626608872,A,907.8528000391088,Correct,sub_012_day_23_data.csv,1,600,,Button-Switch at home,,,,,,,,,,,,,k
12,23,55,A,62.897724485534326,82.83386338764313,3.1448862242767164,1.3011512834354009,A,1104.4898999971338,Correct,sub_012_day_23_data.csv,1,600,,Button-Switch at home,,,,,,,,,,,,,k
12,23,56,A,26.84465266184622,40.78952793647751,1.3422326330923111,0.640720406543167,A,1340.8641000278294,Correct,sub_012_day_23_data.csv,1,600,,Button-Switch at home,,,,,,,,,,,,,k
12,23,57,B,77.51970526987061,54.633030474172045,3.8759852634935306,0.858173635905031,B,2485.041700012516,Correct,sub_012_day_23_data.csv,1,600,,Button-Switch at home,,,,,,,,,,,,,d
12,23,58,B,68.64086825575305,43.55162023333422,3.432043412787652,0.6841072508848769,B,1936.5462000132536,Correct,sub_012_day_23_data.csv,1,600,,Button-Switch at home,,,,,,,,,,,,,d
12,23,59,B,56.421353712718414,24.90544189883591,2.8210676856359207,0.3912137665189517,B,958.262800006196,Correct,sub_012_day_23_data.csv,1,600,,Button-Switch at home,,,,,,,,,,,,,d
12,23,60,B,60.37951029368061,45.26337293597461,3.0189755146840302,0.7109953994617644,B,1295.5068000010217,Correct,sub_012_day_23_data.csv,1,600,,Button-Switch at home,,,,,,,,,,,,,d
12,23,61,B,68.73257245077261,55.468547676353225,3.4366286225386307,0.8712979094266325,B,974.4016999611632,Correct,sub_012_day_23_data.csv,1,600,,Button-Switch at home,,,,,,,,,,,,,d
12,23,62,A,26.49374008880445,44.76454488175546,1.3246870044402226,0.7031598267090676,A,1157.0054000476375,Correct,sub_012_day_23_data.csv,1,600,,Button-Switch at home,,,,,,,,,,,,,k
12,23,63,A,61.59305261293935,78.95437707897776,3.079652630646968,1.240212455000374,B,2414.576900016982,Incorrect,sub_012_day_23_data.csv,0,600,,Button-Switch at home,,,,,,,,,,,,,d
12,23,64,A,35.86702399094839,63.821797074367915,1.7933511995474194,1.002510444138664,A,1107.2016999823973,Correct,sub_012_day_23_data.csv,1,600,,Button-Switch at home,,,,,,,,,,,,,k
12,23,65,A,59.74152792597927,86.66587056677795,2.9870763962989635,1.3613443114477677,A,1153.1313000014052,Correct,sub_012_day_23_data.csv,1,600,,Button-Switch at home,,,,,,,,,,,,,k
12,23,66,A,38.78123185791201,63.835524473842,1.9390615928956008,1.0027260736253671,A,1009.6612999914214,Correct,sub_012_day_23_data.csv,1,600,,Button-Switch at home,,,,,,,,,,,,,k
12,23,67,B,83.50944591089669,54.75371858709061,4.175472295544835,0.8600694003496339,B,467.40640001371503,Correct,sub_012_day_23_data.csv,1,600,,Button-Switch at home,,,,,,,,,,,,,d
12,23,68,A,30.18068932819427,63.465099281705534,1.5090344664097133,0.9969074483137648,A,945.8751000347548,Correct,sub_012_day_23_data.csv,1,600,,Button-Switch at home,,,,,,,,,,,,,k
12,23,69,B,33.46729636997023,18.10622783340141,1.6733648184985117,0.2844119617281845,B,909.994599991478,Correct,sub_012_day_23_data.csv,1,600,,Button-Switch at home,,,,,,,,,,,,,d
12,23,70,B,67.87101318572306,39.25329290617481,3.393550659286153,0.6165892831162356,B,976.8616000073962,Correct,sub_012_day_23_data.csv,1,600,,Button-Switch at home,,,,,,,,,,,,,d
12,23,71,B,72.69828165158843,54.338843236452654,3.6349140825794217,0.8535525535810353,B,513.1519999704324,Correct,sub_012_day_23_data.csv,1,600,,Button-Switch at home,,,,,,,,,,,,,d
12,23,72,A,64.59034590099299,77.95686097576736,3.229517295049649,1.2245435086919578,A,1304.185899964068,Correct,sub_012_day_23_data.csv,1,600,,Button-Switch at home,,,,,,,,,,,,,k
12,23,73,B,59.011713897136914,41.10993822968018,2.950585694856846,0.6457533996594672,B,2886.881899961736,Correct,sub_012_day_23_data.csv,1,600,,Button-Switch at home,,,,,,,,,,,,,d
12,23,74,A,38.921421712169185,64.43154890381723,1.946071085608459,1.0120884034782185,A,4390.258200000972,Correct,sub_012_day_23_data.csv,1,600,,Button-Switch at home,,,,,,,,,,,,,k
12,23,75,B,53.03342768164492,43.94741475612346,2.6516713840822463,0.6903243767105057,B,2073.569900006987,Correct,sub_012_day_23_data.csv,1,600,,Button-Switch at home,,,,,,,,,,,,,d
12,23,76,A,49.071226902351135,74.83445748786195,2.453561345117557,1.175496909396224,A,1038.5529000195677,Correct,sub_012_day_23_data.csv,1,600,,Button-Switch at home,,,,,,,,,,,,,k
12,23,77,B,43.93209468570153,36.14107469166284,2.1966047342850765,0.5677026737208398,B,818.4387999936007,Correct,sub_012_day_23_data.csv,1,600,,Button-Switch at home,,,,,,,,,,,,,d
12,23,78,B,36.28049649091514,23.993587900022316,1.814024824545757,0.3768903973998553,B,1243.8885999727063,Correct,sub_012_day_23_data.csv,1,600,,Button-Switch at home,,,,,,,,,,,,,d
12,23,79,B,69.52924642384812,60.377906083557015,3.476462321192406,0.948413930956186,B,2951.096700038761,Correct,sub_012_day_23_data.csv,1,600,,Button-Switch at home,,,,,,,,,,,,,d
12,23,80,A,15.65789067138499,40.6966776502631,0.7828945335692495,0.6392619176578924,A,978.67739998037,Correct,sub_012_day_23_data.csv,1,600,,Button-Switch at home,,,,,,,,,,,,,k
12,23,81,A,29.548843564922755,56.1414929017748,1.4774421782461378,0.8818685083088961,A,501.9499000045471,Correct,sub_012_day_23_data.csv,1,600,,Button-Switch at home,,,,,,,,,,,,,k
12,23,82,B,66.40550632312817,38.910541214711714,3.3202753161564083,0.6112053521367059,B,526.4894000138156,Correct,sub_012_day_23_data.csv,1,600,,Button-Switch at home,,,,,,,,,,,,,d
12,23,83,A,61.07711082518607,86.08904944536485,3.0538555412593036,1.3522836264604332,A,852.1385000203736,Correct,sub_012_day_23_data.csv,1,600,,Button-Switch at home,,,,,,,,,,,,,k
12,23,84,A,42.484002487891665,52.707246905435106,2.124200124394583,0.8279234983452913,B,1342.747499991674,Incorrect,sub_012_day_23_data.csv,0,600,,Button-Switch at home,,,,,,,,,,,,,d
12,23,85,B,76.78658535244367,49.31447971342176,3.839329267622184,0.7746300359164433,B,953.2428000238724,Correct,sub_012_day_23_data.csv,1,600,,Button-Switch at home,,,,,,,,,,,,,d
12,23,86,A,29.965512881026328,51.343154269230226,1.4982756440513163,0.8064963813217054,A,521.4501000009477,Correct,sub_012_day_23_data.csv,1,600,,Button-Switch at home,,,,,,,,,,,,,k
12,23,87,A,47.20920788335459,69.73638474061343,2.3604603941677293,1.0954165699451124,A,434.9283999763429,Correct,sub_012_day_23_data.csv,1,600,,Button-Switch at home,,,,,,,,,,,,,k
12,23,88,A,48.72758268682647,77.61412905322805,2.436379134341324,1.219159888241957,A,597.6789999986067,Correct,sub_012_day_23_data.csv,1,600,,Button-Switch at home,,,,,,,,,,,,,k
12,23,89,A,57.36292146738403,81.76147169029949,2.8681460733692012,1.2843061940446736,A,785.801200021524,Correct,sub_012_day_23_data.csv,1,600,,Button-Switch at home,,,,,,,,,,,,,k
12,23,90,A,22.72220706700402,51.51099699005199,1.136110353350201,0.8091328486151664,A,1117.4546999973245,Correct,sub_012_day_23_data.csv,1,600,,Button-Switch at home,,,,,,,,,,,,,k
12,23,91,B,51.41251822208971,32.54256274722444,2.570625911104486,0.5111773802783258,B,512.5805999850854,Correct,sub_012_day_23_data.csv,1,600,,Button-Switch at home,,,,,,,,,,,,,d
12,23,92,A,54.20586365464043,62.90618126164164,2.7102931827320216,0.9881279845848066,B,1895.174400007818,Incorrect,sub_012_day_23_data.csv,0,600,,Button-Switch at home,,,,,,,,,,,,,d
12,23,93,A,38.6653742842808,59.64769674942195,1.93326871421404,0.9369438295576789,A,1270.6992999883369,Correct,sub_012_day_23_data.csv,1,600,,Button-Switch at home,,,,,,,,,,,,,k
12,23,94,A,45.9773903947348,56.93832809531157,2.29886951973674,0.8943851662595806,B,2002.5510999839753,Incorrect,sub_012_day_23_data.csv,0,600,,Button-Switch at home,,,,,,,,,,,,,d
12,23,95,A,59.19088587826259,86.51264981066893,2.9595442939131296,1.3589375254389198,A,970.3852999955416,Correct,sub_012_day_23_data.csv,1,600,,Button-Switch at home,,,,,,,,,,,,,k
12,23,96,A,47.47757917330896,67.8091453126235,2.373878958665448,1.0651435638017035,A,1376.6987000126392,Correct,sub_012_day_23_data.csv,1,600,,Button-Switch at home,,,,,,,,,,,,,k
12,23,97,B,52.75583609900827,45.92983726818872,2.637791804950414,0.7214641967115819,A,733.3099000388756,Incorrect,sub_012_day_23_data.csv,0,600,,Button-Switch at home,,,,,,,,,,,,,k
12,23,98,A,35.2507737765782,51.46757375187908,1.76253868882891,0.8084507579849709,A,646.719399956055,Correct,sub_012_day_23_data.csv,1,600,,Button-Switch at home,,,,,,,,,,,,,k
12,23,99,B,41.61622743078232,16.399587429154458,2.080811371539116,0.2576041169466758,B,581.2793000368401,Correct,sub_012_day_23_data.csv,1,600,,Button-Switch at home,,,,,,,,,,,,,d
12,23,100,A,21.511909704953972,47.28064911042041,1.0755954852476988,0.7426826995112679,A,578.3386999974027,Correct,sub_012_day_23_data.csv,1,600,,Button-Switch at home,,,,,,,,,,,,,k
12,23,101,A,51.14704590485173,79.77057425999715,2.5573522952425862,1.2530332503392307,A,917.8183999611064,Correct,sub_012_day_23_data.csv,1,600,,Button-Switch at home,,,,,,,,,,,,,k
12,23,102,B,64.94746872994378,38.51627455695541,3.247373436497189,0.605012225958893,B,656.873399973847,Correct,sub_012_day_23_data.csv,1,600,,Button-Switch at home,,,,,,,,,,,,,d
12,23,103,B,36.983522489781045,14.528820238404776,1.8491761244890523,0.2282181746314957,B,2718.9713999978267,Correct,sub_012_day_23_data.csv,1,600,,Button-Switch at home,,,,,,,,,,,,,d
12,23,104,A,45.34856253067984,70.1428712277612,2.267428126533992,1.1018016447541474,A,2580.85090003442,Correct,sub_012_day_23_data.csv,1,600,,Button-Switch at home,,,,,,,,,,,,,k
12,23,105,B,79.9165819332218,63.73503257311842,3.99582909666109,1.0011475505400749,B,893.5431000427343,Correct,sub_012_day_23_data.csv,1,600,,Button-Switch at home,,,,,,,,,,,,,d
12,23,106,B,35.13223582657089,22.253533171115,1.7566117913285444,0.3495576816339583,B,4650.696100026835,Correct,sub_012_day_23_data.csv,1,600,,Button-Switch at home,,,,,,,,,,,,,d
12,23,107,B,53.74180977112932,38.60483133413324,2.687090488556466,0.6064032725619302,B,1555.814699968323,Correct,sub_012_day_23_data.csv,1,600,,Button-Switch at home,,,,,,,,,,,,,d
12,23,108,B,38.92979794191369,25.66711689343108,1.9464898970956848,0.4031781293561677,B,818.1411000550725,Correct,sub_012_day_23_data.csv,1,600,,Button-Switch at home,,,,,,,,,,,,,d
12,23,109,B,86.18954358281421,58.28644257599538,4.3094771791407105,0.9155612990031522,B,946.0792999598198,Correct,sub_012_day_23_data.csv,1,600,,Button-Switch at home,,,,,,,,,,,,,d
12,23,110,A,47.20868105232716,69.29876778721703,2.360434052616358,1.0885424989157302,A,1486.4735000301152,Correct,sub_012_day_23_data.csv,1,600,,Button-Switch at home,,,,,,,,,,,,,k
12,23,111,A,48.47466823596866,61.17748118398665,2.423733411798433,0.9609736272637014,A,2900.947999965865,Correct,sub_012_day_23_data.csv,1,600,,Button-Switch at home,,,,,,,,,,,,,k
12,23,112,B,78.8156243024214,55.38156198258524,3.9407812151210697,0.8699315413440878,B,712.7629000460729,Correct,sub_012_day_23_data.csv,1,600,,Button-Switch at home,,,,,,,,,,,,,d
12,23,113,A,56.10764829344082,82.19300651189458,2.805382414672041,1.2910847271711303,A,505.5430999491364,Correct,sub_012_day_23_data.csv,1,600,,Button-Switch at home,,,,,,,,,,,,,k
12,23,114,B,41.077240444808126,13.567264737658778,2.0538620222404065,0.2131140961456833,B,3495.9964000154287,Correct,sub_012_day_23_data.csv,1,600,,Button-Switch at home,,,,,,,,,,,,,d
12,23,115,B,58.794694974636656,29.122958366303347,2.9397347487318326,0.4574623602719,B,1223.985199991148,Correct,sub_012_day_23_data.csv,1,600,,Button-Switch at home,,,,,,,,,,,,,d
12,23,116,B,50.06640180239033,30.541631815522976,2.5033200901195163,0.4797468307014564,B,529.5434999861754,Correct,sub_012_day_23_data.csv,1,600,,Button-Switch at home,,,,,,,,,,,,,d
12,23,117,A,25.263733543096357,45.9915707497216,1.2631866771548177,0.7224339039719029,A,944.1557999816724,Correct,sub_012_day_23_data.csv,1,600,,Button-Switch at home,,,,,,,,,,,,,k
12,23,118,B,59.29178665090051,51.45596281675583,2.9645893325450254,0.8082683738425485,B,932.2465999866836,Correct,sub_012_day_23_data.csv,1,600,,Button-Switch at home,,,,,,,,,,,,,d
12,23,119,A,20.56333688102574,43.730691418554024,1.0281668440512872,0.6869200944846576,A,1200.8734999690205,Correct,sub_012_day_23_data.csv,1,600,,Button-Switch at home,,,,,,,,,,,,,k
12,23,120,A,41.94208488806423,54.94273165035137,2.0971042444032117,0.8630384106044964,A,1931.0954000102356,Correct,sub_012_day_23_data.csv,1,600,,Button-Switch at home,,,,,,,,,,,,,k
12,23,121,B,67.72146235805653,34.34192041361552,3.3860731179028267,0.5394416244078993,B,1058.7525999872014,Correct,sub_012_day_23_data.csv,1,600,,Button-Switch at home,,,,,,,,,,,,,d
12,23,122,B,64.43229086502961,39.33658051938329,3.2216145432514804,0.6178975618851895,B,1190.8378000371158,Correct,sub_012_day_23_data.csv,1,600,,Button-Switch at home,,,,,,,,,,,,,d
12,23,123,B,75.56853159562077,60.7752754674918,3.7784265797810384,0.9546557946428412,B,1097.4007999757305,Correct,sub_012_day_23_data.csv,1,600,,Button-Switch at home,,,,,,,,,,,,,d
12,23,124,A,54.5574773449252,82.22652587623273,2.72787386724626,1.291611248114919,A,1052.9966999893077,Correct,sub_012_day_23_data.csv,1,600,,Button-Switch at home,,,,,,,,,,,,,k
12,23,125,A,26.707989271489396,39.96323776778119,1.3353994635744697,0.6277410709246177,A,1413.6539999744855,Correct,sub_012_day_23_data.csv,1,600,,Button-Switch at home,,,,,,,,,,,,,k
12,23,126,A,65.23055953583022,77.65421034176353,3.2615279767915113,1.2197894836500045,A,1775.8946999674663,Correct,sub_012_day_23_data.csv,1,600,,Button-Switch at home,,,,,,,,,,,,,k
12,23,127,A,26.45609777110413,59.39558799012598,1.3228048885552062,0.9329837144271296,A,1240.3716999688186,Correct,sub_012_day_23_data.csv,1,600,,Button-Switch at home,,,,,,,,,,,,,k
12,23,128,B,70.45196350504276,39.12150307687556,3.5225981752521376,0.6145191333185138,B,3423.5161999822594,Correct,sub_012_day_23_data.csv,1,600,,Button-Switch at home,,,,,,,,,,,,,d
12,23,129,B,47.20598734449269,22.32897243723524,2.360299367224634,0.350742678855136,B,1522.4095999728888,Correct,sub_012_day_23_data.csv,1,600,,Button-Switch at home,,,,,,,,,,,,,d
12,23,130,A,13.942142352121651,33.82778469610044,0.6971071176060826,0.5313655994424319,A,1444.2288999562152,Correct,sub_012_day_23_data.csv,1,600,,Button-Switch at home,,,,,,,,,,,,,k
12,23,131,B,85.11346177180447,57.52871686635166,4.255673088590223,0.9036589713888878,B,1084.9214000045322,Correct,sub_012_day_23_data.csv,1,600,,Button-Switch at home,,,,,,,,,,,,,d
12,23,132,A,49.838937640085966,58.32131595844034,2.491946882004298,0.9161090888136268,A,1464.9647999904118,Correct,sub_012_day_23_data.csv,1,600,,Button-Switch at home,,,,,,,,,,,,,k
12,23,133,B,86.35866244473726,62.58542127098071,4.317933122236863,0.9830894984336768,B,1021.4627999812363,Correct,sub_012_day_23_data.csv,1,600,,Button-Switch at home,,,,,,,,,,,,,d
12,23,134,A,39.21177534809825,67.4931483798233,1.9605887674049125,1.0601798955884938,A,3761.139300011564,Correct,sub_012_day_23_data.csv,1,600,,Button-Switch at home,,,,,,,,,,,,,k
12,23,135,B,86.7530333969992,61.79470099747794,4.33765166984996,0.9706688934222728,B,1286.5756999817677,Correct,sub_012_day_23_data.csv,1,600,,Button-Switch at home,,,,,,,,,,,,,d
12,23,136,A,33.513697440201256,60.96652866633965,1.675684872010063,0.957659992865221,A,1219.140500004869,Correct,sub_012_day_23_data.csv,1,600,,Button-Switch at home,,,,,,,,,,,,,k
12,23,137,B,71.00311921786673,50.13741370544638,3.550155960893336,0.7875566528351128,B,1067.9393000318669,Correct,sub_012_day_23_data.csv,1,600,,Button-Switch at home,,,,,,,,,,,,,d
12,23,138,A,42.90131041250306,57.218662317705494,2.145065520625153,0.8987886459276936,A,1265.6548999948427,Correct,sub_012_day_23_data.csv,1,600,,Button-Switch at home,,,,,,,,,,,,,k
12,23,139,A,32.93136305274575,41.37687890135568,1.6465681526372875,0.6499464939248677,A,1261.5905000129717,Correct,sub_012_day_23_data.csv,1,600,,Button-Switch at home,,,,,,,,,,,,,k
12,23,140,A,68.05314517808466,82.882798585806,3.402657258904233,1.3019199557306531,A,1169.4578000460751,Correct,sub_012_day_23_data.csv,1,600,,Button-Switch at home,,,,,,,,,,,,,k
12,23,141,B,49.13560565347444,21.622334393766984,2.456780282673722,0.3396428344246013,B,1177.8437999892049,Correct,sub_012_day_23_data.csv,1,600,,Button-Switch at home,,,,,,,,,,,,,d
12,23,142,B,73.1134234435947,40.04410134576433,3.655671172179735,0.6290112730372919,B,793.345199956093,Correct,sub_012_day_23_data.csv,1,600,,Button-Switch at home,,,,,,,,,,,,,d
12,23,143,B,46.69931001574336,27.50274004541435,2.3349655007871677,0.4320120304013176,B,921.279100002721,Correct,sub_012_day_23_data.csv,1,600,,Button-Switch at home,,,,,,,,,,,,,d
12,23,144,A,60.77712328382496,72.55353851280265,3.038856164191248,1.1396683179188245,A,2206.245300010778,Correct,sub_012_day_23_data.csv,1,600,,Button-Switch at home,,,,,,,,,,,,,k
12,23,145,A,60.49898501864985,84.03921587617013,3.024949250932492,1.320084916050114,A,2501.280400028918,Correct,sub_012_day_23_data.csv,1,600,,Button-Switch at home,,,,,,,,,,,,,k
12,23,146,A,27.378246543616935,39.22932708552058,1.3689123271808468,0.6162128288857128,A,1224.3458000011742,Correct,sub_012_day_23_data.csv,1,600,,Button-Switch at home,,,,,,,,,,,,,k
12,23,147,A,22.625534407012328,43.42367618376201,1.1312767203506164,0.682097510453844,A,946.7417999985628,Correct,sub_012_day_23_data.csv,1,600,,Button-Switch at home,,,,,,,,,,,,,k
12,23,148,B,38.85331717509264,16.42007141157402,1.942665858754632,0.2579258785901036,B,939.9961000308394,Correct,sub_012_day_23_data.csv,1,600,,Button-Switch at home,,,,,,,,,,,,,d
12,23,149,A,42.22583635673546,69.17192043662713,2.1112918178367734,1.0865499853920273,A,1150.9888999862596,Correct,sub_012_day_23_data.csv,1,600,,Button-Switch at home,,,,,,,,,,,,,k
12,23,150,A,55.231869972652646,78.9183531993789,2.7615934986326325,1.2396465932228664,A,1016.4981000125408,Correct,sub_012_day_23_data.csv,1,600,,Button-Switch at home,,,,,,,,,,,,,k
12,23,151,B,85.68848285268875,62.1221689460507,4.284424142634438,0.9758127479298844,B,1297.1124000032432,Correct,sub_012_day_23_data.csv,1,600,,Button-Switch at home,,,,,,,,,,,,,d
12,23,152,B,40.17317014718087,17.436587538990832,2.0086585073590437,0.2738932765808446,B,1128.8395999581553,Correct,sub_012_day_23_data.csv,1,600,,Button-Switch at home,,,,,,,,,,,,,d
12,23,153,B,63.48206214659342,53.839276465173505,3.174103107329671,0.8457053770878946,B,890.9656000323594,Correct,sub_012_day_23_data.csv,1,600,,Button-Switch at home,,,,,,,,,,,,,d
12,23,154,B,59.71160318956073,30.2931349911684,2.9855801594780367,0.4758434517122928,B,980.893299973104,Correct,sub_012_day_23_data.csv,1,600,,Button-Switch at home,,,,,,,,,,,,,d
12,23,155,A,59.3879164293632,77.66524453026382,2.96939582146816,1.2199628082776584,A,1063.7270000297576,Correct,sub_012_day_23_data.csv,1,600,,Button-Switch at home,,,,,,,,,,,,,k
12,23,156,B,68.10324770331707,40.80335062751869,3.4051623851658532,0.640937532866306,B,1319.1358000040054,Correct,sub_012_day_23_data.csv,1,600,,Button-Switch at home,,,,,,,,,,,,,d
12,23,157,A,11.344039430956409,34.526874890732515,0.5672019715478204,0.5423468825406959,A,1704.040399985388,Correct,sub_012_day_23_data.csv,1,600,,Button-Switch at home,,,,,,,,,,,,,k
12,23,158,A,23.37769256698791,38.15442286078462,1.1688846283493957,0.5993282728069971,A,989.311799989082,Correct,sub_012_day_23_data.csv,1,600,,Button-Switch at home,,,,,,,,,,,,,k
12,23,159,B,61.51281288749812,53.585725587235245,3.0756406443749063,0.8417226092106843,B,1301.3988999882713,Correct,sub_012_day_23_data.csv,1,600,,Button-Switch at home,,,,,,,,,,,,,d
12,23,160,A,17.010815084147996,43.17994503997224,0.8505407542073997,0.678268990599939,A,1386.1816999851726,Correct,sub_012_day_23_data.csv,1,600,,Button-Switch at home,,,,,,,,,,,,,k
12,23,161,B,42.745636449727456,28.334721321870415,2.137281822486373,0.4450807617315107,B,1168.6628999887034,Correct,sub_012_day_23_data.csv,1,600,,Button-Switch at home,,,,,,,,,,,,,d
12,23,162,A,42.40193253005777,52.845306459508286,2.1200966265028884,0.8300921327494624,A,449.5739000267349,Correct,sub_012_day_23_data.csv,1,600,,Button-Switch at home,,,,,,,,,,,,,k
12,23,163,B,56.66629184938847,26.08926776685603,2.8333145924694234,0.4098092597694595,B,1313.8050999841653,Correct,sub_012_day_23_data.csv,1,600,,Button-Switch at home,,,,,,,,,,,,,d
12,23,164,A,40.380819264046416,57.46947190343968,2.0190409632023205,0.9027283536876556,A,1201.565399998799,Correct,sub_012_day_23_data.csv,1,600,,Button-Switch at home,,,,,,,,,,,,,k
12,23,165,B,82.23190338223166,51.74625821411324,4.111595169111584,0.8128283232810932,B,1075.7371000363491,Correct,sub_012_day_23_data.csv,1,600,,Button-Switch at home,,,,,,,,,,,,,d
12,23,166,A,28.58174637063529,52.76673163565114,1.4290873185317643,0.8288578823025289,A,1494.0795000293292,Correct,sub_012_day_23_data.csv,1,600,,Button-Switch at home,,,,,,,,,,,,,k
12,23,167,A,47.04778150807086,64.06841829949424,2.352389075403543,1.0063843612840448,A,1031.2192999990657,Correct,sub_012_day_23_data.csv,1,600,,Button-Switch at home,,,,,,,,,,,,,k
12,23,168,B,77.45096053500644,57.470511502975285,3.8725480267503225,0.9027446836789742,B,924.576400022488,Correct,sub_012_day_23_data.csv,1,600,,Button-Switch at home,,,,,,,,,,,,,d
12,23,169,B,75.13320230388354,50.74462862720935,3.756660115194177,0.797094762521916,B,826.988699962385,Correct,sub_012_day_23_data.csv,1,600,,Button-Switch at home,,,,,,,,,,,,,d
12,23,170,B,50.22025466984672,42.78595607902264,2.511012733492336,0.6720802264733653,B,6039.433699974325,Correct,sub_012_day_23_data.csv,1,600,,Button-Switch at home,,,,,,,,,,,,,d
12,23,171,B,44.287754622795994,30.177386935466178,2.2143877311397997,0.4740252855049857,B,3378.7075000000186,Correct,sub_012_day_23_data.csv,1,600,,Button-Switch at home,,,,,,,,,,,,,d
12,23,172,A,46.724800391669305,59.99343230647415,2.336240019583465,0.9423746309882788,A,4447.057700017467,Correct,sub_012_day_23_data.csv,1,600,,Button-Switch at home,,,,,,,,,,,,,k
12,23,173,A,38.90239030284166,63.07204017860633,1.945119515142083,0.9907332903601496,A,839.5638999645598,Correct,sub_012_day_23_data.csv,1,600,,Button-Switch at home,,,,,,,,,,,,,k
12,23,174,B,72.55224135708274,50.61950929976605,3.6276120678541366,0.7951293927223262,B,840.8472999581136,Correct,sub_012_day_23_data.csv,1,600,,Button-Switch at home,,,,,,,,,,,,,d
12,23,175,B,54.41879310529449,40.85149172767804,2.7209396552647247,0.6416937314992875,B,2879.435300012119,Correct,sub_012_day_23_data.csv,1,600,,Button-Switch at home,,,,,,,,,,,,,d
12,23,176,A,64.69019866896717,80.02814887929543,3.2345099334483587,1.2570792229979235,A,1021.180399984587,Correct,sub_012_day_23_data.csv,1,600,,Button-Switch at home,,,,,,,,,,,,,k
12,23,177,A,51.98713476065019,74.88165769662737,2.5993567380325096,1.1762383285417506,A,860.2066999883391,Correct,sub_012_day_23_data.csv,1,600,,Button-Switch at home,,,,,,,,,,,,,k
12,23,178,B,46.65092762629394,31.67742135347813,2.332546381314697,0.4975877710437767,B,1093.9835999743082,Correct,sub_012_day_23_data.csv,1,600,,Button-Switch at home,,,,,,,,,,,,,d
12,23,179,B,43.795254047489195,34.5741960716023,2.18976270237446,0.5430902019115944,B,2558.9676999952644,Correct,sub_012_day_23_data.csv,1,600,,Button-Switch at home,,,,,,,,,,,,,d
12,23,180,B,60.06393734772628,42.397710808523954,3.003196867386314,0.6659816840254171,B,604.1558000142686,Correct,sub_012_day_23_data.csv,1,600,,Button-Switch at home,,,,,,,,,,,,,d
12,23,181,B,69.19473851322516,43.336366602570386,3.4597369256612582,0.6807260547595461,B,660.4717000154778,Correct,sub_012_day_23_data.csv,1,600,,Button-Switch at home,,,,,,,,,,,,,d
12,23,182,B,67.73407581003615,44.46977653455675,3.386703790501807,0.6985296163387162,B,613.1386999622919,Correct,sub_012_day_23_data.csv,1,600,,Button-Switch at home,,,,,,,,,,,,,d
12,23,183,B,43.08987663751053,22.838609696232577,2.1544938318755267,0.3587480421994444,B,673.5814000130631,Correct,sub_012_day_23_data.csv,1,600,,Button-Switch at home,,,,,,,,,,,,,d
12,23,184,A,58.39211427975488,74.85600484270599,2.919605713987744,1.1758353744546357,A,1040.2434999705292,Correct,sub_012_day_23_data.csv,1,600,,Button-Switch at home,,,,,,,,,,,,,k
12,23,185,B,87.89736971499208,63.5577879214125,4.394868485749604,0.998363398061638,B,1783.073000027798,Correct,sub_012_day_23_data.csv,1,600,,Button-Switch at home,,,,,,,,,,,,,d
12,23,186,B,60.19910681317636,35.861957422191026,3.0099553406588178,0.5633183099045264,B,4569.118199986406,Correct,sub_012_day_23_data.csv,1,600,,Button-Switch at home,,,,,,,,,,,,,d
12,23,187,A,40.09933713256141,54.67565858119209,2.0049668566280703,0.8588432366442841,A,2072.0714000053704,Correct,sub_012_day_23_data.csv,1,600,,Button-Switch at home,,,,,,,,,,,,,k
12,23,188,B,65.58604026357042,37.45537322941508,3.2793020131785213,0.5883476268749711,B,884.3067999696359,Correct,sub_012_day_23_data.csv,1,600,,Button-Switch at home,,,,,,,,,,,,,d
12,23,189,B,57.146168971335406,37.69137983076115,2.8573084485667706,0.5920548098999087,B,2218.6268999939784,Correct,sub_012_day_23_data.csv,1,600,,Button-Switch at home,,,,,,,,,,,,,d
12,23,190,B,77.52938534231393,45.48300093931797,3.876469267115697,0.7144453080708948,B,2476.5192000195384,Correct,sub_012_day_23_data.csv,1,600,,Button-Switch at home,,,,,,,,,,,,,d
12,23,191,A,19.81192500834706,51.05631552634043,0.990596250417353,0.8019907288845679,A,1172.288500005379,Correct,sub_012_day_23_data.csv,1,600,,Button-Switch at home,,,,,,,,,,,,,k
12,23,192,B,47.984139946285886,22.562365737238135,2.399206997314294,0.3544088122385668,B,648.5713999718428,Correct,sub_012_day_23_data.csv,1,600,,Button-Switch at home,,,,,,,,,,,,,d
12,23,193,B,38.86364863091504,12.344413466906811,1.943182431545752,0.1939055933025467,B,718.4814999927767,Correct,sub_012_day_23_data.csv,1,600,,Button-Switch at home,,,,,,,,,,,,,d
12,23,194,A,52.99817464943319,67.11639356533246,2.6499087324716597,1.054261844801449,A,600.2673999755643,Correct,sub_012_day_23_data.csv,1,600,,Button-Switch at home,,,,,,,,,,,,,k
12,23,195,A,30.46119048271256,47.57916231405096,1.5230595241356282,0.7473717339488942,A,650.4830000340007,Correct,sub_012_day_23_data.csv,1,600,,Button-Switch at home,,,,,,,,,,,,,k
12,23,196,A,25.839228771845633,54.834934574970134,1.2919614385922815,0.8613451381040156,A,1453.3356999745592,Correct,sub_012_day_23_data.csv,1,600,,Button-Switch at home,,,,,,,,,,,,,k
12,23,197,A,20.993518184597107,39.301377361792994,1.049675909229855,0.6173445919788454,A,1019.9706999701448,Correct,sub_012_day_23_data.csv,1,600,,Button-Switch at home,,,,,,,,,,,,,k
12,23,198,A,52.79199731899895,63.47209845337423,2.6395998659499473,0.9970173910452428,B,2128.533999959473,Incorrect,sub_012_day_23_data.csv,0,600,,Button-Switch at home,,,,,,,,,,,,,d
12,23,199,B,34.85298165943687,22.46322802955428,1.7426490829718435,0.3528515607678002,B,1212.8093999926932,Correct,sub_012_day_23_data.csv,1,600,,Button-Switch at home,,,,,,,,,,,,,d
12,23,200,A,21.084044701925915,33.02723903534262,1.0542022350962958,0.5187906576089321,A,1078.7184999790045,Correct,sub_012_day_23_data.csv,1,600,,Button-Switch at home,,,,,,,,,,,,,k
12,23,201,B,62.113587089772984,48.29993769579666,3.1056793544886494,0.7586936471697976,B,1853.3545000245797,Correct,sub_012_day_23_data.csv,1,600,,Button-Switch at home,,,,,,,,,,,,,d
12,23,202,B,38.72926126156254,21.60890588838996,1.9364630630781272,0.3394318999553956,B,1146.260000008624,Correct,sub_012_day_23_data.csv,1,600,,Button-Switch at home,,,,,,,,,,,,,d
12,23,203,A,29.403757076254003,41.72000712105716,1.4701878538127002,0.6553363393961351,A,1298.3442000113428,Correct,sub_012_day_23_data.csv,1,600,,Button-Switch at home,,,,,,,,,,,,,k
12,23,204,B,51.02910071532766,19.67710275494435,2.551455035766383,0.3090872072943233,B,1032.1804999839514,Correct,sub_012_day_23_data.csv,1,600,,Button-Switch at home,,,,,,,,,,,,,d
12,23,205,B,80.89096985461882,66.34807747403842,4.04454849273094,1.0421931638612276,B,1271.7040000134148,Correct,sub_012_day_23_data.csv,1,600,,Button-Switch at home,,,,,,,,,,,,,d
12,23,206,B,73.89134588795632,54.20811877845016,3.694567294397816,0.8514991385965097,B,1245.0932000065222,Correct,sub_012_day_23_data.csv,1,600,,Button-Switch at home,,,,,,,,,,,,,d
12,23,207,B,68.559649626281,42.468745047910275,3.42798248131405,0.6670974872484642,B,774.5648000272922,Correct,sub_012_day_23_data.csv,1,600,,Button-Switch at home,,,,,,,,,,,,,d
12,23,208,A,23.414313075297702,49.76988721782787,1.170715653764885,0.7817835602676029,A,1581.8186999531465,Correct,sub_012_day_23_data.csv,1,600,,Button-Switch at home,,,,,,,,,,,,,k
12,23,209,B,76.80292561791204,48.10870691099758,3.8401462808956017,0.7556898010264725,B,1711.4767000311986,Correct,sub_012_day_23_data.csv,1,600,,Button-Switch at home,,,,,,,,,,,,,d
12,23,210,B,48.038835985905614,38.76476124661095,2.401941799295281,0.6089154457525764,B,1508.4508000290953,Correct,sub_012_day_23_data.csv,1,600,,Button-Switch at home,,,,,,,,,,,,,d
12,23,211,B,72.49818288079845,42.41633112496573,3.624909144039923,0.6662741712721221,B,1284.5549000194296,Correct,sub_012_day_23_data.csv,1,600,,Button-Switch at home,,,,,,,,,,,,,d
12,23,212,B,79.83452714671525,54.064925668857,3.991726357335762,0.849249866490797,B,892.6850999705493,Correct,sub_012_day_23_data.csv,1,600,,Button-Switch at home,,,,,,,,,,,,,d
12,23,213,A,55.21240619448133,83.17304230883055,2.7606203097240667,1.3064790934706754,A,1153.0235999962315,Correct,sub_012_day_23_data.csv,1,600,,Button-Switch at home,,,,,,,,,,,,,k
12,23,214,B,77.46232829749647,66.34075686767672,3.8731164148748234,1.0420781720453989,B,1100.8702999679372,Correct,sub_012_day_23_data.csv,1,600,,Button-Switch at home,,,,,,,,,,,,,d
12,23,215,A,46.19141444935931,70.93631951052886,2.309570722467966,1.1142651012348788,A,1501.824899984058,Correct,sub_012_day_23_data.csv,1,600,,Button-Switch at home,,,,,,,,,,,,,k
12,23,216,A,32.02736018461383,63.80471987624157,1.6013680092306917,1.0022421961377757,A,896.4935999829322,Correct,sub_012_day_23_data.csv,1,600,,Button-Switch at home,,,,,,,,,,,,,k
12,23,217,B,35.528718703034656,15.611848166621613,1.7764359351517327,0.2452303375460887,B,972.3066000151448,Correct,sub_012_day_23_data.csv,1,600,,Button-Switch at home,,,,,,,,,,,,,d
12,23,218,A,49.90088848521377,58.71643238119294,2.495044424260689,0.9223155630687878,A,2271.316599973943,Correct,sub_012_day_23_data.csv,1,600,,Button-Switch at home,,,,,,,,,,,,,k
12,23,219,B,79.83495922116828,52.31313933695056,3.991747961058414,0.8217328711359154,B,833.4275999804959,Correct,sub_012_day_23_data.csv,1,600,,Button-Switch at home,,,,,,,,,,,,,d
12,23,220,A,12.125528112404512,35.74810217226823,0.6062764056202257,0.561529875820876,A,1218.247100012377,Correct,sub_012_day_23_data.csv,1,600,,Button-Switch at home,,,,,,,,,,,,,k
12,23,221,B,35.13138442377851,13.407253040641262,1.7565692211889257,0.21060063828649,B,1168.5788000468165,Correct,sub_012_day_23_data.csv,1,600,,Button-Switch at home,,,,,,,,,,,,,d
12,23,222,A,53.39558198371121,69.14588781104172,2.6697790991855608,1.0861410658655637,A,544.6786000393331,Correct,sub_012_day_23_data.csv,1,600,,Button-Switch at home,,,,,,,,,,,,,k
12,23,223,A,56.64805430703652,85.73663555257292,2.8324027153518263,1.3467479219773426,A,567.2727000201121,Correct,sub_012_day_23_data.csv,1,600,,Button-Switch at home,,,,,,,,,,,,,k
12,23,224,A,37.60747698151536,62.656653308349306,1.880373849075768,0.984208408660164,A,1417.7646999596618,Correct,sub_012_day_23_data.csv,1,600,,Button-Switch at home,,,,,,,,,,,,,k
12,23,225,A,51.940384615529695,67.82820299698014,2.597019230776485,1.0654429212075498,A,533.0008000019006,Correct,sub_012_day_23_data.csv,1,600,,Button-Switch at home,,,,,,,,,,,,,k
12,23,226,B,83.59378344139516,59.947009409120966,4.179689172069758,0.9416454218218632,B,493.87399997795,Correct,sub_012_day_23_data.csv,1,600,,Button-Switch at home,,,,,,,,,,,,,d
12,23,227,A,58.15532137728693,78.68841353619082,2.9077660688643463,1.2360347094396635,A,557.1662000147626,Correct,sub_012_day_23_data.csv,1,600,,Button-Switch at home,,,,,,,,,,,,,k
12,23,228,B,64.46169020242974,37.492504616981705,3.223084510121487,0.5889308853469557,B,589.2894000280648,Correct,sub_012_day_23_data.csv,1,600,,Button-Switch at home,,,,,,,,,,,,,d
12,23,229,B,38.97693329059912,29.604728939625,1.948846664529956,0.4650299947412152,B,618.2544999755919,Correct,sub_012_day_23_data.csv,1,600,,Button-Switch at home,,,,,,,,,,,,,d
12,23,230,A,31.52502804618441,40.095060041564594,1.576251402309221,0.6298117303591049,A,1271.0036999778822,Correct,sub_012_day_23_data.csv,1,600,,Button-Switch at home,,,,,,,,,,,,,k
12,23,231,B,53.28826741433117,21.75934519924649,2.664413370716559,0.3417949951243854,B,519.1067000268959,Correct,sub_012_day_23_data.csv,1,600,,Button-Switch at home,,,,,,,,,,,,,d
12,23,232,B,47.90561198832291,21.537664355276835,2.3952805994161452,0.3383128405701022,B,472.0260000322014,Correct,sub_012_day_23_data.csv,1,600,,Button-Switch at home,,,,,,,,,,,,,d
12,23,233,A,56.01143352767698,68.08435946228948,2.800571676383849,1.0694666175554768,A,1389.8913000011817,Correct,sub_012_day_23_data.csv,1,600,,Button-Switch at home,,,,,,,,,,,,,k
12,23,234,B,73.83057737680936,49.33543010782227,3.691528868840468,0.7749591239421357,B,635.9991999925114,Correct,sub_012_day_23_data.csv,1,600,,Button-Switch at home,,,,,,,,,,,,,d
12,23,235,B,57.41406366558027,36.14420294123421,2.8707031832790135,0.5677518121502,B,951.062199950684,Correct,sub_012_day_23_data.csv,1,600,,Button-Switch at home,,,,,,,,,,,,,d
12,23,236,A,56.19884943255901,66.94185537156969,2.8099424716279504,1.0515202052649688,A,1125.9279999649152,Correct,sub_012_day_23_data.csv,1,600,,Button-Switch at home,,,,,,,,,,,,,k
12,23,237,A,41.3128349533441,72.95163903077547,2.065641747667205,1.145921666232093,A,1221.9123000395484,Correct,sub_012_day_23_data.csv,1,600,,Button-Switch at home,,,,,,,,,,,,,k
12,23,238,B,50.947334514515866,34.372029563835966,2.547366725725793,0.5399145778335912,B,549.4169000303373,Correct,sub_012_day_23_data.csv,1,600,,Button-Switch at home,,,,,,,,,,,,,d
12,23,239,A,51.90672071082862,79.89617332528508,2.5953360355414308,1.255006155843262,A,1259.4137000269257,Correct,sub_012_day_23_data.csv,1,600,,Button-Switch at home,,,,,,,,,,,,,k
12,23,240,A,27.570263182779392,59.43551656975715,1.3785131591389697,0.9336109110893176,A,1500.4486999823712,Correct,sub_012_day_23_data.csv,1,600,,Button-Switch at home,,,,,,,,,,,,,k
12,23,241,B,58.18217767842045,25.55967324877397,2.909108883921023,0.4014904085325193,B,886.4307999610901,Correct,sub_012_day_23_data.csv,1,600,,Button-Switch at home,,,,,,,,,,,,,d
12,23,242,A,15.006581793776704,41.43719336139477,0.7503290896888352,0.6508939112476878,A,2563.869200006593,Correct,sub_012_day_23_data.csv,1,600,,Button-Switch at home,,,,,,,,,,,,,k
12,23,243,B,59.88975455943133,46.95350253925306,2.9944877279715665,0.7375438931881356,B,799.129199993331,Correct,sub_012_day_23_data.csv,1,600,,Button-Switch at home,,,,,,,,,,,,,d
12,23,244,B,40.972060899752,18.82592074402998,2.0486030449876,0.2957168715325413,B,539.9628999875858,Correct,sub_012_day_23_data.csv,1,600,,Button-Switch at home,,,,,,,,,,,,,d
12,23,245,A,61.324076877099856,78.94753795367153,3.066203843854993,1.2401050262712792,A,1734.6340999938548,Correct,sub_012_day_23_data.csv,1,600,,Button-Switch at home,,,,,,,,,,,,,k
12,23,246,B,42.14262924483923,23.253415245907707,2.107131462241961,0.3652637925370827,B,648.3749999897555,Correct,sub_012_day_23_data.csv,1,600,,Button-Switch at home,,,,,,,,,,,,,d
12,23,247,B,43.9768827404108,15.02301719851764,2.19884413702054,0.2359810023280806,B,3426.202100003138,Correct,sub_012_day_23_data.csv,1,600,,Button-Switch at home,,,,,,,,,,,,,d
12,23,248,A,21.498000498918383,46.860761292450206,1.0749000249459193,0.7360871170899325,A,3881.3659999868833,Correct,sub_012_day_23_data.csv,1,600,,Button-Switch at home,,,,,,,,,,,,,k
12,23,249,B,39.4909669715892,22.515781329649084,1.97454834857946,0.3536770660752989,B,842.9113999591209,Correct,sub_012_day_23_data.csv,1,600,,Button-Switch at home,,,,,,,,,,,,,d
12,23,250,B,80.94659690167336,52.47562550614435,4.047329845083668,0.8242851979131613,B,1067.9657000000589,Correct,sub_012_day_23_data.csv,1,600,,Button-Switch at home,,,,,,,,,,,,,d
12,23,251,B,69.47688411486072,40.30871719830667,3.473844205743036,0.6331678491291439,B,3004.1996999643743,Correct,sub_012_day_23_data.csv,1,600,,Button-Switch at home,,,,,,,,,,,,,d
12,23,252,A,34.34063662797682,50.32901173672426,1.717031831398841,0.7905662676726369,A,1335.5067999800667,Correct,sub_012_day_23_data.csv,1,600,,Button-Switch at home,,,,,,,,,,,,,k
12,23,253,B,60.510169562629066,40.28321328982442,3.025508478131453,0.6327672346715155,B,825.4473999841139,Correct,sub_012_day_23_data.csv,1,600,,Button-Switch at home,,,,,,,,,,,,,d
12,23,254,A,50.00019054140182,72.10564921388826,2.500009527070091,1.13263288926337,A,996.2270999676548,Correct,sub_012_day_23_data.csv,1,600,,Button-Switch at home,,,,,,,,,,,,,k
12,23,255,B,58.03202645896604,36.43562168154853,2.9016013229483018,0.5723294070186493,B,1302.34819999896,Correct,sub_012_day_23_data.csv,1,600,,Button-Switch at home,,,,,,,,,,,,,d
12,23,256,B,55.92371637804646,30.169179139639382,2.7961858189023228,0.4738963577496275,B,2614.6629999857396,Correct,sub_012_day_23_data.csv,1,600,,Button-Switch at home,,,,,,,,,,,,,d
12,23,257,A,55.95321973598895,73.16566140987747,2.797660986799448,1.1492835219015465,A,1687.8833000082525,Correct,sub_012_day_23_data.csv,1,600,,Button-Switch at home,,,,,,,,,,,,,k
12,23,258,A,39.86973263411377,56.37981357521093,1.9934866317056883,0.8856120406932236,A,2975.362600001972,Correct,sub_012_day_23_data.csv,1,600,,Button-Switch at home,,,,,,,,,,,,,k
12,23,259,B,47.704605456940115,35.249450567530886,2.3852302728470054,0.553697074730158,B,927.0356000051834,Correct,sub_012_day_23_data.csv,1,600,,Button-Switch at home,,,,,,,,,,,,,d
12,23,260,A,21.807556668506304,41.637309850272686,1.0903778334253154,0.654037333704293,A,4202.77570001781,Correct,sub_012_day_23_data.csv,1,600,,Button-Switch at home,,,,,,,,,,,,,k
12,23,261,A,40.09251971484385,58.5397802405489,2.0046259857421926,0.9195407177323468,A,1533.7196000036784,Correct,sub_012_day_23_data.csv,1,600,,Button-Switch at home,,,,,,,,,,,,,k
12,23,262,A,65.25328311540252,79.17583735350757,3.262664155770126,1.2436911448579986,B,2383.3442999748513,Incorrect,sub_012_day_23_data.csv,0,600,,Button-Switch at home,,,,,,,,,,,,,d
12,23,263,B,55.14570681981884,28.351310571998553,2.7572853409909417,0.4453413450631664,B,6328.875400009565,Correct,sub_012_day_23_data.csv,1,600,,Button-Switch at home,,,,,,,,,,,,,d
12,23,264,B,43.90328466864368,31.0086713891271,2.195164233432184,0.4870830711683085,B,6421.424100000877,Correct,sub_012_day_23_data.csv,1,600,,Button-Switch at home,,,,,,,,,,,,,d
12,23,265,B,52.11784706273853,42.38482913017843,2.6058923531369267,0.6657793390951362,B,1170.8508000010625,Correct,sub_012_day_23_data.csv,1,600,,Button-Switch at home,,,,,,,,,,,,,d
12,23,266,B,78.25453160304932,54.284648497816875,3.9127265801524658,0.8527012646172284,B,852.8649999643676,Correct,sub_012_day_23_data.csv,1,600,,Button-Switch at home,,,,,,,,,,,,,d
12,23,267,A,62.73901801422216,85.95247675621121,3.136950900711108,1.350138347675803,A,1483.6040000081994,Correct,sub_012_day_23_data.csv,1,600,,Button-Switch at home,,,,,,,,,,,,,k
12,23,268,B,87.45943192351706,68.052552986444,4.372971596175853,1.068967002601213,B,890.8802000223659,Correct,sub_012_day_23_data.csv,1,600,,Button-Switch at home,,,,,,,,,,,,,d
12,23,269,B,71.80756834428418,45.404189375858515,3.590378417214209,0.7132073389269842,B,1315.5592000111938,Correct,sub_012_day_23_data.csv,1,600,,Button-Switch at home,,,,,,,,,,,,,d
12,23,270,B,60.71650352785901,34.06758763040689,3.035825176392951,0.535132415126064,B,668.8005999894813,Correct,sub_012_day_23_data.csv,1,600,,Button-Switch at home,,,,,,,,,,,,,d
12,23,271,A,55.69226367013731,72.34810243446739,2.7846131835068655,1.1364413355464231,A,5313.26419999823,Correct,sub_012_day_23_data.csv,1,600,,Button-Switch at home,,,,,,,,,,,,,k
12,23,272,A,45.57562131218934,55.178145415387256,2.278781065609467,0.8667362813784497,A,1289.2514999839475,Correct,sub_012_day_23_data.csv,1,600,,Button-Switch at home,,,,,,,,,,,,,k
12,23,273,B,53.82793879965632,41.36318619708746,2.6913969399828157,0.6497314094291835,B,3302.474199968856,Correct,sub_012_day_23_data.csv,1,600,,Button-Switch at home,,,,,,,,,,,,,d
12,23,274,A,46.178631412700746,63.74185841375061,2.3089315706350373,1.0012547705939985,A,3354.7047000029124,Correct,sub_012_day_23_data.csv,1,600,,Button-Switch at home,,,,,,,,,,,,,k
12,23,275,A,26.20582183425033,38.95771584419418,1.3102910917125163,0.6119463694837957,A,3240.4820999945514,Correct,sub_012_day_23_data.csv,1,600,,Button-Switch at home,,,,,,,,,,,,,k
12,23,276,A,52.747058353198184,73.3613782861561,2.6373529176599093,1.1523578354050488,A,2003.243200015277,Correct,sub_012_day_23_data.csv,1,600,,Button-Switch at home,,,,,,,,,,,,,k
12,23,277,B,44.74141902586979,29.940583136242417,2.2370709512934894,0.4703055801250681,B,2871.7826000065543,Correct,sub_012_day_23_data.csv,1,600,,Button-Switch at home,,,,,,,,,,,,,d
12,23,278,A,22.604325245169925,35.45082122480831,1.130216262258496,0.5568601976179145,A,933.6808000225574,Correct,sub_012_day_23_data.csv,1,600,,Button-Switch at home,,,,,,,,,,,,,k
12,23,279,A,33.79482302188671,51.555352146236416,1.6897411510943354,0.8098295777792555,A,839.8894999991171,Correct,sub_012_day_23_data.csv,1,600,,Button-Switch at home,,,,,,,,,,,,,k
12,23,280,A,22.023911474441732,50.8257883989351,1.1011955737220869,0.7983696172350191,A,613.0695000174455,Correct,sub_012_day_23_data.csv,1,600,,Button-Switch at home,,,,,,,,,,,,,k
12,23,281,A,50.56290015091405,64.3243840387698,2.5281450075457026,1.010405061714439,A,739.7814000141807,Correct,sub_012_day_23_data.csv,1,600,,Button-Switch at home,,,,,,,,,,,,,k
12,23,282,A,61.599328219048616,73.9910317889921,3.079966410952431,1.162248409499132,B,1453.8823000038974,Incorrect,sub_012_day_23_data.csv,0,600,,Button-Switch at home,,,,,,,,,,,,,d
12,23,283,B,68.77557102120144,37.51264053741499,3.4387785510600724,0.5892471796454879,B,1014.5727999624796,Correct,sub_012_day_23_data.csv,1,600,,Button-Switch at home,,,,,,,,,,,,,d
12,23,284,B,51.262440221420896,33.472306666899584,2.563122011071045,0.5257817636171819,A,981.3532999833114,Incorrect,sub_012_day_23_data.csv,0,600,,Button-Switch at home,,,,,,,,,,,,,k
12,23,285,A,65.809178553957,78.41558638913654,3.2904589276978498,1.2317491506352356,A,1121.667500003241,Correct,sub_012_day_23_data.csv,1,600,,Button-Switch at home,,,,,,,,,,,,,k
12,23,286,A,46.34555298857197,58.90100800070346,2.3172776494285983,0.9252148701202182,A,919.6458999649622,Correct,sub_012_day_23_data.csv,1,600,,Button-Switch at home,,,,,,,,,,,,,k
12,23,287,A,62.31863189287057,84.61313123328357,3.115931594643529,1.3290999573985638,A,608.861299988348,Correct,sub_012_day_23_data.csv,1,600,,Button-Switch at home,,,,,,,,,,,,,k
12,23,288,B,65.620550175945,42.7169157984547,3.28102750879725,0.6709957442821952,B,622.9245999711566,Correct,sub_012_day_23_data.csv,1,600,,Button-Switch at home,,,,,,,,,,,,,d
12,23,289,A,46.37189322930751,54.36047942434069,2.3185946614653754,0.8538924140256392,B,759.3301999731921,Incorrect,sub_012_day_23_data.csv,0,600,,Button-Switch at home,,,,,,,,,,,,,d
12,23,290,A,35.10490024028931,49.11622045279759,1.7552450120144656,0.7715157867330282,B,964.5593999885024,Incorrect,sub_012_day_23_data.csv,0,600,,Button-Switch at home,,,,,,,,,,,,,d
12,23,291,A,62.53798779034909,86.31925653744628,3.126899389517455,1.3558997110068698,A,1576.7932000453584,Correct,sub_012_day_23_data.csv,1,600,,Button-Switch at home,,,,,,,,,,,,,k
12,23,292,A,47.23773935757743,75.25801761756722,2.361886967878871,1.182150176355402,A,504.4276000116952,Correct,sub_012_day_23_data.csv,1,600,,Button-Switch at home,,,,,,,,,,,,,k
12,23,293,A,13.522620821051458,33.541172348643684,0.6761310410525729,0.5268635032164405,A,553.5196000128053,Correct,sub_012_day_23_data.csv,1,600,,Button-Switch at home,,,,,,,,,,,,,k
12,23,294,A,52.69021781099725,74.66776876335702,2.6345108905498624,1.1728785690345194,A,570.1359999948181,Correct,sub_012_day_23_data.csv,1,600,,Button-Switch at home,,,,,,,,,,,,,k
12,23,295,B,39.788145865974506,26.634043583486104,1.9894072932987257,0.4183665782863515,B,743.0277999956161,Correct,sub_012_day_23_data.csv,1,600,,Button-Switch at home,,,,,,,,,,,,,d
12,23,296,A,57.9313535309719,86.1882837870815,2.896567676548595,1.3538423958550376,A,528.6798999877647,Correct,sub_012_day_23_data.csv,1,600,,Button-Switch at home,,,,,,,,,,,,,k
12,23,297,B,49.14182479121044,23.317815371396826,2.457091239560522,0.3662753873427171,B,522.3920000134967,Correct,sub_012_day_23_data.csv,1,600,,Button-Switch at home,,,,,,,,,,,,,d
12,23,298,B,41.998074796396025,32.76285010901094,2.0999037398198013,0.5146376460656616,B,602.809400006663,Correct,sub_012_day_23_data.csv,1,600,,Button-Switch at home,,,,,,,,,,,,,d
12,23,299,A,12.805744678033156,36.25396978846061,0.640287233901658,0.5694760257544706,A,460.3893999592401,Correct,sub_012_day_23_data.csv,1,600,,Button-Switch at home,,,,,,,,,,,,,k
12,23,300,A,22.86831520637839,37.851162924265104,1.1434157603189194,0.5945646768635081,A,578.2593000330962,Correct,sub_012_day_23_data.csv,1,600,,Button-Switch at home,,,,,,,,,,,,,k
12,23,301,B,74.9885413869332,62.36945716168854,3.74942706934666,0.97969714213772,B,560.9149999800138,Correct,sub_012_day_23_data.csv,1,600,,Button-Switch at home,,,,,,,,,,,,,d
12,23,302,A,44.2382494405459,75.02815271912075,2.211912472027295,1.178539466974014,A,469.90600001299754,Correct,sub_012_day_23_data.csv,1,600,,Button-Switch at home,,,,,,,,,,,,,k
12,23,303,A,34.33068298756046,50.02755336170699,1.716534149378023,0.7858309705910501,A,496.0423999582418,Correct,sub_012_day_23_data.csv,1,600,,Button-Switch at home,,,,,,,,,,,,,k
12,23,304,B,65.03162758953003,38.24103520980594,3.2515813794765016,0.6006887764039749,B,658.1408000201918,Correct,sub_012_day_23_data.csv,1,600,,Button-Switch at home,,,,,,,,,,,,,d
12,23,305,B,83.11728405465345,53.41659633555934,4.155864202732673,0.8390659331378234,B,625.8891999605112,Correct,sub_012_day_23_data.csv,1,600,,Button-Switch at home,,,,,,,,,,,,,d
12,23,306,B,64.9338905247402,46.42681566113357,3.24669452623701,0.7292707150529237,B,488.4335999959149,Correct,sub_012_day_23_data.csv,1,600,,Button-Switch at home,,,,,,,,,,,,,d
12,23,307,A,47.2815885587695,60.44081803681108,2.364079427938475,0.9494021496070156,A,639.4544000504538,Correct,sub_012_day_23_data.csv,1,600,,Button-Switch at home,,,,,,,,,,,,,k
12,23,308,A,39.27200153945623,60.85613120317,1.9636000769728112,0.9559258735688774,A,653.8807000033557,Correct,sub_012_day_23_data.csv,1,600,,Button-Switch at home,,,,,,,,,,,,,k
12,23,309,B,71.0226550045473,49.662798216398386,3.551132750227365,0.7801014101667474,B,551.5036000288092,Correct,sub_012_day_23_data.csv,1,600,,Button-Switch at home,,,,,,,,,,,,,d
12,23,310,A,40.24862043596568,58.96642229580221,2.012431021798284,0.926242395464828,B,2372.6887000375427,Incorrect,sub_012_day_23_data.csv,0,600,,Button-Switch at home,,,,,,,,,,,,,d
12,23,311,B,55.060148337723255,25.397100786684874,2.7530074168861627,0.3989367262696437,B,639.5933000021614,Correct,sub_012_day_23_data.csv,1,600,,Button-Switch at home,,,,,,,,,,,,,d
12,23,312,A,33.02373790617663,59.27944150144871,1.6511868953088311,0.9311592896492858,A,1318.4122000238858,Correct,sub_012_day_23_data.csv,1,600,,Button-Switch at home,,,,,,,,,,,,,k
12,23,313,A,42.584310497548245,61.06482247229297,2.129215524877412,0.9592039883586024,A,968.6092000338248,Correct,sub_012_day_23_data.csv,1,600,,Button-Switch at home,,,,,,,,,,,,,k
12,23,314,A,68.23085989128012,86.44936185222788,3.411542994564006,1.3579434005124242,A,733.8889000238851,Correct,sub_012_day_23_data.csv,1,600,,Button-Switch at home,,,,,,,,,,,,,k
12,23,315,B,79.55977432535884,54.39059307483929,3.977988716267942,0.854365438141535,B,3722.5523000233807,Correct,sub_012_day_23_data.csv,1,600,,Button-Switch at home,,,,,,,,,,,,,d
12,23,316,A,11.409411656495733,35.21836477023308,0.5704705828247866,0.5532087801680491,A,5191.262200009078,Correct,sub_012_day_23_data.csv,1,600,,Button-Switch at home,,,,,,,,,,,,,k
12,23,317,B,63.95460179280514,45.86373291196751,3.1977300896402574,0.7204258319122078,B,3217.415200022515,Correct,sub_012_day_23_data.csv,1,600,,Button-Switch at home,,,,,,,,,,,,,d
12,23,318,A,30.685391446226873,42.897933340477685,1.5342695723113438,0.6738391611831468,A,1616.4430999779142,Correct,sub_012_day_23_data.csv,1,600,,Button-Switch at home,,,,,,,,,,,,,k
12,23,319,A,48.03349214609533,74.39884409696894,2.4016746073047663,1.1686543102530498,A,1019.2091999924742,Correct,sub_012_day_23_data.csv,1,600,,Button-Switch at home,,,,,,,,,,,,,k
12,23,320,B,37.15586559838496,11.930436392557006,1.857793279919248,0.187402856624887,B,1542.956700024661,Correct,sub_012_day_23_data.csv,1,600,,Button-Switch at home,,,,,,,,,,,,,d
12,23,321,A,22.074970973487435,39.75629341501576,1.103748548674372,0.624490396632869,A,1243.5486000031233,Correct,sub_012_day_23_data.csv,1,600,,Button-Switch at home,,,,,,,,,,,,,k
12,23,322,B,34.21651990226391,16.069067068293986,1.7108259951131957,0.2524123152589703,B,1058.4035000065342,Correct,sub_012_day_23_data.csv,1,600,,Button-Switch at home,,,,,,,,,,,,,d
12,23,323,B,69.8939729004481,37.40636067479343,3.494698645022405,0.587577739467306,B,1484.1406000196002,Correct,sub_012_day_23_data.csv,1,600,,Button-Switch at home,,,,,,,,,,,,,d
12,23,324,A,60.96081847078345,77.35095746520702,3.048040923539173,1.2150259986041547,A,797.6900000358,Correct,sub_012_day_23_data.csv,1,600,,Button-Switch at home,,,,,,,,,,,,,k
12,23,325,A,35.13195787674792,56.7155195977684,1.7565978938373958,0.8908852985643857,A,1006.9207000196913,Correct,sub_012_day_23_data.csv,1,600,,Button-Switch at home,,,,,,,,,,,,,k
12,23,326,B,60.594968340275905,37.281599462693336,3.0297484170137956,0.5856179949303727,B,1169.6962999994869,Correct,sub_012_day_23_data.csv,1,600,,Button-Switch at home,,,,,,,,,,,,,d
12,23,327,B,34.73002558867368,11.654759356495216,1.7365012794336845,0.1830725318686114,B,1087.8130000201054,Correct,sub_012_day_23_data.csv,1,600,,Button-Switch at home,,,,,,,,,,,,,d
12,23,328,A,58.74060840749746,79.11284833415095,2.937030420374873,1.2427017156556606,A,1331.4984000171537,Correct,sub_012_day_23_data.csv,1,600,,Button-Switch at home,,,,,,,,,,,,,k
12,23,329,A,61.7810809890247,71.19547708755931,3.089054049451235,1.118335938935484,A,1255.6671999627724,Correct,sub_012_day_23_data.csv,1,600,,Button-Switch at home,,,,,,,,,,,,,k
12,23,330,A,18.644864351531076,38.464985755139686,0.932243217576554,0.6042065833439144,A,1139.6414000191726,Correct,sub_012_day_23_data.csv,1,600,,Button-Switch at home,,,,,,,,,,,,,k
12,23,331,A,46.29937901317985,65.08552282622097,2.3149689506589923,1.0223610018295328,A,3674.3751000030898,Correct,sub_012_day_23_data.csv,1,600,,Button-Switch at home,,,,,,,,,,,,,k
12,23,332,B,66.99447986236052,53.73676114430337,3.3497239931180265,0.8440950701932645,B,2056.1185000115074,Correct,sub_012_day_23_data.csv,1,600,,Button-Switch at home,,,,,,,,,,,,,d
12,23,333,B,72.425228144471,50.29768078669399,3.6212614072235505,0.7900741222604116,B,1037.482200015802,Correct,sub_012_day_23_data.csv,1,600,,Button-Switch at home,,,,,,,,,,,,,d
12,23,334,A,56.0172989613546,72.52962853887978,2.80086494806773,1.1392927409267066,A,1815.7199999550355,Correct,sub_012_day_23_data.csv,1,600,,Button-Switch at home,,,,,,,,,,,,,k
12,23,335,B,43.98603187619693,28.73419719702096,2.199301593809847,0.4513557141048074,B,1069.7924999985844,Correct,sub_012_day_23_data.csv,1,600,,Button-Switch at home,,,,,,,,,,,,,d
12,23,336,A,22.46635156453357,41.679598042699325,1.1233175782266784,0.6547015950775986,A,3222.34739997657,Correct,sub_012_day_23_data.csv,1,600,,Button-Switch at home,,,,,,,,,,,,,k
12,23,337,B,45.65456626887825,15.828015746295913,2.2827283134439127,0.248625889947334,B,1679.6501000062565,Correct,sub_012_day_23_data.csv,1,600,,Button-Switch at home,,,,,,,,,,,,,d
12,23,338,A,17.195382703272198,40.33878367320273,0.85976913516361,0.6336401322124078,A,1170.700400019996,Correct,sub_012_day_23_data.csv,1,600,,Button-Switch at home,,,,,,,,,,,,,k
12,23,339,A,58.63298190797961,83.5602465920615,2.931649095398981,1.3125612841288596,A,844.0250999992713,Correct,sub_012_day_23_data.csv,1,600,,Button-Switch at home,,,,,,,,,,,,,k
12,23,340,A,29.997282798228163,59.70957909509426,1.499864139911408,0.937915875170434,A,645.2072000247426,Correct,sub_012_day_23_data.csv,1,600,,Button-Switch at home,,,,,,,,,,,,,k
12,23,341,A,51.6893078900225,69.6807192997889,2.584465394501125,1.0945421792453467,A,1260.279799986165,Correct,sub_012_day_23_data.csv,1,600,,Button-Switch at home,,,,,,,,,,,,,k
12,23,342,B,74.91394270494375,44.30470656699413,3.745697135247187,0.6959367033516011,B,2282.9696999979205,Correct,sub_012_day_23_data.csv,1,600,,Button-Switch at home,,,,,,,,,,,,,d
12,23,343,B,33.822210296435514,14.388686931227337,1.6911105148217758,0.2260169657897363,B,847.521300020162,Correct,sub_012_day_23_data.csv,1,600,,Button-Switch at home,,,,,,,,,,,,,d
12,23,344,B,75.67788848771735,45.715422978233455,3.783894424385868,0.7180961849208413,B,693.6029000207782,Correct,sub_012_day_23_data.csv,1,600,,Button-Switch at home,,,,,,,,,,,,,d
12,23,345,A,34.67453323395588,51.55464915628024,1.733726661697794,0.8098185352388462,A,550.1898999791592,Correct,sub_012_day_23_data.csv,1,600,,Button-Switch at home,,,,,,,,,,,,,k
12,23,346,B,74.13193836280816,55.538979766943854,3.706596918140408,0.8724042541185149,B,517.2878000303172,Correct,sub_012_day_23_data.csv,1,600,,Button-Switch at home,,,,,,,,,,,,,d
12,23,347,A,37.39878880504197,69.14875640254135,1.8699394402520984,1.0861861255954703,A,1290.7581999897957,Correct,sub_012_day_23_data.csv,1,600,,Button-Switch at home,,,,,,,,,,,,,k
12,23,348,A,52.109400591736915,61.10725523568957,2.605470029586846,0.959870520647394,B,769.482399977278,Incorrect,sub_012_day_23_data.csv,0,600,,Button-Switch at home,,,,,,,,,,,,,d
12,23,349,B,54.61732900629619,28.607366780533084,2.7308664503148092,0.4493634665813572,B,883.3101000054739,Correct,sub_012_day_23_data.csv,1,600,,Button-Switch at home,,,,,,,,,,,,,d
12,23,350,B,80.06931075637002,66.1110159557934,4.0034655378185,1.0384694102403909,B,1699.6826999820769,Correct,sub_012_day_23_data.csv,1,600,,Button-Switch at home,,,,,,,,,,,,,d
12,23,351,B,46.39390244024059,29.067026212292213,2.3196951220120297,0.4565837800511959,B,856.1331999953836,Correct,sub_012_day_23_data.csv,1,600,,Button-Switch at home,,,,,,,,,,,,,d
12,23,352,B,81.65183567850363,54.4718312969649,4.0825917839251815,0.8556415251506376,B,566.3301000022329,Correct,sub_012_day_23_data.csv,1,600,,Button-Switch at home,,,,,,,,,,,,,d
12,23,353,A,40.874542367768,50.844311037781296,2.0437271183884,0.7986605701656407,B,1699.460799980443,Incorrect,sub_012_day_23_data.csv,0,600,,Button-Switch at home,,,,,,,,,,,,,d
12,23,354,B,71.98054990411994,52.16375824267736,3.5990274952059966,0.8193863983941461,B,522.6580000016838,Correct,sub_012_day_23_data.csv,1,600,,Button-Switch at home,,,,,,,,,,,,,d
12,23,355,B,65.37454228484145,56.86292346220704,3.268727114242073,0.8932007130525416,B,593.1944000185467,Correct,sub_012_day_23_data.csv,1,600,,Button-Switch at home,,,,,,,,,,,,,d
12,23,356,B,50.92225730512524,39.67289567642649,2.546112865256262,0.6231803880184786,A,982.3280000127852,Incorrect,sub_012_day_23_data.csv,0,600,,Button-Switch at home,,,,,,,,,,,,,k
12,23,357,B,57.44257742657024,32.753724153979654,2.8721288713285116,0.5144942958992452,B,477.5321999914013,Correct,sub_012_day_23_data.csv,1,600,,Button-Switch at home,,,,,,,,,,,,,d
12,23,358,A,49.4329216981673,61.96318017762059,2.471646084908365,0.973315358195368,A,734.7606000257656,Correct,sub_012_day_23_data.csv,1,600,,Button-Switch at home,,,,,,,,,,,,,k
12,23,359,B,31.95556019878391,11.75425255877098,1.5977780099391958,0.1846353674353696,B,631.2891999841668,Correct,sub_012_day_23_data.csv,1,600,,Button-Switch at home,,,,,,,,,,,,,d
12,23,360,B,36.3041585666368,22.243433433395246,1.81520792833184,0.3493990353248405,B,645.0029999832623,Correct,sub_012_day_23_data.csv,1,600,,Button-Switch at home,,,,,,,,,,,,,d
12,23,361,A,23.296692745044233,40.70658391334972,1.1648346372522116,0.6394175248745796,A,531.0255999793299,Correct,sub_012_day_23_data.csv,1,600,,Button-Switch at home,,,,,,,,,,,,,k
12,23,362,B,43.564917730696465,18.692656856208483,2.1782458865348233,0.2936235672776973,B,444.9606999987736,Correct,sub_012_day_23_data.csv,1,600,,Button-Switch at home,,,,,,,,,,,,,d
12,23,363,B,35.97866765648228,14.266262268345066,1.798933382824114,0.2240939236820905,B,585.8417999697849,Correct,sub_012_day_23_data.csv,1,600,,Button-Switch at home,,,,,,,,,,,,,d
12,23,364,B,77.69013792181474,46.87279083716741,3.884506896090737,0.7362760767364804,B,510.5996999773197,Correct,sub_012_day_23_data.csv,1,600,,Button-Switch at home,,,,,,,,,,,,,d
12,23,365,B,56.54194595523384,26.85987721859408,2.827097297761692,0.4219139647312951,B,527.3309000185691,Correct,sub_012_day_23_data.csv,1,600,,Button-Switch at home,,,,,,,,,,,,,d
12,23,366,B,41.46134283954316,22.368356029080186,2.073067141977158,0.3513613148691963,B,707.4402999714948,Correct,sub_012_day_23_data.csv,1,600,,Button-Switch at home,,,,,,,,,,,,,d
12,23,367,A,57.53881305793427,68.53014885748013,2.8769406528967134,1.0764690610003729,A,583.9884000015445,Correct,sub_012_day_23_data.csv,1,600,,Button-Switch at home,,,,,,,,,,,,,k
12,23,368,B,77.17001336504025,51.796945926169755,3.858500668252012,0.8136245240002133,B,558.9119999785908,Correct,sub_012_day_23_data.csv,1,600,,Button-Switch at home,,,,,,,,,,,,,d
12,23,369,A,51.601762329824986,62.16866677636603,2.5800881164912495,0.976543134140517,B,2003.7217999924903,Incorrect,sub_012_day_23_data.csv,0,600,,Button-Switch at home,,,,,,,,,,,,,d
12,23,370,A,45.69749155729645,69.8019946265661,2.2848745778648225,1.0964471676236711,A,1647.8276000125334,Correct,sub_012_day_23_data.csv,1,600,,Button-Switch at home,,,,,,,,,,,,,k
12,23,371,A,50.05631840596904,79.4213933343957,2.502815920298452,1.2475483291860143,A,554.8019999987446,Correct,sub_012_day_23_data.csv,1,600,,Button-Switch at home,,,,,,,,,,,,,k
12,23,372,A,42.73690340964499,62.08208784933811,2.1368451704822493,0.9751831555349838,A,3087.9158999887295,Correct,sub_012_day_23_data.csv,1,600,,Button-Switch at home,,,,,,,,,,,,,k
12,23,373,B,45.95808233502074,33.151880131517125,2.2979041167510372,0.5207485153693181,B,3536.7582999751903,Correct,sub_012_day_23_data.csv,1,600,,Button-Switch at home,,,,,,,,,,,,,d
12,23,374,A,30.53235640378536,50.47344801907049,1.526617820189268,0.7928350674902906,A,1073.5103000188246,Correct,sub_012_day_23_data.csv,1,600,,Button-Switch at home,,,,,,,,,,,,,k
12,23,375,B,50.298606353208,37.64218614276035,2.5149303176604003,0.5912820772557771,B,655.5462999967858,Correct,sub_012_day_23_data.csv,1,600,,Button-Switch at home,,,,,,,,,,,,,d
12,23,376,A,63.80266494131806,78.40858960873561,3.190133247065903,1.231639245465704,A,5437.900500022806,Correct,sub_012_day_23_data.csv,1,600,,Button-Switch at home,,,,,,,,,,,,,k
12,23,377,A,24.55215386764705,48.7003811297964,1.2276076933823523,0.7649837979219568,A,1016.3692000205627,Correct,sub_012_day_23_data.csv,1,600,,Button-Switch at home,,,,,,,,,,,,,k
12,23,378,B,86.69042022966289,59.781082426811494,4.334521011483145,0.9390390468785844,B,924.1180999670178,Correct,sub_012_day_23_data.csv,1,600,,Button-Switch at home,,,,,,,,,,,,,d
12,23,379,A,53.86931897094991,73.67228661713575,2.693465948547496,1.157241572047777,A,3794.709799985867,Correct,sub_012_day_23_data.csv,1,600,,Button-Switch at home,,,,,,,,,,,,,k
12,23,380,A,23.46439694835423,37.382969302269686,1.1732198474177116,0.587210308646916,A,805.1397000090219,Correct,sub_012_day_23_data.csv,1,600,,Button-Switch at home,,,,,,,,,,,,,k
12,23,381,B,52.62054631860158,31.942179509722187,2.631027315930079,0.5017465824369483,B,711.7062999750488,Correct,sub_012_day_23_data.csv,1,600,,Button-Switch at home,,,,,,,,,,,,,d
12,23,382,A,48.19804988191156,77.43424185100145,2.409902494095578,1.2163342266770072,A,2352.5020999950357,Correct,sub_012_day_23_data.csv,1,600,,Button-Switch at home,,,,,,,,,,,,,k
12,23,383,A,55.711876448777176,77.320953084162,2.785593822438859,1.2145546908888218,A,967.9636000073516,Correct,sub_012_day_23_data.csv,1,600,,Button-Switch at home,,,,,,,,,,,,,k
12,23,384,A,25.76945524332475,35.680853655446136,1.2884727621662375,0.5604735385888105,A,771.4572999975644,Correct,sub_012_day_23_data.csv,1,600,,Button-Switch at home,,,,,,,,,,,,,k
12,23,385,B,50.820336131052535,32.86256341702123,2.541016806552627,0.5162039390452129,B,1310.1411000243388,Correct,sub_012_day_23_data.csv,1,600,,Button-Switch at home,,,,,,,,,,,,,d
12,23,386,B,45.34319806331327,23.96253589753493,2.267159903165663,0.3764026336853872,B,1880.880200013053,Correct,sub_012_day_23_data.csv,1,600,,Button-Switch at home,,,,,,,,,,,,,d
12,23,387,B,54.679293845389225,25.631963018049788,2.733964692269461,0.4026259335729524,B,1133.7500999798067,Correct,sub_012_day_23_data.csv,1,600,,Button-Switch at home,,,,,,,,,,,,,d
12,23,388,A,52.43261452917113,69.16110752912847,2.6216307264585565,1.0863801366382186,A,1902.8051000204869,Correct,sub_012_day_23_data.csv,1,600,,Button-Switch at home,,,,,,,,,,,,,k
12,23,389,A,41.15348239482474,54.54851453633152,2.057674119741238,0.8568460626578758,A,1212.967999977991,Correct,sub_012_day_23_data.csv,1,600,,Button-Switch at home,,,,,,,,,,,,,k
12,23,390,B,46.73593237441953,26.23261646078648,2.3367966187209763,0.4120609757882273,B,1157.6575000071898,Correct,sub_012_day_23_data.csv,1,600,,Button-Switch at home,,,,,,,,,,,,,d
12,23,391,A,45.06736215371083,58.83274025985122,2.2533681076855414,0.9241425229545251,A,1627.2923999931663,Correct,sub_012_day_23_data.csv,1,600,,Button-Switch at home,,,,,,,,,,,,,k
12,23,392,A,57.70511117255768,80.82932430899619,2.885255558627884,1.269664057218847,A,1408.32569997292,Correct,sub_012_day_23_data.csv,1,600,,Button-Switch at home,,,,,,,,,,,,,k
12,23,393,A,24.340886829697823,47.53950204336078,1.2170443414848913,0.7467487518736959,A,3234.405600000173,Correct,sub_012_day_23_data.csv,1,600,,Button-Switch at home,,,,,,,,,,,,,k
12,23,394,B,73.11844988113901,44.62800067438336,3.6559224940569504,0.7010149953152154,B,2452.130699995905,Correct,sub_012_day_23_data.csv,1,600,,Button-Switch at home,,,,,,,,,,,,,d
12,23,395,B,71.81097033822925,57.3534558904728,3.5905485169114626,0.900905978417478,A,1468.7873999937435,Incorrect,sub_012_day_23_data.csv,0,600,,Button-Switch at home,,,,,,,,,,,,,k
12,23,396,B,50.566309933593104,24.536143874829563,2.5283154966796553,0.3854128467229337,B,1023.3353999792598,Correct,sub_012_day_23_data.csv,1,600,,Button-Switch at home,,,,,,,,,,,,,d
12,23,397,A,48.66321728915898,68.40808594025683,2.4331608644579488,1.07455170118025,A,1005.5454000248574,Correct,sub_012_day_23_data.csv,1,600,,Button-Switch at home,,,,,,,,,,,,,k
12,23,398,B,64.1200433063555,51.3014588148376,3.2060021653177753,0.8058414306556656,A,1605.736099998467,Incorrect,sub_012_day_23_data.csv,0,600,,Button-Switch at home,,,,,,,,,,,,,k
12,23,399,B,34.29918934685716,18.963627929112924,1.714959467342858,0.2978799709375569,B,980.4918000008912,Correct,sub_012_day_23_data.csv,1,600,,Button-Switch at home,,,,,,,,,,,,,d
12,23,400,B,74.19760081621524,46.10946874285893,3.709880040810762,0.7242858413174691,B,709.4054999761283,Correct,sub_012_day_23_data.csv,1,600,,Button-Switch at home,,,,,,,,,,,,,d
12,23,401,B,48.77631297984944,30.838508958610852,2.4388156489924717,0.4844101659601744,B,815.5130000086501,Correct,sub_012_day_23_data.csv,1,600,,Button-Switch at home,,,,,,,,,,,,,d
12,23,402,B,70.46675757885899,43.94726804198423,3.5233378789429493,0.6903220721301958,B,756.7839999683201,Correct,sub_012_day_23_data.csv,1,600,,Button-Switch at home,,,,,,,,,,,,,d
12,23,403,B,45.68283548902805,34.22282477937531,2.284141774451402,0.537570874559881,B,997.2188000101596,Correct,sub_012_day_23_data.csv,1,600,,Button-Switch at home,,,,,,,,,,,,,d
12,23,404,A,16.150747692224915,41.53836820307089,0.8075373846112457,0.6524831619443767,A,1056.4650000305846,Correct,sub_012_day_23_data.csv,1,600,,Button-Switch at home,,,,,,,,,,,,,k
12,23,405,B,84.82055959473355,66.9808764578632,4.2410279797366774,1.052133147055143,B,1266.4335000445135,Correct,sub_012_day_23_data.csv,1,600,,Button-Switch at home,,,,,,,,,,,,,d
12,23,406,B,35.88230087581131,15.428448142418326,1.7941150437905655,0.2423494967025625,B,1001.6762999584898,Correct,sub_012_day_23_data.csv,1,600,,Button-Switch at home,,,,,,,,,,,,,d
12,23,407,B,65.72209332665689,46.76680630263089,3.2861046663328444,0.7346112755610102,B,1768.7458000145853,Correct,sub_012_day_23_data.csv,1,600,,Button-Switch at home,,,,,,,,,,,,,d
12,23,408,A,23.1325515217479,46.66355865676927,1.156627576087395,0.7329894653323136,A,1118.9214999903925,Correct,sub_012_day_23_data.csv,1,600,,Button-Switch at home,,,,,,,,,,,,,k
12,23,409,A,25.21445013281752,44.20557278504453,1.2607225066408758,0.6943795135461238,A,1728.0189000302926,Correct,sub_012_day_23_data.csv,1,600,,Button-Switch at home,,,,,,,,,,,,,k
12,23,410,A,37.12940559249197,64.92650515641088,1.8564702796245984,1.0198631581132014,A,1104.288299975451,Correct,sub_012_day_23_data.csv,1,600,,Button-Switch at home,,,,,,,,,,,,,k
12,23,411,A,25.615975616158146,54.24400268684316,1.280798780807907,0.8520628017114573,A,1033.8609999744222,Correct,sub_012_day_23_data.csv,1,600,,Button-Switch at home,,,,,,,,,,,,,k
12,23,412,B,44.31999858595209,19.38117336961648,2.2159999292976043,0.3044387593796863,B,1579.9919000128284,Correct,sub_012_day_23_data.csv,1,600,,Button-Switch at home,,,,,,,,,,,,,d
12,23,413,B,31.460337405257263,13.829432877631398,1.573016870262863,0.2172322236583997,B,2208.4456000011414,Correct,sub_012_day_23_data.csv,1,600,,Button-Switch at home,,,,,,,,,,,,,d
12,23,414,A,41.69092908654275,67.480280782816,2.0845464543271377,1.0599777718473562,A,3815.5810000025663,Correct,sub_012_day_23_data.csv,1,600,,Button-Switch at home,,,,,,,,,,,,,k
12,23,415,A,38.278906688867565,47.96053536625684,1.913945334443378,0.7533623278443298,A,923.2069999561644,Correct,sub_012_day_23_data.csv,1,600,,Button-Switch at home,,,,,,,,,,,,,k
12,23,416,A,54.18425738781738,70.49882559086385,2.7092128693908695,1.1073929628148298,A,1132.2798000182956,Correct,sub_012_day_23_data.csv,1,600,,Button-Switch at home,,,,,,,,,,,,,k
12,23,417,A,48.443209499361885,67.28990849931213,2.4221604749680945,1.056987411010842,A,1009.8988999961877,Correct,sub_012_day_23_data.csv,1,600,,Button-Switch at home,,,,,,,,,,,,,k
12,23,418,A,16.494507600176895,32.183327938474186,0.8247253800088447,0.5055345330979083,A,858.7010999908671,Correct,sub_012_day_23_data.csv,1,600,,Button-Switch at home,,,,,,,,,,,,,k
12,23,419,A,37.61835938521483,55.34391540235726,1.8809179692607416,0.8693401902447028,A,931.0256000026128,Correct,sub_012_day_23_data.csv,1,600,,Button-Switch at home,,,,,,,,,,,,,k
12,23,420,B,75.90744387948435,44.27058035935448,3.795372193974217,0.6954006501355231,B,1296.6039999737404,Correct,sub_012_day_23_data.csv,1,600,,Button-Switch at home,,,,,,,,,,,,,d
12,23,421,A,47.47805154965868,55.09843605211414,2.373902577482934,0.865484209628044,A,853.2569999806583,Correct,sub_012_day_23_data.csv,1,600,,Button-Switch at home,,,,,,,,,,,,,k
12,23,422,A,65.18254115910321,77.28327475790724,3.259127057955161,1.2139628411240144,A,1484.9247999954969,Correct,sub_012_day_23_data.csv,1,600,,Button-Switch at home,,,,,,,,,,,,,k
12,23,423,A,47.88965598214765,60.56545960633515,2.3944827991073825,0.9513600148027592,A,1684.625399997458,Correct,sub_012_day_23_data.csv,1,600,,Button-Switch at home,,,,,,,,,,,,,k
12,23,424,A,52.377778424113046,64.66593017453454,2.6188889212056523,1.0157700558693412,A,1214.61470000213,Correct,sub_012_day_23_data.csv,1,600,,Button-Switch at home,,,,,,,,,,,,,k
12,23,425,B,30.7612788231155,11.033593786763536,1.5380639411557748,0.1733152859159515,B,540.2616000501439,Correct,sub_012_day_23_data.csv,1,600,,Button-Switch at home,,,,,,,,,,,,,d
12,23,426,A,36.80064445595586,68.9802511338694,1.8400322227977932,1.0835392510247157,A,1170.8412999869324,Correct,sub_012_day_23_data.csv,1,600,,Button-Switch at home,,,,,,,,,,,,,k
12,23,427,A,42.98549608806735,59.34701175122675,2.1492748044033676,0.9322206806508054,A,2927.7141999918967,Correct,sub_012_day_23_data.csv,1,600,,Button-Switch at home,,,,,,,,,,,,,k
12,23,428,A,53.048373127449906,61.978974648227776,2.6524186563724954,0.973563457159502,A,1471.0807999945246,Correct,sub_012_day_23_data.csv,1,600,,Button-Switch at home,,,,,,,,,,,,,k
12,23,429,A,68.98676068525852,84.23299751064715,3.449338034262926,1.323128830846482,A,963.1736000301316,Correct,sub_012_day_23_data.csv,1,600,,Button-Switch at home,,,,,,,,,,,,,k
12,23,430,B,72.6878176596836,47.71691310544358,3.63439088298418,0.7495355183202204,B,1232.130300020799,Correct,sub_012_day_23_data.csv,1,600,,Button-Switch at home,,,,,,,,,,,,,d
12,23,431,B,71.83620500108368,42.25836457871273,3.591810250054184,0.6637928385660151,B,853.8418000098318,Correct,sub_012_day_23_data.csv,1,600,,Button-Switch at home,,,,,,,,,,,,,d
12,23,432,A,36.38532179502447,64.8859242841315,1.8192660897512232,1.0192257152620554,A,981.2468000454828,Correct,sub_012_day_23_data.csv,1,600,,Button-Switch at home,,,,,,,,,,,,,k
12,23,433,B,38.10468058092983,25.293019769775192,1.9052340290464915,0.3973018254791357,B,1120.090100041125,Correct,sub_012_day_23_data.csv,1,600,,Button-Switch at home,,,,,,,,,,,,,d
12,23,434,B,75.86807519322481,63.69281919718874,3.79340375966124,1.0004844643815554,B,1252.9400999774225,Correct,sub_012_day_23_data.csv,1,600,,Button-Switch at home,,,,,,,,,,,,,d
12,23,435,B,81.19600192039007,67.58579476887606,4.0598000960195035,1.0616351816646423,A,958.7051999988034,Incorrect,sub_012_day_23_data.csv,0,600,,Button-Switch at home,,,,,,,,,,,,,k
12,23,436,A,27.01892624797564,51.86120059489277,1.350946312398782,0.8146338339763087,A,629.6907000360079,Correct,sub_012_day_23_data.csv,1,600,,Button-Switch at home,,,,,,,,,,,,,k
12,23,437,B,42.14723963363009,27.127073247326138,2.107361981681505,0.42611107013596,B,1125.130900007207,Correct,sub_012_day_23_data.csv,1,600,,Button-Switch at home,,,,,,,,,,,,,d
12,23,438,A,38.77211465887374,69.63233092941644,1.938605732943687,1.09378209650094,A,1143.5677999979816,Correct,sub_012_day_23_data.csv,1,600,,Button-Switch at home,,,,,,,,,,,,,k
12,23,439,B,60.129617053749,43.83699062609413,3.0064808526874502,0.6885898385321096,B,844.531399954576,Correct,sub_012_day_23_data.csv,1,600,,Button-Switch at home,,,,,,,,,,,,,d
12,23,440,A,20.72121783839848,34.17134398702631,1.036060891919924,0.536762216164658,A,541.4772999938577,Correct,sub_012_day_23_data.csv,1,600,,Button-Switch at home,,,,,,,,,,,,,k
12,23,441,B,59.100719467633496,31.400375751711447,2.955035973381675,0.4932359489076788,B,479.41000002902,Correct,sub_012_day_23_data.csv,1,600,,Button-Switch at home,,,,,,,,,,,,,d
12,23,442,A,48.278156237005675,69.2080412719573,2.413907811850284,1.0871173701466013,A,1284.953799971845,Correct,sub_012_day_23_data.csv,1,600,,Button-Switch at home,,,,,,,,,,,,,k
12,23,443,B,72.56204975433204,54.9363396724657,3.628102487716602,0.8629380056506588,B,1636.9672000291755,Correct,sub_012_day_23_data.csv,1,600,,Button-Switch at home,,,,,,,,,,,,,d
12,23,444,B,81.29238601427694,58.66878495523024,4.064619300713847,0.9215671190519537,B,1201.5181999886408,Correct,sub_012_day_23_data.csv,1,600,,Button-Switch at home,,,,,,,,,,,,,d
12,23,445,B,46.17762259390883,26.54386094618564,2.308881129695442,0.416949992732229,B,1210.419400013052,Correct,sub_012_day_23_data.csv,1,600,,Button-Switch at home,,,,,,,,,,,,,d
12,23,446,A,41.61815532866357,71.26035389637399,2.0809077664331785,1.1193550214652863,A,879.679000005126,Correct,sub_012_day_23_data.csv,1,600,,Button-Switch at home,,,,,,,,,,,,,k
12,23,447,B,80.06647007238527,57.98012055922802,4.003323503619264,0.9107496040156065,B,801.1792000033893,Correct,sub_012_day_23_data.csv,1,600,,Button-Switch at home,,,,,,,,,,,,,d
12,23,448,B,39.28934210600308,18.01569984393283,1.9644671053001543,0.2829899513948908,B,878.6783000105061,Correct,sub_012_day_23_data.csv,1,600,,Button-Switch at home,,,,,,,,,,,,,d
12,23,449,B,80.27165096812125,55.10715184330404,4.013582548406062,0.865621116955906,B,745.7545999786817,Correct,sub_012_day_23_data.csv,1,600,,Button-Switch at home,,,,,,,,,,,,,d
12,23,450,A,41.02273924758024,69.83184032769367,2.051136962379012,1.0969159828006894,A,742.426999961026,Correct,sub_012_day_23_data.csv,1,600,,Button-Switch at home,,,,,,,,,,,,,k
12,23,451,B,33.15843840458335,15.792740746982552,1.6579219202291675,0.2480717915538428,B,902.9039000160992,Correct,sub_012_day_23_data.csv,1,600,,Button-Switch at home,,,,,,,,,,,,,d
12,23,452,B,38.200297728205,12.222472771252871,1.91001488641025,0.1919901533343465,B,810.0619000033475,Correct,sub_012_day_23_data.csv,1,600,,Button-Switch at home,,,,,,,,,,,,,d
12,23,453,B,54.84392968056241,26.35607492038765,2.74219648402812,0.4140002567367601,B,957.0011000032536,Correct,sub_012_day_23_data.csv,1,600,,Button-Switch at home,,,,,,,,,,,,,d
12,23,454,A,60.526914391506565,72.6268609433346,3.0263457195753283,1.140820063964337,A,871.871999988798,Correct,sub_012_day_23_data.csv,1,600,,Button-Switch at home,,,,,,,,,,,,,k
12,23,455,B,83.58472423732272,56.642984683708825,4.179236211866136,0.8897459227986939,B,600.3302999888547,Correct,sub_012_day_23_data.csv,1,600,,Button-Switch at home,,,,,,,,,,,,,d
12,23,456,B,85.54756747923386,67.08252867481775,4.277378373961693,1.0537298963451704,B,567.7431999938563,Correct,sub_012_day_23_data.csv,1,600,,Button-Switch at home,,,,,,,,,,,,,d
12,23,457,A,66.93737646387584,88.8278800100172,3.3468688231937915,1.3953050763671284,A,444.5986999780871,Correct,sub_012_day_23_data.csv,1,600,,Button-Switch at home,,,,,,,,,,,,,k
12,23,458,A,59.947884605899034,68.19199030071734,2.997394230294952,1.071157278812,A,470.9443000028841,Correct,sub_012_day_23_data.csv,1,600,,Button-Switch at home,,,,,,,,,,,,,k
12,23,459,B,81.46996849597306,59.961590037875936,4.073498424798653,0.9418744538027696,B,1379.0083999629132,Correct,sub_012_day_23_data.csv,1,600,,Button-Switch at home,,,,,,,,,,,,,d
12,23,460,B,74.64530971808088,44.77550470011106,3.732265485904043,0.7033319831332207,B,4329.1882000048645,Correct,sub_012_day_23_data.csv,1,600,,Button-Switch at home,,,,,,,,,,,,,d
12,23,461,B,62.92827668080584,34.15586711008094,3.146413834040292,0.5365191059500976,B,968.890200019814,Correct,sub_012_day_23_data.csv,1,600,,Button-Switch at home,,,,,,,,,,,,,d
12,23,462,A,44.434623501404296,53.0662445846406,2.221731175070215,0.8335626207035303,A,1334.044300019741,Correct,sub_012_day_23_data.csv,1,600,,Button-Switch at home,,,,,,,,,,,,,k
12,23,463,B,41.68621488026877,30.458540403199677,2.0843107440134383,0.4784416338487999,B,1060.2841000072658,Correct,sub_012_day_23_data.csv,1,600,,Button-Switch at home,,,,,,,,,,,,,d
12,23,464,B,65.07475804132766,51.978949774449205,3.2537379020663826,0.8164834337636122,B,2754.704100021627,Correct,sub_012_day_23_data.csv,1,600,,Button-Switch at home,,,,,,,,,,,,,d
12,23,465,B,85.94356142879401,56.99000906583019,4.2971780714397,0.8951969690461393,B,1218.2501000352204,Correct,sub_012_day_23_data.csv,1,600,,Button-Switch at home,,,,,,,,,,,,,d
12,23,466,A,49.786564682612145,69.94765541416336,2.4893282341306073,1.0987352019248298,A,1316.0081999958493,Correct,sub_012_day_23_data.csv,1,600,,Button-Switch at home,,,,,,,,,,,,,k
12,23,467,B,43.61583072629182,15.046512666743045,2.180791536314591,0.2363500682799286,B,1627.0673000253737,Correct,sub_012_day_23_data.csv,1,600,,Button-Switch at home,,,,,,,,,,,,,d
12,23,468,B,43.403089170061534,30.63145890339583,2.170154458503077,0.4811578312982301,B,1199.6936000068672,Correct,sub_012_day_23_data.csv,1,600,,Button-Switch at home,,,,,,,,,,,,,d
12,23,469,A,38.33931367600126,51.108174737539024,1.916965683800063,0.8028053314691803,A,642.2325000166893,Correct,sub_012_day_23_data.csv,1,600,,Button-Switch at home,,,,,,,,,,,,,k
12,23,470,B,58.66322564848315,45.22346551848427,2.933161282424158,0.7103685352137075,B,775.7042999728583,Correct,sub_012_day_23_data.csv,1,600,,Button-Switch at home,,,,,,,,,,,,,d
12,23,471,B,78.19608297121029,49.5570187022369,3.9098041485605144,0.7784398294437971,B,571.254400012549,Correct,sub_012_day_23_data.csv,1,600,,Button-Switch at home,,,,,,,,,,,,,d
12,23,472,B,84.2292270797568,64.04800133837298,4.21146135398784,1.0060636524087092,B,977.3416999960318,Correct,sub_012_day_23_data.csv,1,600,,Button-Switch at home,,,,,,,,,,,,,d
12,23,473,A,61.97392837287164,80.8134277157547,3.098696418643582,1.2694143541161238,A,1083.845199958887,Correct,sub_012_day_23_data.csv,1,600,,Button-Switch at home,,,,,,,,,,,,,k
12,23,474,A,38.650059147579654,61.08918616310827,1.932502957378983,0.959586692319001,A,1826.820200018119,Correct,sub_012_day_23_data.csv,1,600,,Button-Switch at home,,,,,,,,,,,,,k
12,23,475,B,41.49590831966367,30.43022433776587,2.0747954159831834,0.477996846133073,B,1979.591499955859,Correct,sub_012_day_23_data.csv,1,600,,Button-Switch at home,,,,,,,,,,,,,d
12,23,476,B,58.78058564443637,28.160392139006728,2.939029282221818,0.4423424053305564,B,624.3644999922253,Correct,sub_012_day_23_data.csv,1,600,,Button-Switch at home,,,,,,,,,,,,,d
12,23,477,A,14.976068976629245,38.82119849371079,0.7488034488314622,0.6098019599569647,A,728.0350999790244,Correct,sub_012_day_23_data.csv,1,600,,Button-Switch at home,,,,,,,,,,,,,k
12,23,478,A,50.28854777850348,72.4802798833329,2.514427388925174,1.138517574058053,A,611.7228000075556,Correct,sub_012_day_23_data.csv,1,600,,Button-Switch at home,,,,,,,,,,,,,k
12,23,479,B,42.30612281850472,23.61608361212767,2.115306140925236,0.370960573912113,B,583.2620000001043,Correct,sub_012_day_23_data.csv,1,600,,Button-Switch at home,,,,,,,,,,,,,d
12,23,480,A,59.195207091802935,83.417865296139,2.9597603545901467,1.3103247639624662,A,428.6715000052936,Correct,sub_012_day_23_data.csv,1,600,,Button-Switch at home,,,,,,,,,,,,,k
12,23,481,A,26.443530007891653,39.22312742413084,1.3221765003945825,0.6161154448323289,A,822.9940999881364,Correct,sub_012_day_23_data.csv,1,600,,Button-Switch at home,,,,,,,,,,,,,k
12,23,482,A,44.67279945387862,69.87295527575519,2.233639972693931,1.0975618148946034,A,815.933000005316,Correct,sub_012_day_23_data.csv,1,600,,Button-Switch at home,,,,,,,,,,,,,k
12,23,483,A,49.36934331842129,80.68208041468866,2.468467165921065,1.267351155535634,A,676.8554000300355,Correct,sub_012_day_23_data.csv,1,600,,Button-Switch at home,,,,,,,,,,,,,k
12,23,484,A,65.68297694182237,85.39879117959136,3.284148847091119,1.3414410749762653,A,1229.650599998422,Correct,sub_012_day_23_data.csv,1,600,,Button-Switch at home,,,,,,,,,,,,,k
12,23,485,B,54.74945993804887,36.95499466107851,2.7374729969024436,0.5804876987034714,B,2315.8966999617405,Correct,sub_012_day_23_data.csv,1,600,,Button-Switch at home,,,,,,,,,,,,,d
12,23,486,A,60.22216406687484,71.30753965561232,3.011108203343742,1.1200962136381725,A,1908.0970999784768,Correct,sub_012_day_23_data.csv,1,600,,Button-Switch at home,,,,,,,,,,,,,k
12,23,487,B,59.18798000322438,28.0217159539816,2.959399000161219,0.4401640849100424,B,987.949899979867,Correct,sub_012_day_23_data.csv,1,600,,Button-Switch at home,,,,,,,,,,,,,d
12,23,488,A,45.661125851703886,71.33090952025769,2.2830562925851945,1.120463306613599,A,2955.016699968837,Correct,sub_012_day_23_data.csv,1,600,,Button-Switch at home,,,,,,,,,,,,,k
12,23,489,B,77.51151527335655,52.68154708391178,3.875575763667827,0.8275198064928103,B,1077.2780999541285,Correct,sub_012_day_23_data.csv,1,600,,Button-Switch at home,,,,,,,,,,,,,d
12,23,490,B,50.360130729793134,30.51505917419706,2.5180065364896564,0.4793294286275765,B,783.0164000042714,Correct,sub_012_day_23_data.csv,1,600,,Button-Switch at home,,,,,,,,,,,,,d
12,23,491,B,41.661982426985304,29.352057089851986,2.083099121349265,0.461061034606136,B,786.3160999841057,Correct,sub_012_day_23_data.csv,1,600,,Button-Switch at home,,,,,,,,,,,,,d
12,23,492,B,77.881515055577,49.95204668547231,3.89407575277885,0.784644914494271,B,1163.385899970308,Correct,sub_012_day_23_data.csv,1,600,,Button-Switch at home,,,,,,,,,,,,,d
12,23,493,B,61.48445771007493,36.21840415858514,3.074222885503746,0.5689173621467855,B,576.0102000203915,Correct,sub_012_day_23_data.csv,1,600,,Button-Switch at home,,,,,,,,,,,,,d
12,23,494,B,62.60313008285209,51.22277710990539,3.1301565041426045,0.8046055013247309,B,1195.266199996695,Correct,sub_012_day_23_data.csv,1,600,,Button-Switch at home,,,,,,,,,,,,,d
12,23,495,B,66.48997802087737,33.65690998991875,3.324498901043869,0.5286815058343084,B,936.0318999970332,Correct,sub_012_day_23_data.csv,1,600,,Button-Switch at home,,,,,,,,,,,,,d
12,23,496,A,33.64865636284508,48.284278662131506,1.682432818142254,0.7584476756441737,A,805.1090000080876,Correct,sub_012_day_23_data.csv,1,600,,Button-Switch at home,,,,,,,,,,,,,k
12,23,497,B,65.00191950288185,40.9161411289243,3.250095975144092,0.6427092419193589,B,791.2729000090621,Correct,sub_012_day_23_data.csv,1,600,,Button-Switch at home,,,,,,,,,,,,,d
12,23,498,B,79.99674216418593,54.36796802234783,3.999837108209297,0.8540100446480636,B,805.0870999577455,Correct,sub_012_day_23_data.csv,1,600,,Button-Switch at home,,,,,,,,,,,,,d
12,23,499,B,66.8125654095391,55.2268270371479,3.340628270476955,0.86750097050489,B,1021.5456999721936,Correct,sub_012_day_23_data.csv,1,600,,Button-Switch at home,,,,,,,,,,,,,d
12,23,500,A,34.19057168676237,55.457460235993224,1.7095285843381185,0.8711237483207218,A,633.6752999923192,Correct,sub_012_day_23_data.csv,1,600,,Button-Switch at home,,,,,,,,,,,,,k
12,23,501,B,76.7093554779702,52.40500556995701,3.8354677738985106,0.8231759025495455,B,534.5757000031881,Correct,sub_012_day_23_data.csv,1,600,,Button-Switch at home,,,,,,,,,,,,,d
12,23,502,B,73.16570415029592,44.926455718779984,3.658285207514796,0.7057031161897318,B,500.7249999907799,Correct,sub_012_day_23_data.csv,1,600,,Button-Switch at home,,,,,,,,,,,,,d
12,23,503,A,55.14256842601679,68.35480503498943,2.7571284213008393,1.073714766677427,A,804.7464999835938,Correct,sub_012_day_23_data.csv,1,600,,Button-Switch at home,,,,,,,,,,,,,k
12,23,504,B,39.39528220042128,14.659016670317488,1.9697641100210637,0.2302632954015986,B,577.4969999911264,Correct,sub_012_day_23_data.csv,1,600,,Button-Switch at home,,,,,,,,,,,,,d
12,23,505,A,55.71962298882387,76.65820584617228,2.7859811494411932,1.2041442816185448,A,1174.670799984597,Correct,sub_012_day_23_data.csv,1,600,,Button-Switch at home,,,,,,,,,,,,,k
12,23,506,A,17.604132472418144,47.34942404198682,0.8802066236209072,0.7437630136100686,A,4064.7982000373304,Correct,sub_012_day_23_data.csv,1,600,,Button-Switch at home,,,,,,,,,,,,,k
12,23,507,A,34.61577604399041,42.98468305416765,1.7307888021995206,0.6752018224992937,B,2862.2253999928944,Incorrect,sub_012_day_23_data.csv,0,600,,Button-Switch at home,,,,,,,,,,,,,d
12,23,508,A,63.295243471118056,86.14848673710856,3.1647621735559026,1.3532172652558898,A,4084.387300012167,Correct,sub_012_day_23_data.csv,1,600,,Button-Switch at home,,,,,,,,,,,,,k
12,23,509,A,47.62056594681898,61.91970878097101,2.381028297340949,0.9726325110935896,A,965.0440999539568,Correct,sub_012_day_23_data.csv,1,600,,Button-Switch at home,,,,,,,,,,,,,k
12,23,510,A,26.480183965558403,46.77228283618983,1.3240091982779203,0.7346973007489896,A,1248.1631000409834,Correct,sub_012_day_23_data.csv,1,600,,Button-Switch at home,,,,,,,,,,,,,k
12,23,511,A,49.45872394166523,64.0943586953933,2.4729361970832615,1.0067918320699834,A,2073.1643000035547,Correct,sub_012_day_23_data.csv,1,600,,Button-Switch at home,,,,,,,,,,,,,k
12,23,512,A,22.742660457748407,42.82947349157908,1.1371330228874204,0.6727637963913181,A,705.823500000406,Correct,sub_012_day_23_data.csv,1,600,,Button-Switch at home,,,,,,,,,,,,,k
12,23,513,B,34.45619181273222,13.180712454149678,1.722809590636611,0.2070421470751805,B,1334.2588000232354,Correct,sub_012_day_23_data.csv,1,600,,Button-Switch at home,,,,,,,,,,,,,d
12,23,514,A,43.095910627517206,73.00992147894543,2.15479553137586,1.146837164787113,A,3038.894099998288,Correct,sub_012_day_23_data.csv,1,600,,Button-Switch at home,,,,,,,,,,,,,k
12,23,515,B,68.08021689983703,36.05841563284982,3.404010844991851,0.5664042682612418,B,914.6310000214726,Correct,sub_012_day_23_data.csv,1,600,,Button-Switch at home,,,,,,,,,,,,,d
12,23,516,A,42.75072636973019,51.62126615111109,2.1375363184865095,0.8108649525466701,A,777.2086999611929,Correct,sub_012_day_23_data.csv,1,600,,Button-Switch at home,,,,,,,,,,,,,k
12,23,517,B,36.42033861099186,24.562580155155143,1.821016930549593,0.3858281068432292,B,2075.1795999822207,Correct,sub_012_day_23_data.csv,1,600,,Button-Switch at home,,,,,,,,,,,,,d
12,23,518,B,76.93358944130635,49.869935159053696,3.846679472065318,0.7833551096534119,B,1332.806599966716,Correct,sub_012_day_23_data.csv,1,600,,Button-Switch at home,,,,,,,,,,,,,d
12,23,519,B,73.36791257047001,53.33830329319038,3.6683956285235007,0.8378361089041557,B,3021.532299986575,Correct,sub_012_day_23_data.csv,1,600,,Button-Switch at home,,,,,,,,,,,,,d
12,23,520,B,34.70962785320168,14.565120087918103,1.735481392660084,0.2287883713342832,B,1672.4249999970198,Correct,sub_012_day_23_data.csv,1,600,,Button-Switch at home,,,,,,,,,,,,,d
12,23,521,B,61.03775052204141,42.664361619853594,3.05188752610207,0.6701702251751519,B,743.0501999915577,Correct,sub_012_day_23_data.csv,1,600,,Button-Switch at home,,,,,,,,,,,,,d
12,23,522,A,35.43863486410558,66.45091015212921,1.771931743205279,1.043808455791423,A,1179.3719000415877,Correct,sub_012_day_23_data.csv,1,600,,Button-Switch at home,,,,,,,,,,,,,k
12,23,523,A,60.49146170266168,82.83018431095546,3.0245730851330843,1.301093492633931,A,1513.9397000311874,Correct,sub_012_day_23_data.csv,1,600,,Button-Switch at home,,,,,,,,,,,,,k
12,23,524,A,50.08933334450923,78.06051859127972,2.5044666672254614,1.226171758708869,A,530.7673999923281,Correct,sub_012_day_23_data.csv,1,600,,Button-Switch at home,,,,,,,,,,,,,k
12,23,525,A,32.74261744483263,44.755067392371934,1.6371308722416316,0.7030109546539588,A,1677.4679999798536,Correct,sub_012_day_23_data.csv,1,600,,Button-Switch at home,,,,,,,,,,,,,k
12,23,526,B,70.62879410290428,49.7837923950786,3.531439705145214,0.7820019822810917,B,2236.7418999783695,Correct,sub_012_day_23_data.csv,1,600,,Button-Switch at home,,,,,,,,,,,,,d
12,23,527,A,42.533830041474275,51.471625205092,2.126691502073714,0.8085143980632212,B,1062.334299960639,Incorrect,sub_012_day_23_data.csv,0,600,,Button-Switch at home,,,,,,,,,,,,,d
12,23,528,B,45.83449339433662,37.12254994406528,2.2917246697168308,0.5831196509339784,B,508.09779996052384,Correct,sub_012_day_23_data.csv,1,600,,Button-Switch at home,,,,,,,,,,,,,d
12,23,529,A,34.18868512076186,54.26110871417108,1.709434256038093,0.8523315025603848,A,2347.692100040149,Correct,sub_012_day_23_data.csv,1,600,,Button-Switch at home,,,,,,,,,,,,,k
12,23,530,B,52.359274708580905,36.85379720993242,2.6179637354290453,0.5788980928580585,B,8243.191400018986,Correct,sub_012_day_23_data.csv,1,600,,Button-Switch at home,,,,,,,,,,,,,d
12,23,531,A,41.3840445855501,48.59808459711115,2.069202229277505,0.7633769277440984,A,1776.7157000489533,Correct,sub_012_day_23_data.csv,1,600,,Button-Switch at home,,,,,,,,,,,,,k
12,23,532,B,63.32210775046794,42.42104078865897,3.1661053875233973,0.6663481504964199,B,1555.9104999992996,Correct,sub_012_day_23_data.csv,1,600,,Button-Switch at home,,,,,,,,,,,,,d
12,23,533,B,73.4326222634232,53.884604836306906,3.67163111317116,0.8464173934766541,B,547.1571999951266,Correct,sub_012_day_23_data.csv,1,600,,Button-Switch at home,,,,,,,,,,,,,d
12,23,534,A,56.43038472010548,70.02572609858842,2.8215192360052743,1.099961533368082,A,864.8468000465073,Correct,sub_012_day_23_data.csv,1,600,,Button-Switch at home,,,,,,,,,,,,,k
12,23,535,A,50.585864827435515,65.76028542093795,2.5292932413717755,1.0329601478819332,A,827.5926999631338,Correct,sub_012_day_23_data.csv,1,600,,Button-Switch at home,,,,,,,,,,,,,k
12,23,536,A,55.91009203868427,71.33390385218382,2.795504601934214,1.1205103414695068,A,2964.1445000306703,Correct,sub_012_day_23_data.csv,1,600,,Button-Switch at home,,,,,,,,,,,,,k
12,23,537,A,48.85754007453968,74.84472579315042,2.442877003726984,1.1756582035585197,A,1860.0765999872235,Correct,sub_012_day_23_data.csv,1,600,,Button-Switch at home,,,,,,,,,,,,,k
12,23,538,A,30.262055365866885,58.90798656431363,1.5131027682933444,0.9253244891410698,A,5650.112100003753,Correct,sub_012_day_23_data.csv,1,600,,Button-Switch at home,,,,,,,,,,,,,k
12,23,539,B,89.26498018972131,64.45811220476703,4.4632490094860655,1.0125056588338135,B,549.7040000045672,Correct,sub_012_day_23_data.csv,1,600,,Button-Switch at home,,,,,,,,,,,,,d
12,23,540,B,38.80202120201576,19.36699252064915,1.940101060100788,0.3042160071249992,B,590.6714000157081,Correct,sub_012_day_23_data.csv,1,600,,Button-Switch at home,,,,,,,,,,,,,d
12,23,541,A,38.84415579309966,69.61228987941112,1.9422077896549832,1.0934672924236053,A,1371.575600001961,Correct,sub_012_day_23_data.csv,1,600,,Button-Switch at home,,,,,,,,,,,,,k
12,23,542,B,43.14163791304815,21.878751372917407,2.1570818956524076,0.3436706229143746,B,2466.7375999852084,Correct,sub_012_day_23_data.csv,1,600,,Button-Switch at home,,,,,,,,,,,,,d
12,23,543,B,50.15996435456271,19.21811519029504,2.5079982177281352,0.3018774474883665,B,526.1661999975331,Correct,sub_012_day_23_data.csv,1,600,,Button-Switch at home,,,,,,,,,,,,,d
12,23,544,A,52.24754892574815,73.7409983465383,2.612377446287407,1.1583208933693092,A,1069.558600021992,Correct,sub_012_day_23_data.csv,1,600,,Button-Switch at home,,,,,,,,,,,,,k
12,23,545,A,60.54398885007467,78.6018381096429,3.0271994425037336,1.234674785819542,A,3580.121800012421,Correct,sub_012_day_23_data.csv,1,600,,Button-Switch at home,,,,,,,,,,,,,k
12,23,546,B,58.407926718170614,47.96891130494127,2.920396335908531,0.7534938967815193,B,1402.081399981398,Correct,sub_012_day_23_data.csv,1,600,,Button-Switch at home,,,,,,,,,,,,,d
12,23,547,A,22.30170843928037,44.47181037759158,1.1150854219640187,0.6985615638704001,A,817.1574000152759,Correct,sub_012_day_23_data.csv,1,600,,Button-Switch at home,,,,,,,,,,,,,k
12,23,548,B,82.30239025091176,66.85145578529126,4.115119512545587,1.0501002118842695,B,685.7815000112168,Correct,sub_012_day_23_data.csv,1,600,,Button-Switch at home,,,,,,,,,,,,,d
12,23,549,A,65.44906750003767,82.05411699107222,3.272453375001884,1.2889030556797496,A,1362.3886000132188,Correct,sub_012_day_23_data.csv,1,600,,Button-Switch at home,,,,,,,,,,,,,k
12,23,550,B,76.9071412200924,63.70678697020534,3.84535706100462,1.0007038696470352,B,813.239400042221,Correct,sub_012_day_23_data.csv,1,600,,Button-Switch at home,,,,,,,,,,,,,d
12,23,551,A,61.45979797921556,82.36700931027409,3.072989898960778,1.293817956736596,A,3578.0066999723203,Correct,sub_012_day_23_data.csv,1,600,,Button-Switch at home,,,,,,,,,,,,,k
