subject,day,trial,cat,x,y,xt,yt,resp,rt,fb,f_name,acc,n_trials,block,session_type,ns_left_digit,ns_right_digit,ns_left_size,ns_right_size,ns_congruent,ns_cue,ns_correct_side,ns_resp,ns_rt,ns_fb,acc_stroop,acc_stroop_mean,resp_key
12,2,0,B,73.25600425552715,47.84707848662879,3.6628002127763577,0.7515801513466361,A,1579.3752080062404,Incorrect,sub_012_day_02_data.csv,0,300,0.0,Training at home,,,,,,,,,,,,,
12,2,1,B,69.33644215410935,38.15505217953003,3.4668221077054677,0.5993381581227338,B,693.4065829846077,Correct,sub_012_day_02_data.csv,1,300,0.0,Training at home,,,,,,,,,,,,,
12,2,2,A,31.95779727895082,52.149558764239735,1.597889863947541,0.819163353508424,A,682.9371659841854,Correct,sub_012_day_02_data.csv,1,300,0.0,Training at home,,,,,,,,,,,,,
12,2,3,B,71.54575565173846,59.56243715965721,3.577287782586923,0.935604575053414,B,469.21629100688733,Correct,sub_012_day_02_data.csv,1,300,0.0,Training at home,,,,,,,,,,,,,
12,2,4,B,65.44891694444793,42.752096033627545,3.2724458472223965,0.6715483541240481,B,704.840582999168,Correct,sub_012_day_02_data.csv,1,300,0.0,Training at home,,,,,,,,,,,,,
12,2,5,B,44.42422192218503,34.14136137151712,2.221211096109252,0.5362912503415627,A,811.2068750197068,Incorrect,sub_012_day_02_data.csv,0,300,0.0,Training at home,,,,,,,,,,,,,
12,2,6,A,23.12429250419641,45.93757018231993,1.1562146252098204,0.7215856650427092,A,819.7482920077164,Correct,sub_012_day_02_data.csv,1,300,0.0,Training at home,,,,,,,,,,,,,
12,2,7,A,14.39965709162913,41.1228412493296,0.7199828545814566,0.6459560798181658,A,454.94675001828,Correct,sub_012_day_02_data.csv,1,300,0.0,Training at home,,,,,,,,,,,,,
12,2,8,A,14.442877620520663,32.995089972793124,0.7221438810260332,0.5182856613153056,A,538.6550000112038,Correct,sub_012_day_02_data.csv,1,300,0.0,Training at home,,,,,,,,,,,,,
12,2,9,A,36.83389776416917,53.096763872153545,1.8416948882084585,0.8340420165507475,B,684.3180829891935,Incorrect,sub_012_day_02_data.csv,0,300,0.0,Training at home,,,,,,,,,,,,,
12,2,10,A,14.520286890463908,32.2349180511697,0.7260143445231954,0.5063449086931187,A,519.0933330159169,Correct,sub_012_day_02_data.csv,1,300,0.0,Training at home,,,,,,,,,,,,,
12,2,11,B,58.38623890143094,30.05087548387365,2.9193119450715472,0.4720380482703954,B,1050.6806659977883,Correct,sub_012_day_02_data.csv,1,300,0.0,Training at home,,,,,,,,,,,,,
12,2,12,B,89.0838847057297,69.18070268083193,4.454194235286485,1.0866879365614064,B,637.1765410003718,Correct,sub_012_day_02_data.csv,1,300,0.0,Training at home,,,,,,,,,,,,,
12,2,13,A,31.375350219666615,51.88200316765933,1.5687675109833308,0.8149606000252047,A,835.4556249978486,Correct,sub_012_day_02_data.csv,1,300,0.0,Training at home,,,,,,,,,,,,,
12,2,14,B,39.53135184871942,26.002739631976443,1.976567592435971,0.4084500790051268,A,1601.787207997404,Incorrect,sub_012_day_02_data.csv,0,300,0.0,Training at home,,,,,,,,,,,,,
12,2,15,B,45.08075151491436,27.69564608878169,2.254037575745718,0.4350421914446972,B,631.7049580102321,Correct,sub_012_day_02_data.csv,1,300,0.0,Training at home,,,,,,,,,,,,,
12,2,16,A,25.841480711614565,50.15180540043529,1.2920740355807283,0.7877827170513623,A,655.9864160080906,Correct,sub_012_day_02_data.csv,1,300,0.0,Training at home,,,,,,,,,,,,,
12,2,17,B,63.441386036534674,44.53232170247699,3.172069301826734,0.6995120735389951,B,702.9782079916913,Correct,sub_012_day_02_data.csv,1,300,0.0,Training at home,,,,,,,,,,,,,
12,2,18,A,47.70345965816826,73.16316158224396,2.385172982908413,1.1492442547009032,B,629.9952080007643,Incorrect,sub_012_day_02_data.csv,0,300,0.0,Training at home,,,,,,,,,,,,,
12,2,19,B,71.61280386633615,46.930929180219294,3.5806401933168077,0.7371893116935989,B,559.0494580101222,Correct,sub_012_day_02_data.csv,1,300,0.0,Training at home,,,,,,,,,,,,,
12,2,20,A,36.53177103754841,54.12772435674924,1.8265885518774203,0.8502363059734837,B,687.0842080097646,Incorrect,sub_012_day_02_data.csv,0,300,0.0,Training at home,,,,,,,,,,,,,
12,2,21,B,66.25726074511947,42.74141469589427,3.3128630372559735,0.6713805720632813,B,559.4533330004197,Correct,sub_012_day_02_data.csv,1,300,0.0,Training at home,,,,,,,,,,,,,
12,2,22,A,33.88343691475927,56.54108243977913,1.6941718457379635,0.8881452460941249,A,608.1854580261279,Correct,sub_012_day_02_data.csv,1,300,0.0,Training at home,,,,,,,,,,,,,
12,2,23,A,29.46715656154992,59.47504542318638,1.4733578280774962,0.934231828867008,A,555.3110830078367,Correct,sub_012_day_02_data.csv,1,300,0.0,Training at home,,,,,,,,,,,,,
12,2,24,B,84.41034343369141,58.62280569743612,4.220517171684571,0.920844878559436,B,540.7642920035869,Correct,sub_012_day_02_data.csv,1,300,0.0,Training at home,,,,,,,,,,,,,
12,2,25,A,57.40747244288302,84.17739799910096,2.870373622144151,1.322255475761399,B,675.4348329850473,Incorrect,sub_012_day_02_data.csv,0,300,1.0,Training at home,,,,,,,,,,,,,
12,2,26,A,39.64476118313755,48.50708288701733,1.9822380591568771,0.761947476224624,A,589.9763740017079,Correct,sub_012_day_02_data.csv,1,300,1.0,Training at home,,,,,,,,,,,,,
12,2,27,A,36.42241153753032,52.55014699560281,1.821120576876516,0.8254557787322476,A,505.0379580061417,Correct,sub_012_day_02_data.csv,1,300,1.0,Training at home,,,,,,,,,,,,,
12,2,28,A,30.39642892970291,44.50308438839813,1.5198214464851454,0.6990528148833909,A,632.8120419930201,Correct,sub_012_day_02_data.csv,1,300,1.0,Training at home,,,,,,,,,,,,,
12,2,29,B,77.48803043636612,53.33556741178964,3.8744015218183057,0.8377931337796076,B,482.7618749986869,Correct,sub_012_day_02_data.csv,1,300,1.0,Training at home,,,,,,,,,,,,,
12,2,30,B,75.30198920409043,44.51249833565581,3.765099460204522,0.6992006888211211,B,479.0575410006568,Correct,sub_012_day_02_data.csv,1,300,1.0,Training at home,,,,,,,,,,,,,
12,2,31,B,45.60042207167585,25.70606028148384,2.2800211035837923,0.40378985066523,B,1130.9247919998595,Correct,sub_012_day_02_data.csv,1,300,1.0,Training at home,,,,,,,,,,,,,
12,2,32,A,19.85472475329948,43.34650075670998,0.992736237664974,0.6808852416805224,A,535.9682499838527,Correct,sub_012_day_02_data.csv,1,300,1.0,Training at home,,,,,,,,,,,,,
12,2,33,B,64.8210305858704,47.437008308508744,3.2410515292935203,0.7451387840514454,B,616.8709579796996,Correct,sub_012_day_02_data.csv,1,300,1.0,Training at home,,,,,,,,,,,,,
12,2,34,A,32.817982162275236,60.500732709333015,1.6408991081137616,0.9503432870822016,A,583.4306670003571,Correct,sub_012_day_02_data.csv,1,300,1.0,Training at home,,,,,,,,,,,,,
12,2,35,B,37.63311578427195,17.443944146201932,1.8816557892135977,0.2740088338966933,A,549.3066239869222,Incorrect,sub_012_day_02_data.csv,0,300,1.0,Training at home,,,,,,,,,,,,,
12,2,36,B,58.418907952525785,43.519770212193166,2.92094539762629,0.6836069519227098,B,546.8524579773657,Correct,sub_012_day_02_data.csv,1,300,1.0,Training at home,,,,,,,,,,,,,
12,2,37,A,38.93641454981277,48.727020429926,1.9468207274906384,0.7654022470698765,B,862.5064989901148,Incorrect,sub_012_day_02_data.csv,0,300,1.0,Training at home,,,,,,,,,,,,,
12,2,38,A,45.340405204930114,52.01327148431405,2.2670202602465057,0.8170225579214624,B,567.6508330216166,Incorrect,sub_012_day_02_data.csv,0,300,1.0,Training at home,,,,,,,,,,,,,
12,2,39,B,74.95472444084868,52.93907705350543,3.747736222042434,0.8315650777955832,B,655.3484160103835,Correct,sub_012_day_02_data.csv,1,300,1.0,Training at home,,,,,,,,,,,,,
12,2,40,B,68.57475852500879,36.63408559719783,3.42873792625044,0.5754468709156818,B,518.7185420072637,Correct,sub_012_day_02_data.csv,1,300,1.0,Training at home,,,,,,,,,,,,,
12,2,41,A,22.58361734238221,54.664662505753675,1.1291808671191106,0.8586705106952057,A,480.30033297254704,Correct,sub_012_day_02_data.csv,1,300,1.0,Training at home,,,,,,,,,,,,,
12,2,42,B,77.64286312860474,63.60197052916796,3.8821431564302378,0.999057416841343,B,551.7352079914417,Correct,sub_012_day_02_data.csv,1,300,1.0,Training at home,,,,,,,,,,,,,
12,2,43,A,21.477043617025704,44.238526357709574,1.073852180851285,0.6948971470550942,A,605.9267499949783,Correct,sub_012_day_02_data.csv,1,300,1.0,Training at home,,,,,,,,,,,,,
12,2,44,A,51.1062836103645,75.25814367693081,2.555314180518225,1.182152156491255,B,588.1027079885826,Incorrect,sub_012_day_02_data.csv,0,300,1.0,Training at home,,,,,,,,,,,,,
12,2,45,A,31.47814218888336,64.29201715780103,1.573907109444168,1.0098966439370831,A,526.2387080001645,Correct,sub_012_day_02_data.csv,1,300,1.0,Training at home,,,,,,,,,,,,,
12,2,46,B,68.21387793933337,51.68153446750682,3.4106938969666687,0.8118116450468356,B,599.8225829971489,Correct,sub_012_day_02_data.csv,1,300,1.0,Training at home,,,,,,,,,,,,,
12,2,47,B,58.62700121751348,29.985017060777803,2.931350060875674,0.4710035465795207,B,958.414458000334,Correct,sub_012_day_02_data.csv,1,300,1.0,Training at home,,,,,,,,,,,,,
12,2,48,B,73.15261968174639,41.92697370626625,3.6576309840873193,0.6585873629142924,B,565.5555830162484,Correct,sub_012_day_02_data.csv,1,300,1.0,Training at home,,,,,,,,,,,,,
12,2,49,A,14.532464888594715,43.70727160072334,0.7266232444297358,0.6865522168464312,A,533.0413330229931,Correct,sub_012_day_02_data.csv,1,300,1.0,Training at home,,,,,,,,,,,,,
12,2,50,B,81.24566280525612,53.08320191413347,4.062283140262806,0.8338289858123267,B,584.1882079839706,Correct,sub_012_day_02_data.csv,1,300,2.0,Training at home,,,,,,,,,,,,,
12,2,51,B,80.30440619066589,66.94823543227297,4.015220309533294,1.0516204230241433,B,502.80475002364255,Correct,sub_012_day_02_data.csv,1,300,2.0,Training at home,,,,,,,,,,,,,
12,2,52,B,50.3286872150839,29.26295248736656,2.5164343607541952,0.4596613827832898,B,553.2889580063056,Correct,sub_012_day_02_data.csv,1,300,2.0,Training at home,,,,,,,,,,,,,
12,2,53,A,50.26135486118116,58.70951035593905,2.5130677430590582,0.92220683215036,B,453.54791698628105,Incorrect,sub_012_day_02_data.csv,0,300,2.0,Training at home,,,,,,,,,,,,,
12,2,54,B,88.83448382241659,64.86995658314717,4.441724191120829,1.01897489520152,B,449.136625014944,Correct,sub_012_day_02_data.csv,1,300,2.0,Training at home,,,,,,,,,,,,,
12,2,55,B,66.5218563649697,47.3399961591866,3.326092818248485,0.7436149207733482,B,485.28299998724833,Correct,sub_012_day_02_data.csv,1,300,2.0,Training at home,,,,,,,,,,,,,
12,2,56,A,47.61934345442034,73.70655362222841,2.380967172721017,1.157779836905075,B,777.7729159861337,Incorrect,sub_012_day_02_data.csv,0,300,2.0,Training at home,,,,,,,,,,,,,
12,2,57,B,70.34362463555922,55.65672273236885,3.5171812317779607,0.87425375629447,B,659.7730409994256,Correct,sub_012_day_02_data.csv,1,300,2.0,Training at home,,,,,,,,,,,,,
12,2,58,A,42.146520398044096,61.01232171109892,2.107326019902205,0.958379308330227,A,646.3702490145806,Correct,sub_012_day_02_data.csv,1,300,2.0,Training at home,,,,,,,,,,,,,
12,2,59,A,13.194069699732172,34.18375604102972,0.6597034849866086,0.5369571842530233,A,743.1926660065074,Correct,sub_012_day_02_data.csv,1,300,2.0,Training at home,,,,,,,,,,,,,
12,2,60,A,21.804113555246513,47.01174215264807,1.0902056777623257,0.7384587188960837,A,424.65949899633415,Correct,sub_012_day_02_data.csv,1,300,2.0,Training at home,,,,,,,,,,,,,
12,2,61,A,22.219412947728863,36.64796119881903,1.1109706473864431,0.5756648283562684,A,481.1838750028983,Correct,sub_012_day_02_data.csv,1,300,2.0,Training at home,,,,,,,,,,,,,
12,2,62,A,18.508730212783284,39.7915365427624,0.9254365106391644,0.6250439943889607,A,420.01191701274365,Correct,sub_012_day_02_data.csv,1,300,2.0,Training at home,,,,,,,,,,,,,
12,2,63,B,68.88639030565147,56.141841894365115,3.444319515282574,0.8818739902716857,B,806.0197910235729,Correct,sub_012_day_02_data.csv,1,300,2.0,Training at home,,,,,,,,,,,,,
12,2,64,A,37.16440912456104,52.341902343363614,1.858220456228052,0.8221846793841275,B,563.1763330020476,Incorrect,sub_012_day_02_data.csv,0,300,2.0,Training at home,,,,,,,,,,,,,
12,2,65,A,31.823093715439494,41.877208749419594,1.5911546857719747,0.657805656800114,A,522.4283749994356,Correct,sub_012_day_02_data.csv,1,300,2.0,Training at home,,,,,,,,,,,,,
12,2,66,A,12.76541251793769,39.417302418346026,0.6382706258968845,0.6191655385090152,A,488.0669999984093,Correct,sub_012_day_02_data.csv,1,300,2.0,Training at home,,,,,,,,,,,,,
12,2,67,B,60.67394524278728,50.72529667868379,3.0336972621393636,0.7967910969845787,B,650.4342909902334,Correct,sub_012_day_02_data.csv,1,300,2.0,Training at home,,,,,,,,,,,,,
12,2,68,B,52.87452598571737,21.537636565966864,2.643726299285868,0.338312404056642,B,566.0247500054538,Correct,sub_012_day_02_data.csv,1,300,2.0,Training at home,,,,,,,,,,,,,
12,2,69,A,57.98938391860382,71.97232715078265,2.899469195930191,1.1305386711933,B,544.4340410176665,Incorrect,sub_012_day_02_data.csv,0,300,2.0,Training at home,,,,,,,,,,,,,
12,2,70,B,35.1120816470574,10.715324169737016,1.7556040823528702,0.1683159184623948,A,823.5683329985477,Incorrect,sub_012_day_02_data.csv,0,300,2.0,Training at home,,,,,,,,,,,,,
12,2,71,B,78.68761399840807,66.0013718752913,3.934380699920404,1.0367471250513156,B,447.64637501793914,Correct,sub_012_day_02_data.csv,1,300,2.0,Training at home,,,,,,,,,,,,,
12,2,72,A,18.690325526746744,49.01250356210285,0.9345162763373372,0.7698866056237292,A,498.3390830166172,Correct,sub_012_day_02_data.csv,1,300,2.0,Training at home,,,,,,,,,,,,,
12,2,73,B,77.20198195301461,49.33342896353985,3.8600990976507306,0.7749276900412536,B,556.8432080035564,Correct,sub_012_day_02_data.csv,1,300,2.0,Training at home,,,,,,,,,,,,,
12,2,74,B,30.58139549970184,11.30514340508866,1.529069774985092,0.1775807773460281,A,705.399166996358,Incorrect,sub_012_day_02_data.csv,0,300,2.0,Training at home,,,,,,,,,,,,,
12,2,75,A,46.73173258463101,58.784836754733234,2.33658662923155,0.9233900564557258,A,996.9157080049628,Correct,sub_012_day_02_data.csv,1,300,3.0,Training at home,,,,,,,,,,,,,
12,2,76,A,49.52650111334772,77.38462742291316,2.476325055667386,1.215554885063036,A,504.6629580028821,Correct,sub_012_day_02_data.csv,1,300,3.0,Training at home,,,,,,,,,,,,,
12,2,77,B,66.38662883873484,43.49869361686615,3.319331441936742,0.6832758815374996,B,658.3818749932107,Correct,sub_012_day_02_data.csv,1,300,3.0,Training at home,,,,,,,,,,,,,
12,2,78,B,69.41489090870508,38.27825639350555,3.4707445454352537,0.6012734453903178,B,522.4900409812108,Correct,sub_012_day_02_data.csv,1,300,3.0,Training at home,,,,,,,,,,,,,
12,2,79,B,34.61701769828781,11.249829716765472,1.7308508849143904,0.1767119119616327,A,1063.5955409961753,Incorrect,sub_012_day_02_data.csv,0,300,3.0,Training at home,,,,,,,,,,,,,
12,2,80,B,60.318493220615395,41.43522820943845,3.0159246610307697,0.6508630427129419,B,2312.3913739982527,Correct,sub_012_day_02_data.csv,1,300,3.0,Training at home,,,,,,,,,,,,,
12,2,81,B,48.22390910042681,27.80781968136415,2.4111954550213404,0.4368042101166164,B,522.7390410145745,Correct,sub_012_day_02_data.csv,1,300,3.0,Training at home,,,,,,,,,,,,,
12,2,82,B,77.15396187389698,62.567323702303455,3.857698093694848,0.9828052224896554,B,499.1116239980329,Correct,sub_012_day_02_data.csv,1,300,3.0,Training at home,,,,,,,,,,,,,
12,2,83,B,67.4414395774222,35.8767491316133,3.3720719788711104,0.5635506575328018,B,704.532375006238,Correct,sub_012_day_02_data.csv,1,300,3.0,Training at home,,,,,,,,,,,,,
12,2,84,A,27.450116032445788,57.50192488567016,1.3725058016222895,0.9032381239404677,A,478.4265419875737,Correct,sub_012_day_02_data.csv,1,300,3.0,Training at home,,,,,,,,,,,,,
12,2,85,B,74.65272370172245,58.05737512674611,3.7326361850861223,0.9119631159244618,B,615.5352079949807,Correct,sub_012_day_02_data.csv,1,300,3.0,Training at home,,,,,,,,,,,,,
12,2,86,A,19.42779134580352,35.98942875050493,0.971389567290176,0.5653206248473978,A,553.7305409961846,Correct,sub_012_day_02_data.csv,1,300,3.0,Training at home,,,,,,,,,,,,,
12,2,87,A,22.068086712638404,39.29037509336062,1.1034043356319203,0.6171717687504455,A,509.9892080179416,Correct,sub_012_day_02_data.csv,1,300,3.0,Training at home,,,,,,,,,,,,,
12,2,88,B,78.57369993611499,46.94758642527333,3.928684996805749,0.7374509630870529,B,569.3483749928419,Correct,sub_012_day_02_data.csv,1,300,3.0,Training at home,,,,,,,,,,,,,
12,2,89,A,45.531246653078135,74.69249234155654,2.276562332653907,1.1732669260927298,B,608.6546659935266,Incorrect,sub_012_day_02_data.csv,0,300,3.0,Training at home,,,,,,,,,,,,,
12,2,90,A,39.284062786445624,60.15354048695124,1.9642031393222812,0.9448896044061108,A,598.4492500138003,Correct,sub_012_day_02_data.csv,1,300,3.0,Training at home,,,,,,,,,,,,,
12,2,91,B,56.666002026925135,36.81644236073838,2.833300101346257,0.5783113242590388,B,831.9251250068191,Correct,sub_012_day_02_data.csv,1,300,3.0,Training at home,,,,,,,,,,,,,
12,2,92,B,35.876995023527456,14.48828520575831,1.793849751176373,0.2275814518276199,A,751.9603750261012,Incorrect,sub_012_day_02_data.csv,0,300,3.0,Training at home,,,,,,,,,,,,,
12,2,93,A,43.50074583919903,67.36079562935352,2.175037291959951,1.0581009034457023,B,706.2835409888066,Incorrect,sub_012_day_02_data.csv,0,300,3.0,Training at home,,,,,,,,,,,,,
12,2,94,A,12.86852861131867,31.126644369901022,0.6434264305659334,0.4889361864169157,A,1750.6494169938378,Correct,sub_012_day_02_data.csv,1,300,3.0,Training at home,,,,,,,,,,,,,
12,2,95,A,20.861169915012596,47.71831693988371,1.0430584957506297,0.7495575697000402,A,473.4007499937434,Correct,sub_012_day_02_data.csv,1,300,3.0,Training at home,,,,,,,,,,,,,
12,2,96,B,44.69017333430435,21.572785765289524,2.234508666715217,0.3388645263885002,A,659.1242910071742,Incorrect,sub_012_day_02_data.csv,0,300,3.0,Training at home,,,,,,,,,,,,,
12,2,97,B,43.259166571338774,16.123331576428637,2.1629583285669387,0.2532647001595027,B,559.8758750129491,Correct,sub_012_day_02_data.csv,1,300,3.0,Training at home,,,,,,,,,,,,,
12,2,98,A,36.37313905990648,68.9810611481295,1.818656952995324,1.0835519746989597,B,1135.5837489827536,Incorrect,sub_012_day_02_data.csv,0,300,3.0,Training at home,,,,,,,,,,,,,
12,2,99,B,68.33948217283361,53.77927985866765,3.4169741086416807,0.8447629525966991,B,458.79262502421625,Correct,sub_012_day_02_data.csv,1,300,3.0,Training at home,,,,,,,,,,,,,
12,2,100,B,80.85904065454793,55.17804327134555,4.0429520327273964,0.8667346769035944,B,788.5973330121487,Correct,sub_012_day_02_data.csv,1,300,4.0,Training at home,,,,,,,,,,,,,
12,2,101,A,49.29661254929543,78.14771762325232,2.464830627464772,1.2275414779000955,B,402.15433298726566,Incorrect,sub_012_day_02_data.csv,0,300,4.0,Training at home,,,,,,,,,,,,,
12,2,102,B,70.52758648050968,43.94067522364114,3.526379324025484,0.6902185123818304,B,463.12516697798856,Correct,sub_012_day_02_data.csv,1,300,4.0,Training at home,,,,,,,,,,,,,
12,2,103,B,80.21086936364527,55.362411579546816,4.010543468182264,0.8696307275165939,B,408.6237500014249,Correct,sub_012_day_02_data.csv,1,300,4.0,Training at home,,,,,,,,,,,,,
12,2,104,A,27.58045482976006,42.81734050391408,1.379022741488003,0.6725732118667459,A,558.7739160109777,Correct,sub_012_day_02_data.csv,1,300,4.0,Training at home,,,,,,,,,,,,,
12,2,105,B,68.81142503009113,35.513777411532885,3.440571251504557,0.5578491110864743,B,589.4664579827804,Correct,sub_012_day_02_data.csv,1,300,4.0,Training at home,,,,,,,,,,,,,
12,2,106,A,27.516410000733757,40.06151113527244,1.3758205000366877,0.6292847453713879,A,650.6999580014963,Correct,sub_012_day_02_data.csv,1,300,4.0,Training at home,,,,,,,,,,,,,
12,2,107,A,36.66833765940956,69.01662705342744,1.833416882970478,1.0841106426329712,A,762.7079160010908,Correct,sub_012_day_02_data.csv,1,300,4.0,Training at home,,,,,,,,,,,,,
12,2,108,A,34.309758541104564,58.92202346085574,1.7154879270552283,0.9255449801963492,A,770.399458007887,Correct,sub_012_day_02_data.csv,1,300,4.0,Training at home,,,,,,,,,,,,,
12,2,109,A,56.028359137625216,73.06666600051035,2.8014179568812607,1.1477285056475122,B,1340.4251659812871,Incorrect,sub_012_day_02_data.csv,0,300,4.0,Training at home,,,,,,,,,,,,,
12,2,110,A,22.67200218300344,39.667256908280606,1.133600109150172,0.6230918144555665,A,506.6949169849977,Correct,sub_012_day_02_data.csv,1,300,4.0,Training at home,,,,,,,,,,,,,
12,2,111,B,81.8411260682729,62.698309948105546,4.092056303413645,0.9848627496273212,B,738.765207992401,Correct,sub_012_day_02_data.csv,1,300,4.0,Training at home,,,,,,,,,,,,,
12,2,112,B,85.83184578920014,68.23772149739264,4.291592289460008,1.0718756227695752,B,472.3924580030143,Correct,sub_012_day_02_data.csv,1,300,4.0,Training at home,,,,,,,,,,,,,
12,2,113,B,70.33454582046942,43.62278643398041,3.516727291023471,0.6852251269505467,B,442.5442909996491,Correct,sub_012_day_02_data.csv,1,300,4.0,Training at home,,,,,,,,,,,,,
12,2,114,B,50.27239119507743,25.366328411972905,2.5136195597538715,0.3984533549380006,B,638.1941250001546,Correct,sub_012_day_02_data.csv,1,300,4.0,Training at home,,,,,,,,,,,,,
12,2,115,B,72.7381970687022,56.93386109082601,3.6369098534351103,0.8943149987172038,B,539.1850830055773,Correct,sub_012_day_02_data.csv,1,300,4.0,Training at home,,,,,,,,,,,,,
12,2,116,B,38.34784671003325,25.983960564634373,1.9173923355016629,0.4081550981051112,A,672.1729580021929,Incorrect,sub_012_day_02_data.csv,0,300,4.0,Training at home,,,,,,,,,,,,,
12,2,117,A,52.01605902343914,70.42892589386562,2.600802951171957,1.1062949809419411,A,1001.3577080098912,Correct,sub_012_day_02_data.csv,1,300,4.0,Training at home,,,,,,,,,,,,,
12,2,118,A,60.61989355783419,85.70766295198334,3.0309946778917096,1.3462928214315044,B,416.80862501380034,Incorrect,sub_012_day_02_data.csv,0,300,4.0,Training at home,,,,,,,,,,,,,
12,2,119,A,31.442404923922144,42.82312287943099,1.5721202461961072,0.672664041208967,A,484.0729990100954,Correct,sub_012_day_02_data.csv,1,300,4.0,Training at home,,,,,,,,,,,,,
12,2,120,A,36.86138814887626,54.33734176770866,1.8430694074438128,0.8535289685651566,A,497.58224899414927,Correct,sub_012_day_02_data.csv,1,300,4.0,Training at home,,,,,,,,,,,,,
12,2,121,B,72.61143245651883,56.4565610306761,3.6305716228259417,0.8868175869045791,B,464.6748329978436,Correct,sub_012_day_02_data.csv,1,300,4.0,Training at home,,,,,,,,,,,,,
12,2,122,B,65.75354868886305,32.59471458466585,3.287677434443152,0.5119965794252116,B,555.1438739930745,Correct,sub_012_day_02_data.csv,1,300,4.0,Training at home,,,,,,,,,,,,,
12,2,123,B,79.89933345671493,62.32614378756537,3.9949666728357465,0.9790167772479824,B,434.9486250139307,Correct,sub_012_day_02_data.csv,1,300,4.0,Training at home,,,,,,,,,,,,,
12,2,124,A,60.5505264866044,75.09616483641,3.0275263243302195,1.1796077988141689,B,804.9508330004755,Incorrect,sub_012_day_02_data.csv,0,300,4.0,Training at home,,,,,,,,,,,,,
12,2,125,A,38.14708023141718,52.02230816154264,1.907354011570859,0.8171645057154333,A,486.08866601716727,Correct,sub_012_day_02_data.csv,1,300,5.0,Training at home,,,,,,,,,,,,,
12,2,126,B,69.74031070754393,50.45270368829984,3.4870155353771963,0.7925092163045272,B,725.7206249923911,Correct,sub_012_day_02_data.csv,1,300,5.0,Training at home,,,,,,,,,,,,,
12,2,127,B,77.59788780744371,46.52403188162508,3.879894390372186,0.7307977838734533,B,665.6572909851093,Correct,sub_012_day_02_data.csv,1,300,5.0,Training at home,,,,,,,,,,,,,
12,2,128,A,53.36147005905102,79.97564345603689,2.668073502952551,1.2562544697380105,B,1310.4922079946846,Incorrect,sub_012_day_02_data.csv,0,300,5.0,Training at home,,,,,,,,,,,,,
12,2,129,A,16.794889498407866,34.63128139102417,0.8397444749203933,0.5439868960122122,A,712.1281250147149,Correct,sub_012_day_02_data.csv,1,300,5.0,Training at home,,,,,,,,,,,,,
12,2,130,A,65.15742785402611,81.42285076725375,3.2578713927013054,1.278987149023712,B,480.39945799973793,Incorrect,sub_012_day_02_data.csv,0,300,5.0,Training at home,,,,,,,,,,,,,
12,2,131,B,67.00247487728431,36.25667370997259,3.350123743864216,0.5695184988542604,B,607.8412919887342,Correct,sub_012_day_02_data.csv,1,300,5.0,Training at home,,,,,,,,,,,,,
12,2,132,A,23.085096736650197,41.46473716987067,1.1542548368325098,0.6513265683794867,A,642.1968330105301,Correct,sub_012_day_02_data.csv,1,300,5.0,Training at home,,,,,,,,,,,,,
12,2,133,A,36.23272278627303,63.59804297230285,1.8116361393136515,0.9989957229223728,A,788.9254160108976,Correct,sub_012_day_02_data.csv,1,300,5.0,Training at home,,,,,,,,,,,,,
12,2,134,B,54.941408519770775,40.18263324106035,2.747070425988539,0.6311873269600411,B,573.4837499912828,Correct,sub_012_day_02_data.csv,1,300,5.0,Training at home,,,,,,,,,,,,,
12,2,135,A,59.961260621971526,73.43927587864043,2.9980630310985763,1.1535814479264543,B,657.8914170095231,Incorrect,sub_012_day_02_data.csv,0,300,5.0,Training at home,,,,,,,,,,,,,
12,2,136,B,67.4465209338409,42.29611954839969,3.3723260466920455,0.6643858922430405,B,410.5328750156332,Correct,sub_012_day_02_data.csv,1,300,5.0,Training at home,,,,,,,,,,,,,
12,2,137,B,85.99107335818138,61.87927686909619,4.299553667909069,0.971997408107007,B,643.5792910051532,Correct,sub_012_day_02_data.csv,1,300,5.0,Training at home,,,,,,,,,,,,,
12,2,138,B,57.740486767824514,45.72351168930096,2.887024338391226,0.7182232420971747,B,456.0507079877425,Correct,sub_012_day_02_data.csv,1,300,5.0,Training at home,,,,,,,,,,,,,
12,2,139,A,23.577203231258064,46.57381589152739,1.1788601615629033,0.7315797892723299,A,508.7823329959065,Correct,sub_012_day_02_data.csv,1,300,5.0,Training at home,,,,,,,,,,,,,
12,2,140,B,39.559294094365875,14.45671283507588,1.9779647047182936,0.2270855141886582,A,689.1032920102589,Incorrect,sub_012_day_02_data.csv,0,300,5.0,Training at home,,,,,,,,,,,,,
12,2,141,A,33.01300156359105,53.03827482068121,1.6506500781795523,0.833123272678643,A,657.7996239939239,Correct,sub_012_day_02_data.csv,1,300,5.0,Training at home,,,,,,,,,,,,,
12,2,142,B,64.42406993181648,50.97772735868426,3.2212034965908236,0.8007562688337294,B,539.8789579921868,Correct,sub_012_day_02_data.csv,1,300,5.0,Training at home,,,,,,,,,,,,,
12,2,143,A,19.84338088918647,36.40913205088174,0.9921690444593236,0.5719133088731537,A,755.281374003971,Correct,sub_012_day_02_data.csv,1,300,5.0,Training at home,,,,,,,,,,,,,
12,2,144,A,50.06398600704728,64.37782295170832,2.5031993003523643,1.0112444781959562,A,857.0874989964068,Correct,sub_012_day_02_data.csv,1,300,5.0,Training at home,,,,,,,,,,,,,
12,2,145,A,36.66638435974957,57.47385999186557,1.8333192179874789,0.902797281619466,A,543.9997909998056,Correct,sub_012_day_02_data.csv,1,300,5.0,Training at home,,,,,,,,,,,,,
12,2,146,A,32.74239668213625,59.16289553988818,1.6371198341068125,0.9293285899660654,A,625.5819159850944,Correct,sub_012_day_02_data.csv,1,300,5.0,Training at home,,,,,,,,,,,,,
12,2,147,B,46.22410713831691,29.209273297931908,2.3112053569158455,0.458818192047397,A,663.1566240102984,Incorrect,sub_012_day_02_data.csv,0,300,5.0,Training at home,,,,,,,,,,,,,
12,2,148,B,63.06221576583278,54.51913334104774,3.1531107882916394,0.8563845439215896,B,553.1163749983534,Correct,sub_012_day_02_data.csv,1,300,5.0,Training at home,,,,,,,,,,,,,
12,2,149,A,58.60032534283134,72.53618184630707,2.9300162671415673,1.139395680039058,B,483.5325409949291,Incorrect,sub_012_day_02_data.csv,0,300,5.0,Training at home,,,,,,,,,,,,,
12,2,150,B,55.06446299388345,28.19303735206946,2.753223149694173,0.4428551951382202,B,682.8245829965454,Correct,sub_012_day_02_data.csv,1,300,6.0,Training at home,,,,,,,,,,,,,
12,2,151,B,75.99575715047125,49.840714764491146,3.799787857523562,0.7828961167689485,B,497.8896660031751,Correct,sub_012_day_02_data.csv,1,300,6.0,Training at home,,,,,,,,,,,,,
12,2,152,A,51.41182425447484,81.00453070679845,2.5705912127237416,1.272416192879834,B,485.5310409911908,Incorrect,sub_012_day_02_data.csv,0,300,6.0,Training at home,,,,,,,,,,,,,
12,2,153,B,43.55647726509507,24.3566014056627,2.177823863254753,0.3825926002122238,B,705.9282920090482,Correct,sub_012_day_02_data.csv,1,300,6.0,Training at home,,,,,,,,,,,,,
12,2,154,A,65.43921249834881,86.9061384951428,3.2719606249174404,1.3651184312409888,B,844.420125009492,Incorrect,sub_012_day_02_data.csv,0,300,6.0,Training at home,,,,,,,,,,,,,
12,2,155,B,72.23898752979206,43.94578474758132,3.6119493764896022,0.6902987725961992,B,587.8456250065938,Correct,sub_012_day_02_data.csv,1,300,6.0,Training at home,,,,,,,,,,,,,
12,2,156,A,62.162744981960365,74.86538243762378,3.108137249098018,1.175982677371146,B,491.3146239996422,Incorrect,sub_012_day_02_data.csv,0,300,6.0,Training at home,,,,,,,,,,,,,
12,2,157,B,75.80636205522444,44.429753192665615,3.790318102761222,0.6979009311544299,B,429.58070800523274,Correct,sub_012_day_02_data.csv,1,300,6.0,Training at home,,,,,,,,,,,,,
12,2,158,B,59.87637746524618,37.17431222012821,2.9938188732623088,0.5839327308650403,B,457.29945797938854,Correct,sub_012_day_02_data.csv,1,300,6.0,Training at home,,,,,,,,,,,,,
12,2,159,A,37.48130347817384,68.74828133314679,1.874065173908692,1.0798954779156913,A,554.0705409948714,Correct,sub_012_day_02_data.csv,1,300,6.0,Training at home,,,,,,,,,,,,,
12,2,160,B,66.22958159080265,55.02210230437475,3.3114790795401325,0.8642851619224488,B,666.5481660165824,Correct,sub_012_day_02_data.csv,1,300,6.0,Training at home,,,,,,,,,,,,,
12,2,161,B,75.5780768261036,49.9944123648701,3.77890384130518,0.7853103930300732,B,447.60049899923615,Correct,sub_012_day_02_data.csv,1,300,6.0,Training at home,,,,,,,,,,,,,
12,2,162,A,26.140306591606056,41.440406271903086,1.3070153295803026,0.6509443795279357,A,782.5379580026492,Correct,sub_012_day_02_data.csv,1,300,6.0,Training at home,,,,,,,,,,,,,
12,2,163,B,49.43474737463254,40.41184290930577,2.471737368731627,0.6347877440094988,A,525.915874983184,Incorrect,sub_012_day_02_data.csv,0,300,6.0,Training at home,,,,,,,,,,,,,
12,2,164,A,43.372884372719575,67.07058094576901,2.1686442186359787,1.0535422218561374,A,1056.5727489884011,Correct,sub_012_day_02_data.csv,1,300,6.0,Training at home,,,,,,,,,,,,,
12,2,165,B,55.38423026786555,42.743457016659605,2.769211513393277,0.6714126527628446,B,1601.8895829911344,Correct,sub_012_day_02_data.csv,1,300,6.0,Training at home,,,,,,,,,,,,,
12,2,166,A,62.38976092067233,80.6552064342509,3.119488046033616,1.2669290200380543,B,1016.4383749943228,Incorrect,sub_012_day_02_data.csv,0,300,6.0,Training at home,,,,,,,,,,,,,
12,2,167,A,46.14219723974151,67.90854836162333,2.3071098619870756,1.0667049832441151,B,956.9212080095896,Incorrect,sub_012_day_02_data.csv,0,300,6.0,Training at home,,,,,,,,,,,,,
12,2,168,A,34.36464687536277,67.71440873357773,1.7182323437681388,1.0636554450979216,A,589.4448749895673,Correct,sub_012_day_02_data.csv,1,300,6.0,Training at home,,,,,,,,,,,,,
12,2,169,B,51.93733668565436,30.82361810171347,2.596866834282718,0.4841762609270019,B,1877.4975420092233,Correct,sub_012_day_02_data.csv,1,300,6.0,Training at home,,,,,,,,,,,,,
12,2,170,B,36.69635240869242,10.848375145484574,1.834817620434621,0.1704058783022022,B,2529.872917017201,Correct,sub_012_day_02_data.csv,1,300,6.0,Training at home,,,,,,,,,,,,,
12,2,171,B,68.21644866978649,50.95698417072241,3.410822433489324,0.8004304355991645,B,505.7443749974482,Correct,sub_012_day_02_data.csv,1,300,6.0,Training at home,,,,,,,,,,,,,
12,2,172,B,47.02584731026037,34.99125272581337,2.3512923655130185,0.5496413125165955,B,487.71912400843576,Correct,sub_012_day_02_data.csv,1,300,6.0,Training at home,,,,,,,,,,,,,
12,2,173,B,41.858175745543114,22.790904187849183,2.092908787277156,0.3579986858260792,B,445.5935829901137,Correct,sub_012_day_02_data.csv,1,300,6.0,Training at home,,,,,,,,,,,,,
12,2,174,A,38.98094889696431,68.03618204830765,1.9490474448482156,1.0687098485063051,B,623.2424159825314,Incorrect,sub_012_day_02_data.csv,0,300,6.0,Training at home,,,,,,,,,,,,,
12,2,175,B,64.26982642728423,46.13305450856649,3.213491321364211,0.7246563256588499,B,968.3856249903328,Correct,sub_012_day_02_data.csv,1,300,7.0,Training at home,,,,,,,,,,,,,
12,2,176,A,16.348418573402615,36.513977142420025,0.8174209286701307,0.5735602117198618,A,2677.1012489916757,Correct,sub_012_day_02_data.csv,1,300,7.0,Training at home,,,,,,,,,,,,,
12,2,177,A,49.77471493421582,59.449597079820194,2.488735746710791,0.9338320872241817,B,756.7078330030199,Incorrect,sub_012_day_02_data.csv,0,300,7.0,Training at home,,,,,,,,,,,,,
12,2,178,A,45.69180285872506,75.29865193496755,2.284590142936253,1.1827884587205444,A,817.2549160080962,Correct,sub_012_day_02_data.csv,1,300,7.0,Training at home,,,,,,,,,,,,,
12,2,179,B,51.00537745835994,42.80357994304037,2.550268872917997,0.6723570614819953,A,513.9565829886124,Incorrect,sub_012_day_02_data.csv,0,300,7.0,Training at home,,,,,,,,,,,,,
12,2,180,A,39.959634282911225,63.623904222478274,1.9979817141455611,0.999401950490192,A,840.9642080077901,Correct,sub_012_day_02_data.csv,1,300,7.0,Training at home,,,,,,,,,,,,,
12,2,181,A,37.1361054389852,45.875043347907805,1.85680527194926,0.7206034958245022,A,932.9862079757733,Correct,sub_012_day_02_data.csv,1,300,7.0,Training at home,,,,,,,,,,,,,
12,2,182,B,30.25884375895635,13.620387862296525,1.5129421879478175,0.2139485522361717,A,1430.9029580035713,Incorrect,sub_012_day_02_data.csv,0,300,7.0,Training at home,,,,,,,,,,,,,
12,2,183,A,37.97857897727832,69.31266860562401,1.898928948863916,1.0887608524606611,A,826.5179159934632,Correct,sub_012_day_02_data.csv,1,300,7.0,Training at home,,,,,,,,,,,,,
12,2,184,B,48.342745190280496,36.64397075668592,2.417137259514025,0.5756021466378185,A,836.2253330124076,Incorrect,sub_012_day_02_data.csv,0,300,7.0,Training at home,,,,,,,,,,,,,
12,2,185,B,46.889603974563606,39.40741573185978,2.3444801987281805,0.6190102388008476,B,602.5340420019347,Correct,sub_012_day_02_data.csv,1,300,7.0,Training at home,,,,,,,,,,,,,
12,2,186,B,84.78982765592724,68.59036709842138,4.239491382796362,1.0774149669171385,B,481.73291599960066,Correct,sub_012_day_02_data.csv,1,300,7.0,Training at home,,,,,,,,,,,,,
12,2,187,B,75.13592586415302,54.59127226847794,3.756796293207651,0.8575176995438525,B,538.9487079810351,Correct,sub_012_day_02_data.csv,1,300,7.0,Training at home,,,,,,,,,,,,,
12,2,188,A,56.904813031445954,83.85943669300289,2.8452406515722974,1.317260951244581,B,403.4875829820521,Incorrect,sub_012_day_02_data.csv,0,300,7.0,Training at home,,,,,,,,,,,,,
12,2,189,A,30.04483890116603,38.99990685456753,1.5022419450583016,0.6126091043249778,A,622.1629579958972,Correct,sub_012_day_02_data.csv,1,300,7.0,Training at home,,,,,,,,,,,,,
12,2,190,A,66.0639599866168,83.14352980346229,3.30319799933084,1.3060155121204058,B,760.8958740020171,Incorrect,sub_012_day_02_data.csv,0,300,7.0,Training at home,,,,,,,,,,,,,
12,2,191,B,68.9867284321133,38.05988313939549,3.449336421605665,0.5978432463360546,B,615.690500009805,Correct,sub_012_day_02_data.csv,1,300,7.0,Training at home,,,,,,,,,,,,,
12,2,192,B,48.12949213303302,35.51361473675183,2.406474606651651,0.5578465557969889,B,562.782833003439,Correct,sub_012_day_02_data.csv,1,300,7.0,Training at home,,,,,,,,,,,,,
12,2,193,B,44.72914123211965,31.59153435234172,2.2364570616059827,0.4962386611847316,B,513.2067080121487,Correct,sub_012_day_02_data.csv,1,300,7.0,Training at home,,,,,,,,,,,,,
12,2,194,A,33.329351633404336,59.42847017888215,1.6664675816702168,0.9335002266402812,B,591.2650410027709,Incorrect,sub_012_day_02_data.csv,0,300,7.0,Training at home,,,,,,,,,,,,,
12,2,195,B,59.310663623166825,34.977813228780356,2.9655331811583414,0.5494302053908612,B,549.9095000268426,Correct,sub_012_day_02_data.csv,1,300,7.0,Training at home,,,,,,,,,,,,,
12,2,196,B,47.99873901518942,35.96275366180595,2.399936950759471,0.5649016135339449,B,700.0481660070363,Correct,sub_012_day_02_data.csv,1,300,7.0,Training at home,,,,,,,,,,,,,
12,2,197,A,61.05511002625721,84.13260052684608,3.052755501312861,1.321551798712722,B,494.6822490019258,Incorrect,sub_012_day_02_data.csv,0,300,7.0,Training at home,,,,,,,,,,,,,
12,2,198,B,61.24656533192542,45.36195858214715,3.062328266596271,0.71254397917059,B,989.6006660128478,Correct,sub_012_day_02_data.csv,1,300,7.0,Training at home,,,,,,,,,,,,,
12,2,199,A,16.123044300893834,38.593612436741715,0.8061522150446918,0.6062270465337972,A,1694.9182079988532,Correct,sub_012_day_02_data.csv,1,300,7.0,Training at home,,,,,,,,,,,,,
12,2,200,A,67.04532139794213,81.99382573666082,3.3522660698971065,1.2879560028700767,B,464.5754999946803,Incorrect,sub_012_day_02_data.csv,0,300,8.0,Training at home,,,,,,,,,,,,,
12,2,201,A,35.74276438248287,66.31259931777048,1.7871382191241434,1.0416358742857563,A,664.025498990668,Correct,sub_012_day_02_data.csv,1,300,8.0,Training at home,,,,,,,,,,,,,
12,2,202,A,57.61057801708697,74.53032280301953,2.8805289008543484,1.1707195729382098,A,515.9328330191784,Correct,sub_012_day_02_data.csv,1,300,8.0,Training at home,,,,,,,,,,,,,
12,2,203,A,27.71896524577185,42.904716411454814,1.3859482622885926,0.6739457094128994,A,713.4930409956723,Correct,sub_012_day_02_data.csv,1,300,8.0,Training at home,,,,,,,,,,,,,
12,2,204,A,64.97773946120245,79.00882955217536,3.248886973060122,1.2410677924492113,A,559.2434999998659,Correct,sub_012_day_02_data.csv,1,300,8.0,Training at home,,,,,,,,,,,,,
12,2,205,B,68.19523396604062,49.87169678314998,3.409761698302031,0.7833827811800085,A,586.0081659920979,Incorrect,sub_012_day_02_data.csv,0,300,8.0,Training at home,,,,,,,,,,,,,
12,2,206,A,27.562663487547223,38.125081854747485,1.3781331743773613,0.5988673853619211,A,857.7904580160975,Correct,sub_012_day_02_data.csv,1,300,8.0,Training at home,,,,,,,,,,,,,
12,2,207,B,41.04263094847918,20.267332439510785,2.0521315474239588,0.3183585134991459,A,527.2905409801751,Incorrect,sub_012_day_02_data.csv,0,300,8.0,Training at home,,,,,,,,,,,,,
12,2,208,B,81.19550661714061,59.61151434383584,4.059775330857031,0.936375477659786,B,491.994333016919,Correct,sub_012_day_02_data.csv,1,300,8.0,Training at home,,,,,,,,,,,,,
12,2,209,A,24.312559144159977,34.90938715804282,1.2156279572079989,0.5483553711851459,A,643.6787910060957,Correct,sub_012_day_02_data.csv,1,300,8.0,Training at home,,,,,,,,,,,,,
12,2,210,B,71.7803471971968,40.955360932904746,3.5890173598598403,0.6433253051596598,A,2226.6208329820074,Incorrect,sub_012_day_02_data.csv,0,300,8.0,Training at home,,,,,,,,,,,,,
12,2,211,B,66.60236875037448,41.87696966576589,3.330118437518724,0.6578019012828636,B,390.65008299076,Correct,sub_012_day_02_data.csv,1,300,8.0,Training at home,,,,,,,,,,,,,
12,2,212,B,78.2108508912929,47.845084403081266,3.910542544564646,0.7515488283555184,B,441.3322909967974,Correct,sub_012_day_02_data.csv,1,300,8.0,Training at home,,,,,,,,,,,,,
12,2,213,B,35.34370367023814,24.347210791325573,1.767185183511907,0.3824450927871527,A,596.7700000037439,Incorrect,sub_012_day_02_data.csv,0,300,8.0,Training at home,,,,,,,,,,,,,
12,2,214,B,68.1387889393832,43.02137138438329,3.40693944696916,0.6757781214426835,B,660.3579169895966,Correct,sub_012_day_02_data.csv,1,300,8.0,Training at home,,,,,,,,,,,,,
12,2,215,A,23.94284368950104,35.51775093679554,1.197142184475052,0.5579115270753442,A,533.1789169867989,Correct,sub_012_day_02_data.csv,1,300,8.0,Training at home,,,,,,,,,,,,,
12,2,216,B,85.33756505376712,61.289165034847045,4.266878252688356,0.9627279530906396,B,482.19383298419416,Correct,sub_012_day_02_data.csv,1,300,8.0,Training at home,,,,,,,,,,,,,
12,2,217,A,16.917856342696542,37.83844420011236,0.845892817134827,0.5943648916117016,A,503.9550410001538,Correct,sub_012_day_02_data.csv,1,300,8.0,Training at home,,,,,,,,,,,,,
12,2,218,A,58.793695850585976,76.91474240912112,2.9396847925292993,1.208173948526231,B,1330.7173749781214,Incorrect,sub_012_day_02_data.csv,0,300,8.0,Training at home,,,,,,,,,,,,,
12,2,219,A,26.512422908600684,45.19010627972243,1.3256211454300342,0.7098445295165897,A,506.1397079844028,Correct,sub_012_day_02_data.csv,1,300,8.0,Training at home,,,,,,,,,,,,,
12,2,220,A,37.47552863481485,45.644398895105304,1.8737764317407424,0.7169805412319245,A,1231.5895410138182,Correct,sub_012_day_02_data.csv,1,300,8.0,Training at home,,,,,,,,,,,,,
12,2,221,B,63.55489575262781,56.053946924145166,3.1777447876313905,0.8804933393080331,B,826.8462080159225,Correct,sub_012_day_02_data.csv,1,300,8.0,Training at home,,,,,,,,,,,,,
12,2,222,B,83.38323372215012,54.739906359194016,4.169161686107506,0.8598524383811855,B,847.721250000177,Correct,sub_012_day_02_data.csv,1,300,8.0,Training at home,,,,,,,,,,,,,
12,2,223,A,24.745567309622984,42.897921668218814,1.2372783654811492,0.6738389778357331,A,496.5413330064621,Correct,sub_012_day_02_data.csv,1,300,8.0,Training at home,,,,,,,,,,,,,
12,2,224,A,44.05877967076617,63.45329562851586,2.2029389835383086,0.996722036963034,A,1340.8849579864182,Correct,sub_012_day_02_data.csv,1,300,8.0,Training at home,,,,,,,,,,,,,
12,2,225,B,66.07170562119404,55.48978251069388,3.303585281059702,0.8716314654244564,A,757.8912500175647,Incorrect,sub_012_day_02_data.csv,0,300,9.0,Training at home,,,,,,,,,,,,,
12,2,226,A,53.209488869834,78.02971193306269,2.6604744434917,1.2256878488531875,B,777.3152489971835,Incorrect,sub_012_day_02_data.csv,0,300,9.0,Training at home,,,,,,,,,,,,,
12,2,227,A,62.8725409465287,81.05304717254124,3.143627047326435,1.2731782877416125,A,652.0515829906799,Correct,sub_012_day_02_data.csv,1,300,9.0,Training at home,,,,,,,,,,,,,
12,2,228,A,57.42026883190984,66.80045933044326,2.871013441595492,1.0492991614447216,A,460.06979100639,Correct,sub_012_day_02_data.csv,1,300,9.0,Training at home,,,,,,,,,,,,,
12,2,229,B,48.154790026953165,38.26311092532117,2.407739501347658,0.6010355409324017,B,1125.4419990000315,Correct,sub_012_day_02_data.csv,1,300,9.0,Training at home,,,,,,,,,,,,,
12,2,230,A,23.187105360050964,55.545128189975344,1.1593552680025483,0.8725008333216493,A,535.9611249878071,Correct,sub_012_day_02_data.csv,1,300,9.0,Training at home,,,,,,,,,,,,,
12,2,231,B,59.55124512103965,27.49994154715025,2.9775622560519825,0.4319680716933797,A,921.738250006456,Incorrect,sub_012_day_02_data.csv,0,300,9.0,Training at home,,,,,,,,,,,,,
12,2,232,A,39.76039908671416,61.34558448831952,1.988019954335708,0.9636141877933828,A,1052.746333007235,Correct,sub_012_day_02_data.csv,1,300,9.0,Training at home,,,,,,,,,,,,,
12,2,233,A,22.60638714142909,47.56448484668622,1.1303193570714545,0.7471411808306624,A,610.9952080005314,Correct,sub_012_day_02_data.csv,1,300,9.0,Training at home,,,,,,,,,,,,,
12,2,234,A,28.485404822767396,55.597658374744285,1.42427024113837,0.8733259755344585,A,484.15324999950826,Correct,sub_012_day_02_data.csv,1,300,9.0,Training at home,,,,,,,,,,,,,
12,2,235,B,73.7177130179408,50.79948801222713,3.68588565089704,0.7979564917266774,B,707.3378740169574,Correct,sub_012_day_02_data.csv,1,300,9.0,Training at home,,,,,,,,,,,,,
12,2,236,B,63.34669520640085,53.7363592565889,3.167334760320043,0.8440887573558078,B,516.3296670070849,Correct,sub_012_day_02_data.csv,1,300,9.0,Training at home,,,,,,,,,,,,,
12,2,237,A,33.92491788221179,57.39180763792186,1.6962458941105891,0.9015084062576696,A,818.3864159800578,Correct,sub_012_day_02_data.csv,1,300,9.0,Training at home,,,,,,,,,,,,,
12,2,238,A,20.19631772810194,47.0718081488755,1.009815886405097,0.739402233358477,A,612.9745829966851,Correct,sub_012_day_02_data.csv,1,300,9.0,Training at home,,,,,,,,,,,,,
12,2,239,A,55.3076270602281,76.42116713424419,2.765381353011405,1.2004208862384964,A,834.8574579868,Correct,sub_012_day_02_data.csv,1,300,9.0,Training at home,,,,,,,,,,,,,
12,2,240,A,29.3802455495578,50.11526535286996,1.46901227747789,0.7872087473263968,A,561.2292499863543,Correct,sub_012_day_02_data.csv,1,300,9.0,Training at home,,,,,,,,,,,,,
12,2,241,B,38.648234542828035,26.862238975590454,1.932411727141402,0.421951063123442,A,610.5550419888459,Incorrect,sub_012_day_02_data.csv,0,300,9.0,Training at home,,,,,,,,,,,,,
12,2,242,A,19.101924832336874,39.697040168972606,0.9550962416168436,0.6235596488205163,A,565.5518329876941,Correct,sub_012_day_02_data.csv,1,300,9.0,Training at home,,,,,,,,,,,,,
12,2,243,A,66.42581548463144,88.27431550833963,3.3212907742315725,1.3866097055083366,B,680.6452920136508,Incorrect,sub_012_day_02_data.csv,0,300,9.0,Training at home,,,,,,,,,,,,,
12,2,244,B,58.93535387106791,39.04392999528531,2.9467676935533955,0.6133006182023124,B,693.4104999818373,Correct,sub_012_day_02_data.csv,1,300,9.0,Training at home,,,,,,,,,,,,,
12,2,245,B,87.26127322275465,60.56594310605185,4.3630636611377325,0.9513676095985492,B,564.7958329936955,Correct,sub_012_day_02_data.csv,1,300,9.0,Training at home,,,,,,,,,,,,,
12,2,246,A,51.35308714762731,73.17141047657104,2.5676543573813655,1.149373828029994,B,680.1725419936702,Incorrect,sub_012_day_02_data.csv,0,300,9.0,Training at home,,,,,,,,,,,,,
12,2,247,A,29.02238568667076,59.187580964914886,1.451119284333538,0.9297163477156384,A,521.6917910147458,Correct,sub_012_day_02_data.csv,1,300,9.0,Training at home,,,,,,,,,,,,,
12,2,248,A,55.46088963540678,76.0993787946539,2.7730444817703392,1.195366246820158,A,1399.119540990796,Correct,sub_012_day_02_data.csv,1,300,9.0,Training at home,,,,,,,,,,,,,
12,2,249,B,38.35250029980239,13.611350186893436,1.9176250149901193,0.2138065887629124,A,630.0245410238858,Incorrect,sub_012_day_02_data.csv,0,300,9.0,Training at home,,,,,,,,,,,,,
12,2,250,A,13.169941490678053,40.23937865608536,0.6584970745339027,0.6320786818548785,A,625.3965829964727,Correct,sub_012_day_02_data.csv,1,300,10.0,Training at home,,,,,,,,,,,,,
12,2,251,A,40.254218326307786,49.57321080017008,2.012710916315389,0.7786941743233625,A,579.2716669966467,Correct,sub_012_day_02_data.csv,1,300,10.0,Training at home,,,,,,,,,,,,,
12,2,252,B,69.93304172267462,43.92842247663441,3.4966520861337305,0.6900260466819169,B,2334.412332973443,Correct,sub_012_day_02_data.csv,1,300,10.0,Training at home,,,,,,,,,,,,,
12,2,253,B,57.39631142809467,39.37716312698333,2.8698155714047333,0.6185350319946886,B,527.9057080042548,Correct,sub_012_day_02_data.csv,1,300,10.0,Training at home,,,,,,,,,,,,,
12,2,254,A,39.61625670084908,54.153435988114865,1.980812835042454,0.8506401833345337,A,883.174415997928,Correct,sub_012_day_02_data.csv,1,300,10.0,Training at home,,,,,,,,,,,,,
12,2,255,B,73.68186771193366,51.09735386039762,3.684093385596683,0.8026353575285161,B,761.4285830059089,Correct,sub_012_day_02_data.csv,1,300,10.0,Training at home,,,,,,,,,,,,,
12,2,256,A,41.30362053631468,66.78342198954037,2.065181026815734,1.0490315395196357,A,1488.5964580171276,Correct,sub_012_day_02_data.csv,1,300,10.0,Training at home,,,,,,,,,,,,,
12,2,257,A,58.64561231133773,75.93878682015877,2.932280615566887,1.1928436739836612,A,543.7125420139637,Correct,sub_012_day_02_data.csv,1,300,10.0,Training at home,,,,,,,,,,,,,
12,2,258,B,47.62596085572609,37.678405312288405,2.3812980427863044,0.5918510066403194,B,642.3138739774004,Correct,sub_012_day_02_data.csv,1,300,10.0,Training at home,,,,,,,,,,,,,
12,2,259,A,12.301665795253555,32.02139955475896,0.6150832897626778,0.5029909679944711,A,541.4048329985235,Correct,sub_012_day_02_data.csv,1,300,10.0,Training at home,,,,,,,,,,,,,
12,2,260,B,71.05690038613244,51.92453371859093,3.552845019306622,0.8156286683570039,B,892.4680420022923,Correct,sub_012_day_02_data.csv,1,300,10.0,Training at home,,,,,,,,,,,,,
12,2,261,B,67.79851732477171,35.85363126324927,3.389925866238585,0.5631875229057062,B,777.8654160210863,Correct,sub_012_day_02_data.csv,1,300,10.0,Training at home,,,,,,,,,,,,,
12,2,262,A,27.475227464920387,45.481957073951094,1.3737613732460192,0.7144289110720554,A,16664.35912498855,Correct,sub_012_day_02_data.csv,1,300,10.0,Training at home,,,,,,,,,,,,,
12,2,263,B,82.27948313738952,61.171061220203505,4.113974156869476,0.960872782708414,B,542.4594989744946,Correct,sub_012_day_02_data.csv,1,300,10.0,Training at home,,,,,,,,,,,,,
12,2,264,A,62.23920676009192,75.5468061032642,3.1119603380045957,1.1866864552809369,B,938.156498974422,Incorrect,sub_012_day_02_data.csv,0,300,10.0,Training at home,,,,,,,,,,,,,
12,2,265,A,35.84760778244151,51.356577407206814,1.7923803891220755,0.8067072314799824,A,765.4094159952365,Correct,sub_012_day_02_data.csv,1,300,10.0,Training at home,,,,,,,,,,,,,
12,2,266,A,28.734829049749504,40.009720202267935,1.436741452487475,0.6284712152981403,A,699.4515410042368,Correct,sub_012_day_02_data.csv,1,300,10.0,Training at home,,,,,,,,,,,,,
12,2,267,B,66.83286256589679,43.04099988698348,3.3416431282948396,0.6760864452405321,B,830.4679160064552,Correct,sub_012_day_02_data.csv,1,300,10.0,Training at home,,,,,,,,,,,,,
12,2,268,B,38.190803178328,19.564355816441935,1.9095401589164,0.3073161825257536,A,1024.9746250046885,Incorrect,sub_012_day_02_data.csv,0,300,10.0,Training at home,,,,,,,,,,,,,
12,2,269,B,42.17312440671368,29.19870101576431,2.108656220335684,0.4586521230274499,A,5607.0105000108015,Incorrect,sub_012_day_02_data.csv,0,300,10.0,Training at home,,,,,,,,,,,,,
12,2,270,A,30.67535288151869,39.846956538916785,1.5337676440759345,0.6259145296528638,A,1998.576125013642,Correct,sub_012_day_02_data.csv,1,300,10.0,Training at home,,,,,,,,,,,,,
12,2,271,A,45.16525290760727,70.63717894653857,2.2582626453803636,1.109566212243766,B,2096.242125000572,Incorrect,sub_012_day_02_data.csv,0,300,10.0,Training at home,,,,,,,,,,,,,
12,2,272,B,45.99077864463602,20.416891791729597,2.299538932231801,0.3207077863101772,A,654.3372919841204,Incorrect,sub_012_day_02_data.csv,0,300,10.0,Training at home,,,,,,,,,,,,,
12,2,273,B,70.77507254511781,39.88992867676706,3.5387536272558906,0.626589534415761,B,676.8700409738813,Correct,sub_012_day_02_data.csv,1,300,10.0,Training at home,,,,,,,,,,,,,
12,2,274,A,55.9224499278437,78.74248593202822,2.7961224963921847,1.2368840766472875,A,846.4060830010567,Correct,sub_012_day_02_data.csv,1,300,10.0,Training at home,,,,,,,,,,,,,
12,2,275,B,33.301085181927974,19.09503521799391,1.6650542590963988,0.2999441118044403,A,2056.724499998382,Incorrect,sub_012_day_02_data.csv,0,300,11.0,Training at home,,,,,,,,,,,,,
12,2,276,A,52.850775270320106,74.4666156994549,2.642538763516005,1.1697188640955094,B,1017.0442080125212,Incorrect,sub_012_day_02_data.csv,0,300,11.0,Training at home,,,,,,,,,,,,,
12,2,277,B,57.60434755778618,42.51479095689013,2.8802173778893088,0.667820774695359,A,821.2464160169475,Incorrect,sub_012_day_02_data.csv,0,300,11.0,Training at home,,,,,,,,,,,,,
12,2,278,A,21.405062568882514,40.400923600211115,1.0702531284441257,0.6346162239033286,A,668.6153330083471,Correct,sub_012_day_02_data.csv,1,300,11.0,Training at home,,,,,,,,,,,,,
12,2,279,A,46.528162047089296,70.16931280030512,2.3264081023544647,1.102216988004414,B,1624.7018330032006,Incorrect,sub_012_day_02_data.csv,0,300,11.0,Training at home,,,,,,,,,,,,,
12,2,280,B,64.51569770584908,53.430539745367575,3.225784885292454,0.8392849557069212,A,1545.1764579920564,Incorrect,sub_012_day_02_data.csv,0,300,11.0,Training at home,,,,,,,,,,,,,
12,2,281,A,48.56958942564955,79.4931812107339,2.4284794712824778,1.248675970510619,A,698.4165830072016,Correct,sub_012_day_02_data.csv,1,300,11.0,Training at home,,,,,,,,,,,,,
12,2,282,B,68.11058243670539,38.4163009709433,3.4055291218352695,0.6034418445420494,B,816.001207975205,Correct,sub_012_day_02_data.csv,1,300,11.0,Training at home,,,,,,,,,,,,,
12,2,283,A,26.869020683365555,57.63258984804365,1.343451034168278,0.905290604369838,A,820.3941250103526,Correct,sub_012_day_02_data.csv,1,300,11.0,Training at home,,,,,,,,,,,,,
12,2,284,B,30.851220270461585,15.78441489513395,1.5425610135230792,0.2479410093788305,A,2482.429499999853,Incorrect,sub_012_day_02_data.csv,0,300,11.0,Training at home,,,,,,,,,,,,,
12,2,285,A,25.746992877289372,41.067838566378626,1.2873496438644685,0.6450920996947335,A,565.1351250126027,Correct,sub_012_day_02_data.csv,1,300,11.0,Training at home,,,,,,,,,,,,,
12,2,286,B,42.8773040918709,24.800109640795476,2.1438652045935447,0.3895592112787223,A,1958.950415981235,Incorrect,sub_012_day_02_data.csv,0,300,11.0,Training at home,,,,,,,,,,,,,
12,2,287,B,67.12736542460948,46.88281885378117,3.356368271230474,0.7364335964530999,B,787.7831250079907,Correct,sub_012_day_02_data.csv,1,300,11.0,Training at home,,,,,,,,,,,,,
12,2,288,B,30.711082828737037,11.404503918661312,1.535554141436852,0.1791415286435119,A,658.8698329869658,Incorrect,sub_012_day_02_data.csv,0,300,11.0,Training at home,,,,,,,,,,,,,
12,2,289,B,76.90670568819763,46.199499484179704,3.845335284409882,0.725700040895122,B,686.6382499865722,Correct,sub_012_day_02_data.csv,1,300,11.0,Training at home,,,,,,,,,,,,,
12,2,290,A,57.457717884929195,66.686870485699,2.8728858942464597,1.04751491204383,B,1495.49220802146,Incorrect,sub_012_day_02_data.csv,0,300,11.0,Training at home,,,,,,,,,,,,,
12,2,291,B,57.12039323255586,48.97384220255095,2.8560196616277933,0.7692793144079991,B,1411.0248330107424,Correct,sub_012_day_02_data.csv,1,300,11.0,Training at home,,,,,,,,,,,,,
12,2,292,B,65.53294593165019,39.18384879483093,3.2766472965825097,0.6154984575660706,B,459.32799999718554,Correct,sub_012_day_02_data.csv,1,300,11.0,Training at home,,,,,,,,,,,,,
12,2,293,B,50.66969150372037,26.39778220181378,2.5334845751860184,0.4146553931814078,A,807.4592080083676,Incorrect,sub_012_day_02_data.csv,0,300,11.0,Training at home,,,,,,,,,,,,,
12,2,294,B,50.77461308710116,38.76586408417612,2.538730654355058,0.6089327690845406,A,3687.172167003155,Incorrect,sub_012_day_02_data.csv,0,300,11.0,Training at home,,,,,,,,,,,,,
12,2,295,A,25.22087877322889,54.546187775173046,1.2610439386614445,0.856809513979065,B,2262.4628330231644,Incorrect,sub_012_day_02_data.csv,0,300,11.0,Training at home,,,,,,,,,,,,,
12,2,296,A,46.58445870457803,57.58162940715858,2.3292229352289016,0.904490119636297,B,1595.6230419978965,Incorrect,sub_012_day_02_data.csv,0,300,11.0,Training at home,,,,,,,,,,,,,
12,2,297,A,51.311312912704025,71.2966943497063,2.565565645635201,1.119925855971371,A,706.4597909920849,Correct,sub_012_day_02_data.csv,1,300,11.0,Training at home,,,,,,,,,,,,,
12,2,298,A,39.820682470077315,71.15572016214885,1.9910341235038655,1.11771143861149,B,1797.3759160086047,Incorrect,sub_012_day_02_data.csv,0,300,11.0,Training at home,,,,,,,,,,,,,
12,2,299,B,35.860882570015015,12.71744165182974,1.7930441285007506,0.1997651063292258,A,748.0220830184408,Incorrect,sub_012_day_02_data.csv,0,300,11.0,Training at home,,,,,,,,,,,,,
