subject,day,trial,cat,x,y,xt,yt,resp,rt,fb,f_name,acc,n_trials,block,session_type,ns_left_digit,ns_right_digit,ns_left_size,ns_right_size,ns_congruent,ns_cue,ns_correct_side,ns_resp,ns_rt,ns_fb,acc_stroop,acc_stroop_mean,resp_key
12,15,3300,B,59.30144044283123,46.30332254256544,2.9650720221415616,0.7273308896826112,B,887.5645829830319,Correct,sub_012_day_15_data.csv,1,300,132.0,Training at home,,,,,,,,,,,,,
12,15,3301,B,44.61420376317309,26.6800078733213,2.230710188158654,0.4190885836627202,B,835.117040987825,Correct,sub_012_day_15_data.csv,1,300,132.0,Training at home,,,,,,,,,,,,,
12,15,3302,B,44.45025597617274,27.720044834557996,2.222512798808637,0.4354254460471354,B,525.0285000074655,Correct,sub_012_day_15_data.csv,1,300,132.0,Training at home,,,,,,,,,,,,,
12,15,3303,B,71.5628667253895,60.75958934586065,3.578143336269475,0.9544093976204422,A,909.0155830199363,Incorrect,sub_012_day_15_data.csv,0,300,132.0,Training at home,,,,,,,,,,,,,
12,15,3304,A,43.91137340270893,71.63285529546104,2.1955686701354464,1.1252062597594057,A,579.7944160003681,Correct,sub_012_day_15_data.csv,1,300,132.0,Training at home,,,,,,,,,,,,,
12,15,3305,A,50.10226978846691,66.9303847614802,2.5051134894233456,1.051340025343022,A,495.02074901829474,Correct,sub_012_day_15_data.csv,1,300,132.0,Training at home,,,,,,,,,,,,,
12,15,3306,A,36.14837943287673,64.1888737283022,1.8074189716438367,1.0082764707351852,A,463.0501659994479,Correct,sub_012_day_15_data.csv,1,300,132.0,Training at home,,,,,,,,,,,,,
12,15,3307,A,33.734221494240614,47.80325011670357,1.6867110747120306,0.750891696921757,A,757.23512400873,Correct,sub_012_day_15_data.csv,1,300,132.0,Training at home,,,,,,,,,,,,,
12,15,3308,B,72.65873973285079,44.50124243482843,3.632936986642539,0.6990238815443768,B,445.7156659918837,Correct,sub_012_day_15_data.csv,1,300,132.0,Training at home,,,,,,,,,,,,,
12,15,3309,B,44.54544628912705,36.024947172245874,2.2272723144563527,0.5658785469114401,B,602.983500022674,Correct,sub_012_day_15_data.csv,1,300,132.0,Training at home,,,,,,,,,,,,,
12,15,3310,B,71.12342464147383,40.48505070125994,3.556171232073692,0.6359376893164427,B,425.7872909947764,Correct,sub_012_day_15_data.csv,1,300,132.0,Training at home,,,,,,,,,,,,,
12,15,3311,B,77.08561105620672,47.78784704797497,3.854280552810336,0.7506497460839543,B,425.4155410162639,Correct,sub_012_day_15_data.csv,1,300,132.0,Training at home,,,,,,,,,,,,,
12,15,3312,B,57.95001520129415,32.5476757761945,2.8975007600647076,0.5112576955495756,B,395.066166005563,Correct,sub_012_day_15_data.csv,1,300,132.0,Training at home,,,,,,,,,,,,,
12,15,3313,B,40.88599319280054,28.446300196992,2.0442996596400267,0.4468334386033997,B,496.091000008164,Correct,sub_012_day_15_data.csv,1,300,132.0,Training at home,,,,,,,,,,,,,
12,15,3314,B,53.46757192298568,26.281060011180827,2.6733785961492837,0.4128219252983908,B,463.4883330145385,Correct,sub_012_day_15_data.csv,1,300,132.0,Training at home,,,,,,,,,,,,,
12,15,3315,B,61.392161875611066,32.32947276684022,3.069608093780553,0.5078301706936825,B,450.8437500044238,Correct,sub_012_day_15_data.csv,1,300,132.0,Training at home,,,,,,,,,,,,,
12,15,3316,A,35.48386560287295,54.171884893848286,1.7741932801436475,0.8509299780681284,A,522.9933750233613,Correct,sub_012_day_15_data.csv,1,300,132.0,Training at home,,,,,,,,,,,,,
12,15,3317,B,40.09957664030536,30.745229582068394,2.004978832015268,0.4829449369397883,B,444.1529580217321,Correct,sub_012_day_15_data.csv,1,300,132.0,Training at home,,,,,,,,,,,,,
12,15,3318,A,19.349809527709784,39.32905207693575,0.9674904763854892,0.6177793053877588,A,502.4951249943115,Correct,sub_012_day_15_data.csv,1,300,132.0,Training at home,,,,,,,,,,,,,
12,15,3319,A,52.659406160102975,65.5490486784307,2.632970308005149,1.029642048889788,A,732.466999994358,Correct,sub_012_day_15_data.csv,1,300,132.0,Training at home,,,,,,,,,,,,,
12,15,3320,B,68.97717009410508,57.494900078309335,3.448858504705254,0.9031277785244792,B,497.126998991007,Correct,sub_012_day_15_data.csv,1,300,132.0,Training at home,,,,,,,,,,,,,
12,15,3321,A,56.13080117534753,77.8324537569893,2.8065400587673763,1.2225893246691244,A,613.077667017933,Correct,sub_012_day_15_data.csv,1,300,132.0,Training at home,,,,,,,,,,,,,
12,15,3322,A,60.43249823886926,80.01886922683599,3.0216249119434626,1.2569334585579517,A,525.8064990048297,Correct,sub_012_day_15_data.csv,1,300,132.0,Training at home,,,,,,,,,,,,,
12,15,3323,B,59.3271873781258,31.04359229464178,2.96635936890629,0.4876316074694166,B,472.4651240103413,Correct,sub_012_day_15_data.csv,1,300,132.0,Training at home,,,,,,,,,,,,,
12,15,3324,A,59.990050701902,79.4391000250249,2.9995025350951,1.2478264652320148,A,493.9655420021154,Correct,sub_012_day_15_data.csv,1,300,132.0,Training at home,,,,,,,,,,,,,
12,15,3325,B,34.71489545733505,17.49804082903373,1.7357447728667523,0.2748585826035331,B,451.02979100192897,Correct,sub_012_day_15_data.csv,1,300,133.0,Training at home,,,,,,,,,,,,,
12,15,3326,A,42.35926767417081,72.33551740730857,2.1179633837085405,1.136243650402086,A,504.71033301437274,Correct,sub_012_day_15_data.csv,1,300,133.0,Training at home,,,,,,,,,,,,,
12,15,3327,B,50.537098751572245,32.42103508854063,2.526854937578612,0.5092684282796807,B,500.0301250256598,Correct,sub_012_day_15_data.csv,1,300,133.0,Training at home,,,,,,,,,,,,,
12,15,3328,A,43.26934875909151,50.78361424590015,2.1634674379545755,0.7977071471882893,A,461.4947910013143,Correct,sub_012_day_15_data.csv,1,300,133.0,Training at home,,,,,,,,,,,,,
12,15,3329,B,76.15155039649669,61.260579213403176,3.8075775198248345,0.962278928057415,A,556.7315410007723,Incorrect,sub_012_day_15_data.csv,0,300,133.0,Training at home,,,,,,,,,,,,,
12,15,3330,A,33.66125119912769,47.53512182119361,1.6830625599563844,0.7466799475047885,A,514.4373750081286,Correct,sub_012_day_15_data.csv,1,300,133.0,Training at home,,,,,,,,,,,,,
12,15,3331,B,38.68685863133473,27.543123496577408,1.9343429315667364,0.43264637216882,B,475.50916598993354,Correct,sub_012_day_15_data.csv,1,300,133.0,Training at home,,,,,,,,,,,,,
12,15,3332,A,51.82975796177226,62.06776796452323,2.591487898088613,0.9749582193103103,A,519.1094579931814,Correct,sub_012_day_15_data.csv,1,300,133.0,Training at home,,,,,,,,,,,,,
12,15,3333,B,43.13337200715853,22.46880168563081,2.1566686003579263,0.3529391115527186,B,526.0229159903247,Correct,sub_012_day_15_data.csv,1,300,133.0,Training at home,,,,,,,,,,,,,
12,15,3334,B,85.95622601131916,62.75984955359789,4.297811300565957,0.9858294114899188,B,542.6137910108082,Correct,sub_012_day_15_data.csv,1,300,133.0,Training at home,,,,,,,,,,,,,
12,15,3335,A,36.49387884180729,50.64815383571581,1.8246939420903645,0.7955793400408524,A,419.3571250070818,Correct,sub_012_day_15_data.csv,1,300,133.0,Training at home,,,,,,,,,,,,,
12,15,3336,A,50.19950521120252,63.45462150723673,2.5099752605601258,0.996742863817279,A,509.4296250026673,Correct,sub_012_day_15_data.csv,1,300,133.0,Training at home,,,,,,,,,,,,,
12,15,3337,B,36.47176632220866,19.602513728937748,1.823588316110433,0.3079155656136194,B,472.41962401312776,Correct,sub_012_day_15_data.csv,1,300,133.0,Training at home,,,,,,,,,,,,,
12,15,3338,A,16.277446266300117,42.12014416262312,0.8138723133150059,0.661621677347199,A,449.8399989970494,Correct,sub_012_day_15_data.csv,1,300,133.0,Training at home,,,,,,,,,,,,,
12,15,3339,B,68.24713706962207,35.40822156169223,3.4123568534811035,0.5561910436744602,B,515.5699170136359,Correct,sub_012_day_15_data.csv,1,300,133.0,Training at home,,,,,,,,,,,,,
12,15,3340,B,89.18589684727833,68.57951219630142,4.459294842363916,1.0772444585133607,B,575.5158750107512,Correct,sub_012_day_15_data.csv,1,300,133.0,Training at home,,,,,,,,,,,,,
12,15,3341,B,76.5556135958865,59.02363986317921,3.827780679794325,0.9271411669114672,B,435.35979100852273,Correct,sub_012_day_15_data.csv,1,300,133.0,Training at home,,,,,,,,,,,,,
12,15,3342,A,24.991036029143196,38.85884470067212,1.2495518014571598,0.6103933051930911,A,995.6633749825414,Correct,sub_012_day_15_data.csv,1,300,133.0,Training at home,,,,,,,,,,,,,
12,15,3343,A,45.08402487934568,66.60080456964867,2.254201243967284,1.046162991795889,A,494.0002080111298,Correct,sub_012_day_15_data.csv,1,300,133.0,Training at home,,,,,,,,,,,,,
12,15,3344,A,63.05484976676381,81.00699575074722,3.1527424883381907,1.2724549136996353,A,525.3969990008045,Correct,sub_012_day_15_data.csv,1,300,133.0,Training at home,,,,,,,,,,,,,
12,15,3345,A,60.6258697076759,75.44459325644956,3.031293485383795,1.1850808996376598,A,677.7475410199258,Correct,sub_012_day_15_data.csv,1,300,133.0,Training at home,,,,,,,,,,,,,
12,15,3346,B,53.09795384043174,28.081146452829433,2.6548976920215868,0.4410976170029401,B,510.73049899423495,Correct,sub_012_day_15_data.csv,1,300,133.0,Training at home,,,,,,,,,,,,,
12,15,3347,A,55.70853148569572,74.39467912100434,2.785426574284786,1.168588886963586,A,464.0351239941083,Correct,sub_012_day_15_data.csv,1,300,133.0,Training at home,,,,,,,,,,,,,
12,15,3348,B,75.4066073910858,53.125047852048,3.77033036955429,0.834486300268001,B,565.8479159756098,Correct,sub_012_day_15_data.csv,1,300,133.0,Training at home,,,,,,,,,,,,,
12,15,3349,B,56.89776057521594,43.0481757405842,2.8448880287607974,0.6761991632853084,B,511.0213739972096,Correct,sub_012_day_15_data.csv,1,300,133.0,Training at home,,,,,,,,,,,,,
12,15,3350,A,35.334986126082654,66.2676127780612,1.7667493063041326,1.0409292273724509,A,802.7327079907991,Correct,sub_012_day_15_data.csv,1,300,134.0,Training at home,,,,,,,,,,,,,
12,15,3351,A,21.32961149647521,52.42247786266987,1.0664805748237605,0.8234503566816861,A,449.9947079748381,Correct,sub_012_day_15_data.csv,1,300,134.0,Training at home,,,,,,,,,,,,,
12,15,3352,A,14.3774687316321,40.780797849048824,0.7188734365816049,0.6405832746505111,A,523.569957993459,Correct,sub_012_day_15_data.csv,1,300,134.0,Training at home,,,,,,,,,,,,,
12,15,3353,A,45.84559516454957,72.2612193855341,2.2922797582274783,1.1350765798051712,A,545.4859999881592,Correct,sub_012_day_15_data.csv,1,300,134.0,Training at home,,,,,,,,,,,,,
12,15,3354,A,43.074870789565416,72.58982155419385,2.153743539478271,1.1402382506002469,A,477.9491660010535,Correct,sub_012_day_15_data.csv,1,300,134.0,Training at home,,,,,,,,,,,,,
12,15,3355,B,69.11209999430532,42.31864420049015,3.4556049997152662,0.6647397086507009,B,472.4944579938892,Correct,sub_012_day_15_data.csv,1,300,134.0,Training at home,,,,,,,,,,,,,
12,15,3356,B,61.959174079707466,29.28278069659727,3.0979587039853733,0.4599728435655549,B,566.7232080013491,Correct,sub_012_day_15_data.csv,1,300,134.0,Training at home,,,,,,,,,,,,,
12,15,3357,B,43.382585972290926,26.14553487436879,2.1691292986145463,0.4106931014274636,B,536.6188750194851,Correct,sub_012_day_15_data.csv,1,300,134.0,Training at home,,,,,,,,,,,,,
12,15,3358,B,56.30399735919957,47.684408788313235,2.8151998679599783,0.7490249417006871,B,654.0043330169283,Correct,sub_012_day_15_data.csv,1,300,134.0,Training at home,,,,,,,,,,,,,
12,15,3359,A,52.465656721741,67.53280777345526,2.6232828360870495,1.0608028638868936,A,594.2005410033744,Correct,sub_012_day_15_data.csv,1,300,134.0,Training at home,,,,,,,,,,,,,
12,15,3360,B,69.12098614963135,52.121951302025934,3.4560493074815675,0.8187296965060481,B,567.0500409905799,Correct,sub_012_day_15_data.csv,1,300,134.0,Training at home,,,,,,,,,,,,,
12,15,3361,B,48.09285827601364,18.753234933051147,2.4046429138006817,0.2945751254835847,B,498.235165985534,Correct,sub_012_day_15_data.csv,1,300,134.0,Training at home,,,,,,,,,,,,,
12,15,3362,B,68.68141696019288,42.06223245457643,3.434070848009644,0.6607120023644174,B,434.8252489871811,Correct,sub_012_day_15_data.csv,1,300,134.0,Training at home,,,,,,,,,,,,,
12,15,3363,A,52.11209505992531,70.76752781431966,2.605604752996266,1.11161372747089,A,506.6342919890303,Correct,sub_012_day_15_data.csv,1,300,134.0,Training at home,,,,,,,,,,,,,
12,15,3364,A,31.0804131646336,41.69272091243765,1.5540206582316802,0.6549077286334183,A,677.6059170078952,Correct,sub_012_day_15_data.csv,1,300,134.0,Training at home,,,,,,,,,,,,,
12,15,3365,A,63.92425311193955,78.81137153880901,3.1962126555969776,1.2379661292282906,A,481.8505000148434,Correct,sub_012_day_15_data.csv,1,300,134.0,Training at home,,,,,,,,,,,,,
12,15,3366,A,52.16071579633109,73.51509394190806,2.6080357898165545,1.1547723952793092,A,483.10179097461514,Correct,sub_012_day_15_data.csv,1,300,134.0,Training at home,,,,,,,,,,,,,
12,15,3367,B,79.40012020187159,51.0274116438665,3.970006010093579,0.8015367077603662,B,519.4325830088928,Correct,sub_012_day_15_data.csv,1,300,134.0,Training at home,,,,,,,,,,,,,
12,15,3368,A,25.658067009982275,49.740589610672544,1.282903350499114,0.7813233545305683,A,462.5283329805825,Correct,sub_012_day_15_data.csv,1,300,134.0,Training at home,,,,,,,,,,,,,
12,15,3369,B,88.04248216858178,63.07839161639147,4.402124108429089,0.9908330585115772,B,499.25145800807513,Correct,sub_012_day_15_data.csv,1,300,134.0,Training at home,,,,,,,,,,,,,
12,15,3370,A,37.59228175360048,51.95047873136681,1.879614087680024,0.8160362116646738,A,477.9540410090703,Correct,sub_012_day_15_data.csv,1,300,134.0,Training at home,,,,,,,,,,,,,
12,15,3371,B,53.766903486244,32.05850637934772,2.6883451743122,0.5035738406321015,B,457.91349999490194,Correct,sub_012_day_15_data.csv,1,300,134.0,Training at home,,,,,,,,,,,,,
12,15,3372,A,57.42840403490952,66.64501275565769,2.871420201745476,1.0468574123578611,A,528.1139169819653,Correct,sub_012_day_15_data.csv,1,300,134.0,Training at home,,,,,,,,,,,,,
12,15,3373,A,32.50019288481649,55.83394092584085,1.6250096442408246,0.8770374931679407,A,511.7597500211559,Correct,sub_012_day_15_data.csv,1,300,134.0,Training at home,,,,,,,,,,,,,
12,15,3374,A,52.58218146325936,76.9314657207866,2.629109073162968,1.208436637691591,A,442.7509169909172,Correct,sub_012_day_15_data.csv,1,300,134.0,Training at home,,,,,,,,,,,,,
12,15,3375,A,20.267419933186392,51.49143736527993,1.0133709966593196,0.8088256067477119,A,470.5332909943536,Correct,sub_012_day_15_data.csv,1,300,135.0,Training at home,,,,,,,,,,,,,
12,15,3376,A,37.173811657997504,47.86697859495301,1.8586905828998752,0.7518927415172212,A,556.413916987367,Correct,sub_012_day_15_data.csv,1,300,135.0,Training at home,,,,,,,,,,,,,
12,15,3377,A,14.354155077304297,31.04749260554933,0.7177077538652148,0.487692873409886,A,464.8713330097962,Correct,sub_012_day_15_data.csv,1,300,135.0,Training at home,,,,,,,,,,,,,
12,15,3378,B,60.13406009782514,45.876887323252674,3.0067030048912566,0.7206324609214865,B,683.2986660010647,Correct,sub_012_day_15_data.csv,1,300,135.0,Training at home,,,,,,,,,,,,,
12,15,3379,A,22.615021081219695,43.317055763903035,1.1307510540609849,0.6804227208150859,A,485.04558301647194,Correct,sub_012_day_15_data.csv,1,300,135.0,Training at home,,,,,,,,,,,,,
12,15,3380,A,14.571531767693934,43.2155449949633,0.7285765883846966,0.6788281933852793,A,423.4215829928871,Correct,sub_012_day_15_data.csv,1,300,135.0,Training at home,,,,,,,,,,,,,
12,15,3381,A,53.9452481331705,82.4486400574916,2.6972624066585253,1.2951002095154238,A,527.2321660013404,Correct,sub_012_day_15_data.csv,1,300,135.0,Training at home,,,,,,,,,,,,,
12,15,3382,B,51.13021861554938,28.586582565733416,2.556510930777469,0.4490369888987308,B,424.42208298598416,Correct,sub_012_day_15_data.csv,1,300,135.0,Training at home,,,,,,,,,,,,,
12,15,3383,A,66.50626339848182,87.99458020241156,3.3253131699240908,1.3822156335980698,A,659.0787080058362,Correct,sub_012_day_15_data.csv,1,300,135.0,Training at home,,,,,,,,,,,,,
12,15,3384,B,58.51342116534297,31.39878493991548,2.9256710582671484,0.4932109604944215,B,395.00104199396446,Correct,sub_012_day_15_data.csv,1,300,135.0,Training at home,,,,,,,,,,,,,
12,15,3385,B,57.92928110246402,32.256930708433785,2.896464055123201,0.506690682704853,B,444.2122080072295,Correct,sub_012_day_15_data.csv,1,300,135.0,Training at home,,,,,,,,,,,,,
12,15,3386,A,28.230315450204504,47.2138466686014,1.4115157725102252,0.7416333692089654,A,485.01308300183155,Correct,sub_012_day_15_data.csv,1,300,135.0,Training at home,,,,,,,,,,,,,
12,15,3387,B,44.69450429998685,18.378591058591446,2.2347252149993424,0.2886902332650097,B,407.1354169864207,Correct,sub_012_day_15_data.csv,1,300,135.0,Training at home,,,,,,,,,,,,,
12,15,3388,A,31.855268648207584,41.085584688621694,1.5927634324103792,0.645370855131076,B,613.2289990200661,Incorrect,sub_012_day_15_data.csv,0,300,135.0,Training at home,,,,,,,,,,,,,
12,15,3389,A,33.619657232121924,59.03393061408095,1.6809828616060962,0.9273028136486314,A,489.4592920027208,Correct,sub_012_day_15_data.csv,1,300,135.0,Training at home,,,,,,,,,,,,,
12,15,3390,B,57.90566860937816,33.21680742718388,2.895283430468908,0.5217683909447388,B,463.4147910110187,Correct,sub_012_day_15_data.csv,1,300,135.0,Training at home,,,,,,,,,,,,,
12,15,3391,A,54.121133452731755,68.37031332468072,2.706056672636588,1.0739583703222464,A,866.8914579902776,Correct,sub_012_day_15_data.csv,1,300,135.0,Training at home,,,,,,,,,,,,,
12,15,3392,A,43.92626090097059,65.97412937216168,2.1963130450485293,1.0363192008128288,A,1106.0156669991557,Correct,sub_012_day_15_data.csv,1,300,135.0,Training at home,,,,,,,,,,,,,
12,15,3393,A,47.236204800875825,56.13554537163212,2.3618102400437913,0.8817750847238799,A,464.9428330012597,Correct,sub_012_day_15_data.csv,1,300,135.0,Training at home,,,,,,,,,,,,,
12,15,3394,A,47.729228964404975,76.13551909720891,2.3864614482202486,1.1959339373651847,A,604.0734580019489,Correct,sub_012_day_15_data.csv,1,300,135.0,Training at home,,,,,,,,,,,,,
12,15,3395,B,45.916394204242664,35.35501822471116,2.2958197102121334,0.555355327611429,B,1011.5558329853228,Correct,sub_012_day_15_data.csv,1,300,135.0,Training at home,,,,,,,,,,,,,
12,15,3396,B,62.11623333278087,54.40515551809885,3.1058116666390436,0.8545941844653477,B,475.8695409982465,Correct,sub_012_day_15_data.csv,1,300,135.0,Training at home,,,,,,,,,,,,,
12,15,3397,A,19.30836911904715,33.846574934092786,0.9654184559523574,0.5316607558106117,A,510.52333298139274,Correct,sub_012_day_15_data.csv,1,300,135.0,Training at home,,,,,,,,,,,,,
12,15,3398,B,74.73496009056072,43.3533248954097,3.736748004528036,0.680992435000553,B,440.7917499775067,Correct,sub_012_day_15_data.csv,1,300,135.0,Training at home,,,,,,,,,,,,,
12,15,3399,A,21.52758271418056,48.571144903974286,1.0763791357090282,0.7629537600338546,A,548.4679579967633,Correct,sub_012_day_15_data.csv,1,300,135.0,Training at home,,,,,,,,,,,,,
12,15,3400,B,35.452212575817434,24.0840981747475,1.7726106287908718,0.3783121294706104,B,486.8644160160329,Correct,sub_012_day_15_data.csv,1,300,136.0,Training at home,,,,,,,,,,,,,
12,15,3401,A,50.86325544207201,78.38806086542203,2.5431627721036008,1.231316780719797,A,439.3426660099067,Correct,sub_012_day_15_data.csv,1,300,136.0,Training at home,,,,,,,,,,,,,
12,15,3402,A,47.833946598156096,70.81116616342686,2.391697329907805,1.11229919705574,A,591.8083750002552,Correct,sub_012_day_15_data.csv,1,300,136.0,Training at home,,,,,,,,,,,,,
12,15,3403,B,51.06639504565007,34.52676449764842,2.5533197522825035,0.5423451484901858,B,658.2962079846766,Correct,sub_012_day_15_data.csv,1,300,136.0,Training at home,,,,,,,,,,,,,
12,15,3404,A,69.16639390865895,86.50456826000243,3.4583196954329476,1.3588105807379025,A,511.1026660015341,Correct,sub_012_day_15_data.csv,1,300,136.0,Training at home,,,,,,,,,,,,,
12,15,3405,A,32.99554850976521,55.62483477160178,1.6497774254882602,0.8737528613780512,A,556.977458007168,Correct,sub_012_day_15_data.csv,1,300,136.0,Training at home,,,,,,,,,,,,,
12,15,3406,A,56.40150921092635,74.39607960546688,2.8200754605463176,1.1686108857220812,A,546.6291249904316,Correct,sub_012_day_15_data.csv,1,300,136.0,Training at home,,,,,,,,,,,,,
12,15,3407,A,29.922575059613223,62.89438076545128,1.496128752980661,0.9879426228241046,A,524.0864169900306,Correct,sub_012_day_15_data.csv,1,300,136.0,Training at home,,,,,,,,,,,,,
12,15,3408,B,64.25586724779852,56.42639605089241,3.2127933623899256,0.8863437565101585,B,880.5313749762718,Correct,sub_012_day_15_data.csv,1,300,136.0,Training at home,,,,,,,,,,,,,
12,15,3409,A,45.096287265800584,61.506338642443474,2.2548143632900293,0.966139308141532,B,1298.182333004661,Incorrect,sub_012_day_15_data.csv,0,300,136.0,Training at home,,,,,,,,,,,,,
12,15,3410,B,65.15105906332771,57.4206468848037,3.2575529531663854,0.9019614120883648,B,1011.3571250112728,Correct,sub_012_day_15_data.csv,1,300,136.0,Training at home,,,,,,,,,,,,,
12,15,3411,A,47.81701216568485,65.04164435378395,2.390850608284242,1.0216717603962384,A,1306.8890830036253,Correct,sub_012_day_15_data.csv,1,300,136.0,Training at home,,,,,,,,,,,,,
12,15,3412,B,67.9978426065465,54.58977005069322,3.399892130327325,0.8574941027620696,B,1310.1284579897765,Correct,sub_012_day_15_data.csv,1,300,136.0,Training at home,,,,,,,,,,,,,
12,15,3413,B,35.06662287202683,12.763300717125446,1.7533311436013412,0.2004854588423932,B,1314.3894170061683,Correct,sub_012_day_15_data.csv,1,300,136.0,Training at home,,,,,,,,,,,,,
12,15,3414,B,62.8938040223862,54.266691677467904,3.14469020111931,0.8524191995427776,B,591.5807079873048,Correct,sub_012_day_15_data.csv,1,300,136.0,Training at home,,,,,,,,,,,,,
12,15,3415,A,27.19365401629473,60.095098187096774,1.3596827008147363,0.9439715949067028,A,904.9539160041604,Correct,sub_012_day_15_data.csv,1,300,136.0,Training at home,,,,,,,,,,,,,
12,15,3416,A,33.48558251126409,65.54196239469636,1.6742791255632046,1.0295307378051826,A,724.6704160061199,Correct,sub_012_day_15_data.csv,1,300,136.0,Training at home,,,,,,,,,,,,,
12,15,3417,B,85.03709143008514,69.65939299190539,4.251854571504257,1.0942071863844716,B,721.0207909811288,Correct,sub_012_day_15_data.csv,1,300,136.0,Training at home,,,,,,,,,,,,,
12,15,3418,B,69.07864069851156,43.27654548060735,3.453932034925578,0.6797863867731031,B,502.93245798093267,Correct,sub_012_day_15_data.csv,1,300,136.0,Training at home,,,,,,,,,,,,,
12,15,3419,A,39.76484104513692,47.01678283399168,1.9882420522568456,0.7385378977334748,A,2027.43124999688,Correct,sub_012_day_15_data.csv,1,300,136.0,Training at home,,,,,,,,,,,,,
12,15,3420,A,31.688145468967143,62.66989613694445,1.5844072734483572,0.9844164265253004,A,991.6538739926182,Correct,sub_012_day_15_data.csv,1,300,136.0,Training at home,,,,,,,,,,,,,
12,15,3421,A,63.2088108620473,79.34629997313716,3.160440543102365,1.2463687654256987,A,972.1472499950324,Correct,sub_012_day_15_data.csv,1,300,136.0,Training at home,,,,,,,,,,,,,
12,15,3422,A,22.41915277290387,51.496627460379784,1.1209576386451936,0.8089071325708976,A,612.3983330035117,Correct,sub_012_day_15_data.csv,1,300,136.0,Training at home,,,,,,,,,,,,,
12,15,3423,A,29.079713476078137,40.37353320943104,1.453985673803907,0.6341859766510605,A,523.1561250111554,Correct,sub_012_day_15_data.csv,1,300,136.0,Training at home,,,,,,,,,,,,,
12,15,3424,B,72.4118531202658,49.65586343831159,3.62059265601329,0.7799924789272885,B,2373.1608749949373,Correct,sub_012_day_15_data.csv,1,300,136.0,Training at home,,,,,,,,,,,,,
12,15,3425,A,24.918976342513616,39.34528113655813,1.2459488171256807,0.6180342308601805,A,728.7209579953924,Correct,sub_012_day_15_data.csv,1,300,137.0,Training at home,,,,,,,,,,,,,
12,15,3426,A,16.178758745880923,43.07002803323829,0.8089379372940462,0.6765424182956393,A,659.6166660019662,Correct,sub_012_day_15_data.csv,1,300,137.0,Training at home,,,,,,,,,,,,,
12,15,3427,A,20.522030012850426,51.40678538038384,1.0261015006425211,0.8074958964784051,A,1562.73695800337,Correct,sub_012_day_15_data.csv,1,300,137.0,Training at home,,,,,,,,,,,,,
12,15,3428,A,16.8446349072114,39.01280911397585,0.84223174536057,0.6128117725418373,A,510.41070799692534,Correct,sub_012_day_15_data.csv,1,300,137.0,Training at home,,,,,,,,,,,,,
12,15,3429,A,40.4307411379622,65.72301450466361,2.02153705689811,1.0323746976981332,A,1143.1325409794226,Correct,sub_012_day_15_data.csv,1,300,137.0,Training at home,,,,,,,,,,,,,
12,15,3430,B,54.64755346134854,39.26891135785785,2.7323776730674267,0.6168346171815752,B,1675.959165993845,Correct,sub_012_day_15_data.csv,1,300,137.0,Training at home,,,,,,,,,,,,,
12,15,3431,A,50.34194051353914,80.73909902607645,2.517097025676957,1.2682468017889028,A,1087.1115000045393,Correct,sub_012_day_15_data.csv,1,300,137.0,Training at home,,,,,,,,,,,,,
12,15,3432,A,39.374179927667846,67.58985109721678,1.9687089963833924,1.0616988983212212,A,444.66008301242255,Correct,sub_012_day_15_data.csv,1,300,137.0,Training at home,,,,,,,,,,,,,
12,15,3433,B,37.1783988045207,26.652202178699167,1.8589199402260348,0.4186518128329558,B,715.0072910008021,Correct,sub_012_day_15_data.csv,1,300,137.0,Training at home,,,,,,,,,,,,,
12,15,3434,A,29.99380150934109,46.67990081936186,1.4996900754670546,0.7332461674220371,A,916.5995829971508,Correct,sub_012_day_15_data.csv,1,300,137.0,Training at home,,,,,,,,,,,,,
12,15,3435,A,57.14198945627453,76.52060086878721,2.8570994728137267,1.2019827876882934,A,623.9942910033278,Correct,sub_012_day_15_data.csv,1,300,137.0,Training at home,,,,,,,,,,,,,
12,15,3436,B,58.061943523412914,50.78636563533619,2.9030971761706454,0.7977503659124865,B,1262.680999992881,Correct,sub_012_day_15_data.csv,1,300,137.0,Training at home,,,,,,,,,,,,,
12,15,3437,A,39.96141893960647,53.332667433422266,1.9980709469803233,0.8377475810259349,A,2066.2702079862356,Correct,sub_012_day_15_data.csv,1,300,137.0,Training at home,,,,,,,,,,,,,
12,15,3438,A,53.63233387328128,75.21635084804643,2.681616693664064,1.1814956762702755,A,1614.7959579830058,Correct,sub_012_day_15_data.csv,1,300,137.0,Training at home,,,,,,,,,,,,,
12,15,3439,A,47.63330119790033,74.77075228621317,2.3816650598950164,1.1744962304287476,A,916.710375022376,Correct,sub_012_day_15_data.csv,1,300,137.0,Training at home,,,,,,,,,,,,,
12,15,3440,A,17.889831395819034,41.63824685828933,0.8944915697909517,0.6540520521918002,A,535.3437080048025,Correct,sub_012_day_15_data.csv,1,300,137.0,Training at home,,,,,,,,,,,,,
12,15,3441,B,42.32097643873692,17.53885961089849,2.116048821936846,0.2754997625297072,B,1248.5091660055332,Correct,sub_012_day_15_data.csv,1,300,137.0,Training at home,,,,,,,,,,,,,
12,15,3442,A,62.93337293811477,84.97916246546134,3.1466686469057383,1.3348495625485344,A,520.1017500075977,Correct,sub_012_day_15_data.csv,1,300,137.0,Training at home,,,,,,,,,,,,,
12,15,3443,B,37.51995412563109,22.881742855957107,1.8759977062815545,0.3594255762880278,B,848.7016239960212,Correct,sub_012_day_15_data.csv,1,300,137.0,Training at home,,,,,,,,,,,,,
12,15,3444,B,73.02443289414757,42.765006053578915,3.651221644707378,0.6717511442432327,B,1728.0275830125902,Correct,sub_012_day_15_data.csv,1,300,137.0,Training at home,,,,,,,,,,,,,
12,15,3445,B,48.297361849196456,32.43065829716758,2.4148680924598227,0.5094195892873127,B,1509.0685420145746,Correct,sub_012_day_15_data.csv,1,300,137.0,Training at home,,,,,,,,,,,,,
12,15,3446,A,43.457102032338426,54.12003499450188,2.1728551016169213,0.8501155217537482,A,2849.9429159855936,Correct,sub_012_day_15_data.csv,1,300,137.0,Training at home,,,,,,,,,,,,,
12,15,3447,A,54.4159485874516,82.93283236518936,2.72079742937258,1.3027058844993635,A,735.4150000028312,Correct,sub_012_day_15_data.csv,1,300,137.0,Training at home,,,,,,,,,,,,,
12,15,3448,A,62.02108411966924,74.21639242653862,3.101054205983462,1.1657883661157546,A,524.2143330106046,Correct,sub_012_day_15_data.csv,1,300,137.0,Training at home,,,,,,,,,,,,,
12,15,3449,A,47.02551720756239,61.05154976821427,2.351275860378119,0.958995501210468,A,868.2959580037277,Correct,sub_012_day_15_data.csv,1,300,137.0,Training at home,,,,,,,,,,,,,
12,15,3450,B,52.47681846321263,31.60607937640625,2.623840923160632,0.4964671338884686,B,933.2757919910364,Correct,sub_012_day_15_data.csv,1,300,138.0,Training at home,,,,,,,,,,,,,
12,15,3451,A,12.460146924819156,34.445179335716446,0.6230073462409578,0.5410636117633486,A,1879.306415998144,Correct,sub_012_day_15_data.csv,1,300,138.0,Training at home,,,,,,,,,,,,,
12,15,3452,A,24.061125583293773,42.0186963657552,1.2030562791646886,0.6600281390803834,A,552.2511249873787,Correct,sub_012_day_15_data.csv,1,300,138.0,Training at home,,,,,,,,,,,,,
12,15,3453,A,27.13618111413534,42.18486080865769,1.3568090557067671,0.6626382440459349,A,533.5692490043584,Correct,sub_012_day_15_data.csv,1,300,138.0,Training at home,,,,,,,,,,,,,
12,15,3454,A,53.53298544904981,83.42201758251166,2.67664927245249,1.3103899879242855,A,3770.6736250256654,Correct,sub_012_day_15_data.csv,1,300,138.0,Training at home,,,,,,,,,,,,,
12,15,3455,B,53.73507472513129,43.33665883578932,2.686753736256565,0.6807306451482147,B,862.0099160179961,Correct,sub_012_day_15_data.csv,1,300,138.0,Training at home,,,,,,,,,,,,,
12,15,3456,B,57.73254759666041,49.34490832322654,2.886627379833021,0.7751080074015516,A,1025.5062500073109,Incorrect,sub_012_day_15_data.csv,0,300,138.0,Training at home,,,,,,,,,,,,,
12,15,3457,A,51.35058615679851,62.36713766337191,2.5675293078399255,0.9796607075433624,B,800.4304159840103,Incorrect,sub_012_day_15_data.csv,0,300,138.0,Training at home,,,,,,,,,,,,,
12,15,3458,A,57.43886362119407,83.06900106603635,2.8719431810597036,1.3048448174505125,A,623.992041015299,Correct,sub_012_day_15_data.csv,1,300,138.0,Training at home,,,,,,,,,,,,,
12,15,3459,B,35.176332188966754,11.745072639334804,1.7588166094483375,0.1844911695980635,B,728.4691660024691,Correct,sub_012_day_15_data.csv,1,300,138.0,Training at home,,,,,,,,,,,,,
12,15,3460,B,58.9605565984437,48.43352045503898,2.948027829922185,0.7607919602452071,B,1091.457707982045,Correct,sub_012_day_15_data.csv,1,300,138.0,Training at home,,,,,,,,,,,,,
12,15,3461,B,76.45441866047517,44.8620057604311,3.8227209330237586,0.7046907386113667,B,731.1942919914145,Correct,sub_012_day_15_data.csv,1,300,138.0,Training at home,,,,,,,,,,,,,
12,15,3462,A,43.987655992711105,75.28414658654862,2.199382799635555,1.1825606092403913,A,1014.5605829893613,Correct,sub_012_day_15_data.csv,1,300,138.0,Training at home,,,,,,,,,,,,,
12,15,3463,A,23.136977873262385,38.28350444509859,1.1568488936631192,0.6013558815919696,A,735.4557910002768,Correct,sub_012_day_15_data.csv,1,300,138.0,Training at home,,,,,,,,,,,,,
12,15,3464,A,42.97041975676544,49.75706065163925,2.148520987838272,0.7815820810370582,A,720.2275409945287,Correct,sub_012_day_15_data.csv,1,300,138.0,Training at home,,,,,,,,,,,,,
12,15,3465,B,87.66664888836513,64.18641510251302,4.383332444418256,1.0082378507315992,B,868.9646669954527,Correct,sub_012_day_15_data.csv,1,300,138.0,Training at home,,,,,,,,,,,,,
12,15,3466,A,42.220542992407175,54.353676748637746,2.1110271496203588,0.8537855578455735,A,636.8642919987906,Correct,sub_012_day_15_data.csv,1,300,138.0,Training at home,,,,,,,,,,,,,
12,15,3467,B,61.452317339366246,38.09118547462809,3.072615866968312,0.5983349422680893,B,1466.4060829964,Correct,sub_012_day_15_data.csv,1,300,138.0,Training at home,,,,,,,,,,,,,
12,15,3468,A,20.932871228266208,52.20367127130321,1.0466435614133105,0.8200133507817136,A,835.9647080069408,Correct,sub_012_day_15_data.csv,1,300,138.0,Training at home,,,,,,,,,,,,,
12,15,3469,B,60.48845438269584,46.59337890864956,3.024422719134792,0.7318870844266954,B,2283.8464579836,Correct,sub_012_day_15_data.csv,1,300,138.0,Training at home,,,,,,,,,,,,,
12,15,3470,B,58.40109000818968,26.974571077127877,2.920054500409484,0.4237155716482033,B,549.2063330020756,Correct,sub_012_day_15_data.csv,1,300,138.0,Training at home,,,,,,,,,,,,,
12,15,3471,B,56.881810387933776,31.163845532350365,2.8440905193966888,0.4895205409101951,B,409.62333302013576,Correct,sub_012_day_15_data.csv,1,300,138.0,Training at home,,,,,,,,,,,,,
12,15,3472,A,49.20802308467654,59.730697869617515,2.460401154233827,0.9382476081049096,A,747.6919160108082,Correct,sub_012_day_15_data.csv,1,300,138.0,Training at home,,,,,,,,,,,,,
12,15,3473,B,46.85294721522092,17.986044320518506,2.3426473607610463,0.2825241235224068,B,1571.1054999846965,Correct,sub_012_day_15_data.csv,1,300,138.0,Training at home,,,,,,,,,,,,,
12,15,3474,A,29.769546882247703,56.4772907054841,1.4884773441123853,0.8871432078750197,A,801.7830829776358,Correct,sub_012_day_15_data.csv,1,300,138.0,Training at home,,,,,,,,,,,,,
12,15,3475,B,77.66671868900652,55.94051392485482,3.8833359344503258,0.8787115379218073,B,925.657999003306,Correct,sub_012_day_15_data.csv,1,300,139.0,Training at home,,,,,,,,,,,,,
12,15,3476,B,72.76659676209658,46.02910357705883,3.638329838104829,0.7230234682450585,B,705.3394580143504,Correct,sub_012_day_15_data.csv,1,300,139.0,Training at home,,,,,,,,,,,,,
12,15,3477,A,57.001309436391736,65.95227646618747,2.850065471819587,1.0359759361684877,B,461.5177079977002,Incorrect,sub_012_day_15_data.csv,0,300,139.0,Training at home,,,,,,,,,,,,,
12,15,3478,A,31.58641129128403,51.41000908144473,1.5793205645642017,0.8075465342562564,A,716.1909989954438,Correct,sub_012_day_15_data.csv,1,300,139.0,Training at home,,,,,,,,,,,,,
12,15,3479,B,38.165892924664846,20.927942055582797,1.9082946462332424,0.3287353450828589,B,1365.9292079973966,Correct,sub_012_day_15_data.csv,1,300,139.0,Training at home,,,,,,,,,,,,,
12,15,3480,A,13.86791751055912,35.82603744188467,0.6933958755279561,0.5627540801732888,A,643.3565000188537,Correct,sub_012_day_15_data.csv,1,300,139.0,Training at home,,,,,,,,,,,,,
12,15,3481,A,65.85326993227362,88.47875760765817,3.292663496613681,1.3898210744948545,A,868.2899999839719,Correct,sub_012_day_15_data.csv,1,300,139.0,Training at home,,,,,,,,,,,,,
12,15,3482,B,70.26799626205178,53.64821801685468,3.513399813102589,0.8427042379996712,B,836.8247920006979,Correct,sub_012_day_15_data.csv,1,300,139.0,Training at home,,,,,,,,,,,,,
12,15,3483,B,69.18148409705427,52.83425410535254,3.4590742048527137,0.8299185227763597,B,1244.0450829744805,Correct,sub_012_day_15_data.csv,1,300,139.0,Training at home,,,,,,,,,,,,,
12,15,3484,A,63.96610768705033,85.19766452186167,3.1983053843525164,1.338281784824442,A,1680.450915999245,Correct,sub_012_day_15_data.csv,1,300,139.0,Training at home,,,,,,,,,,,,,
12,15,3485,B,57.80392825106011,47.492719675827715,2.8901964125530055,0.7460138961628987,B,1102.0852079964243,Correct,sub_012_day_15_data.csv,1,300,139.0,Training at home,,,,,,,,,,,,,
12,15,3486,A,58.25938331684206,77.48933789693682,2.912969165842103,1.2171996733427692,A,835.9591659973375,Correct,sub_012_day_15_data.csv,1,300,139.0,Training at home,,,,,,,,,,,,,
12,15,3487,B,63.076557361025955,34.58275246416434,3.153827868051298,0.543224605411665,B,523.6560410121456,Correct,sub_012_day_15_data.csv,1,300,139.0,Training at home,,,,,,,,,,,,,
12,15,3488,A,15.723230256477851,32.29124766388209,0.7861615128238926,0.5072297321805027,A,812.3960410011932,Correct,sub_012_day_15_data.csv,1,300,139.0,Training at home,,,,,,,,,,,,,
12,15,3489,B,46.88549694979898,37.97573314425043,2.344274847489949,0.5965214213033178,B,967.9240830009804,Correct,sub_012_day_15_data.csv,1,300,139.0,Training at home,,,,,,,,,,,,,
12,15,3490,A,21.2210994215709,37.20134303667749,1.061054971078545,0.5843573299384991,A,1299.56033299095,Correct,sub_012_day_15_data.csv,1,300,139.0,Training at home,,,,,,,,,,,,,
12,15,3491,A,61.59951003479897,83.03835074142276,3.0799755017399484,1.3043633632773315,A,1057.501790986862,Correct,sub_012_day_15_data.csv,1,300,139.0,Training at home,,,,,,,,,,,,,
12,15,3492,A,41.469370768745435,50.43689124883079,2.0734685384372717,0.7922608350861706,A,612.932999007171,Correct,sub_012_day_15_data.csv,1,300,139.0,Training at home,,,,,,,,,,,,,
12,15,3493,B,31.745128200577415,12.373947559507124,1.5872564100288706,0.1943695137442646,B,937.5904990010896,Correct,sub_012_day_15_data.csv,1,300,139.0,Training at home,,,,,,,,,,,,,
12,15,3494,A,12.745850323452938,34.042022882068494,0.6372925161726469,0.53473084499821,A,796.3482500053942,Correct,sub_012_day_15_data.csv,1,300,139.0,Training at home,,,,,,,,,,,,,
12,15,3495,B,87.5746575585988,60.32489441804643,4.37873287792994,0.9475812256615728,B,693.0726240098011,Correct,sub_012_day_15_data.csv,1,300,139.0,Training at home,,,,,,,,,,,,,
12,15,3496,A,60.1448583059732,71.71240841461,3.00724291529866,1.126455877232848,B,1260.8439169998746,Incorrect,sub_012_day_15_data.csv,0,300,139.0,Training at home,,,,,,,,,,,,,
12,15,3497,B,35.728602263013435,11.499775825113389,1.786430113150672,0.1806380562505286,B,865.9062909719069,Correct,sub_012_day_15_data.csv,1,300,139.0,Training at home,,,,,,,,,,,,,
12,15,3498,B,71.3032012853471,40.4046696485668,3.5651600642673547,0.6346750666932999,B,1142.5919989997055,Correct,sub_012_day_15_data.csv,1,300,139.0,Training at home,,,,,,,,,,,,,
12,15,3499,B,65.66179015569821,45.77401573731185,3.2830895077849105,0.7190165578282124,B,727.7967910049483,Correct,sub_012_day_15_data.csv,1,300,139.0,Training at home,,,,,,,,,,,,,
12,15,3500,B,57.398968895301714,36.49215699408826,2.8699484447650856,0.5732174616313653,B,1516.1007500137202,Correct,sub_012_day_15_data.csv,1,300,140.0,Training at home,,,,,,,,,,,,,
12,15,3501,A,28.994835736366948,60.74999558911219,1.449741786818347,0.954258699241836,A,589.7108330100309,Correct,sub_012_day_15_data.csv,1,300,140.0,Training at home,,,,,,,,,,,,,
12,15,3502,B,61.523835204333615,50.23773420224455,3.076191760216681,0.7891324835138409,B,825.3775409830268,Correct,sub_012_day_15_data.csv,1,300,140.0,Training at home,,,,,,,,,,,,,
12,15,3503,B,58.78797347410792,33.89307754595732,2.939398673705396,0.5323912171296434,B,654.1377500107046,Correct,sub_012_day_15_data.csv,1,300,140.0,Training at home,,,,,,,,,,,,,
12,15,3504,B,54.93238700314872,23.916374363078052,2.7466193501574363,0.3756775299977463,B,764.8290409997571,Correct,sub_012_day_15_data.csv,1,300,140.0,Training at home,,,,,,,,,,,,,
12,15,3505,B,56.61886512910879,40.56875988009416,2.8309432564554395,0.6372525900227608,B,878.9586249913555,Correct,sub_012_day_15_data.csv,1,300,140.0,Training at home,,,,,,,,,,,,,
12,15,3506,B,44.90261322616206,29.958624156274304,2.245130661308103,0.4705889678050454,B,1003.1627909920644,Correct,sub_012_day_15_data.csv,1,300,140.0,Training at home,,,,,,,,,,,,,
12,15,3507,B,68.47343437681619,52.967558358322435,3.4236717188408092,0.832012461085472,B,5361.42000000109,Correct,sub_012_day_15_data.csv,1,300,140.0,Training at home,,,,,,,,,,,,,
12,15,3508,B,62.552357015752385,53.31915298297095,3.1276178507876193,0.8375352965346592,B,552.0205000066198,Correct,sub_012_day_15_data.csv,1,300,140.0,Training at home,,,,,,,,,,,,,
12,15,3509,B,44.01672606446456,20.027677676802032,2.200836303223228,0.3145940252895278,B,530.0982920161914,Correct,sub_012_day_15_data.csv,1,300,140.0,Training at home,,,,,,,,,,,,,
12,15,3510,A,39.17171383291913,68.71684312543633,1.9585856916459563,1.0794016477037651,A,746.9973330153152,Correct,sub_012_day_15_data.csv,1,300,140.0,Training at home,,,,,,,,,,,,,
12,15,3511,A,20.51506960688488,38.75099457026053,1.025753480344244,0.6086991993061421,A,865.3774579870515,Correct,sub_012_day_15_data.csv,1,300,140.0,Training at home,,,,,,,,,,,,,
12,15,3512,A,27.08202382597515,39.668050704358805,1.3541011912987573,0.6231042833752052,A,605.6069580081385,Correct,sub_012_day_15_data.csv,1,300,140.0,Training at home,,,,,,,,,,,,,
12,15,3513,A,36.07115284949954,69.08980744487215,1.8035576424749769,1.0852601575337186,A,514.2545410199091,Correct,sub_012_day_15_data.csv,1,300,140.0,Training at home,,,,,,,,,,,,,
12,15,3514,B,41.8169933800245,14.140001217478977,2.0908496690012246,0.2221106197329133,B,990.8507500076666,Correct,sub_012_day_15_data.csv,1,300,140.0,Training at home,,,,,,,,,,,,,
12,15,3515,B,58.297885016666335,38.99604568120947,2.914894250833317,0.6125484531556983,B,705.7171240157913,Correct,sub_012_day_15_data.csv,1,300,140.0,Training at home,,,,,,,,,,,,,
12,15,3516,B,38.62760139728496,18.622200610225267,1.931380069864248,0.2925168431537953,B,2002.115082985256,Correct,sub_012_day_15_data.csv,1,300,140.0,Training at home,,,,,,,,,,,,,
12,15,3517,B,77.0813842096323,65.85430839630905,3.854069210481615,1.0344370573254056,B,1399.3010830017738,Correct,sub_012_day_15_data.csv,1,300,140.0,Training at home,,,,,,,,,,,,,
12,15,3518,B,46.70389975795844,36.73545102155644,2.3351949878979217,0.577039115278147,B,1117.907500010915,Correct,sub_012_day_15_data.csv,1,300,140.0,Training at home,,,,,,,,,,,,,
12,15,3519,B,74.7832495540144,59.86004302817619,3.73916247770072,0.9402793571044364,B,529.4425830070395,Correct,sub_012_day_15_data.csv,1,300,140.0,Training at home,,,,,,,,,,,,,
12,15,3520,B,48.620154792924495,20.5201913619892,2.431007739646225,0.32233041216541,B,2853.0418740119785,Correct,sub_012_day_15_data.csv,1,300,140.0,Training at home,,,,,,,,,,,,,
12,15,3521,A,63.118988419190096,88.40797259162512,3.155949420959505,1.3887091860630865,A,590.7597909972537,Correct,sub_012_day_15_data.csv,1,300,140.0,Training at home,,,,,,,,,,,,,
12,15,3522,A,49.99153202662835,73.2352059177379,2.499576601331418,1.1503759244765055,A,1516.547500010347,Correct,sub_012_day_15_data.csv,1,300,140.0,Training at home,,,,,,,,,,,,,
12,15,3523,B,68.17996732233601,50.14824916975832,3.4089983661168004,0.7877268559105159,B,852.9474989918526,Correct,sub_012_day_15_data.csv,1,300,140.0,Training at home,,,,,,,,,,,,,
12,15,3524,A,61.4364938376584,78.19076704132839,3.07182469188292,1.2282176965779408,A,1686.2409580207895,Correct,sub_012_day_15_data.csv,1,300,140.0,Training at home,,,,,,,,,,,,,
12,15,3525,B,76.50601049137516,46.853614248708354,3.825300524568758,0.735974851589361,B,1113.6270420101937,Correct,sub_012_day_15_data.csv,1,300,141.0,Training at home,,,,,,,,,,,,,
12,15,3526,A,40.33912655980106,52.0857550330161,2.016956327990053,0.8181611268420047,A,1342.1239579911344,Correct,sub_012_day_15_data.csv,1,300,141.0,Training at home,,,,,,,,,,,,,
12,15,3527,B,79.54317864235014,61.23499015518061,3.977158932117507,0.9618769760707936,B,1238.0065410106909,Correct,sub_012_day_15_data.csv,1,300,141.0,Training at home,,,,,,,,,,,,,
12,15,3528,B,52.06760841810202,21.000253568871663,2.603380420905101,0.3298712116774502,B,875.4550830053631,Correct,sub_012_day_15_data.csv,1,300,141.0,Training at home,,,,,,,,,,,,,
12,15,3529,B,84.22859857835184,58.68886590908516,4.211429928917592,0.921882549937492,B,1136.931249988265,Correct,sub_012_day_15_data.csv,1,300,141.0,Training at home,,,,,,,,,,,,,
12,15,3530,B,52.038465094675686,22.450790271090852,2.6019232547337845,0.3526561889147211,B,878.0992910033092,Correct,sub_012_day_15_data.csv,1,300,141.0,Training at home,,,,,,,,,,,,,
12,15,3531,B,55.018509952760944,46.13897200216715,2.750925497638047,0.7247492774309673,B,1393.4117080061696,Correct,sub_012_day_15_data.csv,1,300,141.0,Training at home,,,,,,,,,,,,,
12,15,3532,B,50.20943446108675,38.57670470323119,2.5104717230543376,0.6059614604768696,B,3149.9997909995727,Correct,sub_012_day_15_data.csv,1,300,141.0,Training at home,,,,,,,,,,,,,
12,15,3533,B,59.11202031627226,42.3289373120506,2.955601015813613,0.6649013924690053,B,1988.6129579972476,Correct,sub_012_day_15_data.csv,1,300,141.0,Training at home,,,,,,,,,,,,,
12,15,3534,A,38.02806468300528,70.78602291626308,1.901403234150264,1.1119042478528542,A,2362.3902919935063,Correct,sub_012_day_15_data.csv,1,300,141.0,Training at home,,,,,,,,,,,,,
12,15,3535,B,73.49816054132873,47.286341152039654,3.674908027066437,0.7427721098919425,B,2764.543290977599,Correct,sub_012_day_15_data.csv,1,300,141.0,Training at home,,,,,,,,,,,,,
12,15,3536,A,38.478866509961136,48.48533077995687,1.923943325498057,0.7616057949259178,A,990.4392079915852,Correct,sub_012_day_15_data.csv,1,300,141.0,Training at home,,,,,,,,,,,,,
12,15,3537,A,20.833984088982792,45.50341679848469,1.0416992044491395,0.7147659996367695,A,1654.1927910002414,Correct,sub_012_day_15_data.csv,1,300,141.0,Training at home,,,,,,,,,,,,,
12,15,3538,B,77.01943408485924,54.19240069268985,3.850971704242962,0.8512522394827442,B,1429.436792008346,Correct,sub_012_day_15_data.csv,1,300,141.0,Training at home,,,,,,,,,,,,,
12,15,3539,B,66.91402843235109,45.16074506532533,3.3457014216175542,0.7093833246393378,B,2640.0930829986464,Correct,sub_012_day_15_data.csv,1,300,141.0,Training at home,,,,,,,,,,,,,
12,15,3540,B,60.69426645464558,33.086447337152904,3.034713322732279,0.5197206994389256,B,3266.2023750017397,Correct,sub_012_day_15_data.csv,1,300,141.0,Training at home,,,,,,,,,,,,,
12,15,3541,A,25.828118648061267,36.768825902763425,1.2914059324030631,0.5775633666862183,A,528.1727910041809,Correct,sub_012_day_15_data.csv,1,300,141.0,Training at home,,,,,,,,,,,,,
12,15,3542,A,66.55035308345012,82.58968703537792,3.327517654172506,1.2973157702631173,A,1507.3746670095716,Correct,sub_012_day_15_data.csv,1,300,141.0,Training at home,,,,,,,,,,,,,
12,15,3543,A,46.07655234892772,67.68573237206472,2.303827617446386,1.0632049978646168,A,1516.2503749888856,Correct,sub_012_day_15_data.csv,1,300,141.0,Training at home,,,,,,,,,,,,,
12,15,3544,B,44.242870408075355,32.36252421173385,2.212143520403768,0.5083493415760243,B,508.6881250026636,Correct,sub_012_day_15_data.csv,1,300,141.0,Training at home,,,,,,,,,,,,,
12,15,3545,B,70.23436561244439,38.34940852876201,3.5117182806222194,0.6023911005173624,B,452.4462910194416,Correct,sub_012_day_15_data.csv,1,300,141.0,Training at home,,,,,,,,,,,,,
12,15,3546,A,33.38995239414933,44.13133017318673,1.669497619707467,0.6932133133261451,A,724.5175830030348,Correct,sub_012_day_15_data.csv,1,300,141.0,Training at home,,,,,,,,,,,,,
12,15,3547,A,21.370772302225788,51.073153846559954,1.0685386151112894,0.8022552246000701,A,625.0918329751585,Correct,sub_012_day_15_data.csv,1,300,141.0,Training at home,,,,,,,,,,,,,
12,15,3548,B,53.72647548179847,43.74486225835412,2.6863237740899235,0.6871426895157136,B,3211.144915985642,Correct,sub_012_day_15_data.csv,1,300,141.0,Training at home,,,,,,,,,,,,,
12,15,3549,B,83.98555144494676,66.65492893323373,4.199277572247338,1.047013175310984,B,1116.6102909774054,Correct,sub_012_day_15_data.csv,1,300,141.0,Training at home,,,,,,,,,,,,,
12,15,3550,A,24.19926014867015,54.76516922234856,1.2099630074335077,0.8602492665076605,A,1355.6652489933183,Correct,sub_012_day_15_data.csv,1,300,142.0,Training at home,,,,,,,,,,,,,
12,15,3551,A,22.24987479927028,36.73320756294491,1.1124937399635142,0.5770038751126838,A,860.5278330214787,Correct,sub_012_day_15_data.csv,1,300,142.0,Training at home,,,,,,,,,,,,,
12,15,3552,B,63.58219972416116,42.19267418010555,3.179109986208058,0.6627609761976366,B,763.5943749919534,Correct,sub_012_day_15_data.csv,1,300,142.0,Training at home,,,,,,,,,,,,,
12,15,3553,B,43.749656120112135,35.07430925084563,2.187482806005607,0.5509459613609657,B,831.618583004456,Correct,sub_012_day_15_data.csv,1,300,142.0,Training at home,,,,,,,,,,,,,
12,15,3554,B,78.54206154643687,64.94569538530305,3.9271030773218434,1.020164597523743,B,1663.9571670093574,Correct,sub_012_day_15_data.csv,1,300,142.0,Training at home,,,,,,,,,,,,,
12,15,3555,B,57.978431202145984,35.94990142507498,2.8989215601072993,0.5646997310714639,B,2393.5068740101997,Correct,sub_012_day_15_data.csv,1,300,142.0,Training at home,,,,,,,,,,,,,
12,15,3556,A,61.5678995211428,86.92008503979184,3.07839497605714,1.3653375030520507,A,845.5092080112081,Correct,sub_012_day_15_data.csv,1,300,142.0,Training at home,,,,,,,,,,,,,
12,15,3557,B,44.59251903593821,28.23286789760337,2.2296259517969106,0.4434808518844093,B,552.2740419837646,Correct,sub_012_day_15_data.csv,1,300,142.0,Training at home,,,,,,,,,,,,,
12,15,3558,B,46.04187709687774,18.51900390119084,2.302093854843887,0.2908958330389093,B,722.8746239852626,Correct,sub_012_day_15_data.csv,1,300,142.0,Training at home,,,,,,,,,,,,,
12,15,3559,B,47.20815648773329,27.67144817398635,2.360407824386664,0.434662091487931,B,595.517166017089,Correct,sub_012_day_15_data.csv,1,300,142.0,Training at home,,,,,,,,,,,,,
12,15,3560,B,56.77520375063346,36.72321767918419,2.8387601875316726,0.5768469543855193,B,849.5124990004115,Correct,sub_012_day_15_data.csv,1,300,142.0,Training at home,,,,,,,,,,,,,
12,15,3561,B,57.55990966214602,40.41791158292785,2.8779954831073007,0.6348830705118397,B,1957.387957983883,Correct,sub_012_day_15_data.csv,1,300,142.0,Training at home,,,,,,,,,,,,,
12,15,3562,A,38.05336282596673,65.3030963015888,1.9026681412983364,1.0257786379886906,A,558.0789580126293,Correct,sub_012_day_15_data.csv,1,300,142.0,Training at home,,,,,,,,,,,,,
12,15,3563,A,17.536625469953037,46.82005622672717,0.8768312734976519,0.7354477234127356,A,492.7707909955643,Correct,sub_012_day_15_data.csv,1,300,142.0,Training at home,,,,,,,,,,,,,
12,15,3564,B,59.29386033976694,38.38491100371133,2.9646930169883468,0.6029487720897876,B,707.496707997052,Correct,sub_012_day_15_data.csv,1,300,142.0,Training at home,,,,,,,,,,,,,
12,15,3565,B,47.42263314509843,38.88904138878402,2.3711316572549213,0.6108676336607665,B,1984.5913739991377,Correct,sub_012_day_15_data.csv,1,300,142.0,Training at home,,,,,,,,,,,,,
12,15,3566,A,20.401768999875397,46.00033225077007,1.02008844999377,0.7225715293085445,A,974.7673740203028,Correct,sub_012_day_15_data.csv,1,300,142.0,Training at home,,,,,,,,,,,,,
12,15,3567,B,64.38126575476896,51.77684922926561,3.219063287738448,0.8133088458234358,B,1131.424125022022,Correct,sub_012_day_15_data.csv,1,300,142.0,Training at home,,,,,,,,,,,,,
12,15,3568,B,44.43362422581113,32.99057149925746,2.2216812112905564,0.5182146852989803,B,1104.9165000149517,Correct,sub_012_day_15_data.csv,1,300,142.0,Training at home,,,,,,,,,,,,,
12,15,3569,A,25.216664565640382,56.78647604814699,1.2608332282820192,0.8919998798805567,A,648.7252500082832,Correct,sub_012_day_15_data.csv,1,300,142.0,Training at home,,,,,,,,,,,,,
12,15,3570,A,21.179734346782347,50.52217442674108,1.0589867173391172,0.7936004601121596,A,2189.745457988465,Correct,sub_012_day_15_data.csv,1,300,142.0,Training at home,,,,,,,,,,,,,
12,15,3571,A,42.15052641814157,58.77115584003142,2.1075263209070783,0.9231751571501178,A,497.88599999737926,Correct,sub_012_day_15_data.csv,1,300,142.0,Training at home,,,,,,,,,,,,,
12,15,3572,A,30.365296094386675,40.59128062249081,1.5182648047193337,0.6376063450170942,A,1071.1790829955137,Correct,sub_012_day_15_data.csv,1,300,142.0,Training at home,,,,,,,,,,,,,
12,15,3573,B,62.72404672211712,31.389540786163852,3.1362023361058555,0.4930657536668477,B,1125.3969579993282,Correct,sub_012_day_15_data.csv,1,300,142.0,Training at home,,,,,,,,,,,,,
12,15,3574,A,34.222111751942585,66.14930902844809,1.711105587597129,1.0390709164190677,A,1039.136499981396,Correct,sub_012_day_15_data.csv,1,300,142.0,Training at home,,,,,,,,,,,,,
12,15,3575,B,64.68748407953291,48.13760259546192,3.234374203976645,0.7561436933766408,B,859.6393739862833,Correct,sub_012_day_15_data.csv,1,300,143.0,Training at home,,,,,,,,,,,,,
12,15,3576,B,57.49025839419129,37.639370961232736,2.8745129197095647,0.5912378564877488,B,571.8709159991704,Correct,sub_012_day_15_data.csv,1,300,143.0,Training at home,,,,,,,,,,,,,
12,15,3577,B,69.8791273296151,41.05942760926929,3.4939563664807554,0.6449599806894116,B,444.0214999776799,Correct,sub_012_day_15_data.csv,1,300,143.0,Training at home,,,,,,,,,,,,,
12,15,3578,A,18.84312101149947,38.82405051771438,0.9421560505749736,0.6098467594452525,A,682.1239999844693,Correct,sub_012_day_15_data.csv,1,300,143.0,Training at home,,,,,,,,,,,,,
12,15,3579,A,50.243873424181125,58.02940804818549,2.512193671209056,0.9115238100817198,A,1229.0799579932354,Correct,sub_012_day_15_data.csv,1,300,143.0,Training at home,,,,,,,,,,,,,
12,15,3580,B,32.1818564148855,10.153318753618551,1.609092820744275,0.1594879580296176,B,2617.5492919865064,Correct,sub_012_day_15_data.csv,1,300,143.0,Training at home,,,,,,,,,,,,,
12,15,3581,B,37.399472261019085,13.941487836942528,1.869973613050954,0.2189923788432504,B,2530.333040980622,Correct,sub_012_day_15_data.csv,1,300,143.0,Training at home,,,,,,,,,,,,,
12,15,3582,B,55.905214617001285,25.87820847380316,2.7952607308500643,0.4064939481468257,B,1114.1319160233252,Correct,sub_012_day_15_data.csv,1,300,143.0,Training at home,,,,,,,,,,,,,
12,15,3583,B,50.146937033756856,27.06276963504602,2.5073468516878425,0.4251009913562675,B,5465.2345420036,Correct,sub_012_day_15_data.csv,1,300,143.0,Training at home,,,,,,,,,,,,,
12,15,3584,A,46.24118585569534,71.30259459076572,2.312059292784767,1.1200185367412048,A,1460.305500018876,Correct,sub_012_day_15_data.csv,1,300,143.0,Training at home,,,,,,,,,,,,,
12,15,3585,B,72.874672586799,40.93283891919177,3.6437336293399496,0.6429715301955361,B,3806.659624999156,Correct,sub_012_day_15_data.csv,1,300,143.0,Training at home,,,,,,,,,,,,,
12,15,3586,B,74.39491392712114,49.221560690946674,3.719745696356057,0.7731704673245111,B,729.9112500040792,Correct,sub_012_day_15_data.csv,1,300,143.0,Training at home,,,,,,,,,,,,,
12,15,3587,B,66.1868365729873,48.88526962641448,3.3093418286493654,0.7678880196355,B,554.8539989977144,Correct,sub_012_day_15_data.csv,1,300,143.0,Training at home,,,,,,,,,,,,,
12,15,3588,A,18.556592637125433,43.542715444665674,0.9278296318562717,0.6839673747915626,A,3284.6319579984993,Correct,sub_012_day_15_data.csv,1,300,143.0,Training at home,,,,,,,,,,,,,
12,15,3589,A,37.96775945095188,65.54887275653383,1.898387972547594,1.0296392855150942,A,3697.683375008637,Correct,sub_012_day_15_data.csv,1,300,143.0,Training at home,,,,,,,,,,,,,
12,15,3590,A,27.950170971354247,54.15434169335622,1.3975085485677123,0.8506544101191966,A,863.648624974303,Correct,sub_012_day_15_data.csv,1,300,143.0,Training at home,,,,,,,,,,,,,
12,15,3591,B,71.91996656699894,39.4176095935277,3.595998328349947,0.6191703636054858,B,1256.546499003889,Correct,sub_012_day_15_data.csv,1,300,143.0,Training at home,,,,,,,,,,,,,
12,15,3592,B,33.14338056584379,11.702770021996256,1.6571690282921896,0.1838266816387714,B,2115.5171249993145,Correct,sub_012_day_15_data.csv,1,300,143.0,Training at home,,,,,,,,,,,,,
12,15,3593,A,29.5336050908231,43.49210418641184,1.476680254541155,0.6831723750059665,A,2897.5748739903793,Correct,sub_012_day_15_data.csv,1,300,143.0,Training at home,,,,,,,,,,,,,
12,15,3594,A,47.19266236986817,63.4614116159381,2.3596331184934085,0.9968495225953456,A,1168.4823750110809,Correct,sub_012_day_15_data.csv,1,300,143.0,Training at home,,,,,,,,,,,,,
12,15,3595,A,25.994228840158613,45.77221809610356,1.2997114420079303,0.7189883205461437,A,3174.8012079915497,Correct,sub_012_day_15_data.csv,1,300,143.0,Training at home,,,,,,,,,,,,,
12,15,3596,B,80.63421031428845,66.27618719177246,4.031710515714423,1.0410639139480715,B,1180.3397080220748,Correct,sub_012_day_15_data.csv,1,300,143.0,Training at home,,,,,,,,,,,,,
12,15,3597,A,39.447576314982506,69.52988300626501,1.972378815749125,1.0921728482871995,A,957.465042010881,Correct,sub_012_day_15_data.csv,1,300,143.0,Training at home,,,,,,,,,,,,,
12,15,3598,B,81.58976255947655,58.19980024622292,4.0794881279738275,0.9142003244696368,B,1529.0866240102332,Correct,sub_012_day_15_data.csv,1,300,143.0,Training at home,,,,,,,,,,,,,
12,15,3599,A,17.310581754620856,36.96960517208839,0.8655290877310428,0.5807172000737406,A,3858.617707999656,Correct,sub_012_day_15_data.csv,1,300,143.0,Training at home,,,,,,,,,,,,,
