subject,day,trial,cat,x,y,xt,yt,resp,rt,fb,f_name,acc,n_trials,block,session_type,ns_left_digit,ns_right_digit,ns_left_size,ns_right_size,ns_congruent,ns_cue,ns_correct_side,ns_resp,ns_rt,ns_fb,acc_stroop,acc_stroop_mean,resp_key
12,19,4200,B,66.01498610146253,47.38114572811485,3.300749305073126,0.7442612966905652,B,997.8192919807044,Correct,sub_012_day_19_data.csv,1,300,168.0,Training at home,,,,,,,,,,,,,
12,19,4201,A,58.97732806362912,74.90806305502457,2.9488664031814555,1.176653102941531,A,622.3024580103811,Correct,sub_012_day_19_data.csv,1,300,168.0,Training at home,,,,,,,,,,,,,
12,19,4202,B,48.31626526149215,32.68220591349677,2.4158132630746074,0.5133708900047518,B,469.7758750116918,Correct,sub_012_day_19_data.csv,1,300,168.0,Training at home,,,,,,,,,,,,,
12,19,4203,B,45.27390495698518,19.029572991590776,2.2636952478492587,0.2989158335566616,B,494.54545899061486,Correct,sub_012_day_19_data.csv,1,300,168.0,Training at home,,,,,,,,,,,,,
12,19,4204,A,44.055720547677936,58.004822274968575,2.2027860273838966,0.9111376176591144,A,459.8097919952125,Correct,sub_012_day_19_data.csv,1,300,168.0,Training at home,,,,,,,,,,,,,
12,19,4205,A,32.60324081089307,55.17586800231788,1.6301620405446533,0.86670050785761,A,574.8866259818897,Correct,sub_012_day_19_data.csv,1,300,168.0,Training at home,,,,,,,,,,,,,
12,19,4206,B,69.68883802611242,54.310274205207314,3.484441901305621,0.8531037922876327,B,1213.1682090112008,Correct,sub_012_day_19_data.csv,1,300,168.0,Training at home,,,,,,,,,,,,,
12,19,4207,A,46.54172165197448,63.71452688184018,2.327086082598724,1.0008254478946923,A,616.4486260095146,Correct,sub_012_day_19_data.csv,1,300,168.0,Training at home,,,,,,,,,,,,,
12,19,4208,B,46.128637620355576,27.037700211107794,2.306431881017778,0.4247072017658971,B,571.3297920010518,Correct,sub_012_day_19_data.csv,1,300,168.0,Training at home,,,,,,,,,,,,,
12,19,4209,B,48.20330379944585,29.362484185931223,2.410165189972292,0.46122482304834,B,656.846500991378,Correct,sub_012_day_19_data.csv,1,300,168.0,Training at home,,,,,,,,,,,,,
12,19,4210,B,56.59710269292331,29.510807567595563,2.829855134646165,0.4635546812793014,B,615.4103750013746,Correct,sub_012_day_19_data.csv,1,300,168.0,Training at home,,,,,,,,,,,,,
12,19,4211,A,60.98367216761994,83.52974205180584,3.0491836083809973,1.312082119931018,A,599.1327509982511,Correct,sub_012_day_19_data.csv,1,300,168.0,Training at home,,,,,,,,,,,,,
12,19,4212,B,45.23037364224737,25.058930085303544,2.2615186821123685,0.3936247533140493,B,526.1107080150396,Correct,sub_012_day_19_data.csv,1,300,168.0,Training at home,,,,,,,,,,,,,
12,19,4213,A,47.051277185873666,60.200215242721306,2.3525638592936833,0.9456227697552878,A,497.99158301902935,Correct,sub_012_day_19_data.csv,1,300,168.0,Training at home,,,,,,,,,,,,,
12,19,4214,B,67.69597462221175,44.54449260179619,3.384798731110587,0.699703253578439,B,1281.8633749848232,Correct,sub_012_day_19_data.csv,1,300,168.0,Training at home,,,,,,,,,,,,,
12,19,4215,B,85.84612140701496,61.61904487112871,4.292306070350748,0.9679096934417888,A,642.8220419911668,Incorrect,sub_012_day_19_data.csv,0,300,168.0,Training at home,,,,,,,,,,,,,
12,19,4216,B,35.969847788574796,15.589868339752393,1.7984923894287397,0.2448850792329911,B,518.776376004098,Correct,sub_012_day_19_data.csv,1,300,168.0,Training at home,,,,,,,,,,,,,
12,19,4217,B,53.739160064379334,43.84303773459134,2.686958003218967,0.6886848262902612,B,572.3599580232985,Correct,sub_012_day_19_data.csv,1,300,168.0,Training at home,,,,,,,,,,,,,
12,19,4218,B,58.58793717887162,50.04363572774973,2.929396858943581,0.7860835918061112,B,661.5685010037851,Correct,sub_012_day_19_data.csv,1,300,168.0,Training at home,,,,,,,,,,,,,
12,19,4219,A,36.92456955385645,65.9151899483087,1.8462284776928224,1.0353933825079118,A,561.9923339982051,Correct,sub_012_day_19_data.csv,1,300,168.0,Training at home,,,,,,,,,,,,,
12,19,4220,B,58.199453507054315,37.79985370359322,2.909972675352716,0.593758713509887,B,578.55850001215,Correct,sub_012_day_19_data.csv,1,300,168.0,Training at home,,,,,,,,,,,,,
12,19,4221,A,14.792654432910645,41.97765510450924,0.7396327216455322,0.6593834644562615,A,487.8342510201037,Correct,sub_012_day_19_data.csv,1,300,168.0,Training at home,,,,,,,,,,,,,
12,19,4222,B,65.73705885889257,39.554492476795815,3.2868529429446283,0.6213205149078724,B,645.5305829877034,Correct,sub_012_day_19_data.csv,1,300,168.0,Training at home,,,,,,,,,,,,,
12,19,4223,B,49.92317737565864,20.570499821605395,2.496158868782932,0.3231206556011283,B,773.2184170163237,Correct,sub_012_day_19_data.csv,1,300,168.0,Training at home,,,,,,,,,,,,,
12,19,4224,B,71.33256346820126,59.54591519439015,3.566628173410063,0.9353450486298848,A,2010.607500007609,Incorrect,sub_012_day_19_data.csv,0,300,168.0,Training at home,,,,,,,,,,,,,
12,19,4225,B,47.70585947145605,36.17386723071388,2.3852929735728026,0.5682177777197164,B,407.5931250117719,Correct,sub_012_day_19_data.csv,1,300,169.0,Training at home,,,,,,,,,,,,,
12,19,4226,A,32.405174878355645,65.70731324587679,1.6202587439177822,1.032128062901849,A,749.9610419909004,Correct,sub_012_day_19_data.csv,1,300,169.0,Training at home,,,,,,,,,,,,,
12,19,4227,B,55.258008097312114,24.487145051785927,2.7629004048656056,0.3846431750103916,B,595.27912500198,Correct,sub_012_day_19_data.csv,1,300,169.0,Training at home,,,,,,,,,,,,,
12,19,4228,B,67.30577365141843,56.98790847756868,3.365288682570922,0.8951639730828862,A,2071.271417022217,Incorrect,sub_012_day_19_data.csv,0,300,169.0,Training at home,,,,,,,,,,,,,
12,19,4229,A,53.018989336651416,75.26714244275232,2.650949466832571,1.182293508774236,A,794.814042019425,Correct,sub_012_day_19_data.csv,1,300,169.0,Training at home,,,,,,,,,,,,,
12,19,4230,B,35.98517661600199,16.62414883301764,1.7992588308000996,0.2611315192299577,B,508.2509590138216,Correct,sub_012_day_19_data.csv,1,300,169.0,Training at home,,,,,,,,,,,,,
12,19,4231,B,52.575622462326216,25.712625853028488,2.6287811231163105,0.4038929824218863,B,488.83525098790415,Correct,sub_012_day_19_data.csv,1,300,169.0,Training at home,,,,,,,,,,,,,
12,19,4232,A,46.97882839740039,66.07765266805536,2.3489414198700196,1.0379453409421038,A,690.62833301723,Correct,sub_012_day_19_data.csv,1,300,169.0,Training at home,,,,,,,,,,,,,
12,19,4233,B,59.16029836994337,38.16188741783364,2.9580149184971685,0.5994455257949346,B,483.1220839987509,Correct,sub_012_day_19_data.csv,1,300,169.0,Training at home,,,,,,,,,,,,,
12,19,4234,A,50.541530884134374,80.19314907067172,2.527076544206719,1.2596710399432671,A,665.2340010041371,Correct,sub_012_day_19_data.csv,1,300,169.0,Training at home,,,,,,,,,,,,,
12,19,4235,B,62.339260037840006,45.85861095955811,3.1169630018920005,0.7203453764719007,B,495.69895901368,Correct,sub_012_day_19_data.csv,1,300,169.0,Training at home,,,,,,,,,,,,,
12,19,4236,B,62.9614716569544,52.45994508460253,3.1480735828477204,0.8240388904275565,B,805.0879999937024,Correct,sub_012_day_19_data.csv,1,300,169.0,Training at home,,,,,,,,,,,,,
12,19,4237,B,62.90861668648482,52.2791008349093,3.145430834324241,0.8211981955961554,B,567.9571669897996,Correct,sub_012_day_19_data.csv,1,300,169.0,Training at home,,,,,,,,,,,,,
12,19,4238,B,74.05085239039495,47.200548572897205,3.7025426195197473,0.7414244832101101,B,545.359626004938,Correct,sub_012_day_19_data.csv,1,300,169.0,Training at home,,,,,,,,,,,,,
12,19,4239,B,58.00386699337273,45.23532334096357,2.9001933496686365,0.7105547974536501,B,1374.9834169866515,Correct,sub_012_day_19_data.csv,1,300,169.0,Training at home,,,,,,,,,,,,,
12,19,4240,A,57.30566151365031,81.8979819837005,2.865283075682515,1.2864504927191138,A,521.6523749986663,Correct,sub_012_day_19_data.csv,1,300,169.0,Training at home,,,,,,,,,,,,,
12,19,4241,B,50.68534187774459,21.38339201896032,2.53426709388723,0.3358895363779817,B,515.5447500001173,Correct,sub_012_day_19_data.csv,1,300,169.0,Training at home,,,,,,,,,,,,,
12,19,4242,A,60.18763752151322,78.16629112230821,3.0093818760756608,1.2278332297410228,A,524.8705839912873,Correct,sub_012_day_19_data.csv,1,300,169.0,Training at home,,,,,,,,,,,,,
12,19,4243,A,44.11067222727987,66.49169337622442,2.2055336113639936,1.0444490771774586,A,469.0026250027586,Correct,sub_012_day_19_data.csv,1,300,169.0,Training at home,,,,,,,,,,,,,
12,19,4244,A,32.74647094789473,51.78712728577452,1.6373235473947363,0.8134702931575437,B,1671.8418750097044,Incorrect,sub_012_day_19_data.csv,0,300,169.0,Training at home,,,,,,,,,,,,,
12,19,4245,A,47.761630952186685,64.06883257646238,2.3880815476093344,1.0063908687314431,A,761.6315839986783,Correct,sub_012_day_19_data.csv,1,300,169.0,Training at home,,,,,,,,,,,,,
12,19,4246,A,24.458942649371977,39.99052645812491,1.2229471324685988,0.6281697206701674,A,645.2960419992451,Correct,sub_012_day_19_data.csv,1,300,169.0,Training at home,,,,,,,,,,,,,
12,19,4247,B,40.84676491385288,23.48244089683019,2.042338245692644,0.3688613190491912,B,555.9225830074865,Correct,sub_012_day_19_data.csv,1,300,169.0,Training at home,,,,,,,,,,,,,
12,19,4248,A,42.9086909611688,49.6851794498004,2.14543454805844,0.7804529737589174,A,1261.3229999842588,Correct,sub_012_day_19_data.csv,1,300,169.0,Training at home,,,,,,,,,,,,,
12,19,4249,B,54.88907467549205,46.61703242293259,2.744453733774602,0.7322586329602113,B,537.1206249983516,Correct,sub_012_day_19_data.csv,1,300,169.0,Training at home,,,,,,,,,,,,,
12,19,4250,B,42.68549280569757,15.314523841305832,2.134274640284878,0.2405599779653607,B,415.1155840081629,Correct,sub_012_day_19_data.csv,1,300,170.0,Training at home,,,,,,,,,,,,,
12,19,4251,B,69.7916600226565,53.31643249170534,3.489583001132825,0.8374925631577882,B,668.8167919928674,Correct,sub_012_day_19_data.csv,1,300,170.0,Training at home,,,,,,,,,,,,,
12,19,4252,A,56.41951253074244,80.41473597293012,2.820975626537122,1.2631517188646006,A,555.0830420106649,Correct,sub_012_day_19_data.csv,1,300,170.0,Training at home,,,,,,,,,,,,,
12,19,4253,A,67.78156577078582,89.1235114879548,3.389078288539291,1.3999488447634216,A,753.3150000090245,Correct,sub_012_day_19_data.csv,1,300,170.0,Training at home,,,,,,,,,,,,,
12,19,4254,B,46.33514817097776,19.5118317539015,2.316757408548888,0.306491136480685,B,498.0283339973539,Correct,sub_012_day_19_data.csv,1,300,170.0,Training at home,,,,,,,,,,,,,
12,19,4255,B,52.258872817060166,43.431061505805374,2.612943640853008,0.682213518821223,B,642.6934170012828,Correct,sub_012_day_19_data.csv,1,300,170.0,Training at home,,,,,,,,,,,,,
12,19,4256,B,36.10329353617172,14.24258301103345,1.805164676808586,0.2237219707780273,B,584.1619169805199,Correct,sub_012_day_19_data.csv,1,300,170.0,Training at home,,,,,,,,,,,,,
12,19,4257,A,50.89185902128947,58.00822983832851,2.5445929510644736,0.9111911435392056,A,709.3016250000801,Correct,sub_012_day_19_data.csv,1,300,170.0,Training at home,,,,,,,,,,,,,
12,19,4258,B,43.47427325017403,26.168141377615292,2.173713662508702,0.4110482035500764,B,651.970083010383,Correct,sub_012_day_19_data.csv,1,300,170.0,Training at home,,,,,,,,,,,,,
12,19,4259,B,37.3029254217912,21.24357553310045,1.86514627108956,0.3336933041538412,B,481.261209002696,Correct,sub_012_day_19_data.csv,1,300,170.0,Training at home,,,,,,,,,,,,,
12,19,4260,B,52.53418946524647,31.307253701368907,2.6267094732623235,0.4917731911614621,B,446.07083400478587,Correct,sub_012_day_19_data.csv,1,300,170.0,Training at home,,,,,,,,,,,,,
12,19,4261,A,66.6400566716991,84.73497083214619,3.332002833584955,1.3310138093420794,A,509.9870010162704,Correct,sub_012_day_19_data.csv,1,300,170.0,Training at home,,,,,,,,,,,,,
12,19,4262,B,59.14578977490391,28.78204179402246,2.9572894887451957,0.4521072552770768,B,432.82733400701545,Correct,sub_012_day_19_data.csv,1,300,170.0,Training at home,,,,,,,,,,,,,
12,19,4263,B,45.92510737339568,24.20047666215808,2.296255368669784,0.3801401984760352,B,379.6628749987576,Correct,sub_012_day_19_data.csv,1,300,170.0,Training at home,,,,,,,,,,,,,
12,19,4264,A,34.273716709048045,65.83386997395134,1.7136858354524025,1.034116011337756,A,508.4076669882051,Correct,sub_012_day_19_data.csv,1,300,170.0,Training at home,,,,,,,,,,,,,
12,19,4265,B,84.41806072774378,68.67811756110993,4.220903036387188,1.0787933479617955,B,731.9980829779524,Correct,sub_012_day_19_data.csv,1,300,170.0,Training at home,,,,,,,,,,,,,
12,19,4266,A,39.66827734960835,62.72165263276181,1.9834138674804176,0.9852294156604772,A,588.4510829928331,Correct,sub_012_day_19_data.csv,1,300,170.0,Training at home,,,,,,,,,,,,,
12,19,4267,A,12.305632824185498,34.913766351184904,0.6152816412092749,0.5484241593901651,A,608.1405000004452,Correct,sub_012_day_19_data.csv,1,300,170.0,Training at home,,,,,,,,,,,,,
12,19,4268,A,33.75758669968327,66.78774269303722,1.6878793349841634,1.0490994089714556,A,774.7175419935957,Correct,sub_012_day_19_data.csv,1,300,170.0,Training at home,,,,,,,,,,,,,
12,19,4269,B,51.382591395881605,40.78770475898336,2.56912956979408,0.6406917681380577,B,565.9242090187036,Correct,sub_012_day_19_data.csv,1,300,170.0,Training at home,,,,,,,,,,,,,
12,19,4270,B,38.670927144031175,17.59090747936015,1.9335463572015588,0.276317328535678,B,477.06870900583453,Correct,sub_012_day_19_data.csv,1,300,170.0,Training at home,,,,,,,,,,,,,
12,19,4271,B,61.6085593808692,30.029129569881153,3.08042796904346,0.4716964642521732,B,551.6240829892922,Correct,sub_012_day_19_data.csv,1,300,170.0,Training at home,,,,,,,,,,,,,
12,19,4272,B,54.56593809049194,35.051652353983116,2.7282969045245973,0.5505900676572837,B,493.1412080186419,Correct,sub_012_day_19_data.csv,1,300,170.0,Training at home,,,,,,,,,,,,,
12,19,4273,A,25.392008500387803,51.90138279177781,1.2696004250193902,0.8152650144490043,A,664.3422920024022,Correct,sub_012_day_19_data.csv,1,300,170.0,Training at home,,,,,,,,,,,,,
12,19,4274,A,40.552509826662174,56.32805467973293,2.027625491333109,0.8847990138642657,A,933.6543749959674,Correct,sub_012_day_19_data.csv,1,300,170.0,Training at home,,,,,,,,,,,,,
12,19,4275,B,69.3041006097376,57.89890321641096,3.46520503048688,0.9094738449779154,A,2032.7319169882685,Incorrect,sub_012_day_19_data.csv,0,300,171.0,Training at home,,,,,,,,,,,,,
12,19,4276,B,53.28543633594096,40.40629902159318,2.664271816797048,0.6347006608249479,A,1142.9634999949485,Incorrect,sub_012_day_19_data.csv,0,300,171.0,Training at home,,,,,,,,,,,,,
12,19,4277,A,40.65137171063529,63.440060365614386,2.0325685855317643,0.9965141379395358,B,726.8905420205556,Incorrect,sub_012_day_19_data.csv,0,300,171.0,Training at home,,,,,,,,,,,,,
12,19,4278,A,28.853222606914567,43.483039767312576,1.4426611303457284,0.68302999144371,A,766.0771250084508,Correct,sub_012_day_19_data.csv,1,300,171.0,Training at home,,,,,,,,,,,,,
12,19,4279,A,25.9564201961487,40.554729668613874,1.297821009807435,0.6370322039761869,A,801.906833978137,Correct,sub_012_day_19_data.csv,1,300,171.0,Training at home,,,,,,,,,,,,,
12,19,4280,A,51.00770629802357,80.28985536415334,2.550385314901178,1.261190098849056,A,754.9952920235228,Correct,sub_012_day_19_data.csv,1,300,171.0,Training at home,,,,,,,,,,,,,
12,19,4281,A,61.554196871635945,83.32255112408575,3.077709843581797,1.3088275724489389,A,1217.128624994075,Correct,sub_012_day_19_data.csv,1,300,171.0,Training at home,,,,,,,,,,,,,
12,19,4282,A,26.483327342698633,47.19496436818659,1.3241663671349315,0.7413367667276352,A,1110.0161250215024,Correct,sub_012_day_19_data.csv,1,300,171.0,Training at home,,,,,,,,,,,,,
12,19,4283,A,46.70507583949868,70.45037774333088,2.335253791974934,1.1066319458053708,A,904.4451260124332,Correct,sub_012_day_19_data.csv,1,300,171.0,Training at home,,,,,,,,,,,,,
12,19,4284,B,87.91055645650383,63.05115628492428,4.3955278228251915,0.9904052469253,B,641.0599170194473,Correct,sub_012_day_19_data.csv,1,300,171.0,Training at home,,,,,,,,,,,,,
12,19,4285,B,78.52187678763364,60.35373126630577,3.926093839381682,0.948034193814794,B,601.165708998451,Correct,sub_012_day_19_data.csv,1,300,171.0,Training at home,,,,,,,,,,,,,
12,19,4286,B,81.39916034638819,58.87692809517381,4.069958017319409,0.9248366238486628,B,681.2356669979636,Correct,sub_012_day_19_data.csv,1,300,171.0,Training at home,,,,,,,,,,,,,
12,19,4287,A,49.54553279934919,66.32891546528039,2.4772766399674593,1.0418921677315165,A,739.4911250157747,Correct,sub_012_day_19_data.csv,1,300,171.0,Training at home,,,,,,,,,,,,,
12,19,4288,B,52.39528542913333,42.6845240986956,2.619764271456666,0.6704869366521928,B,1209.7908760188147,Correct,sub_012_day_19_data.csv,1,300,171.0,Training at home,,,,,,,,,,,,,
12,19,4289,A,38.74457354261097,54.777115140802216,1.9372286771305485,0.8604369125559324,A,981.566542002838,Correct,sub_012_day_19_data.csv,1,300,171.0,Training at home,,,,,,,,,,,,,
12,19,4290,B,79.45919784421288,52.89430121715025,3.972959892210645,0.8308617406028245,B,393.01504197646864,Correct,sub_012_day_19_data.csv,1,300,171.0,Training at home,,,,,,,,,,,,,
12,19,4291,A,45.10455647929876,69.30048245092621,2.255227823964938,1.0885694327902908,B,1142.3934590129647,Incorrect,sub_012_day_19_data.csv,0,300,171.0,Training at home,,,,,,,,,,,,,
12,19,4292,A,21.618318495430408,36.328699718839744,1.0809159247715203,0.5706498807558825,A,571.7117919994052,Correct,sub_012_day_19_data.csv,1,300,171.0,Training at home,,,,,,,,,,,,,
12,19,4293,A,68.73243644476763,85.23032326192511,3.4366218222383815,1.338794787113736,A,711.9422919931822,Correct,sub_012_day_19_data.csv,1,300,171.0,Training at home,,,,,,,,,,,,,
12,19,4294,A,34.44206535996295,43.09806646637601,1.7221032679981476,0.6769828449734574,B,1332.7258749923203,Incorrect,sub_012_day_19_data.csv,0,300,171.0,Training at home,,,,,,,,,,,,,
12,19,4295,A,53.72473897908091,82.15983043038904,2.6862369489540456,1.2905635985014663,A,578.8320839928929,Correct,sub_012_day_19_data.csv,1,300,171.0,Training at home,,,,,,,,,,,,,
12,19,4296,B,73.13516755446405,60.03344190162136,3.656758377723202,0.9430031002392164,B,729.9496250052471,Correct,sub_012_day_19_data.csv,1,300,171.0,Training at home,,,,,,,,,,,,,
12,19,4297,A,41.8939185155924,65.23026326425413,2.09469592577962,1.0246345793135447,A,937.6706260081846,Correct,sub_012_day_19_data.csv,1,300,171.0,Training at home,,,,,,,,,,,,,
12,19,4298,B,84.26656003042162,59.47200764065903,4.213328001521081,0.9341841114906524,B,510.03975101048127,Correct,sub_012_day_19_data.csv,1,300,171.0,Training at home,,,,,,,,,,,,,
12,19,4299,B,76.23561454236565,58.369266574995535,3.811780727118282,0.9168622953371512,B,444.7163750010077,Correct,sub_012_day_19_data.csv,1,300,171.0,Training at home,,,,,,,,,,,,,
12,19,4300,B,78.86554422199566,52.55653077622212,3.943277211099783,0.8255560549237264,B,517.1316670021042,Correct,sub_012_day_19_data.csv,1,300,172.0,Training at home,,,,,,,,,,,,,
12,19,4301,A,17.400678110107734,32.23106635866388,0.8700339055053867,0.5062844064487179,A,548.4807500033639,Correct,sub_012_day_19_data.csv,1,300,172.0,Training at home,,,,,,,,,,,,,
12,19,4302,B,59.53773133175439,33.596406403071185,2.9768865665877193,0.5277311177145276,B,534.1585419955663,Correct,sub_012_day_19_data.csv,1,300,172.0,Training at home,,,,,,,,,,,,,
12,19,4303,B,35.90319669646615,21.719366606194797,1.7951598348233078,0.3411670128532252,B,364.8059589904733,Correct,sub_012_day_19_data.csv,1,300,172.0,Training at home,,,,,,,,,,,,,
12,19,4304,A,44.08831626081968,74.31086325009427,2.204415813040984,1.1672723103420597,A,937.4281259952112,Correct,sub_012_day_19_data.csv,1,300,172.0,Training at home,,,,,,,,,,,,,
12,19,4305,A,45.91192115757697,74.35178031855185,2.295596057878848,1.1679150341504232,A,667.7707089984324,Correct,sub_012_day_19_data.csv,1,300,172.0,Training at home,,,,,,,,,,,,,
12,19,4306,B,76.0331843056554,55.878930438462824,3.8016592152827697,0.8777441867796494,B,610.0698759837542,Correct,sub_012_day_19_data.csv,1,300,172.0,Training at home,,,,,,,,,,,,,
12,19,4307,A,56.03709007646049,78.43105253473017,2.8018545038230243,1.2319920922821173,A,523.0721249827184,Correct,sub_012_day_19_data.csv,1,300,172.0,Training at home,,,,,,,,,,,,,
12,19,4308,A,55.02557133992643,71.18799790769374,2.7512785669963216,1.1182184562528812,A,760.937124985503,Correct,sub_012_day_19_data.csv,1,300,172.0,Training at home,,,,,,,,,,,,,
12,19,4309,B,75.43576726096398,49.145907592125255,3.7717883630481994,0.7719821112271177,B,610.514833999332,Correct,sub_012_day_19_data.csv,1,300,172.0,Training at home,,,,,,,,,,,,,
12,19,4310,A,54.90073123807757,75.4652014374256,2.745036561903879,1.185404612187451,A,537.6802920072805,Correct,sub_012_day_19_data.csv,1,300,172.0,Training at home,,,,,,,,,,,,,
12,19,4311,B,70.3381816795543,61.44762247354112,3.516909083977714,0.9652169967171792,A,629.2289170087315,Incorrect,sub_012_day_19_data.csv,0,300,172.0,Training at home,,,,,,,,,,,,,
12,19,4312,A,49.51224290196315,64.86001741609763,2.4756121450981574,1.0188187711305918,B,630.5052090028767,Incorrect,sub_012_day_19_data.csv,0,300,172.0,Training at home,,,,,,,,,,,,,
12,19,4313,B,41.855554280328285,28.170387403755008,2.0927777140164143,0.4424994105820759,B,452.7220840100199,Correct,sub_012_day_19_data.csv,1,300,172.0,Training at home,,,,,,,,,,,,,
12,19,4314,A,13.092844494982948,32.21578622330327,0.6546422247491475,0.5060443866437441,A,540.428417007206,Correct,sub_012_day_19_data.csv,1,300,172.0,Training at home,,,,,,,,,,,,,
12,19,4315,A,24.92602164075876,50.3736186901357,1.246301082037938,0.7912669520583192,A,583.2696669967845,Correct,sub_012_day_19_data.csv,1,300,172.0,Training at home,,,,,,,,,,,,,
12,19,4316,B,73.98437861912772,56.40034665712533,3.699218930956386,0.8859345735897131,B,557.8354999888688,Correct,sub_012_day_19_data.csv,1,300,172.0,Training at home,,,,,,,,,,,,,
12,19,4317,A,54.465993519318154,71.21756678126286,2.723299675965908,1.1186829230327795,A,930.234625004232,Correct,sub_012_day_19_data.csv,1,300,172.0,Training at home,,,,,,,,,,,,,
12,19,4318,A,53.01034240732286,60.95353047342447,2.6505171203661426,0.9574558177283596,B,584.7288340155501,Incorrect,sub_012_day_19_data.csv,0,300,172.0,Training at home,,,,,,,,,,,,,
12,19,4319,A,37.70071038090181,51.80880818482685,1.8850355190450905,0.8138108559234739,A,644.1089170111809,Correct,sub_012_day_19_data.csv,1,300,172.0,Training at home,,,,,,,,,,,,,
12,19,4320,A,45.743362366574026,77.10934241477224,2.287168118328702,1.2112307182669415,A,893.0292919976637,Correct,sub_012_day_19_data.csv,1,300,172.0,Training at home,,,,,,,,,,,,,
12,19,4321,A,55.18487214307963,82.5691521616794,2.759243607153982,1.296993209221349,A,618.0177920032293,Correct,sub_012_day_19_data.csv,1,300,172.0,Training at home,,,,,,,,,,,,,
12,19,4322,A,53.35204477592453,69.98689409551595,2.667602238796227,1.099351561690199,A,586.4394590025768,Correct,sub_012_day_19_data.csv,1,300,172.0,Training at home,,,,,,,,,,,,,
12,19,4323,B,66.95601716249355,48.42097725186194,3.3478008581246774,0.7605949320704398,B,478.6517089814879,Correct,sub_012_day_19_data.csv,1,300,172.0,Training at home,,,,,,,,,,,,,
12,19,4324,B,48.55568448272541,38.88020792095167,2.4277842241362704,0.6107288778725272,A,1055.6541249970903,Incorrect,sub_012_day_19_data.csv,0,300,172.0,Training at home,,,,,,,,,,,,,
12,19,4325,B,50.95956111902003,35.378618981637835,2.5479780559510017,0.5557260474343291,B,576.4492079906631,Correct,sub_012_day_19_data.csv,1,300,173.0,Training at home,,,,,,,,,,,,,
12,19,4326,A,42.84737368433988,64.1403680217523,2.142368684216994,1.0075145448784135,A,914.3677920219488,Correct,sub_012_day_19_data.csv,1,300,173.0,Training at home,,,,,,,,,,,,,
12,19,4327,B,48.016268573232786,39.54381851176524,2.4008134286616394,0.6211528486572486,B,901.7946259991731,Correct,sub_012_day_19_data.csv,1,300,173.0,Training at home,,,,,,,,,,,,,
12,19,4328,A,30.09689456006916,40.17816376533452,1.504844728003458,0.6311171205995127,A,594.6020840201527,Correct,sub_012_day_19_data.csv,1,300,173.0,Training at home,,,,,,,,,,,,,
12,19,4329,A,24.821145320979543,52.95836429343677,1.2410572660489771,0.831868041051965,A,531.3419589947443,Correct,sub_012_day_19_data.csv,1,300,173.0,Training at home,,,,,,,,,,,,,
12,19,4330,A,19.83801940889433,43.66589902044592,0.9919009704447164,0.6859023378751333,B,816.9270000071265,Incorrect,sub_012_day_19_data.csv,0,300,173.0,Training at home,,,,,,,,,,,,,
12,19,4331,A,48.55128837511421,58.77787476478744,2.4275644187557104,0.9232806977733856,B,932.1509580186104,Incorrect,sub_012_day_19_data.csv,0,300,173.0,Training at home,,,,,,,,,,,,,
12,19,4332,B,52.30047325824138,34.869956559580565,2.615023662912069,0.5477359967928676,B,525.8170010056347,Correct,sub_012_day_19_data.csv,1,300,173.0,Training at home,,,,,,,,,,,,,
12,19,4333,B,86.9113679795146,69.4845931668456,4.34556839897573,1.0914614371531886,B,603.028917015763,Correct,sub_012_day_19_data.csv,1,300,173.0,Training at home,,,,,,,,,,,,,
12,19,4334,B,51.111461818968515,38.8521806712798,2.5555730909484256,0.6102886268641798,B,636.8484589911532,Correct,sub_012_day_19_data.csv,1,300,173.0,Training at home,,,,,,,,,,,,,
12,19,4335,A,52.12020919913859,68.86360364026112,2.60601045995693,1.0817069564798183,A,621.3695000042208,Correct,sub_012_day_19_data.csv,1,300,173.0,Training at home,,,,,,,,,,,,,
12,19,4336,A,51.53584305050121,72.58687751848842,2.5767921525250603,1.1401920057955268,A,1158.2348749798257,Correct,sub_012_day_19_data.csv,1,300,173.0,Training at home,,,,,,,,,,,,,
12,19,4337,A,56.041973257401594,83.11308878707406,2.8020986628700797,1.3055373457531405,A,725.288959016325,Correct,sub_012_day_19_data.csv,1,300,173.0,Training at home,,,,,,,,,,,,,
12,19,4338,B,77.86900916516372,59.2900034916827,3.893450458258186,0.9313251970039176,B,554.8136669967789,Correct,sub_012_day_19_data.csv,1,300,173.0,Training at home,,,,,,,,,,,,,
12,19,4339,A,33.386289535721865,42.61510350590592,1.6693144767860932,0.6693964805306134,A,719.9295830214396,Correct,sub_012_day_19_data.csv,1,300,173.0,Training at home,,,,,,,,,,,,,
12,19,4340,A,34.2601911782497,44.16672647041172,1.713009558912485,0.6937693170627764,A,675.840876006987,Correct,sub_012_day_19_data.csv,1,300,173.0,Training at home,,,,,,,,,,,,,
12,19,4341,B,52.87964697158301,34.54406581469868,2.6439823485791503,0.5426169169428984,B,558.5458340065088,Correct,sub_012_day_19_data.csv,1,300,173.0,Training at home,,,,,,,,,,,,,
12,19,4342,B,59.11706047452207,30.558194974309703,2.955853023726103,0.4800070041912795,B,568.9407500030939,Correct,sub_012_day_19_data.csv,1,300,173.0,Training at home,,,,,,,,,,,,,
12,19,4343,A,52.679632254208855,66.28339350680976,2.6339816127104427,1.0411771104799747,A,655.8888749859761,Correct,sub_012_day_19_data.csv,1,300,173.0,Training at home,,,,,,,,,,,,,
12,19,4344,B,47.15514163027386,38.67532917031002,2.357757081513693,0.607510649983065,B,815.1890839799307,Correct,sub_012_day_19_data.csv,1,300,173.0,Training at home,,,,,,,,,,,,,
12,19,4345,A,38.58940561939173,71.52570494869585,1.9294702809695865,1.1235231460482695,A,490.21274998085573,Correct,sub_012_day_19_data.csv,1,300,173.0,Training at home,,,,,,,,,,,,,
12,19,4346,B,57.73733632908004,29.360248896584856,2.886866816454002,0.4611897112053941,B,556.8519170046784,Correct,sub_012_day_19_data.csv,1,300,173.0,Training at home,,,,,,,,,,,,,
12,19,4347,A,44.21281189544548,58.148092166169306,2.2106405947722743,0.9133880958474984,A,1045.69004199584,Correct,sub_012_day_19_data.csv,1,300,173.0,Training at home,,,,,,,,,,,,,
12,19,4348,B,58.715287002428525,38.4809573024383,2.935764350121426,0.6044574638222133,B,653.1237500021234,Correct,sub_012_day_19_data.csv,1,300,173.0,Training at home,,,,,,,,,,,,,
12,19,4349,A,29.380747838184792,61.710665215901194,1.4690373919092397,0.969348862452072,A,608.1594590214081,Correct,sub_012_day_19_data.csv,1,300,173.0,Training at home,,,,,,,,,,,,,
12,19,4350,B,50.80795168193986,34.186039052885555,2.540397584096993,0.5369930457193951,B,622.6052500132937,Correct,sub_012_day_19_data.csv,1,300,174.0,Training at home,,,,,,,,,,,,,
12,19,4351,B,47.821553616455525,22.590662736491215,2.3910776808227765,0.3548533004634274,B,492.02158401021734,Correct,sub_012_day_19_data.csv,1,300,174.0,Training at home,,,,,,,,,,,,,
12,19,4352,B,77.84131622874936,59.56577656207895,3.892065811437468,0.9356570302639916,B,1092.7957509993576,Correct,sub_012_day_19_data.csv,1,300,174.0,Training at home,,,,,,,,,,,,,
12,19,4353,B,65.18848008643822,37.21469419327623,3.259424004321911,0.5845670494159367,B,469.6881670097355,Correct,sub_012_day_19_data.csv,1,300,174.0,Training at home,,,,,,,,,,,,,
12,19,4354,B,80.94963152520434,50.648227079287814,4.047481576260217,0.795580490548191,B,572.3576669988688,Correct,sub_012_day_19_data.csv,1,300,174.0,Training at home,,,,,,,,,,,,,
12,19,4355,B,40.407445744457334,14.568677779538556,2.020372287222867,0.2288442554235759,B,593.1401669804472,Correct,sub_012_day_19_data.csv,1,300,174.0,Training at home,,,,,,,,,,,,,
12,19,4356,B,45.053167446642206,16.41266146075259,2.2526583723321103,0.2578094833547833,B,560.1736249809619,Correct,sub_012_day_19_data.csv,1,300,174.0,Training at home,,,,,,,,,,,,,
12,19,4357,A,64.74409572285542,83.6172275507189,3.237204786142771,1.3134563389344225,A,701.2705419911072,Correct,sub_012_day_19_data.csv,1,300,174.0,Training at home,,,,,,,,,,,,,
12,19,4358,A,26.616591761328976,41.87717191325724,1.330829588066449,0.6578050781790289,A,567.3710840055719,Correct,sub_012_day_19_data.csv,1,300,174.0,Training at home,,,,,,,,,,,,,
12,19,4359,A,59.7652970887667,83.33108008784072,2.9882648544383352,1.3089615450983152,A,822.3331669869367,Correct,sub_012_day_19_data.csv,1,300,174.0,Training at home,,,,,,,,,,,,,
12,19,4360,B,68.47658404548326,51.692215835135414,3.423829202274163,0.8119794275771969,B,904.2620000254828,Correct,sub_012_day_19_data.csv,1,300,174.0,Training at home,,,,,,,,,,,,,
12,19,4361,A,31.97493225767533,57.08044839283159,1.5987466128837664,0.8966175866726552,A,605.118167004548,Correct,sub_012_day_19_data.csv,1,300,174.0,Training at home,,,,,,,,,,,,,
12,19,4362,A,46.58569027583574,59.90515343885425,2.329284513791787,0.9409879497783692,A,805.7842499983963,Correct,sub_012_day_19_data.csv,1,300,174.0,Training at home,,,,,,,,,,,,,
12,19,4363,B,80.26009780216094,54.1726045956534,4.013004890108047,0.850941283117647,B,458.7619590165559,Correct,sub_012_day_19_data.csv,1,300,174.0,Training at home,,,,,,,,,,,,,
12,19,4364,B,35.53100034243043,10.699332155315217,1.7765500171215216,0.1680647164872766,B,561.9571669958532,Correct,sub_012_day_19_data.csv,1,300,174.0,Training at home,,,,,,,,,,,,,
12,19,4365,B,43.569197383930685,35.250827519790775,2.1784598691965344,0.553718703845678,B,584.5944999891799,Correct,sub_012_day_19_data.csv,1,300,174.0,Training at home,,,,,,,,,,,,,
12,19,4366,A,63.40608296000903,87.79959884483284,3.1703041480004517,1.3791528735952887,A,585.6609170150477,Correct,sub_012_day_19_data.csv,1,300,174.0,Training at home,,,,,,,,,,,,,
12,19,4367,B,60.64531151017994,44.37684683381817,3.0322655755089967,0.6970698800130132,B,694.8160839965567,Correct,sub_012_day_19_data.csv,1,300,174.0,Training at home,,,,,,,,,,,,,
12,19,4368,A,69.63022757850962,88.01948099780878,3.481511378925481,1.382606774377512,A,552.1685419953428,Correct,sub_012_day_19_data.csv,1,300,174.0,Training at home,,,,,,,,,,,,,
12,19,4369,A,55.77547721250204,71.15085421439544,2.788773860625102,1.1176350044829155,A,671.7941669921856,Correct,sub_012_day_19_data.csv,1,300,174.0,Training at home,,,,,,,,,,,,,
12,19,4370,B,46.48254373149574,25.74092894218907,2.324127186574787,0.4043375663067903,B,510.4231669974979,Correct,sub_012_day_19_data.csv,1,300,174.0,Training at home,,,,,,,,,,,,,
12,19,4371,A,40.411762373151774,65.66736506964153,2.0205881186575887,1.031500558416924,A,567.0620829914697,Correct,sub_012_day_19_data.csv,1,300,174.0,Training at home,,,,,,,,,,,,,
12,19,4372,A,25.70712935445777,42.14319254430016,1.2853564677228886,0.6619837204799677,A,562.6252079964615,Correct,sub_012_day_19_data.csv,1,300,174.0,Training at home,,,,,,,,,,,,,
12,19,4373,B,60.296864880575264,53.34090557013324,3.0148432440287634,0.8378769853747872,B,681.8237089901231,Correct,sub_012_day_19_data.csv,1,300,174.0,Training at home,,,,,,,,,,,,,
12,19,4374,A,15.196987981969912,44.64902399589823,0.7598493990984956,0.7013452288773413,A,509.0477500052657,Correct,sub_012_day_19_data.csv,1,300,174.0,Training at home,,,,,,,,,,,,,
12,19,4375,A,55.19003499466223,69.69914634915587,2.759501749733112,1.0948316306599395,A,556.588125997223,Correct,sub_012_day_19_data.csv,1,300,175.0,Training at home,,,,,,,,,,,,,
12,19,4376,A,48.0654277872297,55.73187141124433,2.403271389361485,0.875434188981881,B,1632.274708012119,Incorrect,sub_012_day_19_data.csv,0,300,175.0,Training at home,,,,,,,,,,,,,
12,19,4377,A,28.228163905664857,43.14659439645617,1.411408195283243,0.6777451199166262,A,685.1606669952162,Correct,sub_012_day_19_data.csv,1,300,175.0,Training at home,,,,,,,,,,,,,
12,19,4378,A,50.22055358396511,66.1375940921521,2.511027679198256,1.0388868986300437,A,1686.3077089947185,Correct,sub_012_day_19_data.csv,1,300,175.0,Training at home,,,,,,,,,,,,,
12,19,4379,A,27.052599916992264,56.76438508664667,1.3526299958496133,0.8916528758687561,A,530.298583995318,Correct,sub_012_day_19_data.csv,1,300,175.0,Training at home,,,,,,,,,,,,,
12,19,4380,A,63.645353196212895,82.16284766402435,3.1822676598106447,1.290610993096581,A,740.1397919747978,Correct,sub_012_day_19_data.csv,1,300,175.0,Training at home,,,,,,,,,,,,,
12,19,4381,A,42.556568903286795,55.44744269862808,2.1278284451643397,0.8709663932117548,A,742.1678749960847,Correct,sub_012_day_19_data.csv,1,300,175.0,Training at home,,,,,,,,,,,,,
12,19,4382,B,53.26471683161455,32.565961002294884,2.6632358415807276,0.5115449192095065,B,650.133791990811,Correct,sub_012_day_19_data.csv,1,300,175.0,Training at home,,,,,,,,,,,,,
12,19,4383,B,75.08448203414875,52.61818684619905,3.754224101707438,0.8265245462061701,B,626.3407919905148,Correct,sub_012_day_19_data.csv,1,300,175.0,Training at home,,,,,,,,,,,,,
12,19,4384,A,33.724412594444345,48.50217533740201,1.686220629722217,0.761870388615531,A,577.865125000244,Correct,sub_012_day_19_data.csv,1,300,175.0,Training at home,,,,,,,,,,,,,
12,19,4385,B,45.197276126071394,25.05931840050892,2.2598638063035694,0.3936308529550317,B,619.201625988353,Correct,sub_012_day_19_data.csv,1,300,175.0,Training at home,,,,,,,,,,,,,
12,19,4386,B,46.08825495536337,28.230198727446613,2.3044127477681684,0.4434389246576309,B,670.6067509949207,Correct,sub_012_day_19_data.csv,1,300,175.0,Training at home,,,,,,,,,,,,,
12,19,4387,B,63.76516015912378,47.1837284733365,3.188258007956189,0.7411602737040475,B,1455.9664580156095,Correct,sub_012_day_19_data.csv,1,300,175.0,Training at home,,,,,,,,,,,,,
12,19,4388,A,57.3394520586082,77.01409608621259,2.8669726029304106,1.2097345924365197,A,633.4672500088345,Correct,sub_012_day_19_data.csv,1,300,175.0,Training at home,,,,,,,,,,,,,
12,19,4389,B,53.95928764030528,43.95771037532854,2.6979643820152637,0.6904860999187998,B,572.9728750011418,Correct,sub_012_day_19_data.csv,1,300,175.0,Training at home,,,,,,,,,,,,,
12,19,4390,A,51.107128571803855,76.22523010102196,2.555356428590193,1.1973431145178108,A,1083.531916985521,Correct,sub_012_day_19_data.csv,1,300,175.0,Training at home,,,,,,,,,,,,,
12,19,4391,B,88.21688134544773,61.01576049298419,4.410844067272387,0.9584333245897672,B,1444.874709006399,Correct,sub_012_day_19_data.csv,1,300,175.0,Training at home,,,,,,,,,,,,,
12,19,4392,A,19.093148138017625,45.12920556262461,0.9546574069008812,0.7088879032894255,A,526.9464589946438,Correct,sub_012_day_19_data.csv,1,300,175.0,Training at home,,,,,,,,,,,,,
12,19,4393,B,59.76207665074366,36.161559355598754,2.988103832537183,0.5680244460695015,B,446.6638750163838,Correct,sub_012_day_19_data.csv,1,300,175.0,Training at home,,,,,,,,,,,,,
12,19,4394,B,55.190592562996464,42.87627094201059,2.759529628149823,0.67349888902373,B,688.9225839986466,Correct,sub_012_day_19_data.csv,1,300,175.0,Training at home,,,,,,,,,,,,,
12,19,4395,A,30.098016203128967,52.875071375917386,1.5049008101564485,0.83055967896309,A,4421.011084021302,Correct,sub_012_day_19_data.csv,1,300,175.0,Training at home,,,,,,,,,,,,,
12,19,4396,B,50.51693299524182,39.7248045126335,2.525846649762091,0.6239957701109002,B,767.0433749735821,Correct,sub_012_day_19_data.csv,1,300,175.0,Training at home,,,,,,,,,,,,,
12,19,4397,B,40.975534471486256,26.86442392500307,2.0487767235743126,0.4219853842285576,B,1491.823207994457,Correct,sub_012_day_19_data.csv,1,300,175.0,Training at home,,,,,,,,,,,,,
12,19,4398,B,73.02694626092973,44.67195484990031,3.6513473130464864,0.7017054258897087,B,1267.2419589944184,Correct,sub_012_day_19_data.csv,1,300,175.0,Training at home,,,,,,,,,,,,,
12,19,4399,A,60.77469717611613,79.83751403604577,3.0387348588058063,1.2540847378825668,A,635.3750010021031,Correct,sub_012_day_19_data.csv,1,300,175.0,Training at home,,,,,,,,,,,,,
12,19,4400,B,72.47634650923102,41.44422716728969,3.623817325461551,0.651004398012319,B,1194.00683400454,Correct,sub_012_day_19_data.csv,1,300,176.0,Training at home,,,,,,,,,,,,,
12,19,4401,A,41.88404669424375,64.5953149825901,2.0942023347121874,1.0146608350281188,A,497.2751250024885,Correct,sub_012_day_19_data.csv,1,300,176.0,Training at home,,,,,,,,,,,,,
12,19,4402,A,51.3954837559662,63.11320385006104,2.56977418779831,0.991379887799334,A,661.1014589725528,Correct,sub_012_day_19_data.csv,1,300,176.0,Training at home,,,,,,,,,,,,,
12,19,4403,B,36.159866392088574,12.615280452033822,1.8079933196044289,0.1981603619554219,B,1491.549667000072,Correct,sub_012_day_19_data.csv,1,300,176.0,Training at home,,,,,,,,,,,,,
12,19,4404,A,67.49854835635429,86.15134730073748,3.374927417817714,1.3532621988842988,A,493.62774999463,Correct,sub_012_day_19_data.csv,1,300,176.0,Training at home,,,,,,,,,,,,,
12,19,4405,A,56.57939639662263,72.06212823391857,2.8289698198311317,1.1319492633086212,A,547.4876670050435,Correct,sub_012_day_19_data.csv,1,300,176.0,Training at home,,,,,,,,,,,,,
12,19,4406,A,21.30919434914146,50.8920977547448,1.065459717457073,0.7994112021603993,A,767.1524589823093,Correct,sub_012_day_19_data.csv,1,300,176.0,Training at home,,,,,,,,,,,,,
12,19,4407,A,26.80568042542815,49.35368539202163,1.3402840212714071,0.7752458772757852,A,498.3404169906862,Correct,sub_012_day_19_data.csv,1,300,176.0,Training at home,,,,,,,,,,,,,
12,19,4408,A,31.021718549129034,42.220842832344616,1.551085927456452,0.6632034483523155,A,604.921916994499,Correct,sub_012_day_19_data.csv,1,300,176.0,Training at home,,,,,,,,,,,,,
12,19,4409,A,14.499865914775269,41.00696552004416,0.7249932957387634,0.6441359081189034,A,506.62812500377186,Correct,sub_012_day_19_data.csv,1,300,176.0,Training at home,,,,,,,,,,,,,
12,19,4410,B,43.95370514748538,25.758617124911865,2.197685257374269,0.4046154116312767,B,1233.1448750046548,Correct,sub_012_day_19_data.csv,1,300,176.0,Training at home,,,,,,,,,,,,,
12,19,4411,B,82.57998656012236,65.83354993447497,4.128999328006119,1.034110984169417,B,1143.6507510079537,Correct,sub_012_day_19_data.csv,1,300,176.0,Training at home,,,,,,,,,,,,,
12,19,4412,A,50.9219843027205,72.78016549922009,2.546099215136025,1.1432281662969956,A,807.6110830006655,Correct,sub_012_day_19_data.csv,1,300,176.0,Training at home,,,,,,,,,,,,,
12,19,4413,A,42.64576658533697,50.4511581806828,2.1322883292668484,0.7924849395276483,A,527.906167000765,Correct,sub_012_day_19_data.csv,1,300,176.0,Training at home,,,,,,,,,,,,,
12,19,4414,B,68.41560779928153,54.82604559612626,3.4207803899640767,0.8612055103508465,B,667.6997079921421,Correct,sub_012_day_19_data.csv,1,300,176.0,Training at home,,,,,,,,,,,,,
12,19,4415,B,35.3698067003787,20.431028555472487,1.7684903350189354,0.3209298460757782,B,585.164749994874,Correct,sub_012_day_19_data.csv,1,300,176.0,Training at home,,,,,,,,,,,,,
12,19,4416,B,54.07081301060209,25.06115714692799,2.7035406505301047,0.3936597359162415,B,515.793583006598,Correct,sub_012_day_19_data.csv,1,300,176.0,Training at home,,,,,,,,,,,,,
12,19,4417,A,19.6507394615998,48.54616804198152,0.98253697307999,0.7625614244031237,A,497.3957499896642,Correct,sub_012_day_19_data.csv,1,300,176.0,Training at home,,,,,,,,,,,,,
12,19,4418,B,60.14910463171922,51.36082189157632,3.007455231585961,0.8067739036845502,B,616.6207919886801,Correct,sub_012_day_19_data.csv,1,300,176.0,Training at home,,,,,,,,,,,,,
12,19,4419,A,15.732985347716395,30.62462193493586,0.7866492673858199,0.4810504364487966,A,616.6574170056265,Correct,sub_012_day_19_data.csv,1,300,176.0,Training at home,,,,,,,,,,,,,
12,19,4420,A,50.3688482540851,67.81511570609155,2.518442412704255,1.065237346522995,A,523.8666670047678,Correct,sub_012_day_19_data.csv,1,300,176.0,Training at home,,,,,,,,,,,,,
12,19,4421,B,75.88791377328994,43.71671955274304,3.7943956886644967,0.686700624929714,B,526.9682920188643,Correct,sub_012_day_19_data.csv,1,300,176.0,Training at home,,,,,,,,,,,,,
12,19,4422,A,52.77092381951853,74.67217646159148,2.6385461909759265,1.1729478049964823,A,688.1597500178032,Correct,sub_012_day_19_data.csv,1,300,176.0,Training at home,,,,,,,,,,,,,
12,19,4423,B,85.15153075620927,65.10550519496614,4.257576537810463,1.0226748841437887,B,789.7486669826321,Correct,sub_012_day_19_data.csv,1,300,176.0,Training at home,,,,,,,,,,,,,
12,19,4424,A,41.98057928179805,74.27786066929184,2.0990289640899022,1.1667539070150674,A,528.1713749864139,Correct,sub_012_day_19_data.csv,1,300,176.0,Training at home,,,,,,,,,,,,,
12,19,4425,B,57.75013346926626,28.93181125939456,2.887506673463313,0.4544598285378021,B,548.2435009907931,Correct,sub_012_day_19_data.csv,1,300,177.0,Training at home,,,,,,,,,,,,,
12,19,4426,A,65.49591772799293,85.70779368373279,3.2747958863996467,1.3462948749610228,A,525.962958985474,Correct,sub_012_day_19_data.csv,1,300,177.0,Training at home,,,,,,,,,,,,,
12,19,4427,B,77.59322256385315,63.72665251310978,3.8796611281926574,1.001015916865276,B,661.493541992968,Correct,sub_012_day_19_data.csv,1,300,177.0,Training at home,,,,,,,,,,,,,
12,19,4428,B,36.47514495737825,10.973050041762772,1.8237572478689124,0.1723642669933754,B,513.1671249982901,Correct,sub_012_day_19_data.csv,1,300,177.0,Training at home,,,,,,,,,,,,,
12,19,4429,A,33.820421487441834,51.55054901169491,1.6910210743720917,0.8097541303183066,A,578.2569170114584,Correct,sub_012_day_19_data.csv,1,300,177.0,Training at home,,,,,,,,,,,,,
12,19,4430,B,48.51746155272144,36.12868661906806,2.425873077636072,0.5675080823315605,B,508.7392089772038,Correct,sub_012_day_19_data.csv,1,300,177.0,Training at home,,,,,,,,,,,,,
12,19,4431,B,86.88862476191622,68.88096911566718,4.344431238095811,1.0819797327296272,B,472.23670899984427,Correct,sub_012_day_19_data.csv,1,300,177.0,Training at home,,,,,,,,,,,,,
12,19,4432,B,75.11819188855172,62.53980456700991,3.755909594427586,0.9823729529232988,B,835.4103760211729,Correct,sub_012_day_19_data.csv,1,300,177.0,Training at home,,,,,,,,,,,,,
12,19,4433,A,34.83434574057264,42.64096665521802,1.741717287028632,0.6698027379300012,B,593.9357509778347,Incorrect,sub_012_day_19_data.csv,0,300,177.0,Training at home,,,,,,,,,,,,,
12,19,4434,A,53.3913729375645,71.53742806222947,2.6695686468782247,1.123707292285042,A,556.9604170159437,Correct,sub_012_day_19_data.csv,1,300,177.0,Training at home,,,,,,,,,,,,,
12,19,4435,B,88.87828042895626,62.91144993347187,4.443914021447813,0.9882107446883868,B,475.6506670091767,Correct,sub_012_day_19_data.csv,1,300,177.0,Training at home,,,,,,,,,,,,,
12,19,4436,A,48.62548219758823,72.97045876175098,2.431274109879411,1.1462172858749693,A,577.9670840129256,Correct,sub_012_day_19_data.csv,1,300,177.0,Training at home,,,,,,,,,,,,,
12,19,4437,A,38.03442552021382,55.35434664348852,1.9017212760106912,0.8695040437972318,B,732.4646250053775,Incorrect,sub_012_day_19_data.csv,0,300,177.0,Training at home,,,,,,,,,,,,,
12,19,4438,A,51.17144467078661,62.3361640096052,2.558572233539331,0.9791741745277208,A,547.8030419908464,Correct,sub_012_day_19_data.csv,1,300,177.0,Training at home,,,,,,,,,,,,,
12,19,4439,B,60.02889270522325,40.926185163141184,3.001444635261162,0.6428670132398996,B,489.06862500007264,Correct,sub_012_day_19_data.csv,1,300,177.0,Training at home,,,,,,,,,,,,,
12,19,4440,A,46.300371232690274,63.36364807977781,2.315018561634514,0.9953138565603948,A,780.4305420140736,Correct,sub_012_day_19_data.csv,1,300,177.0,Training at home,,,,,,,,,,,,,
12,19,4441,B,51.83070484765443,41.3852404899526,2.591535242382722,0.6500778374514096,B,431.3614580023568,Correct,sub_012_day_19_data.csv,1,300,177.0,Training at home,,,,,,,,,,,,,
12,19,4442,A,34.35752329296646,56.06512660078901,1.717876164648323,0.8806689492581022,A,582.1950009849388,Correct,sub_012_day_19_data.csv,1,300,177.0,Training at home,,,,,,,,,,,,,
12,19,4443,A,12.955250069410916,38.18313362729778,0.6477625034705458,0.5997792604727805,A,556.4155419997405,Correct,sub_012_day_19_data.csv,1,300,177.0,Training at home,,,,,,,,,,,,,
12,19,4444,B,64.42689694375035,39.5231591166901,3.2213448471875177,0.6208283316382703,B,440.6850000086706,Correct,sub_012_day_19_data.csv,1,300,177.0,Training at home,,,,,,,,,,,,,
12,19,4445,B,76.72105895398343,63.12181608286086,3.836052947699171,0.9915151684358088,B,536.7414169886615,Correct,sub_012_day_19_data.csv,1,300,177.0,Training at home,,,,,,,,,,,,,
12,19,4446,B,58.46110359961981,46.76727266267527,2.9230551799809903,0.734618601127457,B,534.0721250104252,Correct,sub_012_day_19_data.csv,1,300,177.0,Training at home,,,,,,,,,,,,,
12,19,4447,B,69.71069442834728,59.60311857487068,3.485534721417364,0.9362435972292752,B,493.9990830025636,Correct,sub_012_day_19_data.csv,1,300,177.0,Training at home,,,,,,,,,,,,,
12,19,4448,B,54.08005396581171,30.436094798154116,2.704002698290586,0.4780890591092174,B,497.0344169996679,Correct,sub_012_day_19_data.csv,1,300,177.0,Training at home,,,,,,,,,,,,,
12,19,4449,A,24.62614285903161,54.025260728006735,1.2313071429515805,0.8486268110568956,A,608.8861669995822,Correct,sub_012_day_19_data.csv,1,300,177.0,Training at home,,,,,,,,,,,,,
12,19,4450,B,67.89632311882794,41.18396350931146,3.3948161559413967,0.646916186032815,B,553.7845420185477,Correct,sub_012_day_19_data.csv,1,300,178.0,Training at home,,,,,,,,,,,,,
12,19,4451,B,69.94637449288476,38.09087934958513,3.4973187246442374,0.598330133667159,B,522.8855420136824,Correct,sub_012_day_19_data.csv,1,300,178.0,Training at home,,,,,,,,,,,,,
12,19,4452,A,41.734354901122046,72.0528173746359,2.0867177450561023,1.1318030086730155,A,562.7685420040507,Correct,sub_012_day_19_data.csv,1,300,178.0,Training at home,,,,,,,,,,,,,
12,19,4453,B,43.18442409307993,22.91083065715489,2.159221204653997,0.359882486400788,B,384.1584170004353,Correct,sub_012_day_19_data.csv,1,300,178.0,Training at home,,,,,,,,,,,,,
12,19,4454,B,74.31918529325283,49.8852431046388,3.715959264662642,0.7835955663003706,B,465.09891701862216,Correct,sub_012_day_19_data.csv,1,300,178.0,Training at home,,,,,,,,,,,,,
12,19,4455,B,39.80364666657856,13.706402268778492,1.990182333328928,0.2152996633737049,B,422.394126013387,Correct,sub_012_day_19_data.csv,1,300,178.0,Training at home,,,,,,,,,,,,,
12,19,4456,B,64.40300761959722,53.74800105495199,3.2201503809798613,0.8442716262968681,B,465.6560840085149,Correct,sub_012_day_19_data.csv,1,300,178.0,Training at home,,,,,,,,,,,,,
12,19,4457,B,75.75583606961379,57.78289899481049,3.7877918034806894,0.9076516549260883,B,571.2427919788752,Correct,sub_012_day_19_data.csv,1,300,178.0,Training at home,,,,,,,,,,,,,
12,19,4458,A,18.422579803952843,45.39530850224815,0.9211289901976422,0.7130678384905254,A,516.8284169922117,Correct,sub_012_day_19_data.csv,1,300,178.0,Training at home,,,,,,,,,,,,,
12,19,4459,B,44.39628018930769,20.53838492711435,2.2198140094653844,0.322616196018109,B,653.1381249951664,Correct,sub_012_day_19_data.csv,1,300,178.0,Training at home,,,,,,,,,,,,,
12,19,4460,A,39.122523728660745,70.07668925111392,1.9561261864330373,1.1007620606959716,A,602.5139590201434,Correct,sub_012_day_19_data.csv,1,300,178.0,Training at home,,,,,,,,,,,,,
12,19,4461,B,39.58291318475881,28.705377750673005,1.9791456592379404,0.450903019300171,B,784.6516249992419,Correct,sub_012_day_19_data.csv,1,300,178.0,Training at home,,,,,,,,,,,,,
12,19,4462,A,56.82157905663848,85.13822422619094,2.841078952831924,1.33734809884341,A,483.2840839808341,Correct,sub_012_day_19_data.csv,1,300,178.0,Training at home,,,,,,,,,,,,,
12,19,4463,A,28.384831740310272,50.04063582719933,1.4192415870155135,0.7860364694784581,A,483.56091702589765,Correct,sub_012_day_19_data.csv,1,300,178.0,Training at home,,,,,,,,,,,,,
12,19,4464,B,45.263899143562256,17.68828326879723,2.2631949571781127,0.2778469038593431,B,384.8601259815041,Correct,sub_012_day_19_data.csv,1,300,178.0,Training at home,,,,,,,,,,,,,
12,19,4465,B,62.98750253078458,37.73768585197745,3.149375126539229,0.5927821831802592,B,585.3148339956533,Correct,sub_012_day_19_data.csv,1,300,178.0,Training at home,,,,,,,,,,,,,
12,19,4466,A,32.1376803664167,54.35482149759566,1.606884018320835,0.8538035395201553,A,499.0484169975389,Correct,sub_012_day_19_data.csv,1,300,178.0,Training at home,,,,,,,,,,,,,
12,19,4467,A,49.726049532205735,66.76361672011262,2.4863024766102866,1.0487204390749525,A,458.6158340098336,Correct,sub_012_day_19_data.csv,1,300,178.0,Training at home,,,,,,,,,,,,,
12,19,4468,B,59.80204131524138,28.357496491908503,2.990102065762069,0.4454385132658904,B,382.7260420075618,Correct,sub_012_day_19_data.csv,1,300,178.0,Training at home,,,,,,,,,,,,,
12,19,4469,A,20.9101145107674,51.77983929248376,1.04550572553837,0.8133558136266354,A,455.0717509991955,Correct,sub_012_day_19_data.csv,1,300,178.0,Training at home,,,,,,,,,,,,,
12,19,4470,A,29.403808827479168,62.132128398951224,1.4701904413739584,0.9759691906502146,A,486.0303750028834,Correct,sub_012_day_19_data.csv,1,300,178.0,Training at home,,,,,,,,,,,,,
12,19,4471,A,11.029746478529743,35.3507967433944,0.5514873239264872,0.5552890167379692,A,462.58045799913816,Correct,sub_012_day_19_data.csv,1,300,178.0,Training at home,,,,,,,,,,,,,
12,19,4472,B,54.62359493698402,42.2399172508932,2.731179746849201,0.6635030686182343,B,929.7135419910774,Correct,sub_012_day_19_data.csv,1,300,178.0,Training at home,,,,,,,,,,,,,
12,19,4473,A,17.20661035020286,38.05589871716279,0.8603305175101429,0.5977806591779793,A,468.05716698872857,Correct,sub_012_day_19_data.csv,1,300,178.0,Training at home,,,,,,,,,,,,,
12,19,4474,A,31.90340867819736,61.459226638140485,1.595170433909868,0.9653992745084614,A,655.9026670001913,Correct,sub_012_day_19_data.csv,1,300,178.0,Training at home,,,,,,,,,,,,,
12,19,4475,A,49.881260669115505,64.71041242771383,2.494063033455775,1.016468781468357,A,497.8302090021316,Correct,sub_012_day_19_data.csv,1,300,179.0,Training at home,,,,,,,,,,,,,
12,19,4476,B,51.19313850477119,27.616702004264273,2.5596569252385595,0.4338021406648757,B,916.5240000002086,Correct,sub_012_day_19_data.csv,1,300,179.0,Training at home,,,,,,,,,,,,,
12,19,4477,A,65.84206275632926,84.73560818185614,3.2921031378164627,1.3310238208079122,A,423.94766697543673,Correct,sub_012_day_19_data.csv,1,300,179.0,Training at home,,,,,,,,,,,,,
12,19,4478,A,64.05352137273408,77.9109149995059,3.2026760686367037,1.2238217909845328,A,1094.419792003464,Correct,sub_012_day_19_data.csv,1,300,179.0,Training at home,,,,,,,,,,,,,
12,19,4479,A,59.39843349483421,76.02878652338681,2.9699216747417103,1.1942573860160932,A,1476.564042008249,Correct,sub_012_day_19_data.csv,1,300,179.0,Training at home,,,,,,,,,,,,,
12,19,4480,A,61.32079022878892,70.82836770643293,3.0660395114394463,1.112569398261431,B,1880.9038340114057,Incorrect,sub_012_day_19_data.csv,0,300,179.0,Training at home,,,,,,,,,,,,,
12,19,4481,A,69.00690687952614,83.01422067726688,3.450345343976307,1.3039843291159177,A,593.3248329965863,Correct,sub_012_day_19_data.csv,1,300,179.0,Training at home,,,,,,,,,,,,,
12,19,4482,A,40.20294457937919,58.76506542088719,2.0101472289689597,0.923079489069914,A,542.4182919960003,Correct,sub_012_day_19_data.csv,1,300,179.0,Training at home,,,,,,,,,,,,,
12,19,4483,A,58.26807709209419,76.98867085854107,2.9134038546047094,1.2093352138941762,A,665.5991259904113,Correct,sub_012_day_19_data.csv,1,300,179.0,Training at home,,,,,,,,,,,,,
12,19,4484,B,71.64719522849609,41.76671999125562,3.582359761424805,0.6560701034453531,B,724.3176259798929,Correct,sub_012_day_19_data.csv,1,300,179.0,Training at home,,,,,,,,,,,,,
12,19,4485,B,82.28012187482955,51.95027461160943,4.1140060937414775,0.8160330053590226,B,424.00120801175945,Correct,sub_012_day_19_data.csv,1,300,179.0,Training at home,,,,,,,,,,,,,
12,19,4486,A,11.762344209202324,34.09243964933803,0.5881172104601162,0.5355227897265689,A,463.68470799643546,Correct,sub_012_day_19_data.csv,1,300,179.0,Training at home,,,,,,,,,,,,,
12,19,4487,B,79.09890345411367,65.17743790357173,3.954945172705683,1.0238048004883291,B,529.888501012465,Correct,sub_012_day_19_data.csv,1,300,179.0,Training at home,,,,,,,,,,,,,
12,19,4488,B,34.62236321952644,24.129809272823973,1.7311181609763222,0.3790301577201333,B,309.15266697411425,Correct,sub_012_day_19_data.csv,1,300,179.0,Training at home,,,,,,,,,,,,,
12,19,4489,A,21.79516257793099,49.69696048433934,1.0897581288965497,0.7806380298167137,A,486.89062500488944,Correct,sub_012_day_19_data.csv,1,300,179.0,Training at home,,,,,,,,,,,,,
12,19,4490,A,25.84147198898568,53.939185232156845,1.2920735994492842,0.8472747403298151,A,436.64775099023245,Correct,sub_012_day_19_data.csv,1,300,179.0,Training at home,,,,,,,,,,,,,
12,19,4491,B,67.15830070992368,52.3860672344738,3.3579150354961835,0.8228784198714193,B,533.9247919910122,Correct,sub_012_day_19_data.csv,1,300,179.0,Training at home,,,,,,,,,,,,,
12,19,4492,B,60.967985431966795,37.31629773261681,3.0483992715983397,0.5861630340797922,B,613.6764580151066,Correct,sub_012_day_19_data.csv,1,300,179.0,Training at home,,,,,,,,,,,,,
12,19,4493,A,31.973644443220373,61.49615774570152,1.5986822221610186,0.9659793869894746,A,459.75258300313726,Correct,sub_012_day_19_data.csv,1,300,179.0,Training at home,,,,,,,,,,,,,
12,19,4494,A,42.056248268885696,63.93967746423658,2.1028124134442847,1.0043621049727325,A,541.3122080208268,Correct,sub_012_day_19_data.csv,1,300,179.0,Training at home,,,,,,,,,,,,,
12,19,4495,A,62.51103564190106,78.55154870189047,3.125551782095053,1.2338848416497998,B,615.9817920124624,Incorrect,sub_012_day_19_data.csv,0,300,179.0,Training at home,,,,,,,,,,,,,
12,19,4496,B,59.15134188612822,26.569676233181656,2.9575670943064107,0.417355498312114,B,407.982083997922,Correct,sub_012_day_19_data.csv,1,300,179.0,Training at home,,,,,,,,,,,,,
12,19,4497,B,63.263429660428834,51.09852966716048,3.1631714830214417,0.8026538270579573,B,592.296124988934,Correct,sub_012_day_19_data.csv,1,300,179.0,Training at home,,,,,,,,,,,,,
12,19,4498,B,87.42066333473568,65.27166620552993,4.371033166736783,1.0252849351942896,B,581.5613749728072,Correct,sub_012_day_19_data.csv,1,300,179.0,Training at home,,,,,,,,,,,,,
12,19,4499,A,45.226303107001876,73.07958801321668,2.261315155350094,1.1479314841484511,A,653.8085420033894,Correct,sub_012_day_19_data.csv,1,300,179.0,Training at home,,,,,,,,,,,,,
