subject,day,trial,cat,x,y,xt,yt,resp,rt,fb,f_name,acc,n_trials,block,session_type,ns_left_digit,ns_right_digit,ns_left_size,ns_right_size,ns_congruent,ns_cue,ns_correct_side,ns_resp,ns_rt,ns_fb,acc_stroop,acc_stroop_mean,resp_key
12,12,2400,A,34.12599708231633,58.36943731865547,1.7062998541158163,0.9168649773722896,A,990.6572999898344,Correct,sub_012_day_12_data.csv,1,300,96.0,Training at home,,,,,,,,,,,,,
12,12,2401,A,18.269946698553593,41.81526639454651,0.9134973349276796,0.6568326685650374,A,503.1980999629013,Correct,sub_012_day_12_data.csv,1,300,96.0,Training at home,,,,,,,,,,,,,
12,12,2402,B,43.67963722492759,32.383390956727936,2.1839818612463797,0.5086771156399131,B,1822.0091999974104,Correct,sub_012_day_12_data.csv,1,300,96.0,Training at home,,,,,,,,,,,,,
12,12,2403,B,63.73547291420124,44.531096573093784,3.186773645710062,0.6994928292516452,B,575.3739000065252,Correct,sub_012_day_12_data.csv,1,300,96.0,Training at home,,,,,,,,,,,,,
12,12,2404,A,41.36137683400044,70.44050223982708,2.068068841700022,1.1064768217590806,A,1021.1628000251948,Correct,sub_012_day_12_data.csv,1,300,96.0,Training at home,,,,,,,,,,,,,
12,12,2405,A,19.04888803365172,32.742716299174674,0.952444401682586,0.5143213849203097,A,509.7241000039503,Correct,sub_012_day_12_data.csv,1,300,96.0,Training at home,,,,,,,,,,,,,
12,12,2406,B,34.48006123536709,16.143799438715522,1.7240030617683544,0.2535862085884786,B,593.1369999889284,Correct,sub_012_day_12_data.csv,1,300,96.0,Training at home,,,,,,,,,,,,,
12,12,2407,A,31.101251610831525,62.89798445438417,1.5550625805415763,0.9879992294374916,A,588.0735000246204,Correct,sub_012_day_12_data.csv,1,300,96.0,Training at home,,,,,,,,,,,,,
12,12,2408,B,47.07248867270219,17.782790029946987,2.35362443363511,0.2793314125920564,B,682.5669000390917,Correct,sub_012_day_12_data.csv,1,300,96.0,Training at home,,,,,,,,,,,,,
12,12,2409,A,25.31666027531299,51.04453285375638,1.2658330137656495,0.8018056470964195,A,522.7857999852858,Correct,sub_012_day_12_data.csv,1,300,96.0,Training at home,,,,,,,,,,,,,
12,12,2410,B,51.233530837555335,41.58652655132538,2.561676541877767,0.6532396315098035,B,905.696799978614,Correct,sub_012_day_12_data.csv,1,300,96.0,Training at home,,,,,,,,,,,,,
12,12,2411,A,56.97207462680679,71.73087372385571,2.848603731340339,1.126745929632211,A,571.1631000158377,Correct,sub_012_day_12_data.csv,1,300,96.0,Training at home,,,,,,,,,,,,,
12,12,2412,A,58.28839301291626,67.90609811615036,2.914419650645813,1.0666664948782285,A,672.0129000023007,Correct,sub_012_day_12_data.csv,1,300,96.0,Training at home,,,,,,,,,,,,,
12,12,2413,A,45.859847953664165,62.11658215369328,2.2929923976832085,0.9757249908007484,A,867.5789999542758,Correct,sub_012_day_12_data.csv,1,300,96.0,Training at home,,,,,,,,,,,,,
12,12,2414,B,42.433799192929854,32.019680921332096,2.121689959646493,0.5029639717637309,B,547.2974000149406,Correct,sub_012_day_12_data.csv,1,300,96.0,Training at home,,,,,,,,,,,,,
12,12,2415,B,65.63933279385346,34.67412446842069,3.2819666396926728,0.5446598734982427,B,443.4866000083275,Correct,sub_012_day_12_data.csv,1,300,96.0,Training at home,,,,,,,,,,,,,
12,12,2416,B,68.33537816053115,51.03890837421862,3.4167689080265573,0.8017172979784389,B,877.5651999749243,Correct,sub_012_day_12_data.csv,1,300,96.0,Training at home,,,,,,,,,,,,,
12,12,2417,A,17.023470898160355,42.74153729939333,0.8511735449080178,0.671382497914541,A,495.2683000010438,Correct,sub_012_day_12_data.csv,1,300,96.0,Training at home,,,,,,,,,,,,,
12,12,2418,B,71.0163007587154,42.04917045708109,3.5508150379357697,0.6605068249875546,B,670.8456000196747,Correct,sub_012_day_12_data.csv,1,300,96.0,Training at home,,,,,,,,,,,,,
12,12,2419,A,16.776837973892818,40.10279804650333,0.8388418986946408,0.6299332786564498,A,440.8095999970101,Correct,sub_012_day_12_data.csv,1,300,96.0,Training at home,,,,,,,,,,,,,
12,12,2420,B,75.3135429409143,47.46168770886564,3.7656771470457153,0.7455264471657264,B,393.434299970977,Correct,sub_012_day_12_data.csv,1,300,96.0,Training at home,,,,,,,,,,,,,
12,12,2421,B,60.12061900247149,47.08013864030433,3.006030950123575,0.7395330884118451,B,617.1831000247039,Correct,sub_012_day_12_data.csv,1,300,96.0,Training at home,,,,,,,,,,,,,
12,12,2422,A,18.86136508445779,35.11895853698972,0.9430682542228896,0.5516473107076573,A,554.8059000284411,Correct,sub_012_day_12_data.csv,1,300,96.0,Training at home,,,,,,,,,,,,,
12,12,2423,A,15.159556951980385,43.324694874470865,0.7579778475990193,0.6805427156832852,A,461.1749000032432,Correct,sub_012_day_12_data.csv,1,300,96.0,Training at home,,,,,,,,,,,,,
12,12,2424,A,39.48521100305414,62.466143569890605,1.9742605501527069,0.981215888686268,A,1396.7421999550425,Correct,sub_012_day_12_data.csv,1,300,96.0,Training at home,,,,,,,,,,,,,
12,12,2425,A,32.67967829549104,43.93596605853237,1.6339839147745518,0.6901445409892791,A,917.8032000199892,Correct,sub_012_day_12_data.csv,1,300,97.0,Training at home,,,,,,,,,,,,,
12,12,2426,B,51.51885013980862,43.91482205203702,2.575942506990431,0.6898124117119127,B,467.9102000081912,Correct,sub_012_day_12_data.csv,1,300,97.0,Training at home,,,,,,,,,,,,,
12,12,2427,B,80.39845956322046,51.881748484239374,4.019922978161023,0.8149565994673991,B,436.59300002036616,Correct,sub_012_day_12_data.csv,1,300,97.0,Training at home,,,,,,,,,,,,,
12,12,2428,A,35.62725594785719,47.0835321080213,1.7813627973928596,0.7395863928780944,A,880.2923999610357,Correct,sub_012_day_12_data.csv,1,300,97.0,Training at home,,,,,,,,,,,,,
12,12,2429,A,24.713127171381085,55.54215126936657,1.2356563585690543,0.8724540719620751,A,546.0416999994777,Correct,sub_012_day_12_data.csv,1,300,97.0,Training at home,,,,,,,,,,,,,
12,12,2430,B,63.380365713745505,42.671412953744465,3.169018285687275,0.6702809872688996,B,596.9358999864198,Correct,sub_012_day_12_data.csv,1,300,97.0,Training at home,,,,,,,,,,,,,
12,12,2431,B,36.25412700603937,16.24247627124275,1.8127063503019685,0.2551362206492138,B,626.4235000126064,Correct,sub_012_day_12_data.csv,1,300,97.0,Training at home,,,,,,,,,,,,,
12,12,2432,B,53.25254609463638,41.634624988479146,2.662627304731819,0.6539951599938606,B,454.01249994756654,Correct,sub_012_day_12_data.csv,1,300,97.0,Training at home,,,,,,,,,,,,,
12,12,2433,A,40.75848502272227,57.99720750123926,2.037924251136114,0.9110180050730804,A,1202.3279999848455,Correct,sub_012_day_12_data.csv,1,300,97.0,Training at home,,,,,,,,,,,,,
12,12,2434,B,55.68429575168713,29.040999543969477,2.784214787584357,0.4561749541011953,B,461.10249997582287,Correct,sub_012_day_12_data.csv,1,300,97.0,Training at home,,,,,,,,,,,,,
12,12,2435,B,61.031731699478634,52.86678218190397,3.051586584973931,0.8304294726080065,B,795.9356000064872,Correct,sub_012_day_12_data.csv,1,300,97.0,Training at home,,,,,,,,,,,,,
12,12,2436,A,35.920218620327304,44.60316264664088,1.7960109310163654,0.7006248404877884,B,1094.6601000032388,Incorrect,sub_012_day_12_data.csv,0,300,97.0,Training at home,,,,,,,,,,,,,
12,12,2437,A,36.07156541083522,60.30010652992419,1.803578270541761,0.9471918584254588,A,622.1249999944121,Correct,sub_012_day_12_data.csv,1,300,97.0,Training at home,,,,,,,,,,,,,
12,12,2438,A,69.7014188420153,86.40246306879324,3.485070942100765,1.3572067161449213,A,564.1607000143267,Correct,sub_012_day_12_data.csv,1,300,97.0,Training at home,,,,,,,,,,,,,
12,12,2439,A,27.491925528732025,36.92126913122455,1.374596276436601,0.5799579393193331,A,606.123799982015,Correct,sub_012_day_12_data.csv,1,300,97.0,Training at home,,,,,,,,,,,,,
12,12,2440,B,89.21109472958283,64.3757174134946,4.460554736479142,1.011211404479036,B,1019.1071000299416,Correct,sub_012_day_12_data.csv,1,300,97.0,Training at home,,,,,,,,,,,,,
12,12,2441,A,57.63694435021997,84.9619373424926,2.8818472175109986,1.3345789909496553,A,527.1233000094071,Correct,sub_012_day_12_data.csv,1,300,97.0,Training at home,,,,,,,,,,,,,
12,12,2442,B,56.742646479746675,38.530042718848875,2.837132323987334,0.6052284957401827,B,552.7470000088215,Correct,sub_012_day_12_data.csv,1,300,97.0,Training at home,,,,,,,,,,,,,
12,12,2443,B,71.84557097111374,61.20089067871474,3.592278548555687,0.9613413427470112,B,704.9934000242501,Correct,sub_012_day_12_data.csv,1,300,97.0,Training at home,,,,,,,,,,,,,
12,12,2444,B,76.0779409876484,43.7781552198623,3.80389704938242,0.6876656541321653,B,421.7837000032887,Correct,sub_012_day_12_data.csv,1,300,97.0,Training at home,,,,,,,,,,,,,
12,12,2445,B,47.203283277496375,26.93234588802986,2.3601641638748188,0.4230522999288694,B,444.3842999753542,Correct,sub_012_day_12_data.csv,1,300,97.0,Training at home,,,,,,,,,,,,,
12,12,2446,A,55.636647311151435,74.71754667701418,2.7818323655575714,1.1736604786738012,A,2009.5337000093425,Correct,sub_012_day_12_data.csv,1,300,97.0,Training at home,,,,,,,,,,,,,
12,12,2447,B,71.44874810142197,62.38837581842594,3.5724374050710987,0.97999431570283,B,894.5864000124857,Correct,sub_012_day_12_data.csv,1,300,97.0,Training at home,,,,,,,,,,,,,
12,12,2448,A,32.80950001690169,48.80098930509313,1.6404750008450844,0.7665641474439732,A,697.1712000085972,Correct,sub_012_day_12_data.csv,1,300,97.0,Training at home,,,,,,,,,,,,,
12,12,2449,B,40.21712104525966,25.2672535354706,2.010856052262983,0.3968970904171257,B,1639.2477999906987,Correct,sub_012_day_12_data.csv,1,300,97.0,Training at home,,,,,,,,,,,,,
12,12,2450,A,27.51396423418089,56.34520350714503,1.3756982117090442,0.8850683870153432,A,529.8130000010133,Correct,sub_012_day_12_data.csv,1,300,98.0,Training at home,,,,,,,,,,,,,
12,12,2451,B,50.103169990592264,26.466372977630293,2.5051584995296134,0.4157328145684537,B,1063.9249999658205,Correct,sub_012_day_12_data.csv,1,300,98.0,Training at home,,,,,,,,,,,,,
12,12,2452,B,69.69842798196203,49.04899207933231,3.484921399098101,0.7704597659120718,B,1238.1416000425816,Correct,sub_012_day_12_data.csv,1,300,98.0,Training at home,,,,,,,,,,,,,
12,12,2453,A,20.327652517354256,50.00702900021215,1.0163826258677129,0.7855085746745911,A,487.2281000134535,Correct,sub_012_day_12_data.csv,1,300,98.0,Training at home,,,,,,,,,,,,,
12,12,2454,A,44.8752464508239,51.64857865008493,2.2437623225411953,0.8112939762773071,A,1434.0621999581344,Correct,sub_012_day_12_data.csv,1,300,98.0,Training at home,,,,,,,,,,,,,
12,12,2455,A,25.26798220629362,41.424496167101225,1.263399110314681,0.6506944641861188,A,554.8750000307336,Correct,sub_012_day_12_data.csv,1,300,98.0,Training at home,,,,,,,,,,,,,
12,12,2456,A,19.416255234034075,35.16515982322345,0.9708127617017038,0.5523730388147486,A,534.9571999977343,Correct,sub_012_day_12_data.csv,1,300,98.0,Training at home,,,,,,,,,,,,,
12,12,2457,B,42.664201250602986,22.68472651420034,2.133210062530149,0.3563308508285269,B,669.8457000311464,Correct,sub_012_day_12_data.csv,1,300,98.0,Training at home,,,,,,,,,,,,,
12,12,2458,A,55.21566436208457,75.01924906379728,2.7607832181042284,1.1783996086832424,A,499.87010000040755,Correct,sub_012_day_12_data.csv,1,300,98.0,Training at home,,,,,,,,,,,,,
12,12,2459,B,71.08911796697986,44.89032850279156,3.554455898348993,0.7051356312080123,B,454.0293000172824,Correct,sub_012_day_12_data.csv,1,300,98.0,Training at home,,,,,,,,,,,,,
12,12,2460,B,46.45081778254366,20.106065317318944,2.322540889127183,0.3158253354674286,B,585.53949999623,Correct,sub_012_day_12_data.csv,1,300,98.0,Training at home,,,,,,,,,,,,,
12,12,2461,B,56.41624969184592,38.59734172315246,2.8208124845922957,0.6062856260277529,B,565.4799999902025,Correct,sub_012_day_12_data.csv,1,300,98.0,Training at home,,,,,,,,,,,,,
12,12,2462,A,37.380172992700565,51.31579029889075,1.8690086496350284,0.8060665490807477,A,1406.3286000164226,Correct,sub_012_day_12_data.csv,1,300,98.0,Training at home,,,,,,,,,,,,,
12,12,2463,B,60.95748169407059,51.87385516665853,3.0478740847035293,0.8148326115247769,B,534.4434999860823,Correct,sub_012_day_12_data.csv,1,300,98.0,Training at home,,,,,,,,,,,,,
12,12,2464,A,52.048649416017454,61.29586388884432,2.6024324708008724,0.962833178443166,B,681.1708000022918,Incorrect,sub_012_day_12_data.csv,0,300,98.0,Training at home,,,,,,,,,,,,,
12,12,2465,A,42.160791144756274,53.48022192835829,2.108039557237814,0.8400653616124107,A,665.8674000063911,Correct,sub_012_day_12_data.csv,1,300,98.0,Training at home,,,,,,,,,,,,,
12,12,2466,B,38.71663778309525,12.095045754758855,1.9358318891547623,0.1899885344399141,B,579.6749999863096,Correct,sub_012_day_12_data.csv,1,300,98.0,Training at home,,,,,,,,,,,,,
12,12,2467,A,24.66410434747327,41.00955928013938,1.2332052173736634,0.644176650807205,A,549.8138000257313,Correct,sub_012_day_12_data.csv,1,300,98.0,Training at home,,,,,,,,,,,,,
12,12,2468,A,33.33385574677959,54.97619902063915,1.6666927873389796,0.8635641148276516,A,516.3390999659896,Correct,sub_012_day_12_data.csv,1,300,98.0,Training at home,,,,,,,,,,,,,
12,12,2469,B,68.84948082835815,57.588081519720326,3.4424740414179076,0.9045914691834176,B,476.9247999647632,Correct,sub_012_day_12_data.csv,1,300,98.0,Training at home,,,,,,,,,,,,,
12,12,2470,B,64.20523227195818,33.70082969156064,3.210261613597909,0.5293713948944385,B,395.33500000834465,Correct,sub_012_day_12_data.csv,1,300,98.0,Training at home,,,,,,,,,,,,,
12,12,2471,A,50.69511902791541,65.87563408561962,2.5347559513957707,1.0347720404697598,A,524.346400052309,Correct,sub_012_day_12_data.csv,1,300,98.0,Training at home,,,,,,,,,,,,,
12,12,2472,A,46.473693715463746,75.60503404583686,2.323684685773187,1.1876010976640363,A,487.7181999618187,Correct,sub_012_day_12_data.csv,1,300,98.0,Training at home,,,,,,,,,,,,,
12,12,2473,B,69.88822326956628,41.405742160699425,3.4944111634783144,0.6503998769424324,B,1684.7056999686174,Correct,sub_012_day_12_data.csv,1,300,98.0,Training at home,,,,,,,,,,,,,
12,12,2474,A,24.695580756956808,43.03601460852947,1.2347790378478405,0.6760081366696961,A,525.1361000118777,Correct,sub_012_day_12_data.csv,1,300,98.0,Training at home,,,,,,,,,,,,,
12,12,2475,A,61.3277846865288,72.45780659055606,3.06638923432644,1.138164564400605,B,1309.487899998203,Incorrect,sub_012_day_12_data.csv,0,300,99.0,Training at home,,,,,,,,,,,,,
12,12,2476,B,56.28806135997632,32.52934112111903,2.814403067998816,0.5109696954611196,B,1463.3669999893757,Correct,sub_012_day_12_data.csv,1,300,99.0,Training at home,,,,,,,,,,,,,
12,12,2477,A,16.46812591166626,44.30249705211183,0.823406295583313,0.69590199637299,A,1558.8455999968571,Correct,sub_012_day_12_data.csv,1,300,99.0,Training at home,,,,,,,,,,,,,
12,12,2478,A,55.51733273942704,72.47693973994265,2.775866636971352,1.1384651072083698,A,3067.0595999690704,Correct,sub_012_day_12_data.csv,1,300,99.0,Training at home,,,,,,,,,,,,,
12,12,2479,A,59.64376495381818,70.9119597307075,2.9821882476909085,1.1138824587082294,A,753.3667999668978,Correct,sub_012_day_12_data.csv,1,300,99.0,Training at home,,,,,,,,,,,,,
12,12,2480,A,43.18439651309848,61.14436241082925,2.159219825654924,0.9604533987914654,B,631.7029000492766,Incorrect,sub_012_day_12_data.csv,0,300,99.0,Training at home,,,,,,,,,,,,,
12,12,2481,B,33.21091338250871,19.926482740230284,1.6605456691254352,0.3130044589429563,B,754.5377999776974,Correct,sub_012_day_12_data.csv,1,300,99.0,Training at home,,,,,,,,,,,,,
12,12,2482,A,64.23325106699758,78.15447609473564,3.2116625533498793,1.227647639721903,A,1782.535000005737,Correct,sub_012_day_12_data.csv,1,300,99.0,Training at home,,,,,,,,,,,,,
12,12,2483,A,63.74278383350055,74.85687481443271,3.1871391916750276,1.175849039938563,A,1003.3241999917664,Correct,sub_012_day_12_data.csv,1,300,99.0,Training at home,,,,,,,,,,,,,
12,12,2484,A,28.6212232176562,52.93509111735858,1.43106116088281,0.8315024668570001,A,1068.8891000463627,Correct,sub_012_day_12_data.csv,1,300,99.0,Training at home,,,,,,,,,,,,,
12,12,2485,B,50.91568671979546,35.71529700017906,2.545784335989773,0.5610145733827007,A,2518.9083999721333,Incorrect,sub_012_day_12_data.csv,0,300,99.0,Training at home,,,,,,,,,,,,,
12,12,2486,B,81.23015357970279,55.54551064528596,4.06150767898514,0.8725068409156201,B,807.3755000368692,Correct,sub_012_day_12_data.csv,1,300,99.0,Training at home,,,,,,,,,,,,,
12,12,2487,B,75.59745957525112,59.81447067676895,3.779872978762557,0.9395635082824972,B,649.1548999911174,Correct,sub_012_day_12_data.csv,1,300,99.0,Training at home,,,,,,,,,,,,,
12,12,2488,B,70.59754225050682,51.68498395305125,3.529877112525341,0.8118658294390605,B,831.4074999652803,Correct,sub_012_day_12_data.csv,1,300,99.0,Training at home,,,,,,,,,,,,,
12,12,2489,A,54.4978344027277,63.48795819273156,2.724891720136385,0.997266515248507,A,756.6252999822609,Correct,sub_012_day_12_data.csv,1,300,99.0,Training at home,,,,,,,,,,,,,
12,12,2490,B,71.07820459217112,38.66680274358897,3.553910229608556,0.6073767171853237,B,847.3028000444174,Correct,sub_012_day_12_data.csv,1,300,99.0,Training at home,,,,,,,,,,,,,
12,12,2491,A,14.391724361456491,30.861473318831735,0.7195862180728247,0.484770889286996,A,451.92259998293594,Correct,sub_012_day_12_data.csv,1,300,99.0,Training at home,,,,,,,,,,,,,
12,12,2492,A,28.6182793757467,54.851064796122586,1.430913968787335,0.8615985110253822,A,543.1504999869503,Correct,sub_012_day_12_data.csv,1,300,99.0,Training at home,,,,,,,,,,,,,
12,12,2493,A,33.04569379497857,62.48071014037514,1.6522846897489285,0.9814446998403792,A,502.9278000001795,Correct,sub_012_day_12_data.csv,1,300,99.0,Training at home,,,,,,,,,,,,,
12,12,2494,B,65.72008007760925,51.36555394477266,3.2860040038804628,0.80684823460234,B,907.8258000081404,Correct,sub_012_day_12_data.csv,1,300,99.0,Training at home,,,,,,,,,,,,,
12,12,2495,B,40.49388027869614,22.073842969348146,2.024694013934807,0.3467351145449941,B,960.2939000469632,Correct,sub_012_day_12_data.csv,1,300,99.0,Training at home,,,,,,,,,,,,,
12,12,2496,A,28.508595654540365,46.537395583758205,1.425429782727018,0.7310077004156843,A,500.5774000310339,Correct,sub_012_day_12_data.csv,1,300,99.0,Training at home,,,,,,,,,,,,,
12,12,2497,A,46.434664455098066,59.86125594955858,2.3217332227549035,0.9402984096289576,A,783.6123000015505,Correct,sub_012_day_12_data.csv,1,300,99.0,Training at home,,,,,,,,,,,,,
12,12,2498,A,51.69856812844993,78.85290497893622,2.584928406422496,1.2386185349802004,A,1031.185399973765,Correct,sub_012_day_12_data.csv,1,300,99.0,Training at home,,,,,,,,,,,,,
12,12,2499,A,23.147049087117768,44.9760880182703,1.1573524543558884,0.7064827385270296,A,729.8018999863416,Correct,sub_012_day_12_data.csv,1,300,99.0,Training at home,,,,,,,,,,,,,
12,12,2500,B,54.31435832234622,45.738824047956435,2.715717916117311,0.7184637680644805,B,965.966199990362,Correct,sub_012_day_12_data.csv,1,300,100.0,Training at home,,,,,,,,,,,,,
12,12,2501,B,69.50389706393352,59.650111426541,3.4751948531966765,0.936981759217169,B,638.5348999756388,Correct,sub_012_day_12_data.csv,1,300,100.0,Training at home,,,,,,,,,,,,,
12,12,2502,B,44.009555283066256,22.21268370957646,2.200477764153313,0.3489160197925954,B,1855.3561000153425,Correct,sub_012_day_12_data.csv,1,300,100.0,Training at home,,,,,,,,,,,,,
12,12,2503,B,52.13889428621828,26.26822315857347,2.6069447143109143,0.4126202844891584,B,815.3444000054151,Correct,sub_012_day_12_data.csv,1,300,100.0,Training at home,,,,,,,,,,,,,
12,12,2504,B,49.46813577395148,23.529100465995256,2.473406788697574,0.3695942458477344,B,386.572299990803,Correct,sub_012_day_12_data.csv,1,300,100.0,Training at home,,,,,,,,,,,,,
12,12,2505,A,61.91457824258268,81.83830570858817,3.0957289121291343,1.285513099981681,A,569.6645999560133,Correct,sub_012_day_12_data.csv,1,300,100.0,Training at home,,,,,,,,,,,,,
12,12,2506,B,68.22814812641963,56.79750666545264,3.4114074063209814,0.8921731484120167,B,1104.395000031218,Correct,sub_012_day_12_data.csv,1,300,100.0,Training at home,,,,,,,,,,,,,
12,12,2507,B,70.9319156598085,44.1773384273385,3.546595782990425,0.6939360092923835,B,474.35209999093786,Correct,sub_012_day_12_data.csv,1,300,100.0,Training at home,,,,,,,,,,,,,
12,12,2508,B,85.76359709764071,67.86312531915067,4.288179854882036,1.065991479761436,B,992.6911999937148,Correct,sub_012_day_12_data.csv,1,300,100.0,Training at home,,,,,,,,,,,,,
12,12,2509,B,47.93508815043861,35.67602857133359,2.3967544075219305,0.5603977463448059,B,1188.026899995748,Correct,sub_012_day_12_data.csv,1,300,100.0,Training at home,,,,,,,,,,,,,
12,12,2510,A,45.18010497928948,67.59770472640994,2.259005248964474,1.0618222628401075,B,2475.152600032743,Incorrect,sub_012_day_12_data.csv,0,300,100.0,Training at home,,,,,,,,,,,,,
12,12,2511,A,33.86716942825712,48.04645777291947,1.693358471412856,0.75471199385208,A,903.2101999619044,Correct,sub_012_day_12_data.csv,1,300,100.0,Training at home,,,,,,,,,,,,,
12,12,2512,A,47.763220957145265,68.58830555072846,2.3881610478572632,1.0773825842017029,A,1477.3308000294492,Correct,sub_012_day_12_data.csv,1,300,100.0,Training at home,,,,,,,,,,,,,
12,12,2513,B,82.26412378643491,53.47068226704672,4.113206189321745,0.83991551296294,B,1032.864700013306,Correct,sub_012_day_12_data.csv,1,300,100.0,Training at home,,,,,,,,,,,,,
12,12,2514,A,16.239605554098095,38.18058415472858,0.8119802777049047,0.5997392134513109,A,854.5609000138938,Correct,sub_012_day_12_data.csv,1,300,100.0,Training at home,,,,,,,,,,,,,
12,12,2515,B,79.67600776895563,56.11361203031052,3.9838003884477815,0.8814305566040569,B,836.0444999998435,Correct,sub_012_day_12_data.csv,1,300,100.0,Training at home,,,,,,,,,,,,,
12,12,2516,A,26.59036334281381,51.53441448680225,1.3295181671406906,0.8095006897939467,A,1040.0869000004604,Correct,sub_012_day_12_data.csv,1,300,100.0,Training at home,,,,,,,,,,,,,
12,12,2517,A,48.61196126444261,75.09730241784625,2.4305980632221305,1.179625667901584,A,861.4438000367954,Correct,sub_012_day_12_data.csv,1,300,100.0,Training at home,,,,,,,,,,,,,
12,12,2518,B,31.35153025548682,11.372048988268354,1.5675765127743408,0.1786317277890355,B,961.9333999580704,Correct,sub_012_day_12_data.csv,1,300,100.0,Training at home,,,,,,,,,,,,,
12,12,2519,A,41.23003604487554,56.69278836926683,2.061501802243777,0.8905282372620478,A,1184.4026999897324,Correct,sub_012_day_12_data.csv,1,300,100.0,Training at home,,,,,,,,,,,,,
12,12,2520,B,53.22467512888647,37.624485689867505,2.6612337564443234,0.5910040391919102,B,754.2191000538878,Correct,sub_012_day_12_data.csv,1,300,100.0,Training at home,,,,,,,,,,,,,
12,12,2521,B,54.83977900740886,30.13624567597252,2.741988950370443,0.4733790401120622,B,703.7839999538846,Correct,sub_012_day_12_data.csv,1,300,100.0,Training at home,,,,,,,,,,,,,
12,12,2522,B,48.82037114834647,20.458676042549193,2.441018557417323,0.3213641317872302,B,980.9633000404574,Correct,sub_012_day_12_data.csv,1,300,100.0,Training at home,,,,,,,,,,,,,
12,12,2523,A,40.734949438129775,50.41379267144422,2.0367474719064886,0.7918980034810406,A,1910.595599969383,Correct,sub_012_day_12_data.csv,1,300,100.0,Training at home,,,,,,,,,,,,,
12,12,2524,B,34.23979214710414,20.35339438036257,1.711989607355207,0.319710371304814,B,1451.463000033982,Correct,sub_012_day_12_data.csv,1,300,100.0,Training at home,,,,,,,,,,,,,
12,12,2525,A,23.42215121351637,49.873151088949754,1.1711075606758186,0.7834056253620917,A,954.8386000096798,Correct,sub_012_day_12_data.csv,1,300,101.0,Training at home,,,,,,,,,,,,,
12,12,2526,A,50.69784119920707,81.74754536256067,2.5348920599603537,1.284087439800095,A,985.5471000191756,Correct,sub_012_day_12_data.csv,1,300,101.0,Training at home,,,,,,,,,,,,,
12,12,2527,A,47.66470667277371,55.3637553939948,2.3832353336386856,0.8696518361045816,A,1654.138000041712,Correct,sub_012_day_12_data.csv,1,300,101.0,Training at home,,,,,,,,,,,,,
12,12,2528,A,67.85767805774081,83.28337188896029,3.392883902887041,1.3082121464627217,A,1372.5509999785572,Correct,sub_012_day_12_data.csv,1,300,101.0,Training at home,,,,,,,,,,,,,
12,12,2529,B,83.37070885317672,62.94973279785555,4.168535442658836,0.9888120905159172,B,1239.6533000282943,Correct,sub_012_day_12_data.csv,1,300,101.0,Training at home,,,,,,,,,,,,,
12,12,2530,B,78.37933169835306,62.10412658336419,3.9189665849176527,0.9755293391595375,B,1757.0202999631874,Correct,sub_012_day_12_data.csv,1,300,101.0,Training at home,,,,,,,,,,,,,
12,12,2531,B,37.88444302395762,20.57373390334856,1.8942221511978812,0.3231714564383555,B,839.2276000231504,Correct,sub_012_day_12_data.csv,1,300,101.0,Training at home,,,,,,,,,,,,,
12,12,2532,A,50.06787484205607,63.64163435324031,2.5033937421028036,0.999680454732938,A,1087.7583000110462,Correct,sub_012_day_12_data.csv,1,300,101.0,Training at home,,,,,,,,,,,,,
12,12,2533,B,77.79766833572583,51.5962675465828,3.889883416786291,0.8104722753849899,B,830.2157000289299,Correct,sub_012_day_12_data.csv,1,300,101.0,Training at home,,,,,,,,,,,,,
12,12,2534,B,45.08552642299564,27.747332031525637,2.2542763211497823,0.4358540723347885,B,981.1944999964908,Correct,sub_012_day_12_data.csv,1,300,101.0,Training at home,,,,,,,,,,,,,
12,12,2535,A,52.47969070010422,69.8243151221253,2.623984535005211,1.0967977771480375,A,1340.5222999863329,Correct,sub_012_day_12_data.csv,1,300,101.0,Training at home,,,,,,,,,,,,,
12,12,2536,A,57.56628660144688,85.23870248199754,2.878314330072344,1.3389264075948475,A,1207.0196999702605,Correct,sub_012_day_12_data.csv,1,300,101.0,Training at home,,,,,,,,,,,,,
12,12,2537,B,42.92731351119542,23.497834682568,2.146365675559771,0.3691031240701153,B,1107.3889000108466,Correct,sub_012_day_12_data.csv,1,300,101.0,Training at home,,,,,,,,,,,,,
12,12,2538,A,19.12907570081738,50.587371789441306,0.9564537850408692,0.7946245778906217,A,967.0515999896452,Correct,sub_012_day_12_data.csv,1,300,101.0,Training at home,,,,,,,,,,,,,
12,12,2539,B,65.58918741434393,36.06298957127262,3.2794593707171966,0.5664761155179768,B,815.2113999822177,Correct,sub_012_day_12_data.csv,1,300,101.0,Training at home,,,,,,,,,,,,,
12,12,2540,B,85.14683580580967,59.32208443931461,4.257341790290484,0.9318291233509206,B,847.5516000180505,Correct,sub_012_day_12_data.csv,1,300,101.0,Training at home,,,,,,,,,,,,,
12,12,2541,B,85.4109334166152,66.35722328367001,4.270546670830759,1.0423368259029764,B,700.472800002899,Correct,sub_012_day_12_data.csv,1,300,101.0,Training at home,,,,,,,,,,,,,
12,12,2542,A,30.2009001146674,54.15731192807633,1.51004500573337,0.8507010664570774,A,929.400800028816,Correct,sub_012_day_12_data.csv,1,300,101.0,Training at home,,,,,,,,,,,,,
12,12,2543,B,79.56143695936353,54.81664886520301,3.978071847968177,0.861057906846665,B,834.6137999906205,Correct,sub_012_day_12_data.csv,1,300,101.0,Training at home,,,,,,,,,,,,,
12,12,2544,A,47.802084753469714,78.85011481120668,2.390104237673486,1.2385747071279931,A,1265.9661000361666,Correct,sub_012_day_12_data.csv,1,300,101.0,Training at home,,,,,,,,,,,,,
12,12,2545,A,13.27632407062782,38.8643019827265,0.663816203531391,0.6104790279791441,A,947.3985999939032,Correct,sub_012_day_12_data.csv,1,300,101.0,Training at home,,,,,,,,,,,,,
12,12,2546,A,19.420512348703713,32.25301888203768,0.9710256174351856,0.5066292358795123,A,818.2830999721773,Correct,sub_012_day_12_data.csv,1,300,101.0,Training at home,,,,,,,,,,,,,
12,12,2547,A,18.97449412330658,38.87792185215757,0.9487247061653292,0.6106929683878816,A,706.0589999891818,Correct,sub_012_day_12_data.csv,1,300,101.0,Training at home,,,,,,,,,,,,,
12,12,2548,B,75.0408635698417,53.61279894214742,3.752043178492085,0.8421478764751849,B,843.1526000495069,Correct,sub_012_day_12_data.csv,1,300,101.0,Training at home,,,,,,,,,,,,,
12,12,2549,A,27.075044058949594,52.04959638268109,1.3537522029474798,0.8175931480907239,A,866.5535000036471,Correct,sub_012_day_12_data.csv,1,300,101.0,Training at home,,,,,,,,,,,,,
12,12,2550,B,48.99940264565546,27.24850883270361,2.449970132282773,0.4280185758504912,B,1411.4063999732025,Correct,sub_012_day_12_data.csv,1,300,102.0,Training at home,,,,,,,,,,,,,
12,12,2551,A,38.32168038731147,52.81887462589788,1.9160840193655733,0.8296769424780054,B,1986.759599996731,Incorrect,sub_012_day_12_data.csv,0,300,102.0,Training at home,,,,,,,,,,,,,
12,12,2552,B,41.66299436835091,13.608368949936352,2.083149718417545,0.2137597596022974,B,997.5448000477628,Correct,sub_012_day_12_data.csv,1,300,102.0,Training at home,,,,,,,,,,,,,
12,12,2553,A,26.860923630496835,42.96346120711115,1.3430461815248418,0.6748684705052523,A,1116.5937000187114,Correct,sub_012_day_12_data.csv,1,300,102.0,Training at home,,,,,,,,,,,,,
12,12,2554,B,79.1369009326153,48.85576895901051,3.956845046630765,0.7674246242355385,B,764.7134000435472,Correct,sub_012_day_12_data.csv,1,300,102.0,Training at home,,,,,,,,,,,,,
12,12,2555,A,64.8392415691355,84.33743004084212,3.2419620784567744,1.324769253194764,A,1102.987700025551,Correct,sub_012_day_12_data.csv,1,300,102.0,Training at home,,,,,,,,,,,,,
12,12,2556,B,86.49106967582432,68.377595348602,4.324553483791216,1.0740727560865184,B,857.7967000310309,Correct,sub_012_day_12_data.csv,1,300,102.0,Training at home,,,,,,,,,,,,,
12,12,2557,B,58.966222373862934,43.30989826832878,2.9483111186931468,0.6803102911375151,B,916.4614000474104,Correct,sub_012_day_12_data.csv,1,300,102.0,Training at home,,,,,,,,,,,,,
12,12,2558,A,51.10885203587243,77.92046814643638,2.555442601793622,1.22397185146561,A,1713.5502000455745,Correct,sub_012_day_12_data.csv,1,300,102.0,Training at home,,,,,,,,,,,,,
12,12,2559,B,76.13112412692827,54.13368417201296,3.806556206346414,0.85032992253273,B,1782.82990003936,Correct,sub_012_day_12_data.csv,1,300,102.0,Training at home,,,,,,,,,,,,,
12,12,2560,A,49.95121560857727,76.06040846047483,2.497560780428864,1.1947541022423331,A,1553.0615000170656,Correct,sub_012_day_12_data.csv,1,300,102.0,Training at home,,,,,,,,,,,,,
12,12,2561,A,13.987128973681791,40.820621922025786,0.6993564486840895,0.6412088297260133,A,889.8854000144638,Correct,sub_012_day_12_data.csv,1,300,102.0,Training at home,,,,,,,,,,,,,
12,12,2562,A,65.9433922914396,86.29183775237776,3.2971696145719793,1.3554690177381616,A,1340.2424000087194,Correct,sub_012_day_12_data.csv,1,300,102.0,Training at home,,,,,,,,,,,,,
12,12,2563,B,51.57419849073586,33.98731364188253,2.5787099245367933,0.5338714742629516,B,800.1338999602012,Correct,sub_012_day_12_data.csv,1,300,102.0,Training at home,,,,,,,,,,,,,
12,12,2564,B,75.14713266358135,60.45458924205873,3.757356633179067,0.9496184671932012,B,1277.0796999684535,Correct,sub_012_day_12_data.csv,1,300,102.0,Training at home,,,,,,,,,,,,,
12,12,2565,A,40.72403737351562,52.1331118442328,2.036201868675781,0.818905005893084,A,3982.368100027088,Correct,sub_012_day_12_data.csv,1,300,102.0,Training at home,,,,,,,,,,,,,
12,12,2566,A,19.274714891710605,38.25019661704778,0.9637357445855302,0.6008326834524123,A,909.8458999651484,Correct,sub_012_day_12_data.csv,1,300,102.0,Training at home,,,,,,,,,,,,,
12,12,2567,A,18.827232605462108,47.97641940386759,0.9413616302731056,0.753611833723666,A,1561.9582000072114,Correct,sub_012_day_12_data.csv,1,300,102.0,Training at home,,,,,,,,,,,,,
12,12,2568,B,83.10721738557484,66.67427933029046,4.155360869278741,1.0473171306371716,B,930.523799965158,Correct,sub_012_day_12_data.csv,1,300,102.0,Training at home,,,,,,,,,,,,,
12,12,2569,A,39.723925793890295,47.51528990881075,1.986196289694515,0.7463684285535453,B,2668.9587000291795,Incorrect,sub_012_day_12_data.csv,0,300,102.0,Training at home,,,,,,,,,,,,,
12,12,2570,B,55.594664518742185,27.055874897568316,2.7797332259371093,0.4249926890732255,B,1095.269899989944,Correct,sub_012_day_12_data.csv,1,300,102.0,Training at home,,,,,,,,,,,,,
12,12,2571,A,30.193368307098407,54.586153270413774,1.5096684153549202,0.8574372905102919,A,857.2306000278331,Correct,sub_012_day_12_data.csv,1,300,102.0,Training at home,,,,,,,,,,,,,
12,12,2572,B,55.18579432083365,25.713026394695007,2.7592897160416823,0.4038992741156714,B,779.6735999872908,Correct,sub_012_day_12_data.csv,1,300,102.0,Training at home,,,,,,,,,,,,,
12,12,2573,B,49.81110881231663,27.17542103547001,2.4905554406158315,0.4268705154162105,B,852.4595000199042,Correct,sub_012_day_12_data.csv,1,300,102.0,Training at home,,,,,,,,,,,,,
12,12,2574,A,52.84494153433282,66.3014506579799,2.642247076716641,1.0414607515472791,A,950.962500006426,Correct,sub_012_day_12_data.csv,1,300,102.0,Training at home,,,,,,,,,,,,,
12,12,2575,B,40.86714896039731,21.212691767323733,2.043357448019866,0.3332081830954446,B,750.4210000042804,Correct,sub_012_day_12_data.csv,1,300,103.0,Training at home,,,,,,,,,,,,,
12,12,2576,B,50.53535259763736,27.22571583290561,2.5267676298818684,0.4276605442468978,B,777.0645000273362,Correct,sub_012_day_12_data.csv,1,300,103.0,Training at home,,,,,,,,,,,,,
12,12,2577,A,49.403765518553755,57.90423444613885,2.470188275927688,0.9095575877386544,A,1269.3457000423225,Correct,sub_012_day_12_data.csv,1,300,103.0,Training at home,,,,,,,,,,,,,
12,12,2578,A,69.03666564751158,84.20331871380468,3.4518332823755795,1.3226626373958437,A,2308.1002000253648,Correct,sub_012_day_12_data.csv,1,300,103.0,Training at home,,,,,,,,,,,,,
12,12,2579,A,38.754605514715,53.05559583824941,1.93773027573575,0.8333953505863677,A,1756.9332999992184,Correct,sub_012_day_12_data.csv,1,300,103.0,Training at home,,,,,,,,,,,,,
12,12,2580,B,38.54861705582475,29.748149765087803,1.9274308527912376,0.4672828437994438,B,1333.3263999666087,Correct,sub_012_day_12_data.csv,1,300,103.0,Training at home,,,,,,,,,,,,,
12,12,2581,A,48.50385409725751,71.52042216200365,2.4251927048628756,1.1234401642289564,A,1074.2376999696717,Correct,sub_012_day_12_data.csv,1,300,103.0,Training at home,,,,,,,,,,,,,
12,12,2582,B,33.63161689083091,21.165298728949686,1.6815808445415457,0.3324637349895086,B,946.0467999451794,Correct,sub_012_day_12_data.csv,1,300,103.0,Training at home,,,,,,,,,,,,,
12,12,2583,A,36.350992391878265,65.7703501715172,1.8175496195939131,1.033118244614333,A,1470.7280999864452,Correct,sub_012_day_12_data.csv,1,300,103.0,Training at home,,,,,,,,,,,,,
12,12,2584,B,51.08757572179343,33.54726891775655,2.5543787860896714,0.5269592679001259,B,861.0014999867417,Correct,sub_012_day_12_data.csv,1,300,103.0,Training at home,,,,,,,,,,,,,
12,12,2585,A,66.9453454849874,82.27772257559344,3.34726727424937,1.292415443987917,A,1024.7310000122525,Correct,sub_012_day_12_data.csv,1,300,103.0,Training at home,,,,,,,,,,,,,
12,12,2586,B,40.124518627447046,25.63202725077499,2.0062259313723523,0.4026269425382404,B,782.1660999907181,Correct,sub_012_day_12_data.csv,1,300,103.0,Training at home,,,,,,,,,,,,,
12,12,2587,A,59.830291505289296,83.38298627390726,2.991514575264465,1.309776885562428,A,1358.3338999887928,Correct,sub_012_day_12_data.csv,1,300,103.0,Training at home,,,,,,,,,,,,,
12,12,2588,B,47.96963577237362,35.95421785427916,2.3984817886186813,0.5647675333828519,B,962.7997999778016,Correct,sub_012_day_12_data.csv,1,300,103.0,Training at home,,,,,,,,,,,,,
12,12,2589,A,54.491986775142585,68.72978353466809,2.724599338757129,1.07960491517665,A,1403.1634999555536,Correct,sub_012_day_12_data.csv,1,300,103.0,Training at home,,,,,,,,,,,,,
12,12,2590,B,52.51654520872218,41.85379816017116,2.625827260436109,0.6574379241241185,B,1014.1814000089652,Correct,sub_012_day_12_data.csv,1,300,103.0,Training at home,,,,,,,,,,,,,
12,12,2591,B,75.66914239114975,64.00745062429044,3.783457119557488,1.0054266832814114,B,1034.6077000140212,Correct,sub_012_day_12_data.csv,1,300,103.0,Training at home,,,,,,,,,,,,,
12,12,2592,A,35.75377935410427,47.30054307276999,1.7876889677052137,0.7429951931411088,A,1567.1067000366747,Correct,sub_012_day_12_data.csv,1,300,103.0,Training at home,,,,,,,,,,,,,
12,12,2593,A,17.16611936679135,32.06709886545362,0.8583059683395675,0.5037088110882334,A,1077.1893000346608,Correct,sub_012_day_12_data.csv,1,300,103.0,Training at home,,,,,,,,,,,,,
12,12,2594,A,41.013443600036034,73.37075179609151,2.0506721800018015,1.1525050741548062,A,1024.2226999835111,Correct,sub_012_day_12_data.csv,1,300,103.0,Training at home,,,,,,,,,,,,,
12,12,2595,B,34.78862945011761,21.497269634276577,1.7394314725058806,0.3376783217764111,B,913.3849000209012,Correct,sub_012_day_12_data.csv,1,300,103.0,Training at home,,,,,,,,,,,,,
12,12,2596,A,57.89200276962514,69.71971846865031,2.894600138481257,1.0951547767573022,A,1134.718100016471,Correct,sub_012_day_12_data.csv,1,300,103.0,Training at home,,,,,,,,,,,,,
12,12,2597,B,85.93026549322401,64.97717118891293,4.2965132746612005,1.020659018290676,B,892.9143999703228,Correct,sub_012_day_12_data.csv,1,300,103.0,Training at home,,,,,,,,,,,,,
12,12,2598,B,65.63641466197166,38.80556004474046,3.281820733098583,0.6095563117749712,B,831.3709999783896,Correct,sub_012_day_12_data.csv,1,300,103.0,Training at home,,,,,,,,,,,,,
12,12,2599,B,49.59102437499408,23.060757957357986,2.479551218749704,0.362237538925241,B,892.3338000313379,Correct,sub_012_day_12_data.csv,1,300,103.0,Training at home,,,,,,,,,,,,,
12,12,2600,B,50.866020119239984,28.42269726808995,2.543301005961999,0.4464626846631903,B,774.596199975349,Correct,sub_012_day_12_data.csv,1,300,104.0,Training at home,,,,,,,,,,,,,
12,12,2601,B,70.16599046005862,49.39133530490972,3.5082995230029312,0.7758372807244728,B,997.72220000159,Correct,sub_012_day_12_data.csv,1,300,104.0,Training at home,,,,,,,,,,,,,
12,12,2602,B,59.946223324141435,37.02388997425936,2.9973111662070715,0.58156990375225,B,861.4146999898367,Correct,sub_012_day_12_data.csv,1,300,104.0,Training at home,,,,,,,,,,,,,
12,12,2603,A,63.492723181450906,89.23058254546848,3.174636159072545,1.401630713001907,A,1231.1669000191614,Correct,sub_012_day_12_data.csv,1,300,104.0,Training at home,,,,,,,,,,,,,
12,12,2604,B,51.85833932284342,33.90713839773502,2.5929169661421714,0.5326120844728837,B,934.9246000056156,Correct,sub_012_day_12_data.csv,1,300,104.0,Training at home,,,,,,,,,,,,,
12,12,2605,B,68.13943290763538,37.84311436004878,3.4069716453817693,0.5944382503124382,B,982.2559999884106,Correct,sub_012_day_12_data.csv,1,300,104.0,Training at home,,,,,,,,,,,,,
12,12,2606,A,69.80216334535234,86.90466048180826,3.4901081672676173,1.3650952146618205,A,1150.7657000329343,Correct,sub_012_day_12_data.csv,1,300,104.0,Training at home,,,,,,,,,,,,,
12,12,2607,A,36.11477150434794,51.87100373980841,1.8057385752173971,0.8147878214165538,A,1283.256399969105,Correct,sub_012_day_12_data.csv,1,300,104.0,Training at home,,,,,,,,,,,,,
12,12,2608,B,64.73920982432145,43.47331749121864,3.2369604912160725,0.6828772742879458,B,784.214899991639,Correct,sub_012_day_12_data.csv,1,300,104.0,Training at home,,,,,,,,,,,,,
12,12,2609,A,43.671829627084215,70.63151212905345,2.1835914813542106,1.1094771980828633,A,886.855699995067,Correct,sub_012_day_12_data.csv,1,300,104.0,Training at home,,,,,,,,,,,,,
12,12,2610,A,48.62346312065526,58.08142555968993,2.431173156032763,0.9123408992417216,A,1239.7225000313483,Correct,sub_012_day_12_data.csv,1,300,104.0,Training at home,,,,,,,,,,,,,
12,12,2611,A,22.225351742836693,52.18216776469547,1.1112675871418347,0.8196755744897871,A,1284.0883000171743,Correct,sub_012_day_12_data.csv,1,300,104.0,Training at home,,,,,,,,,,,,,
12,12,2612,A,47.62924041206391,66.49774262296881,2.381462020603195,1.0445440985231185,A,1039.4234999548644,Correct,sub_012_day_12_data.csv,1,300,104.0,Training at home,,,,,,,,,,,,,
12,12,2613,B,55.79188900101306,38.06352913730672,2.789594450050653,0.5979005175373192,B,924.5655999984592,Correct,sub_012_day_12_data.csv,1,300,104.0,Training at home,,,,,,,,,,,,,
12,12,2614,B,53.498604415106406,27.163751541860776,2.6749302207553205,0.4266872114392411,B,1074.2927999817766,Correct,sub_012_day_12_data.csv,1,300,104.0,Training at home,,,,,,,,,,,,,
12,12,2615,B,42.33341368555347,16.76795772471583,2.1166706842776732,0.2633904640183574,B,992.0153000275604,Correct,sub_012_day_12_data.csv,1,300,104.0,Training at home,,,,,,,,,,,,,
12,12,2616,A,40.98706021715776,59.28592875921499,2.049353010857888,0.9312611912559882,A,1007.1452999836764,Correct,sub_012_day_12_data.csv,1,300,104.0,Training at home,,,,,,,,,,,,,
12,12,2617,B,45.54395239657645,19.325849417298475,2.277197619828822,0.3035697327688373,B,2275.881300040055,Correct,sub_012_day_12_data.csv,1,300,104.0,Training at home,,,,,,,,,,,,,
12,12,2618,B,39.762115631514455,26.701178330582422,1.9881057815757228,0.4194211284277435,B,2216.942300030496,Correct,sub_012_day_12_data.csv,1,300,104.0,Training at home,,,,,,,,,,,,,
12,12,2619,B,58.01901011946467,27.338119932408993,2.9009505059732335,0.4294261837130639,B,1968.677699973341,Correct,sub_012_day_12_data.csv,1,300,104.0,Training at home,,,,,,,,,,,,,
12,12,2620,B,34.341452764159214,14.240987785091118,1.7170726382079606,0.2236969130275211,B,2279.6510999905877,Correct,sub_012_day_12_data.csv,1,300,104.0,Training at home,,,,,,,,,,,,,
12,12,2621,B,53.478364154276626,39.75598556806018,2.6739182077138315,0.6244855609841985,B,1619.8982000350952,Correct,sub_012_day_12_data.csv,1,300,104.0,Training at home,,,,,,,,,,,,,
12,12,2622,B,43.55116134077943,18.57944362804272,2.1775580670389716,0.2918452180482234,B,679.7759999753907,Correct,sub_012_day_12_data.csv,1,300,104.0,Training at home,,,,,,,,,,,,,
12,12,2623,B,64.35787921407699,53.33989305247745,3.2178939607038495,0.837861080784642,B,656.1077000224032,Correct,sub_012_day_12_data.csv,1,300,104.0,Training at home,,,,,,,,,,,,,
12,12,2624,A,25.953730901204892,54.96351743328557,1.2976865450602446,0.8633649129193223,A,1235.2371999877505,Correct,sub_012_day_12_data.csv,1,300,104.0,Training at home,,,,,,,,,,,,,
12,12,2625,B,58.74474052741745,33.11195108667346,2.9372370263708723,0.5201213113995894,B,357.96739999204874,Correct,sub_012_day_12_data.csv,1,300,105.0,Training at home,,,,,,,,,,,,,
12,12,2626,A,62.766291214761694,77.77692199389111,3.1383145607380847,1.2217170337741736,A,669.6468000300229,Correct,sub_012_day_12_data.csv,1,300,105.0,Training at home,,,,,,,,,,,,,
12,12,2627,A,53.22882749285648,80.59290898759737,2.661441374642824,1.2659504540343334,A,1250.5190999945626,Correct,sub_012_day_12_data.csv,1,300,105.0,Training at home,,,,,,,,,,,,,
12,12,2628,B,59.537188687420354,33.10293092666252,2.9768594343710175,0.5199796230574668,B,550.9671000181697,Correct,sub_012_day_12_data.csv,1,300,105.0,Training at home,,,,,,,,,,,,,
12,12,2629,A,42.452805247890495,50.40054483132657,2.122640262394525,0.7916899068950929,B,1045.7043999922462,Incorrect,sub_012_day_12_data.csv,0,300,105.0,Training at home,,,,,,,,,,,,,
12,12,2630,B,44.87430887113904,18.031450692239098,2.2437154435569515,0.2832373651415247,B,740.5132999992929,Correct,sub_012_day_12_data.csv,1,300,105.0,Training at home,,,,,,,,,,,,,
12,12,2631,A,48.049130466852894,70.50138918393122,2.4024565233426447,1.1074332316405662,A,1510.6273000128567,Correct,sub_012_day_12_data.csv,1,300,105.0,Training at home,,,,,,,,,,,,,
12,12,2632,A,65.64356281815535,87.28547795885703,3.2821781409077677,1.3710770816030953,A,2094.4133999873884,Correct,sub_012_day_12_data.csv,1,300,105.0,Training at home,,,,,,,,,,,,,
12,12,2633,A,18.33240168503071,42.561505202749785,0.9166200842515356,0.6685545603534124,A,548.8775999983773,Correct,sub_012_day_12_data.csv,1,300,105.0,Training at home,,,,,,,,,,,,,
12,12,2634,B,86.44534473653123,69.90596638145755,4.322267236826561,1.0980803521304106,B,1881.7083000321873,Correct,sub_012_day_12_data.csv,1,300,105.0,Training at home,,,,,,,,,,,,,
12,12,2635,A,51.35803166223733,68.26561689041476,2.5679015831118663,1.0723138025785115,B,4906.319099944085,Incorrect,sub_012_day_12_data.csv,0,300,105.0,Training at home,,,,,,,,,,,,,
12,12,2636,B,58.143456684611216,45.24052613026013,2.9071728342305607,0.7106365226768114,B,2699.8207000433467,Correct,sub_012_day_12_data.csv,1,300,105.0,Training at home,,,,,,,,,,,,,
12,12,2637,B,37.992606591358864,28.820690472366653,1.8996303295679433,0.4527143472968621,B,659.0386000461876,Correct,sub_012_day_12_data.csv,1,300,105.0,Training at home,,,,,,,,,,,,,
12,12,2638,B,65.95240276404648,40.42996813884982,3.2976201382023245,0.6350724544494,B,439.18649997795,Correct,sub_012_day_12_data.csv,1,300,105.0,Training at home,,,,,,,,,,,,,
12,12,2639,B,50.16934616875657,36.75429888075029,2.508467308437828,0.5773351767580431,B,937.4959000269882,Correct,sub_012_day_12_data.csv,1,300,105.0,Training at home,,,,,,,,,,,,,
12,12,2640,A,52.60878319579776,60.64793623077873,2.6304391597898875,0.9526555545899836,B,519.5026000146754,Incorrect,sub_012_day_12_data.csv,0,300,105.0,Training at home,,,,,,,,,,,,,
12,12,2641,A,15.75673768571411,42.38761780851023,0.7878368842857055,0.6658231435519382,A,14672.705899982248,Correct,sub_012_day_12_data.csv,1,300,105.0,Training at home,,,,,,,,,,,,,
12,12,2642,B,56.35193515459602,24.823384919127943,2.817596757729801,0.38992481849582,B,952.1101000136696,Correct,sub_012_day_12_data.csv,1,300,105.0,Training at home,,,,,,,,,,,,,
12,12,2643,A,67.4419315438786,79.62367896868696,3.3720965771939295,1.2507258244990953,A,550.862500036601,Correct,sub_012_day_12_data.csv,1,300,105.0,Training at home,,,,,,,,,,,,,
12,12,2644,B,34.793456060044036,14.105930614885697,1.7396728030022015,0.2215754399588613,B,678.4378999727778,Correct,sub_012_day_12_data.csv,1,300,105.0,Training at home,,,,,,,,,,,,,
12,12,2645,A,52.60966584529149,82.58663162320167,2.6304832922645742,1.2972677759608844,A,572.8571000508964,Correct,sub_012_day_12_data.csv,1,300,105.0,Training at home,,,,,,,,,,,,,
12,12,2646,B,46.79324422762909,39.1850938953054,2.3396622113814542,0.6155180155585884,B,428.3310000319034,Correct,sub_012_day_12_data.csv,1,300,105.0,Training at home,,,,,,,,,,,,,
12,12,2647,A,66.69001853059105,85.7284305250113,3.334500926529552,1.3466190377057925,A,1062.4383999966085,Correct,sub_012_day_12_data.csv,1,300,105.0,Training at home,,,,,,,,,,,,,
12,12,2648,A,17.015608236446116,31.37970738665972,0.8507804118223058,0.4929112909886377,A,489.05650002416223,Correct,sub_012_day_12_data.csv,1,300,105.0,Training at home,,,,,,,,,,,,,
12,12,2649,B,41.50368812599119,19.325984022567507,2.0751844062995595,0.303571847143459,B,401.38150000711903,Correct,sub_012_day_12_data.csv,1,300,105.0,Training at home,,,,,,,,,,,,,
12,12,2650,B,36.9618983767502,14.604410423255125,1.8480949188375095,0.2294055424785425,B,434.7944000037387,Correct,sub_012_day_12_data.csv,1,300,106.0,Training at home,,,,,,,,,,,,,
12,12,2651,B,77.3106385468457,50.42248026824331,3.865531927342285,0.7920344679324474,B,422.64950001845136,Correct,sub_012_day_12_data.csv,1,300,106.0,Training at home,,,,,,,,,,,,,
12,12,2652,A,33.65832486269768,49.18005436340992,1.682916243134884,0.7725184874561762,A,971.205200010445,Correct,sub_012_day_12_data.csv,1,300,106.0,Training at home,,,,,,,,,,,,,
12,12,2653,B,80.92477704106219,57.29334546742526,4.046238852053109,0.8999617661002263,B,878.7948000244796,Correct,sub_012_day_12_data.csv,1,300,106.0,Training at home,,,,,,,,,,,,,
12,12,2654,A,37.16957793432966,67.2594334305352,1.858478896716483,1.0565087097499055,A,989.8224000353366,Correct,sub_012_day_12_data.csv,1,300,106.0,Training at home,,,,,,,,,,,,,
12,12,2655,B,86.63857497317537,63.419216147848125,4.331928748658768,0.9961867177325144,B,409.55929999472573,Correct,sub_012_day_12_data.csv,1,300,106.0,Training at home,,,,,,,,,,,,,
12,12,2656,B,70.4105695269232,48.27490390306514,3.52052847634616,0.7583004172731134,B,565.5633000424132,Correct,sub_012_day_12_data.csv,1,300,106.0,Training at home,,,,,,,,,,,,,
12,12,2657,B,68.75729920207326,59.24961408680067,3.4378649601036626,0.9306907617156166,B,688.2798000006005,Correct,sub_012_day_12_data.csv,1,300,106.0,Training at home,,,,,,,,,,,,,
12,12,2658,B,76.54049314362355,53.36877094524115,3.8270246571811777,0.8383146936634299,B,498.137200018391,Correct,sub_012_day_12_data.csv,1,300,106.0,Training at home,,,,,,,,,,,,,
12,12,2659,A,37.25053793237758,62.20294328087419,1.8625268966188793,0.9770815482142846,A,900.3950000042096,Correct,sub_012_day_12_data.csv,1,300,106.0,Training at home,,,,,,,,,,,,,
12,12,2660,B,73.04025840852273,62.7180588635875,3.6520129204261367,0.9851729648662936,B,1074.503499956336,Correct,sub_012_day_12_data.csv,1,300,106.0,Training at home,,,,,,,,,,,,,
12,12,2661,A,61.6940940372044,79.44594546911536,3.08470470186022,1.2479339932163405,B,505.70899999001995,Incorrect,sub_012_day_12_data.csv,0,300,106.0,Training at home,,,,,,,,,,,,,
12,12,2662,A,53.34695232441316,60.41788902591854,2.667347616220658,0.9490419815461454,A,1035.0974000175484,Correct,sub_012_day_12_data.csv,1,300,106.0,Training at home,,,,,,,,,,,,,
12,12,2663,A,53.60200351160641,77.60440535098013,2.680100175580321,1.219007148684218,A,1102.843699976802,Correct,sub_012_day_12_data.csv,1,300,106.0,Training at home,,,,,,,,,,,,,
12,12,2664,B,86.56405758098164,58.8649207961562,4.328202879049082,0.9246480136367466,B,850.465500028804,Correct,sub_012_day_12_data.csv,1,300,106.0,Training at home,,,,,,,,,,,,,
12,12,2665,B,58.85171833729475,34.20658490381819,2.9425859168647377,0.5373157791911537,B,545.7830999512225,Correct,sub_012_day_12_data.csv,1,300,106.0,Training at home,,,,,,,,,,,,,
12,12,2666,A,13.820480544611236,34.83275257907722,0.6910240272305618,0.5471515980336996,A,423.43699996126816,Correct,sub_012_day_12_data.csv,1,300,106.0,Training at home,,,,,,,,,,,,,
12,12,2667,A,16.512217527537167,34.64944825733329,0.8256108763768583,0.5442722604808896,A,1008.0603000242264,Correct,sub_012_day_12_data.csv,1,300,106.0,Training at home,,,,,,,,,,,,,
12,12,2668,B,81.09745244719619,49.86562398494547,4.0548726223598095,0.7832873898888784,B,1640.131600026507,Correct,sub_012_day_12_data.csv,1,300,106.0,Training at home,,,,,,,,,,,,,
12,12,2669,A,58.8123669494627,68.19075952407209,2.940618347473135,1.0711379458176655,A,1757.7337000402622,Correct,sub_012_day_12_data.csv,1,300,106.0,Training at home,,,,,,,,,,,,,
12,12,2670,B,57.94633397232014,43.30338698786815,2.8973166986160073,0.680208012183212,B,843.0214000400156,Correct,sub_012_day_12_data.csv,1,300,106.0,Training at home,,,,,,,,,,,,,
12,12,2671,A,20.94967893492013,43.97579222034821,1.0474839467460064,0.6907701288761855,A,467.2570999828167,Correct,sub_012_day_12_data.csv,1,300,106.0,Training at home,,,,,,,,,,,,,
12,12,2672,B,30.41544637832548,14.028208180826564,1.520772318916274,0.2203545788195648,B,1060.7459000311792,Correct,sub_012_day_12_data.csv,1,300,106.0,Training at home,,,,,,,,,,,,,
12,12,2673,A,15.648844730582764,40.19659772224968,0.7824422365291381,0.6314066805176191,A,831.9960000226274,Correct,sub_012_day_12_data.csv,1,300,106.0,Training at home,,,,,,,,,,,,,
12,12,2674,A,33.05075292875166,48.22035635680959,1.652537646437583,0.7574435864201744,A,959.0787999914028,Correct,sub_012_day_12_data.csv,1,300,106.0,Training at home,,,,,,,,,,,,,
12,12,2675,B,49.84549593773637,24.34435915748068,2.4922747968868184,0.3824002994274636,B,1120.2453000005337,Correct,sub_012_day_12_data.csv,1,300,107.0,Training at home,,,,,,,,,,,,,
12,12,2676,B,32.16368920288949,12.50067191257353,1.6081844601444746,0.1963600952273863,B,2562.0843999786302,Correct,sub_012_day_12_data.csv,1,300,107.0,Training at home,,,,,,,,,,,,,
12,12,2677,B,47.61659200321081,34.9982534230936,2.3808296001605407,0.5497512792123235,B,1669.177700008731,Correct,sub_012_day_12_data.csv,1,300,107.0,Training at home,,,,,,,,,,,,,
12,12,2678,A,56.073698181902486,68.05745264603718,2.803684909095125,1.0690439662741282,A,2038.073799980339,Correct,sub_012_day_12_data.csv,1,300,107.0,Training at home,,,,,,,,,,,,,
12,12,2679,A,52.52853985933641,79.84571571558297,2.6264269929668207,1.2542135695634729,A,1149.490799987689,Correct,sub_012_day_12_data.csv,1,300,107.0,Training at home,,,,,,,,,,,,,
12,12,2680,B,81.38702697354296,65.3910603609402,4.069351348677148,1.0271603742018824,B,1623.19120002212,Correct,sub_012_day_12_data.csv,1,300,107.0,Training at home,,,,,,,,,,,,,
12,12,2681,A,57.66990484412971,76.66728263933342,2.8834952422064855,1.2042868595521108,A,899.5649000280537,Correct,sub_012_day_12_data.csv,1,300,107.0,Training at home,,,,,,,,,,,,,
12,12,2682,B,84.18643401545718,55.29300446294572,4.2093217007728585,0.8685404830784896,B,813.2876000017859,Correct,sub_012_day_12_data.csv,1,300,107.0,Training at home,,,,,,,,,,,,,
12,12,2683,B,60.93277420961606,31.035159370485097,3.046638710480803,0.487499143406522,B,743.7324000056833,Correct,sub_012_day_12_data.csv,1,300,107.0,Training at home,,,,,,,,,,,,,
12,12,2684,B,73.91205545782456,50.18494405637834,3.695602772891229,0.7883032578416647,B,970.4642000142484,Correct,sub_012_day_12_data.csv,1,300,107.0,Training at home,,,,,,,,,,,,,
12,12,2685,B,85.86915740606489,63.75069690670067,4.293457870303245,1.001393605316602,B,636.2770000123419,Correct,sub_012_day_12_data.csv,1,300,107.0,Training at home,,,,,,,,,,,,,
12,12,2686,B,75.74484290232188,64.16900578825715,3.787242145116094,1.0079643858627478,B,786.6914999904111,Correct,sub_012_day_12_data.csv,1,300,107.0,Training at home,,,,,,,,,,,,,
12,12,2687,A,24.299493608637675,52.248605061651496,1.2149746804318835,0.8207191691099941,A,2281.15880000405,Correct,sub_012_day_12_data.csv,1,300,107.0,Training at home,,,,,,,,,,,,,
12,12,2688,A,60.077117183140544,70.91173608833607,3.0038558591570275,1.113878945742074,A,2349.3005000054836,Correct,sub_012_day_12_data.csv,1,300,107.0,Training at home,,,,,,,,,,,,,
12,12,2689,A,16.08941053289671,38.8245309103375,0.8044705266448355,0.6098543054349306,A,922.5835999823177,Correct,sub_012_day_12_data.csv,1,300,107.0,Training at home,,,,,,,,,,,,,
12,12,2690,A,49.589979325601114,56.77846618485843,2.479498966280056,0.8918740612422386,B,1200.333499989938,Incorrect,sub_012_day_12_data.csv,0,300,107.0,Training at home,,,,,,,,,,,,,
12,12,2691,A,54.151943489864735,63.848508622472714,2.707597174493237,1.002930028155124,B,1006.5479000331834,Incorrect,sub_012_day_12_data.csv,0,300,107.0,Training at home,,,,,,,,,,,,,
12,12,2692,A,22.827558523476345,50.236465201579215,1.1413779261738173,0.7891125500980027,A,1517.719199997373,Correct,sub_012_day_12_data.csv,1,300,107.0,Training at home,,,,,,,,,,,,,
12,12,2693,B,58.679634963164936,49.70159006031197,2.933981748158247,0.7807107510260378,B,813.9825999969617,Correct,sub_012_day_12_data.csv,1,300,107.0,Training at home,,,,,,,,,,,,,
12,12,2694,B,64.72289617939566,40.215688759318375,3.236144808969783,0.6317065618266412,B,6313.954300014302,Correct,sub_012_day_12_data.csv,1,300,107.0,Training at home,,,,,,,,,,,,,
12,12,2695,A,30.105281908106996,49.50102281998487,1.5052640954053498,0.777560248182226,A,448.32189998123795,Correct,sub_012_day_12_data.csv,1,300,107.0,Training at home,,,,,,,,,,,,,
12,12,2696,B,56.92578863946753,36.397114230161144,2.8462894319733767,0.5717245333867139,B,1228.1340000336058,Correct,sub_012_day_12_data.csv,1,300,107.0,Training at home,,,,,,,,,,,,,
12,12,2697,A,32.10928006137902,54.44768130540602,1.6054640030689509,0.8552621779703095,A,1078.675299999304,Correct,sub_012_day_12_data.csv,1,300,107.0,Training at home,,,,,,,,,,,,,
12,12,2698,A,23.472076956244205,35.88302716744279,1.1736038478122104,0.5636492726890061,A,2318.321999977343,Correct,sub_012_day_12_data.csv,1,300,107.0,Training at home,,,,,,,,,,,,,
12,12,2699,A,23.962444508943705,45.81715410823365,1.1981222254471853,0.7196941737740913,A,3172.077499970328,Correct,sub_012_day_12_data.csv,1,300,107.0,Training at home,,,,,,,,,,,,,
