subject,day,trial,cat,x,y,xt,yt,resp,rt,fb,f_name,acc,n_trials,block,session_type,ns_left_digit,ns_right_digit,ns_left_size,ns_right_size,ns_congruent,ns_cue,ns_correct_side,ns_resp,ns_rt,ns_fb,acc_stroop,acc_stroop_mean,resp_key
11,20,4500,B,59.97263920939311,40.93811104730362,2.9986319604696554,0.643054344590261,B,924.4546660338528,Correct,sub_011_day_20_data.csv,1,300,180.0,Training at home,,,,,,,,,,,,,
11,20,4501,A,29.11632491941674,53.83060494127203,1.455816245970837,0.8455691651089732,A,854.7407919541001,Correct,sub_011_day_20_data.csv,1,300,180.0,Training at home,,,,,,,,,,,,,
11,20,4502,B,57.69342303714949,36.62694500107864,2.8846711518574746,0.5753347066941303,B,660.2589589892887,Correct,sub_011_day_20_data.csv,1,300,180.0,Training at home,,,,,,,,,,,,,
11,20,4503,A,41.66526764040037,58.95261492964359,2.083263382020019,0.9260255098643811,A,585.2394159883261,Correct,sub_011_day_20_data.csv,1,300,180.0,Training at home,,,,,,,,,,,,,
11,20,4504,B,61.94440697620421,28.77834122226648,3.0972203488102106,0.4520491268318634,B,475.0040830112994,Correct,sub_011_day_20_data.csv,1,300,180.0,Training at home,,,,,,,,,,,,,
11,20,4505,B,66.98855402408559,36.2147535714182,3.3494277012042795,0.5688600188576607,B,531.3828749931417,Correct,sub_011_day_20_data.csv,1,300,180.0,Training at home,,,,,,,,,,,,,
11,20,4506,A,17.675562698187502,41.05675509923427,0.8837781349093752,0.6449180009999484,A,596.8602920183912,Correct,sub_011_day_20_data.csv,1,300,180.0,Training at home,,,,,,,,,,,,,
11,20,4507,B,33.920658640022694,13.953832205363335,1.6960329320011345,0.2191862837289706,B,729.032582952641,Correct,sub_011_day_20_data.csv,1,300,180.0,Training at home,,,,,,,,,,,,,
11,20,4508,A,63.65837471001949,74.08721081893617,3.1829187355009743,1.1637591861686405,A,789.3042080104351,Correct,sub_011_day_20_data.csv,1,300,180.0,Training at home,,,,,,,,,,,,,
11,20,4509,A,51.68534007687156,80.04305018989393,2.584267003843578,1.2573132922374493,A,462.5438330112957,Correct,sub_011_day_20_data.csv,1,300,180.0,Training at home,,,,,,,,,,,,,
11,20,4510,B,74.01234835644786,45.40177635676622,3.7006174178223934,0.7131694353117177,B,436.77654198836535,Correct,sub_011_day_20_data.csv,1,300,180.0,Training at home,,,,,,,,,,,,,
11,20,4511,A,41.06807785872816,67.58863824290012,2.053403892936408,1.0616798468501658,A,749.1250419989228,Correct,sub_011_day_20_data.csv,1,300,180.0,Training at home,,,,,,,,,,,,,
11,20,4512,B,53.29606032411559,46.52681082554469,2.6648030162057794,0.7308414354224664,B,691.5944999782369,Correct,sub_011_day_20_data.csv,1,300,180.0,Training at home,,,,,,,,,,,,,
11,20,4513,B,70.55187381220571,45.15485303957084,3.527593690610286,0.7092907729152124,B,445.92641602503136,Correct,sub_011_day_20_data.csv,1,300,180.0,Training at home,,,,,,,,,,,,,
11,20,4514,A,22.8446851703835,44.92868946518725,1.142234258519175,0.705738203796247,A,523.7707500346005,Correct,sub_011_day_20_data.csv,1,300,180.0,Training at home,,,,,,,,,,,,,
11,20,4515,A,36.93771446314083,45.823955020418424,1.8468857231570412,0.7198010022528781,B,750.6302500260063,Incorrect,sub_011_day_20_data.csv,0,300,180.0,Training at home,,,,,,,,,,,,,
11,20,4516,B,46.12604380641649,32.92781437106394,2.3063021903208245,0.5172288986345144,B,1187.0982910040766,Correct,sub_011_day_20_data.csv,1,300,180.0,Training at home,,,,,,,,,,,,,
11,20,4517,A,41.94187491708979,68.81135231922084,2.09709374585449,1.0808861946482158,A,842.7817500196397,Correct,sub_011_day_20_data.csv,1,300,180.0,Training at home,,,,,,,,,,,,,
11,20,4518,A,31.419864470581892,60.08497815515901,1.5709932235290949,0.9438126298167536,A,555.1537920255214,Correct,sub_011_day_20_data.csv,1,300,180.0,Training at home,,,,,,,,,,,,,
11,20,4519,A,52.30897340471243,80.01796929663907,2.615448670235622,1.2569193224874746,A,587.3997089802288,Correct,sub_011_day_20_data.csv,1,300,180.0,Training at home,,,,,,,,,,,,,
11,20,4520,B,79.61350239208305,59.962819651834785,3.980675119604152,0.9418937685336692,B,1077.1557920379564,Correct,sub_011_day_20_data.csv,1,300,180.0,Training at home,,,,,,,,,,,,,
11,20,4521,A,52.365565555097206,79.0619515565426,2.61827827775486,1.2419022309425316,A,658.1054169801064,Correct,sub_011_day_20_data.csv,1,300,180.0,Training at home,,,,,,,,,,,,,
11,20,4522,B,79.23622992983346,48.17362533815544,3.961811496491673,0.7567095372956811,B,721.2430000072345,Correct,sub_011_day_20_data.csv,1,300,180.0,Training at home,,,,,,,,,,,,,
11,20,4523,A,63.120355542702775,87.60060665268563,3.1560177771351388,1.3760271115504317,A,500.6547090015374,Correct,sub_011_day_20_data.csv,1,300,180.0,Training at home,,,,,,,,,,,,,
11,20,4524,A,19.20562675064843,45.701649273700646,0.9602813375324216,0.7178798280759763,A,490.4207920189947,Correct,sub_011_day_20_data.csv,1,300,180.0,Training at home,,,,,,,,,,,,,
11,20,4525,B,59.231390885455085,39.32368525923721,2.9615695442727543,0.6176950036124842,B,930.8255000505596,Correct,sub_011_day_20_data.csv,1,300,181.0,Training at home,,,,,,,,,,,,,
11,20,4526,B,38.08313853136961,12.933169120859375,1.9041569265684808,0.2031537454886309,B,906.5557499998248,Correct,sub_011_day_20_data.csv,1,300,181.0,Training at home,,,,,,,,,,,,,
11,20,4527,B,85.41141424219705,57.476459998154795,4.270570712109853,0.9028381224227536,B,558.1220000167377,Correct,sub_011_day_20_data.csv,1,300,181.0,Training at home,,,,,,,,,,,,,
11,20,4528,B,65.62986450880086,42.243618972648655,3.2814932254400433,0.6635612151275971,B,644.9633750016801,Correct,sub_011_day_20_data.csv,1,300,181.0,Training at home,,,,,,,,,,,,,
11,20,4529,A,24.284294611050207,47.94572243483033,1.2142147305525102,0.7531296468615915,A,700.2367919776589,Correct,sub_011_day_20_data.csv,1,300,181.0,Training at home,,,,,,,,,,,,,
11,20,4530,A,50.495871762276686,74.07703799094064,2.5247935881138344,1.1635993917601557,A,886.457166983746,Correct,sub_011_day_20_data.csv,1,300,181.0,Training at home,,,,,,,,,,,,,
11,20,4531,B,65.66447422588682,44.112760694000464,3.2832237112943408,0.6929216246291822,B,822.2834590123966,Correct,sub_011_day_20_data.csv,1,300,181.0,Training at home,,,,,,,,,,,,,
11,20,4532,A,23.584858545042433,51.55057031953312,1.1792429272521217,0.8097544650210463,A,524.5008750353009,Correct,sub_011_day_20_data.csv,1,300,181.0,Training at home,,,,,,,,,,,,,
11,20,4533,A,56.91284176133831,66.21235694789505,2.845642088066916,1.0400612708218608,A,2189.1537090414204,Correct,sub_011_day_20_data.csv,1,300,181.0,Training at home,,,,,,,,,,,,,
11,20,4534,B,46.135465813552706,20.81015355016759,2.3067732906776355,0.3268851275664102,B,682.0828749914654,Correct,sub_011_day_20_data.csv,1,300,181.0,Training at home,,,,,,,,,,,,,
11,20,4535,A,24.308388146390666,46.662025718708605,1.2154194073195332,0.7329653859975649,A,1347.4494999973103,Correct,sub_011_day_20_data.csv,1,300,181.0,Training at home,,,,,,,,,,,,,
11,20,4536,A,13.608910057373263,40.71420489804311,0.6804455028686632,0.6395372350222089,A,633.295834006276,Correct,sub_011_day_20_data.csv,1,300,181.0,Training at home,,,,,,,,,,,,,
11,20,4537,A,37.031310092852635,49.55239674856181,1.851565504642632,0.7783672279652426,A,565.3795000398532,Correct,sub_011_day_20_data.csv,1,300,181.0,Training at home,,,,,,,,,,,,,
11,20,4538,B,46.22250716163346,38.568905247021654,2.3111253580816733,0.6058389469052202,B,3078.705290972721,Correct,sub_011_day_20_data.csv,1,300,181.0,Training at home,,,,,,,,,,,,,
11,20,4539,A,16.77144808570023,33.84323099908892,0.8385724042850115,0.5316082294024005,A,646.8937079771422,Correct,sub_011_day_20_data.csv,1,300,181.0,Training at home,,,,,,,,,,,,,
11,20,4540,B,48.54267631328605,27.014041743865413,2.4271338156643023,0.4243355754314779,B,520.7079999963753,Correct,sub_011_day_20_data.csv,1,300,181.0,Training at home,,,,,,,,,,,,,
11,20,4541,A,42.78605755981168,54.56787546572609,2.139302877990584,0.8571501834256389,A,1322.096791001968,Correct,sub_011_day_20_data.csv,1,300,181.0,Training at home,,,,,,,,,,,,,
11,20,4542,A,50.413881052110135,74.50676620069667,2.520694052605507,1.1703495466942049,A,758.0176659976132,Correct,sub_011_day_20_data.csv,1,300,181.0,Training at home,,,,,,,,,,,,,
11,20,4543,A,42.49886074077742,69.3173273870506,2.1249430370388707,1.0888340324281838,A,583.5637080017477,Correct,sub_011_day_20_data.csv,1,300,181.0,Training at home,,,,,,,,,,,,,
11,20,4544,A,52.138960456633086,75.34300238562332,2.606948022831654,1.1834851139703626,A,524.0559580270201,Correct,sub_011_day_20_data.csv,1,300,181.0,Training at home,,,,,,,,,,,,,
11,20,4545,B,81.65176391422581,56.97451082753631,4.08258819571129,0.8949535232883009,B,703.4908750210889,Correct,sub_011_day_20_data.csv,1,300,181.0,Training at home,,,,,,,,,,,,,
11,20,4546,A,24.12311171580287,43.97620904992378,1.2061555857901436,0.6907766764198476,A,550.4218749701977,Correct,sub_011_day_20_data.csv,1,300,181.0,Training at home,,,,,,,,,,,,,
11,20,4547,B,65.06268845917504,36.21869408601487,3.253134422958752,0.5689219163162019,B,842.544250015635,Correct,sub_011_day_20_data.csv,1,300,181.0,Training at home,,,,,,,,,,,,,
11,20,4548,A,34.097287624527425,66.43134987969339,1.7048643812263713,1.0435012037504896,A,622.6740419515409,Correct,sub_011_day_20_data.csv,1,300,181.0,Training at home,,,,,,,,,,,,,
11,20,4549,B,57.35279777114266,44.516780223494145,2.8676398885571333,0.699267948558003,B,755.8646670076996,Correct,sub_011_day_20_data.csv,1,300,181.0,Training at home,,,,,,,,,,,,,
11,20,4550,B,72.87115412270478,53.40683889496484,3.643557706135238,0.8389126636193758,B,522.5074579939246,Correct,sub_011_day_20_data.csv,1,300,182.0,Training at home,,,,,,,,,,,,,
11,20,4551,A,20.984896041004355,41.01260152760062,1.049244802050218,0.6442244383185782,A,491.9902079855092,Correct,sub_011_day_20_data.csv,1,300,182.0,Training at home,,,,,,,,,,,,,
11,20,4552,A,25.259856312901412,56.04410641309309,1.2629928156450705,0.8803387649218894,A,539.3355420092121,Correct,sub_011_day_20_data.csv,1,300,182.0,Training at home,,,,,,,,,,,,,
11,20,4553,B,44.425955279510376,18.18786292691391,2.221297763975519,0.2856942827784544,B,486.2561670015566,Correct,sub_011_day_20_data.csv,1,300,182.0,Training at home,,,,,,,,,,,,,
11,20,4554,B,40.70737022498525,21.222925594715708,2.0353685112492625,0.3333689356802083,B,485.3728750022128,Correct,sub_011_day_20_data.csv,1,300,182.0,Training at home,,,,,,,,,,,,,
11,20,4555,B,44.84719357321368,18.986500208143596,2.242359678660684,0.298239247856425,B,544.422208040487,Correct,sub_011_day_20_data.csv,1,300,182.0,Training at home,,,,,,,,,,,,,
11,20,4556,B,49.58146746621496,39.678933075708855,2.479073373310748,0.62327522326464,B,948.7368749687448,Correct,sub_011_day_20_data.csv,1,300,182.0,Training at home,,,,,,,,,,,,,
11,20,4557,A,33.69205891368322,48.97610375692322,1.684602945684161,0.7693148388210074,A,815.7925420091487,Correct,sub_011_day_20_data.csv,1,300,182.0,Training at home,,,,,,,,,,,,,
11,20,4558,A,58.95370462409197,75.6064676959951,2.9476852312045985,1.1876236173880608,A,652.2062920266762,Correct,sub_011_day_20_data.csv,1,300,182.0,Training at home,,,,,,,,,,,,,
11,20,4559,B,44.99264936870495,31.97614314060752,2.2496324684352476,0.5022800819033412,B,605.2165000000969,Correct,sub_011_day_20_data.csv,1,300,182.0,Training at home,,,,,,,,,,,,,
11,20,4560,A,38.97992109469422,68.63438868500745,1.948996054734711,1.0781064563822291,A,732.9929579864256,Correct,sub_011_day_20_data.csv,1,300,182.0,Training at home,,,,,,,,,,,,,
11,20,4561,B,75.81688222872545,62.55124776286535,3.790844111436272,0.9825527022234636,B,1264.3185000051744,Correct,sub_011_day_20_data.csv,1,300,182.0,Training at home,,,,,,,,,,,,,
11,20,4562,A,45.80080723175744,52.43510606761765,2.290040361587872,0.8236487200611461,A,2512.520207965281,Correct,sub_011_day_20_data.csv,1,300,182.0,Training at home,,,,,,,,,,,,,
11,20,4563,B,52.47913295667796,25.892190457434957,2.6239566478338983,0.406713576632127,B,684.123000013642,Correct,sub_011_day_20_data.csv,1,300,182.0,Training at home,,,,,,,,,,,,,
11,20,4564,B,63.604394127767264,51.75835870972417,3.180219706388363,0.8130183974216738,B,680.0386249669828,Correct,sub_011_day_20_data.csv,1,300,182.0,Training at home,,,,,,,,,,,,,
11,20,4565,A,47.939681448046485,75.8111944749071,2.3969840724023244,1.1908394581111763,A,524.5565840159543,Correct,sub_011_day_20_data.csv,1,300,182.0,Training at home,,,,,,,,,,,,,
11,20,4566,B,49.55059121471334,26.862139556184747,2.477529560735667,0.4219495014470689,B,522.3371250322089,Correct,sub_011_day_20_data.csv,1,300,182.0,Training at home,,,,,,,,,,,,,
11,20,4567,B,48.819527579883385,23.98328213941051,2.4409763789941694,0.3767285148907168,B,548.5533750033937,Correct,sub_011_day_20_data.csv,1,300,182.0,Training at home,,,,,,,,,,,,,
11,20,4568,A,19.96155181554038,39.21887528857414,0.9980775907770189,0.616048652443194,A,598.0624160147272,Correct,sub_011_day_20_data.csv,1,300,182.0,Training at home,,,,,,,,,,,,,
11,20,4569,A,29.34272888774622,41.95535464284667,1.4671364443873107,0.6590331696236076,A,862.9201249568723,Correct,sub_011_day_20_data.csv,1,300,182.0,Training at home,,,,,,,,,,,,,
11,20,4570,B,80.38612222026985,53.426943449273246,4.019306111013493,0.8392284652199706,B,749.1014159750193,Correct,sub_011_day_20_data.csv,1,300,182.0,Training at home,,,,,,,,,,,,,
11,20,4571,B,80.18787774659968,52.504435820960886,4.009393887329984,0.8247377492800374,B,683.8049170328304,Correct,sub_011_day_20_data.csv,1,300,182.0,Training at home,,,,,,,,,,,,,
11,20,4572,B,49.780816813196594,34.059439330037065,2.48904084065983,0.5350044219231586,B,700.7407080382109,Correct,sub_011_day_20_data.csv,1,300,182.0,Training at home,,,,,,,,,,,,,
11,20,4573,A,12.36332388216836,34.667173586711925,0.618166194108418,0.5445506893036816,A,758.7121659889817,Correct,sub_011_day_20_data.csv,1,300,182.0,Training at home,,,,,,,,,,,,,
11,20,4574,B,35.22839221257718,23.000634718078217,1.7614196106288589,0.3612931252910843,B,592.752875003498,Correct,sub_011_day_20_data.csv,1,300,182.0,Training at home,,,,,,,,,,,,,
11,20,4575,B,61.748217012911944,35.067444141746506,3.0874108506455973,0.5508381244794063,B,507.82995799090713,Correct,sub_011_day_20_data.csv,1,300,183.0,Training at home,,,,,,,,,,,,,
11,20,4576,A,22.67548320059438,37.27769815024481,1.133774160029719,0.5855567132577346,A,641.9920839834958,Correct,sub_011_day_20_data.csv,1,300,183.0,Training at home,,,,,,,,,,,,,
11,20,4577,A,43.99670147631923,67.68613260928207,2.1998350738159616,1.0632112847761257,A,571.5451249852777,Correct,sub_011_day_20_data.csv,1,300,183.0,Training at home,,,,,,,,,,,,,
11,20,4578,A,31.377481247353565,60.6594909089034,1.5688740623676782,0.952837055049539,A,693.2767499820329,Correct,sub_011_day_20_data.csv,1,300,183.0,Training at home,,,,,,,,,,,,,
11,20,4579,B,56.7470337993958,25.49351536881654,2.8373516899697897,0.4004512029842625,B,591.3874999969266,Correct,sub_011_day_20_data.csv,1,300,183.0,Training at home,,,,,,,,,,,,,
11,20,4580,A,22.37878841111316,38.79488869948297,1.118939420555658,0.6093886866756469,A,581.9484579842538,Correct,sub_011_day_20_data.csv,1,300,183.0,Training at home,,,,,,,,,,,,,
11,20,4581,B,46.453271206598146,17.963818558403272,2.3226635603299073,0.2821750020674985,B,659.6780419931747,Correct,sub_011_day_20_data.csv,1,300,183.0,Training at home,,,,,,,,,,,,,
11,20,4582,B,50.358333493643315,27.15730947551009,2.5179166746821657,0.4265860196976348,B,651.0782089899294,Correct,sub_011_day_20_data.csv,1,300,183.0,Training at home,,,,,,,,,,,,,
11,20,4583,A,30.600311702722777,63.932246598764635,1.5300155851361388,1.00424538121085,A,562.7151659573428,Correct,sub_011_day_20_data.csv,1,300,183.0,Training at home,,,,,,,,,,,,,
11,20,4584,A,43.60611200834306,62.542307030683325,2.180305600417153,0.98241226153076,A,604.9922499805689,Correct,sub_011_day_20_data.csv,1,300,183.0,Training at home,,,,,,,,,,,,,
11,20,4585,A,55.36177146878276,77.96441183733486,2.768088573439138,1.2246621173481014,A,643.3725419919938,Correct,sub_011_day_20_data.csv,1,300,183.0,Training at home,,,,,,,,,,,,,
11,20,4586,A,36.680575094369246,68.63814906198994,1.8340287547184624,1.0781655242457435,A,741.5538750356063,Correct,sub_011_day_20_data.csv,1,300,183.0,Training at home,,,,,,,,,,,,,
11,20,4587,B,74.83676403039223,62.95180858431041,3.741838201519612,0.9888446968933025,B,911.7592090042308,Correct,sub_011_day_20_data.csv,1,300,183.0,Training at home,,,,,,,,,,,,,
11,20,4588,B,44.96245161078045,33.805053347087856,2.2481225805390226,0.5310085362471113,B,1075.6315829930827,Correct,sub_011_day_20_data.csv,1,300,183.0,Training at home,,,,,,,,,,,,,
11,20,4589,B,36.742161438632166,13.092282567508263,1.8371080719316084,0.2056530936640283,B,462.93716598302126,Correct,sub_011_day_20_data.csv,1,300,183.0,Training at home,,,,,,,,,,,,,
11,20,4590,A,26.363823969030435,45.56649420804629,1.3181911984515216,0.7157568172692004,A,631.5413329866715,Correct,sub_011_day_20_data.csv,1,300,183.0,Training at home,,,,,,,,,,,,,
11,20,4591,A,53.71789198554642,74.27906194662447,2.685894599277321,1.1667727766352831,A,770.0755000114441,Correct,sub_011_day_20_data.csv,1,300,183.0,Training at home,,,,,,,,,,,,,
11,20,4592,A,44.35317482589207,52.63904456079587,2.2176587412946036,0.8268521784209102,A,700.1121659995988,Correct,sub_011_day_20_data.csv,1,300,183.0,Training at home,,,,,,,,,,,,,
11,20,4593,A,38.577338173363934,58.959760332427784,1.9288669086681969,0.9261377495888502,A,591.2164999754168,Correct,sub_011_day_20_data.csv,1,300,183.0,Training at home,,,,,,,,,,,,,
11,20,4594,A,40.63486065900266,53.416574857992714,2.031743032950134,0.8390655957689956,A,597.215999965556,Correct,sub_011_day_20_data.csv,1,300,183.0,Training at home,,,,,,,,,,,,,
11,20,4595,A,37.25762985078239,45.35359251937995,1.8628814925391195,0.7124125653639451,A,597.9526250157505,Correct,sub_011_day_20_data.csv,1,300,183.0,Training at home,,,,,,,,,,,,,
11,20,4596,B,34.14500923490239,23.301493438442108,1.7072504617451194,0.3660190030194025,B,710.8976249583066,Correct,sub_011_day_20_data.csv,1,300,183.0,Training at home,,,,,,,,,,,,,
11,20,4597,B,87.27456240175349,64.64563127188453,4.363728120087674,1.015451201452135,B,737.2249580221251,Correct,sub_011_day_20_data.csv,1,300,183.0,Training at home,,,,,,,,,,,,,
11,20,4598,A,48.62978711541315,55.84411563348922,2.4314893557706574,0.8771973171019432,A,875.6049160147086,Correct,sub_011_day_20_data.csv,1,300,183.0,Training at home,,,,,,,,,,,,,
11,20,4599,A,52.06198883303484,59.99668210177996,2.603099441651742,0.9424256786535709,A,804.0526250260882,Correct,sub_011_day_20_data.csv,1,300,183.0,Training at home,,,,,,,,,,,,,
11,20,4600,A,44.838049806860006,76.85039596936554,2.241902490343,1.2071631970141268,A,607.5242499937303,Correct,sub_011_day_20_data.csv,1,300,184.0,Training at home,,,,,,,,,,,,,
11,20,4601,A,47.68586294266959,70.90819488585456,2.384293147133479,1.11382332066357,A,538.7803750345483,Correct,sub_011_day_20_data.csv,1,300,184.0,Training at home,,,,,,,,,,,,,
11,20,4602,A,20.6397554156685,51.02079092910547,1.031987770783425,0.8014327098160925,A,867.9258750053123,Correct,sub_011_day_20_data.csv,1,300,184.0,Training at home,,,,,,,,,,,,,
11,20,4603,B,41.79963604716966,13.969901883367648,2.089981802358483,0.21943870564079,B,955.1933340262622,Correct,sub_011_day_20_data.csv,1,300,184.0,Training at home,,,,,,,,,,,,,
11,20,4604,B,83.3972704127013,65.51068325477787,4.169863520635065,1.0290394062242902,A,4196.289165993221,Incorrect,sub_011_day_20_data.csv,0,300,184.0,Training at home,,,,,,,,,,,,,
11,20,4605,B,50.51157170750231,35.375488621214345,2.5255785853751154,0.5556768758477816,B,1337.8076659864746,Correct,sub_011_day_20_data.csv,1,300,184.0,Training at home,,,,,,,,,,,,,
11,20,4606,B,72.91451670594223,39.92346969003064,3.645725835297112,0.6271163954200751,B,2243.503416015301,Correct,sub_011_day_20_data.csv,1,300,184.0,Training at home,,,,,,,,,,,,,
11,20,4607,A,25.96310804082291,47.167326935359945,1.2981554020411454,0.7409026389479739,A,918.833583011292,Correct,sub_011_day_20_data.csv,1,300,184.0,Training at home,,,,,,,,,,,,,
11,20,4608,A,32.96901714327742,49.367727565681186,1.648450857163871,0.7754664512238316,A,701.6812920337543,Correct,sub_011_day_20_data.csv,1,300,184.0,Training at home,,,,,,,,,,,,,
11,20,4609,A,50.26411508789082,74.23521890582191,2.513205754394541,1.166084091760801,A,757.9231249983422,Correct,sub_011_day_20_data.csv,1,300,184.0,Training at home,,,,,,,,,,,,,
11,20,4610,A,65.58455769263956,81.13839674220242,3.2792278846319785,1.2745189556467855,A,793.9061670331284,Correct,sub_011_day_20_data.csv,1,300,184.0,Training at home,,,,,,,,,,,,,
11,20,4611,B,86.07086992601366,69.51216484478662,4.303543496300683,1.091894532057522,B,789.4275420112535,Correct,sub_011_day_20_data.csv,1,300,184.0,Training at home,,,,,,,,,,,,,
11,20,4612,B,71.3613059418329,49.05722503356771,3.5680652970916444,0.7705890888547879,B,1585.8124580117874,Correct,sub_011_day_20_data.csv,1,300,184.0,Training at home,,,,,,,,,,,,,
11,20,4613,A,57.996057754096114,79.89719324933125,2.899802887704806,1.2550221767727154,A,600.7202919572592,Correct,sub_011_day_20_data.csv,1,300,184.0,Training at home,,,,,,,,,,,,,
11,20,4614,B,77.19738668541707,58.53948779177944,3.859869334270854,0.9195361239578184,B,508.3255830104463,Correct,sub_011_day_20_data.csv,1,300,184.0,Training at home,,,,,,,,,,,,,
11,20,4615,A,30.310714044958026,54.17596893475782,1.5155357022479012,0.8509941300327201,A,642.6323329797015,Correct,sub_011_day_20_data.csv,1,300,184.0,Training at home,,,,,,,,,,,,,
11,20,4616,A,37.988163078729585,54.24492004154389,1.899408153936479,0.8520772114854002,A,612.8105419920757,Correct,sub_011_day_20_data.csv,1,300,184.0,Training at home,,,,,,,,,,,,,
11,20,4617,A,56.99460433279319,85.81801594039482,2.849730216639659,1.348026242119981,A,511.32791698910296,Correct,sub_011_day_20_data.csv,1,300,184.0,Training at home,,,,,,,,,,,,,
11,20,4618,B,56.00254341432246,37.06777771889461,2.8001271707161233,0.5822592908328936,B,857.656791980844,Correct,sub_011_day_20_data.csv,1,300,184.0,Training at home,,,,,,,,,,,,,
11,20,4619,A,50.47258003133171,60.129351536957635,2.5236290015665857,0.9445096452681212,A,652.7159590041265,Correct,sub_011_day_20_data.csv,1,300,184.0,Training at home,,,,,,,,,,,,,
11,20,4620,B,50.63587466751402,27.232999660058937,2.531793733375701,0.4277749583362725,B,571.3511250214651,Correct,sub_011_day_20_data.csv,1,300,184.0,Training at home,,,,,,,,,,,,,
11,20,4621,A,35.44862945567286,49.37384587090624,1.772431472783643,0.775562557337569,A,640.0557499728166,Correct,sub_011_day_20_data.csv,1,300,184.0,Training at home,,,,,,,,,,,,,
11,20,4622,A,16.648332153175723,34.445520024103445,0.8324166076587861,0.5410689632840174,A,509.8286669817753,Correct,sub_011_day_20_data.csv,1,300,184.0,Training at home,,,,,,,,,,,,,
11,20,4623,B,81.05856460863961,67.89403670725915,4.052928230431981,1.0664770347104051,B,493.6351249925792,Correct,sub_011_day_20_data.csv,1,300,184.0,Training at home,,,,,,,,,,,,,
11,20,4624,B,34.58679486083206,13.284739155397848,1.729339743041603,0.2086761946772727,B,1087.39537501242,Correct,sub_011_day_20_data.csv,1,300,184.0,Training at home,,,,,,,,,,,,,
11,20,4625,B,71.20548254511452,51.39001623404938,3.560274127255726,0.8072324873437486,B,612.8497080062516,Correct,sub_011_day_20_data.csv,1,300,185.0,Training at home,,,,,,,,,,,,,
11,20,4626,B,86.92096421585897,62.686595721996994,4.346048210792949,0.9846787429938956,B,1192.6805000402965,Correct,sub_011_day_20_data.csv,1,300,185.0,Training at home,,,,,,,,,,,,,
11,20,4627,B,54.15834581901085,27.89888755862195,2.707917290950542,0.438234700987472,B,639.5399160101078,Correct,sub_011_day_20_data.csv,1,300,185.0,Training at home,,,,,,,,,,,,,
11,20,4628,B,33.15230129521696,16.7176949666868,1.657615064760848,0.2626009384614916,B,1031.9707919843495,Correct,sub_011_day_20_data.csv,1,300,185.0,Training at home,,,,,,,,,,,,,
11,20,4629,B,86.12828765346202,66.00855833194201,4.306414382673101,1.0368600096484115,B,969.9280000058934,Correct,sub_011_day_20_data.csv,1,300,185.0,Training at home,,,,,,,,,,,,,
11,20,4630,B,65.31245514769567,52.28269264272978,3.265622757384784,0.821254615581465,A,996.053790964652,Incorrect,sub_011_day_20_data.csv,0,300,185.0,Training at home,,,,,,,,,,,,,
11,20,4631,A,39.943902345406826,70.82280060186301,1.9971951172703413,1.112481950387338,A,556.7408750066534,Correct,sub_011_day_20_data.csv,1,300,185.0,Training at home,,,,,,,,,,,,,
11,20,4632,B,79.0327568359877,56.37408419902156,3.9516378417993847,0.8855220438624928,B,822.3194999736734,Correct,sub_011_day_20_data.csv,1,300,185.0,Training at home,,,,,,,,,,,,,
11,20,4633,B,82.8678072527722,67.53982992940402,4.14339036263861,1.0609131676545984,B,656.0926249949262,Correct,sub_011_day_20_data.csv,1,300,185.0,Training at home,,,,,,,,,,,,,
11,20,4634,A,28.55483571732221,38.21775245269885,1.4277417858661103,0.6003230517105601,A,535.2853329968639,Correct,sub_011_day_20_data.csv,1,300,185.0,Training at home,,,,,,,,,,,,,
11,20,4635,A,36.91196431494734,47.347370750943206,1.845598215747367,0.743730760589777,A,951.5779580106029,Correct,sub_011_day_20_data.csv,1,300,185.0,Training at home,,,,,,,,,,,,,
11,20,4636,A,42.22468090771455,51.68968408311313,2.1112340453857272,0.8119396589094273,A,1031.44379099831,Correct,sub_011_day_20_data.csv,1,300,185.0,Training at home,,,,,,,,,,,,,
11,20,4637,B,54.01549102783868,37.608930388911,2.700774551391934,0.5907596970958636,A,2385.0880000391044,Incorrect,sub_011_day_20_data.csv,0,300,185.0,Training at home,,,,,,,,,,,,,
11,20,4638,A,43.95594874386611,69.14805038915141,2.1977974371933056,1.0861750355630746,A,1346.80366597604,Correct,sub_011_day_20_data.csv,1,300,185.0,Training at home,,,,,,,,,,,,,
11,20,4639,A,37.13538510905353,62.89205447345984,1.8567692554526765,0.9879060815149528,A,788.5859999805689,Correct,sub_011_day_20_data.csv,1,300,185.0,Training at home,,,,,,,,,,,,,
11,20,4640,B,62.61826968943297,53.787318940430424,3.1309134844716486,0.8448892301977368,B,1962.5130419735797,Correct,sub_011_day_20_data.csv,1,300,185.0,Training at home,,,,,,,,,,,,,
11,20,4641,A,24.19632760313642,53.792897955152384,1.2098163801568211,0.8449768651560606,A,1359.9087920156308,Correct,sub_011_day_20_data.csv,1,300,185.0,Training at home,,,,,,,,,,,,,
11,20,4642,A,21.2208864954067,42.82843404540285,1.061044324770335,0.6727474688089629,A,1433.7731249979695,Correct,sub_011_day_20_data.csv,1,300,185.0,Training at home,,,,,,,,,,,,,
11,20,4643,A,47.02108268185425,78.69687354879036,2.3510541340927125,1.2361675990068235,A,1473.6846250016242,Correct,sub_011_day_20_data.csv,1,300,185.0,Training at home,,,,,,,,,,,,,
11,20,4644,B,57.91967272371998,26.67215278886257,2.8959836361859987,0.4189651962845758,B,905.4930830025114,Correct,sub_011_day_20_data.csv,1,300,185.0,Training at home,,,,,,,,,,,,,
11,20,4645,B,46.71261383309533,29.748704257463935,2.3356306916547664,0.4672915537453205,B,1003.968833014369,Correct,sub_011_day_20_data.csv,1,300,185.0,Training at home,,,,,,,,,,,,,
11,20,4646,B,47.809041235489495,19.12510063089726,2.3904520617744747,0.3004163782059618,B,729.4711249996908,Correct,sub_011_day_20_data.csv,1,300,185.0,Training at home,,,,,,,,,,,,,
11,20,4647,A,30.70460865827816,39.59663318611821,1.535230432913908,0.6219824596219937,A,1091.9330830220133,Correct,sub_011_day_20_data.csv,1,300,185.0,Training at home,,,,,,,,,,,,,
11,20,4648,B,38.5527294510636,27.12813867705178,1.92763647255318,0.426127805866955,B,2736.7554579977877,Correct,sub_011_day_20_data.csv,1,300,185.0,Training at home,,,,,,,,,,,,,
11,20,4649,A,59.497761031518365,86.800075114001,2.974888051575918,1.363452391545939,A,1288.8200409943238,Correct,sub_011_day_20_data.csv,1,300,185.0,Training at home,,,,,,,,,,,,,
11,20,4650,B,42.896418906143495,25.620245121798035,2.1448209453071745,0.4024418692890522,B,1090.943583054468,Correct,sub_011_day_20_data.csv,1,300,186.0,Training at home,,,,,,,,,,,,,
11,20,4651,A,52.850953987722455,82.0919568856799,2.6425476993861228,1.28949744335431,A,1223.2100410037674,Correct,sub_011_day_20_data.csv,1,300,186.0,Training at home,,,,,,,,,,,,,
11,20,4652,B,50.71994091366722,37.270572297458315,2.535997045683361,0.5854447806239115,B,2749.817667005118,Correct,sub_011_day_20_data.csv,1,300,186.0,Training at home,,,,,,,,,,,,,
11,20,4653,B,45.05357930091444,35.333031994777556,2.252678965045722,0.5550099687192315,B,901.3222079956904,Correct,sub_011_day_20_data.csv,1,300,186.0,Training at home,,,,,,,,,,,,,
11,20,4654,B,75.56420004212347,65.14820473650559,3.778210002106174,1.023345606973849,B,1657.711041974835,Correct,sub_011_day_20_data.csv,1,300,186.0,Training at home,,,,,,,,,,,,,
11,20,4655,B,83.47486854149615,62.99070721732376,4.1737434270748075,0.9894557151918494,B,2478.6665000137873,Correct,sub_011_day_20_data.csv,1,300,186.0,Training at home,,,,,,,,,,,,,
11,20,4656,A,65.79365463998603,78.81294093283914,3.289682731999301,1.2379907812120687,A,2017.7039169939237,Correct,sub_011_day_20_data.csv,1,300,186.0,Training at home,,,,,,,,,,,,,
11,20,4657,A,38.338965621302634,67.89985635396638,1.9169482810651317,1.066568449507115,A,1207.490083994344,Correct,sub_011_day_20_data.csv,1,300,186.0,Training at home,,,,,,,,,,,,,
11,20,4658,A,47.88340064740202,63.79459864559345,2.394170032370101,1.0020832122185288,A,1205.0149999558926,Correct,sub_011_day_20_data.csv,1,300,186.0,Training at home,,,,,,,,,,,,,
11,20,4659,B,61.92370060405857,49.44520585570777,3.0961850302029283,0.7766834773576327,A,1804.132750025019,Incorrect,sub_011_day_20_data.csv,0,300,186.0,Training at home,,,,,,,,,,,,,
11,20,4660,B,75.62019292033737,59.39081757323832,3.781009646016869,0.9329087808938854,B,2189.6649170084856,Correct,sub_011_day_20_data.csv,1,300,186.0,Training at home,,,,,,,,,,,,,
11,20,4661,A,34.02266500856629,48.545686639049045,1.7011332504283143,0.7625538625435433,A,903.5229170112872,Correct,sub_011_day_20_data.csv,1,300,186.0,Training at home,,,,,,,,,,,,,
11,20,4662,B,80.48966909900196,67.282755553086,4.024483454950098,1.0568750527942643,B,1342.5625000381842,Correct,sub_011_day_20_data.csv,1,300,186.0,Training at home,,,,,,,,,,,,,
11,20,4663,B,71.29370471034363,42.4335003239166,3.564685235517181,0.6665438644185824,B,1831.160124973394,Correct,sub_011_day_20_data.csv,1,300,186.0,Training at home,,,,,,,,,,,,,
11,20,4664,A,20.88507311195277,51.7442208690534,1.0442536555976387,0.8127963207397291,A,1334.5861670095474,Correct,sub_011_day_20_data.csv,1,300,186.0,Training at home,,,,,,,,,,,,,
11,20,4665,A,51.01025303944263,59.657766572348216,2.5505126519721317,0.9371020059663192,A,2271.75937499851,Correct,sub_011_day_20_data.csv,1,300,186.0,Training at home,,,,,,,,,,,,,
11,20,4666,A,62.08994451613937,84.96603987943362,3.1044972258069685,1.3346434334492303,A,1358.2268339814618,Correct,sub_011_day_20_data.csv,1,300,186.0,Training at home,,,,,,,,,,,,,
11,20,4667,B,33.92680364494501,12.199143864565844,1.6963401822472506,0.1916237037250252,B,995.6082080025226,Correct,sub_011_day_20_data.csv,1,300,186.0,Training at home,,,,,,,,,,,,,
11,20,4668,B,52.7022002312392,29.25022817658828,2.6351100115619595,0.4594615097769745,B,2013.1634999997912,Correct,sub_011_day_20_data.csv,1,300,186.0,Training at home,,,,,,,,,,,,,
11,20,4669,B,70.00907612437204,46.31002237155778,3.500453806218602,0.7274361303503244,B,1406.757374992594,Correct,sub_011_day_20_data.csv,1,300,186.0,Training at home,,,,,,,,,,,,,
11,20,4670,B,55.24041942301741,35.64261323226698,2.7620209711508705,0.5598728594261615,B,1228.3172080060467,Correct,sub_011_day_20_data.csv,1,300,186.0,Training at home,,,,,,,,,,,,,
11,20,4671,B,75.82117500063114,49.03827437136887,3.791058750031557,0.7702914125490654,B,817.8779169684276,Correct,sub_011_day_20_data.csv,1,300,186.0,Training at home,,,,,,,,,,,,,
11,20,4672,A,25.08401678805556,36.72156672839116,1.2542008394027782,0.5768210213111052,A,1183.0841249902733,Correct,sub_011_day_20_data.csv,1,300,186.0,Training at home,,,,,,,,,,,,,
11,20,4673,A,59.54010836303614,75.81886697954143,2.977005418151807,1.190959977532145,A,1472.2778750001453,Correct,sub_011_day_20_data.csv,1,300,186.0,Training at home,,,,,,,,,,,,,
11,20,4674,A,26.25359878426144,36.48567634648937,1.312679939213072,0.5731156638569295,A,958.5049580200576,Correct,sub_011_day_20_data.csv,1,300,186.0,Training at home,,,,,,,,,,,,,
11,20,4675,B,87.3329005930001,67.69257911409348,4.366645029650005,1.0633125462369095,B,2479.22070795903,Correct,sub_011_day_20_data.csv,1,300,187.0,Training at home,,,,,,,,,,,,,
11,20,4676,B,57.275062717481745,29.35681110295876,2.8637531358740875,0.4611357104693926,B,1257.8435419709422,Correct,sub_011_day_20_data.csv,1,300,187.0,Training at home,,,,,,,,,,,,,
11,20,4677,A,21.29608693599021,47.98991980363742,1.0648043467995103,0.7538238975073532,A,674.3365410366096,Correct,sub_011_day_20_data.csv,1,300,187.0,Training at home,,,,,,,,,,,,,
11,20,4678,A,45.71249727986774,72.67664120934583,2.285624863993387,1.1416020105543103,A,474.3601249647327,Correct,sub_011_day_20_data.csv,1,300,187.0,Training at home,,,,,,,,,,,,,
11,20,4679,A,45.65060324974448,63.675791835165114,2.282530162487224,1.0002169992043382,A,476.4352079946548,Correct,sub_011_day_20_data.csv,1,300,187.0,Training at home,,,,,,,,,,,,,
11,20,4680,A,63.42199279415092,77.39719665496646,3.1710996397075455,1.2157523220984356,A,471.1419999948703,Correct,sub_011_day_20_data.csv,1,300,187.0,Training at home,,,,,,,,,,,,,
11,20,4681,B,50.06111842552544,21.062280318530828,2.5030559212762715,0.3308455255827267,B,518.8568749581464,Correct,sub_011_day_20_data.csv,1,300,187.0,Training at home,,,,,,,,,,,,,
11,20,4682,A,33.86063525927151,55.20129611719105,1.6930317629635754,0.867099931752011,A,523.1415840098634,Correct,sub_011_day_20_data.csv,1,300,187.0,Training at home,,,,,,,,,,,,,
11,20,4683,B,37.38519267405976,18.301649259528432,1.869259633702988,0.287481634311558,B,505.9015000006184,Correct,sub_011_day_20_data.csv,1,300,187.0,Training at home,,,,,,,,,,,,,
11,20,4684,A,38.938205130121865,68.75285504954516,1.9469102565060936,1.0799673216848749,A,536.2849170342088,Correct,sub_011_day_20_data.csv,1,300,187.0,Training at home,,,,,,,,,,,,,
11,20,4685,B,61.9380439709452,50.0181099264026,3.0969021985472605,0.7856826334561657,B,1848.6403750139289,Correct,sub_011_day_20_data.csv,1,300,187.0,Training at home,,,,,,,,,,,,,
11,20,4686,B,43.063660565527755,29.622720405516333,2.1531830282763877,0.4653126040265728,B,531.4911659806967,Correct,sub_011_day_20_data.csv,1,300,187.0,Training at home,,,,,,,,,,,,,
11,20,4687,A,15.657178859737993,35.71968601075381,0.7828589429868997,0.5610835157995914,A,457.4399589910172,Correct,sub_011_day_20_data.csv,1,300,187.0,Training at home,,,,,,,,,,,,,
11,20,4688,B,58.23183417484215,46.891517132420915,2.9115917087421077,0.7365702286944674,B,539.9009159882553,Correct,sub_011_day_20_data.csv,1,300,187.0,Training at home,,,,,,,,,,,,,
11,20,4689,B,39.356625760780645,18.94288744872424,1.9678312880390323,0.2975541802334518,B,518.889916012995,Correct,sub_011_day_20_data.csv,1,300,187.0,Training at home,,,,,,,,,,,,,
11,20,4690,B,38.92554705203608,29.01672899239894,1.946277352601804,0.4557937131686324,B,571.9392499886453,Correct,sub_011_day_20_data.csv,1,300,187.0,Training at home,,,,,,,,,,,,,
11,20,4691,B,84.37472306662795,61.76615717853264,4.218736153331397,0.9702205281627532,B,676.4032499631867,Correct,sub_011_day_20_data.csv,1,300,187.0,Training at home,,,,,,,,,,,,,
11,20,4692,B,72.97438319308833,60.65611662397848,3.6487191596544166,0.9527840519058826,B,1949.4184160139412,Correct,sub_011_day_20_data.csv,1,300,187.0,Training at home,,,,,,,,,,,,,
11,20,4693,A,27.00212295123131,53.61352779672639,1.3501061475615654,0.842159325296139,A,519.6230000001378,Correct,sub_011_day_20_data.csv,1,300,187.0,Training at home,,,,,,,,,,,,,
11,20,4694,A,21.22569975735317,43.06433474896774,1.0612849878676585,0.6764529883954435,A,416.968125035055,Correct,sub_011_day_20_data.csv,1,300,187.0,Training at home,,,,,,,,,,,,,
11,20,4695,B,36.672055336338595,10.997184026904195,1.8336027668169297,0.1727433627454861,B,1224.9903329648075,Correct,sub_011_day_20_data.csv,1,300,187.0,Training at home,,,,,,,,,,,,,
11,20,4696,A,49.8306637479421,61.848981161710206,2.4915331873971045,0.9715215242482114,A,1167.9795410018414,Correct,sub_011_day_20_data.csv,1,300,187.0,Training at home,,,,,,,,,,,,,
11,20,4697,A,60.72638484891412,85.1334541095049,3.036319242445706,1.3372731700257217,A,532.6549579622224,Correct,sub_011_day_20_data.csv,1,300,187.0,Training at home,,,,,,,,,,,,,
11,20,4698,A,20.603772770585927,51.56018541405622,1.0301886385292962,0.8099054985726333,A,512.066415976733,Correct,sub_011_day_20_data.csv,1,300,187.0,Training at home,,,,,,,,,,,,,
11,20,4699,B,69.48448446959121,49.361585871273846,3.4742242234795606,0.7753699777136783,B,735.8747500111349,Correct,sub_011_day_20_data.csv,1,300,187.0,Training at home,,,,,,,,,,,,,
11,20,4700,A,53.18181524955913,64.98461870284855,2.6590907624779567,1.0207760035660145,A,819.204208033625,Correct,sub_011_day_20_data.csv,1,300,188.0,Training at home,,,,,,,,,,,,,
11,20,4701,A,55.376207479190754,83.27890868485548,2.7688103739595373,1.3081420386165858,A,600.4094580421224,Correct,sub_011_day_20_data.csv,1,300,188.0,Training at home,,,,,,,,,,,,,
11,20,4702,A,43.67192243196981,58.23825272239215,2.18359612159849,0.9148043345528648,A,543.6522499658167,Correct,sub_011_day_20_data.csv,1,300,188.0,Training at home,,,,,,,,,,,,,
11,20,4703,A,13.563801407018648,39.0119647959669,0.6781900703509324,0.6127985100255663,A,504.0278329979628,Correct,sub_011_day_20_data.csv,1,300,188.0,Training at home,,,,,,,,,,,,,
11,20,4704,A,16.78627629744493,31.911465524457597,0.8393138148722465,0.5012641282845998,A,570.5491250264458,Correct,sub_011_day_20_data.csv,1,300,188.0,Training at home,,,,,,,,,,,,,
11,20,4705,B,75.36224487030479,46.019721069899255,3.768112243515239,0.7228760881672345,B,644.9215830070898,Correct,sub_011_day_20_data.csv,1,300,188.0,Training at home,,,,,,,,,,,,,
11,20,4706,B,42.77159883265027,18.194288580580263,2.1385799416325137,0.2857952167102181,B,601.4371670316905,Correct,sub_011_day_20_data.csv,1,300,188.0,Training at home,,,,,,,,,,,,,
11,20,4707,B,64.26810767505079,52.11493348108554,3.213405383752539,0.8186194608324954,A,1358.76166599337,Incorrect,sub_011_day_20_data.csv,0,300,188.0,Training at home,,,,,,,,,,,,,
11,20,4708,A,35.36792903900342,52.27002583817388,1.7683964519501711,0.8210556458807787,A,436.8014160427265,Correct,sub_011_day_20_data.csv,1,300,188.0,Training at home,,,,,,,,,,,,,
11,20,4709,B,79.34470671176967,51.711665771327674,3.967235335588484,0.8122849464604689,B,559.8548330017366,Correct,sub_011_day_20_data.csv,1,300,188.0,Training at home,,,,,,,,,,,,,
11,20,4710,A,67.26675109473652,85.61824819170181,3.363337554736826,1.3448882976613898,A,687.2177920304239,Correct,sub_011_day_20_data.csv,1,300,188.0,Training at home,,,,,,,,,,,,,
11,20,4711,A,41.28546725313003,50.52033882386197,2.0642733626565017,0.7935716265295598,A,724.4226250331849,Correct,sub_011_day_20_data.csv,1,300,188.0,Training at home,,,,,,,,,,,,,
11,20,4712,A,58.18109270357959,75.11841424414646,2.909054635178979,1.1799572916936272,A,584.6459579770453,Correct,sub_011_day_20_data.csv,1,300,188.0,Training at home,,,,,,,,,,,,,
11,20,4713,B,54.03937013794306,22.890573341203243,2.701968506897153,0.3595642852259124,B,485.9456670237705,Correct,sub_011_day_20_data.csv,1,300,188.0,Training at home,,,,,,,,,,,,,
11,20,4714,B,79.93155881216586,53.903898485924266,3.996577940608293,0.8467204574161483,B,776.3509590295143,Correct,sub_011_day_20_data.csv,1,300,188.0,Training at home,,,,,,,,,,,,,
11,20,4715,B,84.52643172903353,60.773350125297135,4.226321586451677,0.9546255514383688,B,560.1305830059573,Correct,sub_011_day_20_data.csv,1,300,188.0,Training at home,,,,,,,,,,,,,
11,20,4716,B,64.23241691304148,31.898191752701667,3.2116208456520736,0.5010556243654304,B,561.4272079546936,Correct,sub_011_day_20_data.csv,1,300,188.0,Training at home,,,,,,,,,,,,,
11,20,4717,A,62.56396757031579,82.94132384986094,3.12819837851579,1.302839268428675,A,528.6854999721982,Correct,sub_011_day_20_data.csv,1,300,188.0,Training at home,,,,,,,,,,,,,
11,20,4718,B,56.67573750584807,25.613175720918026,2.8337868752924034,0.4023308233997025,B,494.13637502584606,Correct,sub_011_day_20_data.csv,1,300,188.0,Training at home,,,,,,,,,,,,,
11,20,4719,A,51.928634519704254,80.08124452059818,2.5964317259852128,1.2579132473811956,A,588.8556250138208,Correct,sub_011_day_20_data.csv,1,300,188.0,Training at home,,,,,,,,,,,,,
11,20,4720,A,55.69976222762334,76.170335623573,2.784988111381167,1.1964808340824291,A,415.17929098336026,Correct,sub_011_day_20_data.csv,1,300,188.0,Training at home,,,,,,,,,,,,,
11,20,4721,B,40.88099049584322,30.89897138893835,2.044049524792161,0.4853599075948496,B,462.5094170332886,Correct,sub_011_day_20_data.csv,1,300,188.0,Training at home,,,,,,,,,,,,,
11,20,4722,B,54.029215566654656,37.67565154695128,2.701460778332733,0.5918077505955553,B,855.1448750076815,Correct,sub_011_day_20_data.csv,1,300,188.0,Training at home,,,,,,,,,,,,,
11,20,4723,A,63.43177525285505,79.027355057785,3.1715887626427524,1.2413587904108476,A,490.3512909659185,Correct,sub_011_day_20_data.csv,1,300,188.0,Training at home,,,,,,,,,,,,,
11,20,4724,B,63.19948467151778,32.896015518480326,3.159974233575889,0.5167294034261681,B,658.3130420185626,Correct,sub_011_day_20_data.csv,1,300,188.0,Training at home,,,,,,,,,,,,,
11,20,4725,A,37.784436168950045,69.95883135402028,1.889221808447502,1.0989107531775868,A,520.9634159691632,Correct,sub_011_day_20_data.csv,1,300,189.0,Training at home,,,,,,,,,,,,,
11,20,4726,A,19.433372609250704,45.72793004358165,0.9716686304625352,0.7182926454439206,A,469.6281659998931,Correct,sub_011_day_20_data.csv,1,300,189.0,Training at home,,,,,,,,,,,,,
11,20,4727,A,41.220251325833694,58.75794774984239,2.0610125662916845,0.9229676849545888,A,522.5966249709018,Correct,sub_011_day_20_data.csv,1,300,189.0,Training at home,,,,,,,,,,,,,
11,20,4728,A,50.24311516427552,63.75357642932111,2.512155758213776,1.001438836752153,A,497.50083399703726,Correct,sub_011_day_20_data.csv,1,300,189.0,Training at home,,,,,,,,,,,,,
11,20,4729,B,41.71874658035869,28.73590350507274,2.0859373290179346,0.4513825167290086,B,511.0259170178324,Correct,sub_011_day_20_data.csv,1,300,189.0,Training at home,,,,,,,,,,,,,
11,20,4730,B,82.31966076002925,64.21701722663187,4.115983038001462,1.0087185477731793,A,453.93704099114984,Incorrect,sub_011_day_20_data.csv,0,300,189.0,Training at home,,,,,,,,,,,,,
11,20,4731,A,17.268982277860854,44.49621777832111,0.8634491138930427,0.6989449544245256,A,407.3690000222996,Correct,sub_011_day_20_data.csv,1,300,189.0,Training at home,,,,,,,,,,,,,
11,20,4732,B,53.86321704169911,25.716787659604336,2.6931608520849557,0.4039583559267081,B,478.8394999923185,Correct,sub_011_day_20_data.csv,1,300,189.0,Training at home,,,,,,,,,,,,,
11,20,4733,B,71.93826564967948,52.98288654273163,3.596913282483974,0.8322532356431359,B,513.204249960836,Correct,sub_011_day_20_data.csv,1,300,189.0,Training at home,,,,,,,,,,,,,
11,20,4734,B,51.32887428016198,19.892189871945003,2.5664437140080993,0.3124657878275785,B,530.6947079952806,Correct,sub_011_day_20_data.csv,1,300,189.0,Training at home,,,,,,,,,,,,,
11,20,4735,A,63.8484123713106,88.79167865928693,3.1924206185655297,1.3947364268796072,A,484.8175419610925,Correct,sub_011_day_20_data.csv,1,300,189.0,Training at home,,,,,,,,,,,,,
11,20,4736,A,49.97112008444909,57.699891806273705,2.4985560042224546,0.9063477810575769,A,652.6715829968452,Correct,sub_011_day_20_data.csv,1,300,189.0,Training at home,,,,,,,,,,,,,
11,20,4737,B,65.88326090646268,36.132341483068565,3.294163045323134,0.5675654928010296,B,791.4078750181943,Correct,sub_011_day_20_data.csv,1,300,189.0,Training at home,,,,,,,,,,,,,
11,20,4738,B,41.41320047836985,30.376811561266496,2.0706600239184927,0.4771578402017815,B,1485.9052919782698,Correct,sub_011_day_20_data.csv,1,300,189.0,Training at home,,,,,,,,,,,,,
11,20,4739,B,68.9513383031333,60.38167661739881,3.447566915156665,0.9484731583632734,B,521.71483397251,Correct,sub_011_day_20_data.csv,1,300,189.0,Training at home,,,,,,,,,,,,,
11,20,4740,A,60.812442520863634,77.35176409890232,3.0406221260431816,1.2150386691766109,A,500.01866597449407,Correct,sub_011_day_20_data.csv,1,300,189.0,Training at home,,,,,,,,,,,,,
11,20,4741,A,21.735843186913613,48.36232355659865,1.0867921593456806,0.7596736019797147,A,512.8816249780357,Correct,sub_011_day_20_data.csv,1,300,189.0,Training at home,,,,,,,,,,,,,
11,20,4742,B,37.37174351530625,18.984031051811968,1.8685871757653123,0.2982004624394649,B,486.2571249832399,Correct,sub_011_day_20_data.csv,1,300,189.0,Training at home,,,,,,,,,,,,,
11,20,4743,A,48.382179752852,76.00002409682807,2.4191089876425997,1.1938055868762116,A,444.8123329784721,Correct,sub_011_day_20_data.csv,1,300,189.0,Training at home,,,,,,,,,,,,,
11,20,4744,B,82.10280438927042,57.697362946071515,4.105140219463521,0.9063080578144108,B,639.2965419800021,Correct,sub_011_day_20_data.csv,1,300,189.0,Training at home,,,,,,,,,,,,,
11,20,4745,A,31.89901184852292,48.94600006846225,1.5949505924261462,0.7688419711884324,A,454.88258299883455,Correct,sub_011_day_20_data.csv,1,300,189.0,Training at home,,,,,,,,,,,,,
11,20,4746,B,43.331342892500246,17.591189450959238,2.166567144625012,0.276321757735199,B,454.8372909775935,Correct,sub_011_day_20_data.csv,1,300,189.0,Training at home,,,,,,,,,,,,,
11,20,4747,A,36.938349453590135,63.0220276121345,1.8469174726795068,0.989947694803074,A,465.69420903688297,Correct,sub_011_day_20_data.csv,1,300,189.0,Training at home,,,,,,,,,,,,,
11,20,4748,A,15.034974361895877,35.673849172433165,0.7517487180947938,0.5603635124269318,A,636.5145829622634,Correct,sub_011_day_20_data.csv,1,300,189.0,Training at home,,,,,,,,,,,,,
11,20,4749,A,55.09115906927309,67.80768919319988,2.7545579534636544,1.0651206911312838,A,552.1745409932919,Correct,sub_011_day_20_data.csv,1,300,189.0,Training at home,,,,,,,,,,,,,
11,20,4750,A,23.39304312926531,51.05665492984732,1.1696521564632654,0.8019960602223871,A,497.24870902718976,Correct,sub_011_day_20_data.csv,1,300,190.0,Training at home,,,,,,,,,,,,,
11,20,4751,A,52.3959326554131,81.31715451489319,2.6197966327706546,1.2773268761740726,A,449.1169169778004,Correct,sub_011_day_20_data.csv,1,300,190.0,Training at home,,,,,,,,,,,,,
11,20,4752,B,74.8017851797967,46.21149321835464,3.7400892589898342,0.7258884380309875,B,1124.992833007127,Correct,sub_011_day_20_data.csv,1,300,190.0,Training at home,,,,,,,,,,,,,
11,20,4753,B,58.07115527268122,31.802201328402266,2.903557763634061,0.4995478103064606,B,464.1618329915218,Correct,sub_011_day_20_data.csv,1,300,190.0,Training at home,,,,,,,,,,,,,
11,20,4754,A,66.91782604513853,79.82890768968079,3.3458913022569265,1.2539495497099946,A,930.063790990971,Correct,sub_011_day_20_data.csv,1,300,190.0,Training at home,,,,,,,,,,,,,
11,20,4755,B,57.44400784350786,39.87451987773994,2.872200392175393,0.6263474935666399,B,738.7737079989165,Correct,sub_011_day_20_data.csv,1,300,190.0,Training at home,,,,,,,,,,,,,
11,20,4756,A,59.1510942817102,70.97156054623721,2.95755471408551,1.1148186661293102,A,446.21479097986594,Correct,sub_011_day_20_data.csv,1,300,190.0,Training at home,,,,,,,,,,,,,
11,20,4757,B,53.20478358523756,34.511615418865134,2.6602391792618776,0.5421071873171147,B,604.4659159961157,Correct,sub_011_day_20_data.csv,1,300,190.0,Training at home,,,,,,,,,,,,,
11,20,4758,B,88.35709801530058,69.76143664834912,4.417854900765029,1.0958100843916168,B,772.9955000104383,Correct,sub_011_day_20_data.csv,1,300,190.0,Training at home,,,,,,,,,,,,,
11,20,4759,B,51.4538847700063,30.88504969674146,2.572694238500315,0.4851412261651932,B,476.2707499903627,Correct,sub_011_day_20_data.csv,1,300,190.0,Training at home,,,,,,,,,,,,,
11,20,4760,A,18.2708408990689,33.82132863742905,0.913542044953445,0.5312641879099659,A,473.17212499910966,Correct,sub_011_day_20_data.csv,1,300,190.0,Training at home,,,,,,,,,,,,,
11,20,4761,B,50.33719938313764,20.855172031240492,2.5168599691568816,0.3275922762134823,B,675.5138750304468,Correct,sub_011_day_20_data.csv,1,300,190.0,Training at home,,,,,,,,,,,,,
11,20,4762,B,59.68204144616678,43.949938521037424,2.9841020723083385,0.6903640199170711,B,675.3951660357416,Correct,sub_011_day_20_data.csv,1,300,190.0,Training at home,,,,,,,,,,,,,
11,20,4763,B,59.16399749289503,42.8637754174475,2.958199874644752,0.6733026097828791,B,458.5269999806769,Correct,sub_011_day_20_data.csv,1,300,190.0,Training at home,,,,,,,,,,,,,
11,20,4764,A,16.79788402384057,47.056925673366365,0.8398942011920285,0.7391684599798435,A,669.5855409489013,Correct,sub_011_day_20_data.csv,1,300,190.0,Training at home,,,,,,,,,,,,,
11,20,4765,B,68.81893058488309,44.69339640900525,3.4409465292441546,0.7020422291125368,B,653.3294580294751,Correct,sub_011_day_20_data.csv,1,300,190.0,Training at home,,,,,,,,,,,,,
11,20,4766,B,50.76927065355979,30.00487933738455,2.53846353267799,0.4713155424908775,B,520.1047500013374,Correct,sub_011_day_20_data.csv,1,300,190.0,Training at home,,,,,,,,,,,,,
11,20,4767,B,77.0124961276021,47.711311647532504,3.850624806380105,0.7494475308251063,B,475.9679170092568,Correct,sub_011_day_20_data.csv,1,300,190.0,Training at home,,,,,,,,,,,,,
11,20,4768,A,21.840806500849425,44.32950805612842,1.0920403250424713,0.696326284231913,A,607.6154999900609,Correct,sub_011_day_20_data.csv,1,300,190.0,Training at home,,,,,,,,,,,,,
11,20,4769,A,58.44244776595282,80.93497649989688,2.922122388297641,1.2713236379526929,A,774.2749589961022,Correct,sub_011_day_20_data.csv,1,300,190.0,Training at home,,,,,,,,,,,,,
11,20,4770,B,68.13176334484764,56.98644597648949,3.406588167242382,0.895141000169655,B,801.5119170304388,Correct,sub_011_day_20_data.csv,1,300,190.0,Training at home,,,,,,,,,,,,,
11,20,4771,B,85.23179178203216,61.629175376543415,4.261589589101607,0.9680688230487288,B,577.5823750300333,Correct,sub_011_day_20_data.csv,1,300,190.0,Training at home,,,,,,,,,,,,,
11,20,4772,B,34.14691337447904,20.817757957201856,1.707345668723952,0.327004577312779,B,566.3202499854378,Correct,sub_011_day_20_data.csv,1,300,190.0,Training at home,,,,,,,,,,,,,
11,20,4773,A,48.991628744433456,79.84993487028808,2.449581437221673,1.2542798438906024,A,785.9334590029903,Correct,sub_011_day_20_data.csv,1,300,190.0,Training at home,,,,,,,,,,,,,
11,20,4774,B,31.94942299762517,16.928977740689188,1.5974711498812584,0.2659197605146714,B,438.46362497424707,Correct,sub_011_day_20_data.csv,1,300,190.0,Training at home,,,,,,,,,,,,,
11,20,4775,A,58.482711446852306,86.0560327454967,2.9241355723426152,1.3517650013516755,A,646.894000004977,Correct,sub_011_day_20_data.csv,1,300,191.0,Training at home,,,,,,,,,,,,,
11,20,4776,B,81.4098313124602,59.13360042896845,4.07049156562301,0.9288684234398076,B,1204.4684999855235,Correct,sub_011_day_20_data.csv,1,300,191.0,Training at home,,,,,,,,,,,,,
11,20,4777,B,89.46278394767553,67.50509272191098,4.473139197383777,1.0603675168752669,B,575.3807500004768,Correct,sub_011_day_20_data.csv,1,300,191.0,Training at home,,,,,,,,,,,,,
11,20,4778,B,44.86535664645878,36.992360199675865,2.243267832322939,0.5810746352112458,B,469.9724579695612,Correct,sub_011_day_20_data.csv,1,300,191.0,Training at home,,,,,,,,,,,,,
11,20,4779,B,65.5022482168085,33.5081977057902,3.275112410840425,0.5263455387377244,B,510.36770798964426,Correct,sub_011_day_20_data.csv,1,300,191.0,Training at home,,,,,,,,,,,,,
11,20,4780,B,81.89368168700942,58.81600396592592,4.094684084350471,0.923879629864305,B,736.9049590197392,Correct,sub_011_day_20_data.csv,1,300,191.0,Training at home,,,,,,,,,,,,,
11,20,4781,A,40.886052843293925,64.36271559485871,2.044302642164696,1.011007172389487,A,549.9757910147309,Correct,sub_011_day_20_data.csv,1,300,191.0,Training at home,,,,,,,,,,,,,
11,20,4782,A,50.74780935298193,74.19512101608785,2.5373904676490966,1.1654542355817363,A,553.755667002406,Correct,sub_011_day_20_data.csv,1,300,191.0,Training at home,,,,,,,,,,,,,
11,20,4783,B,53.25911930808998,36.41648015295542,2.6629559654044987,0.5720287325906164,B,1225.2630000002682,Correct,sub_011_day_20_data.csv,1,300,191.0,Training at home,,,,,,,,,,,,,
11,20,4784,B,58.83927538536355,44.89311841398374,2.941963769268177,0.7051794550305399,B,2582.265999983065,Correct,sub_011_day_20_data.csv,1,300,191.0,Training at home,,,,,,,,,,,,,
11,20,4785,B,54.614127361146075,40.42396841960176,2.730706368057304,0.6349782110798334,B,2089.0525829745457,Correct,sub_011_day_20_data.csv,1,300,191.0,Training at home,,,,,,,,,,,,,
11,20,4786,A,41.72174985396085,72.8289338664433,2.086087492698043,1.1439942180179756,A,577.8263329993933,Correct,sub_011_day_20_data.csv,1,300,191.0,Training at home,,,,,,,,,,,,,
11,20,4787,A,57.9657180775275,82.03960267208257,2.898285903876375,1.2886750652902008,A,986.8868749472311,Correct,sub_011_day_20_data.csv,1,300,191.0,Training at home,,,,,,,,,,,,,
11,20,4788,B,59.2203967732895,36.86960957217216,2.961019838664475,0.5791464728632998,B,652.9499579919502,Correct,sub_011_day_20_data.csv,1,300,191.0,Training at home,,,,,,,,,,,,,
11,20,4789,B,78.83288720355469,65.45250303832577,3.941644360177735,1.0281255135213394,B,2032.5225419946944,Correct,sub_011_day_20_data.csv,1,300,191.0,Training at home,,,,,,,,,,,,,
11,20,4790,A,37.2435694651802,51.18723421644517,1.86217847325901,0.8040471948598211,A,2144.3613339797594,Correct,sub_011_day_20_data.csv,1,300,191.0,Training at home,,,,,,,,,,,,,
11,20,4791,A,35.53025299344657,62.54872556969825,1.7765126496723282,0.9825130837058402,A,493.9540420309641,Correct,sub_011_day_20_data.csv,1,300,191.0,Training at home,,,,,,,,,,,,,
11,20,4792,B,69.8650992463289,36.9874276212553,3.4932549623164446,0.5809971544505993,B,509.0563330450095,Correct,sub_011_day_20_data.csv,1,300,191.0,Training at home,,,,,,,,,,,,,
11,20,4793,A,56.2885394666107,84.44847702454214,2.814426973330535,1.3265135751357402,A,491.571250022389,Correct,sub_011_day_20_data.csv,1,300,191.0,Training at home,,,,,,,,,,,,,
11,20,4794,B,59.61084596425504,40.28673461542379,2.980542298212752,0.632822547524685,B,474.3371249642223,Correct,sub_011_day_20_data.csv,1,300,191.0,Training at home,,,,,,,,,,,,,
11,20,4795,A,19.897216094750313,51.3525325389714,0.9948608047375156,0.8066436948383169,A,558.0703330342658,Correct,sub_011_day_20_data.csv,1,300,191.0,Training at home,,,,,,,,,,,,,
11,20,4796,B,67.76133924529435,56.65367636719331,3.388066962264718,0.8899138673701409,B,5008.048000046983,Correct,sub_011_day_20_data.csv,1,300,191.0,Training at home,,,,,,,,,,,,,
11,20,4797,A,26.36660926465967,36.70197839529462,1.3183304632329833,0.5765133284943443,A,520.2218749909662,Correct,sub_011_day_20_data.csv,1,300,191.0,Training at home,,,,,,,,,,,,,
11,20,4798,A,29.245592998811453,55.979589092292024,1.4622796499405726,0.8793253292165997,A,471.9584580161609,Correct,sub_011_day_20_data.csv,1,300,191.0,Training at home,,,,,,,,,,,,,
11,20,4799,A,43.10033446843924,66.57906946498169,2.155016723421962,1.045821577570155,A,452.1352919982746,Correct,sub_011_day_20_data.csv,1,300,191.0,Training at home,,,,,,,,,,,,,
