subject,day,trial,cat,x,y,xt,yt,resp,rt,fb,f_name,acc,n_trials,block,session_type,ns_left_digit,ns_right_digit,ns_left_size,ns_right_size,ns_congruent,ns_cue,ns_correct_side,ns_resp,ns_rt,ns_fb,acc_stroop,acc_stroop_mean,resp_key
11,22,0,B,85.81068537835621,58.70132120279879,4.290534268917811,0.9220781972336372,B,1048.528541927226,Correct,sub_011_day_22_data.csv,1,344,,Dual-Task at home,8.0,6.0,small,big,False,Size,right,right,675.085874972865,Correct,1.0,0.9825581395348837,
11,22,1,B,48.060029156246735,40.7135328875734,2.4030014578123366,0.6395266791064351,B,1179.249459062703,Correct,sub_011_day_22_data.csv,1,344,,Dual-Task at home,2.0,7.0,big,small,False,Size,left,left,530.4562919773161,Correct,1.0,0.9825581395348837,
11,22,2,B,33.87804983388216,14.549739799804762,1.693902491694108,0.2285467783335483,B,669.2333749961108,Correct,sub_011_day_22_data.csv,1,344,,Dual-Task at home,7.0,4.0,small,big,False,Value,left,left,481.71341593842953,Correct,1.0,0.9825581395348837,
11,22,3,B,84.75446664307016,64.50458125558652,4.237723332153508,1.0132355929771824,B,1791.4112500147894,Correct,sub_011_day_22_data.csv,1,344,,Dual-Task at home,5.0,4.0,small,big,False,Value,left,left,524.3197919335216,Correct,1.0,0.9825581395348837,
11,22,4,B,74.88274789623888,46.52338024338679,3.744137394811944,0.7307875479639424,B,876.0352079989389,Correct,sub_011_day_22_data.csv,1,344,,Dual-Task at home,8.0,7.0,small,big,False,Value,left,left,445.0029579456896,Correct,1.0,0.9825581395348837,
11,22,5,B,66.31038587394876,58.07267134560364,3.315519293697438,0.9122033883684144,A,909.4850829569624,Incorrect,sub_011_day_22_data.csv,0,344,,Dual-Task at home,4.0,6.0,big,small,False,Size,left,left,1487.1170000405982,Correct,1.0,0.9825581395348837,
11,22,6,A,21.82294082960902,48.68822525939533,1.0911470414804512,0.7647928539562069,A,753.8796250009909,Correct,sub_011_day_22_data.csv,1,344,,Dual-Task at home,6.0,4.0,big,small,True,Value,left,left,323.9947089459747,Correct,1.0,0.9825581395348837,
11,22,7,B,56.27075543956827,48.33135119474236,2.813537771978414,0.7591870892573543,B,2414.0834159916267,Correct,sub_011_day_22_data.csv,1,344,,Dual-Task at home,4.0,7.0,big,small,False,Value,right,right,520.2664160169661,Correct,1.0,0.9825581395348837,
11,22,8,B,75.73007525744373,49.904039099974455,3.7865037628721865,0.7838908131046878,B,1609.410083037801,Correct,sub_011_day_22_data.csv,1,344,,Dual-Task at home,8.0,2.0,small,big,False,Value,left,left,518.6702499631792,Correct,1.0,0.9825581395348837,
11,22,9,A,55.90200345951384,69.64424914431362,2.7951001729756917,1.0939693073827643,A,900.484082987532,Correct,sub_011_day_22_data.csv,1,344,,Dual-Task at home,5.0,2.0,small,big,False,Value,left,left,421.5943749295547,Correct,1.0,0.9825581395348837,
11,22,10,B,39.73638391862588,19.51917765277493,1.986819195931294,0.3066065255903589,B,779.1778750251979,Correct,sub_011_day_22_data.csv,1,344,,Dual-Task at home,5.0,4.0,small,big,False,Size,right,right,408.7127499515191,Correct,1.0,0.9825581395348837,
11,22,11,B,83.2366687631642,61.64462500601009,4.16183343815821,0.9683115052608948,B,1146.8520829221234,Correct,sub_011_day_22_data.csv,1,344,,Dual-Task at home,4.0,2.0,small,big,False,Value,left,left,373.7487919861451,Correct,1.0,0.9825581395348837,
11,22,12,B,54.92713099017544,31.3989455568902,2.7463565495087723,0.4932134834599607,B,792.3554580193013,Correct,sub_011_day_22_data.csv,1,344,,Dual-Task at home,3.0,2.0,small,big,False,Value,left,left,723.0145829962566,Correct,1.0,0.9825581395348837,
11,22,13,A,33.419209166218494,66.6362178804558,1.6709604583109243,1.0467192627812438,A,640.2371249860153,Correct,sub_011_day_22_data.csv,1,344,,Dual-Task at home,8.0,2.0,big,small,True,Size,left,left,635.5946250259876,Correct,1.0,0.9825581395348837,
11,22,14,B,60.16274584415609,28.932474120528585,3.0081372922078047,0.454470240736147,B,592.3420829931274,Correct,sub_011_day_22_data.csv,1,344,,Dual-Task at home,7.0,3.0,small,big,False,Size,right,right,839.054667041637,Correct,1.0,0.9825581395348837,
11,22,15,A,29.186404969617303,44.85301818722958,1.4593202484808652,0.7045495621416491,A,822.8470000904053,Correct,sub_011_day_22_data.csv,1,344,,Dual-Task at home,7.0,3.0,small,big,False,Value,left,left,833.5449160076678,Correct,1.0,0.9825581395348837,
11,22,16,B,48.09205774323313,19.441699640862637,2.4046028871616563,0.3053895038251669,B,571.1908339289948,Correct,sub_011_day_22_data.csv,1,344,,Dual-Task at home,4.0,3.0,small,big,False,Size,right,right,447.526374948211,Correct,1.0,0.9825581395348837,
11,22,17,A,42.13114549974412,62.54609947192387,2.106557274987206,0.9824718330584624,A,718.4259169735014,Correct,sub_011_day_22_data.csv,1,344,,Dual-Task at home,2.0,8.0,big,small,False,Size,left,left,772.8771669790149,Correct,1.0,0.9825581395348837,
11,22,18,A,26.901571497573023,55.66468056106949,1.3450785748786511,0.8743787575753923,A,740.0011669378728,Correct,sub_011_day_22_data.csv,1,344,,Dual-Task at home,7.0,3.0,small,big,False,Value,left,left,709.4442920060828,Correct,1.0,0.9825581395348837,
11,22,19,A,29.93480880235289,46.57918436473412,1.4967404401176447,0.7316641170522664,A,722.0907500013709,Correct,sub_011_day_22_data.csv,1,344,,Dual-Task at home,4.0,7.0,big,small,False,Value,right,right,772.4687498994172,Correct,1.0,0.9825581395348837,
11,22,20,B,68.26174724525826,58.66027244596098,3.4130873622629134,0.921433404869034,B,1088.460624916479,Correct,sub_011_day_22_data.csv,1,344,,Dual-Task at home,6.0,5.0,small,big,False,Size,right,right,722.6661250460893,Correct,1.0,0.9825581395348837,
11,22,21,A,31.62061395538168,40.896494828493566,1.581030697769084,0.6424006385538419,A,719.5816250750795,Correct,sub_011_day_22_data.csv,1,344,,Dual-Task at home,2.0,8.0,big,small,False,Size,left,left,587.9111250396818,Correct,1.0,0.9825581395348837,
11,22,22,B,52.24092028102345,38.00915919138384,2.6120460140511725,0.5970464764238823,B,622.6290829945356,Correct,sub_011_day_22_data.csv,1,344,,Dual-Task at home,8.0,2.0,small,big,False,Size,right,right,468.9899579389021,Correct,1.0,0.9825581395348837,
11,22,23,A,27.478778103835175,42.510888450730846,1.3739389051917588,0.667759474271956,A,656.2470000935718,Correct,sub_011_day_22_data.csv,1,344,,Dual-Task at home,4.0,5.0,big,small,False,Value,right,right,737.2800830053166,Correct,1.0,0.9825581395348837,
11,22,24,A,19.552374574606443,47.74519730125467,0.9776187287303222,0.7499798054290845,A,1082.659083069302,Correct,sub_011_day_22_data.csv,1,344,,Dual-Task at home,2.0,6.0,small,big,True,Size,right,right,948.9983330713584,Correct,1.0,0.9825581395348837,
11,22,25,A,38.40239701434507,50.05254800190427,1.9201198507172537,0.7862235854811647,A,734.1910420218483,Correct,sub_011_day_22_data.csv,1,344,,Dual-Task at home,4.0,2.0,big,small,True,Value,left,left,371.4427090017125,Correct,1.0,0.9825581395348837,
11,22,26,B,42.624285381658005,15.956295611761515,2.1312142690829003,0.2506409053620851,B,564.0281660016626,Correct,sub_011_day_22_data.csv,1,344,,Dual-Task at home,8.0,7.0,small,big,False,Value,left,left,735.6570829870179,Correct,1.0,0.9825581395348837,
11,22,27,A,33.57858923453024,48.76351210714643,1.678929461726512,0.7659754569952407,A,732.9576249467209,Correct,sub_011_day_22_data.csv,1,344,,Dual-Task at home,5.0,6.0,big,small,False,Value,right,right,758.1127500161529,Correct,1.0,0.9825581395348837,
11,22,28,B,43.61914569352841,28.84973438852896,2.1809572846764205,0.453170568065097,B,900.104958913289,Correct,sub_011_day_22_data.csv,1,344,,Dual-Task at home,3.0,8.0,big,small,False,Value,right,right,381.23620906844735,Correct,1.0,0.9825581395348837,
11,22,29,B,39.980447568924056,17.71654989382832,1.999022378446203,0.2782909149670404,B,522.5859580095857,Correct,sub_011_day_22_data.csv,1,344,,Dual-Task at home,7.0,2.0,small,big,False,Size,right,right,981.674750102684,Correct,1.0,0.9825581395348837,
11,22,30,A,44.46299616519856,55.64536448489027,2.2231498082599277,0.8740753413602882,A,701.7440830823034,Correct,sub_011_day_22_data.csv,1,344,,Dual-Task at home,7.0,8.0,big,small,False,Size,left,left,395.736958947964,Correct,1.0,0.9825581395348837,
11,22,31,A,43.35735250002222,64.42082707241472,2.167867625001111,1.0119199853443828,A,621.5441250242293,Correct,sub_011_day_22_data.csv,1,344,,Dual-Task at home,2.0,4.0,big,small,False,Value,right,right,619.6638750843704,Correct,1.0,0.9825581395348837,
11,22,32,B,45.798443656660446,21.298842521671936,2.2899221828330223,0.3345614359802523,B,605.6945000309497,Correct,sub_011_day_22_data.csv,1,344,,Dual-Task at home,8.0,6.0,small,big,False,Size,right,right,650.158042088151,Correct,1.0,0.9825581395348837,
11,22,33,A,22.349152049022795,35.90545070779765,1.1174576024511398,0.5640015008372377,A,813.3084579603747,Correct,sub_011_day_22_data.csv,1,344,,Dual-Task at home,8.0,7.0,small,big,False,Size,right,right,898.2421660330147,Correct,1.0,0.9825581395348837,
11,22,34,B,67.73270233546985,44.32891521505374,3.3866351167734927,0.6963169719060881,B,1046.1058339569718,Correct,sub_011_day_22_data.csv,1,344,,Dual-Task at home,2.0,6.0,big,small,False,Value,right,right,608.3882909733802,Correct,1.0,0.9825581395348837,
11,22,35,A,57.90290991026444,66.39632767694674,2.895145495513222,1.0429510762761824,A,1599.538916954771,Correct,sub_011_day_22_data.csv,1,344,,Dual-Task at home,7.0,2.0,small,big,False,Size,right,right,933.9720840798692,Correct,1.0,0.9825581395348837,
11,22,36,A,45.29518855812333,72.77788991436887,2.2647594279061662,1.1431924214937397,A,1447.3770420299843,Correct,sub_011_day_22_data.csv,1,344,,Dual-Task at home,6.0,4.0,big,small,True,Size,left,left,634.5079999882728,Correct,1.0,0.9825581395348837,
11,22,37,B,72.01236393363563,48.955106485103975,3.6006181966817814,0.7689850144465435,B,1180.8785409666598,Correct,sub_011_day_22_data.csv,1,344,,Dual-Task at home,3.0,2.0,big,small,True,Size,left,left,614.0695840585977,Correct,1.0,0.9825581395348837,
11,22,38,B,73.16850966291311,54.11458434223981,3.6584254831456553,0.8500299031082291,B,552.0132499514148,Correct,sub_011_day_22_data.csv,1,344,,Dual-Task at home,8.0,2.0,small,big,False,Value,left,left,603.108000010252,Correct,1.0,0.9825581395348837,
11,22,39,B,34.48823510456934,11.807715654637136,1.7244117552284672,0.185475163781426,B,604.5253749471158,Correct,sub_011_day_22_data.csv,1,344,,Dual-Task at home,4.0,3.0,small,big,False,Size,right,right,626.4151249779388,Correct,1.0,0.9825581395348837,
11,22,40,A,35.55607636889898,44.60524667917991,1.7778038184449487,0.7006575763943607,A,931.8402919452636,Correct,sub_011_day_22_data.csv,1,344,,Dual-Task at home,8.0,6.0,big,small,True,Value,left,left,426.7602919135242,Correct,1.0,0.9825581395348837,
11,22,41,B,59.5482506509048,43.81140188947905,2.97741253254524,0.6881878915972869,B,730.2622920833528,Correct,sub_011_day_22_data.csv,1,344,,Dual-Task at home,6.0,3.0,small,big,False,Value,left,left,609.4637920614332,Correct,1.0,0.9825581395348837,
11,22,42,B,80.10897046057649,48.82501548762769,4.005448523028824,0.7669415498366952,B,714.108792017214,Correct,sub_011_day_22_data.csv,1,344,,Dual-Task at home,2.0,6.0,small,big,True,Size,right,right,748.2912499690428,Correct,1.0,0.9825581395348837,
11,22,43,B,53.486642601210605,26.09367371851049,2.6743321300605305,0.409878468296208,B,1021.1738330544904,Correct,sub_011_day_22_data.csv,1,344,,Dual-Task at home,6.0,4.0,small,big,False,Size,right,right,632.1197910001501,Correct,1.0,0.9825581395348837,
11,22,44,B,72.18637560409275,53.42837211909987,3.609318780204638,0.8392509067131295,B,1076.860124943778,Correct,sub_011_day_22_data.csv,1,344,,Dual-Task at home,4.0,7.0,big,small,False,Size,left,left,423.0571249499917,Correct,1.0,0.9825581395348837,
11,22,45,B,61.82990948894376,46.43513719291934,3.091495474447188,0.7294014293685478,B,572.54175003618,Correct,sub_011_day_22_data.csv,1,344,,Dual-Task at home,6.0,5.0,small,big,False,Value,left,left,628.3290829742327,Correct,1.0,0.9825581395348837,
11,22,46,A,27.51791768663843,40.431404471754036,1.3758958843319218,0.6350950163139,A,1127.9487499268726,Correct,sub_011_day_22_data.csv,1,344,,Dual-Task at home,8.0,6.0,big,small,True,Size,left,left,384.6290420042351,Correct,1.0,0.9825581395348837,
11,22,47,B,57.600522503209106,35.603504787434616,2.8800261251604553,0.5592585454112681,B,552.2872500587255,Correct,sub_011_day_22_data.csv,1,344,,Dual-Task at home,6.0,3.0,small,big,False,Size,right,right,438.7160000624135,Correct,1.0,0.9825581395348837,
11,22,48,A,24.78441738948791,50.66567079885952,1.2392208694743956,0.79585449585448,A,662.3182919574901,Correct,sub_011_day_22_data.csv,1,344,,Dual-Task at home,7.0,4.0,small,big,False,Value,left,left,592.9354999680072,Correct,1.0,0.9825581395348837,
11,22,49,A,43.63842994779193,53.17282164519087,2.1819214973895966,0.83523672925586,A,671.334041049704,Correct,sub_011_day_22_data.csv,1,344,,Dual-Task at home,3.0,2.0,small,big,False,Size,right,right,959.9727919558064,Correct,1.0,0.9825581395348837,
11,22,50,A,25.31103869887464,40.32022492059323,1.265551934943732,0.6333486120081189,A,622.1404999960214,Correct,sub_011_day_22_data.csv,1,344,,Dual-Task at home,5.0,6.0,big,small,False,Value,right,right,555.9236670378596,Correct,1.0,0.9825581395348837,
11,22,51,A,12.023903594769427,37.419848205220376,0.6011951797384715,0.5877896010998278,A,535.8164580538869,Correct,sub_011_day_22_data.csv,1,344,,Dual-Task at home,7.0,5.0,small,big,False,Size,right,right,335.38766601122916,Correct,1.0,0.9825581395348837,
11,22,52,B,54.71695642967977,30.929036042442448,2.7358478214839885,0.4858321620677556,B,608.6915420601144,Correct,sub_011_day_22_data.csv,1,344,,Dual-Task at home,2.0,4.0,big,small,False,Value,right,right,766.1162079311907,Correct,1.0,0.9825581395348837,
11,22,53,B,70.10537334369549,58.90428433329825,3.505268667184774,0.9252663346322706,B,1030.2794170565903,Correct,sub_011_day_22_data.csv,1,344,,Dual-Task at home,2.0,8.0,small,big,True,Value,right,right,344.6790829766542,Correct,1.0,0.9825581395348837,
11,22,54,B,43.52913703749757,20.660070106790094,2.1764568518748786,0.3245276223507093,B,580.6668329751119,Correct,sub_011_day_22_data.csv,1,344,,Dual-Task at home,6.0,3.0,big,small,True,Size,left,left,265.6617499887943,Correct,1.0,0.9825581395348837,
11,22,55,A,16.620676349123194,43.749402919976475,0.8310338174561597,0.6872140140616897,A,697.7706250036135,Correct,sub_011_day_22_data.csv,1,344,,Dual-Task at home,8.0,2.0,small,big,False,Value,left,left,548.9110000198707,Correct,1.0,0.9825581395348837,
11,22,56,A,20.70300869323663,44.747691628419865,1.0351504346618314,0.7028950964247267,A,584.2809999594465,Correct,sub_011_day_22_data.csv,1,344,,Dual-Task at home,2.0,4.0,big,small,False,Value,right,right,616.9028748990968,Correct,1.0,0.9825581395348837,
11,22,57,B,43.70335914585662,33.88939301689672,2.185167957292831,0.5323333406824998,B,711.3521670689806,Correct,sub_011_day_22_data.csv,1,344,,Dual-Task at home,6.0,3.0,big,small,True,Size,left,left,336.9862500112504,Correct,1.0,0.9825581395348837,
11,22,58,A,60.04061153641457,79.10215872635249,3.002030576820729,1.2425338036890137,A,685.2980830008164,Correct,sub_011_day_22_data.csv,1,344,,Dual-Task at home,4.0,3.0,small,big,False,Size,right,right,612.2578750364482,Correct,1.0,0.9825581395348837,
11,22,59,A,17.994913328442028,35.04990536275506,0.8997456664221013,0.550562625983244,A,787.1622079983354,Correct,sub_011_day_22_data.csv,1,344,,Dual-Task at home,5.0,6.0,small,big,True,Value,right,right,297.30383306741714,Correct,1.0,0.9825581395348837,
11,22,60,B,52.28329918601856,42.717349139054264,2.614164959300928,0.6710025511804157,B,612.3349999543279,Correct,sub_011_day_22_data.csv,1,344,,Dual-Task at home,7.0,4.0,small,big,False,Value,left,left,518.2905419496819,Correct,1.0,0.9825581395348837,
11,22,61,B,43.52837802708629,28.485820950749204,2.1764189013543147,0.4474542291517395,B,553.9931249804795,Correct,sub_011_day_22_data.csv,1,344,,Dual-Task at home,6.0,4.0,small,big,False,Size,right,right,818.9934999682009,Correct,1.0,0.9825581395348837,
11,22,62,A,64.04245293505939,74.53111626857505,3.202122646752969,1.1707320366660103,A,849.0648330189288,Correct,sub_011_day_22_data.csv,1,344,,Dual-Task at home,4.0,2.0,small,big,False,Value,left,left,734.4854589318857,Correct,1.0,0.9825581395348837,
11,22,63,A,22.017322171910703,38.468239228343705,1.1008661085955354,0.6042576887814964,A,696.722500026226,Correct,sub_011_day_22_data.csv,1,344,,Dual-Task at home,7.0,3.0,small,big,False,Value,left,left,440.4693751130253,Correct,1.0,0.9825581395348837,
11,22,64,A,23.0813291315238,51.603405775243765,1.15406645657619,0.8105844024185946,A,536.3488750299439,Correct,sub_011_day_22_data.csv,1,344,,Dual-Task at home,3.0,4.0,big,small,False,Value,right,right,758.056916994974,Correct,1.0,0.9825581395348837,
11,22,65,B,55.93895639598547,24.66452804829718,2.7969478197992736,0.387429500603949,B,646.4718750212342,Correct,sub_011_day_22_data.csv,1,344,,Dual-Task at home,4.0,7.0,big,small,False,Size,left,left,395.35424998030066,Correct,1.0,0.9825581395348837,
11,22,66,A,34.00530837891046,53.0477014260407,1.700265418945523,0.8332713454493712,A,733.9679590659216,Correct,sub_011_day_22_data.csv,1,344,,Dual-Task at home,8.0,4.0,small,big,False,Value,left,left,539.3590000458062,Correct,1.0,0.9825581395348837,
11,22,67,A,46.864791541317416,69.45029479076055,2.3432395770658707,1.090922679521494,A,662.615375011228,Correct,sub_011_day_22_data.csv,1,344,,Dual-Task at home,8.0,5.0,small,big,False,Size,right,right,1117.260874947533,Correct,1.0,0.9825581395348837,
11,22,68,A,33.890689635618266,46.44286651875689,1.6945344817809131,0.7295228413348901,A,2143.142999964766,Correct,sub_011_day_22_data.csv,1,344,,Dual-Task at home,2.0,3.0,small,big,True,Size,right,right,478.0519580235705,Correct,1.0,0.9825581395348837,
11,22,69,B,83.2731327874987,59.04506305466898,4.163656639374935,0.9274776816164708,B,632.4951249407604,Correct,sub_011_day_22_data.csv,1,344,,Dual-Task at home,4.0,2.0,small,big,False,Value,left,left,492.8241251036525,Correct,1.0,0.9825581395348837,
11,22,70,B,75.7874250861213,52.519716506703325,3.789371254306065,0.8249777777303889,B,696.64554100018,Correct,sub_011_day_22_data.csv,1,344,,Dual-Task at home,3.0,5.0,big,small,False,Size,left,left,697.5132500519976,Correct,1.0,0.9825581395348837,
11,22,71,A,53.528528349884056,66.73067730938584,2.6764264174942025,1.0482030280211885,A,636.3168749958277,Correct,sub_011_day_22_data.csv,1,344,,Dual-Task at home,3.0,5.0,big,small,False,Value,right,right,449.30129195563495,Correct,1.0,0.9825581395348837,
11,22,72,A,31.516017147878973,59.37573913657586,1.5758008573939486,0.9326719293646534,A,624.185457942076,Correct,sub_011_day_22_data.csv,1,344,,Dual-Task at home,6.0,5.0,small,big,False,Size,right,right,930.4933339590208,Correct,1.0,0.9825581395348837,
11,22,73,B,58.349896122069616,36.587587716548626,2.917494806103481,0.5747164839144064,B,727.5993330404162,Correct,sub_011_day_22_data.csv,1,344,,Dual-Task at home,5.0,2.0,small,big,False,Value,left,left,649.5820839190856,Correct,1.0,0.9825581395348837,
11,22,74,A,29.27621244837715,54.30975218793628,1.4638106224188576,0.8530955924595142,A,585.0424580276012,Correct,sub_011_day_22_data.csv,1,344,,Dual-Task at home,3.0,7.0,big,small,False,Value,right,right,496.72745808493346,Correct,1.0,0.9825581395348837,
11,22,75,B,32.59393066348726,10.114601650586458,1.6296965331743627,0.158879791197348,B,670.3914169920608,Correct,sub_011_day_22_data.csv,1,344,,Dual-Task at home,3.0,7.0,small,big,True,Value,right,right,314.2909159651026,Correct,1.0,0.9825581395348837,
11,22,76,B,47.207828468447055,27.563684136427604,2.3603914234223526,0.4329693379443524,B,537.513458984904,Correct,sub_011_day_22_data.csv,1,344,,Dual-Task at home,7.0,3.0,small,big,False,Value,left,left,493.47387498710304,Correct,1.0,0.9825581395348837,
11,22,77,B,66.12548982906134,52.07811101452839,3.306274491453067,0.8180410548803803,B,696.2259589927271,Correct,sub_011_day_22_data.csv,1,344,,Dual-Task at home,4.0,7.0,big,small,False,Value,right,right,506.84441602788866,Correct,1.0,0.9825581395348837,
11,22,78,A,51.03276786769472,79.6485931466559,2.5516383933847364,1.2511171754914825,A,708.0117920413613,Correct,sub_011_day_22_data.csv,1,344,,Dual-Task at home,7.0,5.0,small,big,False,Value,left,left,739.0265420544893,Correct,1.0,0.9825581395348837,
11,22,79,A,36.97135375319859,68.31642736975532,1.8485676876599295,1.07311193172162,A,579.6281660441309,Correct,sub_011_day_22_data.csv,1,344,,Dual-Task at home,3.0,4.0,big,small,False,Size,left,left,1104.1514580138028,Correct,1.0,0.9825581395348837,
11,22,80,B,36.6154716194681,16.56394498012116,1.8307735809734051,0.2601858393200708,B,596.3393750134856,Correct,sub_011_day_22_data.csv,1,344,,Dual-Task at home,8.0,6.0,small,big,False,Value,left,left,497.1048750448972,Correct,1.0,0.9825581395348837,
11,22,81,A,30.807087628733143,42.18312616851356,1.5403543814366571,0.6626109963822678,A,999.446125002578,Correct,sub_011_day_22_data.csv,1,344,,Dual-Task at home,2.0,8.0,small,big,True,Value,right,right,422.1814159536734,Correct,1.0,0.9825581395348837,
11,22,82,B,51.71547474522847,44.00104143321077,2.5857737372614236,0.6911667425843753,B,1160.9648340381682,Correct,sub_011_day_22_data.csv,1,344,,Dual-Task at home,8.0,5.0,small,big,False,Size,right,right,678.8470419123769,Correct,1.0,0.9825581395348837,
11,22,83,B,62.8126819083246,51.51908292474822,3.14063409541623,0.8092598621803617,B,1279.3472500052303,Correct,sub_011_day_22_data.csv,1,344,,Dual-Task at home,8.0,6.0,small,big,False,Size,right,right,494.9937079800293,Correct,1.0,0.9825581395348837,
11,22,84,B,49.64385409245816,38.49061557591112,2.482192704622908,0.6046091756271562,B,891.7960410472006,Correct,sub_011_day_22_data.csv,1,344,,Dual-Task at home,2.0,4.0,big,small,False,Value,right,right,772.9332919698209,Correct,1.0,0.9825581395348837,
11,22,85,B,84.27975509794848,62.35068127444018,4.213987754897424,0.9794022111904996,B,672.4360838998109,Correct,sub_011_day_22_data.csv,1,344,,Dual-Task at home,6.0,7.0,big,small,False,Value,right,right,614.3228340661153,Correct,1.0,0.9825581395348837,
11,22,86,A,36.121063559879055,50.1895089175854,1.8060531779939528,0.7883749625138285,A,644.8578749550506,Correct,sub_011_day_22_data.csv,1,344,,Dual-Task at home,2.0,6.0,big,small,False,Size,left,left,839.7050000494346,Correct,1.0,0.9825581395348837,
11,22,87,A,20.894608756769102,41.82974802458078,1.0447304378384552,0.6570601454776758,A,612.3869579751045,Correct,sub_011_day_22_data.csv,1,344,,Dual-Task at home,7.0,3.0,small,big,False,Size,right,right,1070.4982499592006,Correct,1.0,0.9825581395348837,
11,22,88,B,64.72973177430603,46.4589100339805,3.236486588715302,0.7297748522827114,B,600.9625840233639,Correct,sub_011_day_22_data.csv,1,344,,Dual-Task at home,8.0,7.0,small,big,False,Value,left,left,622.0068749971688,Correct,1.0,0.9825581395348837,
11,22,89,A,49.30020986304285,78.57586155971094,2.4650104931521426,1.2342667471273825,A,545.5967499874532,Correct,sub_011_day_22_data.csv,1,344,,Dual-Task at home,2.0,7.0,big,small,False,Size,left,left,555.8266659500077,Correct,1.0,0.9825581395348837,
11,22,90,B,80.91514306066063,64.42155187199258,4.045757153033032,1.0119313704695283,B,561.373290955089,Correct,sub_011_day_22_data.csv,1,344,,Dual-Task at home,7.0,2.0,small,big,False,Value,left,left,794.360833009705,Correct,1.0,0.9825581395348837,
11,22,91,B,53.617094068568555,26.44169082322733,2.6808547034284276,0.4153451081937181,B,558.8559160241857,Correct,sub_011_day_22_data.csv,1,344,,Dual-Task at home,4.0,7.0,small,big,True,Value,right,right,246.4978329371661,Correct,1.0,0.9825581395348837,
11,22,92,B,54.54421093644371,43.355717698454896,2.7272105468221857,0.6810300210628945,B,496.6085839550942,Correct,sub_011_day_22_data.csv,1,344,,Dual-Task at home,8.0,5.0,small,big,False,Value,left,left,640.4590000165626,Correct,1.0,0.9825581395348837,
11,22,93,A,30.802033497809767,45.716284070676615,1.5401016748904883,0.7181097109293089,A,643.907458987087,Correct,sub_011_day_22_data.csv,1,344,,Dual-Task at home,6.0,2.0,small,big,False,Value,left,left,603.5212910501286,Correct,1.0,0.9825581395348837,
11,22,94,B,48.68158720836116,27.363955158052885,2.4340793604180577,0.4298320024884973,B,571.5652090730146,Correct,sub_011_day_22_data.csv,1,344,,Dual-Task at home,3.0,2.0,small,big,False,Size,right,right,897.8508330183104,Correct,1.0,0.9825581395348837,
11,22,95,B,79.5667527142769,54.949234206922384,3.978337635713845,0.8631405525242616,B,610.8864579582587,Correct,sub_011_day_22_data.csv,1,344,,Dual-Task at home,7.0,4.0,small,big,False,Size,right,right,468.6769160907715,Correct,1.0,0.9825581395348837,
11,22,96,B,59.566585647567706,41.6310358882852,2.978329282378385,0.6539387825398489,B,733.4516670089215,Correct,sub_011_day_22_data.csv,1,344,,Dual-Task at home,2.0,7.0,big,small,False,Value,right,right,422.3537079524249,Correct,1.0,0.9825581395348837,
11,22,97,A,61.22070618116134,70.50398720826958,3.061035309058066,1.1074740413114423,A,765.8404579851776,Correct,sub_011_day_22_data.csv,1,344,,Dual-Task at home,6.0,8.0,big,small,False,Value,right,right,631.5738329431042,Correct,1.0,0.9825581395348837,
11,22,98,B,81.83701853551348,53.19840861524345,4.091850926775674,0.8356386484415841,B,583.5790840210393,Correct,sub_011_day_22_data.csv,1,344,,Dual-Task at home,6.0,4.0,small,big,False,Value,left,left,432.652874966152,Correct,1.0,0.9825581395348837,
11,22,99,A,32.64800249505765,59.90225828789846,1.6324001247528828,0.9409424728535004,A,620.9106660680845,Correct,sub_011_day_22_data.csv,1,344,,Dual-Task at home,5.0,2.0,small,big,False,Size,right,right,996.0916249547154,Correct,1.0,0.9825581395348837,
11,22,100,A,32.96560700221587,56.490551389644835,1.6482803501107934,0.8873515062147244,A,701.0587090626359,Correct,sub_011_day_22_data.csv,1,344,,Dual-Task at home,5.0,4.0,big,small,True,Size,left,left,313.4249580325559,Correct,1.0,0.9825581395348837,
11,22,101,B,58.00529652041904,43.14896281942002,2.900264826020952,0.6777823230175454,B,585.0733330007643,Correct,sub_011_day_22_data.csv,1,344,,Dual-Task at home,8.0,5.0,small,big,False,Size,right,right,431.70445901341736,Correct,1.0,0.9825581395348837,
11,22,102,A,53.79868952468243,79.23689708506471,2.689934476234122,1.2446502688784489,A,574.135540984571,Correct,sub_011_day_22_data.csv,1,344,,Dual-Task at home,2.0,5.0,big,small,False,Size,left,left,488.6587910586968,Correct,1.0,0.9825581395348837,
11,22,103,A,55.62590953081854,69.42714046733379,2.781295476540927,1.0905589722596123,A,736.6584999253973,Correct,sub_011_day_22_data.csv,1,344,,Dual-Task at home,8.0,2.0,big,small,True,Size,left,left,325.85350004956126,Correct,1.0,0.9825581395348837,
11,22,104,A,20.548610636293287,49.091693825625136,1.0274305318146644,0.7711305233743165,A,496.4049169793725,Correct,sub_011_day_22_data.csv,1,344,,Dual-Task at home,7.0,4.0,small,big,False,Size,right,right,1570.896917022765,Correct,1.0,0.9825581395348837,
11,22,105,A,17.23985558145286,39.09687276372809,0.861992779072643,0.6141322412643152,A,573.837999952957,Correct,sub_011_day_22_data.csv,1,344,,Dual-Task at home,8.0,2.0,small,big,False,Size,right,right,794.1319580422714,Correct,1.0,0.9825581395348837,
11,22,106,A,11.89600295985938,37.64003312498886,0.594800147992969,0.5912482577317074,A,553.9824169827625,Correct,sub_011_day_22_data.csv,1,344,,Dual-Task at home,6.0,7.0,big,small,False,Size,left,left,476.1786249000579,Correct,1.0,0.9825581395348837,
11,22,107,A,21.330873300401645,47.25567470134966,1.0665436650200824,0.7422904024109458,A,547.2623750101775,Correct,sub_011_day_22_data.csv,1,344,,Dual-Task at home,8.0,5.0,small,big,False,Size,right,right,589.2246670555323,Correct,1.0,0.9825581395348837,
11,22,108,A,30.035284197886355,56.50535547197819,1.5017642098943178,0.8875840481962324,A,746.666582999751,Correct,sub_011_day_22_data.csv,1,344,,Dual-Task at home,7.0,8.0,big,small,False,Value,right,right,357.0943750673905,Correct,1.0,0.9825581395348837,
11,22,109,A,37.53619169700113,46.39501982662639,1.8768095848500568,0.7287712672524113,A,918.7416249187664,Correct,sub_011_day_22_data.csv,1,344,,Dual-Task at home,2.0,8.0,big,small,False,Size,left,left,673.8624999998137,Correct,1.0,0.9825581395348837,
11,22,110,B,52.813489139257385,38.521092683693425,2.6406744569628695,0.605087908916714,B,603.6105419043452,Correct,sub_011_day_22_data.csv,1,344,,Dual-Task at home,6.0,4.0,small,big,False,Value,left,left,662.2945839772001,Correct,1.0,0.9825581395348837,
11,22,111,A,42.92810297354272,52.9159905017955,2.146405148677136,0.83120243508934,A,840.9001250984147,Correct,sub_011_day_22_data.csv,1,344,,Dual-Task at home,7.0,6.0,small,big,False,Value,left,left,560.5208749184385,Correct,1.0,0.9825581395348837,
11,22,112,A,66.01161066987898,86.79039542299722,3.3005805334939486,1.3633003433152064,A,760.7258749194443,Correct,sub_011_day_22_data.csv,1,344,,Dual-Task at home,8.0,7.0,small,big,False,Size,right,right,890.8713340060785,Correct,1.0,0.9825581395348837,
11,22,113,A,39.38585417327051,56.91713404118348,1.9692927086635257,0.8940522508358378,A,634.0490840375423,Correct,sub_011_day_22_data.csv,1,344,,Dual-Task at home,5.0,8.0,big,small,False,Size,left,left,693.9973749686033,Correct,1.0,0.9825581395348837,
11,22,114,A,57.35718965910398,84.8012000874277,2.867859482955199,1.332054136051305,A,792.1070419251919,Correct,sub_011_day_22_data.csv,1,344,,Dual-Task at home,6.0,3.0,small,big,False,Value,left,left,626.8041250295937,Correct,1.0,0.9825581395348837,
11,22,115,B,67.09436541517947,49.10237735583901,3.3547182707589736,0.7712983398744884,B,582.0953749353066,Correct,sub_011_day_22_data.csv,1,344,,Dual-Task at home,8.0,7.0,small,big,False,Size,right,right,845.0983749935403,Correct,1.0,0.9825581395348837,
11,22,116,A,28.7009187307325,59.63877733582956,1.435045936536625,0.936803723736598,A,640.7385419588536,Correct,sub_011_day_22_data.csv,1,344,,Dual-Task at home,3.0,2.0,big,small,True,Size,left,left,310.082208015956,Correct,1.0,0.9825581395348837,
11,22,117,B,45.2572739303881,28.48345629241025,2.262863696519405,0.4474170851854099,B,606.6076250281185,Correct,sub_011_day_22_data.csv,1,344,,Dual-Task at home,4.0,2.0,small,big,False,Value,left,left,930.9004580136389,Correct,1.0,0.9825581395348837,
11,22,118,B,82.58583023145559,57.095321531452086,4.129291511572779,0.8968512133877852,B,485.03208300098777,Correct,sub_011_day_22_data.csv,1,344,,Dual-Task at home,6.0,5.0,small,big,False,Size,right,right,852.2681250469759,Correct,1.0,0.9825581395348837,
11,22,119,A,33.491000079488245,65.19246495738516,1.674550003974412,1.024040844897656,A,695.6343750935048,Correct,sub_011_day_22_data.csv,1,344,,Dual-Task at home,2.0,3.0,big,small,False,Value,right,right,687.3774999985471,Correct,1.0,0.9825581395348837,
11,22,120,A,40.93664427170067,52.14783726663377,2.046832213585034,0.8191363122872635,A,984.6156670246272,Correct,sub_011_day_22_data.csv,1,344,,Dual-Task at home,8.0,2.0,small,big,False,Value,left,left,514.6732920547947,Correct,1.0,0.9825581395348837,
11,22,121,A,55.963438651925216,82.7896524809166,2.798171932596261,1.300456820136498,A,693.9860829152167,Correct,sub_011_day_22_data.csv,1,344,,Dual-Task at home,8.0,7.0,big,small,True,Size,left,left,275.224499986507,Correct,1.0,0.9825581395348837,
11,22,122,B,60.83793365880873,44.437035890901925,3.0418966829404366,0.6980153275108173,B,627.8099999763072,Correct,sub_011_day_22_data.csv,1,344,,Dual-Task at home,5.0,6.0,big,small,False,Value,right,right,686.2851670011878,Correct,1.0,0.9825581395348837,
11,22,123,A,37.606338212300734,45.709438963681535,1.8803169106150368,0.7180021882400648,B,683.7333750445396,Incorrect,sub_011_day_22_data.csv,0,344,,Dual-Task at home,5.0,7.0,small,big,True,Value,right,right,564.9325420381501,Correct,1.0,0.9825581395348837,
11,22,124,A,47.78753322394932,69.9150695751474,2.3893766611974656,1.0982233447625116,A,562.800292042084,Correct,sub_011_day_22_data.csv,1,344,,Dual-Task at home,5.0,4.0,small,big,False,Size,right,right,975.7684168871492,Correct,1.0,0.9825581395348837,
11,22,125,A,52.17387536231441,64.1444670807338,2.6086937681157205,1.0075789327463285,A,778.4524159505963,Correct,sub_011_day_22_data.csv,1,344,,Dual-Task at home,6.0,3.0,small,big,False,Value,left,left,725.5143750226125,Correct,1.0,0.9825581395348837,
11,22,126,B,81.10667585230347,59.13238099255477,4.055333792615174,0.928849268577414,B,601.7997080925852,Correct,sub_011_day_22_data.csv,1,344,,Dual-Task at home,5.0,2.0,small,big,False,Value,left,left,636.215583072044,Correct,1.0,0.9825581395348837,
11,22,127,B,64.84041395915014,37.80043401444166,3.2420206979575075,0.5937678290113783,B,812.0865420205519,Correct,sub_011_day_22_data.csv,1,344,,Dual-Task at home,4.0,5.0,big,small,False,Value,right,right,652.7965409914032,Correct,1.0,0.9825581395348837,
11,22,128,A,36.393446977076785,63.00496375112906,1.819672348853839,0.9896796563011914,A,613.3991660317406,Correct,sub_011_day_22_data.csv,1,344,,Dual-Task at home,5.0,4.0,small,big,False,Size,right,left,984.4771249918268,Incorrect,0.0,0.9825581395348837,
11,22,129,B,41.11546284245442,14.153112478423903,2.055773142122721,0.2223165709382328,B,1012.1095828944816,Correct,sub_011_day_22_data.csv,1,344,,Dual-Task at home,4.0,3.0,small,big,False,Value,left,left,818.0101250763983,Correct,1.0,0.9825581395348837,
11,22,130,B,72.33206789422412,57.10863510420453,3.616603394711206,0.8970603424995455,B,643.5979589587077,Correct,sub_011_day_22_data.csv,1,344,,Dual-Task at home,7.0,6.0,small,big,False,Size,right,right,560.6881660642102,Correct,1.0,0.9825581395348837,
11,22,131,A,27.80744448898843,47.48592990568323,1.3903722244494217,0.7459072427028716,A,687.0141249382868,Correct,sub_011_day_22_data.csv,1,344,,Dual-Task at home,8.0,2.0,small,big,False,Value,left,left,556.3065410824493,Correct,1.0,0.9825581395348837,
11,22,132,A,22.331812338105472,42.00629232013078,1.1165906169052735,0.659833296787341,A,657.934374990873,Correct,sub_011_day_22_data.csv,1,344,,Dual-Task at home,3.0,2.0,small,big,False,Size,right,right,351.59741691313684,Correct,1.0,0.9825581395348837,
11,22,133,B,45.87683111030894,16.028513545711455,2.293841555515447,0.2517753020158579,B,639.0155419940129,Correct,sub_011_day_22_data.csv,1,344,,Dual-Task at home,2.0,3.0,big,small,False,Value,right,right,655.7167910505086,Correct,1.0,0.9825581395348837,
11,22,134,B,63.96326409445759,45.73362536662597,3.1981632047228796,0.7183821073690999,B,630.2325419383124,Correct,sub_011_day_22_data.csv,1,344,,Dual-Task at home,6.0,2.0,small,big,False,Value,left,left,586.8824580684304,Correct,1.0,0.9825581395348837,
11,22,135,B,88.67546607471687,63.01812766403019,4.433773303735843,0.9898864345615048,B,817.6217910367996,Correct,sub_011_day_22_data.csv,1,344,,Dual-Task at home,7.0,5.0,big,small,True,Value,left,left,369.6527499705553,Correct,1.0,0.9825581395348837,
11,22,136,A,48.75118451106445,77.05307911193118,2.437559225553222,1.2103469363725807,A,616.0278749885038,Correct,sub_011_day_22_data.csv,1,344,,Dual-Task at home,4.0,8.0,big,small,False,Size,left,left,407.4568750802427,Correct,1.0,0.9825581395348837,
11,22,137,B,83.41724783111967,58.053003580080606,4.170862391555983,0.911894447830016,B,648.6412499798462,Correct,sub_011_day_22_data.csv,1,344,,Dual-Task at home,7.0,2.0,small,big,False,Size,right,right,1246.8543750001118,Correct,1.0,0.9825581395348837,
11,22,138,B,77.2472000199771,52.628385219916,3.8623600009988546,0.8266847418859088,B,638.7937919935212,Correct,sub_011_day_22_data.csv,1,344,,Dual-Task at home,7.0,2.0,small,big,False,Size,right,right,518.9442079281434,Correct,1.0,0.9825581395348837,
11,22,139,B,57.28983603280739,45.48798588437308,2.8644918016403698,0.7145236114047133,A,962.3097500298172,Incorrect,sub_011_day_22_data.csv,0,344,,Dual-Task at home,2.0,7.0,big,small,False,Value,right,right,709.9015000276268,Correct,1.0,0.9825581395348837,
11,22,140,A,39.60630073609204,65.29079144240173,1.980315036804602,1.025585353712563,A,597.8117919294164,Correct,sub_011_day_22_data.csv,1,344,,Dual-Task at home,6.0,7.0,big,small,False,Value,right,right,455.9727910673246,Correct,1.0,0.9825581395348837,
11,22,141,A,29.44841729598614,50.14959643488852,1.472420864799307,0.7877480187016933,A,583.652124973014,Correct,sub_011_day_22_data.csv,1,344,,Dual-Task at home,4.0,3.0,small,big,False,Size,right,right,998.826958006248,Correct,1.0,0.9825581395348837,
11,22,142,B,52.18333900939702,27.194683618193217,2.6091669504698505,0.4271730913580724,B,603.2219158951193,Correct,sub_011_day_22_data.csv,1,344,,Dual-Task at home,6.0,4.0,small,big,False,Value,left,left,412.43004193529487,Correct,1.0,0.9825581395348837,
11,22,143,A,47.26897014599055,58.60999625005168,2.3634485072995277,0.9206436682304384,A,686.3475830759853,Correct,sub_011_day_22_data.csv,1,344,,Dual-Task at home,6.0,8.0,big,small,False,Size,left,left,384.4605000922456,Correct,1.0,0.9825581395348837,
11,22,144,B,33.333999833265246,13.521556556889028,1.666699991663262,0.2123961137211073,B,560.5426669353619,Correct,sub_011_day_22_data.csv,1,344,,Dual-Task at home,6.0,5.0,small,big,False,Size,right,right,389.59470810368657,Correct,1.0,0.9825581395348837,
11,22,145,A,21.078270917746412,51.67360389316996,1.0539135458873206,0.8116870718764585,A,579.2682910105214,Correct,sub_011_day_22_data.csv,1,344,,Dual-Task at home,5.0,3.0,small,big,False,Value,left,left,515.8295420696959,Correct,1.0,0.9825581395348837,
11,22,146,A,46.50487635036798,55.85378864327667,2.3252438175183987,0.8773492603843751,A,714.0393749577925,Correct,sub_011_day_22_data.csv,1,344,,Dual-Task at home,5.0,7.0,big,small,False,Size,left,left,733.0822499934584,Correct,1.0,0.9825581395348837,
11,22,147,B,62.99679475641477,43.421069197277106,3.149839737820739,0.682056560005899,B,543.1129169883206,Correct,sub_011_day_22_data.csv,1,344,,Dual-Task at home,7.0,3.0,small,big,False,Value,left,left,456.4157499698922,Correct,1.0,0.9825581395348837,
11,22,148,A,45.60994378784952,73.90054941698206,2.280497189392476,1.1608271157232013,A,550.4508330486715,Correct,sub_011_day_22_data.csv,1,344,,Dual-Task at home,8.0,2.0,small,big,False,Size,right,right,571.9980830326676,Correct,1.0,0.9825581395348837,
11,22,149,B,46.00821554078844,24.25017212791981,2.3004107770394224,0.3809208130268041,B,510.8122919918969,Correct,sub_011_day_22_data.csv,1,344,,Dual-Task at home,2.0,7.0,big,small,False,Value,right,right,417.6508340751752,Correct,1.0,0.9825581395348837,
11,22,150,A,36.86413573878963,64.3816259611503,1.8432067869394817,1.0113042157285783,A,583.5942919366062,Correct,sub_011_day_22_data.csv,1,344,,Dual-Task at home,5.0,7.0,big,small,False,Size,left,left,380.7937500532717,Correct,1.0,0.9825581395348837,
11,22,151,B,85.21463321502989,66.3684318802387,4.260731660751494,1.0425128901261629,B,576.9692079629749,Correct,sub_011_day_22_data.csv,1,344,,Dual-Task at home,3.0,8.0,big,small,False,Size,left,left,416.091833030805,Correct,1.0,0.9825581395348837,
11,22,152,A,40.92643490059197,52.87881103458806,2.0463217450295987,0.8306184213841238,A,718.086416949518,Correct,sub_011_day_22_data.csv,1,344,,Dual-Task at home,8.0,6.0,small,big,False,Value,left,left,390.56116703432053,Correct,1.0,0.9825581395348837,
11,22,153,A,47.214157034166575,66.45045193799179,2.360707851708329,1.043801258180583,A,627.2453749552369,Correct,sub_011_day_22_data.csv,1,344,,Dual-Task at home,6.0,4.0,small,big,False,Size,right,right,611.2070409581065,Correct,1.0,0.9825581395348837,
11,22,154,B,37.97980370252181,23.200984164351745,1.8989901851260904,0.3644402070339028,B,1011.6312080062926,Correct,sub_011_day_22_data.csv,1,344,,Dual-Task at home,8.0,3.0,big,small,True,Value,left,left,331.5992499701679,Correct,1.0,0.9825581395348837,
11,22,155,A,49.98437562105388,63.803459138948384,2.499218781052694,1.002222392522684,A,696.4091249974445,Correct,sub_011_day_22_data.csv,1,344,,Dual-Task at home,2.0,8.0,small,big,True,Size,right,right,324.63024999015033,Correct,1.0,0.9825581395348837,
11,22,156,B,61.86246235307647,35.14429838552814,3.0931231176538234,0.5520453481177141,B,601.4981250045821,Correct,sub_011_day_22_data.csv,1,344,,Dual-Task at home,5.0,4.0,small,big,False,Value,left,left,456.94195898249745,Correct,1.0,0.9825581395348837,
11,22,157,A,69.4714492776616,88.80711751851663,3.47357246388308,1.3949789399132864,A,677.2032079752535,Correct,sub_011_day_22_data.csv,1,344,,Dual-Task at home,3.0,2.0,big,small,True,Size,left,left,725.0095830531791,Correct,1.0,0.9825581395348837,
11,22,158,B,70.56456481984944,61.17884738540007,3.528228240992472,0.96099508750532,B,481.6329999594018,Correct,sub_011_day_22_data.csv,1,344,,Dual-Task at home,6.0,2.0,small,big,False,Size,right,right,542.6697500515729,Correct,1.0,0.9825581395348837,
11,22,159,B,46.6973805137434,23.920966046391303,2.3348690256871696,0.375749655990569,B,470.86616698652506,Correct,sub_011_day_22_data.csv,1,344,,Dual-Task at home,5.0,7.0,small,big,True,Value,right,right,602.9845420271158,Correct,1.0,0.9825581395348837,
11,22,160,A,19.903483316901372,44.24140652817736,0.9951741658450686,0.6949423886670075,A,597.4352089688182,Correct,sub_011_day_22_data.csv,1,344,,Dual-Task at home,6.0,5.0,small,big,False,Size,right,right,410.00099992379546,Correct,1.0,0.9825581395348837,
11,22,161,B,78.71795517886687,56.433060196182865,3.935897758943343,0.8864484366595932,B,575.2776250010356,Correct,sub_011_day_22_data.csv,1,344,,Dual-Task at home,6.0,3.0,small,big,False,Size,right,right,618.3809590293095,Correct,1.0,0.9825581395348837,
11,22,162,A,60.46919558207229,76.61173537071798,3.0234597791036144,1.2034143250970646,A,658.0500830896199,Correct,sub_011_day_22_data.csv,1,344,,Dual-Task at home,7.0,4.0,small,big,False,Value,left,left,355.27433396782726,Correct,1.0,0.9825581395348837,
11,22,163,B,60.07780445629075,36.48030270147794,3.0038902228145377,0.573031254838475,B,484.0596669819206,Correct,sub_011_day_22_data.csv,1,344,,Dual-Task at home,6.0,8.0,big,small,False,Size,left,left,614.3391249934211,Correct,1.0,0.9825581395348837,
11,22,164,B,39.16983389019515,14.790643520591658,1.9584916945097577,0.2323308851307811,B,586.7089999374002,Correct,sub_011_day_22_data.csv,1,344,,Dual-Task at home,8.0,4.0,small,big,False,Value,left,left,926.7177910078316,Correct,1.0,0.9825581395348837,
11,22,165,A,13.169474568421816,36.261994242933085,0.6584737284210909,0.5696020735905697,A,525.2667079912499,Correct,sub_011_day_22_data.csv,1,344,,Dual-Task at home,8.0,2.0,small,big,False,Size,right,right,965.2490419102832,Correct,1.0,0.9825581395348837,
11,22,166,B,38.53402883310423,18.81122013341357,1.9267014416552115,0.2954859548809624,B,513.0092919571325,Correct,sub_011_day_22_data.csv,1,344,,Dual-Task at home,4.0,3.0,small,big,False,Value,left,left,580.122375045903,Correct,1.0,0.9825581395348837,
11,22,167,A,16.75386673855361,37.81029253620862,0.8376933369276806,0.5939226863091699,A,491.99550005141646,Correct,sub_011_day_22_data.csv,1,344,,Dual-Task at home,2.0,3.0,big,small,False,Value,right,right,619.1595419077203,Correct,1.0,0.9825581395348837,
11,22,168,A,24.321991143001327,36.52946504687391,1.2160995571500663,0.573803495154121,A,599.3032079422846,Correct,sub_011_day_22_data.csv,1,344,,Dual-Task at home,8.0,7.0,small,big,False,Size,right,right,676.3304590713233,Correct,1.0,0.9825581395348837,
11,22,169,A,68.05532489676114,81.00297202498933,3.4027662448380567,1.27239170916323,A,660.0314159877598,Correct,sub_011_day_22_data.csv,1,344,,Dual-Task at home,6.0,8.0,big,small,False,Size,left,left,869.9330829549581,Correct,1.0,0.9825581395348837,
11,22,170,A,20.24951756550593,46.98584483065952,1.0124758782752965,0.7380519247135495,A,629.8122089356184,Correct,sub_011_day_22_data.csv,1,344,,Dual-Task at home,2.0,8.0,big,small,False,Size,left,left,354.42900005728006,Correct,1.0,0.9825581395348837,
11,22,171,B,38.83437516727245,24.855553663335133,1.9417187583636224,0.3904301239482027,B,548.6468749586493,Correct,sub_011_day_22_data.csv,1,344,,Dual-Task at home,2.0,6.0,small,big,True,Size,right,right,391.0609999438748,Correct,1.0,0.9825581395348837,
11,22,172,A,51.10979541668188,59.215815684361864,2.555489770834094,0.9301598576515924,B,1743.641750072129,Incorrect,sub_011_day_22_data.csv,0,344,,Dual-Task at home,7.0,2.0,big,small,True,Size,left,left,595.7375410944223,Correct,1.0,0.9825581395348837,
11,22,173,B,78.4096861905402,50.11978092835433,3.92048430952701,0.7872796778202389,B,863.0547090433538,Correct,sub_011_day_22_data.csv,1,344,,Dual-Task at home,3.0,2.0,small,big,False,Size,right,right,561.8225421058014,Correct,1.0,0.9825581395348837,
11,22,174,A,22.036940410081048,53.93794540711156,1.1018470205040525,0.8472552652035451,A,622.8594169951975,Correct,sub_011_day_22_data.csv,1,344,,Dual-Task at home,7.0,6.0,small,big,False,Value,left,left,1330.7612920179963,Correct,1.0,0.9825581395348837,
11,22,175,B,43.88020297817758,20.05322616279773,2.194010148908879,0.3149953399690999,B,550.2624999498948,Correct,sub_011_day_22_data.csv,1,344,,Dual-Task at home,8.0,3.0,small,big,False,Value,left,left,663.5359580395743,Correct,1.0,0.9825581395348837,
11,22,176,B,70.82966500227886,41.677126453394685,3.541483250113943,0.6546627714435879,B,406.1741250334307,Correct,sub_011_day_22_data.csv,1,344,,Dual-Task at home,7.0,5.0,small,big,False,Value,left,left,570.583708002232,Correct,1.0,0.9825581395348837,
11,22,177,B,60.79928876669969,51.812210220368286,3.0399644383349846,0.8138642949727951,A,965.8041249495,Incorrect,sub_011_day_22_data.csv,0,344,,Dual-Task at home,5.0,6.0,big,small,False,Size,left,left,992.9849170148372,Correct,1.0,0.9825581395348837,
11,22,178,B,36.09124060654466,12.959425447685078,1.804562030327233,0.2035661789059603,B,748.3714160043746,Correct,sub_011_day_22_data.csv,1,344,,Dual-Task at home,6.0,3.0,big,small,True,Size,left,left,381.9471669849008,Correct,1.0,0.9825581395348837,
11,22,179,A,41.07960827415853,72.46832879608024,2.0539804137079267,1.1383298468184768,A,686.7165409494191,Correct,sub_011_day_22_data.csv,1,344,,Dual-Task at home,2.0,3.0,big,small,False,Size,left,left,393.95187504123896,Correct,1.0,0.9825581395348837,
11,22,180,A,31.701537992779024,58.80401537678487,1.5850768996389513,0.923691313546443,A,574.3071250617504,Correct,sub_011_day_22_data.csv,1,344,,Dual-Task at home,3.0,8.0,big,small,False,Value,right,right,565.3358330018818,Correct,1.0,0.9825581395348837,
11,22,181,B,67.96240039452383,53.35504968266207,3.398120019726191,0.8380991605748479,B,620.4060839954764,Correct,sub_011_day_22_data.csv,1,344,,Dual-Task at home,8.0,2.0,small,big,False,Value,left,left,424.6575840516016,Correct,1.0,0.9825581395348837,
11,22,182,B,57.598448541675296,44.433473021291576,2.8799224270837644,0.6979593620858495,B,579.8432499868795,Correct,sub_011_day_22_data.csv,1,344,,Dual-Task at home,3.0,5.0,big,small,False,Size,left,right,722.1002919832245,Incorrect,0.0,0.9825581395348837,
11,22,183,B,54.96095114165132,40.47337161999482,2.748047557082566,0.6357542347369267,B,947.5066250888632,Correct,sub_011_day_22_data.csv,1,344,,Dual-Task at home,4.0,6.0,big,small,False,Value,right,right,565.589083940722,Correct,1.0,0.9825581395348837,
11,22,184,A,67.70283092306312,83.02678559165858,3.385141546153156,1.3041816983296477,A,604.7685829689726,Correct,sub_011_day_22_data.csv,1,344,,Dual-Task at home,7.0,3.0,small,big,False,Size,right,right,413.33270794712007,Correct,1.0,0.9825581395348837,
11,22,185,B,81.5242585676543,50.27649652239146,4.0762129283827155,0.7897413606148891,B,807.8948330366984,Correct,sub_011_day_22_data.csv,1,344,,Dual-Task at home,4.0,6.0,big,small,False,Size,left,left,451.8513329094276,Correct,1.0,0.9825581395348837,
11,22,186,A,41.36564320573685,56.486344474588655,2.068282160286843,0.8872854241475505,A,696.2465409887955,Correct,sub_011_day_22_data.csv,1,344,,Dual-Task at home,4.0,8.0,big,small,False,Value,right,right,640.7887090463191,Correct,1.0,0.9825581395348837,
11,22,187,B,56.06481488109401,25.291207259295973,2.8032407440547003,0.3972733546311054,B,593.7625829828903,Correct,sub_011_day_22_data.csv,1,344,,Dual-Task at home,8.0,4.0,small,big,False,Size,right,right,441.62800000049174,Correct,1.0,0.9825581395348837,
11,22,188,A,17.384711974926095,36.15176044253284,0.8692355987463047,0.5678705251029963,A,545.0800000689924,Correct,sub_011_day_22_data.csv,1,344,,Dual-Task at home,8.0,2.0,small,big,False,Value,left,left,576.1747090145946,Correct,1.0,0.9825581395348837,
11,22,189,A,34.107537140054276,47.70128708035828,1.7053768570027137,0.7492900652921565,A,1173.4908330254257,Correct,sub_011_day_22_data.csv,1,344,,Dual-Task at home,8.0,7.0,small,big,False,Size,right,right,356.3493749825284,Correct,1.0,0.9825581395348837,
11,22,190,A,63.430709925838315,78.56034021777275,3.1715354962919156,1.2340229384583483,A,623.6377499299124,Correct,sub_011_day_22_data.csv,1,344,,Dual-Task at home,3.0,6.0,big,small,False,Size,left,left,351.61754093132913,Correct,1.0,0.9825581395348837,
11,22,191,A,37.6140747135606,49.3652691800492,1.8807037356780296,0.775427834992626,A,998.1003339635208,Correct,sub_011_day_22_data.csv,1,344,,Dual-Task at home,8.0,6.0,big,small,True,Value,left,left,282.7619160525501,Correct,1.0,0.9825581395348837,
11,22,192,A,41.82522733269212,56.286383642637475,2.091261366634606,0.8841444467442331,A,823.6783751053736,Correct,sub_011_day_22_data.csv,1,344,,Dual-Task at home,7.0,8.0,small,big,True,Value,right,right,464.7449170006439,Correct,1.0,0.9825581395348837,
11,22,193,A,41.64227386153805,73.08626806810099,2.082113693076902,1.148036414205202,A,744.58112497814,Correct,sub_011_day_22_data.csv,1,344,,Dual-Task at home,6.0,3.0,small,big,False,Value,left,left,455.39529202505946,Correct,1.0,0.9825581395348837,
11,22,194,A,43.59234484138491,61.29373493088256,2.1796172420692455,0.9627997368497038,A,677.9811249580234,Correct,sub_011_day_22_data.csv,1,344,,Dual-Task at home,6.0,3.0,small,big,False,Size,right,right,337.8136659739539,Correct,1.0,0.9825581395348837,
11,22,195,A,35.81376142638876,56.81237306925847,1.790688071319438,0.8924066693369253,A,615.2292920742184,Correct,sub_011_day_22_data.csv,1,344,,Dual-Task at home,4.0,7.0,big,small,False,Value,right,right,756.6171670332551,Correct,1.0,0.9825581395348837,
11,22,196,B,36.19415873630018,24.146593997977725,1.809707936815009,0.379293811566311,B,625.4026249516755,Correct,sub_011_day_22_data.csv,1,344,,Dual-Task at home,7.0,2.0,small,big,False,Size,right,right,402.8870000038296,Correct,1.0,0.9825581395348837,
11,22,197,B,44.4028299116398,30.29432626200013,2.22014149558199,0.4758621641507597,B,510.4389999760315,Correct,sub_011_day_22_data.csv,1,344,,Dual-Task at home,7.0,5.0,small,big,False,Size,right,right,453.8030830444768,Correct,1.0,0.9825581395348837,
11,22,198,B,55.31200495669718,27.52662349748053,2.7656002478348594,0.432387190789085,B,737.0781250065193,Correct,sub_011_day_22_data.csv,1,344,,Dual-Task at home,4.0,6.0,small,big,True,Value,right,right,271.0529590258375,Correct,1.0,0.9825581395348837,
11,22,199,A,37.35854208380551,60.322238283525905,1.8679271041902752,0.9475395031980898,A,939.9907919578254,Correct,sub_011_day_22_data.csv,1,344,,Dual-Task at home,3.0,2.0,big,small,True,Value,left,left,280.85191594436765,Correct,1.0,0.9825581395348837,
11,22,200,A,26.569378913495072,42.985641488487246,1.3284689456747538,0.6752168775503807,A,589.0716669382527,Correct,sub_011_day_22_data.csv,1,344,,Dual-Task at home,4.0,7.0,small,big,True,Size,right,right,322.1919579664245,Correct,1.0,0.9825581395348837,
11,22,201,A,34.90332989836347,54.814901090686874,1.745166494918173,0.8610304528687651,A,650.4460000433028,Correct,sub_011_day_22_data.csv,1,344,,Dual-Task at home,7.0,2.0,big,small,True,Size,left,left,417.7965000271797,Correct,1.0,0.9825581395348837,
11,22,202,B,61.04865994747041,31.622767044164057,3.0524329973735207,0.4967292631606361,B,538.7875830056146,Correct,sub_011_day_22_data.csv,1,344,,Dual-Task at home,2.0,8.0,big,small,False,Size,left,left,732.6591250021011,Correct,1.0,0.9825581395348837,
11,22,203,B,83.700932920929,68.4073034857685,4.18504664604645,1.0745394104138888,B,1833.1974579486996,Correct,sub_011_day_22_data.csv,1,344,,Dual-Task at home,8.0,4.0,small,big,False,Value,left,left,919.0266660880296,Correct,1.0,0.9825581395348837,
11,22,204,A,54.329615302296915,70.82598092150226,2.716480765114846,1.112531906731412,A,733.7156250141561,Correct,sub_011_day_22_data.csv,1,344,,Dual-Task at home,7.0,4.0,small,big,False,Size,right,right,328.4450420178473,Correct,1.0,0.9825581395348837,
11,22,205,B,69.28425418631048,57.59788396783371,3.464212709315524,0.9047454456783184,B,633.9282089611515,Correct,sub_011_day_22_data.csv,1,344,,Dual-Task at home,7.0,6.0,small,big,False,Value,left,left,580.2379579981789,Correct,1.0,0.9825581395348837,
11,22,206,B,57.89287468657546,28.91318423673073,2.894643734328773,0.4541672359500073,B,589.1411249758676,Correct,sub_011_day_22_data.csv,1,344,,Dual-Task at home,6.0,5.0,small,big,False,Size,right,right,837.7346249762923,Correct,1.0,0.9825581395348837,
11,22,207,A,46.32973545660612,60.90706379517607,2.3164867728303062,0.95672592085325,A,545.8207079209387,Correct,sub_011_day_22_data.csv,1,344,,Dual-Task at home,2.0,7.0,big,small,False,Value,right,right,617.2590830828995,Correct,1.0,0.9825581395348837,
11,22,208,A,55.02405580975089,73.67124410379719,2.751202790487545,1.157225196286548,A,635.0310830166563,Correct,sub_011_day_22_data.csv,1,344,,Dual-Task at home,4.0,6.0,big,small,False,Value,right,right,424.8840000946075,Correct,1.0,0.9825581395348837,
11,22,209,B,47.03601069823396,28.673556481270023,2.351800534911698,0.4504031719692495,B,484.0222919592634,Correct,sub_011_day_22_data.csv,1,344,,Dual-Task at home,2.0,4.0,big,small,False,Value,right,right,503.0034170486033,Correct,1.0,0.9825581395348837,
11,22,210,B,37.28198232344664,21.777697877509716,1.864099116172332,0.3420832783204128,B,538.5114590171725,Correct,sub_011_day_22_data.csv,1,344,,Dual-Task at home,4.0,8.0,big,small,False,Value,right,right,533.2720839651302,Correct,1.0,0.9825581395348837,
11,22,211,B,35.04109481116356,24.4012299342274,1.752054740558178,0.3832936234996208,B,650.9106250014156,Correct,sub_011_day_22_data.csv,1,344,,Dual-Task at home,3.0,8.0,big,small,False,Value,right,right,654.9830409931019,Correct,1.0,0.9825581395348837,
11,22,212,A,32.78347849424322,45.32018960723978,1.6391739247121608,0.7118878736470049,A,798.8589169690385,Correct,sub_011_day_22_data.csv,1,344,,Dual-Task at home,7.0,8.0,big,small,False,Size,left,left,727.6206660317257,Correct,1.0,0.9825581395348837,
11,22,213,B,62.29848847070016,31.785297039245545,3.114924423535008,0.499282278353316,B,549.7043749783188,Correct,sub_011_day_22_data.csv,1,344,,Dual-Task at home,7.0,4.0,small,big,False,Size,right,right,972.377249971032,Correct,1.0,0.9825581395348837,
11,22,214,B,71.39780116453512,43.03715084661187,3.569890058226756,0.6760259846557581,B,496.036917087622,Correct,sub_011_day_22_data.csv,1,344,,Dual-Task at home,7.0,2.0,small,big,False,Value,left,left,728.4997500246391,Correct,1.0,0.9825581395348837,
11,22,215,B,43.4621152628408,31.60398259148063,2.17310576314204,0.4964341976678763,B,1108.4059999557212,Correct,sub_011_day_22_data.csv,1,344,,Dual-Task at home,4.0,8.0,big,small,False,Size,left,left,588.1316660670564,Correct,1.0,0.9825581395348837,
11,22,216,B,62.30392040058759,51.90079340856454,3.1151960200293796,0.8152557564391396,B,1430.6746660731733,Correct,sub_011_day_22_data.csv,1,344,,Dual-Task at home,2.0,8.0,big,small,False,Value,right,right,430.77216600067914,Correct,1.0,0.9825581395348837,
11,22,217,B,35.59989586742896,16.757014952376917,1.779994793371448,0.2632185753524081,B,528.300250065513,Correct,sub_011_day_22_data.csv,1,344,,Dual-Task at home,3.0,5.0,big,small,False,Size,left,left,1071.365834097378,Correct,1.0,0.9825581395348837,
11,22,218,B,41.85111877618773,20.215700692685346,2.0925559388093866,0.3175474839165518,B,511.6860000416637,Correct,sub_011_day_22_data.csv,1,344,,Dual-Task at home,6.0,4.0,small,big,False,Value,left,left,427.2285830229521,Correct,1.0,0.9825581395348837,
11,22,219,A,23.52244491221161,52.46983302767658,1.1761222456105809,0.824194209874159,A,574.6132920030504,Correct,sub_011_day_22_data.csv,1,344,,Dual-Task at home,6.0,3.0,small,big,False,Size,right,right,401.71241702046245,Correct,1.0,0.9825581395348837,
11,22,220,B,80.99257008253102,63.920491508235216,4.0496285041265505,1.0040607326806026,B,639.3029160099104,Correct,sub_011_day_22_data.csv,1,344,,Dual-Task at home,5.0,8.0,big,small,False,Size,left,left,511.4610838936642,Correct,1.0,0.9825581395348837,
11,22,221,A,36.23812465125082,45.30148822277932,1.811906232562541,0.7115941129868402,B,812.1900419937447,Incorrect,sub_011_day_22_data.csv,0,344,,Dual-Task at home,8.0,2.0,big,small,True,Value,left,left,875.0105409417301,Correct,1.0,0.9825581395348837,
11,22,222,B,62.7475273507841,29.8245087842576,3.137376367539205,0.4684822884677396,B,484.5755830174312,Correct,sub_011_day_22_data.csv,1,344,,Dual-Task at home,5.0,6.0,big,small,False,Size,left,left,317.6917920354754,Correct,1.0,0.9825581395348837,
11,22,223,A,26.04189707381849,41.58624135789665,1.3020948536909245,0.6532351517019006,A,1797.521916916594,Correct,sub_011_day_22_data.csv,1,344,,Dual-Task at home,6.0,7.0,big,small,False,Size,left,left,454.3608749518171,Correct,1.0,0.9825581395348837,
11,22,224,B,75.2000996939012,64.85654034050347,3.760004984695059,1.0187641533548788,B,556.7547499667853,Correct,sub_011_day_22_data.csv,1,344,,Dual-Task at home,8.0,3.0,small,big,False,Value,left,left,440.8742919331417,Correct,1.0,0.9825581395348837,
11,22,225,B,64.76152234689177,38.08458196990589,3.238076117344588,0.598231214658473,B,501.3958750059828,Correct,sub_011_day_22_data.csv,1,344,,Dual-Task at home,7.0,8.0,big,small,False,Size,left,right,768.0352909956127,Incorrect,0.0,0.9825581395348837,
11,22,226,B,70.40369361358863,43.70993587172031,3.5201846806794315,0.6865940671173876,B,667.3161250073463,Correct,sub_011_day_22_data.csv,1,344,,Dual-Task at home,5.0,2.0,small,big,False,Value,left,left,546.7377080349252,Correct,1.0,0.9825581395348837,
11,22,227,B,87.76512487800106,61.84909565327386,4.388256243900053,0.971523322677488,B,601.1095409048721,Correct,sub_011_day_22_data.csv,1,344,,Dual-Task at home,3.0,8.0,big,small,False,Value,right,right,510.909958044067,Correct,1.0,0.9825581395348837,
11,22,228,A,30.663835374046418,46.35879659973341,1.5331917687023209,0.7282022741349298,A,1071.0351669695228,Correct,sub_011_day_22_data.csv,1,344,,Dual-Task at home,8.0,4.0,small,big,False,Value,left,left,464.7762910462916,Correct,1.0,0.9825581395348837,
11,22,229,A,30.56676955177057,45.48678341365178,1.5283384775885285,0.7145047230387923,A,666.7696250369772,Correct,sub_011_day_22_data.csv,1,344,,Dual-Task at home,6.0,5.0,small,big,False,Value,left,left,448.95508303307,Correct,1.0,0.9825581395348837,
11,22,230,A,58.53312229763203,80.18770425188846,2.9266561148816015,1.259585512929819,A,675.0939580379054,Correct,sub_011_day_22_data.csv,1,344,,Dual-Task at home,3.0,5.0,big,small,False,Value,right,right,534.7155829658732,Correct,1.0,0.9825581395348837,
11,22,231,B,84.16348909628724,54.974179015289195,4.208174454814362,0.8635323846578135,B,569.6396250277758,Correct,sub_011_day_22_data.csv,1,344,,Dual-Task at home,8.0,7.0,small,big,False,Value,left,left,466.68399998452514,Correct,1.0,0.9825581395348837,
11,22,232,B,78.18482125719814,51.50552217384917,3.909241062859907,0.8090468504033538,B,597.9419159702957,Correct,sub_011_day_22_data.csv,1,344,,Dual-Task at home,3.0,5.0,big,small,False,Value,right,right,507.00991693884134,Correct,1.0,0.9825581395348837,
11,22,233,B,71.46768421907247,56.55125466984603,3.5733842109536234,0.888305031110369,B,659.7801250172779,Correct,sub_011_day_22_data.csv,1,344,,Dual-Task at home,5.0,7.0,big,small,False,Value,right,right,476.0660419706255,Correct,1.0,0.9825581395348837,
11,22,234,B,60.52263159571384,27.987589284243175,3.026131579785692,0.4396280244353339,B,521.3624590542167,Correct,sub_011_day_22_data.csv,1,344,,Dual-Task at home,7.0,2.0,small,big,False,Size,right,right,379.8869160236791,Correct,1.0,0.9825581395348837,
11,22,235,B,84.13281823540049,62.862120192734295,4.206640911770024,0.9874358749328632,B,684.0589159401134,Correct,sub_011_day_22_data.csv,1,344,,Dual-Task at home,3.0,5.0,big,small,False,Size,left,left,373.54004208464175,Correct,1.0,0.9825581395348837,
11,22,236,A,35.565862450137026,66.40388030775972,1.7782931225068512,1.0430697127235693,A,568.1354999542236,Correct,sub_011_day_22_data.csv,1,344,,Dual-Task at home,6.0,8.0,big,small,False,Value,right,right,517.2972918953747,Correct,1.0,0.9825581395348837,
11,22,237,B,74.34947953786164,54.45209757286692,3.7174739768930816,0.8553315485373665,B,529.2032499564812,Correct,sub_011_day_22_data.csv,1,344,,Dual-Task at home,2.0,3.0,big,small,False,Value,right,right,362.8478340106085,Correct,1.0,0.9825581395348837,
11,22,238,B,41.60010925867658,21.41184270805286,2.080005462933829,0.3363364387571952,B,501.2416660320014,Correct,sub_011_day_22_data.csv,1,344,,Dual-Task at home,5.0,4.0,small,big,False,Value,left,left,662.8978330409154,Correct,1.0,0.9825581395348837,
11,22,239,A,26.58232024200236,44.26142584190988,1.3291160121001182,0.6952568513117675,A,1121.3588749524206,Correct,sub_011_day_22_data.csv,1,344,,Dual-Task at home,5.0,4.0,small,big,False,Size,right,right,758.2653339486569,Correct,1.0,0.9825581395348837,
11,22,240,A,66.82703899104708,81.5470048454873,3.3413519495523536,1.2809373567241709,A,701.6859580762684,Correct,sub_011_day_22_data.csv,1,344,,Dual-Task at home,7.0,3.0,small,big,False,Size,right,right,646.5694590006024,Correct,1.0,0.9825581395348837,
11,22,241,A,51.039878976286616,79.01453910497321,2.5519939488143306,1.2411574778948362,A,617.0639590127394,Correct,sub_011_day_22_data.csv,1,344,,Dual-Task at home,3.0,2.0,small,big,False,Value,left,left,518.0539999855682,Correct,1.0,0.9825581395348837,
11,22,242,A,19.683937023781873,36.37329996782947,0.9841968511890936,0.5713504598287545,A,574.1490420186892,Correct,sub_011_day_22_data.csv,1,344,,Dual-Task at home,3.0,5.0,big,small,False,Size,left,left,1418.7834169715643,Correct,1.0,0.9825581395348837,
11,22,243,B,79.95012175249167,53.68496316614655,3.997506087624584,0.8432814294550233,B,721.797583042644,Correct,sub_011_day_22_data.csv,1,344,,Dual-Task at home,3.0,7.0,big,small,False,Size,left,left,479.14279194083065,Correct,1.0,0.9825581395348837,
11,22,244,B,63.31918425119927,33.13011178186778,3.1659592125599634,0.5204065789326223,B,487.73083405103534,Correct,sub_011_day_22_data.csv,1,344,,Dual-Task at home,5.0,4.0,small,big,False,Size,right,right,1089.9750409880653,Correct,1.0,0.9825581395348837,
11,22,245,A,44.95441153097997,73.7895977434118,2.2477205765489985,1.1590842909102426,A,512.0321670547128,Correct,sub_011_day_22_data.csv,1,344,,Dual-Task at home,6.0,3.0,small,big,False,Size,right,right,897.978667053394,Correct,1.0,0.9825581395348837,
11,22,246,B,52.70027539277035,37.40431541615897,2.635013769638517,0.5875456126198023,B,860.2851670002565,Correct,sub_011_day_22_data.csv,1,344,,Dual-Task at home,5.0,2.0,small,big,False,Size,right,right,438.68675001431257,Correct,1.0,0.9825581395348837,
11,22,247,A,45.64813407428578,68.04614286034166,2.282406703714289,1.0688663125758546,A,786.6227919002995,Correct,sub_011_day_22_data.csv,1,344,,Dual-Task at home,6.0,7.0,big,small,False,Value,right,right,463.9540840871632,Correct,1.0,0.9825581395348837,
11,22,248,B,73.33168915350188,47.28748470116529,3.666584457675094,0.7427900727196031,B,503.7515420699492,Correct,sub_011_day_22_data.csv,1,344,,Dual-Task at home,4.0,3.0,small,big,False,Value,left,left,1366.3369580172002,Correct,1.0,0.9825581395348837,
11,22,249,B,85.12869676295122,58.00038907646552,4.256434838147561,0.9110679811398688,B,682.6758749084547,Correct,sub_011_day_22_data.csv,1,344,,Dual-Task at home,7.0,8.0,big,small,False,Value,right,right,654.3331659631804,Correct,1.0,0.9825581395348837,
11,22,250,A,61.46440300042797,70.77547302130026,3.0732201500213985,1.1117385304902976,B,1049.2400840157643,Incorrect,sub_011_day_22_data.csv,0,344,,Dual-Task at home,5.0,3.0,small,big,False,Size,right,left,716.0167909460142,Incorrect,0.0,0.9825581395348837,
11,22,251,A,17.529003898632826,44.81036522962036,0.8764501949316412,0.7038795710502541,A,582.9036249779165,Correct,sub_011_day_22_data.csv,1,344,,Dual-Task at home,6.0,2.0,small,big,False,Value,left,left,753.1943749636412,Correct,1.0,0.9825581395348837,
11,22,252,B,34.62011549393728,23.80807621157662,1.731005774696864,0.3739763866119751,B,1172.42141708266,Correct,sub_011_day_22_data.csv,1,344,,Dual-Task at home,4.0,2.0,small,big,False,Value,left,left,2041.1031669937072,Correct,1.0,0.9825581395348837,
11,22,253,B,34.789100952540394,24.01806030416504,1.7394550476270196,0.3772748090252076,B,692.6277499878779,Correct,sub_011_day_22_data.csv,1,344,,Dual-Task at home,2.0,6.0,small,big,True,Value,right,right,486.6224169963971,Correct,1.0,0.9825581395348837,
11,22,254,B,70.17430083421392,57.98900452940309,3.508715041710696,0.9108891530927902,B,1234.5609999028966,Correct,sub_011_day_22_data.csv,1,344,,Dual-Task at home,2.0,7.0,big,small,False,Value,right,right,522.9083750164136,Correct,1.0,0.9825581395348837,
11,22,255,A,29.001365692540627,53.64331029708168,1.4500682846270314,0.8426271477177476,A,909.9249170394614,Correct,sub_011_day_22_data.csv,1,344,,Dual-Task at home,5.0,2.0,small,big,False,Value,left,left,821.6857500374317,Correct,1.0,0.9825581395348837,
11,22,256,A,46.65489470039515,59.27719562882458,2.3327447350197574,0.9311240115646016,A,1483.8205419946462,Correct,sub_011_day_22_data.csv,1,344,,Dual-Task at home,8.0,2.0,small,big,False,Size,right,right,1135.4414579691363,Correct,1.0,0.9825581395348837,
11,22,257,A,35.92875251829332,63.89203396790782,1.7964376259146662,1.0036137226824438,A,564.3036660039797,Correct,sub_011_day_22_data.csv,1,344,,Dual-Task at home,8.0,4.0,small,big,False,Size,right,right,1095.2190830139443,Correct,1.0,0.9825581395348837,
11,22,258,A,14.183422543644731,36.6688469721246,0.7091711271822365,0.5759929013161749,A,487.6813750015572,Correct,sub_011_day_22_data.csv,1,344,,Dual-Task at home,7.0,4.0,small,big,False,Size,right,right,776.0409590555355,Correct,1.0,0.9825581395348837,
11,22,259,B,67.43901169872662,51.02638829816351,3.371950584936331,0.8015206330836534,B,517.4282919615507,Correct,sub_011_day_22_data.csv,1,344,,Dual-Task at home,5.0,4.0,small,big,False,Value,left,left,411.6863750386983,Correct,1.0,0.9825581395348837,
11,22,260,B,46.47169778066904,30.459694838559212,2.323584889033452,0.4784597676770228,B,658.1471250392497,Correct,sub_011_day_22_data.csv,1,344,,Dual-Task at home,3.0,6.0,big,small,False,Value,right,right,746.7168329749256,Correct,1.0,0.9825581395348837,
11,22,261,B,74.80183253364251,45.748658335412934,3.740091626682126,0.7186182446906136,B,447.3046250641346,Correct,sub_011_day_22_data.csv,1,344,,Dual-Task at home,8.0,2.0,small,big,False,Size,right,right,1055.2239579847082,Correct,1.0,0.9825581395348837,
11,22,262,B,67.53653590735814,42.08423833678404,3.376826795367907,0.6610576699538134,B,529.0332500590011,Correct,sub_011_day_22_data.csv,1,344,,Dual-Task at home,7.0,4.0,small,big,False,Value,left,left,760.0413750624284,Correct,1.0,0.9825581395348837,
11,22,263,B,45.92597458218017,37.16853031395525,2.2962987291090085,0.5838419088952568,B,512.4732500407845,Correct,sub_011_day_22_data.csv,1,344,,Dual-Task at home,7.0,5.0,small,big,False,Value,left,left,796.6932080453262,Correct,1.0,0.9825581395348837,
11,22,264,B,34.33448019777067,11.87210535671804,1.7167240098885332,0.1864865948565471,B,539.1435420606285,Correct,sub_011_day_22_data.csv,1,344,,Dual-Task at home,2.0,4.0,small,big,True,Size,right,right,1913.5380419902503,Correct,1.0,0.9825581395348837,
11,22,265,B,58.10657381242999,25.665906565571177,2.9053286906215,0.4031591175706022,B,617.277416982688,Correct,sub_011_day_22_data.csv,1,344,,Dual-Task at home,8.0,7.0,small,big,False,Size,right,right,951.357625075616,Correct,1.0,0.9825581395348837,
11,22,266,B,41.0174476773156,15.952841081220871,2.05087238386578,0.2505866417232447,B,542.0820830622688,Correct,sub_011_day_22_data.csv,1,344,,Dual-Task at home,5.0,3.0,small,big,False,Size,right,right,1303.9110000245273,Correct,1.0,0.9825581395348837,
11,22,267,A,39.741523332858975,57.95012883292596,1.9870761666429488,0.9102784950805112,A,1029.2672499781474,Correct,sub_011_day_22_data.csv,1,344,,Dual-Task at home,3.0,8.0,small,big,True,Value,right,right,736.1881659599021,Correct,1.0,0.9825581395348837,
11,22,268,A,25.228151019306917,42.74155465560975,1.261407550965346,0.671382770545351,A,545.5992500064895,Correct,sub_011_day_22_data.csv,1,344,,Dual-Task at home,4.0,7.0,big,small,False,Value,right,right,1205.5968750501052,Correct,1.0,0.9825581395348837,
11,22,269,B,41.819222560838625,20.852055722582808,2.0909611280419313,0.3275433253515558,B,435.2890830487013,Correct,sub_011_day_22_data.csv,1,344,,Dual-Task at home,6.0,8.0,big,small,False,Size,left,left,583.0696250777692,Correct,1.0,0.9825581395348837,
11,22,270,A,52.78997814103734,60.34530050843578,2.639498907051867,0.9479017637798512,A,598.2852920424193,Correct,sub_011_day_22_data.csv,1,344,,Dual-Task at home,8.0,5.0,small,big,False,Value,left,left,721.813999931328,Correct,1.0,0.9825581395348837,
11,22,271,B,85.43759691813106,59.116961120661145,4.271879845906553,0.9286070537961124,B,715.8837910974398,Correct,sub_011_day_22_data.csv,1,344,,Dual-Task at home,8.0,6.0,big,small,True,Value,left,left,258.93274997361004,Correct,1.0,0.9825581395348837,
11,22,272,A,49.44313588909035,67.91936260160965,2.4721567944545173,1.066874852928591,A,660.1672919932753,Correct,sub_011_day_22_data.csv,1,344,,Dual-Task at home,8.0,5.0,small,big,False,Size,right,right,412.903374992311,Correct,1.0,0.9825581395348837,
11,22,273,A,66.45679149242169,84.61964184708603,3.3228395746210846,1.3292022258810243,A,569.6052090497687,Correct,sub_011_day_22_data.csv,1,344,,Dual-Task at home,8.0,2.0,small,big,False,Size,right,right,1132.8107910230756,Correct,1.0,0.9825581395348837,
11,22,274,A,27.482653079364734,42.982450988682075,1.374132653968237,0.6751667612966348,A,921.023041009903,Correct,sub_011_day_22_data.csv,1,344,,Dual-Task at home,4.0,5.0,big,small,False,Size,left,left,721.2308750022203,Correct,1.0,0.9825581395348837,
11,22,275,A,25.47242073603852,57.380872203701294,1.273621036801926,0.901336632858614,A,555.1608339883387,Correct,sub_011_day_22_data.csv,1,344,,Dual-Task at home,2.0,6.0,big,small,False,Value,right,right,701.5123750315979,Correct,1.0,0.9825581395348837,
11,22,276,A,26.33853544130894,43.3951369019599,1.3169267720654472,0.6816492164636028,A,525.3811660222709,Correct,sub_011_day_22_data.csv,1,344,,Dual-Task at home,4.0,7.0,big,small,False,Size,left,left,1032.879167003557,Correct,1.0,0.9825581395348837,
11,22,277,B,69.52173341820976,40.73067109581704,3.476086670910488,0.6397958854520047,B,479.16837502270937,Correct,sub_011_day_22_data.csv,1,344,,Dual-Task at home,2.0,3.0,big,small,False,Value,right,right,584.7065830603242,Correct,1.0,0.9825581395348837,
11,22,278,A,20.57582835225734,33.43410796166058,1.028791417612867,0.5251817397584044,A,1696.2164590368047,Correct,sub_011_day_22_data.csv,1,344,,Dual-Task at home,8.0,2.0,small,big,False,Size,right,right,651.5798750333488,Correct,1.0,0.9825581395348837,
11,22,279,A,30.20919736253957,48.84828371152052,1.5104598681269783,0.7673070462429142,A,681.3925830647349,Correct,sub_011_day_22_data.csv,1,344,,Dual-Task at home,4.0,7.0,big,small,False,Value,right,right,574.663084000349,Correct,1.0,0.9825581395348837,
11,22,280,B,63.12949624508219,46.974394091738525,3.1564748122541095,0.7378720569271877,B,576.8632090184838,Correct,sub_011_day_22_data.csv,1,344,,Dual-Task at home,8.0,4.0,small,big,False,Size,right,right,810.0795410573483,Correct,1.0,0.9825581395348837,
11,22,281,B,48.25230514535575,35.5003534629016,2.4126152572677877,0.5576382481944632,B,495.91762491036206,Correct,sub_011_day_22_data.csv,1,344,,Dual-Task at home,2.0,3.0,small,big,True,Value,right,right,535.4240419110283,Correct,1.0,0.9825581395348837,
11,22,282,A,62.47791890104063,75.68028259723162,3.1238959450520314,1.1887830991453117,A,655.6010829517618,Correct,sub_011_day_22_data.csv,1,344,,Dual-Task at home,2.0,8.0,big,small,False,Value,right,right,816.6065840050578,Correct,1.0,0.9825581395348837,
11,22,283,B,74.22346929571935,57.672105607835334,3.711173464785968,0.905911316473151,B,540.4281250666827,Correct,sub_011_day_22_data.csv,1,344,,Dual-Task at home,7.0,4.0,small,big,False,Value,left,left,692.2031249850988,Correct,1.0,0.9825581395348837,
11,22,284,A,45.954827209548675,64.74511400139949,2.297741360477434,1.0170138725131512,A,600.3597079543397,Correct,sub_011_day_22_data.csv,1,344,,Dual-Task at home,8.0,5.0,small,big,False,Value,left,left,1088.4742919588462,Correct,1.0,0.9825581395348837,
11,22,285,B,34.84998329312082,16.29819122768699,1.7424991646560413,0.2560113891385153,B,534.2506660381332,Correct,sub_011_day_22_data.csv,1,344,,Dual-Task at home,8.0,7.0,small,big,False,Value,left,left,751.3552090385929,Correct,1.0,0.9825581395348837,
11,22,286,B,69.1985202347886,46.259682886856055,3.45992601173943,0.7266453995737022,B,598.9416670054197,Correct,sub_011_day_22_data.csv,1,344,,Dual-Task at home,4.0,8.0,big,small,False,Value,right,right,788.7714580865577,Correct,1.0,0.9825581395348837,
11,22,287,A,34.68191792702485,58.925705844538285,1.7340958963512425,0.9256028229439732,A,599.3454999988899,Correct,sub_011_day_22_data.csv,1,344,,Dual-Task at home,4.0,8.0,small,big,True,Value,right,right,419.0564170712605,Correct,1.0,0.9825581395348837,
11,22,288,A,23.698509307345446,51.64494549113859,1.1849254653672725,0.8112369067500317,A,479.2121249483898,Correct,sub_011_day_22_data.csv,1,344,,Dual-Task at home,5.0,8.0,big,small,False,Value,right,right,624.524625018239,Correct,1.0,0.9825581395348837,
11,22,289,B,35.47311042155707,20.043980173232953,1.7736555210778533,0.3148501043046405,B,475.2184170065448,Correct,sub_011_day_22_data.csv,1,344,,Dual-Task at home,6.0,7.0,big,small,False,Value,right,right,721.0741670569405,Correct,1.0,0.9825581395348837,
11,22,290,B,37.479807192399306,22.220542769396367,1.8739903596199656,0.3490394696155671,B,676.2102090287954,Correct,sub_011_day_22_data.csv,1,344,,Dual-Task at home,6.0,4.0,small,big,False,Value,left,left,800.8970839437097,Correct,1.0,0.9825581395348837,
11,22,291,A,32.56046552747215,62.97354992788931,1.6280232763736076,0.9891862091196354,A,815.4730000533164,Correct,sub_011_day_22_data.csv,1,344,,Dual-Task at home,2.0,6.0,big,small,False,Size,left,right,606.3986669760197,Incorrect,0.0,0.9825581395348837,
11,22,292,B,72.84675000808791,63.04935629364237,3.642337500404395,0.9903769727283612,B,567.0707920799032,Correct,sub_011_day_22_data.csv,1,344,,Dual-Task at home,4.0,6.0,big,small,False,Size,left,left,502.13625002652407,Correct,1.0,0.9825581395348837,
11,22,293,B,46.51596556138155,29.09319391634003,2.325798278069078,0.4569948213851856,B,607.0356660056859,Correct,sub_011_day_22_data.csv,1,344,,Dual-Task at home,2.0,5.0,small,big,True,Value,right,right,320.43008401524276,Correct,1.0,0.9825581395348837,
11,22,294,B,47.73054560768422,33.353427146870914,2.386527280384211,0.5239144084832602,B,490.9411669941619,Correct,sub_011_day_22_data.csv,1,344,,Dual-Task at home,5.0,7.0,big,small,False,Size,left,left,886.8285829667002,Correct,1.0,0.9825581395348837,
11,22,295,A,19.526873747923915,44.807799378795266,0.9763436873961956,0.7038392667597424,A,718.6899579828605,Correct,sub_011_day_22_data.csv,1,344,,Dual-Task at home,2.0,7.0,small,big,True,Size,right,right,357.9120410140604,Correct,1.0,0.9825581395348837,
11,22,296,A,27.1282343511563,56.929014742573145,1.356411717557815,0.8942388724568642,A,587.246417067945,Correct,sub_011_day_22_data.csv,1,344,,Dual-Task at home,2.0,3.0,big,small,False,Size,left,left,361.7512499913573,Correct,1.0,0.9825581395348837,
11,22,297,A,33.919026463285235,53.06278611816306,1.6959513231642618,0.8335082952391376,A,529.7780419932678,Correct,sub_011_day_22_data.csv,1,344,,Dual-Task at home,7.0,5.0,small,big,False,Size,right,right,357.8182499622926,Correct,1.0,0.9825581395348837,
11,22,298,A,26.170446455355464,46.279374522132535,1.3085223227677734,0.7269547150573111,A,453.2430419931188,Correct,sub_011_day_22_data.csv,1,344,,Dual-Task at home,6.0,3.0,small,big,False,Size,right,right,400.5906670354306,Correct,1.0,0.9825581395348837,
11,22,299,B,86.66688783777846,59.61148596637496,4.333344391888923,0.9363750319076732,B,580.0661670509726,Correct,sub_011_day_22_data.csv,1,344,,Dual-Task at home,5.0,4.0,small,big,False,Size,right,right,728.9130830904469,Correct,1.0,0.9825581395348837,
11,22,300,A,55.0296203390395,77.02309706021137,2.751481016951975,1.209875979405468,A,507.7286250889302,Correct,sub_011_day_22_data.csv,1,344,,Dual-Task at home,8.0,2.0,small,big,False,Value,left,left,726.1136660818011,Correct,1.0,0.9825581395348837,
11,22,301,B,57.254185911407625,33.626081861688675,2.8627092955703812,0.5281972587284507,B,478.1087919836864,Correct,sub_011_day_22_data.csv,1,344,,Dual-Task at home,8.0,5.0,small,big,False,Size,right,left,761.2936249934137,Incorrect,0.0,0.9825581395348837,
11,22,302,A,40.59848999961984,51.881149928601296,2.0299244999809916,0.8149471973774223,A,690.0837089633569,Correct,sub_011_day_22_data.csv,1,344,,Dual-Task at home,3.0,2.0,small,big,False,Size,right,right,700.5667500197887,Correct,1.0,0.9825581395348837,
11,22,303,A,26.436645736254707,50.30623966864661,1.3218322868127352,0.7902085648637381,A,556.8092500325292,Correct,sub_011_day_22_data.csv,1,344,,Dual-Task at home,5.0,6.0,big,small,False,Value,right,right,1253.7302910350263,Correct,1.0,0.9825581395348837,
11,22,304,B,40.374379337029225,18.445479238110828,2.018718966851461,0.2897409103319601,B,714.8987089749426,Correct,sub_011_day_22_data.csv,1,344,,Dual-Task at home,2.0,8.0,big,small,False,Value,right,right,435.5184589512646,Correct,1.0,0.9825581395348837,
11,22,305,A,63.09306939875599,76.15514354454947,3.1546534699378,1.196242197463164,B,1206.5110000548884,Incorrect,sub_011_day_22_data.csv,0,344,,Dual-Task at home,5.0,4.0,small,big,False,Size,right,right,559.9412920419127,Correct,1.0,0.9825581395348837,
11,22,306,B,74.6494191264687,62.61462992515388,3.7324709563234353,0.9835483069005352,B,1627.505666925572,Correct,sub_011_day_22_data.csv,1,344,,Dual-Task at home,6.0,8.0,big,small,False,Value,right,right,455.8922500582412,Correct,1.0,0.9825581395348837,
11,22,307,B,35.21956766392297,21.48488613465916,1.7609783831961487,0.3374838022192921,B,681.3324589747936,Correct,sub_011_day_22_data.csv,1,344,,Dual-Task at home,3.0,4.0,big,small,False,Size,left,left,317.6482920534909,Correct,1.0,0.9825581395348837,
11,22,308,A,68.82352140605909,82.36932619987824,3.441176070302954,1.293854350353394,A,940.8217499731109,Correct,sub_011_day_22_data.csv,1,344,,Dual-Task at home,5.0,2.0,small,big,False,Value,left,left,870.3484169673175,Correct,1.0,0.9825581395348837,
11,22,309,B,80.41593045059138,53.40270867884806,4.020796522529569,0.8388477863363247,B,520.0740420259535,Correct,sub_011_day_22_data.csv,1,344,,Dual-Task at home,7.0,3.0,small,big,False,Size,right,right,401.9642919301986,Correct,1.0,0.9825581395348837,
11,22,310,A,19.464986119655254,36.987669044174595,0.9732493059827628,0.5810009467129477,A,653.1649579992518,Correct,sub_011_day_22_data.csv,1,344,,Dual-Task at home,7.0,5.0,small,big,False,Size,right,right,394.71749996300787,Correct,1.0,0.9825581395348837,
11,22,311,B,77.52792282210349,60.85760510965293,3.876396141105175,0.9559490256377716,B,451.8220829777419,Correct,sub_011_day_22_data.csv,1,344,,Dual-Task at home,8.0,2.0,small,big,False,Value,left,left,1102.5355000747368,Correct,1.0,0.9825581395348837,
11,22,312,A,19.948817136352496,49.64672303152091,0.9974408568176248,0.7798489017531663,A,523.8114589592442,Correct,sub_011_day_22_data.csv,1,344,,Dual-Task at home,6.0,8.0,big,small,False,Size,left,left,321.3595839915797,Correct,1.0,0.9825581395348837,
11,22,313,B,64.52897878867392,44.217452739854544,3.2264489394336966,0.6945661234399045,B,593.7841249397025,Correct,sub_011_day_22_data.csv,1,344,,Dual-Task at home,2.0,5.0,big,small,False,Size,left,left,446.0304169915617,Correct,1.0,0.9825581395348837,
11,22,314,B,77.51716672202313,58.88677628339376,3.8758583361011567,0.9249913188274774,B,498.0883750831708,Correct,sub_011_day_22_data.csv,1,344,,Dual-Task at home,8.0,6.0,small,big,False,Size,right,right,627.6087090373039,Correct,1.0,0.9825581395348837,
11,22,315,B,52.31763302827473,35.11607828642314,2.615881651413736,0.5516020678375549,B,638.4863330749795,Correct,sub_011_day_22_data.csv,1,344,,Dual-Task at home,7.0,3.0,small,big,False,Value,left,left,454.5223329914734,Correct,1.0,0.9825581395348837,
11,22,316,A,54.10220649772492,79.06592390025688,2.7051103248862463,1.2419646283716832,A,771.829333039932,Correct,sub_011_day_22_data.csv,1,344,,Dual-Task at home,7.0,2.0,big,small,True,Value,left,left,306.966417003423,Correct,1.0,0.9825581395348837,
11,22,317,B,31.61858545560205,11.27478632163389,1.5809292727801023,0.1771039293941985,B,574.6155000524595,Correct,sub_011_day_22_data.csv,1,344,,Dual-Task at home,3.0,6.0,big,small,False,Size,left,left,359.981624991633,Correct,1.0,0.9825581395348837,
11,22,318,A,45.20273156883316,55.89333789717871,2.260136578441658,0.8779704986119431,A,895.4935419606045,Correct,sub_011_day_22_data.csv,1,344,,Dual-Task at home,3.0,4.0,big,small,False,Size,left,left,630.4782500956208,Correct,1.0,0.9825581395348837,
11,22,319,B,73.02511237323482,57.02158694122643,3.6512556186617418,0.8956929931529432,B,670.5382079817355,Correct,sub_011_day_22_data.csv,1,344,,Dual-Task at home,6.0,4.0,small,big,False,Value,left,left,560.5768749956042,Correct,1.0,0.9825581395348837,
11,22,320,A,30.739780890392193,51.731182676285435,1.5369890445196095,0.8125915172866495,A,540.5727919423953,Correct,sub_011_day_22_data.csv,1,344,,Dual-Task at home,8.0,5.0,small,big,False,Size,right,right,377.8896660078317,Correct,1.0,0.9825581395348837,
11,22,321,B,59.4805653862087,33.81234809770403,2.9740282693104354,0.531123121921839,B,477.15858300216496,Correct,sub_011_day_22_data.csv,1,344,,Dual-Task at home,4.0,3.0,small,big,False,Value,left,left,326.3763750437647,Correct,1.0,0.9825581395348837,
11,22,322,A,56.09542357362791,66.97110453819897,2.8047711786813956,1.0519796500999996,A,587.7232910133898,Correct,sub_011_day_22_data.csv,1,344,,Dual-Task at home,6.0,8.0,big,small,False,Size,left,left,449.485709075816,Correct,1.0,0.9825581395348837,
11,22,323,A,35.35369992804955,57.79991659778966,1.7676849964024774,0.9079189668085936,A,611.6522080264986,Correct,sub_011_day_22_data.csv,1,344,,Dual-Task at home,6.0,8.0,big,small,False,Size,left,left,452.6213339995593,Correct,1.0,0.9825581395348837,
11,22,324,A,50.96410773120005,68.7971195287493,2.5482053865600025,1.0806626264982886,A,574.8467500088736,Correct,sub_011_day_22_data.csv,1,344,,Dual-Task at home,5.0,8.0,big,small,False,Value,right,right,555.1259579369798,Correct,1.0,0.9825581395348837,
11,22,325,A,23.62746456267516,36.61719503299743,1.181373228133758,0.575181554553647,A,843.4557080036029,Correct,sub_011_day_22_data.csv,1,344,,Dual-Task at home,2.0,5.0,small,big,True,Size,right,right,396.3908340083435,Correct,1.0,0.9825581395348837,
11,22,326,B,58.668893517643944,30.95165979642308,2.9334446758821975,0.4861875351642665,B,664.3742499873042,Correct,sub_011_day_22_data.csv,1,344,,Dual-Task at home,8.0,4.0,big,small,True,Size,left,left,438.7480419827625,Correct,1.0,0.9825581395348837,
11,22,327,A,28.55028018364296,54.96586968635934,1.427514009182148,0.8634018620242022,A,709.8088749917224,Correct,sub_011_day_22_data.csv,1,344,,Dual-Task at home,7.0,8.0,big,small,False,Size,left,left,325.55437507107854,Correct,1.0,0.9825581395348837,
11,22,328,B,59.60853021173165,40.44801797675425,2.9804265105865824,0.6353559806401953,B,603.1897920183837,Correct,sub_011_day_22_data.csv,1,344,,Dual-Task at home,7.0,8.0,small,big,True,Size,right,right,356.84612498153,Correct,1.0,0.9825581395348837,
11,22,329,B,64.21008286838448,38.242912021785166,3.2105041434192234,0.6007182572976053,B,609.4484589993954,Correct,sub_011_day_22_data.csv,1,344,,Dual-Task at home,3.0,6.0,big,small,False,Size,left,left,500.87266601622105,Correct,1.0,0.9825581395348837,
11,22,330,B,40.96788612643981,23.248057063314143,2.04839430632199,0.3651796264017201,B,543.4763750527054,Correct,sub_011_day_22_data.csv,1,344,,Dual-Task at home,6.0,3.0,small,big,False,Size,right,right,381.5704999724403,Correct,1.0,0.9825581395348837,
11,22,331,B,39.35773338954698,25.39770044212652,1.967886669477349,0.3989461456352945,B,592.6357090938836,Correct,sub_011_day_22_data.csv,1,344,,Dual-Task at home,2.0,4.0,big,small,False,Size,left,left,738.842291990295,Correct,1.0,0.9825581395348837,
11,22,332,B,76.08690740640922,51.15705549347294,3.8043453703204615,0.8035731485878997,B,619.6190409827977,Correct,sub_011_day_22_data.csv,1,344,,Dual-Task at home,5.0,8.0,big,small,False,Value,right,right,601.1523330816999,Correct,1.0,0.9825581395348837,
11,22,333,A,41.47368203311717,71.13818546298533,2.0736841016558585,1.1174360042011149,A,726.5592500334606,Correct,sub_011_day_22_data.csv,1,344,,Dual-Task at home,4.0,8.0,small,big,True,Value,right,right,359.2584169236943,Correct,1.0,0.9825581395348837,
11,22,334,A,15.199013994257747,33.602978400910565,0.7599506997128873,0.5278343504151856,A,534.2249579261988,Correct,sub_011_day_22_data.csv,1,344,,Dual-Task at home,5.0,6.0,big,small,False,Size,left,left,387.5640000915155,Correct,1.0,0.9825581395348837,
11,22,335,A,39.3046810027671,51.56162006733621,1.965234050138355,0.8099280340536574,B,468.84099999442697,Incorrect,sub_011_day_22_data.csv,0,344,,Dual-Task at home,6.0,4.0,small,big,False,Size,right,right,1129.900375031866,Correct,1.0,0.9825581395348837,
11,22,336,B,41.259783189335344,29.10841264694547,2.0629891594667673,0.4572338766465206,B,805.940999998711,Correct,sub_011_day_22_data.csv,1,344,,Dual-Task at home,2.0,4.0,big,small,False,Value,right,right,625.7790840463713,Correct,1.0,0.9825581395348837,
11,22,337,A,46.64775466718689,59.15583873425514,2.332387733359345,0.9292177419223924,B,1582.5226670131087,Incorrect,sub_011_day_22_data.csv,0,344,,Dual-Task at home,8.0,6.0,small,big,False,Value,left,left,472.60458290111274,Correct,1.0,0.9825581395348837,
11,22,338,A,23.04634198553556,52.66482527558277,1.1523170992767782,0.8272571409418045,A,543.5352500062436,Correct,sub_011_day_22_data.csv,1,344,,Dual-Task at home,7.0,8.0,big,small,False,Value,right,right,478.8451250642538,Correct,1.0,0.9825581395348837,
11,22,339,B,61.07614845593584,28.165662283495248,3.0538074227967917,0.4424251885665989,B,525.172833004035,Correct,sub_011_day_22_data.csv,1,344,,Dual-Task at home,4.0,7.0,big,small,False,Size,left,left,364.97445800341666,Correct,1.0,0.9825581395348837,
11,22,340,A,22.32750641158455,48.13480952973003,1.1163753205792275,0.756099820002719,A,602.2980419220403,Correct,sub_011_day_22_data.csv,1,344,,Dual-Task at home,5.0,3.0,small,big,False,Value,left,left,389.1441250452772,Correct,1.0,0.9825581395348837,
11,22,341,B,53.865959570260635,44.46876924227526,2.693297978513032,0.6985137938285586,B,600.8260420057923,Correct,sub_011_day_22_data.csv,1,344,,Dual-Task at home,4.0,2.0,small,big,False,Value,left,left,452.8943339828402,Correct,1.0,0.9825581395348837,
11,22,342,A,53.292440742319975,70.798109460691,2.6646220371159988,1.112094102848764,A,799.595124903135,Correct,sub_011_day_22_data.csv,1,344,,Dual-Task at home,5.0,4.0,small,big,False,Value,left,left,498.4940839931369,Correct,1.0,0.9825581395348837,
11,22,343,A,35.17782664591945,66.8208834928408,1.7588913322959727,1.049619983437441,A,695.4578330041841,Correct,sub_011_day_22_data.csv,1,344,,Dual-Task at home,4.0,6.0,big,small,False,Value,right,right,463.83312507532537,Correct,1.0,0.9825581395348837,
