subject,day,trial,cat,x,y,xt,yt,resp,rt,fb,f_name,acc,n_trials,block,session_type,ns_left_digit,ns_right_digit,ns_left_size,ns_right_size,ns_congruent,ns_cue,ns_correct_side,ns_resp,ns_rt,ns_fb,acc_stroop,acc_stroop_mean,resp_key
11,17,3600,B,41.975122808660814,19.573279006171536,2.0987561404330406,0.3074563476622591,B,745.2510410221294,Correct,sub_011_day_17_data.csv,1,300,144.0,Training at home,,,,,,,,,,,,,
11,17,3601,B,56.42234105821287,29.110218244269237,2.8211170529106435,0.4572622389029591,B,419.6957080275752,Correct,sub_011_day_17_data.csv,1,300,144.0,Training at home,,,,,,,,,,,,,
11,17,3602,A,62.207959149995425,72.33229631539237,3.1103979574997713,1.1361930536085838,A,1862.4472079682164,Correct,sub_011_day_17_data.csv,1,300,144.0,Training at home,,,,,,,,,,,,,
11,17,3603,A,32.00393212220339,41.75338634069461,1.6001966061101696,0.6558606589521129,A,775.7004160084762,Correct,sub_011_day_17_data.csv,1,300,144.0,Training at home,,,,,,,,,,,,,
11,17,3604,A,26.01102570375352,38.72133678044763,1.300551285187676,0.6082333358331526,A,1209.32670799084,Correct,sub_011_day_17_data.csv,1,300,144.0,Training at home,,,,,,,,,,,,,
11,17,3605,A,48.264873708313665,70.8576892557888,2.4132436854156833,1.1130299800816723,A,964.1070410143584,Correct,sub_011_day_17_data.csv,1,300,144.0,Training at home,,,,,,,,,,,,,
11,17,3606,B,79.22185136866628,50.31483580942705,3.961092568433314,0.7903435927273634,B,713.922958006151,Correct,sub_011_day_17_data.csv,1,300,144.0,Training at home,,,,,,,,,,,,,
11,17,3607,B,70.94438570530386,52.068709410169326,3.5472192852651925,0.8178933748244483,B,497.9204999981448,Correct,sub_011_day_17_data.csv,1,300,144.0,Training at home,,,,,,,,,,,,,
11,17,3608,B,56.683375640581424,37.13747889257524,2.8341687820290713,0.583354154308802,B,559.9680409650318,Correct,sub_011_day_17_data.csv,1,300,144.0,Training at home,,,,,,,,,,,,,
11,17,3609,A,42.04469683954174,63.89340291547688,2.1022348419770873,1.003635226060574,A,662.8027490223758,Correct,sub_011_day_17_data.csv,1,300,144.0,Training at home,,,,,,,,,,,,,
11,17,3610,B,86.14564375287512,60.48898948220902,4.3072821876437555,0.9501588249018909,B,613.0199999897741,Correct,sub_011_day_17_data.csv,1,300,144.0,Training at home,,,,,,,,,,,,,
11,17,3611,A,53.34945996513888,80.65444829922338,2.6674729982569443,1.26691711128089,A,622.8915409883484,Correct,sub_011_day_17_data.csv,1,300,144.0,Training at home,,,,,,,,,,,,,
11,17,3612,B,59.46370023358403,36.10936989438596,2.9731850116792016,0.5672046559297969,B,404.499540978577,Correct,sub_011_day_17_data.csv,1,300,144.0,Training at home,,,,,,,,,,,,,
11,17,3613,B,45.17687636256652,19.7879250360947,2.258843818128326,0.3108279996159032,B,489.0909999958239,Correct,sub_011_day_17_data.csv,1,300,144.0,Training at home,,,,,,,,,,,,,
11,17,3614,B,66.45829000937711,38.20520936265879,3.322914500468855,0.6001260253129442,B,1381.115750002209,Correct,sub_011_day_17_data.csv,1,300,144.0,Training at home,,,,,,,,,,,,,
11,17,3615,A,48.50298312567777,76.2950275038771,2.4251491562838883,1.1984394895580577,A,511.2557079992257,Correct,sub_011_day_17_data.csv,1,300,144.0,Training at home,,,,,,,,,,,,,
11,17,3616,B,61.025553893206315,49.51123119043531,3.0512776946603157,0.777720600890287,B,867.1617910149507,Correct,sub_011_day_17_data.csv,1,300,144.0,Training at home,,,,,,,,,,,,,
11,17,3617,B,69.48167998265532,50.36683118563324,3.4740839991327666,0.7911603341869134,B,557.1082079550251,Correct,sub_011_day_17_data.csv,1,300,144.0,Training at home,,,,,,,,,,,,,
11,17,3618,B,75.41340745476957,64.99434504797239,3.7706703727384783,1.020928784637951,B,702.8305410058238,Correct,sub_011_day_17_data.csv,1,300,144.0,Training at home,,,,,,,,,,,,,
11,17,3619,B,64.43932249594324,47.98030351694788,3.2219661247971625,0.7536728452292599,B,931.5186659805476,Correct,sub_011_day_17_data.csv,1,300,144.0,Training at home,,,,,,,,,,,,,
11,17,3620,B,71.25153158146205,42.04836447429295,3.562576579073102,0.6604941646395239,B,445.16958302119747,Correct,sub_011_day_17_data.csv,1,300,144.0,Training at home,,,,,,,,,,,,,
11,17,3621,B,85.40201711215526,61.357409197921555,4.270100855607763,0.9637999298974658,B,455.0722499843687,Correct,sub_011_day_17_data.csv,1,300,144.0,Training at home,,,,,,,,,,,,,
11,17,3622,A,56.33274301967865,84.82885691497998,2.8166371509839325,1.3324885684826042,A,871.3327079894952,Correct,sub_011_day_17_data.csv,1,300,144.0,Training at home,,,,,,,,,,,,,
11,17,3623,B,50.79376290768349,40.552099198314906,2.5396881453841744,0.6369908846453533,B,563.2019169861451,Correct,sub_011_day_17_data.csv,1,300,144.0,Training at home,,,,,,,,,,,,,
11,17,3624,A,32.905416437590226,49.83578316381569,1.6452708218795111,0.7828186513666864,A,1258.5305420216173,Correct,sub_011_day_17_data.csv,1,300,144.0,Training at home,,,,,,,,,,,,,
11,17,3625,B,44.36478122788867,27.723400715942105,2.2182390613944336,0.4354781601086485,B,782.7023330028169,Correct,sub_011_day_17_data.csv,1,300,145.0,Training at home,,,,,,,,,,,,,
11,17,3626,A,51.561509039069215,71.78225607836092,2.578075451953461,1.1275530417693995,A,580.8297490002587,Correct,sub_011_day_17_data.csv,1,300,145.0,Training at home,,,,,,,,,,,,,
11,17,3627,B,36.94529885803398,20.9742506295631,1.8472649429016992,0.3294627584619327,B,1023.3241670066492,Correct,sub_011_day_17_data.csv,1,300,145.0,Training at home,,,,,,,,,,,,,
11,17,3628,B,52.53133913923075,24.273784072890592,2.6265669569615375,0.3812917085910901,B,503.6305829999037,Correct,sub_011_day_17_data.csv,1,300,145.0,Training at home,,,,,,,,,,,,,
11,17,3629,A,49.92748433161918,71.36025303913533,2.4963742165809593,1.1209242335302811,A,445.1017499668524,Correct,sub_011_day_17_data.csv,1,300,145.0,Training at home,,,,,,,,,,,,,
11,17,3630,A,40.627612321012336,49.61658676979204,2.031380616050617,0.7793755224608961,A,782.299582962878,Correct,sub_011_day_17_data.csv,1,300,145.0,Training at home,,,,,,,,,,,,,
11,17,3631,A,15.945563132916067,40.57627398413642,0.7972781566458034,0.6373706212930481,A,529.6275409637019,Correct,sub_011_day_17_data.csv,1,300,145.0,Training at home,,,,,,,,,,,,,
11,17,3632,A,52.17615274292266,64.68367411732751,2.608807637146133,1.0160487770709616,A,833.5544160217978,Correct,sub_011_day_17_data.csv,1,300,145.0,Training at home,,,,,,,,,,,,,
11,17,3633,B,42.73730203886444,27.93640561030008,2.136865101943222,0.438824033165117,B,500.3278329968453,Correct,sub_011_day_17_data.csv,1,300,145.0,Training at home,,,,,,,,,,,,,
11,17,3634,B,59.39070892307236,49.42131453440628,2.969535446153618,0.7763081933602062,B,757.2805410018191,Correct,sub_011_day_17_data.csv,1,300,145.0,Training at home,,,,,,,,,,,,,
11,17,3635,B,62.017249560296406,54.84905022579801,3.1008624780148204,0.8615668662287231,B,893.7857910059392,Correct,sub_011_day_17_data.csv,1,300,145.0,Training at home,,,,,,,,,,,,,
11,17,3636,A,32.769228262148964,55.79037013978689,1.6384614131074482,0.8763530848610492,A,561.6179580101743,Correct,sub_011_day_17_data.csv,1,300,145.0,Training at home,,,,,,,,,,,,,
11,17,3637,A,37.504225093089765,63.32745103648005,1.875211254654488,0.9947452747338654,A,588.7685000197962,Correct,sub_011_day_17_data.csv,1,300,145.0,Training at home,,,,,,,,,,,,,
11,17,3638,B,49.726652341666515,20.419609046702472,2.4863326170833258,0.3207504688514808,B,440.007166005671,Correct,sub_011_day_17_data.csv,1,300,145.0,Training at home,,,,,,,,,,,,,
11,17,3639,B,78.74758589676485,65.7515377773704,3.9373792948382422,1.0328227402180932,B,527.3587920237333,Correct,sub_011_day_17_data.csv,1,300,145.0,Training at home,,,,,,,,,,,,,
11,17,3640,A,20.98063931122141,39.07431248589863,1.0490319655610705,0.6137778652488552,A,482.7412500162609,Correct,sub_011_day_17_data.csv,1,300,145.0,Training at home,,,,,,,,,,,,,
11,17,3641,B,53.68756633430117,27.74527021899813,2.6843783167150583,0.4358216854593409,B,495.7149580004625,Correct,sub_011_day_17_data.csv,1,300,145.0,Training at home,,,,,,,,,,,,,
11,17,3642,B,50.7668703408566,28.72655489450907,2.53834351704283,0.4512356690976681,B,470.1364159700461,Correct,sub_011_day_17_data.csv,1,300,145.0,Training at home,,,,,,,,,,,,,
11,17,3643,B,79.34581583596952,54.46894894570784,3.967290791798476,0.8555962492829663,B,510.7430829666555,Correct,sub_011_day_17_data.csv,1,300,145.0,Training at home,,,,,,,,,,,,,
11,17,3644,A,48.47604018172959,63.05859056766977,2.4238020090864794,0.99052202436559,A,570.0422499794513,Correct,sub_011_day_17_data.csv,1,300,145.0,Training at home,,,,,,,,,,,,,
11,17,3645,A,10.623710665477148,31.37663966985215,0.5311855332738574,0.4928631034057079,A,699.7107079951093,Correct,sub_011_day_17_data.csv,1,300,145.0,Training at home,,,,,,,,,,,,,
11,17,3646,B,65.43618170808175,52.71626249406718,3.271809085404087,0.8280651148803629,B,563.2577910437249,Correct,sub_011_day_17_data.csv,1,300,145.0,Training at home,,,,,,,,,,,,,
11,17,3647,A,22.947191949616645,39.70786299428517,1.1473595974808322,0.6237296533629815,A,493.8454160001129,Correct,sub_011_day_17_data.csv,1,300,145.0,Training at home,,,,,,,,,,,,,
11,17,3648,A,44.008083107515155,52.33519748207693,2.200404155375758,0.8220793596693197,B,765.7587910071015,Incorrect,sub_011_day_17_data.csv,0,300,145.0,Training at home,,,,,,,,,,,,,
11,17,3649,A,41.15197835420933,59.933616541507625,2.0575989177104663,0.9414350471493402,A,435.61687401961535,Correct,sub_011_day_17_data.csv,1,300,145.0,Training at home,,,,,,,,,,,,,
11,17,3650,A,27.24929259722278,37.076223057853674,1.362464629861139,0.5823919499070479,A,552.8883329825476,Correct,sub_011_day_17_data.csv,1,300,146.0,Training at home,,,,,,,,,,,,,
11,17,3651,A,20.43954007170997,38.74103778333587,1.0219770035854985,0.6085427984628627,A,500.3400410059839,Correct,sub_011_day_17_data.csv,1,300,146.0,Training at home,,,,,,,,,,,,,
11,17,3652,B,45.31430376321009,35.32214435520744,2.2657151881605047,0.5548389460767893,B,1029.7598750330508,Correct,sub_011_day_17_data.csv,1,300,146.0,Training at home,,,,,,,,,,,,,
11,17,3653,B,54.46594926770416,44.74516961846224,2.723297463385208,0.7028554807849509,B,523.8507920294069,Correct,sub_011_day_17_data.csv,1,300,146.0,Training at home,,,,,,,,,,,,,
11,17,3654,A,25.74062132504728,41.270936121000375,1.287031066252364,0.6482823486225422,A,492.7623749827035,Correct,sub_011_day_17_data.csv,1,300,146.0,Training at home,,,,,,,,,,,,,
11,17,3655,B,44.06848759710968,14.58699864361051,2.203424379855484,0.2291320388834553,B,461.1497920122929,Correct,sub_011_day_17_data.csv,1,300,146.0,Training at home,,,,,,,,,,,,,
11,17,3656,B,62.285083802734825,30.64937608060576,3.1142541901367413,0.4814392736597089,B,866.8200410320424,Correct,sub_011_day_17_data.csv,1,300,146.0,Training at home,,,,,,,,,,,,,
11,17,3657,B,77.6328408523242,64.0661692281421,3.8816420426162095,1.0063490329538585,B,516.7862909729593,Correct,sub_011_day_17_data.csv,1,300,146.0,Training at home,,,,,,,,,,,,,
11,17,3658,A,40.78147707886263,72.16263022057484,2.0390738539431315,1.1335279448233735,A,466.9188749976456,Correct,sub_011_day_17_data.csv,1,300,146.0,Training at home,,,,,,,,,,,,,
11,17,3659,B,81.65064991857405,59.83504440449166,4.082532495928702,0.9398866796418502,B,681.2801249907352,Correct,sub_011_day_17_data.csv,1,300,146.0,Training at home,,,,,,,,,,,,,
11,17,3660,B,83.76528070997479,62.34571999768417,4.188264035498739,0.979324279637454,B,591.717541043181,Correct,sub_011_day_17_data.csv,1,300,146.0,Training at home,,,,,,,,,,,,,
11,17,3661,B,73.51903848655968,60.01870445789039,3.675951924327984,0.9427716050144268,B,478.74633298488334,Correct,sub_011_day_17_data.csv,1,300,146.0,Training at home,,,,,,,,,,,,,
11,17,3662,B,74.61679088775394,50.67580467386019,3.730839544387697,0.7960136783907523,B,616.0015829955228,Correct,sub_011_day_17_data.csv,1,300,146.0,Training at home,,,,,,,,,,,,,
11,17,3663,B,43.85589467481729,32.13839387868118,2.1927947337408646,0.5048287105371998,B,412.12250001262873,Correct,sub_011_day_17_data.csv,1,300,146.0,Training at home,,,,,,,,,,,,,
11,17,3664,A,31.420852503787675,61.79046680797099,1.571042625189384,0.970602382929028,A,725.6180829717778,Correct,sub_011_day_17_data.csv,1,300,146.0,Training at home,,,,,,,,,,,,,
11,17,3665,A,66.27162889017241,80.86212214682666,3.31358144450862,1.2701792444507556,A,1064.603333012201,Correct,sub_011_day_17_data.csv,1,300,146.0,Training at home,,,,,,,,,,,,,
11,17,3666,B,52.51687359416585,29.624109684146973,2.6258436797082925,0.4653344267642719,B,498.7320000072941,Correct,sub_011_day_17_data.csv,1,300,146.0,Training at home,,,,,,,,,,,,,
11,17,3667,B,49.976517094180664,37.05738072112706,2.4988258547090334,0.582095975173864,B,910.022708005272,Correct,sub_011_day_17_data.csv,1,300,146.0,Training at home,,,,,,,,,,,,,
11,17,3668,B,51.75399218348456,29.32989305465984,2.587699609174228,0.4607128827554683,B,432.2727919789031,Correct,sub_011_day_17_data.csv,1,300,146.0,Training at home,,,,,,,,,,,,,
11,17,3669,A,20.573353683361415,33.141619789110145,1.0286676841680709,0.5205873462876727,A,635.7995829894207,Correct,sub_011_day_17_data.csv,1,300,146.0,Training at home,,,,,,,,,,,,,
11,17,3670,B,70.94692917703463,44.9169833065444,3.547346458851732,0.7055543238862764,B,580.172166984994,Correct,sub_011_day_17_data.csv,1,300,146.0,Training at home,,,,,,,,,,,,,
11,17,3671,A,32.96131329804625,41.452958358880934,1.6480656649023129,0.6511415472491198,A,882.262124971021,Correct,sub_011_day_17_data.csv,1,300,146.0,Training at home,,,,,,,,,,,,,
11,17,3672,B,43.7791072645784,35.07001911588867,2.18895536322892,0.5508785720786473,B,1404.774707974866,Correct,sub_011_day_17_data.csv,1,300,146.0,Training at home,,,,,,,,,,,,,
11,17,3673,A,31.87015504256555,44.32798673935308,1.5935077521282777,0.6963023874438871,A,970.8653329871596,Correct,sub_011_day_17_data.csv,1,300,146.0,Training at home,,,,,,,,,,,,,
11,17,3674,A,29.95526473385406,45.49747906715322,1.4977632366927032,0.7146727299711197,A,846.4594999677502,Correct,sub_011_day_17_data.csv,1,300,146.0,Training at home,,,,,,,,,,,,,
11,17,3675,A,31.81010181734969,64.93817193468455,1.5905050908674845,1.0200464194377794,A,2250.916082994081,Correct,sub_011_day_17_data.csv,1,300,147.0,Training at home,,,,,,,,,,,,,
11,17,3676,B,61.06697876616358,48.01062798901607,3.0533489383081793,0.754149180922627,B,981.593333010096,Correct,sub_011_day_17_data.csv,1,300,147.0,Training at home,,,,,,,,,,,,,
11,17,3677,A,62.4312213454503,88.80864003232372,3.121561067272515,1.395002855504243,A,1460.1869159960188,Correct,sub_011_day_17_data.csv,1,300,147.0,Training at home,,,,,,,,,,,,,
11,17,3678,A,46.18516210142528,53.85249031630522,2.309258105071264,0.8459129397760997,B,852.8250000090338,Incorrect,sub_011_day_17_data.csv,0,300,147.0,Training at home,,,,,,,,,,,,,
11,17,3679,B,71.41707990074646,55.35069029704176,3.570853995037323,0.8694466100415512,B,615.5325000290759,Correct,sub_011_day_17_data.csv,1,300,147.0,Training at home,,,,,,,,,,,,,
11,17,3680,B,47.24143453517223,16.931104051476566,2.362071726758612,0.2659531605264158,B,460.6287909555249,Correct,sub_011_day_17_data.csv,1,300,147.0,Training at home,,,,,,,,,,,,,
11,17,3681,B,83.33666428391616,64.2460350319088,4.166833214195808,1.009174358392586,B,614.8932910291478,Correct,sub_011_day_17_data.csv,1,300,147.0,Training at home,,,,,,,,,,,,,
11,17,3682,A,28.856638237131193,43.4438582273701,1.4428319118565596,0.682414529253512,A,784.4459579791874,Correct,sub_011_day_17_data.csv,1,300,147.0,Training at home,,,,,,,,,,,,,
11,17,3683,B,31.31248805572852,16.93031699877551,1.565624402786426,0.2659407975314977,B,709.8129990044981,Correct,sub_011_day_17_data.csv,1,300,147.0,Training at home,,,,,,,,,,,,,
11,17,3684,B,37.09323825001228,26.810552372327955,1.854661912500614,0.4211391718579494,B,900.5860830075108,Correct,sub_011_day_17_data.csv,1,300,147.0,Training at home,,,,,,,,,,,,,
11,17,3685,A,29.088311996308285,62.24812102647404,1.4544155998154142,0.9777911985826958,A,802.3708330001682,Correct,sub_011_day_17_data.csv,1,300,147.0,Training at home,,,,,,,,,,,,,
11,17,3686,B,72.09907173082011,42.24958597667825,3.604953586541006,0.6636549446077136,B,587.4909160193056,Correct,sub_011_day_17_data.csv,1,300,147.0,Training at home,,,,,,,,,,,,,
11,17,3687,A,50.43334275087906,80.80537021957903,2.521667137543953,1.2692877872621646,A,743.027082993649,Correct,sub_011_day_17_data.csv,1,300,147.0,Training at home,,,,,,,,,,,,,
11,17,3688,B,70.57522142998904,46.210999624670215,3.528761071499452,0.7258806846795232,B,461.54416602803394,Correct,sub_011_day_17_data.csv,1,300,147.0,Training at home,,,,,,,,,,,,,
11,17,3689,A,44.99650403043597,69.61892325590468,2.2498252015217988,1.0935714892579087,A,1120.8609999739565,Correct,sub_011_day_17_data.csv,1,300,147.0,Training at home,,,,,,,,,,,,,
11,17,3690,A,63.013331053814056,79.4093362360114,3.1506665526907027,1.2473589367274758,A,487.71595797734335,Correct,sub_011_day_17_data.csv,1,300,147.0,Training at home,,,,,,,,,,,,,
11,17,3691,A,37.85050723142534,65.12417344993787,1.8925253615712672,1.0229681244071611,A,505.6377500295639,Correct,sub_011_day_17_data.csv,1,300,147.0,Training at home,,,,,,,,,,,,,
11,17,3692,A,61.58672906418613,82.83177446418277,3.079336453209306,1.3011184707024162,A,743.3077489840798,Correct,sub_011_day_17_data.csv,1,300,147.0,Training at home,,,,,,,,,,,,,
11,17,3693,A,45.367795876460335,53.534912974866586,2.2683897938230166,0.8409244465620489,B,1259.191124991048,Incorrect,sub_011_day_17_data.csv,0,300,147.0,Training at home,,,,,,,,,,,,,
11,17,3694,B,43.83809830844306,36.46444447677385,2.191904915422153,0.5727821544273282,B,587.2516660019755,Correct,sub_011_day_17_data.csv,1,300,147.0,Training at home,,,,,,,,,,,,,
11,17,3695,A,68.85547843969026,88.44842171171364,3.442773921984513,1.3893445593556577,A,662.4147500260733,Correct,sub_011_day_17_data.csv,1,300,147.0,Training at home,,,,,,,,,,,,,
11,17,3696,B,65.20808977813024,46.4210540424738,3.260404488906512,0.7291802117586523,B,1156.767915992532,Correct,sub_011_day_17_data.csv,1,300,147.0,Training at home,,,,,,,,,,,,,
11,17,3697,A,52.756771683056925,82.34645058405843,2.637838584152846,1.2934950210203644,A,449.9527500011027,Correct,sub_011_day_17_data.csv,1,300,147.0,Training at home,,,,,,,,,,,,,
11,17,3698,B,68.50273836897273,55.129928199292195,3.425136918448636,0.8659788871191457,B,414.31362502044067,Correct,sub_011_day_17_data.csv,1,300,147.0,Training at home,,,,,,,,,,,,,
11,17,3699,B,42.2420983124108,19.86889301948689,2.1121049156205403,0.3120998417249077,B,442.9060000111349,Correct,sub_011_day_17_data.csv,1,300,147.0,Training at home,,,,,,,,,,,,,
11,17,3700,B,47.135758590619645,30.23017196166378,2.356787929530982,0.4748544307575953,B,441.5628329734318,Correct,sub_011_day_17_data.csv,1,300,148.0,Training at home,,,,,,,,,,,,,
11,17,3701,B,36.117344712854134,16.646747976189303,1.8058672356427068,0.2614865057407853,B,571.0416660294868,Correct,sub_011_day_17_data.csv,1,300,148.0,Training at home,,,,,,,,,,,,,
11,17,3702,B,70.68112045694363,61.79920690388142,3.5340560228471816,0.9707396720345476,B,763.7655409635045,Correct,sub_011_day_17_data.csv,1,300,148.0,Training at home,,,,,,,,,,,,,
11,17,3703,A,36.07821661122781,69.10432193746819,1.8039108305613905,1.08548815065027,A,859.3009990290739,Correct,sub_011_day_17_data.csv,1,300,148.0,Training at home,,,,,,,,,,,,,
11,17,3704,B,41.61648923388782,29.518289609783498,2.080824461694391,0.4636722089231587,B,553.1528749852441,Correct,sub_011_day_17_data.csv,1,300,148.0,Training at home,,,,,,,,,,,,,
11,17,3705,B,62.340551166581434,38.46200721416832,3.117027558329072,0.6041597965317441,B,623.5772079671733,Correct,sub_011_day_17_data.csv,1,300,148.0,Training at home,,,,,,,,,,,,,
11,17,3706,B,63.06660073996775,31.626262372299813,3.153330036998387,0.496784167646602,B,418.3335829875432,Correct,sub_011_day_17_data.csv,1,300,148.0,Training at home,,,,,,,,,,,,,
11,17,3707,B,49.30053086948987,31.50009569470889,2.4650265434744933,0.4948023461093646,B,367.5742080085911,Correct,sub_011_day_17_data.csv,1,300,148.0,Training at home,,,,,,,,,,,,,
11,17,3708,B,47.10980839822333,31.876949775342577,2.3554904199111664,0.5007219561653352,B,731.6494580009021,Correct,sub_011_day_17_data.csv,1,300,148.0,Training at home,,,,,,,,,,,,,
11,17,3709,B,52.93625004228631,27.509176559534925,2.6468125021143156,0.4321131349286973,B,394.4650419871323,Correct,sub_011_day_17_data.csv,1,300,148.0,Training at home,,,,,,,,,,,,,
11,17,3710,B,79.43154275684947,56.21103459429001,3.971577137842474,0.8829608666605162,B,645.1805830001831,Correct,sub_011_day_17_data.csv,1,300,148.0,Training at home,,,,,,,,,,,,,
11,17,3711,A,41.27833357688761,50.00577789700283,2.063916678844381,0.7854889223913346,B,603.1252079992555,Incorrect,sub_011_day_17_data.csv,0,300,148.0,Training at home,,,,,,,,,,,,,
11,17,3712,A,61.11498924488282,77.30245811864705,3.0557494622441412,1.2142641726498713,A,988.648666010704,Correct,sub_011_day_17_data.csv,1,300,148.0,Training at home,,,,,,,,,,,,,
11,17,3713,A,68.6017766351316,82.86357678534566,3.43008883175658,1.301618020395078,A,467.94479101663455,Correct,sub_011_day_17_data.csv,1,300,148.0,Training at home,,,,,,,,,,,,,
11,17,3714,A,68.5974138049665,85.45426588805769,3.4298706902483245,1.3423124696591544,A,504.189083003439,Correct,sub_011_day_17_data.csv,1,300,148.0,Training at home,,,,,,,,,,,,,
11,17,3715,B,75.21344029892161,42.974743422826805,3.760672014946081,0.6750456911352948,B,521.3166670291685,Correct,sub_011_day_17_data.csv,1,300,148.0,Training at home,,,,,,,,,,,,,
11,17,3716,A,53.98367608341541,73.11297810460657,2.6991838041707705,1.1484559744775171,A,547.2525829682127,Correct,sub_011_day_17_data.csv,1,300,148.0,Training at home,,,,,,,,,,,,,
11,17,3717,A,29.803009428480124,55.53821734147573,1.490150471424006,0.872392277967267,A,709.9527909886092,Correct,sub_011_day_17_data.csv,1,300,148.0,Training at home,,,,,,,,,,,,,
11,17,3718,A,47.92284752667923,60.90398087610296,2.396142376333961,0.9566774944736915,A,441.66008301544935,Correct,sub_011_day_17_data.csv,1,300,148.0,Training at home,,,,,,,,,,,,,
11,17,3719,A,33.70057696839035,48.16448359785341,1.6850288484195175,0.7565659391748117,A,681.7957499879412,Correct,sub_011_day_17_data.csv,1,300,148.0,Training at home,,,,,,,,,,,,,
11,17,3720,A,57.08491022383896,81.33062908992085,2.854245511191948,1.2775385343036585,A,624.2623329744674,Correct,sub_011_day_17_data.csv,1,300,148.0,Training at home,,,,,,,,,,,,,
11,17,3721,A,66.32761571130443,88.82608977628175,3.3163807855652214,1.3952769554413709,A,470.9343329886906,Correct,sub_011_day_17_data.csv,1,300,148.0,Training at home,,,,,,,,,,,,,
11,17,3722,A,21.483457273223777,38.7140107684254,1.0741728636611887,0.6081182591054068,A,776.2102489941753,Correct,sub_011_day_17_data.csv,1,300,148.0,Training at home,,,,,,,,,,,,,
11,17,3723,A,69.35919258071033,87.81745175138516,3.467959629035517,1.3794333063956388,A,828.2136249472387,Correct,sub_011_day_17_data.csv,1,300,148.0,Training at home,,,,,,,,,,,,,
11,17,3724,B,51.90202877513097,41.27068067051115,2.595101438756549,0.6482783360156406,B,1271.2513739825226,Correct,sub_011_day_17_data.csv,1,300,148.0,Training at home,,,,,,,,,,,,,
11,17,3725,A,27.65169395252323,40.90553158086425,1.3825846976261615,0.642542587528142,A,651.7834580154158,Correct,sub_011_day_17_data.csv,1,300,149.0,Training at home,,,,,,,,,,,,,
11,17,3726,A,66.7886901190052,81.6613419493044,3.3394345059502597,1.2827333597510937,A,3134.2639990034513,Correct,sub_011_day_17_data.csv,1,300,149.0,Training at home,,,,,,,,,,,,,
11,17,3727,B,56.047693450058986,38.157303357925144,2.8023846725029493,0.5993735195502738,B,667.8579580038786,Correct,sub_011_day_17_data.csv,1,300,149.0,Training at home,,,,,,,,,,,,,
11,17,3728,A,48.80608996790268,69.82737295462846,2.440304498395134,1.096845809468677,A,650.2341239829548,Correct,sub_011_day_17_data.csv,1,300,149.0,Training at home,,,,,,,,,,,,,
11,17,3729,A,67.78179003037316,82.44922093929199,3.389089501518658,1.2951093339854072,A,717.3792920075357,Correct,sub_011_day_17_data.csv,1,300,149.0,Training at home,,,,,,,,,,,,,
11,17,3730,A,23.27314006331444,48.37545618428445,1.163657003165722,0.7598798888130149,A,712.9227080149576,Correct,sub_011_day_17_data.csv,1,300,149.0,Training at home,,,,,,,,,,,,,
11,17,3731,B,48.47205195703244,21.63838581386425,2.4236025978516222,0.3398949695418876,B,564.4427909865044,Correct,sub_011_day_17_data.csv,1,300,149.0,Training at home,,,,,,,,,,,,,
11,17,3732,B,37.271775839724086,22.340764993044665,1.863588791986204,0.3509279158886257,B,683.1510409829207,Correct,sub_011_day_17_data.csv,1,300,149.0,Training at home,,,,,,,,,,,,,
11,17,3733,B,39.48086091363585,17.43855729182193,1.9740430456817928,0.2739242173859624,B,579.303125035949,Correct,sub_011_day_17_data.csv,1,300,149.0,Training at home,,,,,,,,,,,,,
11,17,3734,A,36.73122121904095,57.44374751134675,1.8365610609520473,0.9023242758815696,A,546.9762500142679,Correct,sub_011_day_17_data.csv,1,300,149.0,Training at home,,,,,,,,,,,,,
11,17,3735,A,32.583642198801314,60.42033239217783,1.6291821099400658,0.9490803618535965,A,479.67349900864065,Correct,sub_011_day_17_data.csv,1,300,149.0,Training at home,,,,,,,,,,,,,
11,17,3736,A,33.778367506673234,45.74053039811282,1.6889183753336618,0.7184905713500591,A,571.4148750412278,Correct,sub_011_day_17_data.csv,1,300,149.0,Training at home,,,,,,,,,,,,,
11,17,3737,A,34.783536209460394,67.52399109322693,1.73917681047302,1.0606643717977218,A,407.1329170255922,Correct,sub_011_day_17_data.csv,1,300,149.0,Training at home,,,,,,,,,,,,,
11,17,3738,A,35.89907899762706,44.932202036581415,1.7949539498813527,0.7057933791386826,A,640.834707999602,Correct,sub_011_day_17_data.csv,1,300,149.0,Training at home,,,,,,,,,,,,,
11,17,3739,A,58.646681442711326,68.9665706494475,2.9323340721355664,1.0833243584779286,A,888.7900410336442,Correct,sub_011_day_17_data.csv,1,300,149.0,Training at home,,,,,,,,,,,,,
11,17,3740,A,32.682787310436154,47.264015928650565,1.6341393655218075,0.742421426102998,A,484.85466599231586,Correct,sub_011_day_17_data.csv,1,300,149.0,Training at home,,,,,,,,,,,,,
11,17,3741,B,54.5263172190317,38.4184630404099,2.7263158609515847,0.6034758062498136,B,697.7004160289653,Correct,sub_011_day_17_data.csv,1,300,149.0,Training at home,,,,,,,,,,,,,
11,17,3742,A,60.15103702264865,69.1728363751717,3.007551851132433,1.086564372921041,B,804.7050830209628,Incorrect,sub_011_day_17_data.csv,0,300,149.0,Training at home,,,,,,,,,,,,,
11,17,3743,A,20.725867608272303,39.571452565169125,1.0362933804136154,0.6215869233530615,A,637.7008329727687,Correct,sub_011_day_17_data.csv,1,300,149.0,Training at home,,,,,,,,,,,,,
11,17,3744,A,40.04612500898693,61.99222463542327,2.0023062504493465,0.9737715874716696,A,467.4809990101494,Correct,sub_011_day_17_data.csv,1,300,149.0,Training at home,,,,,,,,,,,,,
11,17,3745,B,69.00432886168987,59.05551263070744,3.4502164430844937,0.9276418231730488,B,650.4242079681717,Correct,sub_011_day_17_data.csv,1,300,149.0,Training at home,,,,,,,,,,,,,
11,17,3746,B,38.02134321992461,27.897554772107373,1.9010671609962304,0.438213765625857,B,560.9243329963647,Correct,sub_011_day_17_data.csv,1,300,149.0,Training at home,,,,,,,,,,,,,
11,17,3747,A,32.90783978217445,60.16439585511476,1.6453919891087223,0.9450601201304836,A,650.3852079622447,Correct,sub_011_day_17_data.csv,1,300,149.0,Training at home,,,,,,,,,,,,,
11,17,3748,B,39.66139076138421,22.557163736828443,1.9830695380692105,0.3543270994072116,B,833.7015410070308,Correct,sub_011_day_17_data.csv,1,300,149.0,Training at home,,,,,,,,,,,,,
11,17,3749,B,62.397100867466634,38.157536114957786,3.119855043373332,0.5993771756891929,B,820.1445830054581,Correct,sub_011_day_17_data.csv,1,300,149.0,Training at home,,,,,,,,,,,,,
11,17,3750,A,31.53307367246204,61.717772223261065,1.5766536836231018,0.9694604990626255,A,633.0173329915851,Correct,sub_011_day_17_data.csv,1,300,150.0,Training at home,,,,,,,,,,,,,
11,17,3751,B,56.69665803466525,30.86891830062023,2.8348329017332623,0.4848878347874602,B,485.1350420503877,Correct,sub_011_day_17_data.csv,1,300,150.0,Training at home,,,,,,,,,,,,,
11,17,3752,A,37.80195111466827,70.73319487257362,1.8900975557334136,1.1110744268830623,A,1136.579249985516,Correct,sub_011_day_17_data.csv,1,300,150.0,Training at home,,,,,,,,,,,,,
11,17,3753,A,49.189626771851295,66.33406733926154,2.459481338592565,1.0419730931787734,A,627.6170000201091,Correct,sub_011_day_17_data.csv,1,300,150.0,Training at home,,,,,,,,,,,,,
11,17,3754,A,40.027082113760706,59.44030512697322,2.0013541056880353,0.933686129570174,A,595.3193749883212,Correct,sub_011_day_17_data.csv,1,300,150.0,Training at home,,,,,,,,,,,,,
11,17,3755,A,45.26671819828084,76.24984535113636,2.263335909914042,1.197729769962439,A,1408.659541979432,Correct,sub_011_day_17_data.csv,1,300,150.0,Training at home,,,,,,,,,,,,,
11,17,3756,A,34.661037619934305,65.677723182399,1.733051880996715,1.0316632632716438,A,748.7991250236519,Correct,sub_011_day_17_data.csv,1,300,150.0,Training at home,,,,,,,,,,,,,
11,17,3757,B,85.74763117811418,61.07972746947823,4.287381558905708,0.9594381155068976,B,546.8102080048993,Correct,sub_011_day_17_data.csv,1,300,150.0,Training at home,,,,,,,,,,,,,
11,17,3758,A,46.767415630769875,63.32962149875988,2.3383707815384938,0.9947793682756312,A,533.1301250262186,Correct,sub_011_day_17_data.csv,1,300,150.0,Training at home,,,,,,,,,,,,,
11,17,3759,B,81.79367301913388,65.56463661821165,4.089683650956694,1.0298869036752902,B,1806.2830829876475,Correct,sub_011_day_17_data.csv,1,300,150.0,Training at home,,,,,,,,,,,,,
11,17,3760,A,38.26908179714522,51.610171227085104,1.913454089857261,0.8106906738876094,A,598.2096249936149,Correct,sub_011_day_17_data.csv,1,300,150.0,Training at home,,,,,,,,,,,,,
11,17,3761,B,73.42826044101864,49.492999318258995,3.671413022050932,0.7774342153118355,B,553.326332999859,Correct,sub_011_day_17_data.csv,1,300,150.0,Training at home,,,,,,,,,,,,,
11,17,3762,A,57.5775432095343,80.93242124845696,2.8788771604767147,1.2712835001569345,A,814.6872909856029,Correct,sub_011_day_17_data.csv,1,300,150.0,Training at home,,,,,,,,,,,,,
11,17,3763,A,33.424165037836566,52.35163421806178,1.6712082518918283,0.8223375473144147,A,541.0682499641553,Correct,sub_011_day_17_data.csv,1,300,150.0,Training at home,,,,,,,,,,,,,
11,17,3764,A,50.10778512902767,79.02252126055976,2.5053892564513833,1.2412828613015887,A,534.7690409980714,Correct,sub_011_day_17_data.csv,1,300,150.0,Training at home,,,,,,,,,,,,,
11,17,3765,B,51.27141564998639,24.613610132312672,2.5635707824993195,0.386629683849984,B,481.3934999983758,Correct,sub_011_day_17_data.csv,1,300,150.0,Training at home,,,,,,,,,,,,,
11,17,3766,B,65.38428683946556,38.99201305427869,3.269214341973278,0.6124851087999962,B,596.6943749808706,Correct,sub_011_day_17_data.csv,1,300,150.0,Training at home,,,,,,,,,,,,,
11,17,3767,B,71.98760053186538,40.06655042090672,3.599380026593269,0.6293639022850279,B,468.51008298108354,Correct,sub_011_day_17_data.csv,1,300,150.0,Training at home,,,,,,,,,,,,,
11,17,3768,B,49.79527056970622,38.98677889437223,2.489763528485311,0.612402890808447,B,769.1993750049733,Correct,sub_011_day_17_data.csv,1,300,150.0,Training at home,,,,,,,,,,,,,
11,17,3769,A,24.820917131736977,44.903162974748994,1.2410458565868487,0.7053372346220832,A,478.5494160023518,Correct,sub_011_day_17_data.csv,1,300,150.0,Training at home,,,,,,,,,,,,,
11,17,3770,A,63.805738617417546,82.14718993391462,3.1902869308708772,1.2903650420471575,A,882.3541669989936,Correct,sub_011_day_17_data.csv,1,300,150.0,Training at home,,,,,,,,,,,,,
11,17,3771,A,53.00569535595077,66.10919706826635,2.6502847677975385,1.038440839221927,A,991.0765830427408,Correct,sub_011_day_17_data.csv,1,300,150.0,Training at home,,,,,,,,,,,,,
11,17,3772,B,77.53183405502666,62.0477232677622,3.876591702751333,0.974643357949871,B,1050.6201660027727,Correct,sub_011_day_17_data.csv,1,300,150.0,Training at home,,,,,,,,,,,,,
11,17,3773,B,49.36683792459742,40.43058439458736,2.468341896229871,0.6350821345718889,B,523.1656659743749,Correct,sub_011_day_17_data.csv,1,300,150.0,Training at home,,,,,,,,,,,,,
11,17,3774,B,82.90437123274953,56.77159252008276,4.145218561637477,0.8917660899684263,B,511.82399899698794,Correct,sub_011_day_17_data.csv,1,300,150.0,Training at home,,,,,,,,,,,,,
11,17,3775,A,17.075406071756824,44.95986284320163,0.8537703035878411,0.7062278740730348,A,1180.1918750279583,Correct,sub_011_day_17_data.csv,1,300,151.0,Training at home,,,,,,,,,,,,,
11,17,3776,A,48.44820995057067,62.40077694978182,2.4224104975285337,0.9801891122186492,A,763.9516239869408,Correct,sub_011_day_17_data.csv,1,300,151.0,Training at home,,,,,,,,,,,,,
11,17,3777,B,64.85648659243685,51.966035490657525,3.2428243296218424,0.8162805766681808,B,691.1973329843022,Correct,sub_011_day_17_data.csv,1,300,151.0,Training at home,,,,,,,,,,,,,
11,17,3778,B,69.74013434492214,39.58128229445889,3.487006717246107,0.6217413283796789,B,462.34983298927546,Correct,sub_011_day_17_data.csv,1,300,151.0,Training at home,,,,,,,,,,,,,
11,17,3779,B,41.84793778750653,32.33148882019579,2.092396889375326,0.5078618387857381,B,633.0929580144584,Correct,sub_011_day_17_data.csv,1,300,151.0,Training at home,,,,,,,,,,,,,
11,17,3780,B,76.98269709187052,61.3315060096973,3.849134854593526,0.9633930435683162,B,511.91529200877994,Correct,sub_011_day_17_data.csv,1,300,151.0,Training at home,,,,,,,,,,,,,
11,17,3781,B,46.35318320850899,37.25210029093081,2.3176591604254493,0.5851546230238921,B,622.2412080387585,Correct,sub_011_day_17_data.csv,1,300,151.0,Training at home,,,,,,,,,,,,,
11,17,3782,A,45.05472417618122,66.04172579234601,2.252736208809061,1.037381002898129,A,668.3205000008456,Correct,sub_011_day_17_data.csv,1,300,151.0,Training at home,,,,,,,,,,,,,
11,17,3783,A,13.101422629183364,40.57020758345448,0.6550711314591682,0.6372753304939676,A,656.7726249922998,Correct,sub_011_day_17_data.csv,1,300,151.0,Training at home,,,,,,,,,,,,,
11,17,3784,B,67.5691668894407,55.51088175495555,3.378458344472034,0.8719628915783001,A,808.9841240434907,Incorrect,sub_011_day_17_data.csv,0,300,151.0,Training at home,,,,,,,,,,,,,
11,17,3785,B,61.97807023807347,41.91089899004841,3.0989035119036736,0.6583348618623998,B,440.1700419839472,Correct,sub_011_day_17_data.csv,1,300,151.0,Training at home,,,,,,,,,,,,,
11,17,3786,A,37.65911163817388,61.5324077247767,1.8829555819086945,0.9665488003292516,A,721.5531670372002,Correct,sub_011_day_17_data.csv,1,300,151.0,Training at home,,,,,,,,,,,,,
11,17,3787,A,61.37529909671818,72.34662616235327,3.0687649548359093,1.136418146318281,A,577.5682079838589,Correct,sub_011_day_17_data.csv,1,300,151.0,Training at home,,,,,,,,,,,,,
11,17,3788,B,56.683362689230975,35.68904190384618,2.834168134461549,0.5606021592939071,B,609.3181240139529,Correct,sub_011_day_17_data.csv,1,300,151.0,Training at home,,,,,,,,,,,,,
11,17,3789,B,43.41148530214056,32.748429125388085,2.170574265107028,0.5144111217846261,B,629.3763749999925,Correct,sub_011_day_17_data.csv,1,300,151.0,Training at home,,,,,,,,,,,,,
11,17,3790,B,44.93362469777442,35.35961747673887,2.2466812348887206,0.5554275724933404,B,474.9429579824209,Correct,sub_011_day_17_data.csv,1,300,151.0,Training at home,,,,,,,,,,,,,
11,17,3791,A,33.11157424733812,55.04775753547555,1.655578712366906,0.8646881533502108,A,1077.5750419707038,Correct,sub_011_day_17_data.csv,1,300,151.0,Training at home,,,,,,,,,,,,,
11,17,3792,A,35.257996610213226,67.60843656507848,1.7628998305106611,1.0619908381677106,A,999.976874969434,Correct,sub_011_day_17_data.csv,1,300,151.0,Training at home,,,,,,,,,,,,,
11,17,3793,B,56.214090116166346,31.73469858555772,2.8107045058083173,0.4984874797013727,B,522.3767490242608,Correct,sub_011_day_17_data.csv,1,300,151.0,Training at home,,,,,,,,,,,,,
11,17,3794,B,33.842146745362776,14.842600542013772,1.6921073372681388,0.2331470241147917,B,587.6855000387877,Correct,sub_011_day_17_data.csv,1,300,151.0,Training at home,,,,,,,,,,,,,
11,17,3795,A,50.19457066281977,60.1253912499788,2.5097285331409886,0.9444474372257272,A,4752.221250033472,Correct,sub_011_day_17_data.csv,1,300,151.0,Training at home,,,,,,,,,,,,,
11,17,3796,B,49.96251892058041,30.6092090350788,2.4981259460290204,0.4808083311839893,B,612.9057910293341,Correct,sub_011_day_17_data.csv,1,300,151.0,Training at home,,,,,,,,,,,,,
11,17,3797,B,44.20926543662922,24.45413377159506,2.2104632718314607,0.3841246350337254,B,564.1660830006003,Correct,sub_011_day_17_data.csv,1,300,151.0,Training at home,,,,,,,,,,,,,
11,17,3798,A,43.49701981679428,71.30110774234872,2.174850990839714,1.1199951813808853,A,683.2662079832517,Correct,sub_011_day_17_data.csv,1,300,151.0,Training at home,,,,,,,,,,,,,
11,17,3799,B,36.91759675620193,13.443990404551684,1.8458798378100965,0.2111777074493562,B,482.7067499863915,Correct,sub_011_day_17_data.csv,1,300,151.0,Training at home,,,,,,,,,,,,,
11,17,3800,A,59.857288981317595,69.57330411963665,2.9928644490658796,1.092854905541095,A,481.8624579929746,Correct,sub_011_day_17_data.csv,1,300,152.0,Training at home,,,,,,,,,,,,,
11,17,3801,A,42.062652516637115,51.67043396518079,2.1031326258318557,0.8116372787640425,A,617.6322500105016,Correct,sub_011_day_17_data.csv,1,300,152.0,Training at home,,,,,,,,,,,,,
11,17,3802,A,65.28298144110803,76.51199831933653,3.264149072055402,1.2018476591575111,A,669.7191660059616,Correct,sub_011_day_17_data.csv,1,300,152.0,Training at home,,,,,,,,,,,,,
11,17,3803,B,52.60505888130152,33.44078702699604,2.6302529440650755,0.5252866542713581,B,1138.9356660074554,Correct,sub_011_day_17_data.csv,1,300,152.0,Training at home,,,,,,,,,,,,,
11,17,3804,B,72.27386773869148,51.55544034936712,3.6136933869345738,0.8098309632707927,B,630.1556669641286,Correct,sub_011_day_17_data.csv,1,300,152.0,Training at home,,,,,,,,,,,,,
11,17,3805,B,72.32342404584146,48.34357821533325,3.616171202292074,0.7593791508476724,B,519.826292002108,Correct,sub_011_day_17_data.csv,1,300,152.0,Training at home,,,,,,,,,,,,,
11,17,3806,B,46.48877892040128,26.790335444542,2.324438946020064,0.420821605098897,B,1538.0297920200974,Correct,sub_011_day_17_data.csv,1,300,152.0,Training at home,,,,,,,,,,,,,
11,17,3807,A,31.524736139754463,53.50267127108752,1.5762368069877233,0.8404179950633911,A,839.166582969483,Correct,sub_011_day_17_data.csv,1,300,152.0,Training at home,,,,,,,,,,,,,
11,17,3808,B,57.14139258839998,36.15850392916927,2.857069629419999,0.5679764515433793,B,663.5470829787664,Correct,sub_011_day_17_data.csv,1,300,152.0,Training at home,,,,,,,,,,,,,
11,17,3809,B,41.48878218323294,25.415489424963862,2.074439109161647,0.3992255743242778,B,439.39179100561887,Correct,sub_011_day_17_data.csv,1,300,152.0,Training at home,,,,,,,,,,,,,
11,17,3810,B,40.09405812837235,26.645668688078437,2.0047029064186175,0.4185491850022739,B,518.3725419919938,Correct,sub_011_day_17_data.csv,1,300,152.0,Training at home,,,,,,,,,,,,,
11,17,3811,A,54.32846924039549,70.80552080009038,2.7164234620197747,1.112210519895816,A,480.6462500127964,Correct,sub_011_day_17_data.csv,1,300,152.0,Training at home,,,,,,,,,,,,,
11,17,3812,B,86.68970506729887,68.42935194075838,4.334485253364943,1.0748857467349848,B,1140.8636670093983,Correct,sub_011_day_17_data.csv,1,300,152.0,Training at home,,,,,,,,,,,,,
11,17,3813,A,42.525667658946794,63.28042704603003,2.1262833829473395,0.994006623619164,A,503.23949998710304,Correct,sub_011_day_17_data.csv,1,300,152.0,Training at home,,,,,,,,,,,,,
11,17,3814,A,14.189517679138651,34.71037424118413,0.7094758839569326,0.5452292835972822,A,480.97954102559015,Correct,sub_011_day_17_data.csv,1,300,152.0,Training at home,,,,,,,,,,,,,
11,17,3815,B,73.71214080436933,50.38383425915661,3.685607040218466,0.7914274178412607,B,522.7908329688944,Correct,sub_011_day_17_data.csv,1,300,152.0,Training at home,,,,,,,,,,,,,
11,17,3816,B,51.0222127419993,24.75659871768878,2.5511106370999648,0.3888757432968079,B,548.6498739919625,Correct,sub_011_day_17_data.csv,1,300,152.0,Training at home,,,,,,,,,,,,,
11,17,3817,B,49.24240653986959,39.8286248129812,2.4621203269934795,0.6256265755752295,B,515.0592499994673,Correct,sub_011_day_17_data.csv,1,300,152.0,Training at home,,,,,,,,,,,,,
11,17,3818,B,73.32562239296253,42.03720521994452,3.666281119648126,0.660318875482121,B,487.1705829864368,Correct,sub_011_day_17_data.csv,1,300,152.0,Training at home,,,,,,,,,,,,,
11,17,3819,B,78.44248773959342,52.777562419249534,3.9221243869796703,0.8290280118534554,B,408.6102909641341,Correct,sub_011_day_17_data.csv,1,300,152.0,Training at home,,,,,,,,,,,,,
11,17,3820,A,65.60041296299474,76.85330218247383,3.2800206481497365,1.2072088477028808,A,602.8748329845257,Correct,sub_011_day_17_data.csv,1,300,152.0,Training at home,,,,,,,,,,,,,
11,17,3821,B,59.55893534047273,32.79893344837903,2.9779467670236364,0.5152044418350405,B,420.0720000080764,Correct,sub_011_day_17_data.csv,1,300,152.0,Training at home,,,,,,,,,,,,,
11,17,3822,B,62.75427166231385,31.941093087473725,3.1377135831156924,0.5017295169561758,B,480.7085000211373,Correct,sub_011_day_17_data.csv,1,300,152.0,Training at home,,,,,,,,,,,,,
11,17,3823,A,58.61317306526624,85.72174749392903,2.9306586532633117,1.3465140608990336,A,506.9999169791118,Correct,sub_011_day_17_data.csv,1,300,152.0,Training at home,,,,,,,,,,,,,
11,17,3824,A,12.855927367997555,36.41340792003448,0.6427963683998777,0.5719804740687435,A,513.4255420416594,Correct,sub_011_day_17_data.csv,1,300,152.0,Training at home,,,,,,,,,,,,,
11,17,3825,A,30.06586363465069,47.39125447604055,1.5032931817325346,0.7444200845316669,A,523.3720410033129,Correct,sub_011_day_17_data.csv,1,300,153.0,Training at home,,,,,,,,,,,,,
11,17,3826,B,50.322573149127344,30.07081166042984,2.5161286574563673,0.4723512049994434,B,573.3900829800405,Correct,sub_011_day_17_data.csv,1,300,153.0,Training at home,,,,,,,,,,,,,
11,17,3827,B,70.12615292692351,44.38400754787322,3.5063076463461753,0.6971823602463622,B,487.2825830243528,Correct,sub_011_day_17_data.csv,1,300,153.0,Training at home,,,,,,,,,,,,,
11,17,3828,A,12.085933090468387,30.357371148536288,0.6042966545234194,0.4768524709127016,A,473.6650410341099,Correct,sub_011_day_17_data.csv,1,300,153.0,Training at home,,,,,,,,,,,,,
11,17,3829,B,49.118589453893165,29.11336212993151,2.455929472694658,0.4573116229434606,B,524.9859999748878,Correct,sub_011_day_17_data.csv,1,300,153.0,Training at home,,,,,,,,,,,,,
11,17,3830,A,15.890199862334658,36.745366286046426,0.7945099931167329,0.5771948638885476,A,644.7123740217648,Correct,sub_011_day_17_data.csv,1,300,153.0,Training at home,,,,,,,,,,,,,
11,17,3831,A,39.59457013517961,67.66502716676337,1.9797285067589805,1.0628797612602878,A,711.9820829830132,Correct,sub_011_day_17_data.csv,1,300,153.0,Training at home,,,,,,,,,,,,,
11,17,3832,B,41.01476238644438,23.134388110310304,2.050738119322219,0.3633941186632295,B,1352.6364999706857,Correct,sub_011_day_17_data.csv,1,300,153.0,Training at home,,,,,,,,,,,,,
11,17,3833,B,66.90844580670064,52.88930464237987,3.3454222903350317,0.8307832545898658,B,695.3749170061201,Correct,sub_011_day_17_data.csv,1,300,153.0,Training at home,,,,,,,,,,,,,
11,17,3834,A,51.19783828757837,71.22875264652279,2.559891914378918,1.1188586301934027,A,521.1784580023959,Correct,sub_011_day_17_data.csv,1,300,153.0,Training at home,,,,,,,,,,,,,
11,17,3835,B,82.32234809692932,65.83953381709962,4.116117404846466,1.0342049787778844,B,645.7822079537436,Correct,sub_011_day_17_data.csv,1,300,153.0,Training at home,,,,,,,,,,,,,
11,17,3836,B,40.37394428324866,28.822323603690215,2.018697214162433,0.4527400004637044,B,467.75099996011704,Correct,sub_011_day_17_data.csv,1,300,153.0,Training at home,,,,,,,,,,,,,
11,17,3837,A,40.41816772360237,69.38759776774445,2.020908386180119,1.0899378369869477,A,723.4197490033694,Correct,sub_011_day_17_data.csv,1,300,153.0,Training at home,,,,,,,,,,,,,
11,17,3838,B,66.69270679792211,34.23980149648439,3.334635339896106,0.5378375442086407,B,414.4594579702243,Correct,sub_011_day_17_data.csv,1,300,153.0,Training at home,,,,,,,,,,,,,
11,17,3839,A,68.25262403257304,82.55063348954367,3.412631201628652,1.2967023185996698,A,474.8427079757675,Correct,sub_011_day_17_data.csv,1,300,153.0,Training at home,,,,,,,,,,,,,
11,17,3840,A,25.62832575560021,41.52272798277765,1.2814162877800104,0.652237485938508,A,748.1745830154978,Correct,sub_011_day_17_data.csv,1,300,153.0,Training at home,,,,,,,,,,,,,
11,17,3841,B,78.24813591694745,49.02724002753217,3.912406795847372,0.7701180854813926,B,517.142667027656,Correct,sub_011_day_17_data.csv,1,300,153.0,Training at home,,,,,,,,,,,,,
11,17,3842,A,51.632909946521295,59.97345853434447,2.5816454973260647,0.9420608837093436,A,535.4507910087705,Correct,sub_011_day_17_data.csv,1,300,153.0,Training at home,,,,,,,,,,,,,
11,17,3843,B,44.11713992830451,33.395957620792295,2.2058569964152257,0.5245824756053857,B,810.4477500310168,Correct,sub_011_day_17_data.csv,1,300,153.0,Training at home,,,,,,,,,,,,,
11,17,3844,B,41.60222158619361,25.16345500098366,2.08011107930968,0.395266626850138,B,2102.963916026056,Correct,sub_011_day_17_data.csv,1,300,153.0,Training at home,,,,,,,,,,,,,
11,17,3845,A,36.30699965838471,55.65408026698938,1.8153499829192357,0.8742122485453526,A,578.6220420268364,Correct,sub_011_day_17_data.csv,1,300,153.0,Training at home,,,,,,,,,,,,,
11,17,3846,A,63.4553527361833,80.25093802860319,3.172767636809165,1.2605787867717475,A,756.5510830027051,Correct,sub_011_day_17_data.csv,1,300,153.0,Training at home,,,,,,,,,,,,,
11,17,3847,A,47.82103974665256,69.16353651324673,2.391051987332628,1.0864182910315268,A,816.163957992103,Correct,sub_011_day_17_data.csv,1,300,153.0,Training at home,,,,,,,,,,,,,
11,17,3848,A,51.55066498504017,58.71105884483915,2.577533249252008,0.9222311557571238,A,457.0047079469078,Correct,sub_011_day_17_data.csv,1,300,153.0,Training at home,,,,,,,,,,,,,
11,17,3849,A,33.01053901738846,53.67806233220861,1.650526950869423,0.8431730314090078,A,780.078083043918,Correct,sub_011_day_17_data.csv,1,300,153.0,Training at home,,,,,,,,,,,,,
11,17,3850,A,28.364984539585706,39.441934110926965,1.4182492269792852,0.6195524522313041,B,853.5941239679232,Incorrect,sub_011_day_17_data.csv,0,300,154.0,Training at home,,,,,,,,,,,,,
11,17,3851,B,38.95207611895849,14.54045000752916,1.947603805947924,0.2284008546177163,B,610.1888329721987,Correct,sub_011_day_17_data.csv,1,300,154.0,Training at home,,,,,,,,,,,,,
11,17,3852,B,37.145238927680765,13.74453672420438,1.8572619463840383,0.215898677998778,B,471.3219159748405,Correct,sub_011_day_17_data.csv,1,300,154.0,Training at home,,,,,,,,,,,,,
11,17,3853,A,28.140731268677165,40.59043382638008,1.4070365634338584,0.6375930435748914,A,697.8907500160858,Correct,sub_011_day_17_data.csv,1,300,154.0,Training at home,,,,,,,,,,,,,
11,17,3854,A,30.642168906129346,60.82537586632614,1.532108445306467,0.9554427698674404,A,493.4661660226993,Correct,sub_011_day_17_data.csv,1,300,154.0,Training at home,,,,,,,,,,,,,
11,17,3855,A,54.80538306539944,78.01939722586032,2.740269153269972,1.225525825811333,A,583.6753739858977,Correct,sub_011_day_17_data.csv,1,300,154.0,Training at home,,,,,,,,,,,,,
11,17,3856,A,31.56058864043522,59.03224137993514,1.578029432021761,0.927276279220718,A,668.1172489770688,Correct,sub_011_day_17_data.csv,1,300,154.0,Training at home,,,,,,,,,,,,,
11,17,3857,A,56.00995900029321,77.52293318486262,2.8004979500146603,1.217727386891484,A,729.0022909874097,Correct,sub_011_day_17_data.csv,1,300,154.0,Training at home,,,,,,,,,,,,,
11,17,3858,A,23.21223138920894,49.78111857103737,1.160611569460447,0.781959981951267,A,503.919999988284,Correct,sub_011_day_17_data.csv,1,300,154.0,Training at home,,,,,,,,,,,,,
11,17,3859,B,52.09633580951454,25.10943516778498,2.604816790475727,0.3944180852945124,B,541.7587499832734,Correct,sub_011_day_17_data.csv,1,300,154.0,Training at home,,,,,,,,,,,,,
11,17,3860,B,57.20681783369768,30.109900649710703,2.8603408916848845,0.4729652134072485,B,612.9375000018626,Correct,sub_011_day_17_data.csv,1,300,154.0,Training at home,,,,,,,,,,,,,
11,17,3861,A,31.02958754851197,47.30584795056751,1.5514793774255986,0.7430785219666932,A,515.6246250262484,Correct,sub_011_day_17_data.csv,1,300,154.0,Training at home,,,,,,,,,,,,,
11,17,3862,B,36.913829882390466,26.1980038789672,1.8456914941195235,0.4115172826244013,B,1800.603624957148,Correct,sub_011_day_17_data.csv,1,300,154.0,Training at home,,,,,,,,,,,,,
11,17,3863,B,67.70818354931124,51.71173466379739,3.385409177465562,0.8122860286208525,B,653.0617499956861,Correct,sub_011_day_17_data.csv,1,300,154.0,Training at home,,,,,,,,,,,,,
11,17,3864,A,55.02324277383086,81.6511549093029,2.751162138691543,1.2825733421009409,A,601.7640830250457,Correct,sub_011_day_17_data.csv,1,300,154.0,Training at home,,,,,,,,,,,,,
11,17,3865,A,26.43649692831563,36.2445875392424,1.3218248464157818,0.5693286497283804,A,632.6253739534877,Correct,sub_011_day_17_data.csv,1,300,154.0,Training at home,,,,,,,,,,,,,
11,17,3866,A,27.092822071433883,37.99270205054781,1.354641103571694,0.5967879682601344,A,470.0486250221729,Correct,sub_011_day_17_data.csv,1,300,154.0,Training at home,,,,,,,,,,,,,
11,17,3867,A,65.42304697060226,80.17958056841351,3.271152348530113,1.259457906408194,A,1330.2865410223603,Correct,sub_011_day_17_data.csv,1,300,154.0,Training at home,,,,,,,,,,,,,
11,17,3868,A,28.230398880263227,40.76324819568251,1.4115199440131614,0.6403076053400678,A,615.1279999758117,Correct,sub_011_day_17_data.csv,1,300,154.0,Training at home,,,,,,,,,,,,,
11,17,3869,B,59.0006087458273,48.40134077915393,2.950030437291365,0.7602864830784302,B,1354.8532499698922,Correct,sub_011_day_17_data.csv,1,300,154.0,Training at home,,,,,,,,,,,,,
11,17,3870,A,36.66808208939611,56.341506270801915,1.8334041044698055,0.8850103109626727,A,996.2429580045864,Correct,sub_011_day_17_data.csv,1,300,154.0,Training at home,,,,,,,,,,,,,
11,17,3871,B,63.367055890125606,41.811854897660325,3.1683527945062804,0.6567790808972604,B,696.991250035353,Correct,sub_011_day_17_data.csv,1,300,154.0,Training at home,,,,,,,,,,,,,
11,17,3872,B,66.46082996723557,49.0008294468021,3.3230414983617784,0.7697032290493995,B,517.7194579737261,Correct,sub_011_day_17_data.csv,1,300,154.0,Training at home,,,,,,,,,,,,,
11,17,3873,A,43.19023757554259,62.80301620264926,2.1595118787771295,0.9865074716276184,A,1510.636417020578,Correct,sub_011_day_17_data.csv,1,300,154.0,Training at home,,,,,,,,,,,,,
11,17,3874,A,62.093194615582775,74.0932025780134,3.104659730779139,1.1638533045001362,A,644.0123739885166,Correct,sub_011_day_17_data.csv,1,300,154.0,Training at home,,,,,,,,,,,,,
11,17,3875,B,60.22985011316508,27.69438704001903,3.011492505658254,0.4350224143529808,B,619.487082993146,Correct,sub_011_day_17_data.csv,1,300,155.0,Training at home,,,,,,,,,,,,,
11,17,3876,B,66.24515089182307,51.45563081170593,3.3122575445911537,0.8082631587194197,B,873.3209170168266,Correct,sub_011_day_17_data.csv,1,300,155.0,Training at home,,,,,,,,,,,,,
11,17,3877,A,56.339561231273585,69.57494333527373,2.8169780615636792,1.0928806542801104,A,601.8579580122605,Correct,sub_011_day_17_data.csv,1,300,155.0,Training at home,,,,,,,,,,,,,
11,17,3878,B,49.45165484790936,22.830111649161093,2.4725827423954683,0.3586145551881962,B,500.2864580019377,Correct,sub_011_day_17_data.csv,1,300,155.0,Training at home,,,,,,,,,,,,,
11,17,3879,A,32.19160463553578,40.61281936727723,1.609580231776789,0.6379446748290372,B,571.7363750445656,Incorrect,sub_011_day_17_data.csv,0,300,155.0,Training at home,,,,,,,,,,,,,
11,17,3880,B,35.90254246897949,10.543884985592022,1.7951271234489747,0.1656229580551581,B,743.6619579675607,Correct,sub_011_day_17_data.csv,1,300,155.0,Training at home,,,,,,,,,,,,,
11,17,3881,A,24.214440462509444,39.111028146609414,1.2107220231254725,0.6143545934986587,A,702.0238330005668,Correct,sub_011_day_17_data.csv,1,300,155.0,Training at home,,,,,,,,,,,,,
11,17,3882,B,56.022062697810014,32.84895203399893,2.801103134890501,0.5159901319406726,B,474.4257910060696,Correct,sub_011_day_17_data.csv,1,300,155.0,Training at home,,,,,,,,,,,,,
11,17,3883,B,61.596699071936825,32.540436384618296,3.0798349535968415,0.5111439794526142,B,472.2364579793066,Correct,sub_011_day_17_data.csv,1,300,155.0,Training at home,,,,,,,,,,,,,
11,17,3884,B,60.10601577672098,38.703431526463454,3.005300788836049,0.6079520807612658,B,456.6611659829505,Correct,sub_011_day_17_data.csv,1,300,155.0,Training at home,,,,,,,,,,,,,
11,17,3885,A,32.67785713100324,42.49909441752125,1.633892856550162,0.6675742140315187,A,1250.928165973164,Correct,sub_011_day_17_data.csv,1,300,155.0,Training at home,,,,,,,,,,,,,
11,17,3886,A,51.86270911564722,77.4891209612598,2.593135455782362,1.2171962657251234,A,726.9561659777537,Correct,sub_011_day_17_data.csv,1,300,155.0,Training at home,,,,,,,,,,,,,
11,17,3887,A,51.58254887380252,61.7175607761246,2.579127443690126,0.969457177658773,A,1016.657333006151,Correct,sub_011_day_17_data.csv,1,300,155.0,Training at home,,,,,,,,,,,,,
11,17,3888,B,66.42070403211505,36.117450290695714,3.3210352016057527,0.567331582498221,B,459.4902920071035,Correct,sub_011_day_17_data.csv,1,300,155.0,Training at home,,,,,,,,,,,,,
11,17,3889,B,52.89406258610781,43.07356831998635,2.64470312930539,0.6765980289898359,B,416.5698329452425,Correct,sub_011_day_17_data.csv,1,300,155.0,Training at home,,,,,,,,,,,,,
11,17,3890,B,33.658824707440104,19.06654081033749,1.682941235372005,0.2994965226956311,B,477.1755000110715,Correct,sub_011_day_17_data.csv,1,300,155.0,Training at home,,,,,,,,,,,,,
11,17,3891,A,26.927152693078405,46.26294343470187,1.34635763465392,0.7266966161394978,A,586.2518330104649,Correct,sub_011_day_17_data.csv,1,300,155.0,Training at home,,,,,,,,,,,,,
11,17,3892,A,21.953052986413976,41.95964974044402,1.0976526493206988,0.6591006368588991,A,595.5710000125691,Correct,sub_011_day_17_data.csv,1,300,155.0,Training at home,,,,,,,,,,,,,
11,17,3893,B,34.53614845834504,21.858755584558057,1.726807422917252,0.3433565298053122,B,592.144374968484,Correct,sub_011_day_17_data.csv,1,300,155.0,Training at home,,,,,,,,,,,,,
11,17,3894,A,12.19371419261605,31.074658711257793,0.6096857096308025,0.4881195976004877,A,498.6678329878486,Correct,sub_011_day_17_data.csv,1,300,155.0,Training at home,,,,,,,,,,,,,
11,17,3895,A,69.02951592283817,89.40939945597634,3.4514757961419087,1.4044395624638526,A,881.9454160402529,Correct,sub_011_day_17_data.csv,1,300,155.0,Training at home,,,,,,,,,,,,,
11,17,3896,A,38.71525843896592,51.945346241622,1.935762921948296,0.8159555907042891,A,695.4735000035726,Correct,sub_011_day_17_data.csv,1,300,155.0,Training at home,,,,,,,,,,,,,
11,17,3897,B,51.78771633925407,37.809700749455075,2.5893858169627033,0.5939133905445828,B,887.3569580027834,Correct,sub_011_day_17_data.csv,1,300,155.0,Training at home,,,,,,,,,,,,,
11,17,3898,A,32.951679547788316,50.9330777266992,1.647583977389416,0.8000549140545806,A,441.3096659700386,Correct,sub_011_day_17_data.csv,1,300,155.0,Training at home,,,,,,,,,,,,,
11,17,3899,B,80.02939608768094,62.958301517199246,4.001469804384047,0.9889466876446212,B,673.3077499666251,Correct,sub_011_day_17_data.csv,1,300,155.0,Training at home,,,,,,,,,,,,,
