subject,day,trial,cat,x,y,xt,yt,resp,rt,fb,f_name,acc,n_trials,block,session_type,ns_left_digit,ns_right_digit,ns_left_size,ns_right_size,ns_congruent,ns_cue,ns_correct_side,ns_resp,ns_rt,ns_fb,acc_stroop,acc_stroop_mean,resp_key
11,5,900,A,61.87330880142672,78.9886611626429,3.093665440071336,1.2407509881272616,A,1187.8656659973783,Correct,sub_011_day_06_data.csv,1,300,36.0,Training at home,,,,,,,,,,,,,
11,5,901,B,39.41026477783327,15.71910806029231,1.9705132388916635,0.2469151720159921,B,537.78820799198,Correct,sub_011_day_06_data.csv,1,300,36.0,Training at home,,,,,,,,,,,,,
11,5,902,A,63.683474579125146,79.63732152970643,3.184173728956257,1.2509401213464697,A,2220.0799160054885,Correct,sub_011_day_06_data.csv,1,300,36.0,Training at home,,,,,,,,,,,,,
11,5,903,B,39.25878279310941,17.873194405565968,1.96293913965547,0.2807514812035411,B,745.4066659556702,Correct,sub_011_day_06_data.csv,1,300,36.0,Training at home,,,,,,,,,,,,,
11,5,904,A,32.85819781326575,51.17950405552149,1.6429098906632873,0.8039257697759767,B,1489.401832979638,Incorrect,sub_011_day_06_data.csv,0,300,36.0,Training at home,,,,,,,,,,,,,
11,5,905,B,50.18449332372084,32.010991436329405,2.5092246661860416,0.5028274776524913,B,812.4908750178292,Correct,sub_011_day_06_data.csv,1,300,36.0,Training at home,,,,,,,,,,,,,
11,5,906,B,32.72269324601571,17.429531955370106,1.6361346623007853,0.2737824477324962,B,1130.4496660013683,Correct,sub_011_day_06_data.csv,1,300,36.0,Training at home,,,,,,,,,,,,,
11,5,907,B,73.08504800702448,62.75273197829375,3.654252400351224,0.9857176088784846,B,1854.6338329906575,Correct,sub_011_day_06_data.csv,1,300,36.0,Training at home,,,,,,,,,,,,,
11,5,908,B,66.85479785808029,49.78379821465539,3.342739892904014,0.78200207369479,B,622.2950000083074,Correct,sub_011_day_06_data.csv,1,300,36.0,Training at home,,,,,,,,,,,,,
11,5,909,B,52.74950463305787,29.910960449798157,2.6374752316528935,0.4698402680545037,B,523.2668739627115,Correct,sub_011_day_06_data.csv,1,300,36.0,Training at home,,,,,,,,,,,,,
11,5,910,B,42.17787537644267,29.53447088184744,2.1088937688221336,0.4639263837503679,B,512.8758740029298,Correct,sub_011_day_06_data.csv,1,300,36.0,Training at home,,,,,,,,,,,,,
11,5,911,B,43.869749604009,25.811295900798346,2.1934874802004503,0.405442887907902,B,682.6585829840042,Correct,sub_011_day_06_data.csv,1,300,36.0,Training at home,,,,,,,,,,,,,
11,5,912,A,26.04635355445224,36.34614218019226,1.302317677722612,0.5709238662981105,B,2311.2435819930397,Incorrect,sub_011_day_06_data.csv,0,300,36.0,Training at home,,,,,,,,,,,,,
11,5,913,B,81.04483934635351,61.85041655770199,4.052241967317675,0.9715440713957252,B,600.0447499682195,Correct,sub_011_day_06_data.csv,1,300,36.0,Training at home,,,,,,,,,,,,,
11,5,914,A,49.75607996250759,79.84937793954232,2.4878039981253797,1.2542710956429053,A,813.2273739902303,Correct,sub_011_day_06_data.csv,1,300,36.0,Training at home,,,,,,,,,,,,,
11,5,915,B,71.12125229877432,38.41060590571808,3.556062614938716,0.6033523866666832,B,733.9035820332356,Correct,sub_011_day_06_data.csv,1,300,36.0,Training at home,,,,,,,,,,,,,
11,5,916,B,43.38995298777129,14.95973971463889,2.1694976493885645,0.234987041935625,B,674.2838329519145,Correct,sub_011_day_06_data.csv,1,300,36.0,Training at home,,,,,,,,,,,,,
11,5,917,B,55.61731453610089,26.46441256283245,2.7808657268050445,0.4157020204448193,B,670.1149989967234,Correct,sub_011_day_06_data.csv,1,300,36.0,Training at home,,,,,,,,,,,,,
11,5,918,A,34.1855709780559,60.682980280165495,1.7092785489027948,0.9532060252305108,A,1030.7078330079094,Correct,sub_011_day_06_data.csv,1,300,36.0,Training at home,,,,,,,,,,,,,
11,5,919,A,62.52464608246216,74.5469868406332,3.1262323041231084,1.1709813310289412,B,5621.662874007598,Incorrect,sub_011_day_06_data.csv,0,300,36.0,Training at home,,,,,,,,,,,,,
11,5,920,A,50.5114835689182,78.4005936432742,2.5255741784459103,1.2315136451339443,A,772.0932910451666,Correct,sub_011_day_06_data.csv,1,300,36.0,Training at home,,,,,,,,,,,,,
11,5,921,B,45.003937216129216,28.266758354506905,2.2501968608064606,0.444013201936584,B,624.0792910102755,Correct,sub_011_day_06_data.csv,1,300,36.0,Training at home,,,,,,,,,,,,,
11,5,922,B,57.39563367500838,45.20287684632869,2.8697816837504195,0.7100451291077519,B,1260.9491240000352,Correct,sub_011_day_06_data.csv,1,300,36.0,Training at home,,,,,,,,,,,,,
11,5,923,A,40.129610128536726,48.94709528673972,2.0064805064268363,0.7688591748369054,A,981.577540980652,Correct,sub_011_day_06_data.csv,1,300,36.0,Training at home,,,,,,,,,,,,,
11,5,924,A,19.147493963529534,43.588252112980854,0.9573746981764768,0.6846826631048022,A,750.5256660515442,Correct,sub_011_day_06_data.csv,1,300,36.0,Training at home,,,,,,,,,,,,,
11,5,925,A,57.49617353404011,80.10327650923671,2.874808676702006,1.2582593250494494,A,857.0359160075895,Correct,sub_011_day_06_data.csv,1,300,37.0,Training at home,,,,,,,,,,,,,
11,5,926,A,53.69991346110841,72.16811034682782,2.68499567305542,1.133614026445259,A,737.5059580081142,Correct,sub_011_day_06_data.csv,1,300,37.0,Training at home,,,,,,,,,,,,,
11,5,927,A,64.27451447446451,74.24388745640154,3.2137257237232255,1.1662202570348923,A,1318.519081978593,Correct,sub_011_day_06_data.csv,1,300,37.0,Training at home,,,,,,,,,,,,,
11,5,928,B,63.2400998257313,48.5939987081051,3.162004991286565,0.7633127467496744,B,1519.0837070113048,Correct,sub_011_day_06_data.csv,1,300,37.0,Training at home,,,,,,,,,,,,,
11,5,929,B,59.46673684096229,42.391054283570504,2.9733368420481145,0.6658771235759562,B,1332.689916016534,Correct,sub_011_day_06_data.csv,1,300,37.0,Training at home,,,,,,,,,,,,,
11,5,930,B,31.220461784742795,16.587902617215097,1.5610230892371395,0.2605621650035292,B,490.9215410007164,Correct,sub_011_day_06_data.csv,1,300,37.0,Training at home,,,,,,,,,,,,,
11,5,931,B,74.06465423696854,41.174159504881885,3.7032327118484263,0.6467621850913564,B,572.4743740283884,Correct,sub_011_day_06_data.csv,1,300,37.0,Training at home,,,,,,,,,,,,,
11,5,932,A,53.00424860392914,77.63158829172448,2.650212430196457,1.219434137318945,A,601.4062910107896,Correct,sub_011_day_06_data.csv,1,300,37.0,Training at home,,,,,,,,,,,,,
11,5,933,A,20.11964235982941,45.79238783438892,1.0059821179914703,0.7193051460542541,A,648.1422079959884,Correct,sub_011_day_06_data.csv,1,300,37.0,Training at home,,,,,,,,,,,,,
11,5,934,B,70.06651859926502,45.05397861383552,3.503325929963251,0.7077062411410866,B,1369.7482910356484,Correct,sub_011_day_06_data.csv,1,300,37.0,Training at home,,,,,,,,,,,,,
11,5,935,B,31.68623287855754,15.674463837405964,1.584311643927877,0.2462139022027673,B,1259.8268329747953,Correct,sub_011_day_06_data.csv,1,300,37.0,Training at home,,,,,,,,,,,,,
11,5,936,B,44.20387436709322,32.74267389155078,2.210193718354661,0.5143207187829113,B,1387.2058739652855,Correct,sub_011_day_06_data.csv,1,300,37.0,Training at home,,,,,,,,,,,,,
11,5,937,A,38.7311961382002,58.22916934994654,1.9365598069100096,0.91466165327214,A,1728.9464159985073,Correct,sub_011_day_06_data.csv,1,300,37.0,Training at home,,,,,,,,,,,,,
11,5,938,B,35.75714000869319,11.148559581498937,1.7878570004346597,0.1751211643967258,B,1003.2666660263204,Correct,sub_011_day_06_data.csv,1,300,37.0,Training at home,,,,,,,,,,,,,
11,5,939,B,38.95545170229404,19.581551898536,1.9477725851147023,0.3075862979516398,B,517.6610819762573,Correct,sub_011_day_06_data.csv,1,300,37.0,Training at home,,,,,,,,,,,,,
11,5,940,B,67.08081040992582,52.46827751928021,3.3540405204962904,0.824169776005406,B,1064.0652499860153,Correct,sub_011_day_06_data.csv,1,300,37.0,Training at home,,,,,,,,,,,,,
11,5,941,A,28.81887458978526,44.33448400811673,1.4409437294892629,0.6964044463029684,A,1099.859623995144,Correct,sub_011_day_06_data.csv,1,300,37.0,Training at home,,,,,,,,,,,,,
11,5,942,B,62.39481377290467,46.477030586624345,3.1197406886452335,0.7300594892580359,B,612.6559159602039,Correct,sub_011_day_06_data.csv,1,300,37.0,Training at home,,,,,,,,,,,,,
11,5,943,A,19.377398680815585,37.82252605060477,0.9688699340407791,0.5941148499039426,A,582.7533740084618,Correct,sub_011_day_06_data.csv,1,300,37.0,Training at home,,,,,,,,,,,,,
11,5,944,B,54.94682747459821,45.394188796768944,2.74734137372991,0.713050250197987,B,4461.946707975585,Correct,sub_011_day_06_data.csv,1,300,37.0,Training at home,,,,,,,,,,,,,
11,5,945,B,78.17503619573343,57.72204224313538,3.908751809786671,0.9066957193061688,B,1591.9324990245514,Correct,sub_011_day_06_data.csv,1,300,37.0,Training at home,,,,,,,,,,,,,
11,5,946,B,82.6641765016606,53.78875813261077,4.13320882508303,0.8449118369756413,B,786.6638739942573,Correct,sub_011_day_06_data.csv,1,300,37.0,Training at home,,,,,,,,,,,,,
11,5,947,A,15.081273801385349,33.434316467555796,0.7540636900692674,0.5251850149613476,A,751.8187079695053,Correct,sub_011_day_06_data.csv,1,300,37.0,Training at home,,,,,,,,,,,,,
11,5,948,B,58.15053042758068,30.97806578350081,2.907526521379034,0.4866023194393374,B,704.1523740044795,Correct,sub_011_day_06_data.csv,1,300,37.0,Training at home,,,,,,,,,,,,,
11,5,949,A,51.716563358050266,64.52915947866528,2.5858281679025135,1.0136216668024949,A,1237.1778750093654,Correct,sub_011_day_06_data.csv,1,300,37.0,Training at home,,,,,,,,,,,,,
11,5,950,B,48.31036237150599,30.657902464984005,2.4155181185752994,0.4815732057923307,B,1272.6285409880802,Correct,sub_011_day_06_data.csv,1,300,38.0,Training at home,,,,,,,,,,,,,
11,5,951,B,68.99196050559304,40.87929057501941,3.449598025279652,0.642130394772217,B,1003.0299989739432,Correct,sub_011_day_06_data.csv,1,300,38.0,Training at home,,,,,,,,,,,,,
11,5,952,B,66.44545309426873,46.12056947404527,3.322272654713436,0.7244602111951914,B,1198.6032910062931,Correct,sub_011_day_06_data.csv,1,300,38.0,Training at home,,,,,,,,,,,,,
11,5,953,A,14.481558071265148,32.45186595945843,0.7240779035632573,0.5097527184675764,A,978.5344570409508,Correct,sub_011_day_06_data.csv,1,300,38.0,Training at home,,,,,,,,,,,,,
11,5,954,A,30.607321422921014,49.44256200390283,1.530366071146051,0.7766419478305948,A,927.2277069976552,Correct,sub_011_day_06_data.csv,1,300,38.0,Training at home,,,,,,,,,,,,,
11,5,955,B,51.610567470048146,35.6924172417631,2.5805283735024074,0.5606551789779232,B,842.0000820187852,Correct,sub_011_day_06_data.csv,1,300,38.0,Training at home,,,,,,,,,,,,,
11,5,956,A,45.38645837438594,62.89534204233551,2.269322918719297,0.9879577225260924,A,2173.317124019377,Correct,sub_011_day_06_data.csv,1,300,38.0,Training at home,,,,,,,,,,,,,
11,5,957,A,28.015667020768525,52.47954801278905,1.4007833510384262,0.8243468125034545,A,1489.89604099188,Correct,sub_011_day_06_data.csv,1,300,38.0,Training at home,,,,,,,,,,,,,
11,5,958,B,50.74090131381585,24.526480733069945,2.5370450656907924,0.3852610584471206,B,817.6469570025802,Correct,sub_011_day_06_data.csv,1,300,38.0,Training at home,,,,,,,,,,,,,
11,5,959,B,60.47247691451274,45.535205423544305,3.0236238457256372,0.7152653341915445,B,1616.9331659912132,Correct,sub_011_day_06_data.csv,1,300,38.0,Training at home,,,,,,,,,,,,,
11,5,960,A,59.93805323794689,85.4434763277184,2.996902661897344,1.3421429876416675,A,641.8816240038723,Correct,sub_011_day_06_data.csv,1,300,38.0,Training at home,,,,,,,,,,,,,
11,5,961,A,63.7224999657267,76.39993049147381,3.186124998286335,1.2000873018339249,A,646.0116659873165,Correct,sub_011_day_06_data.csv,1,300,38.0,Training at home,,,,,,,,,,,,,
11,5,962,A,42.518753039963016,75.28731857230898,2.125937651998151,1.1826104346762014,A,1093.2854569982735,Correct,sub_011_day_06_data.csv,1,300,38.0,Training at home,,,,,,,,,,,,,
11,5,963,A,29.075644890003897,47.05125046702006,1.4537822445001949,0.7390793140470179,A,1463.2446239702404,Correct,sub_011_day_06_data.csv,1,300,38.0,Training at home,,,,,,,,,,,,,
11,5,964,A,34.84293950737033,56.699586833038346,1.7421469753685164,0.890635027281249,A,784.9596660234965,Correct,sub_011_day_06_data.csv,1,300,38.0,Training at home,,,,,,,,,,,,,
11,5,965,A,62.80654984252717,78.94462534636196,3.1403274921263584,1.240059275142647,A,731.4347489736974,Correct,sub_011_day_06_data.csv,1,300,38.0,Training at home,,,,,,,,,,,,,
11,5,966,B,86.81456437905638,69.34503276421007,4.340728218952819,1.0892692274749292,B,608.9675830444321,Correct,sub_011_day_06_data.csv,1,300,38.0,Training at home,,,,,,,,,,,,,
11,5,967,A,28.85445739656807,57.93955800857973,1.4427228698284034,0.9101124489599688,A,709.3665410066023,Correct,sub_011_day_06_data.csv,1,300,38.0,Training at home,,,,,,,,,,,,,
11,5,968,A,13.572644163443748,30.8592356848165,0.6786322081721875,0.4847357406140775,A,690.3580829966813,Correct,sub_011_day_06_data.csv,1,300,38.0,Training at home,,,,,,,,,,,,,
11,5,969,B,78.89023038777424,60.15939591238573,3.944511519388712,0.9449815812137542,B,756.4408740145154,Correct,sub_011_day_06_data.csv,1,300,38.0,Training at home,,,,,,,,,,,,,
11,5,970,B,67.70125475701522,39.96757363301191,3.3850627378507614,0.6278091785363966,B,565.5244989902712,Correct,sub_011_day_06_data.csv,1,300,38.0,Training at home,,,,,,,,,,,,,
11,5,971,A,31.345145113303456,59.442497938827174,1.5672572556651727,0.9337205741782294,A,1052.28345800424,Correct,sub_011_day_06_data.csv,1,300,38.0,Training at home,,,,,,,,,,,,,
11,5,972,A,33.57080526743424,44.3359882441197,1.678540263371712,0.6964280747868494,A,904.4966240180656,Correct,sub_011_day_06_data.csv,1,300,38.0,Training at home,,,,,,,,,,,,,
11,5,973,B,67.68578470091444,43.56135362782027,3.384289235045722,0.6842601426879361,B,675.4216240369715,Correct,sub_011_day_06_data.csv,1,300,38.0,Training at home,,,,,,,,,,,,,
11,5,974,B,87.33717987198727,68.57910812211787,4.366858993599363,1.0772381113309282,B,943.3979580062442,Correct,sub_011_day_06_data.csv,1,300,38.0,Training at home,,,,,,,,,,,,,
11,5,975,B,66.97619528933588,52.169662604452085,3.3488097644667936,0.8194791438920241,B,516.3682909915224,Correct,sub_011_day_06_data.csv,1,300,39.0,Training at home,,,,,,,,,,,,,
11,5,976,A,48.125508204019994,69.53948850549774,2.4062754102009993,1.092323731116318,A,743.2129160151817,Correct,sub_011_day_06_data.csv,1,300,39.0,Training at home,,,,,,,,,,,,,
11,5,977,B,81.40132878191943,52.03711960806205,4.070066439095972,0.8173971633733056,B,881.016623985488,Correct,sub_011_day_06_data.csv,1,300,39.0,Training at home,,,,,,,,,,,,,
11,5,978,A,22.54884161499036,39.65604695675019,1.1274420807495182,0.6229157289486913,A,3151.1472500278614,Correct,sub_011_day_06_data.csv,1,300,39.0,Training at home,,,,,,,,,,,,,
11,5,979,B,74.45216942932967,55.88748637885928,3.722608471466484,0.8778785831771196,B,556.8130820174702,Correct,sub_011_day_06_data.csv,1,300,39.0,Training at home,,,,,,,,,,,,,
11,5,980,A,16.240068679513524,34.91035439181863,0.8120034339756762,0.5483705644577679,A,1667.7407909883186,Correct,sub_011_day_06_data.csv,1,300,39.0,Training at home,,,,,,,,,,,,,
11,5,981,A,25.89568788747972,56.89468761126807,1.294784394373986,0.89369966313923,A,668.42170804739,Correct,sub_011_day_06_data.csv,1,300,39.0,Training at home,,,,,,,,,,,,,
11,5,982,B,82.25210820707534,57.715449484709545,4.112605410353767,0.9065921604989816,B,1639.217956981156,Correct,sub_011_day_06_data.csv,1,300,39.0,Training at home,,,,,,,,,,,,,
11,5,983,A,32.396964163764096,41.250342858918984,1.6198482081882049,0.6479588704182002,A,1547.9135410278104,Correct,sub_011_day_06_data.csv,1,300,39.0,Training at home,,,,,,,,,,,,,
11,5,984,A,49.31431284057814,59.35720606166497,2.465715642028907,0.9323808125047108,A,2051.954707945697,Correct,sub_011_day_06_data.csv,1,300,39.0,Training at home,,,,,,,,,,,,,
11,5,985,A,44.44209673072165,73.72824642432471,2.222104836536082,1.1581205866435822,A,1484.4384160242043,Correct,sub_011_day_06_data.csv,1,300,39.0,Training at home,,,,,,,,,,,,,
11,5,986,A,23.212392593962154,41.66532053404472,1.1606196296981075,0.6544773244960942,A,810.5592490173876,Correct,sub_011_day_06_data.csv,1,300,39.0,Training at home,,,,,,,,,,,,,
11,5,987,A,39.56092216166396,62.82146929073401,1.978046108083198,0.9867973320574338,A,1417.6695410278626,Correct,sub_011_day_06_data.csv,1,300,39.0,Training at home,,,,,,,,,,,,,
11,5,988,A,19.391076990531925,43.080183135345706,0.9695538495265964,0.6767019342665248,A,890.2243330376223,Correct,sub_011_day_06_data.csv,1,300,39.0,Training at home,,,,,,,,,,,,,
11,5,989,A,23.42241204997903,50.84685483706061,1.1711206024989516,0.7987005280712812,A,906.841957999859,Correct,sub_011_day_06_data.csv,1,300,39.0,Training at home,,,,,,,,,,,,,
11,5,990,B,39.73946472946341,26.541298616878713,1.9869732364731705,0.4169097437575955,B,1011.6629989934154,Correct,sub_011_day_06_data.csv,1,300,39.0,Training at home,,,,,,,,,,,,,
11,5,991,A,31.07550046526836,51.09713731026365,1.5537750232634182,0.802631955966966,A,1890.9501660382375,Correct,sub_011_day_06_data.csv,1,300,39.0,Training at home,,,,,,,,,,,,,
11,5,992,B,81.57373879563345,63.20564951887243,4.078686939781672,0.9928320209693042,B,790.8713330398314,Correct,sub_011_day_06_data.csv,1,300,39.0,Training at home,,,,,,,,,,,,,
11,5,993,A,58.29042968016512,74.00399830905346,2.914521484008256,1.162452087119969,A,1412.657332024537,Correct,sub_011_day_06_data.csv,1,300,39.0,Training at home,,,,,,,,,,,,,
11,5,994,B,75.70045397767456,56.34886816170789,3.785022698883728,0.8851259512746064,B,805.9553750208579,Correct,sub_011_day_06_data.csv,1,300,39.0,Training at home,,,,,,,,,,,,,
11,5,995,A,43.46776032426194,58.16729441991307,2.173388016213097,0.9136897241439672,A,1005.8184990193696,Correct,sub_011_day_06_data.csv,1,300,39.0,Training at home,,,,,,,,,,,,,
11,5,996,B,60.092452889605504,47.51132345455258,3.004622644480275,0.746306123635754,B,2357.492915994954,Correct,sub_011_day_06_data.csv,1,300,39.0,Training at home,,,,,,,,,,,,,
11,5,997,B,63.41996225650788,54.79004218177044,3.170998112825394,0.8606399700406246,B,2329.026290972251,Correct,sub_011_day_06_data.csv,1,300,39.0,Training at home,,,,,,,,,,,,,
11,5,998,A,26.448647848548735,40.95771104400467,1.3224323924274366,0.6433622206184929,A,840.3346660197712,Correct,sub_011_day_06_data.csv,1,300,39.0,Training at home,,,,,,,,,,,,,
11,5,999,B,33.93447012132708,22.24459652309328,1.696723506066354,0.3494173050950945,B,900.7080409792252,Correct,sub_011_day_06_data.csv,1,300,39.0,Training at home,,,,,,,,,,,,,
11,5,1000,B,66.85636981325221,47.437794996252286,3.342818490662611,0.7451511413136243,B,954.0755409980192,Correct,sub_011_day_06_data.csv,1,300,40.0,Training at home,,,,,,,,,,,,,
11,5,1001,B,47.39767440592236,21.36328851817702,2.369883720296118,0.3355737513261205,B,636.8577079847455,Correct,sub_011_day_06_data.csv,1,300,40.0,Training at home,,,,,,,,,,,,,
11,5,1002,A,55.56847218556493,74.33691148880708,2.7784236092782466,1.1676814751189548,A,629.5608329819515,Correct,sub_011_day_06_data.csv,1,300,40.0,Training at home,,,,,,,,,,,,,
11,5,1003,B,42.86091777065241,16.377731555301487,2.14304588853262,0.2572608056830044,B,531.9209989975207,Correct,sub_011_day_06_data.csv,1,300,40.0,Training at home,,,,,,,,,,,,,
11,5,1004,B,37.53276351193987,21.95204731710953,1.8766381755969936,0.3448219529134341,B,573.2704580295831,Correct,sub_011_day_06_data.csv,1,300,40.0,Training at home,,,,,,,,,,,,,
11,5,1005,A,35.05588221517348,63.87663048238483,1.7527941107586742,1.0033717652976504,A,809.700540965423,Correct,sub_011_day_06_data.csv,1,300,40.0,Training at home,,,,,,,,,,,,,
11,5,1006,A,51.82846594107231,71.08763778136388,2.5914232970536153,1.1166420030749251,A,909.328749985434,Correct,sub_011_day_06_data.csv,1,300,40.0,Training at home,,,,,,,,,,,,,
11,5,1007,A,22.884094909907017,35.90643891672902,1.1442047454953508,0.5640170235868328,A,847.4380410043523,Correct,sub_011_day_06_data.csv,1,300,40.0,Training at home,,,,,,,,,,,,,
11,5,1008,B,58.37328935666791,41.25441631738135,2.9186644678333953,0.6480228561541007,B,2940.4344159993343,Correct,sub_011_day_06_data.csv,1,300,40.0,Training at home,,,,,,,,,,,,,
11,5,1009,B,34.54093466782668,16.61511377224833,1.7270467333913342,0.2609895968272697,B,1024.8147080419585,Correct,sub_011_day_06_data.csv,1,300,40.0,Training at home,,,,,,,,,,,,,
11,5,1010,B,55.195527242401184,41.75483934028465,2.759776362120059,0.6558834826163017,B,5573.252791014966,Correct,sub_011_day_06_data.csv,1,300,40.0,Training at home,,,,,,,,,,,,,
11,5,1011,A,33.88263641682863,56.89363925222556,1.6941318208414315,0.8936831955538985,A,959.8613319685684,Correct,sub_011_day_06_data.csv,1,300,40.0,Training at home,,,,,,,,,,,,,
11,5,1012,B,72.81338854136094,44.08734424071305,3.640669427068047,0.692522383914542,B,953.5395830171184,Correct,sub_011_day_06_data.csv,1,300,40.0,Training at home,,,,,,,,,,,,,
11,5,1013,A,43.02175508243921,56.87697217685758,2.1510877541219604,0.8934213897462341,A,1318.5964159783907,Correct,sub_011_day_06_data.csv,1,300,40.0,Training at home,,,,,,,,,,,,,
11,5,1014,A,42.76045689661575,66.84429441427284,2.1380228448307874,1.049987721331364,A,1064.0253320452755,Correct,sub_011_day_06_data.csv,1,300,40.0,Training at home,,,,,,,,,,,,,
11,5,1015,A,44.731279578318954,51.77403224146739,2.2365639789159477,0.8132645966825751,A,1827.0897500333376,Correct,sub_011_day_06_data.csv,1,300,40.0,Training at home,,,,,,,,,,,,,
11,5,1016,B,62.277117078895515,50.30698599051632,3.113855853944776,0.7902202880602537,B,3349.9024159973487,Correct,sub_011_day_06_data.csv,1,300,40.0,Training at home,,,,,,,,,,,,,
11,5,1017,A,27.86081744737523,49.72435682477422,1.3930408723687615,0.7810683705259409,A,1091.8434580089524,Correct,sub_011_day_06_data.csv,1,300,40.0,Training at home,,,,,,,,,,,,,
11,5,1018,A,19.3658869581062,36.31185130564997,0.96829434790531,0.5703852265003744,A,751.4401659718715,Correct,sub_011_day_06_data.csv,1,300,40.0,Training at home,,,,,,,,,,,,,
11,5,1019,A,49.644481367640765,63.23966129964746,2.4822240683820382,0.993366276772396,A,2286.0842490335926,Correct,sub_011_day_06_data.csv,1,300,40.0,Training at home,,,,,,,,,,,,,
11,5,1020,A,16.242755915789026,39.434670427993254,0.8121377957894512,0.6194383545665912,A,965.6960829743184,Correct,sub_011_day_06_data.csv,1,300,40.0,Training at home,,,,,,,,,,,,,
11,5,1021,A,15.121932256712242,40.35802932968997,0.7560966128356121,0.633942442277577,A,476.8799580051564,Correct,sub_011_day_06_data.csv,1,300,40.0,Training at home,,,,,,,,,,,,,
11,5,1022,A,39.75387403874275,55.87337955257037,1.9876937019371377,0.8776569936679461,A,1029.7206660034135,Correct,sub_011_day_06_data.csv,1,300,40.0,Training at home,,,,,,,,,,,,,
11,5,1023,B,72.14227045623682,47.371603632710624,3.607113522811841,0.7441114098064563,B,1231.1663739965295,Correct,sub_011_day_06_data.csv,1,300,40.0,Training at home,,,,,,,,,,,,,
11,5,1024,B,87.52531642496945,68.42129182909298,4.376265821248472,1.0747591387970092,B,743.3274579816498,Correct,sub_011_day_06_data.csv,1,300,40.0,Training at home,,,,,,,,,,,,,
11,5,1025,A,25.43389598455702,53.925820759117045,1.271694799227851,0.8470648116782102,A,620.1624579844065,Correct,sub_011_day_06_data.csv,1,300,41.0,Training at home,,,,,,,,,,,,,
11,5,1026,A,26.27923776608126,45.44337615809005,1.313961888304063,0.7138228834628663,A,615.1225829962641,Correct,sub_011_day_06_data.csv,1,300,41.0,Training at home,,,,,,,,,,,,,
11,5,1027,A,37.036564997507384,61.82526500031986,1.851828249875369,0.971148991656235,A,898.5207910300232,Correct,sub_011_day_06_data.csv,1,300,41.0,Training at home,,,,,,,,,,,,,
11,5,1028,B,53.87524938267174,24.607557976233014,2.693762469133587,0.3865346168045928,B,565.0481240008958,Correct,sub_011_day_06_data.csv,1,300,41.0,Training at home,,,,,,,,,,,,,
11,5,1029,B,86.853278431194,63.641109920773175,4.3426639215597,0.9996722169670076,B,791.9784580008127,Correct,sub_011_day_06_data.csv,1,300,41.0,Training at home,,,,,,,,,,,,,
11,5,1030,B,73.18432499569644,44.513154104912985,3.659216249784822,0.6992109896205249,B,1728.257915994618,Correct,sub_011_day_06_data.csv,1,300,41.0,Training at home,,,,,,,,,,,,,
11,5,1031,A,25.44502135561591,55.706389627086345,1.272251067780796,0.8750339220523256,A,1021.3737910380588,Correct,sub_011_day_06_data.csv,1,300,41.0,Training at home,,,,,,,,,,,,,
11,5,1032,B,81.94022515412516,55.333360872283635,4.097011257706258,0.8691744000739959,B,688.6988329933956,Correct,sub_011_day_06_data.csv,1,300,41.0,Training at home,,,,,,,,,,,,,
11,5,1033,A,32.78508524472856,42.07555128597462,1.6392542622364283,0.6609212140787921,A,2788.1750410306267,Correct,sub_011_day_06_data.csv,1,300,41.0,Training at home,,,,,,,,,,,,,
11,5,1034,A,40.84218915301638,65.96515812367008,2.0421094576508185,1.036178280771055,A,1429.5517909922637,Correct,sub_011_day_06_data.csv,1,300,41.0,Training at home,,,,,,,,,,,,,
11,5,1035,A,31.41989196808678,39.827161688194735,1.570994598404339,0.6256035928648273,A,931.3002069829964,Correct,sub_011_day_06_data.csv,1,300,41.0,Training at home,,,,,,,,,,,,,
11,5,1036,A,28.90870256630969,39.943570461882665,1.4454351283154845,0.6274321376059843,A,590.781373961363,Correct,sub_011_day_06_data.csv,1,300,41.0,Training at home,,,,,,,,,,,,,
11,5,1037,B,62.50131024805143,39.35250285446491,3.1250655124025717,0.6181476693397917,B,703.0153329833411,Correct,sub_011_day_06_data.csv,1,300,41.0,Training at home,,,,,,,,,,,,,
11,5,1038,B,72.45998667223135,62.92142428008159,3.622999333611568,0.9883674213585536,B,1539.4741659983993,Correct,sub_011_day_06_data.csv,1,300,41.0,Training at home,,,,,,,,,,,,,
11,5,1039,B,72.24361109043377,60.75611720843067,3.612180554521689,0.9543548574132312,B,1098.3412499772385,Correct,sub_011_day_06_data.csv,1,300,41.0,Training at home,,,,,,,,,,,,,
11,5,1040,A,40.08937976693268,59.82408345131771,2.004468988346634,0.9397145053920124,A,1167.0614570030011,Correct,sub_011_day_06_data.csv,1,300,41.0,Training at home,,,,,,,,,,,,,
11,5,1041,A,44.47810960030728,68.3568311207572,2.2239054800153637,1.073746592358245,A,983.487833000254,Correct,sub_011_day_06_data.csv,1,300,41.0,Training at home,,,,,,,,,,,,,
11,5,1042,A,53.16556798215704,78.22619566397361,2.658278399107852,1.2287742080810862,A,496.7797910212539,Correct,sub_011_day_06_data.csv,1,300,41.0,Training at home,,,,,,,,,,,,,
11,5,1043,B,41.75185403548367,13.36102149464612,2.087592701774183,0.2098744348601778,B,1218.5133330058306,Correct,sub_011_day_06_data.csv,1,300,41.0,Training at home,,,,,,,,,,,,,
11,5,1044,A,54.58613829419766,62.48689350196578,2.7293069147098827,0.9815418278571174,A,1479.6823330107145,Correct,sub_011_day_06_data.csv,1,300,41.0,Training at home,,,,,,,,,,,,,
11,5,1045,A,33.696487271571044,60.69421666979267,1.6848243635785525,0.953382526026039,A,596.0240410058759,Correct,sub_011_day_06_data.csv,1,300,41.0,Training at home,,,,,,,,,,,,,
11,5,1046,A,29.232618066394984,47.337779155622826,1.4616309033197492,0.7435800961628034,A,832.9586660256609,Correct,sub_011_day_06_data.csv,1,300,41.0,Training at home,,,,,,,,,,,,,
11,5,1047,B,42.16077621075704,33.471341146918725,2.108038810537852,0.5257665972647882,A,1298.8308749627322,Incorrect,sub_011_day_06_data.csv,0,300,41.0,Training at home,,,,,,,,,,,,,
11,5,1048,A,54.42707874312906,69.71748827618704,2.721353937156453,1.0951197449760088,A,1114.8552909726277,Correct,sub_011_day_06_data.csv,1,300,41.0,Training at home,,,,,,,,,,,,,
11,5,1049,B,41.79961847029987,18.68659879176085,2.089980923514994,0.293528407423879,B,597.9502070113085,Correct,sub_011_day_06_data.csv,1,300,41.0,Training at home,,,,,,,,,,,,,
11,5,1050,B,59.91864856630381,42.334069500701965,2.9959324283151902,0.664982008699825,B,1141.2970829987898,Correct,sub_011_day_06_data.csv,1,300,42.0,Training at home,,,,,,,,,,,,,
11,5,1051,A,17.90452670233414,45.80268426138112,0.895226335116707,0.7194668819512389,A,589.8926240042783,Correct,sub_011_day_06_data.csv,1,300,42.0,Training at home,,,,,,,,,,,,,
11,5,1052,B,69.89065859717849,46.52891859685445,3.494532929858924,0.7308745442167773,B,749.2334989947267,Correct,sub_011_day_06_data.csv,1,300,42.0,Training at home,,,,,,,,,,,,,
11,5,1053,B,84.45644711632617,57.578010778970715,4.222822355816309,0.9044332783576416,B,1548.6419569933787,Correct,sub_011_day_06_data.csv,1,300,42.0,Training at home,,,,,,,,,,,,,
11,5,1054,B,54.64186266605905,25.216929914903012,2.732093133302952,0.39610660883374,B,881.8717490066774,Correct,sub_011_day_06_data.csv,1,300,42.0,Training at home,,,,,,,,,,,,,
11,5,1055,A,53.10042196625203,64.44762866566876,2.6550210983126017,1.0123409837867396,A,889.7535830037668,Correct,sub_011_day_06_data.csv,1,300,42.0,Training at home,,,,,,,,,,,,,
11,5,1056,B,56.53035276349872,36.402834281106536,2.826517638174936,0.5718143837368548,B,4073.6914569861256,Correct,sub_011_day_06_data.csv,1,300,42.0,Training at home,,,,,,,,,,,,,
11,5,1057,B,65.93001604232384,48.504605197945864,3.2965008021161917,0.7619085567757,B,684.1187910176814,Correct,sub_011_day_06_data.csv,1,300,42.0,Training at home,,,,,,,,,,,,,
11,5,1058,B,42.874219432292705,34.244415214195264,2.1437109716146354,0.537910016316972,A,1485.3766660089605,Incorrect,sub_011_day_06_data.csv,0,300,42.0,Training at home,,,,,,,,,,,,,
11,5,1059,A,25.2761473263082,41.45831421975155,1.26380736631541,0.6512256769149437,A,1225.7750409771688,Correct,sub_011_day_06_data.csv,1,300,42.0,Training at home,,,,,,,,,,,,,
11,5,1060,A,32.66527383231424,62.11926170807422,1.6332636916157122,0.9757670811425384,A,1020.700166001916,Correct,sub_011_day_06_data.csv,1,300,42.0,Training at home,,,,,,,,,,,,,
11,5,1061,B,40.94687973540468,25.109855375512588,2.047343986770234,0.3944246859020625,B,839.0683750039898,Correct,sub_011_day_06_data.csv,1,300,42.0,Training at home,,,,,,,,,,,,,
11,5,1062,A,51.48238749339899,62.919132986346625,2.5741193746699493,0.9883314298007287,A,1570.227456977591,Correct,sub_011_day_06_data.csv,1,300,42.0,Training at home,,,,,,,,,,,,,
11,5,1063,A,50.14985091533558,66.82684150862437,2.507492545766779,1.0497135717305188,A,925.0299580162392,Correct,sub_011_day_06_data.csv,1,300,42.0,Training at home,,,,,,,,,,,,,
11,5,1064,B,41.200129990232895,20.35519190178782,2.0600064995116445,0.3197386067053353,B,703.9869159925729,Correct,sub_011_day_06_data.csv,1,300,42.0,Training at home,,,,,,,,,,,,,
11,5,1065,B,35.928999988317756,10.755782958351404,1.7964499994158876,0.1689514436278153,B,672.0881239743903,Correct,sub_011_day_06_data.csv,1,300,42.0,Training at home,,,,,,,,,,,,,
11,5,1066,A,35.48756131626004,51.76618384533096,1.7743780658130022,0.8131413143643518,A,1543.1365410331637,Correct,sub_011_day_06_data.csv,1,300,42.0,Training at home,,,,,,,,,,,,,
11,5,1067,B,35.803899273300345,19.731912076988817,1.7901949636650172,0.3099481501117389,B,1868.027458025608,Correct,sub_011_day_06_data.csv,1,300,42.0,Training at home,,,,,,,,,,,,,
11,5,1068,B,53.598726898129485,29.58697612356385,2.679936344906474,0.4647511341586239,B,961.2682500155644,Correct,sub_011_day_06_data.csv,1,300,42.0,Training at home,,,,,,,,,,,,,
11,5,1069,A,50.016166813980355,69.49779001354197,2.500808340699018,1.0916687327363477,A,952.609998988919,Correct,sub_011_day_06_data.csv,1,300,42.0,Training at home,,,,,,,,,,,,,
11,5,1070,A,51.65115114443741,78.93659719289089,2.58255755722187,1.2399331692028133,A,605.3557500126772,Correct,sub_011_day_06_data.csv,1,300,42.0,Training at home,,,,,,,,,,,,,
11,5,1071,A,49.01778808733141,74.56508487343939,2.45088940436657,1.171265614263483,A,707.6074570068158,Correct,sub_011_day_06_data.csv,1,300,42.0,Training at home,,,,,,,,,,,,,
11,5,1072,A,22.125914067198377,36.50368040980321,1.1062957033599188,0.5733984710221371,A,1305.9436659677883,Correct,sub_011_day_06_data.csv,1,300,42.0,Training at home,,,,,,,,,,,,,
11,5,1073,B,46.89772463952663,38.37453572685015,2.3448862319763317,0.6027857976219574,A,958.3412079955452,Incorrect,sub_011_day_06_data.csv,0,300,42.0,Training at home,,,,,,,,,,,,,
11,5,1074,B,38.76495495714671,22.75076171456102,1.9382477478573352,0.3573681293301841,B,865.4165829648264,Correct,sub_011_day_06_data.csv,1,300,42.0,Training at home,,,,,,,,,,,,,
11,5,1075,A,32.66230286613577,63.91429196534068,1.6331151433067883,1.003963350488537,A,1189.1287909820676,Correct,sub_011_day_06_data.csv,1,300,43.0,Training at home,,,,,,,,,,,,,
11,5,1076,A,21.72464568765347,44.692818717362805,1.0862322843826735,0.7020331547534369,A,1862.8215410280973,Correct,sub_011_day_06_data.csv,1,300,43.0,Training at home,,,,,,,,,,,,,
11,5,1077,B,55.74970415533434,36.2365568899903,2.787485207766718,0.5692025045849106,A,1392.2444579657167,Incorrect,sub_011_day_06_data.csv,0,300,43.0,Training at home,,,,,,,,,,,,,
11,5,1078,A,44.47300809162922,62.800494593522096,2.223650404581461,0.9864678622840728,A,1406.4894579933025,Correct,sub_011_day_06_data.csv,1,300,43.0,Training at home,,,,,,,,,,,,,
11,5,1079,A,56.58702796510582,75.25692729136583,2.8293513982552905,1.1821330495514806,A,641.5803330019116,Correct,sub_011_day_06_data.csv,1,300,43.0,Training at home,,,,,,,,,,,,,
11,5,1080,A,59.81229559814144,77.03794934014603,2.990614779907072,1.210109278473127,A,540.6246249913238,Correct,sub_011_day_06_data.csv,1,300,43.0,Training at home,,,,,,,,,,,,,
11,5,1081,A,55.26262270271799,71.14327112559852,2.7631311351358994,1.1175158896026358,A,676.3806240051053,Correct,sub_011_day_06_data.csv,1,300,43.0,Training at home,,,,,,,,,,,,,
11,5,1082,A,30.953689216851473,44.01453236560633,1.5476844608425735,0.691378657654895,A,1436.0520819900555,Correct,sub_011_day_06_data.csv,1,300,43.0,Training at home,,,,,,,,,,,,,
11,5,1083,B,64.7637732469971,54.617822109301855,3.2381886623498555,0.8579347434682845,B,3555.6587910396047,Correct,sub_011_day_06_data.csv,1,300,43.0,Training at home,,,,,,,,,,,,,
11,5,1084,A,59.227787810318986,83.33493586596138,2.9613893905159494,1.3090221115194045,A,686.3089579856023,Correct,sub_011_day_06_data.csv,1,300,43.0,Training at home,,,,,,,,,,,,,
11,5,1085,A,35.77996945340652,52.7026076464537,1.788998472670326,0.827850625035621,A,728.5593739943579,Correct,sub_011_day_06_data.csv,1,300,43.0,Training at home,,,,,,,,,,,,,
11,5,1086,B,52.28820747129796,31.495608226501744,2.614410373564898,0.4947318571236007,B,910.2952490211464,Correct,sub_011_day_06_data.csv,1,300,43.0,Training at home,,,,,,,,,,,,,
11,5,1087,A,58.9229643545615,72.947321761457,2.9461482177280747,1.1458538507242209,A,765.6867490150034,Correct,sub_011_day_06_data.csv,1,300,43.0,Training at home,,,,,,,,,,,,,
11,5,1088,B,69.24830245095987,57.7646973413391,3.462415122547993,0.9073657440219438,A,2717.6711250212975,Incorrect,sub_011_day_06_data.csv,0,300,43.0,Training at home,,,,,,,,,,,,,
11,5,1089,A,58.65747625759094,81.09519784946849,2.932873812879547,1.273840389026505,A,1579.1534159798175,Correct,sub_011_day_06_data.csv,1,300,43.0,Training at home,,,,,,,,,,,,,
11,5,1090,B,83.69507810946567,56.92957910757431,4.184753905473284,0.894247737481572,B,1388.1255829473955,Correct,sub_011_day_06_data.csv,1,300,43.0,Training at home,,,,,,,,,,,,,
11,5,1091,A,30.48865414422442,41.78693771362531,1.5244327072112211,0.6563876826856977,A,2572.9685410042293,Correct,sub_011_day_06_data.csv,1,300,43.0,Training at home,,,,,,,,,,,,,
11,5,1092,A,27.84210195186183,57.065491440877096,1.3921050975930915,0.8963826434207535,A,985.7982079847716,Correct,sub_011_day_06_data.csv,1,300,43.0,Training at home,,,,,,,,,,,,,
11,5,1093,B,69.18768053947292,48.08759515081018,3.459384026973646,0.7553581782729272,B,673.4147070092149,Correct,sub_011_day_06_data.csv,1,300,43.0,Training at home,,,,,,,,,,,,,
11,5,1094,B,86.58367325012492,63.721874763919736,4.329183662506246,1.0009408681564953,B,862.1704999823123,Correct,sub_011_day_06_data.csv,1,300,43.0,Training at home,,,,,,,,,,,,,
11,5,1095,A,19.17523811971005,47.795806842286055,0.9587619059855024,0.7507747782406132,A,1921.4437499758787,Correct,sub_011_day_06_data.csv,1,300,43.0,Training at home,,,,,,,,,,,,,
11,5,1096,A,52.75203346930272,61.862729660593494,2.6376016734651357,0.9717374851636597,A,1212.461290997453,Correct,sub_011_day_06_data.csv,1,300,43.0,Training at home,,,,,,,,,,,,,
11,5,1097,B,43.80599131519226,25.189128867232153,2.190299565759613,0.3956699109981156,B,1206.7737079923972,Correct,sub_011_day_06_data.csv,1,300,43.0,Training at home,,,,,,,,,,,,,
11,5,1098,B,38.9498619923843,20.072727045457462,1.9474930996192148,0.3153016591176115,B,1326.6111250268295,Correct,sub_011_day_06_data.csv,1,300,43.0,Training at home,,,,,,,,,,,,,
11,5,1099,A,46.455245267324514,66.17201194853796,2.3227622633662257,1.0394275330539142,A,2989.6539989858866,Correct,sub_011_day_06_data.csv,1,300,43.0,Training at home,,,,,,,,,,,,,
11,5,1100,B,67.65199581593629,58.97252242347913,3.3825997907968146,0.9263382160463068,B,4705.673999036662,Correct,sub_011_day_06_data.csv,1,300,44.0,Training at home,,,,,,,,,,,,,
11,5,1101,A,45.59007021786937,70.73090041083348,2.2795035108934685,1.1110383855623287,A,942.7622070070356,Correct,sub_011_day_06_data.csv,1,300,44.0,Training at home,,,,,,,,,,,,,
11,5,1102,B,32.89649755151363,17.540775148922087,1.6448248775756815,0.2755298517306202,B,542.5243320059963,Correct,sub_011_day_06_data.csv,1,300,44.0,Training at home,,,,,,,,,,,,,
11,5,1103,A,16.060313023602685,34.42958920266915,0.8030156511801343,0.5408187225260993,A,899.056373978965,Correct,sub_011_day_06_data.csv,1,300,44.0,Training at home,,,,,,,,,,,,,
11,5,1104,B,75.18084076060704,54.57065044082038,3.759042038030352,0.8571937726324896,B,832.8080410137773,Correct,sub_011_day_06_data.csv,1,300,44.0,Training at home,,,,,,,,,,,,,
11,5,1105,A,42.50752140839282,74.55957567489526,2.125376070419641,1.1711790759751155,A,615.2636660262942,Correct,sub_011_day_06_data.csv,1,300,44.0,Training at home,,,,,,,,,,,,,
11,5,1106,A,24.46621970201342,47.10478186947486,1.223310985100671,0.7399201833504596,A,1193.780666042585,Correct,sub_011_day_06_data.csv,1,300,44.0,Training at home,,,,,,,,,,,,,
11,5,1107,B,74.4736733611448,60.66146446210758,3.72368366805724,0.9528680555507776,B,730.0893749925308,Correct,sub_011_day_06_data.csv,1,300,44.0,Training at home,,,,,,,,,,,,,
11,5,1108,B,62.21021526602271,40.206303057379074,3.1105107633011353,0.6315591315653347,B,1274.932332977187,Correct,sub_011_day_06_data.csv,1,300,44.0,Training at home,,,,,,,,,,,,,
11,5,1109,A,20.942836969042354,49.85254734038623,1.0471418484521178,0.7830819824364739,A,536.9679580326192,Correct,sub_011_day_06_data.csv,1,300,44.0,Training at home,,,,,,,,,,,,,
11,5,1110,B,64.85013800128553,50.46811225027334,3.242506900064277,0.7927512534300188,B,767.0248739887029,Correct,sub_011_day_06_data.csv,1,300,44.0,Training at home,,,,,,,,,,,,,
11,5,1111,A,47.29871576173757,57.7381999442742,2.3649357880868784,0.9069495238821522,A,1654.6079579857178,Correct,sub_011_day_06_data.csv,1,300,44.0,Training at home,,,,,,,,,,,,,
11,5,1112,A,28.73621550857733,45.862434631000895,1.4368107754288666,0.7204054385624726,A,1533.1293739727698,Correct,sub_011_day_06_data.csv,1,300,44.0,Training at home,,,,,,,,,,,,,
11,5,1113,A,31.569433471560775,48.63896999270272,1.578471673578039,0.7640191540362464,A,1273.243540956173,Correct,sub_011_day_06_data.csv,1,300,44.0,Training at home,,,,,,,,,,,,,
11,5,1114,B,69.79005587481083,52.728354848610465,3.4895027937405416,0.8282550611413518,B,699.798041023314,Correct,sub_011_day_06_data.csv,1,300,44.0,Training at home,,,,,,,,,,,,,
11,5,1115,B,69.84303428859228,44.67394006357132,3.492151714429614,0.701736609553132,B,2069.241165998392,Correct,sub_011_day_06_data.csv,1,300,44.0,Training at home,,,,,,,,,,,,,
11,5,1116,A,49.614342957316865,61.47521448045552,2.4807171478658434,0.9656504109482796,A,6285.558291012421,Correct,sub_011_day_06_data.csv,1,300,44.0,Training at home,,,,,,,,,,,,,
11,5,1117,B,36.934229767663496,24.38218097005747,1.846711488383175,0.3829944030701471,B,576.9589570118114,Correct,sub_011_day_06_data.csv,1,300,44.0,Training at home,,,,,,,,,,,,,
11,5,1118,A,28.767783440711696,60.345679922392435,1.4383891720355848,0.9479077236003458,A,703.668748959899,Correct,sub_011_day_06_data.csv,1,300,44.0,Training at home,,,,,,,,,,,,,
11,5,1119,B,35.35142653090147,21.6769634918475,1.7675713265450737,0.3405009462906112,B,563.191874010954,Correct,sub_011_day_06_data.csv,1,300,44.0,Training at home,,,,,,,,,,,,,
11,5,1120,B,54.4477445340756,32.862377443935074,2.7223872267037796,0.5162010177868067,B,628.9344989927486,Correct,sub_011_day_06_data.csv,1,300,44.0,Training at home,,,,,,,,,,,,,
11,5,1121,B,35.17252066797893,23.127181924153305,1.7586260333989463,0.3632809241557733,B,1318.214375001844,Correct,sub_011_day_06_data.csv,1,300,44.0,Training at home,,,,,,,,,,,,,
11,5,1122,B,38.76037196207615,27.319568441427037,1.9380185981038072,0.4291347775741537,B,520.5949580413289,Correct,sub_011_day_06_data.csv,1,300,44.0,Training at home,,,,,,,,,,,,,
11,5,1123,B,81.71023374967692,59.09917126456415,4.085511687483846,0.9283276113899988,B,1967.9221250116825,Correct,sub_011_day_06_data.csv,1,300,44.0,Training at home,,,,,,,,,,,,,
11,5,1124,B,59.01116030837627,48.79098026518665,2.950558015418814,0.7664069258127747,B,584.5269580022432,Correct,sub_011_day_06_data.csv,1,300,44.0,Training at home,,,,,,,,,,,,,
11,5,1125,A,28.79361583635198,58.7266250365615,1.439680791817599,0.9224756689249202,A,727.5487079750746,Correct,sub_011_day_06_data.csv,1,300,45.0,Training at home,,,,,,,,,,,,,
11,5,1126,B,55.223093262785,34.80373481006647,2.76115466313925,0.5466957879839609,B,1032.732457970269,Correct,sub_011_day_06_data.csv,1,300,45.0,Training at home,,,,,,,,,,,,,
11,5,1127,A,17.105269369419453,37.791326014993686,0.8552634684709727,0.5936247608906049,A,684.7523740143515,Correct,sub_011_day_06_data.csv,1,300,45.0,Training at home,,,,,,,,,,,,,
11,5,1128,B,52.57764148636569,44.17287797824561,2.6288820743182844,0.6938659447218739,A,2892.643583007157,Incorrect,sub_011_day_06_data.csv,0,300,45.0,Training at home,,,,,,,,,,,,,
11,5,1129,A,28.04406190798375,40.4565134946193,1.4022030953991875,0.6354894279227616,A,1396.6934570344165,Correct,sub_011_day_06_data.csv,1,300,45.0,Training at home,,,,,,,,,,,,,
11,5,1130,B,77.84099725280919,65.0385552734199,3.892049862640459,1.0216232372353484,B,4178.957541007549,Correct,sub_011_day_06_data.csv,1,300,45.0,Training at home,,,,,,,,,,,,,
11,5,1131,B,77.3228948645748,62.79703282117123,3.86614474322874,0.9864134848911432,B,494.5051249815151,Correct,sub_011_day_06_data.csv,1,300,45.0,Training at home,,,,,,,,,,,,,
11,5,1132,A,39.99760646372693,60.25477147613559,1.9998803231863465,0.9464797370657968,A,1650.7487909984775,Correct,sub_011_day_06_data.csv,1,300,45.0,Training at home,,,,,,,,,,,,,
11,5,1133,A,30.48620695824118,61.0707629467346,1.524310347912059,0.9592973011129255,A,959.1345409862696,Correct,sub_011_day_06_data.csv,1,300,45.0,Training at home,,,,,,,,,,,,,
11,5,1134,B,58.60838481069787,38.97484096564679,2.930419240534894,0.6122153702625325,B,628.3210829715244,Correct,sub_011_day_06_data.csv,1,300,45.0,Training at home,,,,,,,,,,,,,
11,5,1135,B,42.36426455949302,32.57051707654833,2.118213227974651,0.5116164858565256,B,576.4077490312047,Correct,sub_011_day_06_data.csv,1,300,45.0,Training at home,,,,,,,,,,,,,
11,5,1136,A,47.351242561100015,54.43847217649116,2.3675621280550008,0.8551175213115848,B,2022.1624160185456,Incorrect,sub_011_day_06_data.csv,0,300,45.0,Training at home,,,,,,,,,,,,,
11,5,1137,A,14.549727116869274,41.23017630813604,0.7274863558434638,0.6476420949792605,A,520.2617080067284,Correct,sub_011_day_06_data.csv,1,300,45.0,Training at home,,,,,,,,,,,,,
11,5,1138,B,45.39105355892048,35.79577503438509,2.269552677946024,0.5622787193878855,B,1344.6087070042267,Correct,sub_011_day_06_data.csv,1,300,45.0,Training at home,,,,,,,,,,,,,
11,5,1139,B,74.73531870144078,48.53860374908653,3.7367659350720386,0.7624426047681812,B,526.4927069656551,Correct,sub_011_day_06_data.csv,1,300,45.0,Training at home,,,,,,,,,,,,,
11,5,1140,A,31.910655869972672,49.4462391901033,1.5955327934986336,0.7766997089363612,A,836.1795410164632,Correct,sub_011_day_06_data.csv,1,300,45.0,Training at home,,,,,,,,,,,,,
11,5,1141,B,80.51289558424736,58.30066740161435,4.025644779212368,0.9157847420414676,B,910.5011659557932,Correct,sub_011_day_06_data.csv,1,300,45.0,Training at home,,,,,,,,,,,,,
11,5,1142,B,32.02926093518699,13.96903801149018,1.6014630467593494,0.2194251359730706,B,786.0609990311787,Correct,sub_011_day_06_data.csv,1,300,45.0,Training at home,,,,,,,,,,,,,
11,5,1143,A,15.800470987131288,40.18167877173782,0.7900235493565644,0.6311723341909825,A,801.7107080086134,Correct,sub_011_day_06_data.csv,1,300,45.0,Training at home,,,,,,,,,,,,,
11,5,1144,B,58.64945911930247,36.037382564603256,2.9324729559651233,0.5660738815978124,B,2095.0646239798516,Correct,sub_011_day_06_data.csv,1,300,45.0,Training at home,,,,,,,,,,,,,
11,5,1145,A,19.752056059850265,40.65230877056562,0.9876028029925132,0.6385649729253644,A,644.5299159968272,Correct,sub_011_day_06_data.csv,1,300,45.0,Training at home,,,,,,,,,,,,,
11,5,1146,A,32.0909854818107,61.98077176808808,1.6045492740905347,0.9735916862522558,A,667.0094160363078,Correct,sub_011_day_06_data.csv,1,300,45.0,Training at home,,,,,,,,,,,,,
11,5,1147,A,45.385232810319785,55.04646178341842,2.2692616405159893,0.8646677997244931,A,1265.59691602597,Correct,sub_011_day_06_data.csv,1,300,45.0,Training at home,,,,,,,,,,,,,
11,5,1148,A,29.466026816269576,58.23577417705121,1.4733013408134787,0.9147654016536912,A,609.3277910258621,Correct,sub_011_day_06_data.csv,1,300,45.0,Training at home,,,,,,,,,,,,,
11,5,1149,B,33.82104579475324,16.52185705470087,1.691052289737662,0.2595247237335447,B,879.4247490004636,Correct,sub_011_day_06_data.csv,1,300,45.0,Training at home,,,,,,,,,,,,,
11,5,1150,A,56.473503961762006,70.89073791769789,2.8236751980881003,1.1135491072489954,A,827.8611240093596,Correct,sub_011_day_06_data.csv,1,300,46.0,Training at home,,,,,,,,,,,,,
11,5,1151,B,40.37954287855289,26.1570960583149,2.0189771439276445,0.4108747040802231,B,584.0845410129987,Correct,sub_011_day_06_data.csv,1,300,46.0,Training at home,,,,,,,,,,,,,
11,5,1152,A,18.5779848230543,46.2128480791017,0.9288992411527148,0.7259097201338354,A,732.8473330126144,Correct,sub_011_day_06_data.csv,1,300,46.0,Training at home,,,,,,,,,,,,,
11,5,1153,B,44.84204636797988,26.942443181671106,2.2421023183989943,0.4232109078464917,B,595.8318330231123,Correct,sub_011_day_06_data.csv,1,300,46.0,Training at home,,,,,,,,,,,,,
11,5,1154,B,60.05685327739996,34.1897573286854,3.002842663869998,0.5370514522590792,B,632.4374999967404,Correct,sub_011_day_06_data.csv,1,300,46.0,Training at home,,,,,,,,,,,,,
11,5,1155,A,27.229690366680828,58.37184407864593,1.3614845183340412,0.9169027826698144,A,536.9204580201767,Correct,sub_011_day_06_data.csv,1,300,46.0,Training at home,,,,,,,,,,,,,
11,5,1156,B,74.74111797184284,42.120367845855824,3.7370558985921423,0.661625190955202,B,703.4627909888513,Correct,sub_011_day_06_data.csv,1,300,46.0,Training at home,,,,,,,,,,,,,
11,5,1157,A,64.85634479275419,82.08981981708239,3.242817239637709,1.2894638743592792,A,878.3847070299089,Correct,sub_011_day_06_data.csv,1,300,46.0,Training at home,,,,,,,,,,,,,
11,5,1158,A,23.824697358130052,44.81858472887584,1.1912348679065026,0.70400868264264,A,689.4264579750597,Correct,sub_011_day_06_data.csv,1,300,46.0,Training at home,,,,,,,,,,,,,
11,5,1159,B,78.18185420015888,58.660062688167265,3.909092710007944,0.9214301100013153,B,1028.4243319765665,Correct,sub_011_day_06_data.csv,1,300,46.0,Training at home,,,,,,,,,,,,,
11,5,1160,A,68.13644817251266,86.69100433389079,3.406822408625633,1.361739111738361,A,934.5309159834868,Correct,sub_011_day_06_data.csv,1,300,46.0,Training at home,,,,,,,,,,,,,
11,5,1161,A,16.939114127481925,46.49863425167514,0.8469557063740963,0.7303988388351068,A,860.0418320274912,Correct,sub_011_day_06_data.csv,1,300,46.0,Training at home,,,,,,,,,,,,,
11,5,1162,A,41.45632655347883,62.357763350740726,2.0728163276739417,0.9795134561848896,A,587.9176239832304,Correct,sub_011_day_06_data.csv,1,300,46.0,Training at home,,,,,,,,,,,,,
11,5,1163,A,67.36768890797856,86.55998128997786,3.368384445398928,1.359681006577322,A,733.2728329929523,Correct,sub_011_day_06_data.csv,1,300,46.0,Training at home,,,,,,,,,,,,,
11,5,1164,A,47.82404486879504,64.65933865064642,2.391202243439752,1.015666516454227,A,1218.3935409993865,Correct,sub_011_day_06_data.csv,1,300,46.0,Training at home,,,,,,,,,,,,,
11,5,1165,B,50.35689786604051,36.97837195811198,2.517844893302026,0.580854908426577,B,1130.5917489808053,Correct,sub_011_day_06_data.csv,1,300,46.0,Training at home,,,,,,,,,,,,,
11,5,1166,B,49.979955030015965,24.94332918031309,2.498997751500798,0.3918088985447176,B,754.3842490413226,Correct,sub_011_day_06_data.csv,1,300,46.0,Training at home,,,,,,,,,,,,,
11,5,1167,A,25.76920880904448,47.81411770909074,1.2884604404522235,0.7510624046637855,A,703.4213740262203,Correct,sub_011_day_06_data.csv,1,300,46.0,Training at home,,,,,,,,,,,,,
11,5,1168,A,37.675817764771494,48.73034877778308,1.8837908882385748,0.7654545286357585,A,1059.4273330061696,Correct,sub_011_day_06_data.csv,1,300,46.0,Training at home,,,,,,,,,,,,,
11,5,1169,B,39.85161942110345,15.466423984080189,1.9925809710551727,0.2429460198284564,B,426.90733302151784,Correct,sub_011_day_06_data.csv,1,300,46.0,Training at home,,,,,,,,,,,,,
11,5,1170,B,41.389359931114,27.277281766277348,2.0694679965557,0.4284705400341786,B,504.22541599255055,Correct,sub_011_day_06_data.csv,1,300,46.0,Training at home,,,,,,,,,,,,,
11,5,1171,A,12.828139833880709,33.7727508164234,0.6414069916940355,0.5305011292819721,A,680.3620819700882,Correct,sub_011_day_06_data.csv,1,300,46.0,Training at home,,,,,,,,,,,,,
11,5,1172,B,83.6987066247743,54.47053708027924,4.184935331238716,0.8556211956424785,B,759.151375037618,Correct,sub_011_day_06_data.csv,1,300,46.0,Training at home,,,,,,,,,,,,,
11,5,1173,B,63.14952115611714,41.89617554638619,3.157476057805857,0.6581035865501761,B,608.5928330430761,Correct,sub_011_day_06_data.csv,1,300,46.0,Training at home,,,,,,,,,,,,,
11,5,1174,B,56.865942639178336,49.53938424434375,2.8432971319589164,0.7781628280269614,B,606.751290964894,Correct,sub_011_day_06_data.csv,1,300,46.0,Training at home,,,,,,,,,,,,,
11,5,1175,A,63.43169231253387,76.20773207759292,3.171584615626694,1.1970682562085255,A,1073.8372490159236,Correct,sub_011_day_06_data.csv,1,300,47.0,Training at home,,,,,,,,,,,,,
11,5,1176,B,45.86256279409792,37.39443206736014,2.293128139704896,0.5873903653399061,B,5480.666457035113,Correct,sub_011_day_06_data.csv,1,300,47.0,Training at home,,,,,,,,,,,,,
11,5,1177,A,54.204404469177106,73.49129134873104,2.7102202234588555,1.154398505020003,A,967.2249990398996,Correct,sub_011_day_06_data.csv,1,300,47.0,Training at home,,,,,,,,,,,,,
11,5,1178,B,86.49134911168343,65.47230193908703,4.324567455584172,1.028436513927243,B,621.1678319959901,Correct,sub_011_day_06_data.csv,1,300,47.0,Training at home,,,,,,,,,,,,,
11,5,1179,B,80.18211517364048,61.48151131830345,4.009105758682024,0.9657493214458992,B,886.9124990305863,Correct,sub_011_day_06_data.csv,1,300,47.0,Training at home,,,,,,,,,,,,,
11,5,1180,B,51.835059228613986,35.366543048289316,2.5917529614306996,0.5555363591168644,B,904.539541050326,Correct,sub_011_day_06_data.csv,1,300,47.0,Training at home,,,,,,,,,,,,,
11,5,1181,B,69.83601817985146,57.84132533861127,3.4918009089925732,0.9085694137883916,B,1201.7604159773327,Correct,sub_011_day_06_data.csv,1,300,47.0,Training at home,,,,,,,,,,,,,
11,5,1182,B,66.31403418678778,37.81377325939341,3.3157017093393892,0.5939773613811025,B,541.2778330501169,Correct,sub_011_day_06_data.csv,1,300,47.0,Training at home,,,,,,,,,,,,,
11,5,1183,B,47.109239171204,32.94620692600319,2.3554619585601997,0.517517808211904,B,447.9262490058318,Correct,sub_011_day_06_data.csv,1,300,47.0,Training at home,,,,,,,,,,,,,
11,5,1184,B,64.8859176577068,40.35904870693306,3.2442958828853397,0.6339584546178676,B,994.664040976204,Correct,sub_011_day_06_data.csv,1,300,47.0,Training at home,,,,,,,,,,,,,
11,5,1185,A,19.032391142162854,42.36958599065416,0.9516195571081428,0.6655399004194006,A,581.62304101279,Correct,sub_011_day_06_data.csv,1,300,47.0,Training at home,,,,,,,,,,,,,
11,5,1186,B,75.87091653040167,59.16996358049178,3.793545826520084,0.929439614488243,B,711.8098319624551,Correct,sub_011_day_06_data.csv,1,300,47.0,Training at home,,,,,,,,,,,,,
11,5,1187,A,26.40575526599768,38.50329558274231,1.320287763299884,0.6048083527086979,A,790.7734580221586,Correct,sub_011_day_06_data.csv,1,300,47.0,Training at home,,,,,,,,,,,,,
11,5,1188,B,72.71503008287496,57.46993215598944,3.635751504143747,0.9027355833178012,B,683.2634159945883,Correct,sub_011_day_06_data.csv,1,300,47.0,Training at home,,,,,,,,,,,,,
11,5,1189,B,39.74633661200035,21.726315829378677,1.9873168306000173,0.3412761709957384,B,788.750208041165,Correct,sub_011_day_06_data.csv,1,300,47.0,Training at home,,,,,,,,,,,,,
11,5,1190,B,35.64877643079191,22.085830444197754,1.7824388215395957,0.3469234133596073,B,1608.6275409907105,Correct,sub_011_day_06_data.csv,1,300,47.0,Training at home,,,,,,,,,,,,,
11,5,1191,B,45.26857165246425,22.56395651427731,2.263428582623213,0.3544338001058658,B,842.3907490214333,Correct,sub_011_day_06_data.csv,1,300,47.0,Training at home,,,,,,,,,,,,,
11,5,1192,A,27.19066504343699,56.24317953604315,1.3595332521718495,0.8834657982248248,A,686.4213329972699,Correct,sub_011_day_06_data.csv,1,300,47.0,Training at home,,,,,,,,,,,,,
11,5,1193,A,34.08601963319047,64.2426282532096,1.7043009816595234,1.0091208448379168,A,535.4945829603821,Correct,sub_011_day_06_data.csv,1,300,47.0,Training at home,,,,,,,,,,,,,
11,5,1194,A,58.99679643152524,86.1208159161107,2.949839821576262,1.3527826130160614,A,1487.003582995385,Correct,sub_011_day_06_data.csv,1,300,47.0,Training at home,,,,,,,,,,,,,
11,5,1195,A,46.39244754200806,61.59389219253583,2.3196223771004028,0.9675145960903614,A,558.9524579700083,Correct,sub_011_day_06_data.csv,1,300,47.0,Training at home,,,,,,,,,,,,,
11,5,1196,A,20.806438400025865,46.562446978083,1.0403219200012932,0.731401206797549,A,515.6392910284922,Correct,sub_011_day_06_data.csv,1,300,47.0,Training at home,,,,,,,,,,,,,
11,5,1197,B,79.17277363114933,52.24686739248759,3.958638681557466,0.8206918738665956,B,708.2979159895331,Correct,sub_011_day_06_data.csv,1,300,47.0,Training at home,,,,,,,,,,,,,
11,5,1198,B,52.4388775889863,30.707459046373963,2.621943879449315,0.4823516387524894,B,607.7246249769814,Correct,sub_011_day_06_data.csv,1,300,47.0,Training at home,,,,,,,,,,,,,
11,5,1199,B,74.23758429229417,52.360500674708774,3.711879214614709,0.8224768212897424,B,1728.896957996767,Correct,sub_011_day_06_data.csv,1,300,47.0,Training at home,,,,,,,,,,,,,
