subject,day,trial,cat,x,y,xt,yt,resp,rt,fb,f_name,acc,n_trials,block,session_type,ns_left_digit,ns_right_digit,ns_left_size,ns_right_size,ns_congruent,ns_cue,ns_correct_side,ns_resp,ns_rt,ns_fb,acc_stroop,acc_stroop_mean,resp_key
11,24,600,B,77.54376677085273,60.58653306227292,3.877188338542636,0.9516910358745586,B,987.9539581015706,Correct,sub_011_day_24_data.csv,1,600,,Button-Switch at home,,,,,,,,,,,,,d
11,24,601,A,68.63068298853388,82.2259882775369,3.4315341494266938,1.291602803534352,A,857.258831965737,Correct,sub_011_day_24_data.csv,1,600,,Button-Switch at home,,,,,,,,,,,,,k
11,24,602,B,64.7796007907755,53.523373069068555,3.238980039538775,0.8407431781456577,B,850.7209160597995,Correct,sub_011_day_24_data.csv,1,600,,Button-Switch at home,,,,,,,,,,,,,d
11,24,603,B,74.79078349752041,48.21491633087839,3.739539174876021,0.7573581346926704,B,684.8640830721706,Correct,sub_011_day_24_data.csv,1,600,,Button-Switch at home,,,,,,,,,,,,,d
11,24,604,B,37.95756384737514,28.64482752463047,1.8978781923687569,0.449951898573629,B,756.7557069705799,Correct,sub_011_day_24_data.csv,1,600,,Button-Switch at home,,,,,,,,,,,,,d
11,24,605,B,55.11559699093319,24.656459832504986,2.7557798495466597,0.3873027653666474,B,709.5439579570666,Correct,sub_011_day_24_data.csv,1,600,,Button-Switch at home,,,,,,,,,,,,,d
11,24,606,A,55.164098804231784,84.71837171076473,2.7582049402115896,1.3307530709531392,A,738.1675409851596,Correct,sub_011_day_24_data.csv,1,600,,Button-Switch at home,,,,,,,,,,,,,k
11,24,607,A,61.56106317073331,72.12971807478283,3.0780531585366657,1.1330109620462032,A,755.1895410288125,Correct,sub_011_day_24_data.csv,1,600,,Button-Switch at home,,,,,,,,,,,,,k
11,24,608,A,18.695582728458504,41.08590875556757,0.9347791364229252,0.6453759455627582,A,649.7472490882501,Correct,sub_011_day_24_data.csv,1,600,,Button-Switch at home,,,,,,,,,,,,,k
11,24,609,B,46.188633178221096,24.71782183683328,2.3094316589110546,0.3882666374766839,B,547.3392499843612,Correct,sub_011_day_24_data.csv,1,600,,Button-Switch at home,,,,,,,,,,,,,d
11,24,610,A,36.22671266905201,60.734842967638414,1.8113356334526003,0.9540206824203128,A,1494.907332933508,Correct,sub_011_day_24_data.csv,1,600,,Button-Switch at home,,,,,,,,,,,,,k
11,24,611,B,52.79797966311248,42.30568987983867,2.639898983155624,0.6645362226577461,B,1064.7854999406263,Correct,sub_011_day_24_data.csv,1,600,,Button-Switch at home,,,,,,,,,,,,,d
11,24,612,A,17.337959680910828,33.96554625088834,0.8668979840455414,0.5335295528847758,A,689.748206990771,Correct,sub_011_day_24_data.csv,1,600,,Button-Switch at home,,,,,,,,,,,,,k
11,24,613,B,37.27174115770035,24.593712896815216,1.863587057885017,0.3863171388056561,B,800.4899160005152,Correct,sub_011_day_24_data.csv,1,600,,Button-Switch at home,,,,,,,,,,,,,d
11,24,614,A,63.7311096196285,79.87299674193588,3.186555480981425,1.2546420989233364,A,778.6997909424827,Correct,sub_011_day_24_data.csv,1,600,,Button-Switch at home,,,,,,,,,,,,,k
11,24,615,B,50.91832287004341,35.34050024582521,2.5459161435021707,0.5551272797323638,B,524.5364990551025,Correct,sub_011_day_24_data.csv,1,600,,Button-Switch at home,,,,,,,,,,,,,d
11,24,616,B,60.24920775339,40.94773025972278,3.0124603876695,0.6432054428256078,B,564.0958750154823,Correct,sub_011_day_24_data.csv,1,600,,Button-Switch at home,,,,,,,,,,,,,d
11,24,617,A,49.85374500683422,74.59424755816694,2.492687250341711,1.171723700643978,A,779.9342500511557,Correct,sub_011_day_24_data.csv,1,600,,Button-Switch at home,,,,,,,,,,,,,k
11,24,618,B,49.95543127854509,26.815390598780084,2.4977715639272544,0.4212151705413416,B,653.4605829510838,Correct,sub_011_day_24_data.csv,1,600,,Button-Switch at home,,,,,,,,,,,,,d
11,24,619,B,89.46628962330419,67.42329674697555,4.473314481165209,1.059082668705515,B,708.8014569599181,Correct,sub_011_day_24_data.csv,1,600,,Button-Switch at home,,,,,,,,,,,,,d
11,24,620,A,29.54793448074844,62.69125089627786,1.4773967240374222,0.9847518663005052,A,726.4799569966272,Correct,sub_011_day_24_data.csv,1,600,,Button-Switch at home,,,,,,,,,,,,,k
11,24,621,A,16.193041297132282,44.49430927516171,0.8096520648566141,0.6989149757270011,A,529.07570800744,Correct,sub_011_day_24_data.csv,1,600,,Button-Switch at home,,,,,,,,,,,,,k
11,24,622,A,54.69032561145144,65.43028366631015,2.734516280572572,1.0277764924418809,A,946.6930830385536,Correct,sub_011_day_24_data.csv,1,600,,Button-Switch at home,,,,,,,,,,,,,k
11,24,623,A,55.89795252100455,63.99332028976311,2.7948976260502274,1.0052047245056923,B,495.72445696685463,Incorrect,sub_011_day_24_data.csv,0,600,,Button-Switch at home,,,,,,,,,,,,,d
11,24,624,A,42.63934426208868,67.51117431938093,2.131967213104434,1.0604630463849352,A,642.0976249501109,Correct,sub_011_day_24_data.csv,1,600,,Button-Switch at home,,,,,,,,,,,,,k
11,24,625,B,69.34127571189435,43.10748217525507,3.4670637855947177,0.6771307465826715,B,585.9668749617413,Correct,sub_011_day_24_data.csv,1,600,,Button-Switch at home,,,,,,,,,,,,,d
11,24,626,A,51.52331707595749,71.86171833564214,2.5761658537978747,1.1288012319879612,A,1268.853207002394,Correct,sub_011_day_24_data.csv,1,600,,Button-Switch at home,,,,,,,,,,,,,k
11,24,627,B,58.81502009287985,51.47056719471305,2.940751004643993,0.8084977788750517,B,1358.6686240741983,Correct,sub_011_day_24_data.csv,1,600,,Button-Switch at home,,,,,,,,,,,,,d
11,24,628,A,57.73122252364139,68.57146958151057,2.8865611261820696,1.077118125415648,A,3518.1874580448493,Correct,sub_011_day_24_data.csv,1,600,,Button-Switch at home,,,,,,,,,,,,,k
11,24,629,A,46.29513944400309,78.2429034438623,2.314756972200154,1.2290366532738668,A,768.7142909271643,Correct,sub_011_day_24_data.csv,1,600,,Button-Switch at home,,,,,,,,,,,,,k
11,24,630,B,61.93800236196298,39.80233998763377,3.0969001180981492,0.6252136945041674,B,649.58033291623,Correct,sub_011_day_24_data.csv,1,600,,Button-Switch at home,,,,,,,,,,,,,d
11,24,631,B,38.364330496227666,14.606582797825697,1.9182165248113832,0.2294396660585012,B,505.31720800790936,Correct,sub_011_day_24_data.csv,1,600,,Button-Switch at home,,,,,,,,,,,,,d
11,24,632,B,76.45866129054374,47.07118947780636,3.822933064527187,0.7393925152960481,B,503.64029104821384,Correct,sub_011_day_24_data.csv,1,600,,Button-Switch at home,,,,,,,,,,,,,d
11,24,633,A,53.530190732624106,60.81303251954066,2.676509536631205,0.9552488810295306,B,709.7834579180926,Incorrect,sub_011_day_24_data.csv,0,600,,Button-Switch at home,,,,,,,,,,,,,d
11,24,634,A,22.404915595603807,45.85055811085319,1.1202457797801904,0.7202188826202415,A,768.0770410224795,Correct,sub_011_day_24_data.csv,1,600,,Button-Switch at home,,,,,,,,,,,,,k
11,24,635,B,60.57756602339704,38.41930850152312,3.028878301169852,0.6034890867219247,B,683.0542070092633,Correct,sub_011_day_24_data.csv,1,600,,Button-Switch at home,,,,,,,,,,,,,d
11,24,636,B,57.576158343796344,36.280744981654145,2.878807917189817,0.5698966095056471,B,728.9306239690632,Correct,sub_011_day_24_data.csv,1,600,,Button-Switch at home,,,,,,,,,,,,,d
11,24,637,B,30.37966787606128,14.635388683375028,1.518983393803064,0.2298921478506109,B,799.142207019031,Correct,sub_011_day_24_data.csv,1,600,,Button-Switch at home,,,,,,,,,,,,,d
11,24,638,B,40.97390988962178,28.0285928149126,2.048695494481089,0.4402721063889454,B,675.2064579632133,Correct,sub_011_day_24_data.csv,1,600,,Button-Switch at home,,,,,,,,,,,,,d
11,24,639,A,30.59104069869032,44.802065260596834,1.5295520349345162,0.7037491954417074,A,3730.5472070584074,Correct,sub_011_day_24_data.csv,1,600,,Button-Switch at home,,,,,,,,,,,,,k
11,24,640,B,56.10481894287724,46.29694986820652,2.805240947143862,0.7272307879478629,B,1328.7179989274591,Correct,sub_011_day_24_data.csv,1,600,,Button-Switch at home,,,,,,,,,,,,,d
11,24,641,A,56.747008082882495,75.90523218221719,2.8373504041441246,1.1923165989634052,A,1048.414749908261,Correct,sub_011_day_24_data.csv,1,600,,Button-Switch at home,,,,,,,,,,,,,k
11,24,642,B,43.634664069372874,17.746866269904384,2.181733203468644,0.2787671234888605,B,524.6584579581395,Correct,sub_011_day_24_data.csv,1,600,,Button-Switch at home,,,,,,,,,,,,,d
11,24,643,B,64.93113367422683,50.63943764192444,3.2465566837113413,0.7954424263889412,B,509.51358303427696,Correct,sub_011_day_24_data.csv,1,600,,Button-Switch at home,,,,,,,,,,,,,d
11,24,644,A,28.401543149756044,56.844994063925114,1.4200771574878022,0.8929190787229128,A,663.980831974186,Correct,sub_011_day_24_data.csv,1,600,,Button-Switch at home,,,,,,,,,,,,,k
11,24,645,A,24.459724763507342,35.405787125213664,1.2229862381753671,0.5561528036356767,A,703.4617909230292,Correct,sub_011_day_24_data.csv,1,600,,Button-Switch at home,,,,,,,,,,,,,k
11,24,646,A,47.44790537975278,55.73733355158949,2.3723952689876393,0.8755199880817871,A,1185.891457949765,Correct,sub_011_day_24_data.csv,1,600,,Button-Switch at home,,,,,,,,,,,,,k
11,24,647,A,66.90393823597037,85.35477844892998,3.3451969117985185,1.3407497246197142,B,557.5154990656301,Incorrect,sub_011_day_24_data.csv,0,600,,Button-Switch at home,,,,,,,,,,,,,d
11,24,648,A,34.66597710520172,57.722326706339395,1.733298855260086,0.9067001876437288,A,788.8857070356607,Correct,sub_011_day_24_data.csv,1,600,,Button-Switch at home,,,,,,,,,,,,,k
11,24,649,B,72.60433212523071,60.564904384961366,3.630216606261535,0.9513512934058144,B,611.0211240593344,Correct,sub_011_day_24_data.csv,1,600,,Button-Switch at home,,,,,,,,,,,,,d
11,24,650,B,72.25182905695053,55.15787910196871,3.6125914528475263,0.8664179388716944,B,545.7216660724953,Correct,sub_011_day_24_data.csv,1,600,,Button-Switch at home,,,,,,,,,,,,,d
11,24,651,B,67.54088911183088,40.78573415619038,3.377044455591544,0.6406608139817699,B,516.0767490742728,Correct,sub_011_day_24_data.csv,1,600,,Button-Switch at home,,,,,,,,,,,,,d
11,24,652,B,67.10959388325873,48.532634409936115,3.3554796941629363,0.7623488386080725,B,1009.855081909336,Correct,sub_011_day_24_data.csv,1,600,,Button-Switch at home,,,,,,,,,,,,,d
11,24,653,A,29.11074842388408,43.95541086417286,1.455537421194204,0.6904499792820321,A,1496.9987489748746,Correct,sub_011_day_24_data.csv,1,600,,Button-Switch at home,,,,,,,,,,,,,k
11,24,654,B,65.01141280678318,53.81916210486666,3.250570640339159,0.8453894214550365,B,1044.6043749107048,Correct,sub_011_day_24_data.csv,1,600,,Button-Switch at home,,,,,,,,,,,,,d
11,24,655,A,49.2296341890943,70.87020617976356,2.461481709454715,1.113226595463696,A,930.3961240220816,Correct,sub_011_day_24_data.csv,1,600,,Button-Switch at home,,,,,,,,,,,,,k
11,24,656,B,81.3577225343003,53.4991824068666,4.067886126715015,0.8403631921123622,B,559.1235409956425,Correct,sub_011_day_24_data.csv,1,600,,Button-Switch at home,,,,,,,,,,,,,d
11,24,657,B,53.747167195909185,40.476989999610616,2.6873583597954593,0.6358110721110213,B,510.7691240264103,Correct,sub_011_day_24_data.csv,1,600,,Button-Switch at home,,,,,,,,,,,,,d
11,24,658,A,16.766802970425076,38.84220542846448,0.8383401485212538,0.610131936116448,A,646.8258330132812,Correct,sub_011_day_24_data.csv,1,600,,Button-Switch at home,,,,,,,,,,,,,k
11,24,659,B,89.63884268523341,67.89595496170386,4.48194213426167,1.0665071665807615,B,952.8616659808904,Correct,sub_011_day_24_data.csv,1,600,,Button-Switch at home,,,,,,,,,,,,,d
11,24,660,B,57.684283369128615,28.60379736798845,2.88421416845643,0.4493073983802179,B,790.799833019264,Correct,sub_011_day_24_data.csv,1,600,,Button-Switch at home,,,,,,,,,,,,,d
11,24,661,A,44.03683347672316,75.48945386388368,2.201841673836158,1.185785568411413,A,754.591541015543,Correct,sub_011_day_24_data.csv,1,600,,Button-Switch at home,,,,,,,,,,,,,k
11,24,662,A,35.5035299031134,43.38986684082644,1.7751764951556703,0.6815664345368985,A,2502.106749918312,Correct,sub_011_day_24_data.csv,1,600,,Button-Switch at home,,,,,,,,,,,,,k
11,24,663,A,49.21207721810433,61.57277198756711,2.4606038609052163,0.9671828406865012,A,659.0684580150992,Correct,sub_011_day_24_data.csv,1,600,,Button-Switch at home,,,,,,,,,,,,,k
11,24,664,A,39.928695570247406,70.72867965215389,1.9964347785123704,1.1110035019665627,A,774.1621660534292,Correct,sub_011_day_24_data.csv,1,600,,Button-Switch at home,,,,,,,,,,,,,k
11,24,665,B,64.0070869050279,54.085798004230625,3.2003543452513954,0.849577728368162,B,2091.3557910826057,Correct,sub_011_day_24_data.csv,1,600,,Button-Switch at home,,,,,,,,,,,,,d
11,24,666,A,23.41875447268376,37.67198620250972,1.170937723634188,0.591750175499703,A,750.2232909901068,Correct,sub_011_day_24_data.csv,1,600,,Button-Switch at home,,,,,,,,,,,,,k
11,24,667,A,66.66622685769457,78.67623359069304,3.3333113428847287,1.235843387303179,A,857.4306659866124,Correct,sub_011_day_24_data.csv,1,600,,Button-Switch at home,,,,,,,,,,,,,k
11,24,668,B,36.17512925408454,26.450114401640015,1.808756462704227,0.4154774254540093,B,732.8849990153685,Correct,sub_011_day_24_data.csv,1,600,,Button-Switch at home,,,,,,,,,,,,,d
11,24,669,A,32.9107499256117,52.26054716538584,1.6455374962805849,0.8209067552367953,A,1205.417082994245,Correct,sub_011_day_24_data.csv,1,600,,Button-Switch at home,,,,,,,,,,,,,k
11,24,670,A,48.662969140602,57.690270716240306,2.4331484570301,0.9061966533287348,A,2164.017832954414,Correct,sub_011_day_24_data.csv,1,600,,Button-Switch at home,,,,,,,,,,,,,k
11,24,671,A,15.576733199086943,33.69624295005164,0.7788366599543473,0.5292993465272955,A,695.5769159831107,Correct,sub_011_day_24_data.csv,1,600,,Button-Switch at home,,,,,,,,,,,,,k
11,24,672,A,32.55906344832212,45.274439570601544,1.627953172416106,0.7111692337519842,A,765.7746239565313,Correct,sub_011_day_24_data.csv,1,600,,Button-Switch at home,,,,,,,,,,,,,k
11,24,673,B,86.46609679560817,68.76165953337309,4.323304839780408,1.0801056221934373,B,665.1180409826338,Correct,sub_011_day_24_data.csv,1,600,,Button-Switch at home,,,,,,,,,,,,,d
11,24,674,B,58.06983908282693,37.57401182881079,2.903491954141346,0.5902111976364398,B,631.5182909602299,Correct,sub_011_day_24_data.csv,1,600,,Button-Switch at home,,,,,,,,,,,,,d
11,24,675,B,47.54044806380158,23.679212086403123,2.377022403190079,0.3719521936671934,B,539.0909160487354,Correct,sub_011_day_24_data.csv,1,600,,Button-Switch at home,,,,,,,,,,,,,d
11,24,676,A,43.50512597787505,59.92953350233846,2.1752562988937525,0.9413709109200497,A,802.5375819997862,Correct,sub_011_day_24_data.csv,1,600,,Button-Switch at home,,,,,,,,,,,,,k
11,24,677,A,56.50143192441457,64.47600436937557,2.825071596220728,1.0127867082982684,A,2290.841415990144,Correct,sub_011_day_24_data.csv,1,600,,Button-Switch at home,,,,,,,,,,,,,k
11,24,678,B,63.373549731972226,43.94408653065747,3.1686774865986114,0.6902720970671385,B,1207.2549989679828,Correct,sub_011_day_24_data.csv,1,600,,Button-Switch at home,,,,,,,,,,,,,d
11,24,679,B,51.65433563091693,38.659833471325655,2.5827167815458467,0.6072672441126075,A,901.892499998212,Incorrect,sub_011_day_24_data.csv,0,600,,Button-Switch at home,,,,,,,,,,,,,k
11,24,680,A,61.42657593240112,88.20454384616409,3.0713287966200564,1.3855137348017394,A,1438.2951239822432,Correct,sub_011_day_24_data.csv,1,600,,Button-Switch at home,,,,,,,,,,,,,k
11,24,681,A,12.87748758728183,33.838841052653144,0.6438743793640915,0.5315392722850392,A,585.9737910795957,Correct,sub_011_day_24_data.csv,1,600,,Button-Switch at home,,,,,,,,,,,,,k
11,24,682,B,32.89472314590041,19.977483240251026,1.6447361572950203,0.3138055729239292,B,1055.189957958646,Correct,sub_011_day_24_data.csv,1,600,,Button-Switch at home,,,,,,,,,,,,,d
11,24,683,A,30.920889918502063,60.54999630514373,1.5460444959251032,0.9511171178356432,A,776.1160830268636,Correct,sub_011_day_24_data.csv,1,600,,Button-Switch at home,,,,,,,,,,,,,k
11,24,684,B,59.69372251198549,36.496400296974315,2.9846861255992745,0.5732841152772343,B,776.6716239275411,Correct,sub_011_day_24_data.csv,1,600,,Button-Switch at home,,,,,,,,,,,,,d
11,24,685,A,23.55186575587381,38.31439669691298,1.1775932877936903,0.6018411359487342,A,1015.0976249715312,Correct,sub_011_day_24_data.csv,1,600,,Button-Switch at home,,,,,,,,,,,,,k
11,24,686,B,82.02780219960687,64.06399268814206,4.101390109980343,1.0063148439434868,B,981.0385829769076,Correct,sub_011_day_24_data.csv,1,600,,Button-Switch at home,,,,,,,,,,,,,d
11,24,687,B,51.408389533143826,28.325699248685304,2.5704194766571913,0.4449390433373184,B,784.366874024272,Correct,sub_011_day_24_data.csv,1,600,,Button-Switch at home,,,,,,,,,,,,,d
11,24,688,B,40.940791755310045,19.179052560565623,2.0470395877655023,0.3012638531354273,B,671.538582071662,Correct,sub_011_day_24_data.csv,1,600,,Button-Switch at home,,,,,,,,,,,,,d
11,24,689,B,71.65732373445688,41.34377380600133,3.5828661867228444,0.6494264803030595,B,523.1516660423949,Correct,sub_011_day_24_data.csv,1,600,,Button-Switch at home,,,,,,,,,,,,,d
11,24,690,B,71.90393571140497,44.35305805042971,3.5951967855702485,0.6966962066773581,B,742.1043330105022,Correct,sub_011_day_24_data.csv,1,600,,Button-Switch at home,,,,,,,,,,,,,d
11,24,691,A,34.05500793668294,49.64013557991155,1.702750396834147,0.779745426305257,A,1002.5094579905272,Correct,sub_011_day_24_data.csv,1,600,,Button-Switch at home,,,,,,,,,,,,,k
11,24,692,A,43.83076008411917,69.4819967078644,2.1915380042059582,1.091420652070885,A,579.733332968317,Correct,sub_011_day_24_data.csv,1,600,,Button-Switch at home,,,,,,,,,,,,,k
11,24,693,B,57.53247947576233,44.95493097421485,2.8766239737881163,0.7061504044561481,A,2102.9730830341578,Incorrect,sub_011_day_24_data.csv,0,600,,Button-Switch at home,,,,,,,,,,,,,k
11,24,694,A,51.16224132211536,76.29476135446548,2.5581120661057684,1.198435308892876,A,772.4024569615722,Correct,sub_011_day_24_data.csv,1,600,,Button-Switch at home,,,,,,,,,,,,,k
11,24,695,A,53.20143966938944,83.1836187890828,2.6600719834694724,1.306645228433982,A,589.5832069218159,Correct,sub_011_day_24_data.csv,1,600,,Button-Switch at home,,,,,,,,,,,,,k
11,24,696,B,57.13374344116514,32.32290723902092,2.856687172058257,0.5077270396238623,B,644.3316660588607,Correct,sub_011_day_24_data.csv,1,600,,Button-Switch at home,,,,,,,,,,,,,d
11,24,697,A,42.18215336858041,70.98666774868593,2.1091076684290204,1.1150559695104565,A,705.7406239910051,Correct,sub_011_day_24_data.csv,1,600,,Button-Switch at home,,,,,,,,,,,,,k
11,24,698,B,48.27340414739186,20.70421153098075,2.413670207369593,0.325220994220491,B,790.0236661080271,Correct,sub_011_day_24_data.csv,1,600,,Button-Switch at home,,,,,,,,,,,,,d
11,24,699,B,70.86902815706804,45.93241792701973,3.5434514078534023,0.7215047336057065,B,815.6871240353212,Correct,sub_011_day_24_data.csv,1,600,,Button-Switch at home,,,,,,,,,,,,,d
11,24,700,B,38.642188603670995,29.669424968698547,1.9321094301835495,0.4660462375894847,B,783.1413749372587,Correct,sub_011_day_24_data.csv,1,600,,Button-Switch at home,,,,,,,,,,,,,d
11,24,701,A,50.33621011651049,72.42761510377787,2.516810505825525,1.1376903176352884,A,969.0224989317358,Correct,sub_011_day_24_data.csv,1,600,,Button-Switch at home,,,,,,,,,,,,,k
11,24,702,B,79.97420107245425,57.15165251471388,3.998710053622713,0.8977360584037087,B,717.5946660572663,Correct,sub_011_day_24_data.csv,1,600,,Button-Switch at home,,,,,,,,,,,,,d
11,24,703,A,60.43542110800815,73.2894518954495,3.0217710554004076,1.1512280183018335,A,1064.1279160045087,Correct,sub_011_day_24_data.csv,1,600,,Button-Switch at home,,,,,,,,,,,,,k
11,24,704,B,73.5187105484672,43.80510736200772,3.67593552742336,0.6880890173909779,B,711.9374159956351,Correct,sub_011_day_24_data.csv,1,600,,Button-Switch at home,,,,,,,,,,,,,d
11,24,705,A,41.45364457444946,59.10784338261006,2.0726822287224733,0.9284638327017192,A,935.4850410018116,Correct,sub_011_day_24_data.csv,1,600,,Button-Switch at home,,,,,,,,,,,,,k
11,24,706,A,55.347416020877304,83.53242714184725,2.767370801043865,1.3121242972267595,A,699.6796240564436,Correct,sub_011_day_24_data.csv,1,600,,Button-Switch at home,,,,,,,,,,,,,k
11,24,707,A,67.69213205428233,81.895803129126,3.384606602714116,1.2864162673514912,A,642.4817489460111,Correct,sub_011_day_24_data.csv,1,600,,Button-Switch at home,,,,,,,,,,,,,k
11,24,708,A,28.08797569805243,42.88099820470431,1.4043987849026214,0.673573144692481,A,1066.6695820400491,Correct,sub_011_day_24_data.csv,1,600,,Button-Switch at home,,,,,,,,,,,,,k
11,24,709,B,71.65870756571418,43.90141576985054,3.582935378285709,0.6896018263237677,B,878.7889989325777,Correct,sub_011_day_24_data.csv,1,600,,Button-Switch at home,,,,,,,,,,,,,d
11,24,710,B,57.51834492189911,39.77678671112809,2.8759172460949554,0.6248123045754406,B,575.9369989391416,Correct,sub_011_day_24_data.csv,1,600,,Button-Switch at home,,,,,,,,,,,,,d
11,24,711,B,66.45042266609403,36.12631937190878,3.3225211333047016,0.5674708977001363,B,724.3303749710321,Correct,sub_011_day_24_data.csv,1,600,,Button-Switch at home,,,,,,,,,,,,,d
11,24,712,B,76.81573954672945,64.63122277775459,3.840786977336472,1.0152248733555955,B,834.5357079524547,Correct,sub_011_day_24_data.csv,1,600,,Button-Switch at home,,,,,,,,,,,,,d
11,24,713,A,62.00110519699422,82.37634635198579,3.100055259849711,1.2939646226448347,A,597.9633739916608,Correct,sub_011_day_24_data.csv,1,600,,Button-Switch at home,,,,,,,,,,,,,k
11,24,714,A,37.225465725011254,66.63477660256791,1.8612732862505623,1.046696623241122,A,1029.782874044031,Correct,sub_011_day_24_data.csv,1,600,,Button-Switch at home,,,,,,,,,,,,,k
11,24,715,B,48.520103137704695,20.794947692789872,2.4260051568852345,0.3266462745172633,B,832.3642070172355,Correct,sub_011_day_24_data.csv,1,600,,Button-Switch at home,,,,,,,,,,,,,d
11,24,716,A,57.45327862658169,77.5209515546706,2.8726639313290843,1.2176962595172172,A,525.8369999937713,Correct,sub_011_day_24_data.csv,1,600,,Button-Switch at home,,,,,,,,,,,,,k
11,24,717,B,47.73520503892337,28.03603837535136,2.3867602519461686,0.4403890609788268,B,683.5734990891069,Correct,sub_011_day_24_data.csv,1,600,,Button-Switch at home,,,,,,,,,,,,,d
11,24,718,A,33.63641233924725,53.68598810426792,1.6818206169623624,0.8432975291453856,A,523.1150409672409,Correct,sub_011_day_24_data.csv,1,600,,Button-Switch at home,,,,,,,,,,,,,k
11,24,719,A,20.212463973560304,36.85050493083925,1.0106231986780152,0.5788463778589952,A,718.0894160410389,Correct,sub_011_day_24_data.csv,1,600,,Button-Switch at home,,,,,,,,,,,,,k
11,24,720,A,54.89086519384631,78.07301860294466,2.7445432596923154,1.226368108432951,A,794.1140820039436,Correct,sub_011_day_24_data.csv,1,600,,Button-Switch at home,,,,,,,,,,,,,k
11,24,721,B,35.68908462260693,16.346575007430523,1.7844542311303462,0.2567713997734912,B,584.1052909381688,Correct,sub_011_day_24_data.csv,1,600,,Button-Switch at home,,,,,,,,,,,,,d
11,24,722,B,83.42596099764259,64.90932689613035,4.17129804988213,1.019593322631707,B,1028.1985409092158,Correct,sub_011_day_24_data.csv,1,600,,Button-Switch at home,,,,,,,,,,,,,d
11,24,723,A,50.894966962292344,70.15827130951142,2.544748348114618,1.1020435486726032,A,1098.9552909741178,Correct,sub_011_day_24_data.csv,1,600,,Button-Switch at home,,,,,,,,,,,,,k
11,24,724,B,65.60920309132487,33.60075039637272,3.2804601545662435,0.5277993530017443,B,756.5227909944952,Correct,sub_011_day_24_data.csv,1,600,,Button-Switch at home,,,,,,,,,,,,,d
11,24,725,B,64.85852917226694,39.94162366812647,3.2429264586133466,0.6274015574411717,B,678.8600409636274,Correct,sub_011_day_24_data.csv,1,600,,Button-Switch at home,,,,,,,,,,,,,d
11,24,726,A,19.163075453669457,48.37177449153083,0.9581537726834728,0.759822056918477,A,559.5774160465226,Correct,sub_011_day_24_data.csv,1,600,,Button-Switch at home,,,,,,,,,,,,,k
11,24,727,A,18.683619178317613,49.01667233288472,0.9341809589158808,0.7699520885220436,A,833.3769160090014,Correct,sub_011_day_24_data.csv,1,600,,Button-Switch at home,,,,,,,,,,,,,k
11,24,728,B,66.09204532688382,51.744893602307144,3.3046022663441907,0.812806888008968,B,1048.8647079328075,Correct,sub_011_day_24_data.csv,1,600,,Button-Switch at home,,,,,,,,,,,,,d
11,24,729,A,25.561750880507997,44.09465009570321,1.2780875440253998,0.6926371440163683,A,670.9092910168692,Correct,sub_011_day_24_data.csv,1,600,,Button-Switch at home,,,,,,,,,,,,,k
11,24,730,A,29.465546127492324,54.66649048699357,1.4732773063746163,0.8586992245573765,A,491.0660410532728,Correct,sub_011_day_24_data.csv,1,600,,Button-Switch at home,,,,,,,,,,,,,k
11,24,731,A,52.75418479146289,69.19157768432025,2.6377092395731445,1.0868587607167397,A,654.4039999134839,Correct,sub_011_day_24_data.csv,1,600,,Button-Switch at home,,,,,,,,,,,,,k
11,24,732,B,65.82235075519033,49.72971550869293,3.2911175377595163,0.7811525445361005,B,973.441498936154,Correct,sub_011_day_24_data.csv,1,600,,Button-Switch at home,,,,,,,,,,,,,d
11,24,733,A,32.586229634895574,63.33359521028167,1.6293114817447787,0.9948417871902532,A,622.7777081076056,Correct,sub_011_day_24_data.csv,1,600,,Button-Switch at home,,,,,,,,,,,,,k
11,24,734,B,75.8025755458311,43.18652006557292,3.7901287772915553,0.6783722708605603,B,642.2987079713494,Correct,sub_011_day_24_data.csv,1,600,,Button-Switch at home,,,,,,,,,,,,,d
11,24,735,B,57.01947282634866,39.45200973976169,2.8509736413174327,0.6197107198389414,B,543.4649580856785,Correct,sub_011_day_24_data.csv,1,600,,Button-Switch at home,,,,,,,,,,,,,d
11,24,736,B,59.49859730544471,26.53043956491321,2.9749298652722356,0.4167391701681966,B,735.850540921092,Correct,sub_011_day_24_data.csv,1,600,,Button-Switch at home,,,,,,,,,,,,,d
11,24,737,B,52.86480544044162,26.80626479579602,2.6432402720220813,0.4210718227632773,B,412.49154100660235,Correct,sub_011_day_24_data.csv,1,600,,Button-Switch at home,,,,,,,,,,,,,d
11,24,738,B,38.45389843249394,14.459686098470456,1.9226949216246971,0.2271322181008462,B,841.9197490438819,Correct,sub_011_day_24_data.csv,1,600,,Button-Switch at home,,,,,,,,,,,,,d
11,24,739,A,34.49422563652688,56.82895041311446,1.724711281826344,0.8926670656452951,A,823.5793750500306,Correct,sub_011_day_24_data.csv,1,600,,Button-Switch at home,,,,,,,,,,,,,k
11,24,740,B,50.63811964138005,39.29959002383121,2.531905982069002,0.6173165165397942,B,1242.7819989388809,Correct,sub_011_day_24_data.csv,1,600,,Button-Switch at home,,,,,,,,,,,,,d
11,24,741,A,28.7185318445897,59.344719005058984,1.435926592229485,0.9321846662782192,A,548.4456240665168,Correct,sub_011_day_24_data.csv,1,600,,Button-Switch at home,,,,,,,,,,,,,k
11,24,742,A,52.21983930015614,79.28199040793207,2.610991965007807,1.2453585931376794,A,614.4088750006631,Correct,sub_011_day_24_data.csv,1,600,,Button-Switch at home,,,,,,,,,,,,,k
11,24,743,A,52.65600423987266,69.02732473370625,2.6328002119936333,1.084278681401843,A,550.671249977313,Correct,sub_011_day_24_data.csv,1,600,,Button-Switch at home,,,,,,,,,,,,,k
11,24,744,A,22.305175817634375,47.49822988718344,1.1152587908817189,0.7461004503604733,A,555.056166020222,Correct,sub_011_day_24_data.csv,1,600,,Button-Switch at home,,,,,,,,,,,,,k
11,24,745,B,82.50712094627721,52.67401818916208,4.12535604731386,0.8274015428906337,B,924.9399160034956,Correct,sub_011_day_24_data.csv,1,600,,Button-Switch at home,,,,,,,,,,,,,d
11,24,746,B,54.315883669255896,27.05484928027809,2.7157941834627946,0.4249765787145037,B,542.7682489389554,Correct,sub_011_day_24_data.csv,1,600,,Button-Switch at home,,,,,,,,,,,,,d
11,24,747,B,73.54510604616404,52.33123355553127,3.677255302308202,0.8220170944567436,B,559.3690819805488,Correct,sub_011_day_24_data.csv,1,600,,Button-Switch at home,,,,,,,,,,,,,d
11,24,748,A,22.814480176818066,39.45013425111599,1.1407240088409032,0.6196812597321854,A,721.0912489099428,Correct,sub_011_day_24_data.csv,1,600,,Button-Switch at home,,,,,,,,,,,,,k
11,24,749,B,41.73426289938072,21.850260974558857,2.086713144969036,0.3432230967834692,B,849.2012489587069,Correct,sub_011_day_24_data.csv,1,600,,Button-Switch at home,,,,,,,,,,,,,d
11,24,750,B,65.03900448975962,50.821235337191645,3.251950224487981,0.7982980979083962,B,657.9416659660637,Correct,sub_011_day_24_data.csv,1,600,,Button-Switch at home,,,,,,,,,,,,,d
11,24,751,B,53.45240668340774,37.29435970620097,2.672620334170387,0.5858184323666809,B,718.418457894586,Correct,sub_011_day_24_data.csv,1,600,,Button-Switch at home,,,,,,,,,,,,,d
11,24,752,A,45.6589177611755,76.82083253152865,2.282945888058775,1.206698815618511,A,846.9190410105512,Correct,sub_011_day_24_data.csv,1,600,,Button-Switch at home,,,,,,,,,,,,,k
11,24,753,B,59.68108801335914,29.458486531935822,2.984054400667957,0.4627328243730172,B,838.2319580996409,Correct,sub_011_day_24_data.csv,1,600,,Button-Switch at home,,,,,,,,,,,,,d
11,24,754,A,22.609266638644485,45.1960513074722,1.130463331932224,0.7099379137941102,A,727.3319989908487,Correct,sub_011_day_24_data.csv,1,600,,Button-Switch at home,,,,,,,,,,,,,k
11,24,755,A,40.202177537199304,70.4358419340632,2.0101088768599653,1.1064036178473242,A,542.1572489431128,Correct,sub_011_day_24_data.csv,1,600,,Button-Switch at home,,,,,,,,,,,,,k
11,24,756,B,65.34523893562171,52.16989121620993,3.267261946781085,0.819482734917119,B,2319.639749941416,Correct,sub_011_day_24_data.csv,1,600,,Button-Switch at home,,,,,,,,,,,,,d
11,24,757,B,44.50006034670467,35.60654410659027,2.2250030173352338,0.5593062869249247,B,780.7454579742625,Correct,sub_011_day_24_data.csv,1,600,,Button-Switch at home,,,,,,,,,,,,,d
11,24,758,B,70.71620393089525,41.25297759824566,3.5358101965447624,0.6480002568067642,B,529.8079160274938,Correct,sub_011_day_24_data.csv,1,600,,Button-Switch at home,,,,,,,,,,,,,d
11,24,759,B,50.23374396520166,42.64530929534584,2.511687198260083,0.6698709519616151,B,622.2247070400044,Correct,sub_011_day_24_data.csv,1,600,,Button-Switch at home,,,,,,,,,,,,,d
11,24,760,B,68.06678326311733,58.58542134769509,3.4033391631558665,0.9202576465669076,B,1020.7091239281,Correct,sub_011_day_24_data.csv,1,600,,Button-Switch at home,,,,,,,,,,,,,d
11,24,761,A,43.95427339204915,68.98748834206648,2.1977136696024577,1.0836529328252378,A,683.6434570141137,Correct,sub_011_day_24_data.csv,1,600,,Button-Switch at home,,,,,,,,,,,,,k
11,24,762,B,50.26516987320909,43.36176989790503,2.5132584936604543,0.6811250887895474,B,916.9324580579996,Correct,sub_011_day_24_data.csv,1,600,,Button-Switch at home,,,,,,,,,,,,,d
11,24,763,B,56.58260628700483,26.65043923687966,2.829130314350242,0.4186241206076115,B,567.9535829694942,Correct,sub_011_day_24_data.csv,1,600,,Button-Switch at home,,,,,,,,,,,,,d
11,24,764,A,47.78557250737521,73.43553296361178,2.3892786253687603,1.1535226543546693,A,761.155248968862,Correct,sub_011_day_24_data.csv,1,600,,Button-Switch at home,,,,,,,,,,,,,k
11,24,765,B,78.77207409576687,57.724701562458065,3.9386037047883433,0.9067374917964076,B,569.3507909309119,Correct,sub_011_day_24_data.csv,1,600,,Button-Switch at home,,,,,,,,,,,,,d
11,24,766,B,46.14552580947161,18.184603430455045,2.3072762904735806,0.2856430827278066,B,531.1122079147026,Correct,sub_011_day_24_data.csv,1,600,,Button-Switch at home,,,,,,,,,,,,,d
11,24,767,B,63.139004002838114,40.65208614391933,3.1569502001419054,0.638561475914182,B,543.3702490990981,Correct,sub_011_day_24_data.csv,1,600,,Button-Switch at home,,,,,,,,,,,,,d
11,24,768,A,53.63165592085805,66.79042527366279,2.681582796042903,1.0491415468493854,A,1953.9941239636391,Correct,sub_011_day_24_data.csv,1,600,,Button-Switch at home,,,,,,,,,,,,,k
11,24,769,B,76.9889133528118,62.779459117389514,3.84944566764059,0.9861374377976582,B,605.9325410751626,Correct,sub_011_day_24_data.csv,1,600,,Button-Switch at home,,,,,,,,,,,,,d
11,24,770,A,17.582041163615987,34.501366959305635,0.8791020581807993,0.5419462048908011,A,1334.5314570469782,Correct,sub_011_day_24_data.csv,1,600,,Button-Switch at home,,,,,,,,,,,,,k
11,24,771,B,61.265393850379446,45.90205707126014,3.0632696925189724,0.7210278263986515,B,1545.0099570443854,Correct,sub_011_day_24_data.csv,1,600,,Button-Switch at home,,,,,,,,,,,,,d
11,24,772,A,16.095315323117145,39.60646728538948,0.8047657661558573,0.6221369332921203,A,498.4051660867408,Correct,sub_011_day_24_data.csv,1,600,,Button-Switch at home,,,,,,,,,,,,,k
11,24,773,B,31.18334667012145,16.500308908837276,1.5591673335060725,0.259186246249827,B,1042.8948749322444,Correct,sub_011_day_24_data.csv,1,600,,Button-Switch at home,,,,,,,,,,,,,d
11,24,774,B,65.47028185451516,56.44254212487421,3.273514092725758,0.8865973784471862,B,552.187665947713,Correct,sub_011_day_24_data.csv,1,600,,Button-Switch at home,,,,,,,,,,,,,d
11,24,775,B,52.160598320332944,26.82402454983771,2.608029916016647,0.4213507923274119,B,683.0587500007823,Correct,sub_011_day_24_data.csv,1,600,,Button-Switch at home,,,,,,,,,,,,,d
11,24,776,B,31.086183549280776,14.017045655806507,1.5543091774640387,0.2201792382865723,B,2292.1300820307806,Correct,sub_011_day_24_data.csv,1,600,,Button-Switch at home,,,,,,,,,,,,,d
11,24,777,B,71.83988870247624,52.80919510372963,3.591994435123812,0.8295248968993353,B,765.5183330643922,Correct,sub_011_day_24_data.csv,1,600,,Button-Switch at home,,,,,,,,,,,,,d
11,24,778,A,66.71545058606534,87.04680526136944,3.3357725293032674,1.367328019637898,A,792.9219159996137,Correct,sub_011_day_24_data.csv,1,600,,Button-Switch at home,,,,,,,,,,,,,k
11,24,779,A,36.64549592727319,46.181727379479874,1.8322747963636596,0.7254208773273028,A,955.9764160076156,Correct,sub_011_day_24_data.csv,1,600,,Button-Switch at home,,,,,,,,,,,,,k
11,24,780,A,20.527108308226005,42.51997890622624,1.0263554154113002,0.6679022668129666,A,643.2124570710585,Correct,sub_011_day_24_data.csv,1,600,,Button-Switch at home,,,,,,,,,,,,,k
11,24,781,B,74.81583595440812,63.54903290127636,3.7407917977204055,0.9982258745269292,B,2634.7234159475192,Correct,sub_011_day_24_data.csv,1,600,,Button-Switch at home,,,,,,,,,,,,,d
11,24,782,A,68.10525674783173,89.22436859163032,3.4052628373915867,1.4015331044432686,A,1032.671166001819,Correct,sub_011_day_24_data.csv,1,600,,Button-Switch at home,,,,,,,,,,,,,k
11,24,783,A,60.811945651082866,72.17621102705561,3.040597282554143,1.1337412716327226,A,600.537249003537,Correct,sub_011_day_24_data.csv,1,600,,Button-Switch at home,,,,,,,,,,,,,k
11,24,784,A,49.821653995354595,59.858417028454745,2.49108269976773,0.940253815960538,A,777.3937080055475,Correct,sub_011_day_24_data.csv,1,600,,Button-Switch at home,,,,,,,,,,,,,k
11,24,785,A,43.45812764550898,59.29845079059209,2.172906382275449,0.9314578868648998,A,518.1087909732014,Correct,sub_011_day_24_data.csv,1,600,,Button-Switch at home,,,,,,,,,,,,,k
11,24,786,B,76.67866800806925,56.30450785393606,3.833933400403463,0.8844291411895717,B,921.0828330833464,Correct,sub_011_day_24_data.csv,1,600,,Button-Switch at home,,,,,,,,,,,,,d
11,24,787,B,75.683395685033,55.67071291337131,3.78416978425165,0.8744735135437687,B,677.7368319453672,Correct,sub_011_day_24_data.csv,1,600,,Button-Switch at home,,,,,,,,,,,,,d
11,24,788,A,66.52501865151868,86.89140299073593,3.3262509325759337,1.3648869664790308,A,921.922625042498,Correct,sub_011_day_24_data.csv,1,600,,Button-Switch at home,,,,,,,,,,,,,k
11,24,789,A,36.22390831057822,66.89169971964812,1.811195415528911,1.050732362126905,A,545.7283329451457,Correct,sub_011_day_24_data.csv,1,600,,Button-Switch at home,,,,,,,,,,,,,k
11,24,790,A,58.28605410078802,83.51144487548959,2.9143027050394013,1.3117947085575352,A,685.2611660724506,Correct,sub_011_day_24_data.csv,1,600,,Button-Switch at home,,,,,,,,,,,,,k
11,24,791,B,84.31540764716118,56.62815617700808,4.215770382358059,0.8895129971601202,B,568.0208329576999,Correct,sub_011_day_24_data.csv,1,600,,Button-Switch at home,,,,,,,,,,,,,d
11,24,792,A,37.0693041739758,57.733697305143785,1.8534652086987904,0.9068787965920828,A,644.2121240543202,Correct,sub_011_day_24_data.csv,1,600,,Button-Switch at home,,,,,,,,,,,,,k
11,24,793,A,21.04080016283613,41.17658693671536,1.0520400081418066,0.6468003151014321,A,578.7217490142211,Correct,sub_011_day_24_data.csv,1,600,,Button-Switch at home,,,,,,,,,,,,,k
11,24,794,B,34.40893679936594,17.57442447121483,1.7204468399682968,0.2760584140491859,B,1023.660165956244,Correct,sub_011_day_24_data.csv,1,600,,Button-Switch at home,,,,,,,,,,,,,d
11,24,795,B,64.82330407872702,51.443357294356616,3.241165203936351,0.8080703667597283,B,1121.377415955067,Correct,sub_011_day_24_data.csv,1,600,,Button-Switch at home,,,,,,,,,,,,,d
11,24,796,A,53.34794452398761,64.24935805745027,2.6673972261993804,1.0092265563557297,A,919.5305409375578,Correct,sub_011_day_24_data.csv,1,600,,Button-Switch at home,,,,,,,,,,,,,k
11,24,797,B,45.29540845909563,34.76466205172895,2.264770422954782,0.5460820345312176,B,1088.1901659304276,Correct,sub_011_day_24_data.csv,1,600,,Button-Switch at home,,,,,,,,,,,,,d
11,24,798,B,70.59090747302608,57.577283235880145,3.529545373651304,0.9044218501374992,B,542.6323330029845,Correct,sub_011_day_24_data.csv,1,600,,Button-Switch at home,,,,,,,,,,,,,d
11,24,799,A,25.183126074936695,48.99854387126724,1.2591563037468347,0.7696673273128517,A,704.081290983595,Correct,sub_011_day_24_data.csv,1,600,,Button-Switch at home,,,,,,,,,,,,,k
11,24,800,B,42.54993393342665,15.43796431726339,2.1274966966713325,0.2424989764274801,B,1015.6416660174727,Correct,sub_011_day_24_data.csv,1,600,,Button-Switch at home,,,,,,,,,,,,,d
11,24,801,A,14.94341325563725,34.33120082064121,0.7471706627818625,0.5392732414352115,A,663.8698739698157,Correct,sub_011_day_24_data.csv,1,600,,Button-Switch at home,,,,,,,,,,,,,k
11,24,802,A,54.88302518317403,77.01958219229432,2.744151259158701,1.2098207679893356,A,998.3060830272734,Correct,sub_011_day_24_data.csv,1,600,,Button-Switch at home,,,,,,,,,,,,,k
11,24,803,A,35.703675107335116,52.17045758026747,1.785183755366756,0.8194916313429311,A,923.7510409438984,Correct,sub_011_day_24_data.csv,1,600,,Button-Switch at home,,,,,,,,,,,,,k
11,24,804,B,82.33170815245818,68.38690900091262,4.116585407622909,1.074219054594904,B,911.1547500360756,Correct,sub_011_day_24_data.csv,1,600,,Button-Switch at home,,,,,,,,,,,,,d
11,24,805,A,21.50668302575231,35.46599408097373,1.0753341512876156,0.5570985322852308,A,541.8300409801304,Correct,sub_011_day_24_data.csv,1,600,,Button-Switch at home,,,,,,,,,,,,,k
11,24,806,A,53.927957552256146,69.43284923019188,2.6963978776128075,1.0906486452968924,A,661.389123997651,Correct,sub_011_day_24_data.csv,1,600,,Button-Switch at home,,,,,,,,,,,,,k
11,24,807,B,86.82512338659389,65.90575506222355,4.341256169329694,1.035245179663849,B,685.0596240255982,Correct,sub_011_day_24_data.csv,1,600,,Button-Switch at home,,,,,,,,,,,,,d
11,24,808,B,31.2657550177052,12.044875367249103,1.5632877508852598,0.1892004598357722,B,766.4139579283074,Correct,sub_011_day_24_data.csv,1,600,,Button-Switch at home,,,,,,,,,,,,,d
11,24,809,A,30.256787758259264,46.0412502890408,1.5128393879129631,0.7232142683506977,A,940.6801660079508,Correct,sub_011_day_24_data.csv,1,600,,Button-Switch at home,,,,,,,,,,,,,k
11,24,810,A,23.848390776775215,37.43978806591827,1.1924195388387608,0.5881028156992383,A,505.40541601367295,Correct,sub_011_day_24_data.csv,1,600,,Button-Switch at home,,,,,,,,,,,,,k
11,24,811,A,21.168518871078017,42.12218599809316,1.0584259435539007,0.6616537504237615,A,488.9489999040961,Correct,sub_011_day_24_data.csv,1,600,,Button-Switch at home,,,,,,,,,,,,,k
11,24,812,B,82.66567681751074,56.22117003746547,4.133283840875538,0.8831200738296205,B,770.7104579312727,Correct,sub_011_day_24_data.csv,1,600,,Button-Switch at home,,,,,,,,,,,,,d
11,24,813,B,46.33037642795445,19.15074363145495,2.316518821397722,0.300819177516802,B,610.5789579451084,Correct,sub_011_day_24_data.csv,1,600,,Button-Switch at home,,,,,,,,,,,,,d
11,24,814,A,51.08797217446169,58.097332212702334,2.5543986087230848,0.9125907603629564,B,634.6889570122585,Incorrect,sub_011_day_24_data.csv,0,600,,Button-Switch at home,,,,,,,,,,,,,d
11,24,815,A,17.961278657532404,34.677410152688,0.8980639328766202,0.5447114849060236,A,642.2674580244347,Correct,sub_011_day_24_data.csv,1,600,,Button-Switch at home,,,,,,,,,,,,,k
11,24,816,A,21.00252271131215,42.65497722494684,1.0501261355656075,0.6700228154446646,A,474.5826239231974,Correct,sub_011_day_24_data.csv,1,600,,Button-Switch at home,,,,,,,,,,,,,k
11,24,817,A,43.52375024494226,53.43800157256946,2.1761875122471133,0.8394021658145202,A,1040.8806659979746,Correct,sub_011_day_24_data.csv,1,600,,Button-Switch at home,,,,,,,,,,,,,k
11,24,818,B,35.178193152381695,10.62784471168172,1.7589096576190848,0.1669417943485621,B,675.7001660298556,Correct,sub_011_day_24_data.csv,1,600,,Button-Switch at home,,,,,,,,,,,,,d
11,24,819,B,44.36523069903613,18.023189117668412,2.218261534951807,0.283107592631633,B,725.4391240421683,Correct,sub_011_day_24_data.csv,1,600,,Button-Switch at home,,,,,,,,,,,,,d
11,24,820,A,41.68574060814133,55.15939953575206,2.0842870304070664,0.8664418217897147,A,850.786373950541,Correct,sub_011_day_24_data.csv,1,600,,Button-Switch at home,,,,,,,,,,,,,k
11,24,821,B,79.46755281122108,58.23474412227955,3.973377640561054,0.914749221591174,B,797.8552910499275,Correct,sub_011_day_24_data.csv,1,600,,Button-Switch at home,,,,,,,,,,,,,d
11,24,822,A,36.26586617380449,50.96487568438804,1.8132933086902243,0.8005543952059527,A,1292.3777070827782,Correct,sub_011_day_24_data.csv,1,600,,Button-Switch at home,,,,,,,,,,,,,k
11,24,823,B,31.018285132536576,15.780307231692106,1.5509142566268286,0.247876486352369,B,672.0992909977213,Correct,sub_011_day_24_data.csv,1,600,,Button-Switch at home,,,,,,,,,,,,,d
11,24,824,B,71.22807493705317,48.12853112830869,3.5614037468526583,0.7560011991038111,B,880.9248330071568,Correct,sub_011_day_24_data.csv,1,600,,Button-Switch at home,,,,,,,,,,,,,d
11,24,825,B,55.41535823669238,40.52399752581518,2.7707679118346187,0.6365494646059597,B,643.83741596248,Correct,sub_011_day_24_data.csv,1,600,,Button-Switch at home,,,,,,,,,,,,,d
11,24,826,A,44.2926583566321,55.55406495984583,2.2146329178316053,0.872641211774509,A,951.472791028209,Correct,sub_011_day_24_data.csv,1,600,,Button-Switch at home,,,,,,,,,,,,,k
11,24,827,B,70.10637518693146,61.39849908219757,3.505318759346573,0.9644453682903577,B,841.6796660749242,Correct,sub_011_day_24_data.csv,1,600,,Button-Switch at home,,,,,,,,,,,,,d
11,24,828,B,48.25692314436961,25.785072456364144,2.4128461572184805,0.4050309710059706,B,705.254498985596,Correct,sub_011_day_24_data.csv,1,600,,Button-Switch at home,,,,,,,,,,,,,d
11,24,829,A,61.50061328068136,77.54746173376016,3.0750306640340677,1.2181126804365825,A,929.454874014482,Correct,sub_011_day_24_data.csv,1,600,,Button-Switch at home,,,,,,,,,,,,,k
11,24,830,B,52.41088932025461,42.97682728106263,2.620544466012731,0.6750784243039187,B,815.5990820378065,Correct,sub_011_day_24_data.csv,1,600,,Button-Switch at home,,,,,,,,,,,,,d
11,24,831,B,30.47197108586233,14.56332356257128,1.5235985542931163,0.2287601515801253,B,528.2823329325765,Correct,sub_011_day_24_data.csv,1,600,,Button-Switch at home,,,,,,,,,,,,,d
11,24,832,A,20.130815222428655,38.07737525492826,1.0065407611214328,0.5981180118443221,A,615.6160410027951,Correct,sub_011_day_24_data.csv,1,600,,Button-Switch at home,,,,,,,,,,,,,k
11,24,833,A,18.399299887602584,45.21562682948513,0.9199649943801292,0.7102454053748402,A,632.6219579204917,Correct,sub_011_day_24_data.csv,1,600,,Button-Switch at home,,,,,,,,,,,,,k
11,24,834,A,60.007664930387776,78.49475636893403,3.0003832465193887,1.232992749769819,A,1028.502665925771,Correct,sub_011_day_24_data.csv,1,600,,Button-Switch at home,,,,,,,,,,,,,k
11,24,835,B,49.78451710832579,20.57522046233835,2.489225855416289,0.3231948072523628,B,613.8540409738198,Correct,sub_011_day_24_data.csv,1,600,,Button-Switch at home,,,,,,,,,,,,,d
11,24,836,A,35.09316839588913,43.58113587050638,1.7546584197944566,0.6845708814294073,A,680.5540410568938,Correct,sub_011_day_24_data.csv,1,600,,Button-Switch at home,,,,,,,,,,,,,k
11,24,837,A,56.68082067608165,77.98029506117676,2.8340410338040827,1.2249116104447868,A,993.4796660672872,Correct,sub_011_day_24_data.csv,1,600,,Button-Switch at home,,,,,,,,,,,,,k
11,24,838,B,50.30367306643181,28.3222551316442,2.515183653321591,0.4448849432733462,B,972.7824160363524,Correct,sub_011_day_24_data.csv,1,600,,Button-Switch at home,,,,,,,,,,,,,d
11,24,839,B,65.13989620437269,41.87440357696455,3.2569948102186346,0.65776159325423,B,581.1778319766745,Correct,sub_011_day_24_data.csv,1,600,,Button-Switch at home,,,,,,,,,,,,,d
11,24,840,A,17.787066885733473,41.06602908136432,0.8893533442866738,0.6450636763705948,A,506.6112079657614,Correct,sub_011_day_24_data.csv,1,600,,Button-Switch at home,,,,,,,,,,,,,k
11,24,841,A,17.784290975335,41.01481940891157,0.88921454876675,0.6442592767167433,A,542.5314579624683,Correct,sub_011_day_24_data.csv,1,600,,Button-Switch at home,,,,,,,,,,,,,k
11,24,842,B,52.66831725355974,40.95056408768787,2.633415862677987,0.6432499564911911,B,908.9836250059308,Correct,sub_011_day_24_data.csv,1,600,,Button-Switch at home,,,,,,,,,,,,,d
11,24,843,B,66.91431701372501,51.245189881151035,3.3457158506862505,0.8049575603121905,B,574.4784160051495,Correct,sub_011_day_24_data.csv,1,600,,Button-Switch at home,,,,,,,,,,,,,d
11,24,844,A,24.17770588985621,51.488089891291835,1.2088852944928103,0.8087730247492667,A,515.1202490087599,Correct,sub_011_day_24_data.csv,1,600,,Button-Switch at home,,,,,,,,,,,,,k
11,24,845,A,47.09714728806391,55.05082152323126,2.3548573644031956,0.8647362823573309,A,756.369624985382,Correct,sub_011_day_24_data.csv,1,600,,Button-Switch at home,,,,,,,,,,,,,k
11,24,846,A,43.36071651461379,71.07346043690433,2.1680358257306893,1.1164193058689174,A,554.1246660286561,Correct,sub_011_day_24_data.csv,1,600,,Button-Switch at home,,,,,,,,,,,,,k
11,24,847,A,21.10681877735627,50.714340268280026,1.0553409388678134,0.7966189940924077,A,440.2918749256059,Correct,sub_011_day_24_data.csv,1,600,,Button-Switch at home,,,,,,,,,,,,,k
11,24,848,B,69.42388676383462,40.48086841488752,3.4711943381917307,0.6358719941157287,B,994.2435830598696,Correct,sub_011_day_24_data.csv,1,600,,Button-Switch at home,,,,,,,,,,,,,d
11,24,849,B,74.63254274481986,59.131097613542096,3.731627137240993,0.928829109307024,B,637.1640829602256,Correct,sub_011_day_24_data.csv,1,600,,Button-Switch at home,,,,,,,,,,,,,d
11,24,850,A,16.2891855020352,44.9435796643615,0.8144592751017599,0.7059720984979286,A,631.0523739084601,Correct,sub_011_day_24_data.csv,1,600,,Button-Switch at home,,,,,,,,,,,,,k
11,24,851,B,73.03030948564825,54.040442186392255,3.651515474282412,0.8488652808475692,B,523.3482079347596,Correct,sub_011_day_24_data.csv,1,600,,Button-Switch at home,,,,,,,,,,,,,d
11,24,852,B,83.85144494566008,66.64741276830742,4.192572247283004,1.0468951116684058,B,519.7215409716591,Correct,sub_011_day_24_data.csv,1,600,,Button-Switch at home,,,,,,,,,,,,,d
11,24,853,A,59.40167764456186,86.40085141722211,2.970083882228093,1.3571814003812412,A,602.3557910230011,Correct,sub_011_day_24_data.csv,1,600,,Button-Switch at home,,,,,,,,,,,,,k
11,24,854,B,48.32535911329969,38.68744874938441,2.4162679556649844,0.6077010238859885,B,585.2094580186531,Correct,sub_011_day_24_data.csv,1,600,,Button-Switch at home,,,,,,,,,,,,,d
11,24,855,A,42.188713355628266,51.78069673727525,2.1094356677814132,0.8133692823379245,A,858.1702490337193,Correct,sub_011_day_24_data.csv,1,600,,Button-Switch at home,,,,,,,,,,,,,k
11,24,856,A,24.50742526164526,55.495009819065245,1.225371263082263,0.8717135757923441,A,498.9349580137059,Correct,sub_011_day_24_data.csv,1,600,,Button-Switch at home,,,,,,,,,,,,,k
11,24,857,A,51.777079633740506,72.84515215683098,2.5888539816870253,1.1442489743276545,A,598.3594569843262,Correct,sub_011_day_24_data.csv,1,600,,Button-Switch at home,,,,,,,,,,,,,k
11,24,858,A,19.94287273830337,50.01209541928501,0.9971436369151686,0.7855881577992878,A,669.2618739325553,Correct,sub_011_day_24_data.csv,1,600,,Button-Switch at home,,,,,,,,,,,,,k
11,24,859,A,43.29687712901791,60.688202769501736,2.1648438564508954,0.953288059901172,A,559.0021659154445,Correct,sub_011_day_24_data.csv,1,600,,Button-Switch at home,,,,,,,,,,,,,k
11,24,860,A,33.63362064395477,57.448911177036614,1.6816810321977385,0.902405386552554,A,514.31291596964,Correct,sub_011_day_24_data.csv,1,600,,Button-Switch at home,,,,,,,,,,,,,k
11,24,861,A,17.90129083455446,46.80078134088349,0.895064541727723,0.7351449542139091,A,484.3437490053475,Correct,sub_011_day_24_data.csv,1,600,,Button-Switch at home,,,,,,,,,,,,,k
11,24,862,B,38.394617977547234,12.095143616561252,1.9197308988773616,0.1899900716495115,B,567.9061660775915,Correct,sub_011_day_24_data.csv,1,600,,Button-Switch at home,,,,,,,,,,,,,d
11,24,863,B,43.63341435332297,21.814478506752476,2.1816707176661483,0.3426610270935301,B,822.8769999695942,Correct,sub_011_day_24_data.csv,1,600,,Button-Switch at home,,,,,,,,,,,,,d
11,24,864,B,63.52089609479499,48.732308922802446,3.1760448047397496,0.7654853185217225,B,657.30783296749,Correct,sub_011_day_24_data.csv,1,600,,Button-Switch at home,,,,,,,,,,,,,d
11,24,865,A,16.847111278434827,47.40683566620231,0.8423555639217413,0.7446648332943988,A,612.789498991333,Correct,sub_011_day_24_data.csv,1,600,,Button-Switch at home,,,,,,,,,,,,,k
11,24,866,B,89.05684911071404,65.2992615012462,4.452842455535702,1.0257184010857694,B,1065.225666039623,Correct,sub_011_day_24_data.csv,1,600,,Button-Switch at home,,,,,,,,,,,,,d
11,24,867,A,63.97290056599938,86.67449819392371,3.1986450282999694,1.3614798338980627,A,657.1165410568938,Correct,sub_011_day_24_data.csv,1,600,,Button-Switch at home,,,,,,,,,,,,,k
11,24,868,B,77.70470909202976,53.82754013966684,3.885235454601488,0.8455210233179353,B,612.5859160674736,Correct,sub_011_day_24_data.csv,1,600,,Button-Switch at home,,,,,,,,,,,,,d
11,24,869,B,77.51567579914564,63.24442298157069,3.875783789957282,0.99344107309714,B,636.7476659361273,Correct,sub_011_day_24_data.csv,1,600,,Button-Switch at home,,,,,,,,,,,,,d
11,24,870,B,81.94056329961693,55.97850344403014,4.097028164980847,0.8793082758935801,B,683.8575409492478,Correct,sub_011_day_24_data.csv,1,600,,Button-Switch at home,,,,,,,,,,,,,d
11,24,871,A,51.945700249297815,77.71612258607101,2.5972850124648907,1.2207619989094225,A,540.5329159693792,Correct,sub_011_day_24_data.csv,1,600,,Button-Switch at home,,,,,,,,,,,,,k
11,24,872,B,50.403419291364145,33.26919075057386,2.5201709645682073,0.5225912262644017,B,502.0382499787957,Correct,sub_011_day_24_data.csv,1,600,,Button-Switch at home,,,,,,,,,,,,,d
11,24,873,B,88.57733614766538,61.98469261326801,4.428866807383269,0.9736532747443214,B,553.2686240039766,Correct,sub_011_day_24_data.csv,1,600,,Button-Switch at home,,,,,,,,,,,,,d
11,24,874,A,64.55149920559613,79.6327434238211,3.2275749602798065,1.2508682086273863,A,1047.1632500411945,Correct,sub_011_day_24_data.csv,1,600,,Button-Switch at home,,,,,,,,,,,,,k
11,24,875,A,30.2916050600936,61.50925457410752,1.51458025300468,0.9661851114890028,A,623.9346660440788,Correct,sub_011_day_24_data.csv,1,600,,Button-Switch at home,,,,,,,,,,,,,k
11,24,876,B,43.80897927223127,34.79433465264442,2.190448963611564,0.5465481306564625,B,553.5322909709066,Correct,sub_011_day_24_data.csv,1,600,,Button-Switch at home,,,,,,,,,,,,,d
11,24,877,A,39.64785379117311,57.39223777317678,1.9823926895586552,0.901515162806454,A,702.5733740301803,Correct,sub_011_day_24_data.csv,1,600,,Button-Switch at home,,,,,,,,,,,,,k
11,24,878,A,38.5332817915472,48.832601537537954,1.92666408957736,0.7670607112300344,A,948.491957038641,Correct,sub_011_day_24_data.csv,1,600,,Button-Switch at home,,,,,,,,,,,,,k
11,24,879,A,14.94206962493678,41.48631197305705,0.747103481246839,0.6516654645954515,A,532.1855410002172,Correct,sub_011_day_24_data.csv,1,600,,Button-Switch at home,,,,,,,,,,,,,k
11,24,880,B,62.16816064573498,34.40105670813396,3.1084080322867487,0.5403705351499976,B,661.9525409769267,Correct,sub_011_day_24_data.csv,1,600,,Button-Switch at home,,,,,,,,,,,,,d
11,24,881,B,57.403488105601056,25.652871676405898,2.870174405280053,0.4029543660103921,B,464.81333300471306,Correct,sub_011_day_24_data.csv,1,600,,Button-Switch at home,,,,,,,,,,,,,d
11,24,882,A,23.411170372181104,41.45101771406301,1.1705585186090552,0.6511110636716038,A,581.450333003886,Correct,sub_011_day_24_data.csv,1,600,,Button-Switch at home,,,,,,,,,,,,,k
11,24,883,A,34.01881093673752,51.66248260862542,1.700940546836876,0.8115123791473402,A,647.2650410141796,Correct,sub_011_day_24_data.csv,1,600,,Button-Switch at home,,,,,,,,,,,,,k
11,24,884,A,35.15347385960035,45.35019505353627,1.7576736929800176,0.7123591980952687,A,586.1820828868076,Correct,sub_011_day_24_data.csv,1,600,,Button-Switch at home,,,,,,,,,,,,,k
11,24,885,A,46.890325516594494,54.86087369048687,2.3445162758297244,0.8617525887777556,A,1660.3296240791678,Correct,sub_011_day_24_data.csv,1,600,,Button-Switch at home,,,,,,,,,,,,,k
11,24,886,A,22.635768154271886,33.843803507019814,1.1317884077135942,0.5316172223359497,A,867.4572909949347,Correct,sub_011_day_24_data.csv,1,600,,Button-Switch at home,,,,,,,,,,,,,k
11,24,887,B,42.00360815279946,33.71671972319044,2.1001804076399733,0.5296209949276058,B,1204.786540940404,Correct,sub_011_day_24_data.csv,1,600,,Button-Switch at home,,,,,,,,,,,,,d
11,24,888,B,80.15591611288411,50.94124380921018,4.007795805644206,0.8001831865787061,B,556.3508750637993,Correct,sub_011_day_24_data.csv,1,600,,Button-Switch at home,,,,,,,,,,,,,d
11,24,889,A,24.812207011969853,52.37639824414129,1.240610350598493,0.8227265397264382,A,502.4317909264937,Correct,sub_011_day_24_data.csv,1,600,,Button-Switch at home,,,,,,,,,,,,,k
11,24,890,B,49.204707533161866,32.14918381219012,2.460235376658093,0.5049981984164218,B,616.4581249468029,Correct,sub_011_day_24_data.csv,1,600,,Button-Switch at home,,,,,,,,,,,,,d
11,24,891,B,60.506718102985175,41.354338772021336,3.0253359051492588,0.6495924344012289,B,458.36666598916054,Correct,sub_011_day_24_data.csv,1,600,,Button-Switch at home,,,,,,,,,,,,,d
11,24,892,B,72.759969984208,59.87848292400937,3.6379984992104,0.9405690103108484,B,516.7971240589395,Correct,sub_011_day_24_data.csv,1,600,,Button-Switch at home,,,,,,,,,,,,,d
11,24,893,A,45.88355336072667,67.94597890908051,2.2941776680363337,1.0672929409086718,A,614.9037909926847,Correct,sub_011_day_24_data.csv,1,600,,Button-Switch at home,,,,,,,,,,,,,k
11,24,894,B,61.85587419525905,30.2257002901026,3.0927937097629523,0.474784189904966,B,449.4397070957348,Correct,sub_011_day_24_data.csv,1,600,,Button-Switch at home,,,,,,,,,,,,,d
11,24,895,B,67.2222284865704,56.96010270250737,3.3611114243285205,0.8947272009895865,B,785.8768739970401,Correct,sub_011_day_24_data.csv,1,600,,Button-Switch at home,,,,,,,,,,,,,d
11,24,896,B,59.48494233795679,42.93832434830043,2.974247116897839,0.6744736216503818,B,542.2874570358545,Correct,sub_011_day_24_data.csv,1,600,,Button-Switch at home,,,,,,,,,,,,,d
11,24,897,B,45.14095259519132,32.172958983213846,2.2570476297595663,0.5053716579295519,B,943.6424160376192,Correct,sub_011_day_24_data.csv,1,600,,Button-Switch at home,,,,,,,,,,,,,d
11,24,898,A,43.73341800140107,67.48619209017943,2.1866709000700535,1.0600706264462865,A,752.9987080488354,Correct,sub_011_day_24_data.csv,1,600,,Button-Switch at home,,,,,,,,,,,,,k
11,24,899,A,60.90681802022035,84.29366582731097,3.045340901011018,1.324081806536166,A,456.64791599847376,Correct,sub_011_day_24_data.csv,1,600,,Button-Switch at home,,,,,,,,,,,,,k
11,24,900,B,46.64114180103858,26.80911173405612,2.332057090051929,0.4211165423648931,B,526.6273330198601,Correct,sub_011_day_24_data.csv,1,600,,Button-Switch at home,,,,,,,,,,,,,d
11,24,901,A,39.90665509983103,54.99915248234131,1.9953327549915512,0.8639246669609414,A,408.35304104257375,Correct,sub_011_day_24_data.csv,1,600,,Button-Switch at home,,,,,,,,,,,,,k
11,24,902,B,33.42379002269925,13.602435131838972,1.6711895011349625,0.2136665514055851,B,655.8888740837574,Correct,sub_011_day_24_data.csv,1,600,,Button-Switch at home,,,,,,,,,,,,,d
11,24,903,B,77.64995182980603,53.49528422019702,3.882497591490301,0.8403019595393447,B,533.6964160669595,Correct,sub_011_day_24_data.csv,1,600,,Button-Switch at home,,,,,,,,,,,,,d
11,24,904,A,32.87800433383376,42.389721524662065,1.6439002166916878,0.6658561886479774,B,504.5902489218861,Incorrect,sub_011_day_24_data.csv,0,600,,Button-Switch at home,,,,,,,,,,,,,d
11,24,905,A,51.357291781966,75.735804773467,2.5678645890983,1.1896552394501736,A,527.562623959966,Correct,sub_011_day_24_data.csv,1,600,,Button-Switch at home,,,,,,,,,,,,,k
11,24,906,B,77.36126325320302,62.710107884777415,3.868063162660151,0.9850480711832004,B,508.4929990116507,Correct,sub_011_day_24_data.csv,1,600,,Button-Switch at home,,,,,,,,,,,,,d
11,24,907,B,58.60859145695617,44.06082517276583,2.9304295728478085,0.6921058233693268,B,477.1696660900489,Correct,sub_011_day_24_data.csv,1,600,,Button-Switch at home,,,,,,,,,,,,,d
11,24,908,A,56.99483885311236,80.70934220932257,2.8497419426556183,1.267779382804362,A,597.2245829179883,Correct,sub_011_day_24_data.csv,1,600,,Button-Switch at home,,,,,,,,,,,,,k
11,24,909,B,41.23258856554898,18.10222621095,2.061629428277449,0.2843491043897055,B,535.1422490784898,Correct,sub_011_day_24_data.csv,1,600,,Button-Switch at home,,,,,,,,,,,,,d
11,24,910,A,34.841382917810726,46.24920676358411,1.7420691458905364,0.7264808410141561,A,760.3869159938768,Correct,sub_011_day_24_data.csv,1,600,,Button-Switch at home,,,,,,,,,,,,,k
11,24,911,A,36.36302450805861,46.47465340415267,1.8181512254029304,0.7300221485630894,A,636.8853329913691,Correct,sub_011_day_24_data.csv,1,600,,Button-Switch at home,,,,,,,,,,,,,k
11,24,912,A,66.00991965032155,82.58539411292361,3.300495982516077,1.2972483371948929,B,693.1798320729285,Incorrect,sub_011_day_24_data.csv,0,600,,Button-Switch at home,,,,,,,,,,,,,d
11,24,913,B,72.59467223555443,44.19004617355392,3.6297336117777217,0.6941356221031536,B,540.8475820440799,Correct,sub_011_day_24_data.csv,1,600,,Button-Switch at home,,,,,,,,,,,,,d
11,24,914,B,67.93854601410247,37.95063746633236,3.3969273007051237,0.5961272193163965,B,470.60524905100465,Correct,sub_011_day_24_data.csv,1,600,,Button-Switch at home,,,,,,,,,,,,,d
11,24,915,A,63.24987209675801,78.60454268026865,3.1624936048379,1.2347172691155868,A,911.3796239253134,Correct,sub_011_day_24_data.csv,1,600,,Button-Switch at home,,,,,,,,,,,,,k
11,24,916,B,88.26841100976087,61.364194845420506,4.413420550488044,0.9639065185991288,B,744.4886239245534,Correct,sub_011_day_24_data.csv,1,600,,Button-Switch at home,,,,,,,,,,,,,d
11,24,917,A,57.909945484676975,66.03878804204352,2.8954972742338487,1.0373348568242868,A,1422.8429580107331,Correct,sub_011_day_24_data.csv,1,600,,Button-Switch at home,,,,,,,,,,,,,k
11,24,918,A,57.262170151396035,76.4056094589231,2.8631085075698017,1.2001765068460182,A,745.4719160450622,Correct,sub_011_day_24_data.csv,1,600,,Button-Switch at home,,,,,,,,,,,,,k
11,24,919,A,45.5973425735511,73.77314120858564,2.279867128677555,1.1588257922656753,A,568.495708052069,Correct,sub_011_day_24_data.csv,1,600,,Button-Switch at home,,,,,,,,,,,,,k
11,24,920,A,25.91191072365543,39.849156411000536,1.2955955361827716,0.6259490851627494,A,609.1167079284787,Correct,sub_011_day_24_data.csv,1,600,,Button-Switch at home,,,,,,,,,,,,,k
11,24,921,A,30.49276879733599,45.425740820507954,1.5246384398667996,0.7135458682279089,A,590.1209989096969,Correct,sub_011_day_24_data.csv,1,600,,Button-Switch at home,,,,,,,,,,,,,k
11,24,922,B,43.73306214365064,25.865597674268535,2.186653107182532,0.4062958581709562,B,645.4286240041256,Correct,sub_011_day_24_data.csv,1,600,,Button-Switch at home,,,,,,,,,,,,,d
11,24,923,A,30.96919104963044,48.89165282543942,1.548459552481522,0.7679882866913158,A,1011.9634569855408,Correct,sub_011_day_24_data.csv,1,600,,Button-Switch at home,,,,,,,,,,,,,k
11,24,924,A,46.78808146045185,66.31470952335783,2.3394040730225925,1.0416690213176103,A,613.9599159359932,Correct,sub_011_day_24_data.csv,1,600,,Button-Switch at home,,,,,,,,,,,,,k
11,24,925,B,84.60980407700126,58.04363401865348,4.230490203850064,0.9117472711032818,B,646.7261239886284,Correct,sub_011_day_24_data.csv,1,600,,Button-Switch at home,,,,,,,,,,,,,d
11,24,926,B,40.51663870946243,23.769301077522965,2.0258319354731213,0.3733673082305505,B,481.74624994862825,Correct,sub_011_day_24_data.csv,1,600,,Button-Switch at home,,,,,,,,,,,,,d
11,24,927,B,42.04824940077911,32.0679285847113,2.102412470038956,0.5037218442878557,B,521.5466250665486,Correct,sub_011_day_24_data.csv,1,600,,Button-Switch at home,,,,,,,,,,,,,d
11,24,928,B,55.13245411028855,41.25608036108786,2.7566227055144275,0.6480489948915188,A,2160.945206996985,Incorrect,sub_011_day_24_data.csv,0,600,,Button-Switch at home,,,,,,,,,,,,,k
11,24,929,B,86.29103759149592,68.25216040663445,4.314551879574796,1.0721024286255747,B,984.2634989181532,Correct,sub_011_day_24_data.csv,1,600,,Button-Switch at home,,,,,,,,,,,,,d
11,24,930,A,15.373822848381014,36.151021072864,0.7686911424190507,0.5678589111113967,A,893.6490829801187,Correct,sub_011_day_24_data.csv,1,600,,Button-Switch at home,,,,,,,,,,,,,k
11,24,931,A,53.19867523432637,68.82237903238536,2.659933761716319,1.0810594018535704,A,1578.0359159689397,Correct,sub_011_day_24_data.csv,1,600,,Button-Switch at home,,,,,,,,,,,,,k
11,24,932,B,57.15035730802388,29.570548393873377,2.857517865401194,0.4644930879840703,B,1119.5531249977648,Correct,sub_011_day_24_data.csv,1,600,,Button-Switch at home,,,,,,,,,,,,,d
11,24,933,B,79.97461483377126,50.70969270001885,3.998730741688563,0.7965459902608758,B,751.0261250426993,Correct,sub_011_day_24_data.csv,1,600,,Button-Switch at home,,,,,,,,,,,,,d
11,24,934,A,25.650610140205707,42.99659947302095,1.2825305070102857,0.6753890051689269,A,1303.3486240310594,Correct,sub_011_day_24_data.csv,1,600,,Button-Switch at home,,,,,,,,,,,,,k
11,24,935,A,42.597125628252655,52.41117597858637,2.129856281412633,0.8232728271016438,A,849.9081660993397,Correct,sub_011_day_24_data.csv,1,600,,Button-Switch at home,,,,,,,,,,,,,k
11,24,936,B,60.725931934768425,30.812397488391767,3.0362965967384214,0.4840000079451008,B,893.4915818972513,Correct,sub_011_day_24_data.csv,1,600,,Button-Switch at home,,,,,,,,,,,,,d
11,24,937,A,30.197834278630793,61.87824141642111,1.5098917139315398,0.9719811432544212,A,582.3450000025332,Correct,sub_011_day_24_data.csv,1,600,,Button-Switch at home,,,,,,,,,,,,,k
11,24,938,A,32.4543682194726,63.45312733230664,1.62271841097363,0.9967193933723612,A,523.0219990480691,Correct,sub_011_day_24_data.csv,1,600,,Button-Switch at home,,,,,,,,,,,,,k
11,24,939,B,42.56163370135633,18.03330370830996,2.1280816850678166,0.2832664722499007,B,487.2571660671383,Correct,sub_011_day_24_data.csv,1,600,,Button-Switch at home,,,,,,,,,,,,,d
11,24,940,A,57.6192185204325,67.84533583782128,2.8809609260216247,1.0657120432421583,A,830.5825410643592,Correct,sub_011_day_24_data.csv,1,600,,Button-Switch at home,,,,,,,,,,,,,k
11,24,941,B,71.33849868800424,49.183948144914055,3.5669249344002116,0.7725796508330167,B,567.914207931608,Correct,sub_011_day_24_data.csv,1,600,,Button-Switch at home,,,,,,,,,,,,,d
11,24,942,B,54.258225851082145,24.074029290915515,2.7129112925541072,0.3781539678132284,B,510.21787396166474,Correct,sub_011_day_24_data.csv,1,600,,Button-Switch at home,,,,,,,,,,,,,d
11,24,943,B,83.07431432264079,68.27104862556928,4.15371571613204,1.0723991240748,A,504.1182490531355,Incorrect,sub_011_day_24_data.csv,0,600,,Button-Switch at home,,,,,,,,,,,,,k
11,24,944,A,49.593638428776885,71.34835926579053,2.4796819214388446,1.1207374065754638,A,699.3175829993561,Correct,sub_011_day_24_data.csv,1,600,,Button-Switch at home,,,,,,,,,,,,,k
11,24,945,B,31.01101937123128,13.685885263488082,1.5505509685615642,0.2149773830082348,B,641.0349570214748,Correct,sub_011_day_24_data.csv,1,600,,Button-Switch at home,,,,,,,,,,,,,d
11,24,946,B,55.939265113843945,42.57418239067631,2.796963255692197,0.6687536931557031,B,618.180290912278,Correct,sub_011_day_24_data.csv,1,600,,Button-Switch at home,,,,,,,,,,,,,d
11,24,947,A,36.345356535523955,63.86749468136908,1.817267826776198,1.0032282604708715,A,635.7944159535691,Correct,sub_011_day_24_data.csv,1,600,,Button-Switch at home,,,,,,,,,,,,,k
11,24,948,B,60.43337478961598,28.20387907808423,3.0216687394807993,0.4430254965722214,B,554.3425410287455,Correct,sub_011_day_24_data.csv,1,600,,Button-Switch at home,,,,,,,,,,,,,d
11,24,949,A,33.02015795878504,57.52377397286136,1.651007897939252,0.9035813285995048,A,643.312249914743,Correct,sub_011_day_24_data.csv,1,600,,Button-Switch at home,,,,,,,,,,,,,k
11,24,950,B,44.453033404328515,21.87067381763407,2.222651670216426,0.3435437409726892,B,923.9075819496064,Correct,sub_011_day_24_data.csv,1,600,,Button-Switch at home,,,,,,,,,,,,,d
11,24,951,A,21.13005410613253,47.60498234731943,1.0565027053066265,0.7477773140830525,A,682.5502080610022,Correct,sub_011_day_24_data.csv,1,600,,Button-Switch at home,,,,,,,,,,,,,k
11,24,952,B,53.17546971369841,37.19047140364234,2.6587734856849203,0.5841865587261204,B,998.8887500949204,Correct,sub_011_day_24_data.csv,1,600,,Button-Switch at home,,,,,,,,,,,,,d
11,24,953,B,47.96820690857879,23.24896961750804,2.39841034542894,0.3651939607694778,B,753.5247909836471,Correct,sub_011_day_24_data.csv,1,600,,Button-Switch at home,,,,,,,,,,,,,d
11,24,954,B,53.87998056907245,36.597003629735475,2.6939990284536224,0.5748643887328798,B,609.8284990293905,Correct,sub_011_day_24_data.csv,1,600,,Button-Switch at home,,,,,,,,,,,,,d
11,24,955,A,40.145684248387674,48.03099956550692,2.0072842124193837,0.7544691768978554,A,905.9924989705904,Correct,sub_011_day_24_data.csv,1,600,,Button-Switch at home,,,,,,,,,,,,,k
11,24,956,A,33.52644196329519,62.44686330070404,1.6763220981647595,0.9809130349260894,A,551.2915001017973,Correct,sub_011_day_24_data.csv,1,600,,Button-Switch at home,,,,,,,,,,,,,k
11,24,957,A,51.716370665591384,75.17471869467079,2.5858185332795696,1.180841719934285,A,568.2414999464527,Correct,sub_011_day_24_data.csv,1,600,,Button-Switch at home,,,,,,,,,,,,,k
11,24,958,A,19.969651723716353,37.9992583734838,0.9984825861858176,0.5968909547399855,A,732.1512079797685,Correct,sub_011_day_24_data.csv,1,600,,Button-Switch at home,,,,,,,,,,,,,k
11,24,959,A,62.64039328782232,82.45377762455247,3.1320196643911165,1.2951809102301026,A,722.8050830308348,Correct,sub_011_day_24_data.csv,1,600,,Button-Switch at home,,,,,,,,,,,,,k
11,24,960,B,74.84787382304229,55.73476943292866,3.7423936911521145,0.8754797110000482,B,882.5155409285799,Correct,sub_011_day_24_data.csv,1,600,,Button-Switch at home,,,,,,,,,,,,,d
11,24,961,A,67.58404062375332,85.13803405117787,3.379202031187666,1.3373451115812902,A,645.605999045074,Correct,sub_011_day_24_data.csv,1,600,,Button-Switch at home,,,,,,,,,,,,,k
11,24,962,B,72.49479549732658,55.20516300494265,3.624739774866329,0.8671606726827744,B,781.951833050698,Correct,sub_011_day_24_data.csv,1,600,,Button-Switch at home,,,,,,,,,,,,,d
11,24,963,B,71.93075910905858,45.55638340007362,3.5965379554529293,0.7155979970689563,B,633.0934159923345,Correct,sub_011_day_24_data.csv,1,600,,Button-Switch at home,,,,,,,,,,,,,d
11,24,964,B,61.30863415245024,36.65646266753683,3.065431707622512,0.5757983691146111,B,573.839457007125,Correct,sub_011_day_24_data.csv,1,600,,Button-Switch at home,,,,,,,,,,,,,d
11,24,965,A,39.37677200634861,70.48567730847627,1.9688386003174303,1.1071864300780492,A,682.0632909657434,Correct,sub_011_day_24_data.csv,1,600,,Button-Switch at home,,,,,,,,,,,,,k
11,24,966,A,33.57034493571632,47.586910102569895,1.678517246785816,0.7474934359263574,A,559.4699990469962,Correct,sub_011_day_24_data.csv,1,600,,Button-Switch at home,,,,,,,,,,,,,k
11,24,967,A,32.230518848267124,56.59754895415421,1.6115259424133563,0.8890322200277977,A,544.8607499711215,Correct,sub_011_day_24_data.csv,1,600,,Button-Switch at home,,,,,,,,,,,,,k
11,24,968,A,65.29800551218256,78.39343275559229,3.264900275609128,1.2314011621732708,A,675.7867069682106,Correct,sub_011_day_24_data.csv,1,600,,Button-Switch at home,,,,,,,,,,,,,k
11,24,969,B,50.35190814453183,32.352954159439534,2.5175954072265916,0.5081990155461129,B,555.6199159473181,Correct,sub_011_day_24_data.csv,1,600,,Button-Switch at home,,,,,,,,,,,,,d
11,24,970,A,27.87978182858747,46.62357673877788,1.393989091429373,0.7323614308331227,A,677.7026660274714,Correct,sub_011_day_24_data.csv,1,600,,Button-Switch at home,,,,,,,,,,,,,k
11,24,971,A,40.5193039182687,52.11328870171578,2.0259651959134346,0.8185936246985712,A,687.9875819431618,Correct,sub_011_day_24_data.csv,1,600,,Button-Switch at home,,,,,,,,,,,,,k
11,24,972,B,48.39205636536605,38.93883086572786,2.4196028182683027,0.6116497249357307,B,1440.5097489943728,Correct,sub_011_day_24_data.csv,1,600,,Button-Switch at home,,,,,,,,,,,,,d
11,24,973,A,24.18538223266778,42.11113144427712,1.209269111633389,0.6614801058984756,A,718.8874159473926,Correct,sub_011_day_24_data.csv,1,600,,Button-Switch at home,,,,,,,,,,,,,k
11,24,974,A,35.64664910142428,58.51624723124911,1.782332455071214,0.9191710620866814,A,532.8512080013752,Correct,sub_011_day_24_data.csv,1,600,,Button-Switch at home,,,,,,,,,,,,,k
11,24,975,A,39.271285440673914,51.227926761812824,1.963564272033696,0.8046863918677357,A,585.0112079642713,Correct,sub_011_day_24_data.csv,1,600,,Button-Switch at home,,,,,,,,,,,,,k
11,24,976,A,28.083077961843387,57.938724516275585,1.4041538980921695,0.9100993564934712,A,549.4334580143914,Correct,sub_011_day_24_data.csv,1,600,,Button-Switch at home,,,,,,,,,,,,,k
11,24,977,A,13.63798913418258,35.765770299337134,0.6818994567091289,0.5618074061118878,A,514.3354159081355,Correct,sub_011_day_24_data.csv,1,600,,Button-Switch at home,,,,,,,,,,,,,k
11,24,978,A,27.211970188889303,39.82102402062557,1.360598509444465,0.6255071826080999,A,470.5144159961492,Correct,sub_011_day_24_data.csv,1,600,,Button-Switch at home,,,,,,,,,,,,,k
11,24,979,A,39.035345930655865,67.89600958171202,1.9517672965327932,1.0665080245498435,A,736.8586659431458,Correct,sub_011_day_24_data.csv,1,600,,Button-Switch at home,,,,,,,,,,,,,k
11,24,980,A,26.441442908350357,40.46764578609604,1.322072145417518,0.6356642935483664,A,625.5219160811976,Correct,sub_011_day_24_data.csv,1,600,,Button-Switch at home,,,,,,,,,,,,,k
11,24,981,B,48.929668829294584,35.59150696237749,2.4464834414647294,0.5590700840159755,B,1201.4326659264043,Correct,sub_011_day_24_data.csv,1,600,,Button-Switch at home,,,,,,,,,,,,,d
11,24,982,A,55.82581236556091,76.07477919348194,2.7912906182780457,1.1949798371885427,A,1019.005790934898,Correct,sub_011_day_24_data.csv,1,600,,Button-Switch at home,,,,,,,,,,,,,k
11,24,983,A,51.379207377019235,64.54951421771366,2.568960368850962,1.013941398295796,A,639.5575409987941,Correct,sub_011_day_24_data.csv,1,600,,Button-Switch at home,,,,,,,,,,,,,k
11,24,984,A,63.02374491349872,81.37840083547428,3.151187245674937,1.2782889311280574,A,654.0688750101253,Correct,sub_011_day_24_data.csv,1,600,,Button-Switch at home,,,,,,,,,,,,,k
11,24,985,B,53.0039523500588,43.227156760320725,2.65019761750294,0.6790105905689897,B,751.6281659482047,Correct,sub_011_day_24_data.csv,1,600,,Button-Switch at home,,,,,,,,,,,,,d
11,24,986,A,55.56653596451219,80.13991142348517,2.77832679822561,1.258834784936789,A,766.9034990249202,Correct,sub_011_day_24_data.csv,1,600,,Button-Switch at home,,,,,,,,,,,,,k
11,24,987,A,31.69685838148448,56.68172603179447,1.584842919074224,0.8903544704713743,A,480.5437079630792,Correct,sub_011_day_24_data.csv,1,600,,Button-Switch at home,,,,,,,,,,,,,k
11,24,988,A,64.17632900319809,81.77175675001232,3.208816450159905,1.2844677513848513,A,608.964208047837,Correct,sub_011_day_24_data.csv,1,600,,Button-Switch at home,,,,,,,,,,,,,k
11,24,989,A,20.182615796334687,36.62287051071856,1.0091307898167343,0.5752707047492184,A,698.8581240875646,Correct,sub_011_day_24_data.csv,1,600,,Button-Switch at home,,,,,,,,,,,,,k
11,24,990,A,34.01277187395554,57.340019912186335,1.7006385936977773,0.9006949265640851,A,434.9016660125926,Correct,sub_011_day_24_data.csv,1,600,,Button-Switch at home,,,,,,,,,,,,,k
11,24,991,A,62.08289014893657,86.99409486432675,3.104144507446829,1.3665000466573125,A,605.4526240332052,Correct,sub_011_day_24_data.csv,1,600,,Button-Switch at home,,,,,,,,,,,,,k
11,24,992,B,60.08592329087557,49.10518867652059,3.0042961645437787,0.7713424999964889,B,897.8296250570565,Correct,sub_011_day_24_data.csv,1,600,,Button-Switch at home,,,,,,,,,,,,,d
11,24,993,A,55.30298556487806,69.16284811445301,2.7651492782439027,1.0864074776885615,A,593.369249952957,Correct,sub_011_day_24_data.csv,1,600,,Button-Switch at home,,,,,,,,,,,,,k
11,24,994,B,62.68927872101193,38.915142018805085,3.1344639360505964,0.6112776213984076,B,580.3903320338577,Correct,sub_011_day_24_data.csv,1,600,,Button-Switch at home,,,,,,,,,,,,,d
11,24,995,B,46.87423552529528,37.23010093885225,2.3437117762647635,0.5848090580095235,B,531.1606239993125,Correct,sub_011_day_24_data.csv,1,600,,Button-Switch at home,,,,,,,,,,,,,d
11,24,996,B,40.32456414595937,18.39374202686539,2.0162282072979685,0.2889282241181307,B,559.068207978271,Correct,sub_011_day_24_data.csv,1,600,,Button-Switch at home,,,,,,,,,,,,,d
11,24,997,A,54.82571008832012,69.31527954064498,2.7412855044160063,1.088801864932066,A,528.3606660086662,Correct,sub_011_day_24_data.csv,1,600,,Button-Switch at home,,,,,,,,,,,,,k
11,24,998,B,39.188893668522226,14.075841349337333,1.9594446834261112,0.221102798880868,B,576.8763330997899,Correct,sub_011_day_24_data.csv,1,600,,Button-Switch at home,,,,,,,,,,,,,d
11,24,999,B,62.85867965217444,51.830037472530215,3.142933982608722,0.814144324794923,B,719.709875062108,Correct,sub_011_day_24_data.csv,1,600,,Button-Switch at home,,,,,,,,,,,,,d
11,24,1000,B,83.93012482503129,68.31876771582012,4.196506241251564,1.07314869379164,B,580.0755829550326,Correct,sub_011_day_24_data.csv,1,600,,Button-Switch at home,,,,,,,,,,,,,d
11,24,1001,A,63.797047017927014,80.36084797801385,3.1898523508963508,1.2623052482198724,A,763.0174579098821,Correct,sub_011_day_24_data.csv,1,600,,Button-Switch at home,,,,,,,,,,,,,k
11,24,1002,B,36.88958745474948,26.723517023284153,1.8444793727374744,0.4197720237921564,B,562.3328319052234,Correct,sub_011_day_24_data.csv,1,600,,Button-Switch at home,,,,,,,,,,,,,d
11,24,1003,A,58.6680319013507,73.30553725440294,2.9334015950675347,1.1514806865294256,A,645.8295410266146,Correct,sub_011_day_24_data.csv,1,600,,Button-Switch at home,,,,,,,,,,,,,k
11,24,1004,B,87.438582864036,62.264843846123775,4.3719291432017995,0.9780538800194905,B,741.0800410434604,Correct,sub_011_day_24_data.csv,1,600,,Button-Switch at home,,,,,,,,,,,,,d
11,24,1005,A,58.23029419240475,73.06999738314529,2.9115147096202376,1.1477808348835732,A,976.4298740774392,Correct,sub_011_day_24_data.csv,1,600,,Button-Switch at home,,,,,,,,,,,,,k
11,24,1006,A,56.744646485083265,81.77723788526254,2.8372323242541633,1.2845538488560284,A,834.9820410367101,Correct,sub_011_day_24_data.csv,1,600,,Button-Switch at home,,,,,,,,,,,,,k
11,24,1007,B,63.80873390264104,45.05876614385128,3.190436695132052,0.7077814434867183,B,569.8149160016328,Correct,sub_011_day_24_data.csv,1,600,,Button-Switch at home,,,,,,,,,,,,,d
11,24,1008,A,38.8396536707362,55.55336103073336,1.94198268353681,0.8726301544818671,A,852.678208029829,Correct,sub_011_day_24_data.csv,1,600,,Button-Switch at home,,,,,,,,,,,,,k
11,24,1009,A,54.214528327569376,73.9338710727552,2.710726416378469,1.1613505310681131,A,862.9519160604104,Correct,sub_011_day_24_data.csv,1,600,,Button-Switch at home,,,,,,,,,,,,,k
11,24,1010,B,68.87758372382825,59.004061687404,3.4438791861914124,0.926833633645537,B,742.3149569658563,Correct,sub_011_day_24_data.csv,1,600,,Button-Switch at home,,,,,,,,,,,,,d
11,24,1011,A,13.694893400131544,30.826876078969995,0.6847446700065772,0.4842274371140753,A,700.0423329882324,Correct,sub_011_day_24_data.csv,1,600,,Button-Switch at home,,,,,,,,,,,,,k
11,24,1012,B,52.83227523715907,27.345435286706753,2.6416137618579536,0.4295410930296652,B,729.0121250553057,Correct,sub_011_day_24_data.csv,1,600,,Button-Switch at home,,,,,,,,,,,,,d
11,24,1013,A,40.775323492899346,48.355762175921384,2.0387661746449677,0.7595705360530491,A,1376.274790964089,Correct,sub_011_day_24_data.csv,1,600,,Button-Switch at home,,,,,,,,,,,,,k
11,24,1014,B,62.88490558479638,49.41176298944372,3.144245279239819,0.776158158042782,B,1400.773165980354,Correct,sub_011_day_24_data.csv,1,600,,Button-Switch at home,,,,,,,,,,,,,d
11,24,1015,B,83.24236736565561,54.88458231838822,4.16211836828278,0.8621250030339636,B,713.3882070193067,Correct,sub_011_day_24_data.csv,1,600,,Button-Switch at home,,,,,,,,,,,,,d
11,24,1016,A,42.99096252230086,54.705622655466186,2.149548126115043,0.8593139112223395,A,641.8595410650596,Correct,sub_011_day_24_data.csv,1,600,,Button-Switch at home,,,,,,,,,,,,,k
11,24,1017,B,83.81782870847091,61.157745493633186,4.190891435423546,0.9606636197645616,B,829.4577490305528,Correct,sub_011_day_24_data.csv,1,600,,Button-Switch at home,,,,,,,,,,,,,d
11,24,1018,B,62.36169931679394,53.21596485871508,3.118084965839697,0.8359144212691594,A,2129.753415938467,Incorrect,sub_011_day_24_data.csv,0,600,,Button-Switch at home,,,,,,,,,,,,,k
11,24,1019,A,29.330961564310066,56.14597034596809,1.4665480782155031,0.8819388398378186,A,503.5949569428339,Correct,sub_011_day_24_data.csv,1,600,,Button-Switch at home,,,,,,,,,,,,,k
11,24,1020,A,12.00582902640198,34.49766857581416,0.600291451320099,0.5418881108187661,A,538.712540990673,Correct,sub_011_day_24_data.csv,1,600,,Button-Switch at home,,,,,,,,,,,,,k
11,24,1021,B,48.69213815624232,39.65242557801279,2.434606907812116,0.6228588444645049,B,1223.4690410550684,Correct,sub_011_day_24_data.csv,1,600,,Button-Switch at home,,,,,,,,,,,,,d
11,24,1022,B,51.688786050178294,34.19848197475756,2.5844393025089145,0.5371884986791067,B,676.942624966614,Correct,sub_011_day_24_data.csv,1,600,,Button-Switch at home,,,,,,,,,,,,,d
11,24,1023,A,14.656517750859962,38.2721490546928,0.732825887542998,0.6011775115365823,A,509.4972910592333,Correct,sub_011_day_24_data.csv,1,600,,Button-Switch at home,,,,,,,,,,,,,k
11,24,1024,A,63.51923482537092,74.73132437569399,3.175961741268546,1.1738768982585803,A,799.2369160056114,Correct,sub_011_day_24_data.csv,1,600,,Button-Switch at home,,,,,,,,,,,,,k
11,24,1025,A,55.04398053422838,74.00642803384775,2.752199026711419,1.1624902531477892,A,740.5369159532711,Correct,sub_011_day_24_data.csv,1,600,,Button-Switch at home,,,,,,,,,,,,,k
11,24,1026,A,35.99813921676919,54.47348808016011,1.7999069608384592,0.8556675498402109,A,1103.767499094829,Correct,sub_011_day_24_data.csv,1,600,,Button-Switch at home,,,,,,,,,,,,,k
11,24,1027,A,44.452308928059296,70.54075499063012,2.2226154464029646,1.1080515882862056,A,557.341790990904,Correct,sub_011_day_24_data.csv,1,600,,Button-Switch at home,,,,,,,,,,,,,k
11,24,1028,B,70.67426962976059,50.9978995360117,3.5337134814880296,0.8010731326542234,B,1064.109332044609,Correct,sub_011_day_24_data.csv,1,600,,Button-Switch at home,,,,,,,,,,,,,d
11,24,1029,B,58.88566143656752,44.07265697012035,2.944283071828376,0.6922916768075653,B,582.6263319468126,Correct,sub_011_day_24_data.csv,1,600,,Button-Switch at home,,,,,,,,,,,,,d
11,24,1030,A,62.3959557496333,82.93648813462367,3.119797787481665,1.3027633091913535,A,770.9404160268605,Correct,sub_011_day_24_data.csv,1,600,,Button-Switch at home,,,,,,,,,,,,,k
11,24,1031,A,46.6952095035409,67.18684952618575,2.334760475177045,1.05536856444654,A,770.3493740409613,Correct,sub_011_day_24_data.csv,1,600,,Button-Switch at home,,,,,,,,,,,,,k
11,24,1032,B,71.90305637902019,50.794278889382795,3.59515281895101,0.7978746670163804,B,525.4244570387527,Correct,sub_011_day_24_data.csv,1,600,,Button-Switch at home,,,,,,,,,,,,,d
11,24,1033,B,47.430296034959355,40.38177965737526,2.371514801747968,0.6343155115524594,B,586.9328330736607,Correct,sub_011_day_24_data.csv,1,600,,Button-Switch at home,,,,,,,,,,,,,d
11,24,1034,A,24.06947435208471,46.961941287553046,1.2034737176042356,0.7376764487364592,A,756.6342490026727,Correct,sub_011_day_24_data.csv,1,600,,Button-Switch at home,,,,,,,,,,,,,k
11,24,1035,B,51.12869656949059,42.39939657300448,2.5564348284745297,0.6660081639519557,B,2244.755666004494,Correct,sub_011_day_24_data.csv,1,600,,Button-Switch at home,,,,,,,,,,,,,d
11,24,1036,A,13.658661505756813,33.74237813836854,0.6829330752878405,0.5300240363707371,A,659.2908740276471,Correct,sub_011_day_24_data.csv,1,600,,Button-Switch at home,,,,,,,,,,,,,k
11,24,1037,A,48.66281335976936,73.05375533772062,2.433140667988468,1.1475257054306462,A,942.310416023247,Correct,sub_011_day_24_data.csv,1,600,,Button-Switch at home,,,,,,,,,,,,,k
11,24,1038,B,42.13289854773531,27.082736397448677,2.1066449273867653,0.4254146285266683,B,705.2228740649298,Correct,sub_011_day_24_data.csv,1,600,,Button-Switch at home,,,,,,,,,,,,,d
11,24,1039,B,84.20406358777933,69.3996964044917,4.210203179388967,1.0901278819285656,B,597.7690829895437,Correct,sub_011_day_24_data.csv,1,600,,Button-Switch at home,,,,,,,,,,,,,d
11,24,1040,B,44.2197594203712,17.32672625118632,2.21098797101856,0.2721675795074417,B,572.5390410516411,Correct,sub_011_day_24_data.csv,1,600,,Button-Switch at home,,,,,,,,,,,,,d
11,24,1041,B,69.0672911775842,40.04343497155633,3.4533645588792097,0.6290008056557099,B,497.40412493702024,Correct,sub_011_day_24_data.csv,1,600,,Button-Switch at home,,,,,,,,,,,,,d
11,24,1042,A,36.13976634106864,53.696369972924806,1.806988317053432,0.8434606071569005,A,746.6499999864027,Correct,sub_011_day_24_data.csv,1,600,,Button-Switch at home,,,,,,,,,,,,,k
11,24,1043,B,35.83105091268946,17.607162943124536,1.7915525456344732,0.2765726687633924,B,552.4434990948066,Correct,sub_011_day_24_data.csv,1,600,,Button-Switch at home,,,,,,,,,,,,,d
11,24,1044,B,83.01653123226961,62.06838690856959,4.1508265616134805,0.9749679416606556,B,601.4611240243539,Correct,sub_011_day_24_data.csv,1,600,,Button-Switch at home,,,,,,,,,,,,,d
11,24,1045,B,62.19924378727267,45.580683290205606,3.1099621893636336,0.7159796988505647,B,624.6981660369784,Correct,sub_011_day_24_data.csv,1,600,,Button-Switch at home,,,,,,,,,,,,,d
11,24,1046,B,86.08480843593756,57.33413080527433,4.304240421796878,0.9006024206890304,B,888.0432909354568,Correct,sub_011_day_24_data.csv,1,600,,Button-Switch at home,,,,,,,,,,,,,d
11,24,1047,B,59.17167088205697,37.98913297293594,2.9585835441028485,0.5967319053201067,B,566.5972910355777,Correct,sub_011_day_24_data.csv,1,600,,Button-Switch at home,,,,,,,,,,,,,d
11,24,1048,A,41.788373945075975,68.38848372746084,2.089418697253799,1.0742437903416804,A,609.9328320706263,Correct,sub_011_day_24_data.csv,1,600,,Button-Switch at home,,,,,,,,,,,,,k
11,24,1049,B,65.80388826352711,46.201798350110835,3.290194413176356,0.7257361513967262,B,659.6384990261868,Correct,sub_011_day_24_data.csv,1,600,,Button-Switch at home,,,,,,,,,,,,,d
11,24,1050,B,86.78570083221928,69.94275633942067,4.339285041610964,1.0986582474387243,B,703.742956975475,Correct,sub_011_day_24_data.csv,1,600,,Button-Switch at home,,,,,,,,,,,,,d
11,24,1051,A,24.16079714705876,45.56387966278545,1.208039857352938,0.7157157480882806,A,532.6085409615189,Correct,sub_011_day_24_data.csv,1,600,,Button-Switch at home,,,,,,,,,,,,,k
11,24,1052,A,45.07128495541864,74.39585536232882,2.253564247770932,1.1686073633191052,A,761.1795000266284,Correct,sub_011_day_24_data.csv,1,600,,Button-Switch at home,,,,,,,,,,,,,k
11,24,1053,A,31.621767938322556,55.735952827170706,1.5810883969161278,0.8754982997133338,A,497.44175001978874,Correct,sub_011_day_24_data.csv,1,600,,Button-Switch at home,,,,,,,,,,,,,k
11,24,1054,A,54.541598420070585,66.45137761589392,2.7270799210035297,1.0438157986950678,A,494.12712396588176,Correct,sub_011_day_24_data.csv,1,600,,Button-Switch at home,,,,,,,,,,,,,k
11,24,1055,A,60.27060219528772,70.65475966508758,3.0135301097643863,1.1098423695249575,A,639.8214990040287,Correct,sub_011_day_24_data.csv,1,600,,Button-Switch at home,,,,,,,,,,,,,k
11,24,1056,B,66.32797484307152,53.5344800707186,3.316398742153575,0.8409176465195938,B,515.6479990109801,Correct,sub_011_day_24_data.csv,1,600,,Button-Switch at home,,,,,,,,,,,,,d
11,24,1057,B,79.12718244875529,49.34225641548995,3.9563591224377648,0.7750663513322354,B,970.915290992707,Correct,sub_011_day_24_data.csv,1,600,,Button-Switch at home,,,,,,,,,,,,,d
11,24,1058,B,60.69977370056572,30.84055223090673,3.034988685028286,0.4844422616063444,B,724.0540829952806,Correct,sub_011_day_24_data.csv,1,600,,Button-Switch at home,,,,,,,,,,,,,d
11,24,1059,B,60.32701606086979,52.622006785578435,3.0163508030434896,0.8265845496736274,A,1223.1970829889178,Incorrect,sub_011_day_24_data.csv,0,600,,Button-Switch at home,,,,,,,,,,,,,k
11,24,1060,A,23.64745524811796,39.07736402957607,1.1823727624058982,0.6138257987848511,A,558.97837493103,Correct,sub_011_day_24_data.csv,1,600,,Button-Switch at home,,,,,,,,,,,,,k
11,24,1061,B,59.00315698199107,34.61730071895251,2.9501578490995537,0.5437672881288493,B,645.597374998033,Correct,sub_011_day_24_data.csv,1,600,,Button-Switch at home,,,,,,,,,,,,,d
11,24,1062,B,86.75230304949692,62.74241382922482,4.337615152474846,0.9855555317719168,B,501.0802081087604,Correct,sub_011_day_24_data.csv,1,600,,Button-Switch at home,,,,,,,,,,,,,d
11,24,1063,A,21.842539108154185,38.587826908487344,1.092126955407709,0.6061361676684919,A,508.9838330168277,Correct,sub_011_day_24_data.csv,1,600,,Button-Switch at home,,,,,,,,,,,,,k
11,24,1064,B,56.07898536512101,47.951892156368885,2.80394926825605,0.7532265606208925,B,911.16637410596,Correct,sub_011_day_24_data.csv,1,600,,Button-Switch at home,,,,,,,,,,,,,d
11,24,1065,B,78.21744286545771,60.07855667121278,3.9108721432728855,0.9437117613828008,B,620.4972079722211,Correct,sub_011_day_24_data.csv,1,600,,Button-Switch at home,,,,,,,,,,,,,d
11,24,1066,A,26.907008403018164,54.01463252810592,1.3453504201509083,0.8484598636832492,A,558.4882081020623,Correct,sub_011_day_24_data.csv,1,600,,Button-Switch at home,,,,,,,,,,,,,k
11,24,1067,A,48.31067275212384,55.76228492456134,2.415533637606192,0.8759119233319138,B,1516.3882080232725,Incorrect,sub_011_day_24_data.csv,0,600,,Button-Switch at home,,,,,,,,,,,,,d
11,24,1068,B,85.92513765514857,59.20134265929506,4.296256882757429,0.9299325159054668,B,551.9602909917012,Correct,sub_011_day_24_data.csv,1,600,,Button-Switch at home,,,,,,,,,,,,,d
11,24,1069,B,37.24341076340633,20.47406724408677,1.8621705381703169,0.321605896215632,B,574.419666081667,Correct,sub_011_day_24_data.csv,1,600,,Button-Switch at home,,,,,,,,,,,,,d
11,24,1070,A,48.49770760187068,60.126092148842986,2.4248853800935337,0.9444584469193404,A,678.8863739930093,Correct,sub_011_day_24_data.csv,1,600,,Button-Switch at home,,,,,,,,,,,,,k
11,24,1071,B,50.3833897304151,37.073229105243875,2.519169486520755,0.5823449210094273,B,596.2742490228266,Correct,sub_011_day_24_data.csv,1,600,,Button-Switch at home,,,,,,,,,,,,,d
11,24,1072,B,77.61161776364034,63.89076371375475,3.880580888182017,1.0035937695768662,B,768.6204579658806,Correct,sub_011_day_24_data.csv,1,600,,Button-Switch at home,,,,,,,,,,,,,d
11,24,1073,B,49.65852324554824,41.23015323920419,2.482926162277412,0.6476417326133265,B,560.1530410349369,Correct,sub_011_day_24_data.csv,1,600,,Button-Switch at home,,,,,,,,,,,,,d
11,24,1074,A,63.44900636623757,78.38706050049773,3.172450318311878,1.2313010670243114,A,754.4660830171779,Correct,sub_011_day_24_data.csv,1,600,,Button-Switch at home,,,,,,,,,,,,,k
11,24,1075,B,84.2256959604446,60.268156965670286,4.21128479802223,0.9466899958437316,B,559.3435820192099,Correct,sub_011_day_24_data.csv,1,600,,Button-Switch at home,,,,,,,,,,,,,d
11,24,1076,A,10.392558434061913,33.848030276780214,0.5196279217030956,0.5316836162800881,A,944.5472490042448,Correct,sub_011_day_24_data.csv,1,600,,Button-Switch at home,,,,,,,,,,,,,k
11,24,1077,A,65.99228996910614,80.55971589300057,3.299614498455307,1.2654290581236576,A,1101.2137909419837,Correct,sub_011_day_24_data.csv,1,600,,Button-Switch at home,,,,,,,,,,,,,k
11,24,1078,A,32.258154815317006,59.572198326784,1.6129077407658503,0.935757903108094,A,655.4292909568176,Correct,sub_011_day_24_data.csv,1,600,,Button-Switch at home,,,,,,,,,,,,,k
11,24,1079,A,27.45406767642663,53.38522069572996,1.3727033838213314,0.8385730857398752,A,523.7513750325888,Correct,sub_011_day_24_data.csv,1,600,,Button-Switch at home,,,,,,,,,,,,,k
11,24,1080,A,61.43600128499705,81.14610457830275,3.071800064249852,1.2746400300531249,A,828.7235820898786,Correct,sub_011_day_24_data.csv,1,600,,Button-Switch at home,,,,,,,,,,,,,k
11,24,1081,B,37.618033865254354,22.88440060106395,1.8809016932627176,0.3594673240505417,B,630.873624002561,Correct,sub_011_day_24_data.csv,1,600,,Button-Switch at home,,,,,,,,,,,,,d
11,24,1082,A,37.760194138140065,56.561646936035864,1.8880097069070032,0.8884682724459495,A,602.1077489713207,Correct,sub_011_day_24_data.csv,1,600,,Button-Switch at home,,,,,,,,,,,,,k
11,24,1083,A,42.66366329960128,72.65797454976303,2.133183164980064,1.1413087953512482,A,592.3179989913478,Correct,sub_011_day_24_data.csv,1,600,,Button-Switch at home,,,,,,,,,,,,,k
11,24,1084,B,88.16136389612251,63.49793028178629,4.408068194806125,0.9974231564570832,B,666.1219989182428,Correct,sub_011_day_24_data.csv,1,600,,Button-Switch at home,,,,,,,,,,,,,d
11,24,1085,A,39.64325281834659,49.8424949496552,1.9821626409173296,0.7829240798521157,B,712.7499580383301,Incorrect,sub_011_day_24_data.csv,0,600,,Button-Switch at home,,,,,,,,,,,,,d
11,24,1086,B,55.4850028043558,38.14589382471777,2.77425014021779,0.599194299021748,B,540.3109989129007,Correct,sub_011_day_24_data.csv,1,600,,Button-Switch at home,,,,,,,,,,,,,d
11,24,1087,B,57.84069680128608,43.47001650289026,2.892034840064304,0.6828254224845356,B,600.1781660597771,Correct,sub_011_day_24_data.csv,1,600,,Button-Switch at home,,,,,,,,,,,,,d
11,24,1088,A,42.486502861994595,56.414294749548176,2.12432514309973,0.8861536697131489,A,808.0422909697518,Correct,sub_011_day_24_data.csv,1,600,,Button-Switch at home,,,,,,,,,,,,,k
11,24,1089,B,47.73609379672182,21.423865181712195,2.386804689836091,0.3365252873318259,B,579.2419160716236,Correct,sub_011_day_24_data.csv,1,600,,Button-Switch at home,,,,,,,,,,,,,d
11,24,1090,B,75.06846528522053,63.84464598538068,3.7534232642610266,1.0028693539935651,B,544.5788740180433,Correct,sub_011_day_24_data.csv,1,600,,Button-Switch at home,,,,,,,,,,,,,d
11,24,1091,A,61.51900491132,78.0039741170167,3.0759502455659997,1.2252835601841403,A,653.6512069869787,Correct,sub_011_day_24_data.csv,1,600,,Button-Switch at home,,,,,,,,,,,,,k
11,24,1092,A,40.66478640790648,63.36322889307367,2.033239320395324,0.9953072719910436,A,541.150582022965,Correct,sub_011_day_24_data.csv,1,600,,Button-Switch at home,,,,,,,,,,,,,k
11,24,1093,B,36.59061838765866,22.38370567294991,1.8295309193829328,0.3516024265112781,B,539.3726660404354,Correct,sub_011_day_24_data.csv,1,600,,Button-Switch at home,,,,,,,,,,,,,d
11,24,1094,B,58.61247821280028,27.618389000962797,2.9306239106400143,0.4338286399470493,B,545.3478320268914,Correct,sub_011_day_24_data.csv,1,600,,Button-Switch at home,,,,,,,,,,,,,d
11,24,1095,A,15.545741540529388,33.964750380116215,0.7772870770264695,0.5335170513759212,A,561.6571240825579,Correct,sub_011_day_24_data.csv,1,600,,Button-Switch at home,,,,,,,,,,,,,k
11,24,1096,A,30.391353293245217,47.689635706607675,1.519567664662261,0.7491070459412609,A,742.677123984322,Correct,sub_011_day_24_data.csv,1,600,,Button-Switch at home,,,,,,,,,,,,,k
11,24,1097,A,58.06302772792037,66.80331753445746,2.903151386396018,1.049344058008389,A,1201.7602080013603,Correct,sub_011_day_24_data.csv,1,600,,Button-Switch at home,,,,,,,,,,,,,k
11,24,1098,B,33.47509495922889,22.15205714525552,1.6737547479614443,0.3479636999471802,B,632.0256249746308,Correct,sub_011_day_24_data.csv,1,600,,Button-Switch at home,,,,,,,,,,,,,d
11,24,1099,A,48.600852580836815,57.25497478577012,2.430042629041841,0.8993590408422214,A,708.44479103107,Correct,sub_011_day_24_data.csv,1,600,,Button-Switch at home,,,,,,,,,,,,,k
11,24,1100,B,46.108439719677115,31.715187533590584,2.305421985983856,0.4981810008137537,B,585.7448329916224,Correct,sub_011_day_24_data.csv,1,600,,Button-Switch at home,,,,,,,,,,,,,d
11,24,1101,B,74.54406072803867,52.67870361680686,3.7272030364019337,0.8274751414159723,B,881.3001239905134,Correct,sub_011_day_24_data.csv,1,600,,Button-Switch at home,,,,,,,,,,,,,d
11,24,1102,B,56.817014316674914,46.08967572079015,2.8408507158337453,0.7239749332538509,B,618.650248972699,Correct,sub_011_day_24_data.csv,1,600,,Button-Switch at home,,,,,,,,,,,,,d
11,24,1103,B,39.472363866420096,24.904667512135692,1.9736181933210049,0.3912016024811093,B,614.1928740544245,Correct,sub_011_day_24_data.csv,1,600,,Button-Switch at home,,,,,,,,,,,,,d
11,24,1104,B,54.61118257843584,31.701107318609075,2.730559128921792,0.4979598293140195,B,581.296456977725,Correct,sub_011_day_24_data.csv,1,600,,Button-Switch at home,,,,,,,,,,,,,d
11,24,1105,B,50.447832082310654,19.797192609469036,2.5223916041155325,0.3109735743180503,B,663.4745829505846,Correct,sub_011_day_24_data.csv,1,600,,Button-Switch at home,,,,,,,,,,,,,d
11,24,1106,B,72.12230907636845,49.61160222272195,3.6061154538184224,0.7792972253786117,B,515.4422500636429,Correct,sub_011_day_24_data.csv,1,600,,Button-Switch at home,,,,,,,,,,,,,d
11,24,1107,A,25.86412276056329,58.53182115239339,1.2932061380281648,0.9194156966679536,A,487.03795799519867,Correct,sub_011_day_24_data.csv,1,600,,Button-Switch at home,,,,,,,,,,,,,k
11,24,1108,B,50.77078417985864,30.55997920710191,2.538539208992932,0.4800350308544409,B,596.9543739920482,Correct,sub_011_day_24_data.csv,1,600,,Button-Switch at home,,,,,,,,,,,,,d
11,24,1109,A,29.644890242222512,42.70624420608628,1.4822445121111256,0.6708281153012616,A,662.0604990748689,Correct,sub_011_day_24_data.csv,1,600,,Button-Switch at home,,,,,,,,,,,,,k
11,24,1110,A,57.79083975021828,79.07077753156848,2.8895419875109143,1.242040869034042,A,829.9848330207169,Correct,sub_011_day_24_data.csv,1,600,,Button-Switch at home,,,,,,,,,,,,,k
11,24,1111,B,40.60459761902192,29.033885253595813,2.030229880951096,0.4560632030893282,B,659.2341250507161,Correct,sub_011_day_24_data.csv,1,600,,Button-Switch at home,,,,,,,,,,,,,d
11,24,1112,B,61.65457826475286,43.5904382164613,3.0827289132376428,0.684717002337973,B,999.2807910311968,Correct,sub_011_day_24_data.csv,1,600,,Button-Switch at home,,,,,,,,,,,,,d
11,24,1113,A,64.48839851968134,87.70234452423969,3.2244199259840673,1.3776252062997625,A,780.6381660047919,Correct,sub_011_day_24_data.csv,1,600,,Button-Switch at home,,,,,,,,,,,,,k
11,24,1114,B,63.532011123316515,53.16590564371688,3.1766005561658255,0.8351280929587455,B,641.7685409542173,Correct,sub_011_day_24_data.csv,1,600,,Button-Switch at home,,,,,,,,,,,,,d
11,24,1115,A,18.202881720047667,34.013912538787274,0.9101440860023834,0.5342892887584993,A,1406.3539989292622,Correct,sub_011_day_24_data.csv,1,600,,Button-Switch at home,,,,,,,,,,,,,k
11,24,1116,A,40.51554538394113,58.01626578179316,2.0257772691970564,0.9113173718439714,A,1264.849958010018,Correct,sub_011_day_24_data.csv,1,600,,Button-Switch at home,,,,,,,,,,,,,k
11,24,1117,B,40.23847496113227,23.050933890951537,2.0119237480566134,0.3620832228509866,B,1931.0542069142684,Correct,sub_011_day_24_data.csv,1,600,,Button-Switch at home,,,,,,,,,,,,,d
11,24,1118,A,25.797769155447128,49.88135731625843,1.2898884577723564,0.7835345284792248,A,580.2230830304325,Correct,sub_011_day_24_data.csv,1,600,,Button-Switch at home,,,,,,,,,,,,,k
11,24,1119,A,20.696791475572716,43.46074983311483,1.034839573778636,0.682679861976087,A,460.7882909476757,Correct,sub_011_day_24_data.csv,1,600,,Button-Switch at home,,,,,,,,,,,,,k
11,24,1120,B,70.94080610562419,55.896508413584186,3.547040305281209,0.8780203009671809,B,575.8224159944803,Correct,sub_011_day_24_data.csv,1,600,,Button-Switch at home,,,,,,,,,,,,,d
11,24,1121,B,39.94880311837563,28.698608687972715,1.9974401559187815,0.4507966911119164,B,905.803915928118,Correct,sub_011_day_24_data.csv,1,600,,Button-Switch at home,,,,,,,,,,,,,d
11,24,1122,A,41.19191175430824,49.457732322721654,2.059595587715412,0.7768802426413641,A,994.6422909852116,Correct,sub_011_day_24_data.csv,1,600,,Button-Switch at home,,,,,,,,,,,,,k
11,24,1123,A,37.070638250170816,45.84556659157835,1.8535319125085408,0.7201404760188209,A,635.522706899792,Correct,sub_011_day_24_data.csv,1,600,,Button-Switch at home,,,,,,,,,,,,,k
11,24,1124,B,85.8666819540718,58.60434756053222,4.29333409770359,0.9205549388229548,B,593.0033320328221,Correct,sub_011_day_24_data.csv,1,600,,Button-Switch at home,,,,,,,,,,,,,d
11,24,1125,B,61.535733256365965,51.898761356626096,3.0767866628182983,0.8152238370419318,B,599.3165830150247,Correct,sub_011_day_24_data.csv,1,600,,Button-Switch at home,,,,,,,,,,,,,d
11,24,1126,B,46.33794857041599,34.17478650713465,2.3168974285207993,0.536816291144069,A,769.305833033286,Incorrect,sub_011_day_24_data.csv,0,600,,Button-Switch at home,,,,,,,,,,,,,k
11,24,1127,A,35.99044560146054,47.8506895371372,1.7995222800730273,0.7516368735953811,A,594.3237070459872,Correct,sub_011_day_24_data.csv,1,600,,Button-Switch at home,,,,,,,,,,,,,k
11,24,1128,A,34.26370442133998,64.42892589231833,1.713185221066999,1.0120472013099422,A,509.0061239898205,Correct,sub_011_day_24_data.csv,1,600,,Button-Switch at home,,,,,,,,,,,,,k
11,24,1129,A,61.27249043728258,75.4178092192712,3.063624521864129,1.1846601769654947,A,658.1588330445811,Correct,sub_011_day_24_data.csv,1,600,,Button-Switch at home,,,,,,,,,,,,,k
11,24,1130,B,60.847510124074674,42.23077463831471,3.042375506203734,0.6633594567956783,B,633.9709160383791,Correct,sub_011_day_24_data.csv,1,600,,Button-Switch at home,,,,,,,,,,,,,d
11,24,1131,A,25.963328965184207,36.36635883373519,1.2981664482592103,0.5712414287493637,A,558.5943319601938,Correct,sub_011_day_24_data.csv,1,600,,Button-Switch at home,,,,,,,,,,,,,k
11,24,1132,B,75.0368378491956,52.50032894956563,3.75184189245978,0.8246732386950144,B,552.4078740272671,Correct,sub_011_day_24_data.csv,1,600,,Button-Switch at home,,,,,,,,,,,,,d
11,24,1133,B,77.09659866179199,61.421410736239466,3.854829933089599,0.9648052637104556,B,612.2382070170715,Correct,sub_011_day_24_data.csv,1,600,,Button-Switch at home,,,,,,,,,,,,,d
11,24,1134,A,29.80635196807936,58.0036042172758,1.490317598403968,0.911118484453618,A,979.4512080261484,Correct,sub_011_day_24_data.csv,1,600,,Button-Switch at home,,,,,,,,,,,,,k
11,24,1135,B,65.44113903065393,44.23867024792017,3.2720569515326963,0.6948994072772368,B,683.943415991962,Correct,sub_011_day_24_data.csv,1,600,,Button-Switch at home,,,,,,,,,,,,,d
11,24,1136,A,14.75392985348871,41.15630903078198,0.7376964926744356,0.6464817904998796,A,543.9817910082638,Correct,sub_011_day_24_data.csv,1,600,,Button-Switch at home,,,,,,,,,,,,,k
11,24,1137,A,35.59452518831801,68.87814151773414,1.7797262594159005,1.0819353169251584,A,704.2552499333397,Correct,sub_011_day_24_data.csv,1,600,,Button-Switch at home,,,,,,,,,,,,,k
11,24,1138,A,63.565763117322646,84.07544797895167,3.1782881558661327,1.320654048589727,A,615.2644160902128,Correct,sub_011_day_24_data.csv,1,600,,Button-Switch at home,,,,,,,,,,,,,k
11,24,1139,A,42.55745396524769,56.056529470043365,2.127872698262385,0.88053390584414,A,1269.8516660602763,Correct,sub_011_day_24_data.csv,1,600,,Button-Switch at home,,,,,,,,,,,,,k
11,24,1140,A,46.17887353160731,77.0746595781077,2.3089436765803657,1.2106859215425867,A,608.8388740317896,Correct,sub_011_day_24_data.csv,1,600,,Button-Switch at home,,,,,,,,,,,,,k
11,24,1141,A,14.503739647531429,40.849067419840566,0.7251869823765715,0.6416556505608264,A,512.0556249748915,Correct,sub_011_day_24_data.csv,1,600,,Button-Switch at home,,,,,,,,,,,,,k
11,24,1142,B,52.7699020707788,36.79098625108713,2.63849510353894,0.577911460623692,B,665.8397079445422,Correct,sub_011_day_24_data.csv,1,600,,Button-Switch at home,,,,,,,,,,,,,d
11,24,1143,B,66.19922705263691,57.03468235786305,3.3099613526318454,0.8958986954764496,B,596.1483749561012,Correct,sub_011_day_24_data.csv,1,600,,Button-Switch at home,,,,,,,,,,,,,d
11,24,1144,A,52.61960708097765,71.6583940126062,2.6309803540488828,1.1256074209902325,A,943.2909570168704,Correct,sub_011_day_24_data.csv,1,600,,Button-Switch at home,,,,,,,,,,,,,k
11,24,1145,B,45.536196045484665,32.1650720457925,2.276809802274234,0.5052477702062407,B,609.3042489374056,Correct,sub_011_day_24_data.csv,1,600,,Button-Switch at home,,,,,,,,,,,,,d
11,24,1146,A,40.024513033434886,65.98185047411215,2.0012256516717444,1.0364404835986547,A,547.8928739903495,Correct,sub_011_day_24_data.csv,1,600,,Button-Switch at home,,,,,,,,,,,,,k
11,24,1147,A,22.216039949344204,37.21994457735301,1.1108019974672103,0.5846495222561573,A,491.18049908429384,Correct,sub_011_day_24_data.csv,1,600,,Button-Switch at home,,,,,,,,,,,,,k
11,24,1148,B,35.72747394188338,17.123922038455238,1.786373697094169,0.2689819383832766,B,598.9167910302058,Correct,sub_011_day_24_data.csv,1,600,,Button-Switch at home,,,,,,,,,,,,,d
11,24,1149,B,76.36999952217262,54.41354705028547,3.8184999761086313,0.854725998344697,B,688.8382079778239,Correct,sub_011_day_24_data.csv,1,600,,Button-Switch at home,,,,,,,,,,,,,d
11,24,1150,B,62.17740192956287,29.81558586587619,3.1088700964781437,0.4683421275935616,B,710.62266593799,Correct,sub_011_day_24_data.csv,1,600,,Button-Switch at home,,,,,,,,,,,,,d
