subject,day,trial,cat,x,y,xt,yt,resp,rt,fb,f_name,acc,n_trials,block,session_type,ns_left_digit,ns_right_digit,ns_left_size,ns_right_size,ns_congruent,ns_cue,ns_correct_side,ns_resp,ns_rt,ns_fb,acc_stroop,acc_stroop_mean,resp_key
11,23,0,B,76.49540167333328,56.098100330601,3.824770083666664,0.8811868993947962,B,966.1945409607142,Correct,sub_011_day_23_data.csv,1,600,,Button-Switch at home,,,,,,,,,,,,,d
11,23,1,A,12.138591646443952,32.05908604196836,0.6069295823221976,0.5035829459512543,A,691.7288319673389,Correct,sub_011_day_23_data.csv,1,600,,Button-Switch at home,,,,,,,,,,,,,k
11,23,2,B,75.97695522379536,48.83810329169624,3.798847761189768,0.767147132582262,B,674.3378329556435,Correct,sub_011_day_23_data.csv,1,600,,Button-Switch at home,,,,,,,,,,,,,d
11,23,3,B,77.0309303989468,47.837021205763406,3.85154651994734,0.7514221719482275,B,744.4845410063863,Correct,sub_011_day_23_data.csv,1,600,,Button-Switch at home,,,,,,,,,,,,,d
11,23,4,A,56.44128559528777,68.08320502246158,2.8220642797643887,1.0694484836570652,A,1045.6014990340918,Correct,sub_011_day_23_data.csv,1,600,,Button-Switch at home,,,,,,,,,,,,,k
11,23,5,B,43.9193592881283,28.789097621264055,2.195967964406415,0.4522180879522127,B,800.0655830837786,Correct,sub_011_day_23_data.csv,1,600,,Button-Switch at home,,,,,,,,,,,,,d
11,23,6,A,64.6781432948363,88.80413051358266,3.2339071647418156,1.394932020149502,A,728.7094999337569,Correct,sub_011_day_23_data.csv,1,600,,Button-Switch at home,,,,,,,,,,,,,k
11,23,7,B,35.61903677166345,17.400384572788713,1.7809518385831726,0.2733246017175509,B,657.7794159529731,Correct,sub_011_day_23_data.csv,1,600,,Button-Switch at home,,,,,,,,,,,,,d
11,23,8,A,50.859400734040264,79.31076586563324,2.5429700367020134,1.2458105969702675,A,617.5043329130858,Correct,sub_011_day_23_data.csv,1,600,,Button-Switch at home,,,,,,,,,,,,,k
11,23,9,B,61.81098528768908,34.223783133623826,3.0905492643844537,0.5375859283532144,B,538.9478750294074,Correct,sub_011_day_23_data.csv,1,600,,Button-Switch at home,,,,,,,,,,,,,d
11,23,10,B,49.48007564796133,22.785090963307333,2.474003782398066,0.3579073719085075,B,752.7337910141796,Correct,sub_011_day_23_data.csv,1,600,,Button-Switch at home,,,,,,,,,,,,,d
11,23,11,A,35.426137348955095,55.38869656084475,1.7713068674477546,0.8700436110373205,A,703.1078740255907,Correct,sub_011_day_23_data.csv,1,600,,Button-Switch at home,,,,,,,,,,,,,k
11,23,12,B,51.96773423910251,24.588543381859697,2.5983867119551256,0.3862359362546217,B,600.2611250150949,Correct,sub_011_day_23_data.csv,1,600,,Button-Switch at home,,,,,,,,,,,,,d
11,23,13,B,72.06992597153686,58.41438696412489,3.603496298576843,0.9175710447522306,B,694.7831250727177,Correct,sub_011_day_23_data.csv,1,600,,Button-Switch at home,,,,,,,,,,,,,d
11,23,14,A,47.824512867694814,55.831067259176166,2.3912256433847405,0.8769923537175274,B,1073.376166052185,Incorrect,sub_011_day_23_data.csv,0,600,,Button-Switch at home,,,,,,,,,,,,,d
11,23,15,B,76.14785070106193,59.29119815865646,3.8073925350530966,0.9313439627888588,B,624.5693740202114,Correct,sub_011_day_23_data.csv,1,600,,Button-Switch at home,,,,,,,,,,,,,d
11,23,16,A,47.65492035646283,67.14255176992562,2.3827460178231417,1.0546727369183535,A,604.5646249549463,Correct,sub_011_day_23_data.csv,1,600,,Button-Switch at home,,,,,,,,,,,,,k
11,23,17,B,81.95097470590451,54.761296676287955,4.097548735295225,0.8601884366963871,B,677.258707000874,Correct,sub_011_day_23_data.csv,1,600,,Button-Switch at home,,,,,,,,,,,,,d
11,23,18,B,54.18231089368811,37.13427481811867,2.7091155446844057,0.5833038248249303,B,981.6491659730672,Correct,sub_011_day_23_data.csv,1,600,,Button-Switch at home,,,,,,,,,,,,,d
11,23,19,A,40.06971809000032,65.96736470565025,2.003485904500016,1.0362129416797472,A,566.6154159698635,Correct,sub_011_day_23_data.csv,1,600,,Button-Switch at home,,,,,,,,,,,,,k
11,23,20,B,86.6614226654853,58.14184711952059,4.333071133274265,0.913289998884134,B,645.8549570525065,Correct,sub_011_day_23_data.csv,1,600,,Button-Switch at home,,,,,,,,,,,,,d
11,23,21,A,41.102091791878706,59.392444506146354,2.0551045895939355,0.9329343366962444,A,732.4771659914404,Correct,sub_011_day_23_data.csv,1,600,,Button-Switch at home,,,,,,,,,,,,,k
11,23,22,A,42.40092353128607,49.96982499631576,2.1200461765643035,0.7849241755479659,A,951.9463740289212,Correct,sub_011_day_23_data.csv,1,600,,Button-Switch at home,,,,,,,,,,,,,k
11,23,23,B,48.25552911633992,39.00566857183837,2.412776455816996,0.6126996091682284,B,1272.4094160366803,Correct,sub_011_day_23_data.csv,1,600,,Button-Switch at home,,,,,,,,,,,,,d
11,23,24,A,38.21984928390572,62.17240716038152,1.9109924641952856,0.9766018879552402,A,1222.528540994972,Correct,sub_011_day_23_data.csv,1,600,,Button-Switch at home,,,,,,,,,,,,,k
11,23,25,A,50.464643143826954,71.88746072799559,2.5232321571913476,1.1292055925414783,A,828.5355410771444,Correct,sub_011_day_23_data.csv,1,600,,Button-Switch at home,,,,,,,,,,,,,k
11,23,26,B,43.238502355919,32.1224665716181,2.16192511779595,0.5045785249828957,B,717.1015830244869,Correct,sub_011_day_23_data.csv,1,600,,Button-Switch at home,,,,,,,,,,,,,d
11,23,27,B,85.0654950126157,66.54927640778637,4.253274750630785,1.045353589322091,B,867.1821660827845,Correct,sub_011_day_23_data.csv,1,600,,Button-Switch at home,,,,,,,,,,,,,d
11,23,28,B,75.41889618327929,45.42161305354181,3.770944809163965,0.7134810294160259,B,909.8607080522924,Correct,sub_011_day_23_data.csv,1,600,,Button-Switch at home,,,,,,,,,,,,,d
11,23,29,B,34.294236624074784,13.298884043374503,1.7147118312037393,0.2088983820580393,B,543.3702500304207,Correct,sub_011_day_23_data.csv,1,600,,Button-Switch at home,,,,,,,,,,,,,d
11,23,30,B,64.05163852681602,30.808679796606704,3.202581926340801,0.4839416105790995,B,540.7550829695538,Correct,sub_011_day_23_data.csv,1,600,,Button-Switch at home,,,,,,,,,,,,,d
11,23,31,A,62.65023471294157,85.33869296227613,3.132511735647079,1.3404970543862085,A,704.1765409521759,Correct,sub_011_day_23_data.csv,1,600,,Button-Switch at home,,,,,,,,,,,,,k
11,23,32,A,37.57384801573603,63.19823603124143,1.8786924007868016,0.9927155701779092,A,743.1668320205063,Correct,sub_011_day_23_data.csv,1,600,,Button-Switch at home,,,,,,,,,,,,,k
11,23,33,B,33.875684165852775,19.173205729965805,1.6937842082926386,0.3011720113351315,B,582.4859570711851,Correct,sub_011_day_23_data.csv,1,600,,Button-Switch at home,,,,,,,,,,,,,d
11,23,34,B,66.00884932770164,36.56442570698605,3.300442466385082,0.5743526559189857,B,631.4333330374211,Correct,sub_011_day_23_data.csv,1,600,,Button-Switch at home,,,,,,,,,,,,,d
11,23,35,B,81.08853506269456,55.49568469628246,4.054426753134728,0.8717241767388825,B,1118.792499997653,Correct,sub_011_day_23_data.csv,1,600,,Button-Switch at home,,,,,,,,,,,,,d
11,23,36,B,75.90792949062052,55.045536910256665,3.795396474531026,0.8646532718508407,B,507.56204093340784,Correct,sub_011_day_23_data.csv,1,600,,Button-Switch at home,,,,,,,,,,,,,d
11,23,37,B,78.30973273068237,60.10408906219135,3.9154866365341183,0.9441128232424348,B,597.4290409358218,Correct,sub_011_day_23_data.csv,1,600,,Button-Switch at home,,,,,,,,,,,,,d
11,23,38,A,16.558482779894856,30.786754573059554,0.8279241389947428,0.4835972099729793,A,552.4294159840792,Correct,sub_011_day_23_data.csv,1,600,,Button-Switch at home,,,,,,,,,,,,,k
11,23,39,B,49.41204140333404,41.55744111492461,2.4706020701667017,0.6527827585431878,B,1149.956124019809,Correct,sub_011_day_23_data.csv,1,600,,Button-Switch at home,,,,,,,,,,,,,d
11,23,40,A,45.02515893131499,72.03073193327711,2.2512579465657496,1.1314560913713954,A,863.8373750727624,Correct,sub_011_day_23_data.csv,1,600,,Button-Switch at home,,,,,,,,,,,,,k
11,23,41,A,15.30386236629225,40.75520457037026,0.7651931183146126,0.6401812563691217,A,555.4544990882277,Correct,sub_011_day_23_data.csv,1,600,,Button-Switch at home,,,,,,,,,,,,,k
11,23,42,A,48.575095019571165,73.52407186731362,2.428754750978558,1.1549134202018023,B,903.3236240502448,Incorrect,sub_011_day_23_data.csv,0,600,,Button-Switch at home,,,,,,,,,,,,,d
11,23,43,A,14.760523265269033,34.27380556679812,0.7380261632634516,0.5383716788960896,A,842.6655830116943,Correct,sub_011_day_23_data.csv,1,600,,Button-Switch at home,,,,,,,,,,,,,k
11,23,44,B,63.486557726982866,33.48501531220776,3.1743278863491433,0.5259813905508681,B,671.3511240668595,Correct,sub_011_day_23_data.csv,1,600,,Button-Switch at home,,,,,,,,,,,,,d
11,23,45,A,28.27899220761637,41.26671827401952,1.4139496103808185,0.648216094837097,B,1389.3595410045236,Incorrect,sub_011_day_23_data.csv,0,600,,Button-Switch at home,,,,,,,,,,,,,d
11,23,46,B,79.93384503944453,52.862487155283794,3.9966922519722266,0.8303620064876218,B,491.631623939611,Correct,sub_011_day_23_data.csv,1,600,,Button-Switch at home,,,,,,,,,,,,,d
11,23,47,A,53.39432167472555,70.65732378705415,2.6697160837362777,1.1098826466586234,A,815.938665997237,Correct,sub_011_day_23_data.csv,1,600,,Button-Switch at home,,,,,,,,,,,,,k
11,23,48,A,24.910918960761236,42.281325556109685,1.2455459480380615,0.6641535087555628,A,778.4952489892021,Correct,sub_011_day_23_data.csv,1,600,,Button-Switch at home,,,,,,,,,,,,,k
11,23,49,B,59.51305104543865,30.31689330256415,2.9756525522719324,0.4762166463950057,B,602.4867080850527,Correct,sub_011_day_23_data.csv,1,600,,Button-Switch at home,,,,,,,,,,,,,d
11,23,50,B,50.73293884128803,28.684432582002977,2.5366469420644018,0.4505740133600612,B,1077.9523740056902,Correct,sub_011_day_23_data.csv,1,600,,Button-Switch at home,,,,,,,,,,,,,d
11,23,51,A,41.07094992226685,50.98599161454095,2.0535474961133424,0.8008860834611633,A,704.4919990003109,Correct,sub_011_day_23_data.csv,1,600,,Button-Switch at home,,,,,,,,,,,,,k
11,23,52,A,34.5630484487443,63.51403154640646,1.728152422437215,0.9976760745303046,A,682.6023319736123,Correct,sub_011_day_23_data.csv,1,600,,Button-Switch at home,,,,,,,,,,,,,k
11,23,53,B,74.31344858141696,63.89260377887898,3.715672429070848,1.0036226732522482,B,1265.5832080636171,Correct,sub_011_day_23_data.csv,1,600,,Button-Switch at home,,,,,,,,,,,,,d
11,23,54,B,46.00098276803381,37.962023975171874,2.30004913840169,0.5963060781789978,B,646.2895830627531,Correct,sub_011_day_23_data.csv,1,600,,Button-Switch at home,,,,,,,,,,,,,d
11,23,55,B,66.19478796917564,53.64012763159166,3.309739398458782,0.8425771545251362,B,602.638873970136,Correct,sub_011_day_23_data.csv,1,600,,Button-Switch at home,,,,,,,,,,,,,d
11,23,56,A,30.21711467458648,62.655667061403314,1.510855733729324,0.9841929167293632,B,554.4260820606723,Incorrect,sub_011_day_23_data.csv,0,600,,Button-Switch at home,,,,,,,,,,,,,d
11,23,57,B,63.04755389205223,33.16716144760797,3.1523776946026114,0.5209885537211589,B,621.9605410005897,Correct,sub_011_day_23_data.csv,1,600,,Button-Switch at home,,,,,,,,,,,,,d
11,23,58,B,62.369392406465956,55.042990952418,3.1184696203232978,0.8646132800386291,B,1283.6253329878673,Correct,sub_011_day_23_data.csv,1,600,,Button-Switch at home,,,,,,,,,,,,,d
11,23,59,A,55.792209657009465,79.54142152282199,2.7896104828504735,1.249433727560933,A,654.3959570117295,Correct,sub_011_day_23_data.csv,1,600,,Button-Switch at home,,,,,,,,,,,,,k
11,23,60,B,74.26308307543316,50.32352559589526,3.713154153771658,0.7904800915740123,B,807.3402910958976,Correct,sub_011_day_23_data.csv,1,600,,Button-Switch at home,,,,,,,,,,,,,d
11,23,61,A,51.220123101685594,59.46377585077298,2.5610061550842795,0.9340548068374928,A,998.7973750103264,Correct,sub_011_day_23_data.csv,1,600,,Button-Switch at home,,,,,,,,,,,,,k
11,23,62,B,86.815814358487,60.074433791412275,4.34079071792435,0.943646999338336,B,866.7768749874085,Correct,sub_011_day_23_data.csv,1,600,,Button-Switch at home,,,,,,,,,,,,,d
11,23,63,B,63.569581570780784,33.07957120880088,3.178479078539039,0.5196126894673464,B,645.5046660266817,Correct,sub_011_day_23_data.csv,1,600,,Button-Switch at home,,,,,,,,,,,,,d
11,23,64,A,48.100332785100065,59.02030450600145,2.4050166392550034,0.9270887752434336,A,732.8278319910169,Correct,sub_011_day_23_data.csv,1,600,,Button-Switch at home,,,,,,,,,,,,,k
11,23,65,B,59.962278964620694,33.9453366495667,2.9981139482310346,0.5332121012095554,B,567.7539990283549,Correct,sub_011_day_23_data.csv,1,600,,Button-Switch at home,,,,,,,,,,,,,d
11,23,66,A,31.319639296479387,51.889202301593585,1.5659819648239692,0.8150736837566049,A,597.9750409023836,Correct,sub_011_day_23_data.csv,1,600,,Button-Switch at home,,,,,,,,,,,,,k
11,23,67,B,74.99721100470006,55.045604840059525,3.749860550235003,0.8646543388896888,B,570.6775819417089,Correct,sub_011_day_23_data.csv,1,600,,Button-Switch at home,,,,,,,,,,,,,d
11,23,68,B,64.79936161609149,38.66447406992299,3.2399680808045743,0.6073401384649155,B,475.29566602315754,Correct,sub_011_day_23_data.csv,1,600,,Button-Switch at home,,,,,,,,,,,,,d
11,23,69,A,16.740454753648297,34.64555860550445,0.8370227376824149,0.544211161972837,A,484.3149580992758,Correct,sub_011_day_23_data.csv,1,600,,Button-Switch at home,,,,,,,,,,,,,k
11,23,70,A,49.01750204102818,58.7597718822372,2.450875102051409,0.9229963383592424,A,757.2262909961864,Correct,sub_011_day_23_data.csv,1,600,,Button-Switch at home,,,,,,,,,,,,,k
11,23,71,B,78.95573082147678,49.70582203449637,3.947786541073839,0.7807772267210772,B,508.3611240843311,Correct,sub_011_day_23_data.csv,1,600,,Button-Switch at home,,,,,,,,,,,,,d
11,23,72,B,56.10861226057463,27.939401705933214,2.8054306130287316,0.4388710957252695,B,702.7883739210665,Correct,sub_011_day_23_data.csv,1,600,,Button-Switch at home,,,,,,,,,,,,,d
11,23,73,A,11.888493827778936,30.273577092435087,0.5944246913889468,0.4755362369573916,A,591.1568750161678,Correct,sub_011_day_23_data.csv,1,600,,Button-Switch at home,,,,,,,,,,,,,k
11,23,74,A,52.019803544670104,65.82171094768113,2.600990177233505,1.0339250177997297,A,723.9250829443336,Correct,sub_011_day_23_data.csv,1,600,,Button-Switch at home,,,,,,,,,,,,,k
11,23,75,A,52.578713072401314,72.05029104477494,2.628935653620066,1.131763325176357,B,556.7001659655944,Incorrect,sub_011_day_23_data.csv,0,600,,Button-Switch at home,,,,,,,,,,,,,d
11,23,76,B,64.5148192272084,37.36629231275354,3.2257409613604207,0.5869483471081763,B,622.8959580184892,Correct,sub_011_day_23_data.csv,1,600,,Button-Switch at home,,,,,,,,,,,,,d
11,23,77,B,71.2260452152199,51.847926014826314,3.5613022607609945,0.8144253173602274,B,771.5804160106927,Correct,sub_011_day_23_data.csv,1,600,,Button-Switch at home,,,,,,,,,,,,,d
11,23,78,B,35.73763217292533,23.358422086064056,1.7868816086462664,0.3669132361251421,B,650.9257070720196,Correct,sub_011_day_23_data.csv,1,600,,Button-Switch at home,,,,,,,,,,,,,d
11,23,79,B,85.01800276092912,66.02297246475061,4.250900138046456,1.037086426317109,B,694.8484580498189,Correct,sub_011_day_23_data.csv,1,600,,Button-Switch at home,,,,,,,,,,,,,d
11,23,80,A,17.513848753824412,38.94157451802436,0.8756924376912206,0.611692822125224,A,840.9124159952626,Correct,sub_011_day_23_data.csv,1,600,,Button-Switch at home,,,,,,,,,,,,,k
11,23,81,A,21.613742877160092,51.170763377602526,1.0806871438580046,0.8037884715282887,A,675.5327080609277,Correct,sub_011_day_23_data.csv,1,600,,Button-Switch at home,,,,,,,,,,,,,k
11,23,82,B,50.00411546341092,35.660509986426966,2.500205773170546,0.5601539809831221,B,816.7168750660494,Correct,sub_011_day_23_data.csv,1,600,,Button-Switch at home,,,,,,,,,,,,,d
11,23,83,B,77.6133584242165,61.32978488553614,3.880667921210825,0.9633660082132134,B,542.9195819888264,Correct,sub_011_day_23_data.csv,1,600,,Button-Switch at home,,,,,,,,,,,,,d
11,23,84,B,82.54563306227988,54.12789299413837,4.127281653113994,0.8502389549233977,B,1979.0677080163732,Correct,sub_011_day_23_data.csv,1,600,,Button-Switch at home,,,,,,,,,,,,,d
11,23,85,A,36.80920733475074,66.75201667026779,1.840460366737537,1.0485382259180835,A,1229.200832080096,Correct,sub_011_day_23_data.csv,1,600,,Button-Switch at home,,,,,,,,,,,,,k
11,23,86,B,30.475084587366712,14.752932871987548,1.5237542293683357,0.2317385276476972,B,1380.4152079392225,Correct,sub_011_day_23_data.csv,1,600,,Button-Switch at home,,,,,,,,,,,,,d
11,23,87,A,29.893291208277272,50.55860495702126,1.4946645604138635,0.7941727095436324,A,1281.921832007356,Correct,sub_011_day_23_data.csv,1,600,,Button-Switch at home,,,,,,,,,,,,,k
11,23,88,A,30.30438560646521,58.19326790346969,1.5152192803232607,0.9140977146696154,A,1936.792832100764,Correct,sub_011_day_23_data.csv,1,600,,Button-Switch at home,,,,,,,,,,,,,k
11,23,89,B,51.10957395326554,42.28043366924605,2.555478697663277,0.6641394990294696,B,1567.6164160249757,Correct,sub_011_day_23_data.csv,1,600,,Button-Switch at home,,,,,,,,,,,,,d
11,23,90,A,53.24593950103714,75.99819513107231,2.662296975051857,1.1937768575493015,A,690.0812489911914,Correct,sub_011_day_23_data.csv,1,600,,Button-Switch at home,,,,,,,,,,,,,k
11,23,91,A,29.162451748665845,48.099469690846874,1.458122587433292,0.7555447031116473,A,1714.5198750076815,Correct,sub_011_day_23_data.csv,1,600,,Button-Switch at home,,,,,,,,,,,,,k
11,23,92,A,26.317501498860537,37.477700023091984,1.3158750749430268,0.5886983353299391,A,536.3084990531206,Correct,sub_011_day_23_data.csv,1,600,,Button-Switch at home,,,,,,,,,,,,,k
11,23,93,A,34.821328662183866,45.263226012817015,1.7410664331091934,0.7109930915982019,A,5971.585582941771,Correct,sub_011_day_23_data.csv,1,600,,Button-Switch at home,,,,,,,,,,,,,k
11,23,94,A,52.03047101669373,73.93021562898754,2.601523550834686,1.161293111491683,A,929.5797500526533,Correct,sub_011_day_23_data.csv,1,600,,Button-Switch at home,,,,,,,,,,,,,k
11,23,95,B,47.98309178695297,19.343272598169,2.399154589347648,0.3038434154539624,B,777.5231240084395,Correct,sub_011_day_23_data.csv,1,600,,Button-Switch at home,,,,,,,,,,,,,d
11,23,96,B,57.219486787122,29.251572858725883,2.8609743393561,0.459482631994599,B,569.8778741061687,Correct,sub_011_day_23_data.csv,1,600,,Button-Switch at home,,,,,,,,,,,,,d
11,23,97,B,36.03518575832322,22.16077808878332,1.8017592879161612,0.3481006882077767,B,976.4694570330904,Correct,sub_011_day_23_data.csv,1,600,,Button-Switch at home,,,,,,,,,,,,,d
11,23,98,A,23.850407670378537,55.7403431955616,1.1925203835189269,0.8755672634587507,A,558.860499993898,Correct,sub_011_day_23_data.csv,1,600,,Button-Switch at home,,,,,,,,,,,,,k
11,23,99,B,38.228909720025854,23.42692080707539,1.9114454860012928,0.3679892115186896,B,773.646124987863,Correct,sub_011_day_23_data.csv,1,600,,Button-Switch at home,,,,,,,,,,,,,d
11,23,100,B,52.57683334070594,34.90105053303953,2.6288416670352968,0.5482244197858156,B,562.7335410099477,Correct,sub_011_day_23_data.csv,1,600,,Button-Switch at home,,,,,,,,,,,,,d
11,23,101,A,29.29915693226615,56.60009550586646,1.4649578466133075,0.8890722211685538,A,582.5487909605727,Correct,sub_011_day_23_data.csv,1,600,,Button-Switch at home,,,,,,,,,,,,,k
11,23,102,A,50.238697069833634,71.57751338452994,2.5119348534916814,1.1243369510553216,A,575.3401659894735,Correct,sub_011_day_23_data.csv,1,600,,Button-Switch at home,,,,,,,,,,,,,k
11,23,103,A,46.71897923143576,54.36821176718578,2.335948961571788,0.854013873383025,A,537.6626240322366,Correct,sub_011_day_23_data.csv,1,600,,Button-Switch at home,,,,,,,,,,,,,k
11,23,104,A,22.19951913004916,36.621175195177955,1.109975956502458,0.5752440747949792,B,757.5615410460159,Incorrect,sub_011_day_23_data.csv,0,600,,Button-Switch at home,,,,,,,,,,,,,d
11,23,105,B,68.34663718330154,45.284416725791694,3.4173318591650768,0.7113259545392296,B,1411.19416593574,Correct,sub_011_day_23_data.csv,1,600,,Button-Switch at home,,,,,,,,,,,,,d
11,23,106,A,60.34728746028315,82.91442680853162,3.017364373014157,1.3024167706914576,A,1299.3239989737049,Correct,sub_011_day_23_data.csv,1,600,,Button-Switch at home,,,,,,,,,,,,,k
11,23,107,A,30.850977016116495,55.77118275029467,1.542548850805825,0.8760516900516977,A,640.0738320080563,Correct,sub_011_day_23_data.csv,1,600,,Button-Switch at home,,,,,,,,,,,,,k
11,23,108,B,76.82984919046834,49.492984117516365,3.841492459523417,0.7774339765391286,B,642.4553740071133,Correct,sub_011_day_23_data.csv,1,600,,Button-Switch at home,,,,,,,,,,,,,d
11,23,109,A,12.307682931587705,38.715110833963905,0.6153841465793852,0.608135538894478,A,543.069165898487,Correct,sub_011_day_23_data.csv,1,600,,Button-Switch at home,,,,,,,,,,,,,k
11,23,110,B,80.18913115729592,49.7314659821418,4.009456557864796,0.7811800409087369,B,560.4729580227286,Correct,sub_011_day_23_data.csv,1,600,,Button-Switch at home,,,,,,,,,,,,,d
11,23,111,B,87.95172382532022,66.44614008875509,4.397586191266011,1.043733527811156,B,632.9661660129204,Correct,sub_011_day_23_data.csv,1,600,,Button-Switch at home,,,,,,,,,,,,,d
11,23,112,A,42.89349412085625,51.18067317342083,2.1446747060428124,0.8039441342369955,A,877.937123994343,Correct,sub_011_day_23_data.csv,1,600,,Button-Switch at home,,,,,,,,,,,,,k
11,23,113,B,64.0381569651012,37.007412173178025,3.2019078482550594,0.5813110710581277,B,637.3377488926053,Correct,sub_011_day_23_data.csv,1,600,,Button-Switch at home,,,,,,,,,,,,,d
11,23,114,B,62.88331139841553,49.09103081955489,3.1441655699207764,0.7711201088993188,B,666.3962909951806,Correct,sub_011_day_23_data.csv,1,600,,Button-Switch at home,,,,,,,,,,,,,d
11,23,115,A,35.458722220370724,47.34869246461213,1.7729361110185362,0.7437515220195394,A,631.8766659824178,Correct,sub_011_day_23_data.csv,1,600,,Button-Switch at home,,,,,,,,,,,,,k
11,23,116,A,36.456809373393384,56.797392091628566,1.822840468669669,0.8921713486905966,A,626.1071240296587,Correct,sub_011_day_23_data.csv,1,600,,Button-Switch at home,,,,,,,,,,,,,k
11,23,117,B,54.02476334042851,47.12990063334195,2.7012381670214256,0.74031474797062,B,918.870208086446,Correct,sub_011_day_23_data.csv,1,600,,Button-Switch at home,,,,,,,,,,,,,d
11,23,118,B,87.22760086479396,63.02681375876026,4.361380043239698,0.9900228754184668,B,573.1643739854917,Correct,sub_011_day_23_data.csv,1,600,,Button-Switch at home,,,,,,,,,,,,,d
11,23,119,A,17.74765128820121,41.58920387999092,0.8873825644100606,0.653281686890138,A,514.5429580006748,Correct,sub_011_day_23_data.csv,1,600,,Button-Switch at home,,,,,,,,,,,,,k
11,23,120,B,76.43466052052592,58.11252214055955,3.821733026026296,0.9128293631917804,B,505.7349989656359,Correct,sub_011_day_23_data.csv,1,600,,Button-Switch at home,,,,,,,,,,,,,d
11,23,121,B,43.44431222094417,35.7466306337638,2.1722156110472084,0.5615067609481009,B,911.797374021262,Correct,sub_011_day_23_data.csv,1,600,,Button-Switch at home,,,,,,,,,,,,,d
11,23,122,A,25.07190867021494,48.8149505594664,1.2535954335107469,0.766783450314843,A,557.9521240433678,Correct,sub_011_day_23_data.csv,1,600,,Button-Switch at home,,,,,,,,,,,,,k
11,23,123,B,49.20664202942908,38.352601480301864,2.4603321014714536,0.6024412552828667,B,670.4382909229025,Correct,sub_011_day_23_data.csv,1,600,,Button-Switch at home,,,,,,,,,,,,,d
11,23,124,B,83.46157854728415,53.63840402817257,4.173078927364207,0.8425500802259406,B,899.8563739005476,Correct,sub_011_day_23_data.csv,1,600,,Button-Switch at home,,,,,,,,,,,,,d
11,23,125,A,31.917168129452236,63.8018214456217,1.595858406472612,1.002196667696064,A,603.3578750211746,Correct,sub_011_day_23_data.csv,1,600,,Button-Switch at home,,,,,,,,,,,,,k
11,23,126,A,45.6648438552344,52.85591900470018,2.2832421927617204,0.8302588342195162,A,906.535457004793,Correct,sub_011_day_23_data.csv,1,600,,Button-Switch at home,,,,,,,,,,,,,k
11,23,127,B,54.34715243390128,45.74320099760115,2.717357621695064,0.7185325210287254,B,1006.1908320058136,Correct,sub_011_day_23_data.csv,1,600,,Button-Switch at home,,,,,,,,,,,,,d
11,23,128,A,17.23395574088547,38.02959322267867,0.8616977870442736,0.5973674534368775,A,499.16949903126806,Correct,sub_011_day_23_data.csv,1,600,,Button-Switch at home,,,,,,,,,,,,,k
11,23,129,B,68.66220571323625,55.54535148808442,3.433110285661812,0.8725043408801445,B,1262.6772910589352,Correct,sub_011_day_23_data.csv,1,600,,Button-Switch at home,,,,,,,,,,,,,d
11,23,130,A,28.49879148007032,58.78789231157379,1.424939574003516,0.9234380530303404,A,1202.9710410861298,Correct,sub_011_day_23_data.csv,1,600,,Button-Switch at home,,,,,,,,,,,,,k
11,23,131,A,41.07961279518264,57.57389107574387,2.053980639759132,0.9043685662106796,A,811.8293740553781,Correct,sub_011_day_23_data.csv,1,600,,Button-Switch at home,,,,,,,,,,,,,k
11,23,132,A,17.35879814372643,42.89812330646983,0.8679399071863214,0.6738421451619735,A,584.0493749128655,Correct,sub_011_day_23_data.csv,1,600,,Button-Switch at home,,,,,,,,,,,,,k
11,23,133,B,56.84203692409949,44.246990073928465,2.8421018462049745,0.6950300947985708,B,1011.229248950258,Correct,sub_011_day_23_data.csv,1,600,,Button-Switch at home,,,,,,,,,,,,,d
11,23,134,A,25.70871768955311,54.57655579568992,1.2854358844776557,0.8572865337298645,B,514.8065829416737,Incorrect,sub_011_day_23_data.csv,0,600,,Button-Switch at home,,,,,,,,,,,,,d
11,23,135,A,36.71661064757128,55.46353097136504,1.835830532378564,0.8712191072089518,A,1074.878332903609,Correct,sub_011_day_23_data.csv,1,600,,Button-Switch at home,,,,,,,,,,,,,k
11,23,136,B,58.00232198905443,47.183908202977136,2.9001160994527213,0.7411630968906409,B,1124.683583038859,Correct,sub_011_day_23_data.csv,1,600,,Button-Switch at home,,,,,,,,,,,,,d
11,23,137,B,59.91540797209652,47.37306964203664,2.9957703986048263,0.7441344378270998,B,789.5308320876211,Correct,sub_011_day_23_data.csv,1,600,,Button-Switch at home,,,,,,,,,,,,,d
11,23,138,B,54.317769316841755,38.10916172759349,2.715888465842088,0.598617312589365,B,555.5798740824685,Correct,sub_011_day_23_data.csv,1,600,,Button-Switch at home,,,,,,,,,,,,,d
11,23,139,A,12.007060960584198,35.744974333344715,0.6003530480292099,0.5614807438419573,A,691.0572489723563,Correct,sub_011_day_23_data.csv,1,600,,Button-Switch at home,,,,,,,,,,,,,k
11,23,140,B,36.70303478257088,17.884789955263315,1.835151739128544,0.2809336236722587,B,607.5463329907507,Correct,sub_011_day_23_data.csv,1,600,,Button-Switch at home,,,,,,,,,,,,,d
11,23,141,A,31.759825461707837,43.69094646908373,1.587991273085392,0.6862957822782917,A,743.0433330591768,Correct,sub_011_day_23_data.csv,1,600,,Button-Switch at home,,,,,,,,,,,,,k
11,23,142,B,77.92890119530813,57.74109163214274,3.8964450597654063,0.9069949464089736,B,682.4566659051925,Correct,sub_011_day_23_data.csv,1,600,,Button-Switch at home,,,,,,,,,,,,,d
11,23,143,B,83.95796686160034,55.78502701576472,4.197898343080016,0.8762691552651728,B,636.0494579421356,Correct,sub_011_day_23_data.csv,1,600,,Button-Switch at home,,,,,,,,,,,,,d
11,23,144,B,55.8477640088076,37.56160561418535,2.7923882004403797,0.5900163212728092,B,657.8559159534052,Correct,sub_011_day_23_data.csv,1,600,,Button-Switch at home,,,,,,,,,,,,,d
11,23,145,B,39.49439437250827,25.70716843078965,1.9747197186254135,0.4038072574338211,B,589.1970000229776,Correct,sub_011_day_23_data.csv,1,600,,Button-Switch at home,,,,,,,,,,,,,d
11,23,146,A,39.243443963404886,48.812753600728854,1.9621721981702445,0.7667489405676924,A,837.0490409433842,Correct,sub_011_day_23_data.csv,1,600,,Button-Switch at home,,,,,,,,,,,,,k
11,23,147,A,41.65478327951092,61.137716379675695,2.082739163975546,0.9603490031782276,A,755.5891659576446,Correct,sub_011_day_23_data.csv,1,600,,Button-Switch at home,,,,,,,,,,,,,k
11,23,148,B,61.53362127138321,36.05459479545543,3.0766810635691604,0.5663442506877978,B,1383.5541660664603,Correct,sub_011_day_23_data.csv,1,600,,Button-Switch at home,,,,,,,,,,,,,d
11,23,149,A,35.67431538511873,50.898824073983754,1.783715769255937,0.7995168589359333,A,802.6539570419118,Correct,sub_011_day_23_data.csv,1,600,,Button-Switch at home,,,,,,,,,,,,,k
11,23,150,A,56.26337621836312,66.18793413628612,2.8131688109181563,1.0396776381942077,A,1151.9450820051134,Correct,sub_011_day_23_data.csv,1,600,,Button-Switch at home,,,,,,,,,,,,,k
11,23,151,B,36.344593417665855,19.796366753195105,1.817229670883293,0.3109606017980348,B,770.7660829182714,Correct,sub_011_day_23_data.csv,1,600,,Button-Switch at home,,,,,,,,,,,,,d
11,23,152,B,68.5722321931301,46.93930732012698,3.428611609656506,0.7373209152075225,B,1165.108749992214,Correct,sub_011_day_23_data.csv,1,600,,Button-Switch at home,,,,,,,,,,,,,d
11,23,153,A,39.85636276899722,64.15495478550427,1.992818138449861,1.0077436732276277,A,599.230082007125,Correct,sub_011_day_23_data.csv,1,600,,Button-Switch at home,,,,,,,,,,,,,k
11,23,154,A,29.507818726269452,42.15584128912078,1.4753909363134727,0.6621824064989956,A,935.6766249984504,Correct,sub_011_day_23_data.csv,1,600,,Button-Switch at home,,,,,,,,,,,,,k
11,23,155,B,60.93536666905988,51.96532088220684,3.0467683334529942,0.8162693516248865,A,1053.6846249597147,Incorrect,sub_011_day_23_data.csv,0,600,,Button-Switch at home,,,,,,,,,,,,,k
11,23,156,A,55.78023741626739,65.08731128948604,2.7890118708133698,1.0223890949448065,A,1130.624373909086,Correct,sub_011_day_23_data.csv,1,600,,Button-Switch at home,,,,,,,,,,,,,k
11,23,157,A,20.424184452660132,34.35794693959556,1.0212092226330065,0.5396933684893066,A,829.4375829864293,Correct,sub_011_day_23_data.csv,1,600,,Button-Switch at home,,,,,,,,,,,,,k
11,23,158,B,67.80874286486535,45.471629492804894,3.3904371432432674,0.714266685806764,B,1088.2486250484362,Correct,sub_011_day_23_data.csv,1,600,,Button-Switch at home,,,,,,,,,,,,,d
11,23,159,B,78.99312455640172,50.81755573956661,3.949656227820086,0.7982402989240613,B,574.0802070358768,Correct,sub_011_day_23_data.csv,1,600,,Button-Switch at home,,,,,,,,,,,,,d
11,23,160,B,76.91568820949809,59.6674775910462,3.845784410474904,0.9372545462913217,B,618.5103739844635,Correct,sub_011_day_23_data.csv,1,600,,Button-Switch at home,,,,,,,,,,,,,d
11,23,161,A,36.332556689431655,63.500481975183014,1.816627834471583,0.99746323836323,A,786.3877069903538,Correct,sub_011_day_23_data.csv,1,600,,Button-Switch at home,,,,,,,,,,,,,k
11,23,162,A,32.6022419681843,58.943033961083415,1.630112098409215,0.9258750123621666,A,526.2574160005897,Correct,sub_011_day_23_data.csv,1,600,,Button-Switch at home,,,,,,,,,,,,,k
11,23,163,B,65.52770804686217,57.73447428637583,3.276385402343109,0.9068910013847354,A,583.5004160180688,Incorrect,sub_011_day_23_data.csv,0,600,,Button-Switch at home,,,,,,,,,,,,,k
11,23,164,B,34.73002894131726,15.594534573050469,1.7365014470658628,0.2449583762542369,B,693.3461660519242,Correct,sub_011_day_23_data.csv,1,600,,Button-Switch at home,,,,,,,,,,,,,d
11,23,165,A,27.11347883141144,38.27456679651064,1.355673941570572,0.6012154893362482,B,788.5664569912478,Incorrect,sub_011_day_23_data.csv,0,600,,Button-Switch at home,,,,,,,,,,,,,d
11,23,166,A,49.23682557817367,68.05895538160769,2.461841278908683,1.0690675711892712,A,674.4164580013603,Correct,sub_011_day_23_data.csv,1,600,,Button-Switch at home,,,,,,,,,,,,,k
11,23,167,B,57.94757617667055,34.442875280827664,2.897378808833528,0.5410274197537883,B,633.3748330362141,Correct,sub_011_day_23_data.csv,1,600,,Button-Switch at home,,,,,,,,,,,,,d
11,23,168,B,65.3752184823567,33.3964298299063,3.2687609241178346,0.5245898930488033,B,642.1586249489337,Correct,sub_011_day_23_data.csv,1,600,,Button-Switch at home,,,,,,,,,,,,,d
11,23,169,A,46.36620214493188,64.45446443680322,2.318310107246594,1.0124483598286278,A,627.6332080597058,Correct,sub_011_day_23_data.csv,1,600,,Button-Switch at home,,,,,,,,,,,,,k
11,23,170,A,50.966954715582126,78.76792823103308,2.5483477357791062,1.237283723345508,A,651.3966659549624,Correct,sub_011_day_23_data.csv,1,600,,Button-Switch at home,,,,,,,,,,,,,k
11,23,171,B,56.04126574104709,27.09788298004245,2.8020632870523547,0.4256525504896862,B,529.3087910395116,Correct,sub_011_day_23_data.csv,1,600,,Button-Switch at home,,,,,,,,,,,,,d
11,23,172,A,35.11340400415267,48.47733581772027,1.7556702002076334,0.7614802103527767,A,584.0432490222156,Correct,sub_011_day_23_data.csv,1,600,,Button-Switch at home,,,,,,,,,,,,,k
11,23,173,B,73.5735770694671,42.50482667258437,3.678678853473355,0.6676642560834927,B,593.790166079998,Correct,sub_011_day_23_data.csv,1,600,,Button-Switch at home,,,,,,,,,,,,,d
11,23,174,B,48.11639376558874,27.637153880201375,2.4058196882794367,0.4341233979808564,B,615.0931239826605,Correct,sub_011_day_23_data.csv,1,600,,Button-Switch at home,,,,,,,,,,,,,d
11,23,175,B,45.12179078113106,36.504769600076486,2.256089539056553,0.5734155799829416,B,751.219874015078,Correct,sub_011_day_23_data.csv,1,600,,Button-Switch at home,,,,,,,,,,,,,d
11,23,176,B,75.63037417379809,60.275622889948096,3.781518708689904,0.9468072703080488,B,622.067040996626,Correct,sub_011_day_23_data.csv,1,600,,Button-Switch at home,,,,,,,,,,,,,d
11,23,177,A,54.39855763419735,81.03496260435888,2.719927881709868,1.2728942160088872,A,477.5467070285231,Correct,sub_011_day_23_data.csv,1,600,,Button-Switch at home,,,,,,,,,,,,,k
11,23,178,A,56.66321988318394,74.77421591059694,2.833160994159197,1.1745506369133418,A,776.8179989652708,Correct,sub_011_day_23_data.csv,1,600,,Button-Switch at home,,,,,,,,,,,,,k
11,23,179,B,82.41734920103413,65.3348990229387,4.120867460051707,1.0262781939674757,B,1817.331250058487,Correct,sub_011_day_23_data.csv,1,600,,Button-Switch at home,,,,,,,,,,,,,d
11,23,180,B,65.16217331237505,41.67741242538119,3.258108665618752,0.6546672634810475,B,783.4522490156814,Correct,sub_011_day_23_data.csv,1,600,,Button-Switch at home,,,,,,,,,,,,,d
11,23,181,B,32.173384248172695,18.102621676915412,1.6086692124086346,0.284355316354564,B,865.7066250452772,Correct,sub_011_day_23_data.csv,1,600,,Button-Switch at home,,,,,,,,,,,,,d
11,23,182,B,70.5064264268419,44.88934271187328,3.525321321342095,0.7051201464404783,B,763.063624035567,Correct,sub_011_day_23_data.csv,1,600,,Button-Switch at home,,,,,,,,,,,,,d
11,23,183,B,33.999214386403764,13.12917641437511,1.6999607193201882,0.2062326208554261,B,591.0726240836084,Correct,sub_011_day_23_data.csv,1,600,,Button-Switch at home,,,,,,,,,,,,,d
11,23,184,A,41.68905839148183,60.19412324899752,2.0844529195740917,0.945527076941646,A,846.4681240729988,Correct,sub_011_day_23_data.csv,1,600,,Button-Switch at home,,,,,,,,,,,,,k
11,23,185,B,54.0446165807307,43.4571875336684,2.702230829036535,0.682623905507233,B,1806.118082953617,Correct,sub_011_day_23_data.csv,1,600,,Button-Switch at home,,,,,,,,,,,,,d
11,23,186,B,73.54876780228184,44.4644268863862,3.677438390114093,0.6984455842617568,B,668.8649160787463,Correct,sub_011_day_23_data.csv,1,600,,Button-Switch at home,,,,,,,,,,,,,d
11,23,187,A,24.40503157231391,53.61460612155194,1.220251578615695,0.8421762635828897,A,1723.1370409717783,Correct,sub_011_day_23_data.csv,1,600,,Button-Switch at home,,,,,,,,,,,,,k
11,23,188,B,59.7403540181853,30.587598728069644,2.987017700909265,0.4804688772752804,B,540.4102080501616,Correct,sub_011_day_23_data.csv,1,600,,Button-Switch at home,,,,,,,,,,,,,d
11,23,189,A,31.312506893506335,64.35338750103575,1.5656253446753166,1.0108606470343555,A,549.8049159068614,Correct,sub_011_day_23_data.csv,1,600,,Button-Switch at home,,,,,,,,,,,,,k
11,23,190,A,29.073994327655065,59.34076810124575,1.4536997163827534,0.932122605626246,A,616.8270410271361,Correct,sub_011_day_23_data.csv,1,600,,Button-Switch at home,,,,,,,,,,,,,k
11,23,191,A,47.64782464369671,75.66344830700994,2.3823912321848355,1.188518666732867,A,595.8025819854811,Correct,sub_011_day_23_data.csv,1,600,,Button-Switch at home,,,,,,,,,,,,,k
11,23,192,B,50.29314443153622,23.77757299315003,2.5146572215768113,0.3734972431773761,B,617.7428739611059,Correct,sub_011_day_23_data.csv,1,600,,Button-Switch at home,,,,,,,,,,,,,d
11,23,193,A,32.16788927955309,65.06426223352224,1.6083944639776544,1.0220270412203665,A,590.7510409597307,Correct,sub_011_day_23_data.csv,1,600,,Button-Switch at home,,,,,,,,,,,,,k
11,23,194,A,36.09354051123169,56.57344664354754,1.8046770255615845,0.8886536218181156,A,574.2678330279887,Correct,sub_011_day_23_data.csv,1,600,,Button-Switch at home,,,,,,,,,,,,,k
11,23,195,A,27.48882585498964,43.92363062241613,1.3744412927494818,0.6899507764118709,A,574.7819570824504,Correct,sub_011_day_23_data.csv,1,600,,Button-Switch at home,,,,,,,,,,,,,k
11,23,196,B,65.02690576542187,42.004416725187056,3.251345288271094,0.6598038350108595,B,1760.9570829663426,Correct,sub_011_day_23_data.csv,1,600,,Button-Switch at home,,,,,,,,,,,,,d
11,23,197,B,78.07082741929793,46.64820307845539,3.903541370964896,0.7327482604722011,B,575.2355000004172,Correct,sub_011_day_23_data.csv,1,600,,Button-Switch at home,,,,,,,,,,,,,d
11,23,198,B,51.730502185132615,34.165048336017804,2.586525109256631,0.5366633243098686,A,1960.5841239681467,Incorrect,sub_011_day_23_data.csv,0,600,,Button-Switch at home,,,,,,,,,,,,,k
11,23,199,B,43.322534295880345,18.890747740012213,2.1661267147940175,0.2967351716042018,B,773.3452490065247,Correct,sub_011_day_23_data.csv,1,600,,Button-Switch at home,,,,,,,,,,,,,d
11,23,200,A,22.173262929525773,54.01874305957265,1.1086631464762886,0.8485244317605402,A,985.9726659487932,Correct,sub_011_day_23_data.csv,1,600,,Button-Switch at home,,,,,,,,,,,,,k
11,23,201,B,73.29943063074266,56.737266006368955,3.6649715315371334,0.8912268903518932,B,622.9992909356952,Correct,sub_011_day_23_data.csv,1,600,,Button-Switch at home,,,,,,,,,,,,,d
11,23,202,A,15.419121180387055,45.19066824178466,0.7709560590193527,0.7098533567960212,A,1274.565041065216,Correct,sub_011_day_23_data.csv,1,600,,Button-Switch at home,,,,,,,,,,,,,k
11,23,203,A,24.03055052282414,34.63714284277992,1.201527526141207,0.5440789674810884,A,877.8811249649152,Correct,sub_011_day_23_data.csv,1,600,,Button-Switch at home,,,,,,,,,,,,,k
11,23,204,B,61.2528964782424,53.96045050554616,3.0626448239121196,0.8476087744630972,A,940.0727080646902,Incorrect,sub_011_day_23_data.csv,0,600,,Button-Switch at home,,,,,,,,,,,,,k
11,23,205,A,40.209442418756765,71.0067525134896,2.0104721209378384,1.1153714602582374,B,602.4293740047142,Incorrect,sub_011_day_23_data.csv,0,600,,Button-Switch at home,,,,,,,,,,,,,d
11,23,206,B,37.30817680634078,19.222102471038266,1.865408840317039,0.30194007954782,B,826.5417490620166,Correct,sub_011_day_23_data.csv,1,600,,Button-Switch at home,,,,,,,,,,,,,d
11,23,207,A,40.77383532119275,49.91454018820957,2.038691766059638,0.7840557638129585,A,896.8490819679573,Correct,sub_011_day_23_data.csv,1,600,,Button-Switch at home,,,,,,,,,,,,,k
11,23,208,A,23.704559817021966,49.85967940367722,1.1852279908510983,0.7831940126246734,A,703.5450410330668,Correct,sub_011_day_23_data.csv,1,600,,Button-Switch at home,,,,,,,,,,,,,k
11,23,209,A,20.002983257006388,48.16246010969674,1.0001491628503194,0.7565341542971737,A,455.22395707666874,Correct,sub_011_day_23_data.csv,1,600,,Button-Switch at home,,,,,,,,,,,,,k
11,23,210,B,66.0605857205028,48.338235187841235,3.30302928602514,0.7592952227680883,B,1465.0126660708338,Correct,sub_011_day_23_data.csv,1,600,,Button-Switch at home,,,,,,,,,,,,,d
11,23,211,A,43.989509302763246,74.79396013688799,2.1994754651381623,1.174860778494676,A,568.3057080022991,Correct,sub_011_day_23_data.csv,1,600,,Button-Switch at home,,,,,,,,,,,,,k
11,23,212,B,61.07866890788448,28.661992536161975,3.053933445394224,0.4502215259442597,B,874.354206956923,Correct,sub_011_day_23_data.csv,1,600,,Button-Switch at home,,,,,,,,,,,,,d
11,23,213,A,63.47541081198267,81.53815990258377,3.1737705405991337,1.280798420685935,A,625.0579570187256,Correct,sub_011_day_23_data.csv,1,600,,Button-Switch at home,,,,,,,,,,,,,k
11,23,214,B,41.78783071233241,19.70710131069547,2.0893915356166204,0.3095584235061534,B,966.9327499577776,Correct,sub_011_day_23_data.csv,1,600,,Button-Switch at home,,,,,,,,,,,,,d
11,23,215,A,19.8256438342656,46.63495769027476,0.99128219171328,0.73254020240119,A,848.9005409646779,Correct,sub_011_day_23_data.csv,1,600,,Button-Switch at home,,,,,,,,,,,,,k
11,23,216,A,61.26751296139349,80.6283601735616,3.0633756480696746,1.2665073199612649,A,791.1432080436498,Correct,sub_011_day_23_data.csv,1,600,,Button-Switch at home,,,,,,,,,,,,,k
11,23,217,B,30.629416940451012,12.44156996023736,1.5314708470225509,0.1954317239310257,B,633.7031660368666,Correct,sub_011_day_23_data.csv,1,600,,Button-Switch at home,,,,,,,,,,,,,d
11,23,218,A,39.139774480526434,59.74607859078628,1.9569887240263215,0.938489207908063,A,842.2420830465853,Correct,sub_011_day_23_data.csv,1,600,,Button-Switch at home,,,,,,,,,,,,,k
11,23,219,A,40.54923809618408,65.68000455594539,2.027461904809204,1.0316990990035109,A,628.6191251128912,Correct,sub_011_day_23_data.csv,1,600,,Button-Switch at home,,,,,,,,,,,,,k
11,23,220,A,50.56176637705523,81.26266490993311,2.5280883188527614,1.2764709554608744,A,623.21737408638,Correct,sub_011_day_23_data.csv,1,600,,Button-Switch at home,,,,,,,,,,,,,k
11,23,221,A,46.97833161544592,62.807990251019326,2.3489165807722956,0.9865856037967082,A,626.6799580771476,Correct,sub_011_day_23_data.csv,1,600,,Button-Switch at home,,,,,,,,,,,,,k
11,23,222,B,44.18484643578279,25.181448082772945,2.2092423217891395,0.3955492615179612,B,693.5580410063267,Correct,sub_011_day_23_data.csv,1,600,,Button-Switch at home,,,,,,,,,,,,,d
11,23,223,B,49.54448636448902,29.96230460048173,2.477224318224451,0.4706467800874653,B,581.0659159906209,Correct,sub_011_day_23_data.csv,1,600,,Button-Switch at home,,,,,,,,,,,,,d
11,23,224,A,16.787849455855206,35.6205719707498,0.8393924727927603,0.5595266360998704,A,615.049624000676,Correct,sub_011_day_23_data.csv,1,600,,Button-Switch at home,,,,,,,,,,,,,k
11,23,225,B,77.20699494954467,52.75435585553993,3.8603497474772337,0.8286634840031296,B,682.751415995881,Correct,sub_011_day_23_data.csv,1,600,,Button-Switch at home,,,,,,,,,,,,,d
11,23,226,B,36.38839063975995,13.642933419811246,1.8194195319879976,0.2143026970254684,B,1221.443208050914,Correct,sub_011_day_23_data.csv,1,600,,Button-Switch at home,,,,,,,,,,,,,d
11,23,227,A,11.926656372369704,37.16047513383673,0.5963328186184852,0.5837153784218382,A,568.8687909860164,Correct,sub_011_day_23_data.csv,1,600,,Button-Switch at home,,,,,,,,,,,,,k
11,23,228,B,33.70101178440247,14.589597437086796,1.6850505892201233,0.2291728606359217,B,543.8657079357654,Correct,sub_011_day_23_data.csv,1,600,,Button-Switch at home,,,,,,,,,,,,,d
11,23,229,B,52.74848551745902,36.90112695480705,2.637424275872951,0.5796415467520306,B,826.4614570653066,Correct,sub_011_day_23_data.csv,1,600,,Button-Switch at home,,,,,,,,,,,,,d
11,23,230,A,31.782401973670066,60.06417552823753,1.589120098683503,0.9434858629171944,A,525.6012079771608,Correct,sub_011_day_23_data.csv,1,600,,Button-Switch at home,,,,,,,,,,,,,k
11,23,231,B,79.3482273473927,58.687965656694246,3.967411367369635,0.9218684088060036,B,1715.6025409931317,Correct,sub_011_day_23_data.csv,1,600,,Button-Switch at home,,,,,,,,,,,,,d
11,23,232,B,54.314282917913395,43.98150423479014,2.71571414589567,0.6908598529892254,B,692.5534999463707,Correct,sub_011_day_23_data.csv,1,600,,Button-Switch at home,,,,,,,,,,,,,d
11,23,233,A,52.385035395161495,62.647625505602555,2.6192517697580744,0.9840666002662276,A,692.5038320478052,Correct,sub_011_day_23_data.csv,1,600,,Button-Switch at home,,,,,,,,,,,,,k
11,23,234,A,25.24627758368518,39.25150088055171,1.2623138791842592,0.6165611340435727,A,1266.6160819353536,Correct,sub_011_day_23_data.csv,1,600,,Button-Switch at home,,,,,,,,,,,,,k
11,23,235,A,10.66946737391715,30.980443354720148,0.5334733686958575,0.4866396662407177,A,527.4530410533771,Correct,sub_011_day_23_data.csv,1,600,,Button-Switch at home,,,,,,,,,,,,,k
11,23,236,A,26.78294823384404,43.1298031192229,1.3391474116922018,0.677481363150624,A,562.497916049324,Correct,sub_011_day_23_data.csv,1,600,,Button-Switch at home,,,,,,,,,,,,,k
11,23,237,A,59.47104698794077,79.61258725511858,2.9735523493970386,1.2505515962697846,A,689.4172489410266,Correct,sub_011_day_23_data.csv,1,600,,Button-Switch at home,,,,,,,,,,,,,k
11,23,238,A,64.77553995276277,79.7033203475121,3.2387769976381384,1.2519768283522894,A,727.0549579989165,Correct,sub_011_day_23_data.csv,1,600,,Button-Switch at home,,,,,,,,,,,,,k
11,23,239,A,17.222194270127712,36.626816797443965,0.8611097135063857,0.575332692876146,A,577.6223739376292,Correct,sub_011_day_23_data.csv,1,600,,Button-Switch at home,,,,,,,,,,,,,k
11,23,240,B,75.87497165200608,51.46767515203696,3.793748582600304,0.8084523507749263,B,688.5261660208926,Correct,sub_011_day_23_data.csv,1,600,,Button-Switch at home,,,,,,,,,,,,,d
11,23,241,A,27.338982202293217,44.088265177354614,1.3669491101146607,0.6925368499534797,A,579.1476239683107,Correct,sub_011_day_23_data.csv,1,600,,Button-Switch at home,,,,,,,,,,,,,k
11,23,242,A,35.458976938479736,57.499077334744854,1.772948846923987,0.903193394715129,A,637.4720829771832,Correct,sub_011_day_23_data.csv,1,600,,Button-Switch at home,,,,,,,,,,,,,k
11,23,243,A,47.64908756144592,62.89749960775373,2.382454378072296,0.98799161348443,A,617.8396659670398,Correct,sub_011_day_23_data.csv,1,600,,Button-Switch at home,,,,,,,,,,,,,k
11,23,244,B,62.89550187831578,50.846604204725494,3.144775093915789,0.7986965911477675,A,660.5941239977255,Incorrect,sub_011_day_23_data.csv,0,600,,Button-Switch at home,,,,,,,,,,,,,k
11,23,245,B,86.88738145166545,60.2415255905434,4.344369072583272,0.9462716711814632,B,496.47824896965176,Correct,sub_011_day_23_data.csv,1,600,,Button-Switch at home,,,,,,,,,,,,,d
11,23,246,B,61.43451118038993,41.00417761043276,3.0717255590194963,0.6440921157371332,B,554.7167080221698,Correct,sub_011_day_23_data.csv,1,600,,Button-Switch at home,,,,,,,,,,,,,d
11,23,247,A,46.81233888600675,72.45879197551817,2.3406169443003377,1.1381800427913946,A,657.5840830337256,Correct,sub_011_day_23_data.csv,1,600,,Button-Switch at home,,,,,,,,,,,,,k
11,23,248,B,77.76054641172699,65.65899120986654,3.8880273205863496,1.0313690221351677,B,840.6843739794567,Correct,sub_011_day_23_data.csv,1,600,,Button-Switch at home,,,,,,,,,,,,,d
11,23,249,A,18.086737259281684,46.22756477669273,0.904336862964084,0.7261408894790209,A,525.0986659666523,Correct,sub_011_day_23_data.csv,1,600,,Button-Switch at home,,,,,,,,,,,,,k
11,23,250,A,43.39584095424264,71.64796153692564,2.1697920477121317,1.125443548045448,A,528.47554103937,Correct,sub_011_day_23_data.csv,1,600,,Button-Switch at home,,,,,,,,,,,,,k
11,23,251,B,77.7001486996671,50.54288619109902,3.885007434983355,0.7939257997459084,B,606.181165901944,Correct,sub_011_day_23_data.csv,1,600,,Button-Switch at home,,,,,,,,,,,,,d
11,23,252,B,56.48300340107889,30.29341293733064,2.8241501700539446,0.4758478176803997,B,1012.2509159846232,Correct,sub_011_day_23_data.csv,1,600,,Button-Switch at home,,,,,,,,,,,,,d
11,23,253,A,54.62268790583245,77.71712459462245,2.7311343952916225,1.2207777384229428,A,642.3792080022395,Correct,sub_011_day_23_data.csv,1,600,,Button-Switch at home,,,,,,,,,,,,,k
11,23,254,B,33.64677851841454,10.76673982263542,1.682338925920727,0.1691235536495205,B,588.0221240222454,Correct,sub_011_day_23_data.csv,1,600,,Button-Switch at home,,,,,,,,,,,,,d
11,23,255,B,46.62681547979248,18.317220630000044,2.331340773989624,0.2877262288269577,B,674.2012909380719,Correct,sub_011_day_23_data.csv,1,600,,Button-Switch at home,,,,,,,,,,,,,d
11,23,256,A,29.52011907990537,49.940269049947105,1.4760059539952686,0.7844599118280576,A,643.606623983942,Correct,sub_011_day_23_data.csv,1,600,,Button-Switch at home,,,,,,,,,,,,,k
11,23,257,A,35.72898593606239,43.377685203496675,1.7864492968031191,0.681375085825179,A,810.6181240873411,Correct,sub_011_day_23_data.csv,1,600,,Button-Switch at home,,,,,,,,,,,,,k
11,23,258,B,79.42291913982572,65.8275026072598,3.9711459569912857,1.0340159929756518,B,599.6653320034966,Correct,sub_011_day_23_data.csv,1,600,,Button-Switch at home,,,,,,,,,,,,,d
11,23,259,B,47.684460181079864,25.14279315461679,2.384223009053993,0.3949420713263592,B,577.7362500084564,Correct,sub_011_day_23_data.csv,1,600,,Button-Switch at home,,,,,,,,,,,,,d
11,23,260,A,28.91875065003954,53.76338278855969,1.4459375325019772,0.8445132420033752,A,567.6052909111604,Correct,sub_011_day_23_data.csv,1,600,,Button-Switch at home,,,,,,,,,,,,,k
11,23,261,B,60.58988762529928,29.705292426990113,3.0294943812649637,0.4666096423068432,B,572.0173739828169,Correct,sub_011_day_23_data.csv,1,600,,Button-Switch at home,,,,,,,,,,,,,d
11,23,262,B,67.733805356051,40.27601145238402,3.3866902678025497,0.6326541084735401,B,699.4337080977857,Correct,sub_011_day_23_data.csv,1,600,,Button-Switch at home,,,,,,,,,,,,,d
11,23,263,A,34.39210274356115,52.921359277410254,1.719605137178058,0.8312867676194904,A,567.7524580387399,Correct,sub_011_day_23_data.csv,1,600,,Button-Switch at home,,,,,,,,,,,,,k
11,23,264,B,47.66660607212332,24.22069185987154,2.3833303036061664,0.3804577380591726,B,586.2871661083773,Correct,sub_011_day_23_data.csv,1,600,,Button-Switch at home,,,,,,,,,,,,,d
11,23,265,A,32.72375905023286,47.781147393124414,1.6361879525116427,0.7505445081516537,A,648.0122080538422,Correct,sub_011_day_23_data.csv,1,600,,Button-Switch at home,,,,,,,,,,,,,k
11,23,266,B,68.13575376081653,53.04871347183305,3.4067876880408265,0.833287242627503,B,619.3283320171759,Correct,sub_011_day_23_data.csv,1,600,,Button-Switch at home,,,,,,,,,,,,,d
11,23,267,B,47.30022840455101,25.840426961269113,2.3650114202275505,0.4059004775357333,B,813.100541010499,Correct,sub_011_day_23_data.csv,1,600,,Button-Switch at home,,,,,,,,,,,,,d
11,23,268,B,50.399300457882134,19.856668410298095,2.5199650228941066,0.311907818012805,B,439.7884990321472,Correct,sub_011_day_23_data.csv,1,600,,Button-Switch at home,,,,,,,,,,,,,d
11,23,269,A,44.38736688581997,66.34738236860623,2.2193683442909986,1.0421822451706315,A,540.4269580030814,Correct,sub_011_day_23_data.csv,1,600,,Button-Switch at home,,,,,,,,,,,,,k
11,23,270,B,47.750154267704055,40.831589832117615,2.3875077133852027,0.6413811132548619,B,572.2103329608217,Correct,sub_011_day_23_data.csv,1,600,,Button-Switch at home,,,,,,,,,,,,,d
11,23,271,A,47.59080753601079,59.55372043663597,2.3795403768005396,0.9354676530883796,A,566.4446239825338,Correct,sub_011_day_23_data.csv,1,600,,Button-Switch at home,,,,,,,,,,,,,k
11,23,272,A,21.42835289279188,38.36714004162965,1.071417644639594,0.6026696264701725,A,621.2602910818532,Correct,sub_011_day_23_data.csv,1,600,,Button-Switch at home,,,,,,,,,,,,,k
11,23,273,A,47.27138052180641,64.18904945467303,2.36356902609032,1.008279231038563,A,551.5602909727022,Correct,sub_011_day_23_data.csv,1,600,,Button-Switch at home,,,,,,,,,,,,,k
11,23,274,B,69.8682455955507,59.84978026782501,3.4934122797775355,0.940118150041812,B,1016.871041036211,Correct,sub_011_day_23_data.csv,1,600,,Button-Switch at home,,,,,,,,,,,,,d
11,23,275,B,63.78301259813342,47.52161627267057,3.189150629906671,0.7464678028446752,B,1090.0273319566622,Correct,sub_011_day_23_data.csv,1,600,,Button-Switch at home,,,,,,,,,,,,,d
11,23,276,B,34.16195161484788,13.585572498554946,1.708097580742394,0.2134016737813587,B,560.9137079445645,Correct,sub_011_day_23_data.csv,1,600,,Button-Switch at home,,,,,,,,,,,,,d
11,23,277,B,44.66449141648094,31.87702201699275,2.233224570824047,0.5007230909345226,B,583.3160829497501,Correct,sub_011_day_23_data.csv,1,600,,Button-Switch at home,,,,,,,,,,,,,d
11,23,278,A,43.031670087073365,51.5703181144078,2.151583504353668,0.8100646626575608,A,1075.465957983397,Correct,sub_011_day_23_data.csv,1,600,,Button-Switch at home,,,,,,,,,,,,,k
11,23,279,B,64.25243357235243,39.934763875688745,3.212621678617621,0.6272938040735341,B,670.1347080525011,Correct,sub_011_day_23_data.csv,1,600,,Button-Switch at home,,,,,,,,,,,,,d
11,23,280,A,57.09952551412739,69.58842058757453,2.8549762757063695,1.0930923544642044,A,615.779040963389,Correct,sub_011_day_23_data.csv,1,600,,Button-Switch at home,,,,,,,,,,,,,k
11,23,281,B,63.93368997456393,37.63230603166122,3.196684498728197,0.5911268808335488,B,928.0732499901204,Correct,sub_011_day_23_data.csv,1,600,,Button-Switch at home,,,,,,,,,,,,,d
11,23,282,B,58.95804619655146,46.822002499898346,2.947902309827573,0.7354782954002178,B,857.964291004464,Correct,sub_011_day_23_data.csv,1,600,,Button-Switch at home,,,,,,,,,,,,,d
11,23,283,B,50.784196991865855,27.997363327218988,2.5392098495932927,0.4397815547433773,B,726.7375410301611,Correct,sub_011_day_23_data.csv,1,600,,Button-Switch at home,,,,,,,,,,,,,d
11,23,284,A,42.38640217880913,51.26403808907793,2.1193201089404563,0.8052536272699727,A,1025.616873987019,Correct,sub_011_day_23_data.csv,1,600,,Button-Switch at home,,,,,,,,,,,,,k
11,23,285,B,43.9537348208016,19.552464492109607,2.19768674104008,0.3071293940399341,B,590.5084579717368,Correct,sub_011_day_23_data.csv,1,600,,Button-Switch at home,,,,,,,,,,,,,d
11,23,286,A,30.06490397037054,62.64280153571234,1.503245198518527,0.9839908255243864,A,1404.1177909821272,Correct,sub_011_day_23_data.csv,1,600,,Button-Switch at home,,,,,,,,,,,,,k
11,23,287,A,48.33796768749495,55.35567518611252,2.4168983843747474,0.8695249124959695,A,634.976040921174,Correct,sub_011_day_23_data.csv,1,600,,Button-Switch at home,,,,,,,,,,,,,k
11,23,288,B,55.16513702489818,42.38407112494187,2.758256851244909,0.6657674323767234,B,850.3008330008015,Correct,sub_011_day_23_data.csv,1,600,,Button-Switch at home,,,,,,,,,,,,,d
11,23,289,B,82.63100719574733,56.059801498638855,4.131550359787366,0.8805853027491295,B,742.1822909964249,Correct,sub_011_day_23_data.csv,1,600,,Button-Switch at home,,,,,,,,,,,,,d
11,23,290,B,57.34835569055524,26.068986509988154,2.867417784527762,0.409490682531551,B,565.2510410873219,Correct,sub_011_day_23_data.csv,1,600,,Button-Switch at home,,,,,,,,,,,,,d
11,23,291,A,47.40488085417671,59.5764616684109,2.3702440427088356,0.935824871521768,A,654.4869160279632,Correct,sub_011_day_23_data.csv,1,600,,Button-Switch at home,,,,,,,,,,,,,k
11,23,292,B,64.52965094409274,49.028598760061165,3.226482547204637,0.770139428402049,A,679.1139990091324,Incorrect,sub_011_day_23_data.csv,0,600,,Button-Switch at home,,,,,,,,,,,,,k
11,23,293,B,45.1425926685791,26.201749726732583,2.2571296334289546,0.4115761222635073,B,475.05904105491936,Correct,sub_011_day_23_data.csv,1,600,,Button-Switch at home,,,,,,,,,,,,,d
11,23,294,B,74.06663999227612,45.29561254334071,3.7033319996138063,0.7115018180300443,B,456.0782079352066,Correct,sub_011_day_23_data.csv,1,600,,Button-Switch at home,,,,,,,,,,,,,d
11,23,295,B,62.71333890825222,38.9151403235905,3.135666945412611,0.6112775947700392,B,588.6307910550386,Correct,sub_011_day_23_data.csv,1,600,,Button-Switch at home,,,,,,,,,,,,,d
11,23,296,A,40.07105715089985,67.2080273533571,2.0035528575449923,1.0557012249778424,A,506.7222489742562,Correct,sub_011_day_23_data.csv,1,600,,Button-Switch at home,,,,,,,,,,,,,k
11,23,297,A,43.01918690543349,72.17091327627617,2.150959345271674,1.1336580547580764,A,708.422873984091,Correct,sub_011_day_23_data.csv,1,600,,Button-Switch at home,,,,,,,,,,,,,k
11,23,298,A,36.58513267574131,68.56105291334936,1.8292566337870655,1.0769545007747972,A,512.944498914294,Correct,sub_011_day_23_data.csv,1,600,,Button-Switch at home,,,,,,,,,,,,,k
11,23,299,A,33.86740845924708,45.523637867159835,1.693370422962354,0.7150836314407574,A,689.4818749278784,Correct,sub_011_day_23_data.csv,1,600,,Button-Switch at home,,,,,,,,,,,,,k
11,23,300,B,35.8893093075685,21.956012625998735,1.794465465378425,0.3448842398398118,B,583.4055820014328,Correct,sub_011_day_23_data.csv,1,600,,Button-Switch at home,,,,,,,,,,,,,d
11,23,301,A,60.88797804852869,76.69224884482206,3.044398902426434,1.2046790277908663,A,744.7566239861771,Correct,sub_011_day_23_data.csv,1,600,,Button-Switch at home,,,,,,,,,,,,,k
11,23,302,A,33.59298207118518,63.55792337266955,1.6796491035592591,0.9983655257250084,A,661.3545409636572,Correct,sub_011_day_23_data.csv,1,600,,Button-Switch at home,,,,,,,,,,,,,k
11,23,303,A,57.600445371305426,75.76488944467258,2.8800222685652717,1.1901121003971311,A,521.0397490300238,Correct,sub_011_day_23_data.csv,1,600,,Button-Switch at home,,,,,,,,,,,,,k
11,23,304,B,82.92500413005152,53.98075411034452,4.146250206502576,0.8479277027414769,B,624.7876660199836,Correct,sub_011_day_23_data.csv,1,600,,Button-Switch at home,,,,,,,,,,,,,d
11,23,305,A,21.71791593949291,37.6996303736664,1.0858957969746457,0.5921844091248051,A,482.9605830600485,Correct,sub_011_day_23_data.csv,1,600,,Button-Switch at home,,,,,,,,,,,,,k
11,23,306,B,67.31721991823296,41.615366708053855,3.3658609959116483,0.6536926516323363,B,534.7849579993635,Correct,sub_011_day_23_data.csv,1,600,,Button-Switch at home,,,,,,,,,,,,,d
11,23,307,B,52.87447317589198,42.502474619531746,2.643723658794599,0.6676273101205379,B,757.9942069714889,Correct,sub_011_day_23_data.csv,1,600,,Button-Switch at home,,,,,,,,,,,,,d
11,23,308,A,49.045963311873315,59.76539757900533,2.4522981655936658,0.9387926698653816,A,821.8830410623923,Correct,sub_011_day_23_data.csv,1,600,,Button-Switch at home,,,,,,,,,,,,,k
11,23,309,B,31.49176985039892,14.389588559484244,1.574588492519946,0.2260311285332772,A,1440.3283329447731,Incorrect,sub_011_day_23_data.csv,0,600,,Button-Switch at home,,,,,,,,,,,,,k
11,23,310,B,74.84141045605934,50.25034014537152,3.742070522802967,0.7893304972054371,B,624.0730410208926,Correct,sub_011_day_23_data.csv,1,600,,Button-Switch at home,,,,,,,,,,,,,d
11,23,311,B,79.2934841336226,49.141671013466045,3.96467420668113,0.7719155632051571,B,766.2725819973275,Correct,sub_011_day_23_data.csv,1,600,,Button-Switch at home,,,,,,,,,,,,,d
11,23,312,A,24.64505298621353,49.22470504327542,1.2322526493106765,0.7732198586953924,A,568.8642910681665,Correct,sub_011_day_23_data.csv,1,600,,Button-Switch at home,,,,,,,,,,,,,k
11,23,313,A,60.5458681953192,81.97132307062898,3.02729340976596,1.2876025318186175,A,733.2151660230011,Correct,sub_011_day_23_data.csv,1,600,,Button-Switch at home,,,,,,,,,,,,,k
11,23,314,B,65.09914056313086,46.22701528520301,3.254957028156543,0.7261322580868842,B,1547.5689159939066,Correct,sub_011_day_23_data.csv,1,600,,Button-Switch at home,,,,,,,,,,,,,d
11,23,315,A,47.20224668575373,72.42864758081427,2.3601123342876864,1.1377065357466514,A,949.6185829630122,Correct,sub_011_day_23_data.csv,1,600,,Button-Switch at home,,,,,,,,,,,,,k
11,23,316,A,30.093783361804174,42.59531077980961,1.504689168090209,0.6690855771161199,A,959.5241249771788,Correct,sub_011_day_23_data.csv,1,600,,Button-Switch at home,,,,,,,,,,,,,k
11,23,317,A,25.67803907371225,57.37569174014592,1.2839019536856124,0.9012552583273749,A,491.33433192037046,Correct,sub_011_day_23_data.csv,1,600,,Button-Switch at home,,,,,,,,,,,,,k
11,23,318,B,71.78973049521761,53.51883168532729,3.5894865247608805,0.8406718422566642,B,983.489540987648,Correct,sub_011_day_23_data.csv,1,600,,Button-Switch at home,,,,,,,,,,,,,d
11,23,319,A,35.57438851377659,43.97638857224044,1.7787194256888297,0.6907794963498034,A,1314.0862069558352,Correct,sub_011_day_23_data.csv,1,600,,Button-Switch at home,,,,,,,,,,,,,k
11,23,320,A,34.82459095886823,62.154360619872755,1.7412295479434112,0.9763184135598147,A,593.354374053888,Correct,sub_011_day_23_data.csv,1,600,,Button-Switch at home,,,,,,,,,,,,,k
11,23,321,B,50.56689772845482,28.689044266154692,2.528344886422741,0.4506464535253198,B,1279.105874011293,Correct,sub_011_day_23_data.csv,1,600,,Button-Switch at home,,,,,,,,,,,,,d
11,23,322,A,54.032698311067634,71.67375224495765,2.701634915553382,1.1258486675398691,A,658.2213329384103,Correct,sub_011_day_23_data.csv,1,600,,Button-Switch at home,,,,,,,,,,,,,k
11,23,323,B,69.97922943154614,59.01204734005333,3.4989614715773074,0.9269590719840234,B,575.6219159811735,Correct,sub_011_day_23_data.csv,1,600,,Button-Switch at home,,,,,,,,,,,,,d
11,23,324,B,40.65756357574277,32.011331119044414,2.032878178787138,0.5028328133761012,B,799.4547910057008,Correct,sub_011_day_23_data.csv,1,600,,Button-Switch at home,,,,,,,,,,,,,d
11,23,325,A,29.008154811810304,39.44915570085301,1.4504077405905154,0.6196658887005987,A,1978.2039569690824,Correct,sub_011_day_23_data.csv,1,600,,Button-Switch at home,,,,,,,,,,,,,k
11,23,326,A,31.57122245446547,61.76019113283334,1.5785611227232734,0.9701268137360536,A,947.721041040495,Correct,sub_011_day_23_data.csv,1,600,,Button-Switch at home,,,,,,,,,,,,,k
11,23,327,B,72.29513703405597,50.76830830169454,3.614756851702799,0.7974667219789263,B,1835.8841659501195,Correct,sub_011_day_23_data.csv,1,600,,Button-Switch at home,,,,,,,,,,,,,d
11,23,328,B,53.273008550301725,37.47493786076242,2.663650427515086,0.588654947385526,B,1651.8930830061436,Correct,sub_011_day_23_data.csv,1,600,,Button-Switch at home,,,,,,,,,,,,,d
11,23,329,B,44.19547279702531,20.61096494296284,2.2097736398512655,0.3237562802410441,B,2098.542541032657,Correct,sub_011_day_23_data.csv,1,600,,Button-Switch at home,,,,,,,,,,,,,d
11,23,330,A,44.80008353055385,61.573606477627735,2.2400041765276923,0.9671959488257208,A,1112.2852499829603,Correct,sub_011_day_23_data.csv,1,600,,Button-Switch at home,,,,,,,,,,,,,k
11,23,331,B,48.70217596525957,25.0017754877167,2.435108798262979,0.3927269709945608,B,745.8818739978597,Correct,sub_011_day_23_data.csv,1,600,,Button-Switch at home,,,,,,,,,,,,,d
11,23,332,A,69.6669997883588,88.04731235611783,3.4833499894179396,1.383043948331528,A,657.169874990359,Correct,sub_011_day_23_data.csv,1,600,,Button-Switch at home,,,,,,,,,,,,,k
11,23,333,A,21.982992171265423,35.59644469585445,1.0991496085632713,0.5591476457520586,A,2746.453456929885,Correct,sub_011_day_23_data.csv,1,600,,Button-Switch at home,,,,,,,,,,,,,k
11,23,334,A,21.213701713150652,46.051455785095854,1.0606850856575327,0.7233745759078616,A,1003.345665987581,Correct,sub_011_day_23_data.csv,1,600,,Button-Switch at home,,,,,,,,,,,,,k
11,23,335,B,71.38005593317683,46.11082699984966,3.569002796658842,0.7243071767683877,B,1755.0353329861537,Correct,sub_011_day_23_data.csv,1,600,,Button-Switch at home,,,,,,,,,,,,,d
11,23,336,B,66.58422872102838,39.77136614576104,3.329211436051419,0.6247271585337635,B,2335.6806659139693,Correct,sub_011_day_23_data.csv,1,600,,Button-Switch at home,,,,,,,,,,,,,d
11,23,337,B,69.24162163832892,51.71052481571427,3.462081081916446,0.8122670243716033,B,1289.015582064167,Correct,sub_011_day_23_data.csv,1,600,,Button-Switch at home,,,,,,,,,,,,,d
11,23,338,A,36.00388614669475,60.57716938120925,1.8001943073347375,0.9515439515163578,A,883.2772079622373,Correct,sub_011_day_23_data.csv,1,600,,Button-Switch at home,,,,,,,,,,,,,k
11,23,339,A,59.66645667641016,83.01729035364681,2.9833228338205084,1.3040325474797383,A,615.7645409693941,Correct,sub_011_day_23_data.csv,1,600,,Button-Switch at home,,,,,,,,,,,,,k
11,23,340,B,50.596909078970135,27.551335954728245,2.5298454539485067,0.4327753731597929,B,917.131748981774,Correct,sub_011_day_23_data.csv,1,600,,Button-Switch at home,,,,,,,,,,,,,d
11,23,341,A,47.4032423631043,71.14311223679921,2.370162118155215,1.117513393783213,A,1650.0727490056306,Correct,sub_011_day_23_data.csv,1,600,,Button-Switch at home,,,,,,,,,,,,,k
11,23,342,A,24.607603824257808,38.97246213599135,1.2303801912128904,0.612178003693684,A,1362.379000056535,Correct,sub_011_day_23_data.csv,1,600,,Button-Switch at home,,,,,,,,,,,,,k
11,23,343,B,76.949203425221,64.5693671017438,3.84746017126105,1.0142532466689038,B,1314.0285830013454,Correct,sub_011_day_23_data.csv,1,600,,Button-Switch at home,,,,,,,,,,,,,d
11,23,344,B,72.64809207929467,44.42841014792606,3.6324046039647335,0.6978798346569935,B,1177.9211660614235,Correct,sub_011_day_23_data.csv,1,600,,Button-Switch at home,,,,,,,,,,,,,d
11,23,345,B,30.951673696591644,13.146115123802478,1.547583684829582,0.2064986934809176,B,639.9095830274746,Correct,sub_011_day_23_data.csv,1,600,,Button-Switch at home,,,,,,,,,,,,,d
11,23,346,B,41.040935851954515,24.00645281573993,2.052046792597726,0.3770924790233929,B,573.5395409865305,Correct,sub_011_day_23_data.csv,1,600,,Button-Switch at home,,,,,,,,,,,,,d
11,23,347,B,48.398968253826425,41.12515845915367,2.419948412691321,0.6459924784649664,B,712.338041048497,Correct,sub_011_day_23_data.csv,1,600,,Button-Switch at home,,,,,,,,,,,,,d
11,23,348,B,57.43613654761453,28.52126846281427,2.871806827380727,0.4480110373691978,B,622.296457993798,Correct,sub_011_day_23_data.csv,1,600,,Button-Switch at home,,,,,,,,,,,,,d
11,23,349,A,28.935919430047544,40.82617045564038,1.4467959715023773,0.6412959858882223,A,1073.8358319504189,Correct,sub_011_day_23_data.csv,1,600,,Button-Switch at home,,,,,,,,,,,,,k
11,23,350,B,45.4712510503388,30.576923609684577,2.27356255251694,0.4803011929078067,B,1592.4409159924835,Correct,sub_011_day_23_data.csv,1,600,,Button-Switch at home,,,,,,,,,,,,,d
11,23,351,B,70.20781938981202,51.72828775065345,3.510390969490601,0.8125460439011588,B,774.9104161048308,Correct,sub_011_day_23_data.csv,1,600,,Button-Switch at home,,,,,,,,,,,,,d
11,23,352,A,31.084675409746428,56.92989228966964,1.5542337704873213,0.8942526569344216,B,659.3536660075188,Incorrect,sub_011_day_23_data.csv,0,600,,Button-Switch at home,,,,,,,,,,,,,d
11,23,353,B,74.66053887448753,53.29792105985449,3.7330269437243766,0.8372017862662378,B,851.473874063231,Correct,sub_011_day_23_data.csv,1,600,,Button-Switch at home,,,,,,,,,,,,,d
11,23,354,B,49.63762421472083,24.63729904926211,2.4818812107360415,0.3870017884872832,B,1067.0158319408074,Correct,sub_011_day_23_data.csv,1,600,,Button-Switch at home,,,,,,,,,,,,,d
11,23,355,A,22.84653137680904,55.10974287130396,1.142326568840452,0.8656618167285548,A,717.7180409198627,Correct,sub_011_day_23_data.csv,1,600,,Button-Switch at home,,,,,,,,,,,,,k
11,23,356,B,79.15535601179954,65.56242833788602,3.957767800589977,1.0298522160890502,B,581.0042079538107,Correct,sub_011_day_23_data.csv,1,600,,Button-Switch at home,,,,,,,,,,,,,d
11,23,357,B,65.71631420242197,38.36269172106727,3.2858157101210987,0.6025997524141746,B,1357.065623975359,Correct,sub_011_day_23_data.csv,1,600,,Button-Switch at home,,,,,,,,,,,,,d
11,23,358,B,44.43761191805194,16.890883609308286,2.221880595902597,0.2653213792982158,B,615.9352490212768,Correct,sub_011_day_23_data.csv,1,600,,Button-Switch at home,,,,,,,,,,,,,d
11,23,359,B,45.992253822601555,35.66297757716229,2.299612691130078,0.5601927418077528,B,591.7307069757953,Correct,sub_011_day_23_data.csv,1,600,,Button-Switch at home,,,,,,,,,,,,,d
11,23,360,A,18.09431962270381,45.13975723935448,0.9047159811351904,0.7090536486399135,A,531.5899159759283,Correct,sub_011_day_23_data.csv,1,600,,Button-Switch at home,,,,,,,,,,,,,k
11,23,361,B,67.18286795859542,37.326258184393495,3.359143397929771,0.5863194924904325,B,679.7998750116676,Correct,sub_011_day_23_data.csv,1,600,,Button-Switch at home,,,,,,,,,,,,,d
11,23,362,B,60.683564058030406,32.73973689591296,3.0341782029015203,0.5142745845633143,B,575.8806659141555,Correct,sub_011_day_23_data.csv,1,600,,Button-Switch at home,,,,,,,,,,,,,d
11,23,363,A,45.24734364582912,72.29354764182578,2.262367182291456,1.1355843908675178,A,785.4644160252064,Correct,sub_011_day_23_data.csv,1,600,,Button-Switch at home,,,,,,,,,,,,,k
11,23,364,A,26.65836003525691,39.75344548964055,1.3329180017628457,0.6244456615256853,A,573.034998960793,Correct,sub_011_day_23_data.csv,1,600,,Button-Switch at home,,,,,,,,,,,,,k
11,23,365,A,36.79667947872022,64.67501933522624,1.839833973936011,1.015912828071623,A,529.9476659856737,Correct,sub_011_day_23_data.csv,1,600,,Button-Switch at home,,,,,,,,,,,,,k
11,23,366,A,41.18271772081183,71.30349912001958,2.0591358860405915,1.120032745053499,A,537.5116249779239,Correct,sub_011_day_23_data.csv,1,600,,Button-Switch at home,,,,,,,,,,,,,k
11,23,367,B,36.78841804405509,13.592626076648951,1.8394209022027548,0.2135124711269669,B,802.4406250333413,Correct,sub_011_day_23_data.csv,1,600,,Button-Switch at home,,,,,,,,,,,,,d
11,23,368,A,50.266493144664864,70.238092504154,2.5133246572332433,1.1032973770660526,A,851.9289579708129,Correct,sub_011_day_23_data.csv,1,600,,Button-Switch at home,,,,,,,,,,,,,k
11,23,369,B,49.66173252242784,21.22872392624725,2.4830866261213917,0.3334600156589211,B,650.0434570480138,Correct,sub_011_day_23_data.csv,1,600,,Button-Switch at home,,,,,,,,,,,,,d
11,23,370,A,30.712954512542844,60.726782997976926,1.535647725627142,0.9538940767129294,A,4641.136249061674,Correct,sub_011_day_23_data.csv,1,600,,Button-Switch at home,,,,,,,,,,,,,k
11,23,371,A,25.4720758578884,57.54764124877086,1.2736037928944202,0.9039562348927974,A,588.5351659962907,Correct,sub_011_day_23_data.csv,1,600,,Button-Switch at home,,,,,,,,,,,,,k
11,23,372,B,37.19006860774963,21.45031247519019,1.8595034303874811,0.336940720446315,B,663.9352909987792,Correct,sub_011_day_23_data.csv,1,600,,Button-Switch at home,,,,,,,,,,,,,d
11,23,373,B,58.5603890052779,29.245339184241963,2.928019450263895,0.4593847136647814,A,743.0953329894692,Incorrect,sub_011_day_23_data.csv,0,600,,Button-Switch at home,,,,,,,,,,,,,k
11,23,374,A,37.49665348512461,69.01416066203858,1.87483267425623,1.0840719006476305,A,804.5146249933168,Correct,sub_011_day_23_data.csv,1,600,,Button-Switch at home,,,,,,,,,,,,,k
11,23,375,B,76.7283256364739,49.08073321490236,3.8364162818236944,0.7709583545036889,B,2099.6464159106836,Correct,sub_011_day_23_data.csv,1,600,,Button-Switch at home,,,,,,,,,,,,,d
11,23,376,A,31.634698024580757,61.36024557687925,1.5817349012290378,0.9638444836339471,A,566.640748991631,Correct,sub_011_day_23_data.csv,1,600,,Button-Switch at home,,,,,,,,,,,,,k
11,23,377,A,60.20307549919208,82.46864027779333,3.0101537749596043,1.295414372241274,A,777.8186240466312,Correct,sub_011_day_23_data.csv,1,600,,Button-Switch at home,,,,,,,,,,,,,k
11,23,378,A,37.262492784050494,55.24484042611556,1.8631246392025247,0.8677839241571254,A,714.6122499834746,Correct,sub_011_day_23_data.csv,1,600,,Button-Switch at home,,,,,,,,,,,,,k
11,23,379,B,45.01984569001365,29.150777659057827,2.2509922845006827,0.4578993447006277,B,2136.4919160259888,Correct,sub_011_day_23_data.csv,1,600,,Button-Switch at home,,,,,,,,,,,,,d
11,23,380,A,45.26427328953794,52.2353989228212,2.263213664476897,0.8205117275663363,A,760.2078738855198,Correct,sub_011_day_23_data.csv,1,600,,Button-Switch at home,,,,,,,,,,,,,k
11,23,381,B,46.50015884431002,26.3196044207831,2.325007942215501,0.4134273794686081,B,569.7055410128087,Correct,sub_011_day_23_data.csv,1,600,,Button-Switch at home,,,,,,,,,,,,,d
11,23,382,B,60.70901119272238,35.06074033430568,3.035450559636119,0.5507328213183703,B,613.7824159814045,Correct,sub_011_day_23_data.csv,1,600,,Button-Switch at home,,,,,,,,,,,,,d
11,23,383,A,23.406629618941224,55.92859757563315,1.1703314809470613,0.8785243563459451,A,532.776040956378,Correct,sub_011_day_23_data.csv,1,600,,Button-Switch at home,,,,,,,,,,,,,k
11,23,384,A,35.87425531892766,45.45175508878979,1.793712765946383,0.7139544993985225,A,575.8513750042766,Correct,sub_011_day_23_data.csv,1,600,,Button-Switch at home,,,,,,,,,,,,,k
11,23,385,B,75.37204429931204,64.11937779222988,3.768602214965602,1.0071848311240896,B,862.6727079972625,Correct,sub_011_day_23_data.csv,1,600,,Button-Switch at home,,,,,,,,,,,,,d
11,23,386,B,42.26952369020509,29.22668207441046,2.1134761845102545,0.4590916484688619,B,694.4924569688737,Correct,sub_011_day_23_data.csv,1,600,,Button-Switch at home,,,,,,,,,,,,,d
11,23,387,B,42.42024675210694,28.35680682058156,2.121012337605347,0.4454276799340197,B,528.493499965407,Correct,sub_011_day_23_data.csv,1,600,,Button-Switch at home,,,,,,,,,,,,,d
11,23,388,A,45.52518887793835,69.67576652939567,2.2762594438969175,1.0944643813099353,A,735.4181240079924,Correct,sub_011_day_23_data.csv,1,600,,Button-Switch at home,,,,,,,,,,,,,k
11,23,389,A,51.22744552852807,81.71303125888302,2.5613722764264035,1.2835452935273002,A,541.7037069564685,Correct,sub_011_day_23_data.csv,1,600,,Button-Switch at home,,,,,,,,,,,,,k
11,23,390,A,33.52891533768659,63.901812258935664,1.6764457668843296,1.0037673197187322,A,473.3811659971252,Correct,sub_011_day_23_data.csv,1,600,,Button-Switch at home,,,,,,,,,,,,,k
11,23,391,A,37.07238298098972,68.2765753676609,1.853619149049486,1.0724859379365663,A,447.8474990464747,Correct,sub_011_day_23_data.csv,1,600,,Button-Switch at home,,,,,,,,,,,,,k
11,23,392,B,41.49632849191792,23.705503009454077,2.074816424595896,0.3723651705207583,B,570.0272909598425,Correct,sub_011_day_23_data.csv,1,600,,Button-Switch at home,,,,,,,,,,,,,d
11,23,393,A,32.94687464230138,58.62841018010011,1.6473437321150692,0.9209329135672576,A,511.0706239938736,Correct,sub_011_day_23_data.csv,1,600,,Button-Switch at home,,,,,,,,,,,,,k
11,23,394,A,33.15124408961443,64.35781766061841,1.6575622044807217,1.0109302358183512,A,484.6005409490317,Correct,sub_011_day_23_data.csv,1,600,,Button-Switch at home,,,,,,,,,,,,,k
11,23,395,A,45.52712933415713,53.52100713212564,2.2763564667078566,0.8407060140950642,A,489.3797499826178,Correct,sub_011_day_23_data.csv,1,600,,Button-Switch at home,,,,,,,,,,,,,k
11,23,396,A,23.80084266210392,48.62540532821478,1.190042133105196,0.7638060807847277,A,470.12320696376264,Correct,sub_011_day_23_data.csv,1,600,,Button-Switch at home,,,,,,,,,,,,,k
11,23,397,B,46.37275326715905,23.482050438883935,2.3186376633579524,0.3688551857501138,B,543.7847489956766,Correct,sub_011_day_23_data.csv,1,600,,Button-Switch at home,,,,,,,,,,,,,d
11,23,398,A,50.95598948198917,64.3432204417558,2.5477994740994587,1.010700943240643,A,741.9852070743218,Correct,sub_011_day_23_data.csv,1,600,,Button-Switch at home,,,,,,,,,,,,,k
11,23,399,A,53.09083336369605,77.14507994756927,2.654541668184802,1.2117920821194044,A,816.7356660123914,Correct,sub_011_day_23_data.csv,1,600,,Button-Switch at home,,,,,,,,,,,,,k
11,23,400,A,35.88199526034857,47.79350138462565,1.7940997630174282,0.7507385641963676,A,594.8856660397723,Correct,sub_011_day_23_data.csv,1,600,,Button-Switch at home,,,,,,,,,,,,,k
11,23,401,A,40.02443413139643,67.34913045582545,2.001221706569822,1.057917667328409,A,566.2485409993678,Correct,sub_011_day_23_data.csv,1,600,,Button-Switch at home,,,,,,,,,,,,,k
11,23,402,A,58.56083347166256,75.26531998334524,2.9280416735831283,1.1822648816488124,A,579.9516239203513,Correct,sub_011_day_23_data.csv,1,600,,Button-Switch at home,,,,,,,,,,,,,k
11,23,403,A,46.743138758944134,74.06735815311212,2.337156937947207,1.1634473412231057,A,503.92958289012313,Correct,sub_011_day_23_data.csv,1,600,,Button-Switch at home,,,,,,,,,,,,,k
11,23,404,B,69.33471179245042,36.7967825473496,3.466735589622522,0.5780025086324732,B,546.7407080577686,Correct,sub_011_day_23_data.csv,1,600,,Button-Switch at home,,,,,,,,,,,,,d
11,23,405,B,76.54634257539786,61.82356976390787,3.827317128769893,0.9711223629449448,B,625.2513750223443,Correct,sub_011_day_23_data.csv,1,600,,Button-Switch at home,,,,,,,,,,,,,d
11,23,406,A,66.34643069066162,86.56453494786467,3.317321534533081,1.3597525352681428,A,769.7740830481052,Correct,sub_011_day_23_data.csv,1,600,,Button-Switch at home,,,,,,,,,,,,,k
11,23,407,A,27.01734625945209,41.92388956322213,1.3508673129726043,0.6585389173086421,A,1226.3192910468206,Correct,sub_011_day_23_data.csv,1,600,,Button-Switch at home,,,,,,,,,,,,,k
11,23,408,B,73.61684920982906,60.35543529708091,3.680842460491453,0.9480609606676176,B,3337.058291072026,Correct,sub_011_day_23_data.csv,1,600,,Button-Switch at home,,,,,,,,,,,,,d
11,23,409,A,37.91400057053501,53.37251501469276,1.8957000285267505,0.8383735053688486,A,1235.2007490117105,Correct,sub_011_day_23_data.csv,1,600,,Button-Switch at home,,,,,,,,,,,,,k
11,23,410,A,33.643807627658674,57.91537030772851,1.6821903813829338,0.9097325094434616,A,1614.7453740704805,Correct,sub_011_day_23_data.csv,1,600,,Button-Switch at home,,,,,,,,,,,,,k
11,23,411,A,61.57519155453966,77.85102882167584,3.0787595777269825,1.22288110110292,A,642.2979990020394,Correct,sub_011_day_23_data.csv,1,600,,Button-Switch at home,,,,,,,,,,,,,k
11,23,412,A,25.345689638739938,35.5582818065926,1.2672844819369968,0.5585481844893346,B,919.0358329797164,Incorrect,sub_011_day_23_data.csv,0,600,,Button-Switch at home,,,,,,,,,,,,,d
11,23,413,B,34.18869169283835,12.159666985449247,1.7094345846419174,0.1910036023579285,B,852.4935829918832,Correct,sub_011_day_23_data.csv,1,600,,Button-Switch at home,,,,,,,,,,,,,d
11,23,414,A,60.15557771290281,81.15754246643186,3.0077788856451404,1.2748196959797198,A,645.4225819325075,Correct,sub_011_day_23_data.csv,1,600,,Button-Switch at home,,,,,,,,,,,,,k
11,23,415,B,73.2078410409681,53.787255140457304,3.6603920520484055,0.8448882280301024,B,836.8650820339099,Correct,sub_011_day_23_data.csv,1,600,,Button-Switch at home,,,,,,,,,,,,,d
11,23,416,B,70.48511729155567,41.9539694304944,3.5242558645777833,0.6590114107588598,B,762.1879989746958,Correct,sub_011_day_23_data.csv,1,600,,Button-Switch at home,,,,,,,,,,,,,d
11,23,417,B,51.2409971244691,34.60055935846209,2.562049856223455,0.5435043154532104,B,850.1123329624534,Correct,sub_011_day_23_data.csv,1,600,,Button-Switch at home,,,,,,,,,,,,,d
11,23,418,B,81.90626139516237,53.40897920414122,4.095313069758118,0.8389462835173005,B,1066.7929579503834,Correct,sub_011_day_23_data.csv,1,600,,Button-Switch at home,,,,,,,,,,,,,d
11,23,419,A,51.40602699100763,72.89647150201458,2.570301349550382,1.1450550967167337,A,1085.9237490221858,Correct,sub_011_day_23_data.csv,1,600,,Button-Switch at home,,,,,,,,,,,,,k
11,23,420,B,69.60927591453434,51.543803208213816,3.480463795726717,0.8096481674850128,B,759.2242499813437,Correct,sub_011_day_23_data.csv,1,600,,Button-Switch at home,,,,,,,,,,,,,d
11,23,421,B,67.7107718919481,42.27502377448098,3.3855385945974046,0.6640545206012165,B,530.8295409195125,Correct,sub_011_day_23_data.csv,1,600,,Button-Switch at home,,,,,,,,,,,,,d
11,23,422,B,74.84250921466565,58.023611996635694,3.742125460733283,0.9114327659168764,B,766.9477489544079,Correct,sub_011_day_23_data.csv,1,600,,Button-Switch at home,,,,,,,,,,,,,d
11,23,423,B,82.90610839914578,58.41160380762775,4.145305419957289,0.9175273270322049,B,558.6492079310119,Correct,sub_011_day_23_data.csv,1,600,,Button-Switch at home,,,,,,,,,,,,,d
11,23,424,A,20.175843376460644,46.78923675251338,1.0087921688230324,0.734963612243848,A,634.175707004033,Correct,sub_011_day_23_data.csv,1,600,,Button-Switch at home,,,,,,,,,,,,,k
11,23,425,A,55.097305098955395,83.31341486574996,2.7548652549477697,1.3086840604385936,A,1053.9184160297737,Correct,sub_011_day_23_data.csv,1,600,,Button-Switch at home,,,,,,,,,,,,,k
11,23,426,B,83.16235509908908,55.93438280265462,4.158117754954454,0.878615230479495,B,606.8275000434369,Correct,sub_011_day_23_data.csv,1,600,,Button-Switch at home,,,,,,,,,,,,,d
11,23,427,A,25.808689810609557,51.34494011240839,1.290434490530478,0.8065244332807503,A,1378.9327070116997,Correct,sub_011_day_23_data.csv,1,600,,Button-Switch at home,,,,,,,,,,,,,k
11,23,428,B,59.11796224796483,46.283624765907014,2.9558981123982413,0.7270214777304004,B,1333.0794159555808,Correct,sub_011_day_23_data.csv,1,600,,Button-Switch at home,,,,,,,,,,,,,d
11,23,429,B,57.42673100591935,33.74862780977826,2.8713365502959673,0.5301222059796779,B,498.66699893027544,Correct,sub_011_day_23_data.csv,1,600,,Button-Switch at home,,,,,,,,,,,,,d
11,23,430,A,39.29574966977672,57.747460663460565,1.964787483488836,0.9070949909189664,A,2434.24683297053,Correct,sub_011_day_23_data.csv,1,600,,Button-Switch at home,,,,,,,,,,,,,k
11,23,431,A,12.931237506083654,40.147650345175606,0.6465618753041826,0.630637816916477,A,1243.9025830244643,Correct,sub_011_day_23_data.csv,1,600,,Button-Switch at home,,,,,,,,,,,,,k
11,23,432,A,48.34862073007587,60.94628573969591,2.417431036503794,0.9573420177170652,A,930.924124084413,Correct,sub_011_day_23_data.csv,1,600,,Button-Switch at home,,,,,,,,,,,,,k
11,23,433,B,32.30666812726611,14.147671077522748,1.6153334063633054,0.2222310976127512,B,733.7480410933495,Correct,sub_011_day_23_data.csv,1,600,,Button-Switch at home,,,,,,,,,,,,,d
11,23,434,A,21.76364736966458,51.21218264663389,1.088182368483229,0.8044390838848186,A,692.15975003317,Correct,sub_011_day_23_data.csv,1,600,,Button-Switch at home,,,,,,,,,,,,,k
11,23,435,B,71.54323228111562,38.92054650560876,3.5771616140557807,0.6113625148786019,B,769.491457962431,Correct,sub_011_day_23_data.csv,1,600,,Button-Switch at home,,,,,,,,,,,,,d
11,23,436,A,13.99660504862596,38.06980283283761,0.6998302524312979,0.5979990645162726,A,815.0411660317332,Correct,sub_011_day_23_data.csv,1,600,,Button-Switch at home,,,,,,,,,,,,,k
11,23,437,A,20.515512876621862,32.943722113567475,1.0257756438310934,0.517478776869436,A,618.0655409116298,Correct,sub_011_day_23_data.csv,1,600,,Button-Switch at home,,,,,,,,,,,,,k
11,23,438,A,66.78178317506419,82.22206567875729,3.3390891587532097,1.2915411874968068,B,1086.2602080451325,Incorrect,sub_011_day_23_data.csv,0,600,,Button-Switch at home,,,,,,,,,,,,,d
11,23,439,B,50.59492452766006,35.83725260382831,2.529746226383003,0.5629302475251436,B,856.1733330134302,Correct,sub_011_day_23_data.csv,1,600,,Button-Switch at home,,,,,,,,,,,,,d
11,23,440,A,48.92094614880293,77.24845892347304,2.4460473074401468,1.213415955275579,A,962.0622909860684,Correct,sub_011_day_23_data.csv,1,600,,Button-Switch at home,,,,,,,,,,,,,k
11,23,441,A,40.26058950162145,48.25239047577325,2.0130294750810727,0.7579467771841766,A,3664.387832977809,Correct,sub_011_day_23_data.csv,1,600,,Button-Switch at home,,,,,,,,,,,,,k
11,23,442,A,47.54592425276821,73.64998873341376,2.3772962126384103,1.1568913177093183,A,1752.4714990286157,Correct,sub_011_day_23_data.csv,1,600,,Button-Switch at home,,,,,,,,,,,,,k
11,23,443,B,42.93086850355959,24.208966212459753,2.1465434251779794,0.3802735520203354,B,622.0215829089284,Correct,sub_011_day_23_data.csv,1,600,,Button-Switch at home,,,,,,,,,,,,,d
11,23,444,A,44.33515667098549,59.28068473320904,2.2167578335492744,0.9311788182881108,A,863.8543739216402,Correct,sub_011_day_23_data.csv,1,600,,Button-Switch at home,,,,,,,,,,,,,k
11,23,445,B,47.507194448123656,18.367309247503705,2.3753597224061824,0.2885130189908475,A,3607.408875017427,Incorrect,sub_011_day_23_data.csv,0,600,,Button-Switch at home,,,,,,,,,,,,,k
11,23,446,A,52.912269154620645,83.01965965699345,2.645613457731032,1.3040697644096777,A,5622.560207964852,Correct,sub_011_day_23_data.csv,1,600,,Button-Switch at home,,,,,,,,,,,,,k
11,23,447,A,19.648315615072015,32.9408478410182,0.9824157807536008,0.5174336279018099,A,991.363249020651,Correct,sub_011_day_23_data.csv,1,600,,Button-Switch at home,,,,,,,,,,,,,k
11,23,448,B,35.70214440361854,11.531234071369193,1.785107220180927,0.1811322012271888,B,736.7083330173045,Correct,sub_011_day_23_data.csv,1,600,,Button-Switch at home,,,,,,,,,,,,,d
11,23,449,B,80.8472687895763,60.099175134654104,4.042363439478816,0.9440356354491783,B,1769.3777489475906,Correct,sub_011_day_23_data.csv,1,600,,Button-Switch at home,,,,,,,,,,,,,d
11,23,450,A,23.975944385201817,37.972853405191955,1.1987972192600909,0.5964761864679661,A,803.1197080854326,Correct,sub_011_day_23_data.csv,1,600,,Button-Switch at home,,,,,,,,,,,,,k
11,23,451,B,41.41910765522742,22.97874795361505,2.070955382761371,0.3609493287988427,B,1558.7328320834786,Correct,sub_011_day_23_data.csv,1,600,,Button-Switch at home,,,,,,,,,,,,,d
11,23,452,B,72.96000884185918,43.09229230658927,3.648000442092959,0.676892144683624,B,708.2222490571439,Correct,sub_011_day_23_data.csv,1,600,,Button-Switch at home,,,,,,,,,,,,,d
11,23,453,B,35.421976668342296,10.624986321064362,1.7710988334171147,0.1668968948537392,B,653.4929580520838,Correct,sub_011_day_23_data.csv,1,600,,Button-Switch at home,,,,,,,,,,,,,d
11,23,454,A,26.869865255956547,41.01929051199745,1.343493262797827,0.6443295086397833,A,607.9755410319194,Correct,sub_011_day_23_data.csv,1,600,,Button-Switch at home,,,,,,,,,,,,,k
11,23,455,B,50.29650324355101,19.026707778446053,2.51482516217755,0.2988708268938294,B,726.5109579311684,Correct,sub_011_day_23_data.csv,1,600,,Button-Switch at home,,,,,,,,,,,,,d
11,23,456,B,52.23648278630265,20.74817812893274,2.6118241393151327,0.3259116199261376,B,1135.618582018651,Correct,sub_011_day_23_data.csv,1,600,,Button-Switch at home,,,,,,,,,,,,,d
11,23,457,A,12.046430710071288,35.157725852366966,0.6023215355035645,0.5522562662736,A,689.763832022436,Correct,sub_011_day_23_data.csv,1,600,,Button-Switch at home,,,,,,,,,,,,,k
11,23,458,A,23.401671490209846,48.70403044690884,1.1700835745104925,0.7650411212611121,A,836.2867910182104,Correct,sub_011_day_23_data.csv,1,600,,Button-Switch at home,,,,,,,,,,,,,k
11,23,459,A,62.35865245592523,76.54505732805401,3.117932622796262,1.2023669488521205,A,690.6260000541806,Correct,sub_011_day_23_data.csv,1,600,,Button-Switch at home,,,,,,,,,,,,,k
11,23,460,B,59.09764148228935,33.72008864182418,2.9548820741144675,0.5296739137777574,B,1649.374166037887,Correct,sub_011_day_23_data.csv,1,600,,Button-Switch at home,,,,,,,,,,,,,d
11,23,461,B,75.04016534650447,56.68859176257602,3.7520082673252233,0.8904623171182983,B,1461.0531659564003,Correct,sub_011_day_23_data.csv,1,600,,Button-Switch at home,,,,,,,,,,,,,d
11,23,462,A,29.96828780523763,42.92461096355317,1.4984143902618814,0.6742582123064926,A,720.0845410116017,Correct,sub_011_day_23_data.csv,1,600,,Button-Switch at home,,,,,,,,,,,,,k
11,23,463,A,19.283907181144205,45.78672437807635,0.9641953590572102,0.7192161846905267,A,611.4721659105271,Correct,sub_011_day_23_data.csv,1,600,,Button-Switch at home,,,,,,,,,,,,,k
11,23,464,A,47.85200461136896,65.4470860909985,2.392600230568448,1.028040424311698,A,660.9647909644991,Correct,sub_011_day_23_data.csv,1,600,,Button-Switch at home,,,,,,,,,,,,,k
11,23,465,B,72.57498149427177,43.29238472357966,3.628749074713588,0.6800351890199042,B,1034.9537070142103,Correct,sub_011_day_23_data.csv,1,600,,Button-Switch at home,,,,,,,,,,,,,d
11,23,466,A,53.63086332642681,75.86220875742939,2.6815431663213407,1.1916407885871771,A,1320.687416009605,Correct,sub_011_day_23_data.csv,1,600,,Button-Switch at home,,,,,,,,,,,,,k
11,23,467,B,39.660826120705465,13.141539831924431,1.9830413060352732,0.2064268249641572,B,615.5648740241304,Correct,sub_011_day_23_data.csv,1,600,,Button-Switch at home,,,,,,,,,,,,,d
11,23,468,B,73.3974817407684,54.59310666557373,3.66987408703842,0.8575465141860519,B,2154.4639989733696,Correct,sub_011_day_23_data.csv,1,600,,Button-Switch at home,,,,,,,,,,,,,d
11,23,469,A,47.744178271694075,76.10163302875591,2.3872089135847037,1.1954016562466296,A,779.0869160089642,Correct,sub_011_day_23_data.csv,1,600,,Button-Switch at home,,,,,,,,,,,,,k
11,23,470,A,32.152576545427664,58.031407254214685,1.6076288272713832,0.9115552135365916,A,599.7550820466131,Correct,sub_011_day_23_data.csv,1,600,,Button-Switch at home,,,,,,,,,,,,,k
11,23,471,A,22.572014575730527,36.649921620693824,1.1286007287865265,0.5756956225910672,A,636.1054159933701,Correct,sub_011_day_23_data.csv,1,600,,Button-Switch at home,,,,,,,,,,,,,k
11,23,472,B,49.28373144805361,19.368248124394412,2.46418657240268,0.3042357301025088,B,569.7760409675539,Correct,sub_011_day_23_data.csv,1,600,,Button-Switch at home,,,,,,,,,,,,,d
11,23,473,A,58.06634873983685,70.76839047312215,2.903317436991842,1.1116272780836725,A,879.2236659210175,Correct,sub_011_day_23_data.csv,1,600,,Button-Switch at home,,,,,,,,,,,,,k
11,23,474,B,82.26177295846665,67.3012643987026,4.113088647923332,1.0571657890613415,B,739.8088740883395,Correct,sub_011_day_23_data.csv,1,600,,Button-Switch at home,,,,,,,,,,,,,d
11,23,475,A,46.94720946737673,56.77580536096187,2.347360473368836,0.891832265118209,A,736.2861239816993,Correct,sub_011_day_23_data.csv,1,600,,Button-Switch at home,,,,,,,,,,,,,k
11,23,476,A,35.05143303038803,43.818712879863895,1.7525716515194016,0.6883027323657043,A,597.9953319765627,Correct,sub_011_day_23_data.csv,1,600,,Button-Switch at home,,,,,,,,,,,,,k
11,23,477,A,39.968968087317,59.545090982870946,1.99844840436585,0.935332101945616,A,581.5546660451218,Correct,sub_011_day_23_data.csv,1,600,,Button-Switch at home,,,,,,,,,,,,,k
11,23,478,A,35.876156651998905,65.99947555053429,1.7938078325999454,1.0367173376516885,A,713.2262489758432,Correct,sub_011_day_23_data.csv,1,600,,Button-Switch at home,,,,,,,,,,,,,k
11,23,479,B,67.76215011378756,51.93876078658955,3.388107505689378,0.8158521466185368,B,1240.374082000926,Correct,sub_011_day_23_data.csv,1,600,,Button-Switch at home,,,,,,,,,,,,,d
11,23,480,A,35.538939328089725,48.00360872081123,1.7769469664044863,0.7540389225154974,A,851.9914569333196,Correct,sub_011_day_23_data.csv,1,600,,Button-Switch at home,,,,,,,,,,,,,k
11,23,481,A,25.82881832451489,51.22591402702129,1.2914409162257443,0.8046547759035622,A,661.854957928881,Correct,sub_011_day_23_data.csv,1,600,,Button-Switch at home,,,,,,,,,,,,,k
11,23,482,A,68.87769122492982,87.76142259978741,3.4438845612464912,1.3785532025404068,A,914.7765829693526,Correct,sub_011_day_23_data.csv,1,600,,Button-Switch at home,,,,,,,,,,,,,k
11,23,483,B,51.40773593046858,27.889210388126926,2.570386796523429,0.4380826923487985,B,554.2560829780996,Correct,sub_011_day_23_data.csv,1,600,,Button-Switch at home,,,,,,,,,,,,,d
11,23,484,A,24.26261285165912,44.16893002313097,1.2131306425829562,0.6938039303879495,A,731.1962069943547,Correct,sub_011_day_23_data.csv,1,600,,Button-Switch at home,,,,,,,,,,,,,k
11,23,485,A,46.32291870916944,61.455745540783646,2.316145935458472,0.965344593559048,A,1320.95241593197,Correct,sub_011_day_23_data.csv,1,600,,Button-Switch at home,,,,,,,,,,,,,k
11,23,486,A,25.649229541889262,53.09079405453737,1.2824614770944631,0.8339482428749163,A,617.8407080005854,Correct,sub_011_day_23_data.csv,1,600,,Button-Switch at home,,,,,,,,,,,,,k
11,23,487,A,39.320492892020525,54.20209983787021,1.9660246446010263,0.8514045932989678,A,601.0487489402294,Correct,sub_011_day_23_data.csv,1,600,,Button-Switch at home,,,,,,,,,,,,,k
11,23,488,B,77.7125482070129,51.4560674742811,3.885627410350645,0.808270017799111,B,1517.585041001439,Correct,sub_011_day_23_data.csv,1,600,,Button-Switch at home,,,,,,,,,,,,,d
11,23,489,A,28.679308941050444,47.51483246745645,1.433965447052522,0.7463612430815549,A,646.5697910171002,Correct,sub_011_day_23_data.csv,1,600,,Button-Switch at home,,,,,,,,,,,,,k
11,23,490,A,50.75624902456849,57.54659535914534,2.5378124512284246,0.9039398060969775,A,1251.9184580305591,Correct,sub_011_day_23_data.csv,1,600,,Button-Switch at home,,,,,,,,,,,,,k
11,23,491,B,89.0873873919067,66.4998458929429,4.4543693695953355,1.044577136610614,B,633.9052909752354,Correct,sub_011_day_23_data.csv,1,600,,Button-Switch at home,,,,,,,,,,,,,d
11,23,492,A,35.25181618671462,64.51113153662163,1.762590809335731,1.013338484551077,A,572.688415995799,Correct,sub_011_day_23_data.csv,1,600,,Button-Switch at home,,,,,,,,,,,,,k
11,23,493,A,32.88979775430567,61.19201741529493,1.6444898877152836,0.961201961851146,A,534.4568319851533,Correct,sub_011_day_23_data.csv,1,600,,Button-Switch at home,,,,,,,,,,,,,k
11,23,494,A,22.168299235398155,43.73915333193612,1.1084149617699075,0.6870530139092402,A,439.62920701596886,Correct,sub_011_day_23_data.csv,1,600,,Button-Switch at home,,,,,,,,,,,,,k
11,23,495,B,70.31618230258323,58.08288319990152,3.5158091151291613,0.9123637958006232,B,1093.648749985732,Correct,sub_011_day_23_data.csv,1,600,,Button-Switch at home,,,,,,,,,,,,,d
11,23,496,A,56.90555705456036,75.84984164201931,2.845277852728018,1.1914465263925853,A,638.890958041884,Correct,sub_011_day_23_data.csv,1,600,,Button-Switch at home,,,,,,,,,,,,,k
11,23,497,A,18.754748116527836,34.853527818319705,0.9377374058263918,0.5474779347286033,A,608.1757079809904,Correct,sub_011_day_23_data.csv,1,600,,Button-Switch at home,,,,,,,,,,,,,k
11,23,498,A,33.3442274020959,41.46094289075592,1.667211370104795,0.6512669679825238,A,541.2807910470292,Correct,sub_011_day_23_data.csv,1,600,,Button-Switch at home,,,,,,,,,,,,,k
11,23,499,B,43.48262601940209,25.350930954411396,2.1741313009701044,0.3982114922402046,B,647.4734579678625,Correct,sub_011_day_23_data.csv,1,600,,Button-Switch at home,,,,,,,,,,,,,d
11,23,500,A,25.439334331479365,42.15705331735669,1.271966716573968,0.6622014449940049,A,636.4007069496438,Correct,sub_011_day_23_data.csv,1,600,,Button-Switch at home,,,,,,,,,,,,,k
11,23,501,B,52.160217597014295,33.81526312681218,2.608010879850715,0.5311689110919947,B,602.0480409497395,Correct,sub_011_day_23_data.csv,1,600,,Button-Switch at home,,,,,,,,,,,,,d
11,23,502,B,75.86255243541555,45.29851506793367,3.7931276217707777,0.7115474107797349,B,641.2626659730449,Correct,sub_011_day_23_data.csv,1,600,,Button-Switch at home,,,,,,,,,,,,,d
11,23,503,A,55.1476459198928,74.41076940034277,2.75738229599464,1.168841632480405,A,829.3841660488397,Correct,sub_011_day_23_data.csv,1,600,,Button-Switch at home,,,,,,,,,,,,,k
11,23,504,A,32.56922098659732,54.03696161578124,1.628461049329866,0.8488106081722597,A,785.5380830587819,Correct,sub_011_day_23_data.csv,1,600,,Button-Switch at home,,,,,,,,,,,,,k
11,23,505,B,78.63062386552316,64.43787718647653,3.931531193276158,1.01218780790978,B,1080.2886240417138,Correct,sub_011_day_23_data.csv,1,600,,Button-Switch at home,,,,,,,,,,,,,d
11,23,506,A,45.23678398614043,56.915768176208346,2.2618391993070217,0.8940307958789794,A,845.1942909741774,Correct,sub_011_day_23_data.csv,1,600,,Button-Switch at home,,,,,,,,,,,,,k
11,23,507,B,62.0272345384927,44.534699938596134,3.101361726924635,0.6995494307845971,B,1104.5543740037829,Correct,sub_011_day_23_data.csv,1,600,,Button-Switch at home,,,,,,,,,,,,,d
11,23,508,A,52.159439386605655,65.07480433660068,2.6079719693302827,1.0221926361882896,A,1593.9721239265054,Correct,sub_011_day_23_data.csv,1,600,,Button-Switch at home,,,,,,,,,,,,,k
11,23,509,B,46.28482277369319,28.925314867227428,2.3142411386846593,0.4543577834482665,B,628.4629580331966,Correct,sub_011_day_23_data.csv,1,600,,Button-Switch at home,,,,,,,,,,,,,d
11,23,510,B,78.38977136000491,50.378599085179275,3.919488568000246,0.7913451839207233,B,653.8279160158709,Correct,sub_011_day_23_data.csv,1,600,,Button-Switch at home,,,,,,,,,,,,,d
11,23,511,A,17.59379660502207,36.4518509075603,0.8796898302511036,0.5725843351047093,A,716.4443740621209,Correct,sub_011_day_23_data.csv,1,600,,Button-Switch at home,,,,,,,,,,,,,k
11,23,512,A,50.35981778895,63.94591098774788,2.5179908894475,1.004460020931078,A,682.461415999569,Correct,sub_011_day_23_data.csv,1,600,,Button-Switch at home,,,,,,,,,,,,,k
11,23,513,B,52.88993719043203,39.061303431648625,2.6444968595216016,0.6135735195025455,B,771.0790830897167,Correct,sub_011_day_23_data.csv,1,600,,Button-Switch at home,,,,,,,,,,,,,d
11,23,514,B,81.73002518047471,59.59911606301416,4.086501259023736,0.9361807259200536,B,957.3518329998478,Correct,sub_011_day_23_data.csv,1,600,,Button-Switch at home,,,,,,,,,,,,,d
11,23,515,B,80.88720040936407,65.14089743968502,4.044360020468203,1.023230824223803,B,575.8319990709424,Correct,sub_011_day_23_data.csv,1,600,,Button-Switch at home,,,,,,,,,,,,,d
11,23,516,A,47.1882560468993,73.43978601531883,2.359412802344965,1.1535894611346604,A,781.7169569898397,Correct,sub_011_day_23_data.csv,1,600,,Button-Switch at home,,,,,,,,,,,,,k
11,23,517,B,79.66537463086206,67.49099681963853,3.9832687315431032,1.0601460989601423,B,692.9025830468163,Correct,sub_011_day_23_data.csv,1,600,,Button-Switch at home,,,,,,,,,,,,,d
11,23,518,B,59.82365557059936,46.32044903524785,2.9911827785299683,0.7275999120005753,B,1033.9995409594849,Correct,sub_011_day_23_data.csv,1,600,,Button-Switch at home,,,,,,,,,,,,,d
11,23,519,A,19.632449172978372,36.022626981743954,0.9816224586489186,0.5658421014442614,A,589.682082994841,Correct,sub_011_day_23_data.csv,1,600,,Button-Switch at home,,,,,,,,,,,,,k
11,23,520,B,57.77332377007167,33.81386130569238,2.8886661885035836,0.5311468913373367,B,849.0904159843922,Correct,sub_011_day_23_data.csv,1,600,,Button-Switch at home,,,,,,,,,,,,,d
11,23,521,B,73.83180008885881,49.34349649285219,3.691590004442941,0.775085830421891,B,591.9830410275608,Correct,sub_011_day_23_data.csv,1,600,,Button-Switch at home,,,,,,,,,,,,,d
11,23,522,B,72.38741967403413,42.27731630671116,3.619370983701707,0.6640905316132787,B,532.8725409926847,Correct,sub_011_day_23_data.csv,1,600,,Button-Switch at home,,,,,,,,,,,,,d
11,23,523,B,66.19272339621912,32.8445028242573,3.309636169810956,0.5159202439174797,B,698.3898739563301,Correct,sub_011_day_23_data.csv,1,600,,Button-Switch at home,,,,,,,,,,,,,d
11,23,524,A,65.04150627497351,83.91163274502608,3.252075313748676,1.3180808449124934,A,679.1160409338772,Correct,sub_011_day_23_data.csv,1,600,,Button-Switch at home,,,,,,,,,,,,,k
11,23,525,B,89.97887541871305,67.4121955332846,4.498943770935653,1.0589082912486278,B,560.6513749808073,Correct,sub_011_day_23_data.csv,1,600,,Button-Switch at home,,,,,,,,,,,,,d
11,23,526,B,34.14924674385554,21.875174614101383,1.707462337192777,0.3436144393182742,B,764.9287909734994,Correct,sub_011_day_23_data.csv,1,600,,Button-Switch at home,,,,,,,,,,,,,d
11,23,527,B,44.61271183730069,18.83854515294274,2.2306355918650342,0.2959151752840225,B,512.1607499895617,Correct,sub_011_day_23_data.csv,1,600,,Button-Switch at home,,,,,,,,,,,,,d
11,23,528,B,46.05463009034637,16.263667566966127,2.3027315045173187,0.2554690927440368,B,660.7977910898626,Correct,sub_011_day_23_data.csv,1,600,,Button-Switch at home,,,,,,,,,,,,,d
11,23,529,B,56.90876989907703,30.01169143526699,2.8454384949538514,0.4714225466741925,B,589.4359579542652,Correct,sub_011_day_23_data.csv,1,600,,Button-Switch at home,,,,,,,,,,,,,d
11,23,530,A,54.010934326451626,64.57492866883024,2.700546716322582,1.0143406075604098,A,924.1309569915755,Correct,sub_011_day_23_data.csv,1,600,,Button-Switch at home,,,,,,,,,,,,,k
11,23,531,B,54.22614634323147,25.89663730923202,2.7113073171615736,0.4067834276168132,B,592.630374012515,Correct,sub_011_day_23_data.csv,1,600,,Button-Switch at home,,,,,,,,,,,,,d
11,23,532,A,47.04684540407001,54.31415095667521,2.3523422702035006,0.8531646881572895,A,668.4510830091313,Correct,sub_011_day_23_data.csv,1,600,,Button-Switch at home,,,,,,,,,,,,,k
11,23,533,A,66.3732163235637,79.52630278820942,3.318660816178185,1.249196243032981,A,828.8247910095379,Correct,sub_011_day_23_data.csv,1,600,,Button-Switch at home,,,,,,,,,,,,,k
11,23,534,B,55.59108416961449,37.50436904076105,2.7795542084807243,0.5891172512798769,B,726.557832909748,Correct,sub_011_day_23_data.csv,1,600,,Button-Switch at home,,,,,,,,,,,,,d
11,23,535,B,64.99837426382257,32.29158272814672,3.249918713191129,0.5072349953576639,B,538.048250018619,Correct,sub_011_day_23_data.csv,1,600,,Button-Switch at home,,,,,,,,,,,,,d
11,23,536,A,53.61879149652859,83.85645152543182,2.6809395748264295,1.317214060342026,A,874.6405409183353,Correct,sub_011_day_23_data.csv,1,600,,Button-Switch at home,,,,,,,,,,,,,k
11,23,537,A,41.61421674995791,66.93410363359743,2.0807108374978953,1.051398441249638,A,569.6302499854937,Correct,sub_011_day_23_data.csv,1,600,,Button-Switch at home,,,,,,,,,,,,,k
11,23,538,B,64.11329955670178,33.24458344789144,3.205664977835089,0.5222046956577431,B,539.3764580367133,Correct,sub_011_day_23_data.csv,1,600,,Button-Switch at home,,,,,,,,,,,,,d
11,23,539,A,45.66897589848494,56.13177979691134,2.283448794924247,0.8817159352144832,A,3106.7464580992237,Correct,sub_011_day_23_data.csv,1,600,,Button-Switch at home,,,,,,,,,,,,,k
11,23,540,A,27.749403504753204,41.85725741163594,1.3874701752376604,0.657492261919062,A,1068.4135409537705,Correct,sub_011_day_23_data.csv,1,600,,Button-Switch at home,,,,,,,,,,,,,k
11,23,541,A,46.64153430520186,73.56825909446813,2.3320767152600927,1.155607511542858,A,1154.1191249853,Correct,sub_011_day_23_data.csv,1,600,,Button-Switch at home,,,,,,,,,,,,,k
11,23,542,A,42.24011108449774,73.15790656014129,2.1120055542248872,1.149161709006742,A,542.0972069259733,Correct,sub_011_day_23_data.csv,1,600,,Button-Switch at home,,,,,,,,,,,,,k
11,23,543,B,37.00887339772884,25.059759651643684,1.8504436698864424,0.3936377841116485,B,665.674124029465,Correct,sub_011_day_23_data.csv,1,600,,Button-Switch at home,,,,,,,,,,,,,d
11,23,544,B,64.48276476505512,49.45573857812333,3.2241382382527557,0.7768489249744478,B,1473.6156250583008,Correct,sub_011_day_23_data.csv,1,600,,Button-Switch at home,,,,,,,,,,,,,d
11,23,545,A,57.92926349179139,68.81532339477118,2.8964631745895697,1.0809485721570948,A,933.1509158946574,Correct,sub_011_day_23_data.csv,1,600,,Button-Switch at home,,,,,,,,,,,,,k
11,23,546,B,31.281296950340124,15.630921741796511,1.5640648475170065,0.2455299445643245,B,1464.5708739990368,Correct,sub_011_day_23_data.csv,1,600,,Button-Switch at home,,,,,,,,,,,,,d
11,23,547,B,47.72733605119666,24.244373122305547,2.386366802559833,0.3808297224596247,B,1395.3932910226283,Correct,sub_011_day_23_data.csv,1,600,,Button-Switch at home,,,,,,,,,,,,,d
11,23,548,B,81.62019829881453,65.35019319183183,4.081009914940727,1.026518434210663,B,2066.8811660725623,Correct,sub_011_day_23_data.csv,1,600,,Button-Switch at home,,,,,,,,,,,,,d
11,23,549,B,56.15241099507848,24.52550065561615,2.807620549753924,0.3852456634264767,B,719.718373962678,Correct,sub_011_day_23_data.csv,1,600,,Button-Switch at home,,,,,,,,,,,,,d
11,23,550,A,47.61903262671305,60.92885585962903,2.3809516313356527,0.95706822980121,A,786.4234580192715,Correct,sub_011_day_23_data.csv,1,600,,Button-Switch at home,,,,,,,,,,,,,k
11,23,551,A,44.94452498331684,51.55489011253476,2.247226249165842,0.8098223201708413,A,809.0697500156239,Correct,sub_011_day_23_data.csv,1,600,,Button-Switch at home,,,,,,,,,,,,,k
