subject,day,trial,cat,x,y,xt,yt,resp,rt,fb,f_name,acc,n_trials,block,session_type,ns_left_digit,ns_right_digit,ns_left_size,ns_right_size,ns_congruent,ns_cue,ns_correct_side,ns_resp,ns_rt,ns_fb,acc_stroop,acc_stroop_mean,resp_key
11,13,2700,A,67.6290864951047,88.86889187695148,3.3814543247552353,1.395949289266482,A,717.7539159893058,Correct,sub_011_day_13_data.csv,1,300,108.0,Training at home,,,,,,,,,,,,,
11,13,2701,B,83.41713477333424,55.461706244846134,4.1708567386667115,0.8711904444718189,B,763.5015000123531,Correct,sub_011_day_13_data.csv,1,300,108.0,Training at home,,,,,,,,,,,,,
11,13,2702,B,71.59726115372995,49.82614926821174,3.579863057686498,0.7826673224884123,B,584.6302920253947,Correct,sub_011_day_13_data.csv,1,300,108.0,Training at home,,,,,,,,,,,,,
11,13,2703,A,36.43739764439719,64.68952274437761,1.8218698822198591,1.0161406470898326,A,1091.757708985824,Correct,sub_011_day_13_data.csv,1,300,108.0,Training at home,,,,,,,,,,,,,
11,13,2704,A,46.87654577198668,78.03858627288554,2.343827288599334,1.2258272466571525,A,569.2456669639796,Correct,sub_011_day_13_data.csv,1,300,108.0,Training at home,,,,,,,,,,,,,
11,13,2705,A,34.75907665280892,64.12808639467885,1.737953832640446,1.0073216255314732,A,658.1403749878518,Correct,sub_011_day_13_data.csv,1,300,108.0,Training at home,,,,,,,,,,,,,
11,13,2706,A,21.572248271726675,46.990127824967715,1.0786124135863338,0.7381192018308197,A,582.6117499964312,Correct,sub_011_day_13_data.csv,1,300,108.0,Training at home,,,,,,,,,,,,,
11,13,2707,B,39.24014403096997,14.32305234742745,1.9620072015484988,0.2249859801583005,B,578.0150420032442,Correct,sub_011_day_13_data.csv,1,300,108.0,Training at home,,,,,,,,,,,,,
11,13,2708,A,44.082116950163574,74.14879068406553,2.2041058475081785,1.164726480428138,A,775.9682910400443,Correct,sub_011_day_13_data.csv,1,300,108.0,Training at home,,,,,,,,,,,,,
11,13,2709,B,41.68749219534818,30.77222995448576,2.084374609767409,0.4833690577979411,B,668.283709033858,Correct,sub_011_day_13_data.csv,1,300,108.0,Training at home,,,,,,,,,,,,,
11,13,2710,B,87.90960829272464,66.70964095030047,4.395480414636232,1.0478725896653838,B,784.2654160340317,Correct,sub_011_day_13_data.csv,1,300,108.0,Training at home,,,,,,,,,,,,,
11,13,2711,B,73.1229656391431,52.519796479028614,3.6561482819571554,0.824979033932737,B,508.9165410026908,Correct,sub_011_day_13_data.csv,1,300,108.0,Training at home,,,,,,,,,,,,,
11,13,2712,A,54.25166246429979,74.44938332567071,2.7125831232149897,1.1694481786010875,A,876.1722919880413,Correct,sub_011_day_13_data.csv,1,300,108.0,Training at home,,,,,,,,,,,,,
11,13,2713,B,83.38081786571689,63.23907843104871,4.169040893285844,0.9933571210938568,B,1066.5602500084788,Correct,sub_011_day_13_data.csv,1,300,108.0,Training at home,,,,,,,,,,,,,
11,13,2714,B,61.65501147809175,47.23540799315349,3.0827505739045877,0.7419720537030379,B,673.635583021678,Correct,sub_011_day_13_data.csv,1,300,108.0,Training at home,,,,,,,,,,,,,
11,13,2715,B,86.71541553080434,59.741769786265145,4.335770776540216,0.938421525364916,B,1121.045875013806,Correct,sub_011_day_13_data.csv,1,300,108.0,Training at home,,,,,,,,,,,,,
11,13,2716,A,11.067204739364222,33.71927039350335,0.5533602369682111,0.5296610607631898,A,1044.5127919665538,Correct,sub_011_day_13_data.csv,1,300,108.0,Training at home,,,,,,,,,,,,,
11,13,2717,B,50.53695293181575,30.308398891881367,2.526847646590787,0.4760832165040176,B,1026.7564579844477,Correct,sub_011_day_13_data.csv,1,300,108.0,Training at home,,,,,,,,,,,,,
11,13,2718,A,12.313159861021443,33.21841979177579,0.6156579930510722,0.521793717908523,A,539.0768749639392,Correct,sub_011_day_13_data.csv,1,300,108.0,Training at home,,,,,,,,,,,,,
11,13,2719,A,29.577391115967263,61.25387063960871,1.478869555798363,0.9621735500266712,A,704.9057080294006,Correct,sub_011_day_13_data.csv,1,300,108.0,Training at home,,,,,,,,,,,,,
11,13,2720,B,74.10258219821048,44.10235633100617,3.705129109910524,0.6927581932774415,B,874.7386669856496,Correct,sub_011_day_13_data.csv,1,300,108.0,Training at home,,,,,,,,,,,,,
11,13,2721,B,60.38179737862664,31.675066185014504,3.019089868931332,0.4975507761440602,B,479.807208001148,Correct,sub_011_day_13_data.csv,1,300,108.0,Training at home,,,,,,,,,,,,,
11,13,2722,A,61.55344596846857,74.55343858125828,3.077672298423429,1.1710826747336942,A,792.110166978091,Correct,sub_011_day_13_data.csv,1,300,108.0,Training at home,,,,,,,,,,,,,
11,13,2723,A,61.78512621730654,82.95850012246768,3.089256310865327,1.303109072687862,A,1468.5165839619003,Correct,sub_011_day_13_data.csv,1,300,108.0,Training at home,,,,,,,,,,,,,
11,13,2724,A,54.861613003433746,75.18271112920469,2.743080650171687,1.1809672648023652,A,738.6797909857705,Correct,sub_011_day_13_data.csv,1,300,108.0,Training at home,,,,,,,,,,,,,
11,13,2725,B,67.52676727856384,56.864262161528075,3.376338363928192,0.8932217412923031,A,1941.151999984868,Incorrect,sub_011_day_13_data.csv,0,300,109.0,Training at home,,,,,,,,,,,,,
11,13,2726,B,30.28251529022174,14.391895417131,1.5141257645110868,0.2260673645684568,B,919.7778329835272,Correct,sub_011_day_13_data.csv,1,300,109.0,Training at home,,,,,,,,,,,,,
11,13,2727,A,19.774459509596575,41.17839144980675,0.9887229754798288,0.6468286603267882,A,584.5651249983348,Correct,sub_011_day_13_data.csv,1,300,109.0,Training at home,,,,,,,,,,,,,
11,13,2728,A,41.3563930773375,66.29219831909192,2.067819653866875,1.041315416147884,A,3133.755874994677,Correct,sub_011_day_13_data.csv,1,300,109.0,Training at home,,,,,,,,,,,,,
11,13,2729,A,38.728160191025616,55.796853251638304,1.9364080095512808,0.8764549213438733,A,945.5949999974108,Correct,sub_011_day_13_data.csv,1,300,109.0,Training at home,,,,,,,,,,,,,
11,13,2730,B,50.03426818723723,41.541138051436576,2.501713409361862,0.6525266706207629,B,2877.826999989338,Correct,sub_011_day_13_data.csv,1,300,109.0,Training at home,,,,,,,,,,,,,
11,13,2731,B,82.29029327370363,58.43704893449596,4.114514663685181,0.9179270181503988,B,1108.8532080175355,Correct,sub_011_day_13_data.csv,1,300,109.0,Training at home,,,,,,,,,,,,,
11,13,2732,B,69.99373985478792,50.36304722773625,3.499686992739396,0.7911008959152601,B,632.1242500562221,Correct,sub_011_day_13_data.csv,1,300,109.0,Training at home,,,,,,,,,,,,,
11,13,2733,A,43.48848121825861,62.95322780209446,2.174424060912931,0.9888669899141236,A,974.3925000075252,Correct,sub_011_day_13_data.csv,1,300,109.0,Training at home,,,,,,,,,,,,,
11,13,2734,B,58.12608398838771,35.499612856918525,2.9063041994193854,0.557626614782885,B,997.8497090050952,Correct,sub_011_day_13_data.csv,1,300,109.0,Training at home,,,,,,,,,,,,,
11,13,2735,B,68.05143139654136,49.60973795050943,3.402571569827068,0.779267941459176,B,1281.315458996687,Correct,sub_011_day_13_data.csv,1,300,109.0,Training at home,,,,,,,,,,,,,
11,13,2736,A,23.32302584934111,52.39398588775574,1.1661512924670558,0.8230028057863036,A,610.739333962556,Correct,sub_011_day_13_data.csv,1,300,109.0,Training at home,,,,,,,,,,,,,
11,13,2737,B,75.92749887445986,61.26834667424255,3.796374943722993,0.9624009390469652,B,1893.7770419870503,Correct,sub_011_day_13_data.csv,1,300,109.0,Training at home,,,,,,,,,,,,,
11,13,2738,B,58.59390256962027,47.82641713150464,2.9296951284810135,0.75125560353928,B,2226.070999982767,Correct,sub_011_day_13_data.csv,1,300,109.0,Training at home,,,,,,,,,,,,,
11,13,2739,A,40.13792432168694,70.831709265565,2.006896216084347,1.1126218873495353,A,903.8066669600084,Correct,sub_011_day_13_data.csv,1,300,109.0,Training at home,,,,,,,,,,,,,
11,13,2740,A,18.087011907973093,39.44883588525505,0.9043505953986546,0.6196608650489334,A,566.124833014328,Correct,sub_011_day_13_data.csv,1,300,109.0,Training at home,,,,,,,,,,,,,
11,13,2741,A,51.74897332912153,76.02554093428265,2.5874486664560767,1.1942064044216625,A,957.9358750488608,Correct,sub_011_day_13_data.csv,1,300,109.0,Training at home,,,,,,,,,,,,,
11,13,2742,B,47.48331902061354,27.936245553505117,2.3741659510306774,0.438821518998861,B,1080.8028749888765,Correct,sub_011_day_13_data.csv,1,300,109.0,Training at home,,,,,,,,,,,,,
11,13,2743,B,59.620122336913184,44.32077558543707,2.981006116845659,0.6961891149030548,B,1284.8020420060493,Correct,sub_011_day_13_data.csv,1,300,109.0,Training at home,,,,,,,,,,,,,
11,13,2744,B,52.31330557773231,23.501480645239756,2.6156652788866155,0.3691603947178396,B,458.49720801925287,Correct,sub_011_day_13_data.csv,1,300,109.0,Training at home,,,,,,,,,,,,,
11,13,2745,B,80.24363094656293,53.80480614971803,4.012181547328146,0.8451639186388855,B,864.7428340045735,Correct,sub_011_day_13_data.csv,1,300,109.0,Training at home,,,,,,,,,,,,,
11,13,2746,B,62.118635509432394,38.8911898636415,3.10593177547162,0.6109013818249099,B,2317.401958978735,Correct,sub_011_day_13_data.csv,1,300,109.0,Training at home,,,,,,,,,,,,,
11,13,2747,B,86.72575397451787,63.127136334325414,4.336287698725894,0.9915987387503904,B,781.8684999947436,Correct,sub_011_day_13_data.csv,1,300,109.0,Training at home,,,,,,,,,,,,,
11,13,2748,B,84.35211523487624,65.06218368102917,4.217605761743812,1.021994391394155,B,643.9057500101626,Correct,sub_011_day_13_data.csv,1,300,109.0,Training at home,,,,,,,,,,,,,
11,13,2749,B,48.968868979783934,37.396211179058696,2.4484434489891966,0.5874183115611165,B,634.1341249644756,Correct,sub_011_day_13_data.csv,1,300,109.0,Training at home,,,,,,,,,,,,,
11,13,2750,A,33.83308469634732,65.98466074013244,1.6916542348173662,1.0364846271540746,A,936.7946670390666,Correct,sub_011_day_13_data.csv,1,300,110.0,Training at home,,,,,,,,,,,,,
11,13,2751,B,33.49107623429075,14.493444017298334,1.6745538117145375,0.2276624862497969,B,681.0109169455245,Correct,sub_011_day_13_data.csv,1,300,110.0,Training at home,,,,,,,,,,,,,
11,13,2752,B,55.05983606681646,44.68571132371163,2.752991803340823,0.7019215120750335,B,1104.55925000133,Correct,sub_011_day_13_data.csv,1,300,110.0,Training at home,,,,,,,,,,,,,
11,13,2753,B,85.46086755937843,63.05238259578948,4.273043377968921,0.9904245097713258,B,1169.6900419774463,Correct,sub_011_day_13_data.csv,1,300,110.0,Training at home,,,,,,,,,,,,,
11,13,2754,A,47.97273058566651,62.67189551550577,2.3986365292833254,0.9844478326903,A,1678.911499970127,Correct,sub_011_day_13_data.csv,1,300,110.0,Training at home,,,,,,,,,,,,,
11,13,2755,A,58.21538688332262,75.07333627171512,2.910769344166131,1.1792492085584818,A,1174.8544999863952,Correct,sub_011_day_13_data.csv,1,300,110.0,Training at home,,,,,,,,,,,,,
11,13,2756,B,48.75607264404631,21.322627342517443,2.4378036322023156,0.3349350470724282,B,2694.8236250318587,Correct,sub_011_day_13_data.csv,1,300,110.0,Training at home,,,,,,,,,,,,,
11,13,2757,A,49.061906458600745,77.66625491878479,2.453095322930037,1.2199786794234322,A,766.6818340076134,Correct,sub_011_day_13_data.csv,1,300,110.0,Training at home,,,,,,,,,,,,,
11,13,2758,B,72.38556227688078,48.400183161537505,3.619278113844038,0.7602682992634331,B,583.3379590185359,Correct,sub_011_day_13_data.csv,1,300,110.0,Training at home,,,,,,,,,,,,,
11,13,2759,B,61.23998602269274,35.146201231437864,3.061999301134638,0.5520752379513686,B,773.528040968813,Correct,sub_011_day_13_data.csv,1,300,110.0,Training at home,,,,,,,,,,,,,
11,13,2760,A,37.74943188964872,55.12964469068896,1.887471594482436,0.86597443377642,A,1291.2119999527931,Correct,sub_011_day_13_data.csv,1,300,110.0,Training at home,,,,,,,,,,,,,
11,13,2761,B,78.05243945468541,50.36341260428088,3.902621972734271,0.7911066352366021,B,1186.7401659837924,Correct,sub_011_day_13_data.csv,1,300,110.0,Training at home,,,,,,,,,,,,,
11,13,2762,A,34.76399261254052,53.07343497591026,1.7381996306270258,0.8336755671054762,A,931.2860409845598,Correct,sub_011_day_13_data.csv,1,300,110.0,Training at home,,,,,,,,,,,,,
11,13,2763,B,47.11136656360931,19.82803214620412,2.355568328180466,0.3114580006282856,B,688.357624982018,Correct,sub_011_day_13_data.csv,1,300,110.0,Training at home,,,,,,,,,,,,,
11,13,2764,A,44.46146285810937,65.61104531081723,2.2230731429054686,1.0306158897140525,A,754.3862920138054,Correct,sub_011_day_13_data.csv,1,300,110.0,Training at home,,,,,,,,,,,,,
11,13,2765,A,13.05629462492952,41.15834093415087,0.652814731246476,0.6465137075633621,A,1201.013458019588,Correct,sub_011_day_13_data.csv,1,300,110.0,Training at home,,,,,,,,,,,,,
11,13,2766,B,70.54434018071817,54.398377096329725,3.5272170090359083,0.8544877092651836,B,1012.6022080075928,Correct,sub_011_day_13_data.csv,1,300,110.0,Training at home,,,,,,,,,,,,,
11,13,2767,A,32.20354984905586,42.813634520284495,1.610177492452793,0.6725149984120207,A,1448.2433330267668,Correct,sub_011_day_13_data.csv,1,300,110.0,Training at home,,,,,,,,,,,,,
11,13,2768,A,56.196915985022585,72.66748010760548,2.8098457992511294,1.141458108304679,A,875.3356669913046,Correct,sub_011_day_13_data.csv,1,300,110.0,Training at home,,,,,,,,,,,,,
11,13,2769,B,87.03812023561917,63.91118214057808,4.351906011780959,1.0039145014753963,B,946.5136670041828,Correct,sub_011_day_13_data.csv,1,300,110.0,Training at home,,,,,,,,,,,,,
11,13,2770,A,35.95982016592495,51.86718120894223,1.7979910082962476,0.8147277772421173,B,1117.925958998967,Incorrect,sub_011_day_13_data.csv,0,300,110.0,Training at home,,,,,,,,,,,,,
11,13,2771,A,29.092095526921213,60.66728323704425,1.4546047763460606,0.9529594566537472,A,861.9214160135016,Correct,sub_011_day_13_data.csv,1,300,110.0,Training at home,,,,,,,,,,,,,
11,13,2772,A,14.575376021076984,34.25530438171705,0.7287688010538491,0.5380810629604227,A,532.6407499960624,Correct,sub_011_day_13_data.csv,1,300,110.0,Training at home,,,,,,,,,,,,,
11,13,2773,B,59.5493686235944,32.051938000068866,2.97746843117972,0.5034706647716595,B,628.2385420054197,Correct,sub_011_day_13_data.csv,1,300,110.0,Training at home,,,,,,,,,,,,,
11,13,2774,A,40.719723382497584,58.591825745662106,2.0359861691248793,0.9203582466149268,A,1186.9624580140226,Correct,sub_011_day_13_data.csv,1,300,110.0,Training at home,,,,,,,,,,,,,
11,13,2775,A,66.25894355271588,82.78612824311634,3.312947177635794,1.300401461538584,A,896.1613749852404,Correct,sub_011_day_13_data.csv,1,300,111.0,Training at home,,,,,,,,,,,,,
11,13,2776,B,39.91717793261132,31.42086556205373,1.9958588966305657,0.4935578020959027,B,714.7960420115851,Correct,sub_011_day_13_data.csv,1,300,111.0,Training at home,,,,,,,,,,,,,
11,13,2777,B,42.77983742041475,20.50164574826784,2.1389918710207376,0.3220390983462933,B,579.3712080339901,Correct,sub_011_day_13_data.csv,1,300,111.0,Training at home,,,,,,,,,,,,,
11,13,2778,B,83.216800266175,60.339951912821185,4.16084001330875,0.947817748236402,B,578.281749971211,Correct,sub_011_day_13_data.csv,1,300,111.0,Training at home,,,,,,,,,,,,,
11,13,2779,B,58.4992920821953,29.24350867821235,2.924964604109765,0.4593559601433064,B,580.7629999471828,Correct,sub_011_day_13_data.csv,1,300,111.0,Training at home,,,,,,,,,,,,,
11,13,2780,A,46.233276056409544,56.456246856781014,2.3116638028204775,0.8868126518725755,A,1242.259374994319,Correct,sub_011_day_13_data.csv,1,300,111.0,Training at home,,,,,,,,,,,,,
11,13,2781,B,42.2255855533064,21.583845860862382,2.11127927766532,0.3390382579634986,B,690.5753330211155,Correct,sub_011_day_13_data.csv,1,300,111.0,Training at home,,,,,,,,,,,,,
11,13,2782,B,74.00683681990024,41.08021621828419,3.700341840995012,0.6452865273962094,B,432.4035000172444,Correct,sub_011_day_13_data.csv,1,300,111.0,Training at home,,,,,,,,,,,,,
11,13,2783,B,75.83686079217097,54.971708344402536,3.791843039608549,0.8634935754502787,B,538.4475840255618,Correct,sub_011_day_13_data.csv,1,300,111.0,Training at home,,,,,,,,,,,,,
11,13,2784,A,60.456808018870674,76.2587158589696,3.022840400943534,1.1978691075736516,A,611.2851249636151,Correct,sub_011_day_13_data.csv,1,300,111.0,Training at home,,,,,,,,,,,,,
11,13,2785,A,26.12274239764661,40.037552166875145,1.3061371198823306,0.6289083987758652,A,555.4227909888141,Correct,sub_011_day_13_data.csv,1,300,111.0,Training at home,,,,,,,,,,,,,
11,13,2786,A,64.50863098403423,88.32514295179962,3.225431549201711,1.38740810112321,A,1310.260499943979,Correct,sub_011_day_13_data.csv,1,300,111.0,Training at home,,,,,,,,,,,,,
11,13,2787,B,36.72699950474328,25.286921441716338,1.8363499752371637,0.3972060331659912,B,1520.9250409970991,Correct,sub_011_day_13_data.csv,1,300,111.0,Training at home,,,,,,,,,,,,,
11,13,2788,B,64.64410187741535,49.646008406893394,3.232205093870767,0.7798376764557668,B,957.264457945712,Correct,sub_011_day_13_data.csv,1,300,111.0,Training at home,,,,,,,,,,,,,
11,13,2789,B,40.24937443840732,16.818879413084186,2.0124687219203663,0.2641903400287895,B,490.531750023365,Correct,sub_011_day_13_data.csv,1,300,111.0,Training at home,,,,,,,,,,,,,
11,13,2790,B,79.7445030130479,55.208571945269746,3.987225150652395,0.8672142201922151,B,543.4585830080323,Correct,sub_011_day_13_data.csv,1,300,111.0,Training at home,,,,,,,,,,,,,
11,13,2791,B,37.62849505102763,23.079165156860984,1.8814247525513816,0.3625266785388999,B,903.4237919840962,Correct,sub_011_day_13_data.csv,1,300,111.0,Training at home,,,,,,,,,,,,,
11,13,2792,B,77.96743078624627,46.658049743710585,3.8983715393123135,0.7329029315283415,B,498.7019579857588,Correct,sub_011_day_13_data.csv,1,300,111.0,Training at home,,,,,,,,,,,,,
11,13,2793,B,77.28822812467376,47.13566357715381,3.864411406233688,0.7404052720803319,B,510.32370794564486,Correct,sub_011_day_13_data.csv,1,300,111.0,Training at home,,,,,,,,,,,,,
11,13,2794,B,74.78000264546216,45.16313535324241,3.739000132273108,0.7094208711941392,B,634.8412499646656,Correct,sub_011_day_13_data.csv,1,300,111.0,Training at home,,,,,,,,,,,,,
11,13,2795,A,13.08636857759101,37.15238628140101,0.6543184288795504,0.5835883190248982,A,598.3062500017695,Correct,sub_011_day_13_data.csv,1,300,111.0,Training at home,,,,,,,,,,,,,
11,13,2796,B,74.29212103088159,45.334212454148464,3.714606051544079,0.7121081440111586,B,558.7323749787174,Correct,sub_011_day_13_data.csv,1,300,111.0,Training at home,,,,,,,,,,,,,
11,13,2797,A,25.41359818004206,36.80795810488377,1.270679909002103,0.5781780538797185,A,529.1831250069663,Correct,sub_011_day_13_data.csv,1,300,111.0,Training at home,,,,,,,,,,,,,
11,13,2798,A,51.012096052821946,59.11661809417092,2.5506048026410975,0.928601665548604,A,1072.2544160089456,Correct,sub_011_day_13_data.csv,1,300,111.0,Training at home,,,,,,,,,,,,,
11,13,2799,A,65.84117906479608,85.38637720919687,3.292058953239804,1.341246076785299,A,948.7419580109416,Correct,sub_011_day_13_data.csv,1,300,111.0,Training at home,,,,,,,,,,,,,
11,13,2800,B,62.49527729358857,44.245764275642,3.1247638646794287,0.6950108400041131,B,754.5737079926766,Correct,sub_011_day_13_data.csv,1,300,112.0,Training at home,,,,,,,,,,,,,
11,13,2801,B,70.47779033778215,43.206270506901745,3.5238895168891076,0.6786825100674793,B,1375.9912920068018,Correct,sub_011_day_13_data.csv,1,300,112.0,Training at home,,,,,,,,,,,,,
11,13,2802,B,54.81642646988507,29.69963423986378,2.7408213234942536,0.4665207637112996,B,699.4747080025263,Correct,sub_011_day_13_data.csv,1,300,112.0,Training at home,,,,,,,,,,,,,
11,13,2803,A,68.65508570722814,88.58792776745408,3.4327542853614066,1.391535915354885,A,577.7055840007961,Correct,sub_011_day_13_data.csv,1,300,112.0,Training at home,,,,,,,,,,,,,
11,13,2804,A,38.57297431744152,60.60812894785715,1.928648715872076,0.9520302632520544,A,735.2612079703249,Correct,sub_011_day_13_data.csv,1,300,112.0,Training at home,,,,,,,,,,,,,
11,13,2805,B,57.49463184327647,24.79122922671088,2.874731592163824,0.3894197180604773,B,895.6584580009803,Correct,sub_011_day_13_data.csv,1,300,112.0,Training at home,,,,,,,,,,,,,
11,13,2806,B,43.5893327949242,16.212897394717643,2.17946663974621,0.2546715967432502,B,424.6849170303903,Correct,sub_011_day_13_data.csv,1,300,112.0,Training at home,,,,,,,,,,,,,
11,13,2807,B,68.45190192813706,37.58903984742437,3.4225950964068534,0.590447257200812,B,443.4890000266023,Correct,sub_011_day_13_data.csv,1,300,112.0,Training at home,,,,,,,,,,,,,
11,13,2808,B,49.5816739361715,22.024374145278852,2.479083696808575,0.3459580600736051,B,448.67195800179616,Correct,sub_011_day_13_data.csv,1,300,112.0,Training at home,,,,,,,,,,,,,
11,13,2809,B,62.49902287642274,33.47896376204279,3.124951143821137,0.5258863330231626,B,490.5811659991741,Correct,sub_011_day_13_data.csv,1,300,112.0,Training at home,,,,,,,,,,,,,
11,13,2810,A,45.82729332687516,58.18400186378266,2.2913646663437577,0.9139521640585724,A,691.4162909961306,Correct,sub_011_day_13_data.csv,1,300,112.0,Training at home,,,,,,,,,,,,,
11,13,2811,B,63.182863100181535,49.87704819799721,3.1591431550090765,0.7834668410078603,B,986.886124999728,Correct,sub_011_day_13_data.csv,1,300,112.0,Training at home,,,,,,,,,,,,,
11,13,2812,A,17.94258204666468,35.28710867673674,0.897129102333234,0.5542886069263039,A,529.9829170107841,Correct,sub_011_day_13_data.csv,1,300,112.0,Training at home,,,,,,,,,,,,,
11,13,2813,B,54.855650443589326,47.758111658808986,2.742782522179466,0.7501826636831769,B,483.3568329922855,Correct,sub_011_day_13_data.csv,1,300,112.0,Training at home,,,,,,,,,,,,,
11,13,2814,A,47.64333011089915,56.8314108332531,2.3821665055449572,0.8927057138344567,A,1454.2617500410415,Correct,sub_011_day_13_data.csv,1,300,112.0,Training at home,,,,,,,,,,,,,
11,13,2815,B,39.32296886647191,29.360861198206152,1.9661484433235956,0.4611993292167702,A,665.6037080101669,Incorrect,sub_011_day_13_data.csv,0,300,112.0,Training at home,,,,,,,,,,,,,
11,13,2816,B,70.93712863936102,44.4665110880051,3.546856431968051,0.6984783228242295,B,1332.8718330012634,Correct,sub_011_day_13_data.csv,1,300,112.0,Training at home,,,,,,,,,,,,,
11,13,2817,A,52.36652077754017,60.06989210551199,2.6183260388770084,0.9435756587030396,A,620.734290976543,Correct,sub_011_day_13_data.csv,1,300,112.0,Training at home,,,,,,,,,,,,,
11,13,2818,B,48.11159361026384,17.826335390097263,2.405579680513192,0.2800154215097865,B,794.9192079831846,Correct,sub_011_day_13_data.csv,1,300,112.0,Training at home,,,,,,,,,,,,,
11,13,2819,B,77.4338548784661,51.66036534597567,3.8716927439233046,0.8114791212634093,B,584.3679169774987,Correct,sub_011_day_13_data.csv,1,300,112.0,Training at home,,,,,,,,,,,,,
11,13,2820,A,50.66057638922411,74.78882068859662,2.5330288194612054,1.1747800482296973,A,716.3758749957196,Correct,sub_011_day_13_data.csv,1,300,112.0,Training at home,,,,,,,,,,,,,
11,13,2821,A,58.3155492653054,81.54356486571187,2.91577746326527,1.2808833216482158,A,778.6776670254767,Correct,sub_011_day_13_data.csv,1,300,112.0,Training at home,,,,,,,,,,,,,
11,13,2822,A,51.75282027365061,73.78898528918837,2.5876410136825307,1.1590746705017976,A,568.8108750036918,Correct,sub_011_day_13_data.csv,1,300,112.0,Training at home,,,,,,,,,,,,,
11,13,2823,B,45.48729388889319,37.204591977798145,2.2743646944446594,0.584408364186282,B,1225.750582991168,Correct,sub_011_day_13_data.csv,1,300,112.0,Training at home,,,,,,,,,,,,,
11,13,2824,B,56.22818327754107,24.167487199848967,2.8114091638770535,0.3796220012138543,B,543.6674589873292,Correct,sub_011_day_13_data.csv,1,300,112.0,Training at home,,,,,,,,,,,,,
11,13,2825,A,25.233075735801226,44.92652840067642,1.261653786790061,0.7057042578742911,A,559.9418749916367,Correct,sub_011_day_13_data.csv,1,300,113.0,Training at home,,,,,,,,,,,,,
11,13,2826,A,28.96506273125948,40.1566121316001,1.448253136562974,0.6307785883284482,A,616.5547500131652,Correct,sub_011_day_13_data.csv,1,300,113.0,Training at home,,,,,,,,,,,,,
11,13,2827,A,13.478561242975772,36.189818062582674,0.6739280621487886,0.5684683328008047,A,545.240624982398,Correct,sub_011_day_13_data.csv,1,300,113.0,Training at home,,,,,,,,,,,,,
11,13,2828,B,46.748189646218755,25.6072752586602,2.3374094823109375,0.4022381391552929,B,714.0745829674415,Correct,sub_011_day_13_data.csv,1,300,113.0,Training at home,,,,,,,,,,,,,
11,13,2829,A,34.639417499769834,61.044168354073086,1.7319708749884917,0.9588795542282728,A,629.2011250043288,Correct,sub_011_day_13_data.csv,1,300,113.0,Training at home,,,,,,,,,,,,,
11,13,2830,B,61.42738312238309,35.47661308161703,3.0713691561191547,0.557265335157278,B,672.1028750180267,Correct,sub_011_day_13_data.csv,1,300,113.0,Training at home,,,,,,,,,,,,,
11,13,2831,A,37.06421656606689,68.3818742421582,1.8532108283033444,1.0741399687893265,A,1068.804332986474,Correct,sub_011_day_13_data.csv,1,300,113.0,Training at home,,,,,,,,,,,,,
11,13,2832,B,89.04438429742842,64.95360109387403,4.4522192148714215,1.020288780103583,B,547.739791974891,Correct,sub_011_day_13_data.csv,1,300,113.0,Training at home,,,,,,,,,,,,,
11,13,2833,A,31.94195958312524,63.5477373226459,1.597097979156262,0.9982055236253912,A,595.4120420501567,Correct,sub_011_day_13_data.csv,1,300,113.0,Training at home,,,,,,,,,,,,,
11,13,2834,A,37.49698973730921,58.541288031985786,1.8748494868654604,0.919564402064853,A,683.5791250341572,Correct,sub_011_day_13_data.csv,1,300,113.0,Training at home,,,,,,,,,,,,,
11,13,2835,A,58.64000121725003,69.84235924815013,2.932000060862501,1.097081213616838,B,497.6834579720162,Incorrect,sub_011_day_13_data.csv,0,300,113.0,Training at home,,,,,,,,,,,,,
11,13,2836,B,33.11047732723952,15.082744682585528,1.655523866361976,0.236919199453906,B,468.8137919874862,Correct,sub_011_day_13_data.csv,1,300,113.0,Training at home,,,,,,,,,,,,,
11,13,2837,B,35.04222680576579,14.578300206887617,1.7521113402882895,0.2289954041589234,B,746.4895410230383,Correct,sub_011_day_13_data.csv,1,300,113.0,Training at home,,,,,,,,,,,,,
11,13,2838,A,63.934208042873095,80.99765478789942,3.1967104021436548,1.2723081861983347,A,1364.8052499629557,Correct,sub_011_day_13_data.csv,1,300,113.0,Training at home,,,,,,,,,,,,,
11,13,2839,A,35.189067413957545,49.98748364144244,1.7594533706978774,0.7852015568969776,A,1303.9585840306245,Correct,sub_011_day_13_data.csv,1,300,113.0,Training at home,,,,,,,,,,,,,
11,13,2840,B,71.77687098234449,53.21479374536842,3.5888435491172244,0.8358960254637275,B,1442.0464580180123,Correct,sub_011_day_13_data.csv,1,300,113.0,Training at home,,,,,,,,,,,,,
11,13,2841,B,78.49652711688653,46.38413514922687,3.924826355844326,0.7286002911396362,B,920.471291989088,Correct,sub_011_day_13_data.csv,1,300,113.0,Training at home,,,,,,,,,,,,,
11,13,2842,A,31.40500077004172,61.993531639923376,1.570250038502086,0.9737921178503484,A,1150.0222909962758,Correct,sub_011_day_13_data.csv,1,300,113.0,Training at home,,,,,,,,,,,,,
11,13,2843,A,60.32438379421953,74.32538461619774,3.0162191897109767,1.1675004114274132,A,1415.1944159530103,Correct,sub_011_day_13_data.csv,1,300,113.0,Training at home,,,,,,,,,,,,,
11,13,2844,B,39.481441711399725,13.796397494651163,1.9740720855699865,0.2167133050760036,B,896.9319160096347,Correct,sub_011_day_13_data.csv,1,300,113.0,Training at home,,,,,,,,,,,,,
11,13,2845,A,51.837790565588534,60.69629411734789,2.5918895282794265,0.9534151584959276,B,1427.4605410173535,Incorrect,sub_011_day_13_data.csv,0,300,113.0,Training at home,,,,,,,,,,,,,
11,13,2846,B,61.3771326117681,33.536762645877495,3.068856630588405,0.5267942357673666,B,1083.2707500085237,Correct,sub_011_day_13_data.csv,1,300,113.0,Training at home,,,,,,,,,,,,,
11,13,2847,A,66.89300232223462,87.02029282098056,3.344650116111731,1.366911563198126,A,1160.809250024613,Correct,sub_011_day_13_data.csv,1,300,113.0,Training at home,,,,,,,,,,,,,
11,13,2848,A,42.07112989246673,63.601075036910096,2.1035564946233363,0.9990433504818498,A,1755.8166250237264,Correct,sub_011_day_13_data.csv,1,300,113.0,Training at home,,,,,,,,,,,,,
11,13,2849,A,38.286164945951406,65.44170121875267,1.9143082472975703,1.027955838936258,A,665.1367919985205,Correct,sub_011_day_13_data.csv,1,300,113.0,Training at home,,,,,,,,,,,,,
11,13,2850,B,62.48128933751751,40.953567374370614,3.1240644668758755,0.6432971320080868,B,847.1165410010144,Correct,sub_011_day_13_data.csv,1,300,114.0,Training at home,,,,,,,,,,,,,
11,13,2851,B,51.12425484721437,27.07199955659084,2.556212742360718,0.4252459746248596,B,664.3997919745743,Correct,sub_011_day_13_data.csv,1,300,114.0,Training at home,,,,,,,,,,,,,
11,13,2852,A,22.37045477499765,33.85601067532661,1.1185227387498826,0.5318089720873185,A,783.9353330200538,Correct,sub_011_day_13_data.csv,1,300,114.0,Training at home,,,,,,,,,,,,,
11,13,2853,A,59.42476463597718,70.7957728890184,2.971238231798859,1.112057400066758,A,1446.862833981868,Correct,sub_011_day_13_data.csv,1,300,114.0,Training at home,,,,,,,,,,,,,
11,13,2854,B,36.20307519059232,10.665540540016334,1.810153759529616,0.1675339190353971,B,974.5010409969836,Correct,sub_011_day_13_data.csv,1,300,114.0,Training at home,,,,,,,,,,,,,
11,13,2855,A,32.59379333734529,63.71225143281235,1.6296896668672645,1.0007897052249453,A,1165.159957949072,Correct,sub_011_day_13_data.csv,1,300,114.0,Training at home,,,,,,,,,,,,,
11,13,2856,B,37.89601795459328,18.943848619279112,1.894800897729664,0.297569278265222,B,1154.940832988359,Correct,sub_011_day_13_data.csv,1,300,114.0,Training at home,,,,,,,,,,,,,
11,13,2857,B,50.4822310793434,37.293694765430445,2.52411155396717,0.5858079875014819,B,1195.8647909923457,Correct,sub_011_day_13_data.csv,1,300,114.0,Training at home,,,,,,,,,,,,,
11,13,2858,B,70.57990487658711,59.19337645410464,3.528995243829355,0.929807383046951,B,1383.5488749900833,Correct,sub_011_day_13_data.csv,1,300,114.0,Training at home,,,,,,,,,,,,,
11,13,2859,A,57.7593701722175,83.47394460802079,2.8879685086108746,1.3112056557335972,A,2174.2064169957303,Correct,sub_011_day_13_data.csv,1,300,114.0,Training at home,,,,,,,,,,,,,
11,13,2860,B,86.55662469937442,65.41716177222975,4.327831234968722,1.02757037421166,B,1300.5113329854794,Correct,sub_011_day_13_data.csv,1,300,114.0,Training at home,,,,,,,,,,,,,
11,13,2861,B,41.65755095519343,26.409075379964463,2.0828775477596713,0.4148327860089771,B,1038.0388750345446,Correct,sub_011_day_13_data.csv,1,300,114.0,Training at home,,,,,,,,,,,,,
11,13,2862,B,59.97955456526981,50.874291195386455,2.998977728263491,0.7991314973800699,B,1500.0162500073202,Correct,sub_011_day_13_data.csv,1,300,114.0,Training at home,,,,,,,,,,,,,
11,13,2863,A,53.103110961131854,60.34841454989839,2.6551555480565927,0.9479506790287608,B,709.8664169898257,Incorrect,sub_011_day_13_data.csv,0,300,114.0,Training at home,,,,,,,,,,,,,
11,13,2864,A,60.310725687487114,76.49313487342079,3.0155362843743556,1.2015513528419597,A,922.7857500081882,Correct,sub_011_day_13_data.csv,1,300,114.0,Training at home,,,,,,,,,,,,,
11,13,2865,B,54.95979831722754,30.356214990162805,2.7479899158613765,0.4768343100194391,B,593.7319580116309,Correct,sub_011_day_13_data.csv,1,300,114.0,Training at home,,,,,,,,,,,,,
11,13,2866,A,45.9527206369914,66.41626548235399,2.29763603184957,1.0432642585911631,A,615.2659170329571,Correct,sub_011_day_13_data.csv,1,300,114.0,Training at home,,,,,,,,,,,,,
11,13,2867,A,24.139702721220832,56.67221127254816,1.2069851360610415,0.8902050129826298,A,523.6578339827247,Correct,sub_011_day_13_data.csv,1,300,114.0,Training at home,,,,,,,,,,,,,
11,13,2868,B,70.96629630621601,37.807653585742635,3.5483148153108006,0.5938812337721843,B,529.2231250205077,Correct,sub_011_day_13_data.csv,1,300,114.0,Training at home,,,,,,,,,,,,,
11,13,2869,A,15.597266473490029,42.59540378007333,0.7798633236745013,0.6690870379608465,A,465.22829099558294,Correct,sub_011_day_13_data.csv,1,300,114.0,Training at home,,,,,,,,,,,,,
11,13,2870,B,72.27590495053423,55.34179564851104,3.613795247526712,0.8693068932291492,B,635.5007499805652,Correct,sub_011_day_13_data.csv,1,300,114.0,Training at home,,,,,,,,,,,,,
11,13,2871,B,64.62733670911723,54.12624656543322,3.2313668354558613,0.8502130928817738,B,559.2954999883659,Correct,sub_011_day_13_data.csv,1,300,114.0,Training at home,,,,,,,,,,,,,
11,13,2872,B,64.91034796856972,37.54640781808859,3.245517398428486,0.5897775948499674,B,545.9191249683499,Correct,sub_011_day_13_data.csv,1,300,114.0,Training at home,,,,,,,,,,,,,
11,13,2873,B,49.732870550916786,21.068782111922317,2.4866435275458394,0.330947655514496,B,470.38541699294,Correct,sub_011_day_13_data.csv,1,300,114.0,Training at home,,,,,,,,,,,,,
11,13,2874,A,24.6304328285472,51.931573973392915,1.23152164142736,0.8157392564208303,A,550.9794580284506,Correct,sub_011_day_13_data.csv,1,300,114.0,Training at home,,,,,,,,,,,,,
11,13,2875,A,32.973048507055054,63.9323668844073,1.6486524253527528,1.0042472706533068,A,628.5044579999521,Correct,sub_011_day_13_data.csv,1,300,115.0,Training at home,,,,,,,,,,,,,
11,13,2876,A,17.845521326837982,34.33637033739329,0.8922760663418992,0.5393544440144663,A,461.70245797839016,Correct,sub_011_day_13_data.csv,1,300,115.0,Training at home,,,,,,,,,,,,,
11,13,2877,A,42.15812267076233,71.15272259454623,2.107906133538117,1.1176643529296946,A,909.7302499576472,Correct,sub_011_day_13_data.csv,1,300,115.0,Training at home,,,,,,,,,,,,,
11,13,2878,A,36.95722243581532,45.02521131353072,1.847861121790766,0.7072543654445808,A,980.6823330000044,Correct,sub_011_day_13_data.csv,1,300,115.0,Training at home,,,,,,,,,,,,,
11,13,2879,A,33.86054063730957,44.57646494127158,1.6930270318654783,0.7002054739125089,A,692.976416030433,Correct,sub_011_day_13_data.csv,1,300,115.0,Training at home,,,,,,,,,,,,,
11,13,2880,B,46.95199812243874,25.163054276663928,2.347599906121937,0.3952603322872431,B,1466.1225829622708,Correct,sub_011_day_13_data.csv,1,300,115.0,Training at home,,,,,,,,,,,,,
11,13,2881,A,27.355433189460868,56.04066160585653,1.3677716594730436,0.8802846540163523,A,808.1717920140363,Correct,sub_011_day_13_data.csv,1,300,115.0,Training at home,,,,,,,,,,,,,
11,13,2882,B,65.97576132312035,54.246674033941936,3.2987880661560176,0.8521047631335609,B,6044.160040968563,Correct,sub_011_day_13_data.csv,1,300,115.0,Training at home,,,,,,,,,,,,,
11,13,2883,B,58.799444411253795,43.169303093582336,2.93997222056269,0.678101827296947,B,510.7298750081099,Correct,sub_011_day_13_data.csv,1,300,115.0,Training at home,,,,,,,,,,,,,
11,13,2884,A,26.96941733481068,44.438333148637525,1.348470866740534,0.6980357047876772,A,2303.737790964078,Correct,sub_011_day_13_data.csv,1,300,115.0,Training at home,,,,,,,,,,,,,
11,13,2885,A,30.0240326101656,46.77185306354536,1.50120163050828,0.7346905498960767,A,468.8079580082558,Correct,sub_011_day_13_data.csv,1,300,115.0,Training at home,,,,,,,,,,,,,
11,13,2886,A,38.4762326782298,63.641095354030234,1.92381163391149,0.9996719881531444,A,669.5906250388362,Correct,sub_011_day_13_data.csv,1,300,115.0,Training at home,,,,,,,,,,,,,
11,13,2887,A,16.89208835719847,46.50692281404768,0.8446044178599236,0.7305290352683987,A,710.407790960744,Correct,sub_011_day_13_data.csv,1,300,115.0,Training at home,,,,,,,,,,,,,
11,13,2888,A,33.35008941100858,46.60514285942893,1.6675044705504292,0.7320718721334235,A,2091.0814580274746,Correct,sub_011_day_13_data.csv,1,300,115.0,Training at home,,,,,,,,,,,,,
11,13,2889,B,36.719739861752785,18.612101449635233,1.8359869930876391,0.2923582059102099,B,1933.3477080217565,Correct,sub_011_day_13_data.csv,1,300,115.0,Training at home,,,,,,,,,,,,,
11,13,2890,B,38.85388682826812,13.418192985518324,1.942694341413406,0.2107724825387723,B,4295.835166994948,Correct,sub_011_day_13_data.csv,1,300,115.0,Training at home,,,,,,,,,,,,,
11,13,2891,B,44.39648843607241,20.100700972585187,2.2198244218036205,0.3157410725373942,B,454.6675839810632,Correct,sub_011_day_13_data.csv,1,300,115.0,Training at home,,,,,,,,,,,,,
11,13,2892,B,37.225661829401744,15.967108928779885,1.8612830914700873,0.2508107605486143,B,428.7518750061281,Correct,sub_011_day_13_data.csv,1,300,115.0,Training at home,,,,,,,,,,,,,
11,13,2893,B,75.03913122877526,56.794539229817545,3.751956561438763,0.8921265360420605,B,1150.5507500260137,Correct,sub_011_day_13_data.csv,1,300,115.0,Training at home,,,,,,,,,,,,,
11,13,2894,A,57.83919624914954,85.43041281271664,2.8919598124574772,1.34193778642787,A,1225.925291015301,Correct,sub_011_day_13_data.csv,1,300,115.0,Training at home,,,,,,,,,,,,,
11,13,2895,B,56.38440480102011,26.356645641495692,2.819220240051006,0.4140092216029615,B,957.7008330379612,Correct,sub_011_day_13_data.csv,1,300,115.0,Training at home,,,,,,,,,,,,,
11,13,2896,A,21.84456103586205,45.30892668652986,1.092228051793103,0.7117109561022037,A,1565.306042029988,Correct,sub_011_day_13_data.csv,1,300,115.0,Training at home,,,,,,,,,,,,,
11,13,2897,B,39.61615236413708,15.311269341244994,1.980807618206854,0.2405088563979495,B,2442.808333027642,Correct,sub_011_day_13_data.csv,1,300,115.0,Training at home,,,,,,,,,,,,,
11,13,2898,B,64.78451226923613,52.72324284115953,3.2392256134618065,0.8281747619160872,B,1442.901999980677,Correct,sub_011_day_13_data.csv,1,300,115.0,Training at home,,,,,,,,,,,,,
11,13,2899,A,58.47822957446617,80.66639356415305,2.9239114787233085,1.267104747063631,A,932.696792006027,Correct,sub_011_day_13_data.csv,1,300,115.0,Training at home,,,,,,,,,,,,,
11,13,2900,B,76.79594490528044,52.24400067794465,3.8397972452640214,0.8206468436198555,B,1474.3871670216322,Correct,sub_011_day_13_data.csv,1,300,116.0,Training at home,,,,,,,,,,,,,
11,13,2901,B,40.19726447090739,31.902549229107755,2.0098632235453695,0.5011240714447582,B,725.7313330192119,Correct,sub_011_day_13_data.csv,1,300,116.0,Training at home,,,,,,,,,,,,,
11,13,2902,B,58.23805328325549,46.53076943322799,2.9119026641627745,0.7309036170865476,B,912.1435830020346,Correct,sub_011_day_13_data.csv,1,300,116.0,Training at home,,,,,,,,,,,,,
11,13,2903,B,78.31068190374295,60.27332898345057,3.915534095187147,0.9467712377090454,B,535.1557920221239,Correct,sub_011_day_13_data.csv,1,300,116.0,Training at home,,,,,,,,,,,,,
11,13,2904,B,35.76985467868877,13.903478574813782,1.7884927339344387,0.2183953307498903,B,632.8297080472112,Correct,sub_011_day_13_data.csv,1,300,116.0,Training at home,,,,,,,,,,,,,
11,13,2905,A,50.83068679038247,75.99469764208972,2.541534339519123,1.193721919120833,A,549.3239170173183,Correct,sub_011_day_13_data.csv,1,300,116.0,Training at home,,,,,,,,,,,,,
11,13,2906,A,69.00119139045069,88.38346932097132,3.4500595695225345,1.388324289587712,A,570.8174579776824,Correct,sub_011_day_13_data.csv,1,300,116.0,Training at home,,,,,,,,,,,,,
11,13,2907,A,26.628340621659085,54.76287859031415,1.331417031082954,0.8602132853438036,A,510.440792015288,Correct,sub_011_day_13_data.csv,1,300,116.0,Training at home,,,,,,,,,,,,,
11,13,2908,B,52.84848225508247,33.78628912670063,2.6424241127541235,0.530713788562517,B,639.3280000193045,Correct,sub_011_day_13_data.csv,1,300,116.0,Training at home,,,,,,,,,,,,,
11,13,2909,A,37.78408786013903,63.45466647240359,1.889204393006952,0.9967435701284684,A,490.7920000259765,Correct,sub_011_day_13_data.csv,1,300,116.0,Training at home,,,,,,,,,,,,,
11,13,2910,A,28.155962354812743,51.83439108071531,1.4077981177406371,0.8142127111123776,A,588.1810830323957,Correct,sub_011_day_13_data.csv,1,300,116.0,Training at home,,,,,,,,,,,,,
11,13,2911,A,33.500443127827275,50.981886184363816,1.675022156391364,0.8008215955147417,A,457.1963339694776,Correct,sub_011_day_13_data.csv,1,300,116.0,Training at home,,,,,,,,,,,,,
11,13,2912,A,47.84721032497746,67.43954351964074,2.392360516248873,1.0593378724137623,A,468.4438330004923,Correct,sub_011_day_13_data.csv,1,300,116.0,Training at home,,,,,,,,,,,,,
11,13,2913,A,35.017721577020716,52.4391657506018,1.750886078851036,0.8237124894123405,A,468.0980420089327,Correct,sub_011_day_13_data.csv,1,300,116.0,Training at home,,,,,,,,,,,,,
11,13,2914,A,48.47499191579606,58.97466475717753,2.423749595789803,0.9263718677453492,A,466.2327919504605,Correct,sub_011_day_13_data.csv,1,300,116.0,Training at home,,,,,,,,,,,,,
11,13,2915,A,60.140331722326835,75.15163533173941,3.007016586116342,1.1804791273172583,A,601.5574160264805,Correct,sub_011_day_13_data.csv,1,300,116.0,Training at home,,,,,,,,,,,,,
11,13,2916,B,68.29009646371568,50.92885187882109,3.4145048231857844,0.7999885345913355,B,1079.3015419621952,Correct,sub_011_day_13_data.csv,1,300,116.0,Training at home,,,,,,,,,,,,,
11,13,2917,A,15.753946770641797,35.300062063646536,0.7876973385320898,0.5544920782520785,A,549.5045830029994,Correct,sub_011_day_13_data.csv,1,300,116.0,Training at home,,,,,,,,,,,,,
11,13,2918,A,67.09352056312642,82.98992069454367,3.354676028156321,1.3036026258798896,A,688.5867919772863,Correct,sub_011_day_13_data.csv,1,300,116.0,Training at home,,,,,,,,,,,,,
11,13,2919,A,50.43804190963095,78.30093324645894,2.521902095481547,1.2299481832815011,A,465.4984170338139,Correct,sub_011_day_13_data.csv,1,300,116.0,Training at home,,,,,,,,,,,,,
11,13,2920,A,65.91128410939777,88.24398746157956,3.295564205469889,1.386133313663841,A,773.2360839727335,Correct,sub_011_day_13_data.csv,1,300,116.0,Training at home,,,,,,,,,,,,,
11,13,2921,A,31.226473261059297,53.59222203435267,1.561323663052965,0.841824655163377,A,561.2693750299513,Correct,sub_011_day_13_data.csv,1,300,116.0,Training at home,,,,,,,,,,,,,
11,13,2922,B,61.33791603483659,42.24967178639041,3.06689580174183,0.6636562925035203,B,560.3260409552604,Correct,sub_011_day_13_data.csv,1,300,116.0,Training at home,,,,,,,,,,,,,
11,13,2923,B,72.46608785848188,41.73491398623674,3.6233043929240942,0.6555704958868163,B,538.7843750067987,Correct,sub_011_day_13_data.csv,1,300,116.0,Training at home,,,,,,,,,,,,,
11,13,2924,B,52.0942867937,35.63981101725341,2.6047143396849997,0.5598288423356594,B,559.9224579636939,Correct,sub_011_day_13_data.csv,1,300,116.0,Training at home,,,,,,,,,,,,,
11,13,2925,A,40.41618033786903,63.49717526748874,2.0208090168934514,0.9974112967202308,A,498.8930829567835,Correct,sub_011_day_13_data.csv,1,300,117.0,Training at home,,,,,,,,,,,,,
11,13,2926,A,19.555200575270785,44.60374766285876,0.9777600287635392,0.70063402990105,A,480.26358301285654,Correct,sub_011_day_13_data.csv,1,300,117.0,Training at home,,,,,,,,,,,,,
11,13,2927,B,62.7512389073992,30.180892290769137,3.1375619453699595,0.4740803474973257,B,606.1410830006935,Correct,sub_011_day_13_data.csv,1,300,117.0,Training at home,,,,,,,,,,,,,
11,13,2928,B,85.2585929571689,55.8443174284928,4.262929647858445,0.8772004868904473,B,444.86995798069984,Correct,sub_011_day_13_data.csv,1,300,117.0,Training at home,,,,,,,,,,,,,
11,13,2929,A,38.350033573293096,53.54728791155744,1.9175016786646548,0.8411188316130318,A,518.6487920000218,Correct,sub_011_day_13_data.csv,1,300,117.0,Training at home,,,,,,,,,,,,,
11,13,2930,B,37.950433714430126,17.79623111635617,1.8975216857215065,0.2795425446836531,B,442.63099995441735,Correct,sub_011_day_13_data.csv,1,300,117.0,Training at home,,,,,,,,,,,,,
11,13,2931,A,17.260759925485484,44.87637739915947,0.8630379962742742,0.7049164877846121,A,473.9974580006674,Correct,sub_011_day_13_data.csv,1,300,117.0,Training at home,,,,,,,,,,,,,
11,13,2932,B,56.544531312590784,46.236488409483485,2.8272265656295392,0.7262810615751146,B,590.9262909553945,Correct,sub_011_day_13_data.csv,1,300,117.0,Training at home,,,,,,,,,,,,,
11,13,2933,B,54.924661339817746,34.30880101003078,2.7462330669908877,0.5389213860329338,B,466.48624999215826,Correct,sub_011_day_13_data.csv,1,300,117.0,Training at home,,,,,,,,,,,,,
11,13,2934,A,56.57015424700746,78.48799175615974,2.828507712350373,1.2328864914808384,A,607.2742079850286,Correct,sub_011_day_13_data.csv,1,300,117.0,Training at home,,,,,,,,,,,,,
11,13,2935,A,46.008333222472075,77.11562056480558,2.3004166611236037,1.211329335217056,A,520.8633339498192,Correct,sub_011_day_13_data.csv,1,300,117.0,Training at home,,,,,,,,,,,,,
11,13,2936,A,19.963513407983925,36.85396232001001,0.9981756703991962,0.5789006864010925,A,435.7051670085639,Correct,sub_011_day_13_data.csv,1,300,117.0,Training at home,,,,,,,,,,,,,
11,13,2937,B,86.91589427993047,62.765021559817825,4.345794713996523,0.9859106531736432,B,495.9366249968298,Correct,sub_011_day_13_data.csv,1,300,117.0,Training at home,,,,,,,,,,,,,
11,13,2938,B,50.19789217064136,22.297647003593426,2.509894608532068,0.3502506200941378,B,562.5042910105549,Correct,sub_011_day_13_data.csv,1,300,117.0,Training at home,,,,,,,,,,,,,
11,13,2939,A,38.86969706237052,46.16262765608239,1.9434848531185256,0.7251208595737473,A,481.0887079802342,Correct,sub_011_day_13_data.csv,1,300,117.0,Training at home,,,,,,,,,,,,,
11,13,2940,B,64.40256012007947,53.34113677003076,3.220128006003973,0.8378806170542851,B,605.9417499927804,Correct,sub_011_day_13_data.csv,1,300,117.0,Training at home,,,,,,,,,,,,,
11,13,2941,B,89.48796432536541,66.75982618507336,4.474398216268271,1.04866089748979,B,521.7774999910034,Correct,sub_011_day_13_data.csv,1,300,117.0,Training at home,,,,,,,,,,,,,
11,13,2942,B,84.97423529094283,67.55811564203168,4.248711764547141,1.061200398956882,B,500.2186250058003,Correct,sub_011_day_13_data.csv,1,300,117.0,Training at home,,,,,,,,,,,,,
11,13,2943,A,30.609787532641732,48.72288047833321,1.5304893766320868,0.7653372168623259,A,1565.2470840141175,Correct,sub_011_day_13_data.csv,1,300,117.0,Training at home,,,,,,,,,,,,,
11,13,2944,B,65.78685177732073,35.51609337834797,3.289342588866037,0.5578854902081354,B,386.1103749950416,Correct,sub_011_day_13_data.csv,1,300,117.0,Training at home,,,,,,,,,,,,,
11,13,2945,A,45.37669995360447,75.28349165898993,2.268834997680224,1.182550321662356,A,699.6306250221096,Correct,sub_011_day_13_data.csv,1,300,117.0,Training at home,,,,,,,,,,,,,
11,13,2946,B,45.30525160898623,17.940387395355565,2.2652625804493116,0.2818069462190198,B,423.3428749721498,Correct,sub_011_day_13_data.csv,1,300,117.0,Training at home,,,,,,,,,,,,,
11,13,2947,B,54.98263299661525,44.724118248819394,2.7491316498307627,0.7025248066438611,B,485.5511670466512,Correct,sub_011_day_13_data.csv,1,300,117.0,Training at home,,,,,,,,,,,,,
11,13,2948,B,51.94501480900248,31.154014180324356,2.5972507404501237,0.4893661103936962,B,547.0833749859594,Correct,sub_011_day_13_data.csv,1,300,117.0,Training at home,,,,,,,,,,,,,
11,13,2949,A,35.58388135139337,59.87366419753084,1.7791940675696685,0.9404933179323256,A,536.6344170179218,Correct,sub_011_day_13_data.csv,1,300,117.0,Training at home,,,,,,,,,,,,,
11,13,2950,A,29.599479056613752,54.778156452277486,1.4799739528306874,0.8604532694383364,A,531.532333989162,Correct,sub_011_day_13_data.csv,1,300,118.0,Training at home,,,,,,,,,,,,,
11,13,2951,B,73.66149176776719,60.61343759355996,3.6830745883883593,0.9521136512637568,B,779.1435000253841,Correct,sub_011_day_13_data.csv,1,300,118.0,Training at home,,,,,,,,,,,,,
11,13,2952,B,75.44413807773996,51.20538834163226,3.7722069038869983,0.8043323591914218,B,459.98708298429847,Correct,sub_011_day_13_data.csv,1,300,118.0,Training at home,,,,,,,,,,,,,
11,13,2953,B,46.33117286205673,38.11168230516076,2.316558643102837,0.5986569057292057,B,851.2813749839552,Correct,sub_011_day_13_data.csv,1,300,118.0,Training at home,,,,,,,,,,,,,
11,13,2954,B,54.27121421038643,44.921157675042046,2.713560710519322,0.7056198947133041,B,695.3542080009356,Correct,sub_011_day_13_data.csv,1,300,118.0,Training at home,,,,,,,,,,,,,
11,13,2955,B,73.18802870274318,43.43265978291927,3.659401435137159,0.6822386244994203,B,410.61308298958465,Correct,sub_011_day_13_data.csv,1,300,118.0,Training at home,,,,,,,,,,,,,
11,13,2956,A,41.90256458714977,72.68901555032087,2.0951282293574884,1.1417963862478115,A,538.5013750055805,Correct,sub_011_day_13_data.csv,1,300,118.0,Training at home,,,,,,,,,,,,,
11,13,2957,A,40.85468542569773,62.03198764281039,2.042734271284887,0.9743961833311297,A,521.116207994055,Correct,sub_011_day_13_data.csv,1,300,118.0,Training at home,,,,,,,,,,,,,
11,13,2958,B,66.2553507714887,44.70898287054533,3.3127675385744344,0.7022870606778855,B,1046.4107500156388,Correct,sub_011_day_13_data.csv,1,300,118.0,Training at home,,,,,,,,,,,,,
11,13,2959,A,37.51971765666954,54.47181510966818,1.875985882833477,0.8556412708811751,A,507.71212502149865,Correct,sub_011_day_13_data.csv,1,300,118.0,Training at home,,,,,,,,,,,,,
11,13,2960,A,38.41981526555235,52.19403201619276,1.9209907632776175,0.8198619377165082,A,909.3478330178186,Correct,sub_011_day_13_data.csv,1,300,118.0,Training at home,,,,,,,,,,,,,
11,13,2961,A,48.271432629309416,71.85798681770387,2.4135716314654707,1.1287426174412534,A,703.956792014651,Correct,sub_011_day_13_data.csv,1,300,118.0,Training at home,,,,,,,,,,,,,
11,13,2962,A,52.1333836513536,81.46719762142246,2.60666918256768,1.2796837477800431,A,498.4640420298092,Correct,sub_011_day_13_data.csv,1,300,118.0,Training at home,,,,,,,,,,,,,
11,13,2963,A,25.39044918651767,53.66015855825924,1.2695224593258836,0.8428917995854535,A,449.4431659695693,Correct,sub_011_day_13_data.csv,1,300,118.0,Training at home,,,,,,,,,,,,,
11,13,2964,A,41.01664150359811,62.90420318867428,2.0508320751799056,0.988096913087294,A,602.2662920295261,Correct,sub_011_day_13_data.csv,1,300,118.0,Training at home,,,,,,,,,,,,,
11,13,2965,B,65.75866874225265,41.06125646439298,3.287933437112633,0.6449887082785171,B,812.399624963291,Correct,sub_011_day_13_data.csv,1,300,118.0,Training at home,,,,,,,,,,,,,
11,13,2966,B,51.2960956296077,33.75806194335718,2.564804781480385,0.5302703970034004,B,528.1507499748841,Correct,sub_011_day_13_data.csv,1,300,118.0,Training at home,,,,,,,,,,,,,
11,13,2967,A,20.58490329892065,45.36624245840737,1.0292451649460326,0.7126112701415298,A,534.9893750390038,Correct,sub_011_day_13_data.csv,1,300,118.0,Training at home,,,,,,,,,,,,,
11,13,2968,A,67.45907555909386,80.57211729207171,3.3729537779546934,1.2656238588447382,A,666.1467089434154,Correct,sub_011_day_13_data.csv,1,300,118.0,Training at home,,,,,,,,,,,,,
11,13,2969,B,56.826052891119424,42.6038542099043,2.841302644555971,0.6692197770022296,B,782.4313329765573,Correct,sub_011_day_13_data.csv,1,300,118.0,Training at home,,,,,,,,,,,,,
11,13,2970,A,25.10164066586056,55.41190025317802,1.255082033293028,0.8704080937841722,A,536.1091250088066,Correct,sub_011_day_13_data.csv,1,300,118.0,Training at home,,,,,,,,,,,,,
11,13,2971,A,28.813950262990648,39.497552976925775,1.4406975131495323,0.6204261113354184,A,1186.466749990359,Correct,sub_011_day_13_data.csv,1,300,118.0,Training at home,,,,,,,,,,,,,
11,13,2972,A,59.83536504246014,75.65966842708181,2.991768252123007,1.1884592925177992,A,1350.494125043042,Correct,sub_011_day_13_data.csv,1,300,118.0,Training at home,,,,,,,,,,,,,
11,13,2973,A,52.31050956134857,59.34315253739031,2.615525478067428,0.9321600602616196,A,896.2975419708528,Correct,sub_011_day_13_data.csv,1,300,118.0,Training at home,,,,,,,,,,,,,
11,13,2974,A,51.92128324808108,77.10590544967174,2.596064162404054,1.2111767305453895,A,1246.4154579793103,Correct,sub_011_day_13_data.csv,1,300,118.0,Training at home,,,,,,,,,,,,,
11,13,2975,A,29.216401575182353,46.47298021248943,1.4608200787591177,0.729995866129903,A,1799.308832967654,Correct,sub_011_day_13_data.csv,1,300,119.0,Training at home,,,,,,,,,,,,,
11,13,2976,B,51.7106465522904,44.94970925802544,2.58553232761452,0.7060683819300491,B,1024.0025410312228,Correct,sub_011_day_13_data.csv,1,300,119.0,Training at home,,,,,,,,,,,,,
11,13,2977,A,41.89913420355764,72.46942367367403,2.094956710177882,1.1383470451155029,A,779.557624948211,Correct,sub_011_day_13_data.csv,1,300,119.0,Training at home,,,,,,,,,,,,,
11,13,2978,B,32.77074071889344,11.997184750049268,1.6385370359446725,0.1884513373725714,B,618.7387920217589,Correct,sub_011_day_13_data.csv,1,300,119.0,Training at home,,,,,,,,,,,,,
11,13,2979,B,55.04072333555952,48.144961321939675,2.752036166777976,0.756259283981852,B,578.6566670285538,Correct,sub_011_day_13_data.csv,1,300,119.0,Training at home,,,,,,,,,,,,,
11,13,2980,A,59.521801657962136,69.68016971784557,2.9760900828981067,1.0945335464323682,A,756.9846659898758,Correct,sub_011_day_13_data.csv,1,300,119.0,Training at home,,,,,,,,,,,,,
11,13,2981,A,62.68048274535836,77.11870860648794,3.134024137267918,1.2113778420623722,A,724.9652500031516,Correct,sub_011_day_13_data.csv,1,300,119.0,Training at home,,,,,,,,,,,,,
11,13,2982,A,68.9036153660425,85.49053660301806,3.445180768302125,1.342882208717454,A,530.6926249759272,Correct,sub_011_day_13_data.csv,1,300,119.0,Training at home,,,,,,,,,,,,,
11,13,2983,A,55.30732894150226,66.0902721274295,2.765366447075113,1.038143566946414,A,526.0979580343701,Correct,sub_011_day_13_data.csv,1,300,119.0,Training at home,,,,,,,,,,,,,
11,13,2984,A,32.110451708169,58.66618355652759,1.60552258540845,0.9215262563766872,A,510.398292040918,Correct,sub_011_day_13_data.csv,1,300,119.0,Training at home,,,,,,,,,,,,,
11,13,2985,A,43.061083676250846,68.65731015124322,2.1530541838125425,1.078466505931908,A,844.7637919452973,Correct,sub_011_day_13_data.csv,1,300,119.0,Training at home,,,,,,,,,,,,,
11,13,2986,A,65.18611355604176,85.28005424211192,3.2593056778020877,1.3395759595237895,A,622.2147080115974,Correct,sub_011_day_13_data.csv,1,300,119.0,Training at home,,,,,,,,,,,,,
11,13,2987,A,13.945356590680898,32.190649258645976,0.697267829534045,0.5056495361262395,A,587.8831669688225,Correct,sub_011_day_13_data.csv,1,300,119.0,Training at home,,,,,,,,,,,,,
11,13,2988,B,68.35526327020648,45.90853799595316,3.417763163510324,0.7211296285256716,B,1802.4934999994,Correct,sub_011_day_13_data.csv,1,300,119.0,Training at home,,,,,,,,,,,,,
11,13,2989,A,23.195396888038992,38.28758849653505,1.1597698444019495,0.601420033721918,A,487.76079196250066,Correct,sub_011_day_13_data.csv,1,300,119.0,Training at home,,,,,,,,,,,,,
11,13,2990,B,57.293802267365685,46.54173324163507,2.8646901133682845,0.731075836186283,A,766.6283340076916,Incorrect,sub_011_day_13_data.csv,0,300,119.0,Training at home,,,,,,,,,,,,,
11,13,2991,B,85.13402554926893,65.61752799430245,4.2567012774634465,1.030717719468116,B,558.8382499990985,Correct,sub_011_day_13_data.csv,1,300,119.0,Training at home,,,,,,,,,,,,,
11,13,2992,A,41.97286642074093,68.12058713100414,2.0986433210370463,1.07003568044493,A,791.6289999848232,Correct,sub_011_day_13_data.csv,1,300,119.0,Training at home,,,,,,,,,,,,,
11,13,2993,B,53.736717706123365,31.316791961751335,2.686835885306168,0.4919230178051893,B,623.1741670053452,Correct,sub_011_day_13_data.csv,1,300,119.0,Training at home,,,,,,,,,,,,,
11,13,2994,B,47.66829841122052,19.327911632728885,2.3834149205610258,0.3036021259730688,B,442.4461669987067,Correct,sub_011_day_13_data.csv,1,300,119.0,Training at home,,,,,,,,,,,,,
11,13,2995,A,22.043367460464236,37.67264089097575,1.102168373023212,0.5917604593220793,A,503.3928329939954,Correct,sub_011_day_13_data.csv,1,300,119.0,Training at home,,,,,,,,,,,,,
11,13,2996,B,74.01333259771245,48.958900668872936,3.700666629885623,0.7690446133458181,B,447.6659579668194,Correct,sub_011_day_13_data.csv,1,300,119.0,Training at home,,,,,,,,,,,,,
11,13,2997,B,41.32841963371274,21.77325327885734,2.066420981685637,0.3420134627280404,B,573.7040829844773,Correct,sub_011_day_13_data.csv,1,300,119.0,Training at home,,,,,,,,,,,,,
11,13,2998,A,17.619320041684908,46.47307115351997,0.8809660020842455,0.7299972946282705,A,520.2332920162007,Correct,sub_011_day_13_data.csv,1,300,119.0,Training at home,,,,,,,,,,,,,
11,13,2999,A,41.664545858004715,73.91121275721376,2.0832272929002356,1.160994615079875,A,501.0077089536935,Correct,sub_011_day_13_data.csv,1,300,119.0,Training at home,,,,,,,,,,,,,
