subject,day,trial,cat,x,y,xt,yt,resp,rt,fb,f_name,acc,n_trials,block,session_type,ns_left_digit,ns_right_digit,ns_left_size,ns_right_size,ns_congruent,ns_cue,ns_correct_side,ns_resp,ns_rt,ns_fb,acc_stroop,acc_stroop_mean,resp_key
11,15,3300,B,78.94565525512172,54.91708191864175,3.9472827627560862,0.8626355055609688,B,759.6180419786833,Correct,sub_011_day_15_data.csv,1,300,132.0,Training at home,,,,,,,,,,,,,
11,15,3301,B,31.86716290361216,16.675806702273658,1.593358145180608,0.2619429591427318,B,1241.0569580388255,Correct,sub_011_day_15_data.csv,1,300,132.0,Training at home,,,,,,,,,,,,,
11,15,3302,B,80.10750953157303,62.38407819660665,4.005375476578652,0.9799268088171532,B,1262.622874986846,Correct,sub_011_day_15_data.csv,1,300,132.0,Training at home,,,,,,,,,,,,,
11,15,3303,A,17.62479437829899,45.316185709323506,0.8812397189149495,0.7118249805656074,A,552.3580000153743,Correct,sub_011_day_15_data.csv,1,300,132.0,Training at home,,,,,,,,,,,,,
11,15,3304,B,58.090935087161625,39.174335851831906,2.904546754358081,0.6153490286068718,B,2446.4002920431085,Correct,sub_011_day_15_data.csv,1,300,132.0,Training at home,,,,,,,,,,,,,
11,15,3305,A,37.89965911123679,49.02271317444654,1.8949829555618392,0.7700469778394039,A,764.399790961761,Correct,sub_011_day_15_data.csv,1,300,132.0,Training at home,,,,,,,,,,,,,
11,15,3306,A,41.474303067053654,54.819638346471,2.0737151533526825,0.8611048655086131,A,2003.8250419893304,Correct,sub_011_day_15_data.csv,1,300,132.0,Training at home,,,,,,,,,,,,,
11,15,3307,A,29.265810076011768,43.34941184963871,1.4632905038005886,0.6809309690213166,A,619.5937920128927,Correct,sub_011_day_15_data.csv,1,300,132.0,Training at home,,,,,,,,,,,,,
11,15,3308,A,36.7342682097842,44.786799949372806,1.83671341048921,0.7035094084937267,A,1975.000959006138,Correct,sub_011_day_15_data.csv,1,300,132.0,Training at home,,,,,,,,,,,,,
11,15,3309,B,71.96524852296656,42.63442922592958,3.5982624261483283,0.6697000482308717,B,518.0293750017881,Correct,sub_011_day_15_data.csv,1,300,132.0,Training at home,,,,,,,,,,,,,
11,15,3310,A,46.2319052155907,66.8133915181109,2.311595260779535,1.049502299773579,A,487.86908300826326,Correct,sub_011_day_15_data.csv,1,300,132.0,Training at home,,,,,,,,,,,,,
11,15,3311,A,23.864994687473057,36.45175626178419,1.1932497343736528,0.5725828484123348,A,825.6357079953887,Correct,sub_011_day_15_data.csv,1,300,132.0,Training at home,,,,,,,,,,,,,
11,15,3312,B,54.10518650456385,25.90487509504332,2.705259325228192,0.4069128264537464,B,489.295375009533,Correct,sub_011_day_15_data.csv,1,300,132.0,Training at home,,,,,,,,,,,,,
11,15,3313,B,75.69843215385583,51.93333735622083,3.784921607692792,0.8157669555735185,B,511.4700000267476,Correct,sub_011_day_15_data.csv,1,300,132.0,Training at home,,,,,,,,,,,,,
11,15,3314,B,33.730520351897226,10.970587613066296,1.686526017594861,0.1723255872538612,B,518.3024580474012,Correct,sub_011_day_15_data.csv,1,300,132.0,Training at home,,,,,,,,,,,,,
11,15,3315,B,69.19044998851783,60.041400272750344,3.459522499425891,0.9431281100405834,B,1004.271375015378,Correct,sub_011_day_15_data.csv,1,300,132.0,Training at home,,,,,,,,,,,,,
11,15,3316,A,21.02927883909549,43.14632548905571,1.0514639419547742,0.6777408959290573,A,477.1388749941252,Correct,sub_011_day_15_data.csv,1,300,132.0,Training at home,,,,,,,,,,,,,
11,15,3317,B,87.75717511011399,61.05229320940924,4.387858755505699,0.9590071791574504,B,802.0957499975339,Correct,sub_011_day_15_data.csv,1,300,132.0,Training at home,,,,,,,,,,,,,
11,15,3318,B,89.19771851410476,68.69130535086335,4.459885925705238,1.0790005012788275,B,617.380041978322,Correct,sub_011_day_15_data.csv,1,300,132.0,Training at home,,,,,,,,,,,,,
11,15,3319,B,52.75535782519895,30.923812341626476,2.6377678912599474,0.4857501083672155,B,652.2237919853069,Correct,sub_011_day_15_data.csv,1,300,132.0,Training at home,,,,,,,,,,,,,
11,15,3320,A,37.926139631763256,50.81469811504348,1.8963069815881628,0.7981954114630184,A,599.2597910226323,Correct,sub_011_day_15_data.csv,1,300,132.0,Training at home,,,,,,,,,,,,,
11,15,3321,B,54.294927661587536,35.45241421141056,2.7147463830793765,0.5568852201929491,B,737.5475000008009,Correct,sub_011_day_15_data.csv,1,300,132.0,Training at home,,,,,,,,,,,,,
11,15,3322,B,44.77650386820616,23.143532346515546,2.238825193410308,0.3635377559896549,B,521.3452909956686,Correct,sub_011_day_15_data.csv,1,300,132.0,Training at home,,,,,,,,,,,,,
11,15,3323,A,56.42686251367628,70.18634469997816,2.821343125683814,1.1024845244588617,A,614.3053749692626,Correct,sub_011_day_15_data.csv,1,300,132.0,Training at home,,,,,,,,,,,,,
11,15,3324,B,66.91114454282635,43.25920154414777,3.3455572271413176,0.6795139488562743,B,572.3254170152359,Correct,sub_011_day_15_data.csv,1,300,132.0,Training at home,,,,,,,,,,,,,
11,15,3325,A,30.581476397726657,39.53857479862443,1.5290738198863325,0.6210704806038453,A,744.8157090111636,Correct,sub_011_day_15_data.csv,1,300,133.0,Training at home,,,,,,,,,,,,,
11,15,3326,B,79.71090159579518,59.14857689284775,3.985545079789759,0.9291036731843074,B,569.7837089537643,Correct,sub_011_day_15_data.csv,1,300,133.0,Training at home,,,,,,,,,,,,,
11,15,3327,A,48.13992379760461,73.41356102946024,2.4069961898802306,1.153177520020091,A,522.6885000010952,Correct,sub_011_day_15_data.csv,1,300,133.0,Training at home,,,,,,,,,,,,,
11,15,3328,A,43.055709562409056,72.3348868420989,2.1527854781204527,1.1362337455069345,A,537.90333395591,Correct,sub_011_day_15_data.csv,1,300,133.0,Training at home,,,,,,,,,,,,,
11,15,3329,B,50.584892558441126,38.22747871114451,2.5292446279220564,0.600475831420959,A,2390.824500005692,Incorrect,sub_011_day_15_data.csv,0,300,133.0,Training at home,,,,,,,,,,,,,
11,15,3330,B,68.38570508148287,38.39340714499707,3.4192852540741434,0.6030822291650234,B,433.0133330076933,Correct,sub_011_day_15_data.csv,1,300,133.0,Training at home,,,,,,,,,,,,,
11,15,3331,B,71.04435361000742,57.305060995114786,3.552217680500371,0.900145793178838,B,1199.681124999188,Correct,sub_011_day_15_data.csv,1,300,133.0,Training at home,,,,,,,,,,,,,
11,15,3332,A,54.59247327576743,74.43938246297117,2.7296236637883715,1.1692910854171554,A,577.2183329681866,Correct,sub_011_day_15_data.csv,1,300,133.0,Training at home,,,,,,,,,,,,,
11,15,3333,A,16.80921199162932,44.46382916883444,0.840460599581466,0.6984361953364091,A,1005.399541987572,Correct,sub_011_day_15_data.csv,1,300,133.0,Training at home,,,,,,,,,,,,,
11,15,3334,A,45.72393107505311,66.83640759784132,2.2861965537526556,1.0498638355085568,A,743.0733750225045,Correct,sub_011_day_15_data.csv,1,300,133.0,Training at home,,,,,,,,,,,,,
11,15,3335,B,47.59289017194287,23.76461886453832,2.379644508597144,0.373293760200975,B,472.2844579955563,Correct,sub_011_day_15_data.csv,1,300,133.0,Training at home,,,,,,,,,,,,,
11,15,3336,B,51.639652804604246,37.16704106083967,2.5819826402302124,0.5838185157620206,B,458.1517920014449,Correct,sub_011_day_15_data.csv,1,300,133.0,Training at home,,,,,,,,,,,,,
11,15,3337,A,31.94026023051272,64.26853933026548,1.5970130115256358,1.0095278550845437,A,495.9008329897188,Correct,sub_011_day_15_data.csv,1,300,133.0,Training at home,,,,,,,,,,,,,
11,15,3338,A,50.314888110104725,74.42721952862873,2.5157444055052363,1.169100030491274,A,827.8873750241473,Correct,sub_011_day_15_data.csv,1,300,133.0,Training at home,,,,,,,,,,,,,
11,15,3339,A,47.152302534105424,67.1766847875198,2.357615126705271,1.0552088971049471,A,569.3024579668418,Correct,sub_011_day_15_data.csv,1,300,133.0,Training at home,,,,,,,,,,,,,
11,15,3340,A,37.65485792078113,61.31579673126271,1.8827428960390569,0.9631462827997,A,558.0775830312632,Correct,sub_011_day_15_data.csv,1,300,133.0,Training at home,,,,,,,,,,,,,
11,15,3341,B,74.16928699207506,53.248336473255215,3.708464349603753,0.8364229134012799,B,526.1936250026338,Correct,sub_011_day_15_data.csv,1,300,133.0,Training at home,,,,,,,,,,,,,
11,15,3342,B,78.73326217593461,60.07643203009464,3.9366631087967305,0.9436783875981593,B,596.625208039768,Correct,sub_011_day_15_data.csv,1,300,133.0,Training at home,,,,,,,,,,,,,
11,15,3343,B,77.20733408809345,50.942895114200674,3.860366704404672,0.8002091252168411,B,439.64362499536946,Correct,sub_011_day_15_data.csv,1,300,133.0,Training at home,,,,,,,,,,,,,
11,15,3344,B,79.43622398934403,56.33192559384291,3.9718111994672016,0.8848598180409186,B,482.6497919857502,Correct,sub_011_day_15_data.csv,1,300,133.0,Training at home,,,,,,,,,,,,,
11,15,3345,A,14.283079428705932,34.74580012549512,0.7141539714352966,0.5457857520867739,A,500.5930839688517,Correct,sub_011_day_15_data.csv,1,300,133.0,Training at home,,,,,,,,,,,,,
11,15,3346,B,50.168311520324266,24.88656005243761,2.5084155760162132,0.3909171711692961,B,571.256541996263,Correct,sub_011_day_15_data.csv,1,300,133.0,Training at home,,,,,,,,,,,,,
11,15,3347,B,65.90480003624128,43.72909351819472,3.295240001812064,0.6868949947245078,B,500.8570419740863,Correct,sub_011_day_15_data.csv,1,300,133.0,Training at home,,,,,,,,,,,,,
11,15,3348,A,26.662699258681823,40.24178928914726,1.3331349629340912,0.6321165479904673,A,675.2712079905905,Correct,sub_011_day_15_data.csv,1,300,133.0,Training at home,,,,,,,,,,,,,
11,15,3349,A,21.844118793444697,52.74087070093762,1.0922059396722348,0.8284516596899739,A,463.0310829961672,Correct,sub_011_day_15_data.csv,1,300,133.0,Training at home,,,,,,,,,,,,,
11,15,3350,B,80.05118058161615,49.049656624026184,4.002559029080808,0.770470204555713,B,634.7800829680637,Correct,sub_011_day_15_data.csv,1,300,134.0,Training at home,,,,,,,,,,,,,
11,15,3351,A,22.26626582405736,39.34037954722155,1.113313291202868,0.6179572368749269,A,404.2742080055177,Correct,sub_011_day_15_data.csv,1,300,134.0,Training at home,,,,,,,,,,,,,
11,15,3352,A,42.75127748917157,64.15665342345524,2.137563874458578,1.0077703553701671,A,511.8835000321269,Correct,sub_011_day_15_data.csv,1,300,134.0,Training at home,,,,,,,,,,,,,
11,15,3353,B,36.79782497112181,14.828670813393096,1.8398912485560908,0.2329282164492856,B,483.8902910123579,Correct,sub_011_day_15_data.csv,1,300,134.0,Training at home,,,,,,,,,,,,,
11,15,3354,B,75.47160151842391,59.63202993964252,3.773580075921195,0.9366977358851376,B,790.7291669980623,Correct,sub_011_day_15_data.csv,1,300,134.0,Training at home,,,,,,,,,,,,,
11,15,3355,A,41.235710993138206,73.43631351110514,2.06178554965691,1.153534915166024,A,667.6566249807365,Correct,sub_011_day_15_data.csv,1,300,134.0,Training at home,,,,,,,,,,,,,
11,15,3356,B,52.37970641490893,43.454662853927466,2.6189853207454465,0.682584247930599,B,696.6937909601256,Correct,sub_011_day_15_data.csv,1,300,134.0,Training at home,,,,,,,,,,,,,
11,15,3357,A,52.1690162024988,81.36988289477979,2.60845081012494,1.27815513162851,A,527.1630419883877,Correct,sub_011_day_15_data.csv,1,300,134.0,Training at home,,,,,,,,,,,,,
11,15,3358,A,63.48951583809287,78.52009689419509,3.1744757919046434,1.2333907978098102,A,652.1445839898661,Correct,sub_011_day_15_data.csv,1,300,134.0,Training at home,,,,,,,,,,,,,
11,15,3359,A,42.22799063158848,61.78778732677082,2.111399531579424,0.9705602937367588,A,495.3068749746308,Correct,sub_011_day_15_data.csv,1,300,134.0,Training at home,,,,,,,,,,,,,
11,15,3360,A,50.610737141364474,71.71378454432187,2.5305368570682236,1.126477493427814,A,509.1209589736536,Correct,sub_011_day_15_data.csv,1,300,134.0,Training at home,,,,,,,,,,,,,
11,15,3361,B,36.46946202196108,18.809950749234932,1.8234731010980536,0.2954660154409114,B,547.8855409892276,Correct,sub_011_day_15_data.csv,1,300,134.0,Training at home,,,,,,,,,,,,,
11,15,3362,B,74.14505248074532,62.20326282014464,3.7072526240372663,0.9770865675254076,B,721.2380830314942,Correct,sub_011_day_15_data.csv,1,300,134.0,Training at home,,,,,,,,,,,,,
11,15,3363,B,36.08760191869988,11.39254601849363,1.804380095934994,0.1789536943869161,B,678.1699160346761,Correct,sub_011_day_15_data.csv,1,300,134.0,Training at home,,,,,,,,,,,,,
11,15,3364,A,51.77560770871936,80.857553525999,2.588780385435968,1.2701074807226096,A,504.8693330027163,Correct,sub_011_day_15_data.csv,1,300,134.0,Training at home,,,,,,,,,,,,,
11,15,3365,A,59.80767512519981,82.273909102838,2.99038375625999,1.2923555420979511,A,637.2667909599841,Correct,sub_011_day_15_data.csv,1,300,134.0,Training at home,,,,,,,,,,,,,
11,15,3366,A,27.42036145873443,51.04666795342834,1.3710180729367216,0.80183918516364,A,632.3082079761662,Correct,sub_011_day_15_data.csv,1,300,134.0,Training at home,,,,,,,,,,,,,
11,15,3367,B,76.81989300211335,47.127500386024515,3.8409946501056673,0.7402770449739237,B,523.6891669919714,Correct,sub_011_day_15_data.csv,1,300,134.0,Training at home,,,,,,,,,,,,,
11,15,3368,A,12.826442880483928,38.923693757586186,0.6413221440241963,0.6114119517970582,A,473.274624964688,Correct,sub_011_day_15_data.csv,1,300,134.0,Training at home,,,,,,,,,,,,,
11,15,3369,A,23.549003300372604,38.75837215697503,1.1774501650186302,0.6088150861672597,A,421.23704199912027,Correct,sub_011_day_15_data.csv,1,300,134.0,Training at home,,,,,,,,,,,,,
11,15,3370,B,33.68911456725462,20.87133658230776,1.684455728362731,0.3278461883878898,B,482.0617499644868,Correct,sub_011_day_15_data.csv,1,300,134.0,Training at home,,,,,,,,,,,,,
11,15,3371,A,36.07494022274565,56.76056860892036,1.8037470111372824,0.8915929267768182,A,505.2703330293298,Correct,sub_011_day_15_data.csv,1,300,134.0,Training at home,,,,,,,,,,,,,
11,15,3372,A,46.45460086790945,66.28217059120587,2.3227300433954725,1.041157900966589,A,589.1919169807807,Correct,sub_011_day_15_data.csv,1,300,134.0,Training at home,,,,,,,,,,,,,
11,15,3373,B,51.66916088636766,24.18408867506384,2.583458044318383,0.3798827765767234,B,435.67149998852983,Correct,sub_011_day_15_data.csv,1,300,134.0,Training at home,,,,,,,,,,,,,
11,15,3374,B,84.45952514366023,64.82316372755383,4.222976257183012,1.0182398747446575,B,522.839458019007,Correct,sub_011_day_15_data.csv,1,300,134.0,Training at home,,,,,,,,,,,,,
11,15,3375,B,74.39132066707002,51.4974192369341,3.719566033353501,0.8089195697679293,B,428.5839169751853,Correct,sub_011_day_15_data.csv,1,300,135.0,Training at home,,,,,,,,,,,,,
11,15,3376,B,79.69522340536221,53.72536699267332,3.9847611702681105,0.8439160912779902,B,699.7496249969117,Correct,sub_011_day_15_data.csv,1,300,135.0,Training at home,,,,,,,,,,,,,
11,15,3377,B,75.87735900206175,44.55824035098365,3.793867950103088,0.6999192027176926,B,457.8394170384854,Correct,sub_011_day_15_data.csv,1,300,135.0,Training at home,,,,,,,,,,,,,
11,15,3378,B,45.69692636633286,28.23888279784776,2.284846318316643,0.4435753337165086,B,543.6485420214012,Correct,sub_011_day_15_data.csv,1,300,135.0,Training at home,,,,,,,,,,,,,
11,15,3379,A,29.0608872732949,60.056950256576116,1.453044363664745,0.9433723686153358,A,490.91475002933294,Correct,sub_011_day_15_data.csv,1,300,135.0,Training at home,,,,,,,,,,,,,
11,15,3380,A,17.027269849605343,33.9488213573254,0.8513634924802672,0.5332668388710288,A,752.4704580428079,Correct,sub_011_day_15_data.csv,1,300,135.0,Training at home,,,,,,,,,,,,,
11,15,3381,B,70.3820714058053,60.990667537140894,3.519103570290265,0.9580391653610966,B,465.2772499830462,Correct,sub_011_day_15_data.csv,1,300,135.0,Training at home,,,,,,,,,,,,,
11,15,3382,A,27.92164445544951,48.54693262633493,1.3960822227724754,0.7625734344660624,A,511.45024999277666,Correct,sub_011_day_15_data.csv,1,300,135.0,Training at home,,,,,,,,,,,,,
11,15,3383,A,39.08084636877124,67.32275697342415,1.954042318438562,1.0575033936356018,A,461.1897080321796,Correct,sub_011_day_15_data.csv,1,300,135.0,Training at home,,,,,,,,,,,,,
11,15,3384,B,85.32221818439649,58.82413494211716,4.266110909219824,0.9240073509396496,B,512.259625014849,Correct,sub_011_day_15_data.csv,1,300,135.0,Training at home,,,,,,,,,,,,,
11,15,3385,A,19.20970465170832,34.44644738674986,0.960485232585416,0.5410835302624034,A,433.4292919957079,Correct,sub_011_day_15_data.csv,1,300,135.0,Training at home,,,,,,,,,,,,,
11,15,3386,B,49.298937851466896,23.496046976891847,2.464946892573345,0.3690750428550204,B,520.2084589982405,Correct,sub_011_day_15_data.csv,1,300,135.0,Training at home,,,,,,,,,,,,,
11,15,3387,A,23.795257449863925,54.74861492521402,1.1897628724931963,0.8599892322163445,A,494.5030840463005,Correct,sub_011_day_15_data.csv,1,300,135.0,Training at home,,,,,,,,,,,,,
11,15,3388,A,12.958940358999056,41.312661337454784,0.6479470179499528,0.6489377667899551,A,539.6830830140971,Correct,sub_011_day_15_data.csv,1,300,135.0,Training at home,,,,,,,,,,,,,
11,15,3389,A,31.25023140015992,43.03355810145996,1.562511570007996,0.6759695499468807,A,625.7736249826849,Correct,sub_011_day_15_data.csv,1,300,135.0,Training at home,,,,,,,,,,,,,
11,15,3390,A,58.07115565283739,66.70590955920544,2.9035577826418693,1.0478139771111248,A,659.8057079827413,Correct,sub_011_day_15_data.csv,1,300,135.0,Training at home,,,,,,,,,,,,,
11,15,3391,B,56.586373638219854,33.95346691381658,2.829318681910993,0.5333398111017513,B,483.82308398140594,Correct,sub_011_day_15_data.csv,1,300,135.0,Training at home,,,,,,,,,,,,,
11,15,3392,A,43.50264161883588,68.66460990711556,2.1751320809417938,1.078581170229016,A,540.5977499904111,Correct,sub_011_day_15_data.csv,1,300,135.0,Training at home,,,,,,,,,,,,,
11,15,3393,B,50.84455877804223,30.843236724925468,2.542227938902111,0.4844844295397838,B,492.5901659880765,Correct,sub_011_day_15_data.csv,1,300,135.0,Training at home,,,,,,,,,,,,,
11,15,3394,B,58.83045137608462,40.79575922316362,2.941522568804231,0.6408182873655445,B,426.02054099552333,Correct,sub_011_day_15_data.csv,1,300,135.0,Training at home,,,,,,,,,,,,,
11,15,3395,A,55.42756596723652,70.43588939281953,2.7713782983618263,1.1064043633277254,A,542.0684170094319,Correct,sub_011_day_15_data.csv,1,300,135.0,Training at home,,,,,,,,,,,,,
11,15,3396,A,35.20812398803997,65.8033103657277,1.7604061994019986,1.033635982134296,A,431.9748340058141,Correct,sub_011_day_15_data.csv,1,300,135.0,Training at home,,,,,,,,,,,,,
11,15,3397,A,30.14505800203244,58.38594110755409,1.5072529001016222,0.9171242182820912,A,477.1054169978015,Correct,sub_011_day_15_data.csv,1,300,135.0,Training at home,,,,,,,,,,,,,
11,15,3398,B,42.55328552356952,27.274581871318254,2.127664276178476,0.428428130183334,B,576.9519169698469,Correct,sub_011_day_15_data.csv,1,300,135.0,Training at home,,,,,,,,,,,,,
11,15,3399,A,38.81596526079916,65.43424402224758,1.9407982630399576,1.027838701567474,A,534.6454579848796,Correct,sub_011_day_15_data.csv,1,300,135.0,Training at home,,,,,,,,,,,,,
11,15,3400,B,34.07852470854044,11.007946103407672,1.7039262354270222,0.1729124130478896,B,655.1928750122897,Correct,sub_011_day_15_data.csv,1,300,136.0,Training at home,,,,,,,,,,,,,
11,15,3401,B,80.30339883947806,55.65887634908858,4.0151699419739035,0.8742875852267968,B,511.81512500625104,Correct,sub_011_day_15_data.csv,1,300,136.0,Training at home,,,,,,,,,,,,,
11,15,3402,B,52.07734177863547,34.40534651853319,2.603867088931773,0.5404379193341752,B,452.1534170489758,Correct,sub_011_day_15_data.csv,1,300,136.0,Training at home,,,,,,,,,,,,,
11,15,3403,A,68.73689822267373,88.77490644945365,3.4368449111336865,1.3944729696236238,A,449.56862495746464,Correct,sub_011_day_15_data.csv,1,300,136.0,Training at home,,,,,,,,,,,,,
11,15,3404,B,70.39083876094934,57.78147715897586,3.519541938047467,0.9076293207810248,B,583.8937080116011,Correct,sub_011_day_15_data.csv,1,300,136.0,Training at home,,,,,,,,,,,,,
11,15,3405,B,84.85491058699128,59.99130239927091,4.242745529349564,0.942341174484166,B,411.243167007342,Correct,sub_011_day_15_data.csv,1,300,136.0,Training at home,,,,,,,,,,,,,
11,15,3406,B,62.6654339131231,55.286678161713496,3.133271695656155,0.8684411097711119,B,758.4630000055768,Correct,sub_011_day_15_data.csv,1,300,136.0,Training at home,,,,,,,,,,,,,
11,15,3407,A,36.78547733952371,44.7970696224568,1.8392738669761857,0.7036707241413039,A,838.9024579664692,Correct,sub_011_day_15_data.csv,1,300,136.0,Training at home,,,,,,,,,,,,,
11,15,3408,A,59.234157238401295,82.34600989296831,2.9617078619200647,1.2934880986609083,A,586.1932919942774,Correct,sub_011_day_15_data.csv,1,300,136.0,Training at home,,,,,,,,,,,,,
11,15,3409,A,47.2067344779005,75.47995676883569,2.360336723895025,1.185636388391247,A,599.6962909703143,Correct,sub_011_day_15_data.csv,1,300,136.0,Training at home,,,,,,,,,,,,,
11,15,3410,A,55.83951534535811,81.46045466292458,2.7919757672679055,1.2795778296356413,A,451.82212500367314,Correct,sub_011_day_15_data.csv,1,300,136.0,Training at home,,,,,,,,,,,,,
11,15,3411,A,58.576053258266086,73.7437696750867,2.9288026629133044,1.1583644252963508,A,665.2660829713568,Correct,sub_011_day_15_data.csv,1,300,136.0,Training at home,,,,,,,,,,,,,
11,15,3412,B,64.6021451239842,37.74213112211352,3.23010725619921,0.5928520093202727,B,677.6455829967745,Correct,sub_011_day_15_data.csv,1,300,136.0,Training at home,,,,,,,,,,,,,
11,15,3413,B,72.2800921011766,60.275515099453585,3.61400460505883,0.94680557713892,B,403.8750000181608,Correct,sub_011_day_15_data.csv,1,300,136.0,Training at home,,,,,,,,,,,,,
11,15,3414,A,63.68968992749461,86.25285133449678,3.1844844963747305,1.3548566205181385,A,601.4308750163764,Correct,sub_011_day_15_data.csv,1,300,136.0,Training at home,,,,,,,,,,,,,
11,15,3415,A,48.280840932448264,73.67949852850019,2.4140420466224133,1.157354856486581,A,951.0775840026326,Correct,sub_011_day_15_data.csv,1,300,136.0,Training at home,,,,,,,,,,,,,
11,15,3416,A,24.761862444879135,41.95761262083453,1.2380931222439568,0.6590686378589007,A,676.9838339532726,Correct,sub_011_day_15_data.csv,1,300,136.0,Training at home,,,,,,,,,,,,,
11,15,3417,B,56.69274468575361,36.73283519489297,2.8346372342876807,0.5769980259690018,B,453.17829097621143,Correct,sub_011_day_15_data.csv,1,300,136.0,Training at home,,,,,,,,,,,,,
11,15,3418,A,57.66336941321814,86.35753968487464,2.883168470660907,1.356501061280456,A,605.3032499621622,Correct,sub_011_day_15_data.csv,1,300,136.0,Training at home,,,,,,,,,,,,,
11,15,3419,A,49.4755237409573,63.50484905984816,2.473776187047865,0.9975318363687382,A,592.5668340059929,Correct,sub_011_day_15_data.csv,1,300,136.0,Training at home,,,,,,,,,,,,,
11,15,3420,B,77.9419748865755,55.9919405532005,3.897098744328775,0.8795193455108555,B,873.8956250017509,Correct,sub_011_day_15_data.csv,1,300,136.0,Training at home,,,,,,,,,,,,,
11,15,3421,B,63.073250895484954,53.16565780586529,3.1536625447742477,0.835124199930876,B,773.0796249816194,Correct,sub_011_day_15_data.csv,1,300,136.0,Training at home,,,,,,,,,,,,,
11,15,3422,A,52.635016635895205,78.42469874695924,2.63175083179476,1.231892287217199,A,680.6238330318592,Correct,sub_011_day_15_data.csv,1,300,136.0,Training at home,,,,,,,,,,,,,
11,15,3423,B,44.016543551898366,17.6042962559807,2.200827177594918,0.2765276389470363,B,463.4996249806136,Correct,sub_011_day_15_data.csv,1,300,136.0,Training at home,,,,,,,,,,,,,
11,15,3424,B,60.20057010889786,51.75618423017865,3.0100285054448928,0.8129842407768456,B,434.3382920487784,Correct,sub_011_day_15_data.csv,1,300,136.0,Training at home,,,,,,,,,,,,,
11,15,3425,A,59.08767644678869,78.41137677119968,2.9543838223394348,1.2316830261113112,A,596.900167001877,Correct,sub_011_day_15_data.csv,1,300,137.0,Training at home,,,,,,,,,,,,,
11,15,3426,A,59.69485744286183,83.19218010955302,2.9847428721430913,1.3067797093414537,A,774.092459003441,Correct,sub_011_day_15_data.csv,1,300,137.0,Training at home,,,,,,,,,,,,,
11,15,3427,A,36.04577904851563,64.3156037505725,1.8022889524257812,1.0102671412699535,A,502.4117500288412,Correct,sub_011_day_15_data.csv,1,300,137.0,Training at home,,,,,,,,,,,,,
11,15,3428,A,38.050022723532805,46.050683458006006,1.90250113617664,0.7233624442223033,A,759.6007499960251,Correct,sub_011_day_15_data.csv,1,300,137.0,Training at home,,,,,,,,,,,,,
11,15,3429,A,45.63259466964314,72.46039300479951,2.281629733482157,1.138205191700537,A,447.33908399939537,Correct,sub_011_day_15_data.csv,1,300,137.0,Training at home,,,,,,,,,,,,,
11,15,3430,A,40.90034960476896,48.294227626448055,2.045017480238448,0.7586039536102122,B,526.85216703685,Incorrect,sub_011_day_15_data.csv,0,300,137.0,Training at home,,,,,,,,,,,,,
11,15,3431,A,43.60346540300024,66.14815046383409,2.1801732701500116,1.039052717728667,A,468.1219169870019,Correct,sub_011_day_15_data.csv,1,300,137.0,Training at home,,,,,,,,,,,,,
11,15,3432,A,14.171628540201848,33.68898513827418,0.7085814270100924,0.5291853410864894,A,515.0921670137905,Correct,sub_011_day_15_data.csv,1,300,137.0,Training at home,,,,,,,,,,,,,
11,15,3433,B,50.52797316267659,28.87297062697419,2.526398658133829,0.4535355620450801,B,602.3081669700332,Correct,sub_011_day_15_data.csv,1,300,137.0,Training at home,,,,,,,,,,,,,
11,15,3434,B,40.10098371282407,30.360328519522277,2.0050491856412034,0.4768989251875192,B,488.43862500507385,Correct,sub_011_day_15_data.csv,1,300,137.0,Training at home,,,,,,,,,,,,,
11,15,3435,A,29.558328771140232,46.65359359445522,1.4779164385570116,0.7328329344995216,A,765.3539159800857,Correct,sub_011_day_15_data.csv,1,300,137.0,Training at home,,,,,,,,,,,,,
11,15,3436,A,52.14442027219214,80.8751479321922,2.6072210136096072,1.270383853008814,A,746.6716670314781,Correct,sub_011_day_15_data.csv,1,300,137.0,Training at home,,,,,,,,,,,,,
11,15,3437,A,24.3363504204396,37.28087163760304,1.21681752102198,0.585606562280589,A,549.9134159763344,Correct,sub_011_day_15_data.csv,1,300,137.0,Training at home,,,,,,,,,,,,,
11,15,3438,A,26.257236162312303,46.17133829119703,1.3128618081156151,0.7252576859101686,A,474.83712498797104,Correct,sub_011_day_15_data.csv,1,300,137.0,Training at home,,,,,,,,,,,,,
11,15,3439,B,58.88697805218957,44.019679910329145,2.9443489026094785,0.6914595150983212,A,931.8256659898908,Incorrect,sub_011_day_15_data.csv,0,300,137.0,Training at home,,,,,,,,,,,,,
11,15,3440,A,61.63847210647384,74.6842384979621,3.0819236053236923,1.1731372750207287,A,866.8550840229727,Correct,sub_011_day_15_data.csv,1,300,137.0,Training at home,,,,,,,,,,,,,
11,15,3441,A,51.76750480929259,81.73649108021488,2.58837524046463,1.2839137995390535,A,530.3345409920439,Correct,sub_011_day_15_data.csv,1,300,137.0,Training at home,,,,,,,,,,,,,
11,15,3442,A,27.417427778848083,52.66181141073088,1.370871388942404,0.8272097992634163,A,542.4352089758031,Correct,sub_011_day_15_data.csv,1,300,137.0,Training at home,,,,,,,,,,,,,
11,15,3443,A,34.92567648782524,47.32079517724786,1.746283824391262,0.743313312454346,A,516.8789579765871,Correct,sub_011_day_15_data.csv,1,300,137.0,Training at home,,,,,,,,,,,,,
11,15,3444,B,80.98175928356875,56.47619066737278,4.049087964178438,0.8871259285167737,B,495.6613749964162,Correct,sub_011_day_15_data.csv,1,300,137.0,Training at home,,,,,,,,,,,,,
11,15,3445,A,51.23119388479312,68.71621057549157,2.561559694239656,1.0793917116324678,A,500.7044160156511,Correct,sub_011_day_15_data.csv,1,300,137.0,Training at home,,,,,,,,,,,,,
11,15,3446,A,44.3232016963406,53.35124006134681,2.2161600848170298,0.838039319183163,A,568.7029580003582,Correct,sub_011_day_15_data.csv,1,300,137.0,Training at home,,,,,,,,,,,,,
11,15,3447,B,74.66724610354363,58.693018974434786,3.733362305177182,0.9219477861354533,B,710.0978749804199,Correct,sub_011_day_15_data.csv,1,300,137.0,Training at home,,,,,,,,,,,,,
11,15,3448,A,36.51140644819167,45.15459826525744,1.8255703224095836,0.709286770929656,A,571.0232089622878,Correct,sub_011_day_15_data.csv,1,300,137.0,Training at home,,,,,,,,,,,,,
11,15,3449,B,83.29099490649058,59.530350583864106,4.164549745324529,0.9351005602994616,B,491.925792011898,Correct,sub_011_day_15_data.csv,1,300,137.0,Training at home,,,,,,,,,,,,,
11,15,3450,B,79.02491228362935,56.5135229915349,3.951245614181467,0.8877123432934195,B,411.89770796336234,Correct,sub_011_day_15_data.csv,1,300,138.0,Training at home,,,,,,,,,,,,,
11,15,3451,B,32.4087484061305,16.166759676731722,1.6204374203065248,0.2539468671638604,B,564.4372079987079,Correct,sub_011_day_15_data.csv,1,300,138.0,Training at home,,,,,,,,,,,,,
11,15,3452,A,36.6363634319837,58.75070083595248,1.8318181715991853,0.9228538506974,A,654.7168330289423,Correct,sub_011_day_15_data.csv,1,300,138.0,Training at home,,,,,,,,,,,,,
11,15,3453,A,46.25938209024652,53.08324155160395,2.3129691045123257,0.8338296084362571,A,548.3191660023294,Correct,sub_011_day_15_data.csv,1,300,138.0,Training at home,,,,,,,,,,,,,
11,15,3454,B,83.33083440740228,55.964632072822766,4.166541720370114,0.8790903849041786,B,2011.823375010863,Correct,sub_011_day_15_data.csv,1,300,138.0,Training at home,,,,,,,,,,,,,
11,15,3455,A,36.48431282103037,45.89349953870952,1.8242156410515185,0.720893404991682,A,866.5487910038792,Correct,sub_011_day_15_data.csv,1,300,138.0,Training at home,,,,,,,,,,,,,
11,15,3456,A,30.20732682969396,42.830210558312096,1.510366341484698,0.6727753742084864,A,591.9170830165967,Correct,sub_011_day_15_data.csv,1,300,138.0,Training at home,,,,,,,,,,,,,
11,15,3457,B,42.01884038663556,16.249757827109665,2.100942019331778,0.2552505990613048,B,498.36979201063514,Correct,sub_011_day_15_data.csv,1,300,138.0,Training at home,,,,,,,,,,,,,
11,15,3458,A,41.03756783083382,64.95928103755946,2.0518783915416914,1.020378000450358,A,514.5208340254612,Correct,sub_011_day_15_data.csv,1,300,138.0,Training at home,,,,,,,,,,,,,
11,15,3459,B,69.33886620125622,42.8763142753987,3.466943310062811,0.6734995697029986,B,915.198375005275,Correct,sub_011_day_15_data.csv,1,300,138.0,Training at home,,,,,,,,,,,,,
11,15,3460,A,34.82949262977624,50.09915887981046,1.741474631488812,0.786955747439202,A,615.5456670094281,Correct,sub_011_day_15_data.csv,1,300,138.0,Training at home,,,,,,,,,,,,,
11,15,3461,B,88.67340763604037,63.96238205604476,4.433670381802018,1.004718747866869,B,791.2747079972178,Correct,sub_011_day_15_data.csv,1,300,138.0,Training at home,,,,,,,,,,,,,
11,15,3462,B,44.45857400702596,20.091465646718937,2.222928700351298,0.3155960043779195,B,460.1878329995088,Correct,sub_011_day_15_data.csv,1,300,138.0,Training at home,,,,,,,,,,,,,
11,15,3463,B,66.04867165007828,45.190143568751154,3.302433582503914,0.7098451152512832,B,551.3614999945275,Correct,sub_011_day_15_data.csv,1,300,138.0,Training at home,,,,,,,,,,,,,
11,15,3464,B,41.394760868744136,28.628039863824533,2.069738043437207,0.4496881986143344,B,519.6731250034645,Correct,sub_011_day_15_data.csv,1,300,138.0,Training at home,,,,,,,,,,,,,
11,15,3465,A,43.47939117943566,58.32411300536464,2.1739695589717827,0.9161530247239724,A,533.4978330065496,Correct,sub_011_day_15_data.csv,1,300,138.0,Training at home,,,,,,,,,,,,,
11,15,3466,B,41.30845058123325,32.84627663664923,2.0654225290616623,0.5159481068973765,B,571.6776669723913,Correct,sub_011_day_15_data.csv,1,300,138.0,Training at home,,,,,,,,,,,,,
11,15,3467,B,38.99873820547776,21.102232936416883,1.949936910273888,0.3314730998369392,B,394.9206249671988,Correct,sub_011_day_15_data.csv,1,300,138.0,Training at home,,,,,,,,,,,,,
11,15,3468,A,54.789693889958265,74.96804750386046,2.7394846944979134,1.1775953364604932,A,426.6824590158649,Correct,sub_011_day_15_data.csv,1,300,138.0,Training at home,,,,,,,,,,,,,
11,15,3469,B,82.30751133281086,51.88834506115518,4.115375566640543,0.8150602182552867,B,398.64050003234297,Correct,sub_011_day_15_data.csv,1,300,138.0,Training at home,,,,,,,,,,,,,
11,15,3470,B,77.85704724512539,55.62270769321859,3.8928523622562694,0.87371944930894,B,373.31566703505814,Correct,sub_011_day_15_data.csv,1,300,138.0,Training at home,,,,,,,,,,,,,
11,15,3471,B,53.79601477528948,39.43918125613846,2.6898007387644736,0.6195092104894043,B,359.5703750033863,Correct,sub_011_day_15_data.csv,1,300,138.0,Training at home,,,,,,,,,,,,,
11,15,3472,B,63.40907931607707,42.861634819632144,3.170453965803853,0.6732689853510241,B,467.1359169878997,Correct,sub_011_day_15_data.csv,1,300,138.0,Training at home,,,,,,,,,,,,,
11,15,3473,B,37.081179942560944,25.78811079241265,1.854058997128047,0.4050786970770162,B,436.0946250380948,Correct,sub_011_day_15_data.csv,1,300,138.0,Training at home,,,,,,,,,,,,,
11,15,3474,B,43.806005751065655,21.489064119348004,2.1903002875532827,0.3375494298493185,B,363.9019169495441,Correct,sub_011_day_15_data.csv,1,300,138.0,Training at home,,,,,,,,,,,,,
11,15,3475,A,50.07519118199867,61.79739407331142,2.5037595590999335,0.9707111961585428,A,861.6308749769814,Correct,sub_011_day_15_data.csv,1,300,139.0,Training at home,,,,,,,,,,,,,
11,15,3476,B,45.343571654825155,23.65489624643774,2.267178582741258,0.3715702413461879,B,627.3307079682127,Correct,sub_011_day_15_data.csv,1,300,139.0,Training at home,,,,,,,,,,,,,
11,15,3477,A,40.895024394903025,70.78181096318743,2.044751219745151,1.1118380866486557,A,497.37104203086346,Correct,sub_011_day_15_data.csv,1,300,139.0,Training at home,,,,,,,,,,,,,
11,15,3478,B,50.020322588757736,24.57709246441884,2.5010161294378865,0.3860560656640764,B,470.36262502660975,Correct,sub_011_day_15_data.csv,1,300,139.0,Training at home,,,,,,,,,,,,,
11,15,3479,B,58.82441859746601,32.65740025981795,2.9412209298733,0.5129812437079273,B,756.4465409959666,Correct,sub_011_day_15_data.csv,1,300,139.0,Training at home,,,,,,,,,,,,,
11,15,3480,B,54.93557347606868,36.26728226592033,2.746778673803434,0.5696851376614134,B,749.9257920426317,Correct,sub_011_day_15_data.csv,1,300,139.0,Training at home,,,,,,,,,,,,,
11,15,3481,A,27.48182288667394,40.56429911738576,1.374091144333697,0.6371825205259901,A,608.9872920420021,Correct,sub_011_day_15_data.csv,1,300,139.0,Training at home,,,,,,,,,,,,,
11,15,3482,B,58.96938506732528,45.087927987820805,2.948469253366264,0.7082395166606172,B,1115.2384169981815,Correct,sub_011_day_15_data.csv,1,300,139.0,Training at home,,,,,,,,,,,,,
11,15,3483,B,60.262292376918296,28.995850267435323,3.013114618845915,0.4554657509238222,B,733.1732499878854,Correct,sub_011_day_15_data.csv,1,300,139.0,Training at home,,,,,,,,,,,,,
11,15,3484,B,39.245652748012894,28.192674522498447,1.9622826374006448,0.4428494958246462,B,728.3689170144498,Correct,sub_011_day_15_data.csv,1,300,139.0,Training at home,,,,,,,,,,,,,
11,15,3485,B,37.98253636121967,22.01577512729503,1.8991268180609835,0.3458229870149747,B,771.381916012615,Correct,sub_011_day_15_data.csv,1,300,139.0,Training at home,,,,,,,,,,,,,
11,15,3486,A,45.00049017344924,56.72470434999271,2.250024508672462,0.8910295723149504,A,619.8107090312988,Correct,sub_011_day_15_data.csv,1,300,139.0,Training at home,,,,,,,,,,,,,
11,15,3487,B,42.4221588500414,31.08339564069102,2.12110794250207,0.4882568369670995,B,513.15741694998,Correct,sub_011_day_15_data.csv,1,300,139.0,Training at home,,,,,,,,,,,,,
11,15,3488,B,42.287678674643814,33.02691772195557,2.114383933732191,0.5187856104300508,B,682.2984160389751,Correct,sub_011_day_15_data.csv,1,300,139.0,Training at home,,,,,,,,,,,,,
11,15,3489,B,33.573314319908775,18.88318462216998,1.6786657159954388,0.2966163704269448,B,428.2208749791607,Correct,sub_011_day_15_data.csv,1,300,139.0,Training at home,,,,,,,,,,,,,
11,15,3490,B,54.58456129978713,35.38992059932255,2.729228064989357,0.5559035728297891,B,724.8432079795748,Correct,sub_011_day_15_data.csv,1,300,139.0,Training at home,,,,,,,,,,,,,
11,15,3491,B,77.6887529097405,63.24039217078808,3.8844376454870257,0.9933777572694265,B,1098.6538750003092,Correct,sub_011_day_15_data.csv,1,300,139.0,Training at home,,,,,,,,,,,,,
11,15,3492,A,24.24863941091121,47.676332064545434,1.2124319705455604,0.7488980728204172,A,655.9998749871738,Correct,sub_011_day_15_data.csv,1,300,139.0,Training at home,,,,,,,,,,,,,
11,15,3493,A,43.21695572620629,56.69823171921875,2.1608477863103146,0.8906137412031471,A,691.3212910294533,Correct,sub_011_day_15_data.csv,1,300,139.0,Training at home,,,,,,,,,,,,,
11,15,3494,A,49.99199515056881,69.97221730776636,2.4995997575284408,1.0991210192473369,A,567.2087920247577,Correct,sub_011_day_15_data.csv,1,300,139.0,Training at home,,,,,,,,,,,,,
11,15,3495,A,49.721599166842715,57.16035491847938,2.4860799583421356,0.8978727554424001,A,426.1469999910332,Correct,sub_011_day_15_data.csv,1,300,139.0,Training at home,,,,,,,,,,,,,
11,15,3496,A,33.47277176409801,41.70960968694872,1.6736385882049007,0.6551730168830788,A,475.27587501099333,Correct,sub_011_day_15_data.csv,1,300,139.0,Training at home,,,,,,,,,,,,,
11,15,3497,A,64.57078045000688,77.47650370146717,3.228539022500344,1.2169980742717583,A,599.2923749727197,Correct,sub_011_day_15_data.csv,1,300,139.0,Training at home,,,,,,,,,,,,,
11,15,3498,A,62.02224869717108,78.25094925683426,3.101112434858554,1.229163036608491,A,668.9147909637541,Correct,sub_011_day_15_data.csv,1,300,139.0,Training at home,,,,,,,,,,,,,
11,15,3499,B,87.42997035117614,60.48968228792963,4.371498517558807,0.950169707468702,B,870.0461250264198,Correct,sub_011_day_15_data.csv,1,300,139.0,Training at home,,,,,,,,,,,,,
11,15,3500,A,22.038277925051744,52.50164017674413,1.1019138962525872,0.8246938354033705,A,560.2466670097783,Correct,sub_011_day_15_data.csv,1,300,140.0,Training at home,,,,,,,,,,,,,
11,15,3501,A,60.85578607843969,74.92262073286031,3.0427893039219844,1.1768817744102416,A,599.5054590166546,Correct,sub_011_day_15_data.csv,1,300,140.0,Training at home,,,,,,,,,,,,,
11,15,3502,A,54.068833660813965,71.31777144252396,2.7034416830406984,1.120256934171146,A,751.1648749932647,Correct,sub_011_day_15_data.csv,1,300,140.0,Training at home,,,,,,,,,,,,,
11,15,3503,B,50.97537268357093,22.00679230073547,2.5487686341785465,0.3456818851053348,B,822.0968329696916,Correct,sub_011_day_15_data.csv,1,300,140.0,Training at home,,,,,,,,,,,,,
11,15,3504,A,67.95239204722981,85.94275588388035,3.39761960236149,1.3499856525702976,A,856.097541982308,Correct,sub_011_day_15_data.csv,1,300,140.0,Training at home,,,,,,,,,,,,,
11,15,3505,B,44.43153955355695,20.913729552303483,2.2215769776778473,0.3285120956034019,B,722.6842920063064,Correct,sub_011_day_15_data.csv,1,300,140.0,Training at home,,,,,,,,,,,,,
11,15,3506,B,84.40121694222827,60.56114936706034,4.220060847111414,0.9512923097225546,B,1091.0099580069073,Correct,sub_011_day_15_data.csv,1,300,140.0,Training at home,,,,,,,,,,,,,
11,15,3507,B,44.37122646734637,15.687464970324632,2.2185613233673185,0.2464181235210954,B,812.6688339980319,Correct,sub_011_day_15_data.csv,1,300,140.0,Training at home,,,,,,,,,,,,,
11,15,3508,A,43.59139460586833,52.430203560347564,2.1795697302934167,0.8235717116570265,A,2590.644499985501,Correct,sub_011_day_15_data.csv,1,300,140.0,Training at home,,,,,,,,,,,,,
11,15,3509,B,69.39339202358362,60.799202779026665,3.4696696011791808,0.9550316439735316,B,1034.0632500010545,Correct,sub_011_day_15_data.csv,1,300,140.0,Training at home,,,,,,,,,,,,,
11,15,3510,A,32.37843658510153,55.10507075952358,1.6189218292550764,0.865588427368325,A,505.62216696562245,Correct,sub_011_day_15_data.csv,1,300,140.0,Training at home,,,,,,,,,,,,,
11,15,3511,A,35.265250075644474,66.5125915756982,1.7632625037822236,1.0447773453271592,A,783.1659580115229,Correct,sub_011_day_15_data.csv,1,300,140.0,Training at home,,,,,,,,,,,,,
11,15,3512,B,30.789983567505775,12.753357313670662,1.539499178375289,0.200329268226167,B,947.858457977418,Correct,sub_011_day_15_data.csv,1,300,140.0,Training at home,,,,,,,,,,,,,
11,15,3513,A,31.925057514503383,55.60323834639973,1.5962528757251693,0.8734136255242583,A,1423.618208966218,Correct,sub_011_day_15_data.csv,1,300,140.0,Training at home,,,,,,,,,,,,,
11,15,3514,B,68.9666402896597,38.32338572333323,3.4483320144829848,0.6019823352455581,B,903.2623330131172,Correct,sub_011_day_15_data.csv,1,300,140.0,Training at home,,,,,,,,,,,,,
11,15,3515,A,55.66612821843893,68.78180288685832,2.7833064109219463,1.080422033250077,A,456.5117090241983,Correct,sub_011_day_15_data.csv,1,300,140.0,Training at home,,,,,,,,,,,,,
11,15,3516,A,54.06764498972045,78.15394888164204,2.7033822494860225,1.2276393582779943,A,467.2065419727005,Correct,sub_011_day_15_data.csv,1,300,140.0,Training at home,,,,,,,,,,,,,
11,15,3517,A,17.853928742722754,42.20773355539022,0.8926964371361378,0.6629975283114465,A,556.1108749825507,Correct,sub_011_day_15_data.csv,1,300,140.0,Training at home,,,,,,,,,,,,,
11,15,3518,B,65.2127037699088,46.909104265054246,3.26063518849544,0.7368464867278602,B,700.8076250203885,Correct,sub_011_day_15_data.csv,1,300,140.0,Training at home,,,,,,,,,,,,,
11,15,3519,B,55.21425494082704,44.01401089109503,2.7607127470413517,0.6913704663524266,B,466.4385840296746,Correct,sub_011_day_15_data.csv,1,300,140.0,Training at home,,,,,,,,,,,,,
11,15,3520,A,48.35375008005684,65.5651575582211,2.417687504002842,1.0298950865818235,A,517.3673339886591,Correct,sub_011_day_15_data.csv,1,300,140.0,Training at home,,,,,,,,,,,,,
11,15,3521,A,24.2720788416783,46.38899970911458,1.213603942083915,0.728676703467667,A,755.0052920123562,Correct,sub_011_day_15_data.csv,1,300,140.0,Training at home,,,,,,,,,,,,,
11,15,3522,A,25.74137378759172,47.66566486777505,1.287068689379586,0.7487305128853761,A,658.1184999668039,Correct,sub_011_day_15_data.csv,1,300,140.0,Training at home,,,,,,,,,,,,,
11,15,3523,B,80.89652733719718,56.18768610241331,4.044826366859859,0.8825941094077548,B,1042.6145420060493,Correct,sub_011_day_15_data.csv,1,300,140.0,Training at home,,,,,,,,,,,,,
11,15,3524,A,34.33114356381339,45.06720899217144,1.7165571781906694,0.7079140634380084,A,681.8777089938521,Correct,sub_011_day_15_data.csv,1,300,140.0,Training at home,,,,,,,,,,,,,
11,15,3525,A,36.33732235876132,60.34773300929117,1.816866117938066,0.947939973413937,A,958.411542000249,Correct,sub_011_day_15_data.csv,1,300,141.0,Training at home,,,,,,,,,,,,,
11,15,3526,A,33.247901527563386,51.14208524274471,1.6623950763781692,0.803337996439349,A,534.3017079867423,Correct,sub_011_day_15_data.csv,1,300,141.0,Training at home,,,,,,,,,,,,,
11,15,3527,A,52.987560253470136,68.77999626799954,2.6493780126735067,1.0803936549474038,A,830.6284159771167,Correct,sub_011_day_15_data.csv,1,300,141.0,Training at home,,,,,,,,,,,,,
11,15,3528,A,41.493302878418184,70.45506897107191,2.074665143920909,1.1067056354384084,A,397.72416703635827,Correct,sub_011_day_15_data.csv,1,300,141.0,Training at home,,,,,,,,,,,,,
11,15,3529,A,51.43691430159838,74.86336518422914,2.571845715079919,1.1759509904289207,A,524.1392080206424,Correct,sub_011_day_15_data.csv,1,300,141.0,Training at home,,,,,,,,,,,,,
11,15,3530,A,23.067480551976825,37.4880783533688,1.1533740275988411,0.5888613577607097,A,545.1721670106053,Correct,sub_011_day_15_data.csv,1,300,141.0,Training at home,,,,,,,,,,,,,
11,15,3531,B,44.77537446325005,23.346572897384345,2.238768723162502,0.3667271095046061,B,698.8891250221059,Correct,sub_011_day_15_data.csv,1,300,141.0,Training at home,,,,,,,,,,,,,
11,15,3532,B,36.636442077886315,20.230167679602214,1.831822103894316,0.31777473081564,B,855.5952919996344,Correct,sub_011_day_15_data.csv,1,300,141.0,Training at home,,,,,,,,,,,,,
11,15,3533,B,39.834287902091354,27.80499620915298,1.9917143951045675,0.4367598591188353,B,743.38058300782,Correct,sub_011_day_15_data.csv,1,300,141.0,Training at home,,,,,,,,,,,,,
11,15,3534,A,55.26215982109461,66.7196175617507,2.7631079910547305,1.0480293019115825,A,919.288749981206,Correct,sub_011_day_15_data.csv,1,300,141.0,Training at home,,,,,,,,,,,,,
11,15,3535,A,42.094323905458154,54.17024009765746,2.104716195272908,0.8509041416699795,A,858.3530000178143,Correct,sub_011_day_15_data.csv,1,300,141.0,Training at home,,,,,,,,,,,,,
11,15,3536,B,35.86410845947174,15.295045570272023,1.7932054229735868,0.2402540139994385,B,509.8184169619344,Correct,sub_011_day_15_data.csv,1,300,141.0,Training at home,,,,,,,,,,,,,
11,15,3537,B,73.04126395849524,53.62171330702835,3.6520631979247615,0.8422879029912915,B,1063.0565420142375,Correct,sub_011_day_15_data.csv,1,300,141.0,Training at home,,,,,,,,,,,,,
11,15,3538,B,44.78732995315211,18.6102552950873,2.2393664976576053,0.292329206582384,B,418.87787502491847,Correct,sub_011_day_15_data.csv,1,300,141.0,Training at home,,,,,,,,,,,,,
11,15,3539,A,63.45988420552481,74.96347098275855,3.17299421027624,1.1775234486351296,A,484.007290971931,Correct,sub_011_day_15_data.csv,1,300,141.0,Training at home,,,,,,,,,,,,,
11,15,3540,B,42.189833700954,19.926069763136507,2.1094916850477,0.3129979719139368,B,552.1009170333855,Correct,sub_011_day_15_data.csv,1,300,141.0,Training at home,,,,,,,,,,,,,
11,15,3541,B,67.73097071147315,49.63579205469756,3.3865485355736578,0.7796771983707423,B,908.621500013396,Correct,sub_011_day_15_data.csv,1,300,141.0,Training at home,,,,,,,,,,,,,
11,15,3542,A,27.30208373102642,42.91194678593389,1.365104186551321,0.6740592838696303,A,787.017458002083,Correct,sub_011_day_15_data.csv,1,300,141.0,Training at home,,,,,,,,,,,,,
11,15,3543,B,71.04698118456398,46.16579601994226,3.5523490592281983,0.7251706281168776,B,972.752915986348,Correct,sub_011_day_15_data.csv,1,300,141.0,Training at home,,,,,,,,,,,,,
11,15,3544,B,44.707562240264195,37.39911641548479,2.2353781120132097,0.5874639469081823,B,529.8676250386052,Correct,sub_011_day_15_data.csv,1,300,141.0,Training at home,,,,,,,,,,,,,
11,15,3545,A,67.59000330600979,87.88768097895709,3.37950016530049,1.380536464522675,A,860.4942089878023,Correct,sub_011_day_15_data.csv,1,300,141.0,Training at home,,,,,,,,,,,,,
11,15,3546,B,60.78026674362517,46.546718509153095,3.039013337181258,0.7311541445853371,B,567.885208001826,Correct,sub_011_day_15_data.csv,1,300,141.0,Training at home,,,,,,,,,,,,,
11,15,3547,A,42.13092244011549,49.00674548683929,2.106546122005774,0.7697961579889954,B,595.5190829699859,Incorrect,sub_011_day_15_data.csv,0,300,141.0,Training at home,,,,,,,,,,,,,
11,15,3548,B,44.44069924857759,33.076817881270614,2.222034962428879,0.5195694402996364,B,970.079375023488,Correct,sub_011_day_15_data.csv,1,300,141.0,Training at home,,,,,,,,,,,,,
11,15,3549,B,81.22013303839601,50.95688010058433,4.061006651919801,0.8004288008692582,B,737.3569579795003,Correct,sub_011_day_15_data.csv,1,300,141.0,Training at home,,,,,,,,,,,,,
11,15,3550,B,76.34996354775399,51.62006459098063,3.8174981773876993,0.8108460784842768,B,570.4863329883665,Correct,sub_011_day_15_data.csv,1,300,142.0,Training at home,,,,,,,,,,,,,
11,15,3551,A,24.188655498325815,54.43077032825185,1.2094327749162908,0.8549965409623467,A,734.4504999928176,Correct,sub_011_day_15_data.csv,1,300,142.0,Training at home,,,,,,,,,,,,,
11,15,3552,A,30.20757202311904,62.242531570834345,1.510378601155952,0.9777033996188198,A,601.0308329714462,Correct,sub_011_day_15_data.csv,1,300,142.0,Training at home,,,,,,,,,,,,,
11,15,3553,B,78.42773716473503,64.40156918573874,3.921386858236752,1.0116174831678582,B,1287.8234999952838,Correct,sub_011_day_15_data.csv,1,300,142.0,Training at home,,,,,,,,,,,,,
11,15,3554,B,76.24660781459279,50.321541578514704,3.812330390729639,0.7904489267018756,B,791.1286669550464,Correct,sub_011_day_15_data.csv,1,300,142.0,Training at home,,,,,,,,,,,,,
11,15,3555,B,40.1483594510673,23.895703908575793,2.007417972553365,0.375352839257693,B,551.4194589923136,Correct,sub_011_day_15_data.csv,1,300,142.0,Training at home,,,,,,,,,,,,,
11,15,3556,B,48.32150343940462,41.1115831287882,2.416075171970231,0.6457792376742354,B,1410.2766659925692,Correct,sub_011_day_15_data.csv,1,300,142.0,Training at home,,,,,,,,,,,,,
11,15,3557,B,66.50223844660356,33.621263496281315,3.3251119223301777,0.5281215720216204,B,625.0077500008047,Correct,sub_011_day_15_data.csv,1,300,142.0,Training at home,,,,,,,,,,,,,
11,15,3558,B,69.23796786163813,45.727028437483064,3.4618983930819063,0.7182784830484417,B,1118.130375049077,Correct,sub_011_day_15_data.csv,1,300,142.0,Training at home,,,,,,,,,,,,,
11,15,3559,B,69.88422215236359,52.1527184498713,3.494211107618179,0.8192129857342627,B,965.6719999620692,Correct,sub_011_day_15_data.csv,1,300,142.0,Training at home,,,,,,,,,,,,,
11,15,3560,B,54.53112563925187,25.24395101663231,2.7265562819625933,0.3965310553071632,B,468.2495419983752,Correct,sub_011_day_15_data.csv,1,300,142.0,Training at home,,,,,,,,,,,,,
11,15,3561,B,56.0162189940911,24.107485097700803,2.800810949704555,0.3786794903973112,B,875.0752090127207,Correct,sub_011_day_15_data.csv,1,300,142.0,Training at home,,,,,,,,,,,,,
11,15,3562,B,66.9784438312162,47.335303787518235,3.3489221915608094,0.7435412131715421,B,731.8887499859557,Correct,sub_011_day_15_data.csv,1,300,142.0,Training at home,,,,,,,,,,,,,
11,15,3563,A,50.449991415719325,60.35538807627076,2.5224995707859663,0.948060218924866,A,974.6770829660818,Correct,sub_011_day_15_data.csv,1,300,142.0,Training at home,,,,,,,,,,,,,
11,15,3564,A,22.23177625503278,34.140157171088916,1.1115888127516391,0.5362723348054692,A,931.187750014942,Correct,sub_011_day_15_data.csv,1,300,142.0,Training at home,,,,,,,,,,,,,
11,15,3565,A,32.57635741143393,42.60261708727364,1.6288178705716967,0.6692003443253894,A,984.422458044719,Correct,sub_011_day_15_data.csv,1,300,142.0,Training at home,,,,,,,,,,,,,
11,15,3566,A,63.78365486420401,88.3709713224502,3.1891827432102,1.3881279714860193,A,662.8890830324963,Correct,sub_011_day_15_data.csv,1,300,142.0,Training at home,,,,,,,,,,,,,
11,15,3567,B,64.49814615360509,41.331992159284574,3.2249073076802546,0.6492414146291967,B,1273.0162920197472,Correct,sub_011_day_15_data.csv,1,300,142.0,Training at home,,,,,,,,,,,,,
11,15,3568,B,64.66257700411555,56.26892375289353,3.233128850205777,0.8838701874374725,B,809.0583329903893,Correct,sub_011_day_15_data.csv,1,300,142.0,Training at home,,,,,,,,,,,,,
11,15,3569,A,47.50553459706898,70.91679250958313,2.375276729853449,1.1139583718212902,A,735.3005000040866,Correct,sub_011_day_15_data.csv,1,300,142.0,Training at home,,,,,,,,,,,,,
11,15,3570,B,45.7414897838171,30.802038999884157,2.287074489190855,0.4838372971881118,B,678.6655830219388,Correct,sub_011_day_15_data.csv,1,300,142.0,Training at home,,,,,,,,,,,,,
11,15,3571,A,10.843741698965967,32.494934521228515,0.5421870849482984,0.5104292378538643,A,616.9291249825619,Correct,sub_011_day_15_data.csv,1,300,142.0,Training at home,,,,,,,,,,,,,
11,15,3572,A,12.292866406684375,38.35973942889208,0.6146433203342188,0.6025533779171305,A,529.2401249753311,Correct,sub_011_day_15_data.csv,1,300,142.0,Training at home,,,,,,,,,,,,,
11,15,3573,B,57.29260329458206,30.561816365788943,2.864630164729103,0.4800638888756143,B,617.2913339687511,Correct,sub_011_day_15_data.csv,1,300,142.0,Training at home,,,,,,,,,,,,,
11,15,3574,B,36.27855927813699,16.601520832061798,1.8139279639068495,0.2607760794221163,B,845.7244170131162,Correct,sub_011_day_15_data.csv,1,300,142.0,Training at home,,,,,,,,,,,,,
11,15,3575,B,35.8200364772149,24.350793587639068,1.791001823860745,0.3825013712200417,B,519.9736249633133,Correct,sub_011_day_15_data.csv,1,300,143.0,Training at home,,,,,,,,,,,,,
11,15,3576,A,44.22812537372677,71.37691548931379,2.2114062686863383,1.1211859666856383,A,701.9672919996083,Correct,sub_011_day_15_data.csv,1,300,143.0,Training at home,,,,,,,,,,,,,
11,15,3577,A,32.3583970061805,54.470652608878005,1.617919850309025,0.8556230103614643,A,661.3262919709086,Correct,sub_011_day_15_data.csv,1,300,143.0,Training at home,,,,,,,,,,,,,
11,15,3578,A,47.440877838879715,54.7483302937588,2.372043891943986,0.859984761235901,A,556.576665956527,Correct,sub_011_day_15_data.csv,1,300,143.0,Training at home,,,,,,,,,,,,,
11,15,3579,B,46.57433363723142,23.610522040417763,2.3287166818615708,0.3708732129479817,B,799.614957999438,Correct,sub_011_day_15_data.csv,1,300,143.0,Training at home,,,,,,,,,,,,,
11,15,3580,A,50.24295506050771,63.86648908497009,2.5121477530253857,1.003212464599574,A,648.4541250392795,Correct,sub_011_day_15_data.csv,1,300,143.0,Training at home,,,,,,,,,,,,,
11,15,3581,B,62.093122488852195,49.054218517287666,3.1046561244426094,0.7705418626074967,B,1230.9886659495533,Correct,sub_011_day_15_data.csv,1,300,143.0,Training at home,,,,,,,,,,,,,
11,15,3582,A,31.83144664600884,58.21151590039972,1.591572332300442,0.914384353535106,A,848.1293329969049,Correct,sub_011_day_15_data.csv,1,300,143.0,Training at home,,,,,,,,,,,,,
11,15,3583,A,32.91696492417101,48.879646725556256,1.6458482462085504,0.7677996953153595,A,837.2990409843624,Correct,sub_011_day_15_data.csv,1,300,143.0,Training at home,,,,,,,,,,,,,
11,15,3584,A,16.407462424631095,44.22659985690837,0.8203731212315547,0.6947098060185938,A,728.5198749741539,Correct,sub_011_day_15_data.csv,1,300,143.0,Training at home,,,,,,,,,,,,,
11,15,3585,A,64.09353879656518,84.2540734783243,3.2046769398282593,1.3234598913725912,A,1149.0742079913616,Correct,sub_011_day_15_data.csv,1,300,143.0,Training at home,,,,,,,,,,,,,
11,15,3586,B,75.58500332751106,61.88898595505612,3.779250166375553,0.9721499180726312,B,2235.8359590289183,Correct,sub_011_day_15_data.csv,1,300,143.0,Training at home,,,,,,,,,,,,,
11,15,3587,B,51.026500491563986,35.72160987786473,2.5513250245781993,0.5611137358335021,B,1279.199167038314,Correct,sub_011_day_15_data.csv,1,300,143.0,Training at home,,,,,,,,,,,,,
11,15,3588,A,17.49072803163603,42.94207864967994,0.8745364015818015,0.674532594078548,A,645.1215000124648,Correct,sub_011_day_15_data.csv,1,300,143.0,Training at home,,,,,,,,,,,,,
11,15,3589,B,46.821497882603566,36.71346297495418,2.3410748941301787,0.5766937278497847,B,1425.437416008208,Correct,sub_011_day_15_data.csv,1,300,143.0,Training at home,,,,,,,,,,,,,
11,15,3590,A,26.04368093086465,47.57546140870183,1.3021840465432326,0.7473136002636116,A,648.1750410166569,Correct,sub_011_day_15_data.csv,1,300,143.0,Training at home,,,,,,,,,,,,,
11,15,3591,A,25.94184265058756,44.29355347410429,1.2970921325293778,0.6957615109781635,A,653.5617500194348,Correct,sub_011_day_15_data.csv,1,300,143.0,Training at home,,,,,,,,,,,,,
11,15,3592,B,76.91450106836577,64.09872575793511,3.845725053418288,1.0068604297279788,B,610.8184999902733,Correct,sub_011_day_15_data.csv,1,300,143.0,Training at home,,,,,,,,,,,,,
11,15,3593,A,31.413655813879465,40.25367180629207,1.570682790693973,0.6323031981333088,A,780.8323749923147,Correct,sub_011_day_15_data.csv,1,300,143.0,Training at home,,,,,,,,,,,,,
11,15,3594,B,48.30751763668601,26.788857047043564,2.4153758818343003,0.4207983824852961,B,445.0707079959102,Correct,sub_011_day_15_data.csv,1,300,143.0,Training at home,,,,,,,,,,,,,
11,15,3595,B,58.45979382584632,38.5875777768062,2.9229896912923157,0.6061322543171956,B,789.6060000057332,Correct,sub_011_day_15_data.csv,1,300,143.0,Training at home,,,,,,,,,,,,,
11,15,3596,B,44.697871212251954,20.825670576749022,2.2348935606125977,0.3271288684499792,B,529.7908339998685,Correct,sub_011_day_15_data.csv,1,300,143.0,Training at home,,,,,,,,,,,,,
11,15,3597,B,44.93043925412148,18.25977109516692,2.2465219627060744,0.2868238136440383,B,729.2530839913525,Correct,sub_011_day_15_data.csv,1,300,143.0,Training at home,,,,,,,,,,,,,
11,15,3598,B,60.079261319334215,43.232579499578186,3.003963065966711,0.6790957707580576,B,1065.6598749919794,Correct,sub_011_day_15_data.csv,1,300,143.0,Training at home,,,,,,,,,,,,,
11,15,3599,A,38.59901588802053,61.49142895420549,1.9299507944010263,0.9659051073063532,A,575.0247919932008,Correct,sub_011_day_15_data.csv,1,300,143.0,Training at home,,,,,,,,,,,,,
