subject,day,trial,cat,x,y,xt,yt,resp,rt,fb,f_name,acc,n_trials,block,session_type,ns_left_digit,ns_right_digit,ns_left_size,ns_right_size,ns_congruent,ns_cue,ns_correct_side,ns_resp,ns_rt,ns_fb,acc_stroop,acc_stroop_mean,resp_key
11,14,3000,A,32.65153255113165,51.89223998217251,1.6325766275565825,0.8151213995315587,B,1220.161915989593,Incorrect,sub_011_day_14_data.csv,0,300,120.0,Training at home,,,,,,,,,,,,,
11,14,3001,A,63.82126847914539,80.70984853489003,3.191063423957269,1.2677873361477772,A,854.0466669946909,Correct,sub_011_day_14_data.csv,1,300,120.0,Training at home,,,,,,,,,,,,,
11,14,3002,B,60.945531795414574,46.929298598602536,3.0472765897707284,0.7371636985774574,B,573.1804580427706,Correct,sub_011_day_14_data.csv,1,300,120.0,Training at home,,,,,,,,,,,,,
11,14,3003,A,23.102937830708147,42.00776317481359,1.1551468915354073,0.6598564009186711,A,559.3222079914995,Correct,sub_011_day_14_data.csv,1,300,120.0,Training at home,,,,,,,,,,,,,
11,14,3004,B,72.4133440151279,45.2732390990584,3.620667200756395,0.7111503767890803,B,571.5315830311738,Correct,sub_011_day_14_data.csv,1,300,120.0,Training at home,,,,,,,,,,,,,
11,14,3005,A,21.757040739273123,39.44690738607309,1.0878520369636562,0.6196305722546209,A,539.5595420268364,Correct,sub_011_day_14_data.csv,1,300,120.0,Training at home,,,,,,,,,,,,,
11,14,3006,A,49.36334127328911,76.06055815905502,2.4681670636644553,1.1947564537021322,A,692.6231249817647,Correct,sub_011_day_14_data.csv,1,300,120.0,Training at home,,,,,,,,,,,,,
11,14,3007,B,73.0146309987427,46.31522629727412,3.650731549937135,0.7275178734243258,B,770.9052079590037,Correct,sub_011_day_14_data.csv,1,300,120.0,Training at home,,,,,,,,,,,,,
11,14,3008,A,46.20812070029812,62.70779895257778,2.3104060350149056,0.9850118025610204,A,489.75037498166785,Correct,sub_011_day_14_data.csv,1,300,120.0,Training at home,,,,,,,,,,,,,
11,14,3009,A,26.655848200534205,36.863384395875414,1.3327924100267103,0.5790486880226942,A,675.1233340473846,Correct,sub_011_day_14_data.csv,1,300,120.0,Training at home,,,,,,,,,,,,,
11,14,3010,A,27.42724939459452,54.74444090708727,1.371362469729726,0.8599236668929297,A,538.4384579956532,Correct,sub_011_day_14_data.csv,1,300,120.0,Training at home,,,,,,,,,,,,,
11,14,3011,A,44.38425557891589,76.75039876985804,2.2192127789457943,1.2055924446773654,A,573.6191250034608,Correct,sub_011_day_14_data.csv,1,300,120.0,Training at home,,,,,,,,,,,,,
11,14,3012,B,49.239755149168026,26.363869106940665,2.461987757458401,0.4141226875328385,B,790.7131250249222,Correct,sub_011_day_14_data.csv,1,300,120.0,Training at home,,,,,,,,,,,,,
11,14,3013,A,36.30590163804786,54.53532162680744,1.8152950819023927,0.856638828919674,A,479.1776249767281,Correct,sub_011_day_14_data.csv,1,300,120.0,Training at home,,,,,,,,,,,,,
11,14,3014,B,77.9362256508624,65.32404652158235,3.89681128254312,1.0261077232748048,B,740.9188329475,Correct,sub_011_day_14_data.csv,1,300,120.0,Training at home,,,,,,,,,,,,,
11,14,3015,B,59.6375733786997,26.989465033132888,2.9818786689349848,0.4239495253620445,B,585.4227079544216,Correct,sub_011_day_14_data.csv,1,300,120.0,Training at home,,,,,,,,,,,,,
11,14,3016,A,29.395508795929253,43.03479228809116,1.4697754397964626,0.6759889365051494,A,439.2005419940688,Correct,sub_011_day_14_data.csv,1,300,120.0,Training at home,,,,,,,,,,,,,
11,14,3017,A,27.308684855585664,53.500132779897186,1.3654342427792832,0.8403781205370173,A,434.2431669938378,Correct,sub_011_day_14_data.csv,1,300,120.0,Training at home,,,,,,,,,,,,,
11,14,3018,A,61.92419915996184,73.64677888146043,3.0962099579980924,1.15684089747274,A,1631.2623340054415,Correct,sub_011_day_14_data.csv,1,300,120.0,Training at home,,,,,,,,,,,,,
11,14,3019,B,45.0764787327864,34.55168485986822,2.25382393663932,0.5427365966245584,B,1579.771707998589,Correct,sub_011_day_14_data.csv,1,300,120.0,Training at home,,,,,,,,,,,,,
11,14,3020,A,16.925950139501182,43.833105309246456,0.8462975069750591,0.688528808117782,A,451.9326250301674,Correct,sub_011_day_14_data.csv,1,300,120.0,Training at home,,,,,,,,,,,,,
11,14,3021,A,30.669327152153507,62.83959820421032,1.5334663576076752,0.9870821003644074,A,442.6894999924116,Correct,sub_011_day_14_data.csv,1,300,120.0,Training at home,,,,,,,,,,,,,
11,14,3022,B,85.59682973943978,69.2326382706857,4.279841486971989,1.0875037388991289,B,548.0101670254953,Correct,sub_011_day_14_data.csv,1,300,120.0,Training at home,,,,,,,,,,,,,
11,14,3023,B,88.86915383155511,66.46857882885902,4.4434576915777555,1.0440859947164878,B,506.1857079854235,Correct,sub_011_day_14_data.csv,1,300,120.0,Training at home,,,,,,,,,,,,,
11,14,3024,A,65.39372039748602,81.14419705572672,3.2696860198743014,1.274610066758568,A,829.5832499861717,Correct,sub_011_day_14_data.csv,1,300,120.0,Training at home,,,,,,,,,,,,,
11,14,3025,B,57.7396532922295,28.14851868562906,2.886982664611475,0.4421558975610364,B,475.31958302715793,Correct,sub_011_day_14_data.csv,1,300,121.0,Training at home,,,,,,,,,,,,,
11,14,3026,A,28.146981577016035,59.5698091472769,1.4073490788508018,0.935720373964156,A,579.7676660004072,Correct,sub_011_day_14_data.csv,1,300,121.0,Training at home,,,,,,,,,,,,,
11,14,3027,A,21.76169924601276,33.221333866177076,1.088084962300638,0.5218394920821785,A,494.7445000289008,Correct,sub_011_day_14_data.csv,1,300,121.0,Training at home,,,,,,,,,,,,,
11,14,3028,B,69.59796264240335,42.73753811943979,3.479898132120167,0.671319678942729,B,579.8764580395073,Correct,sub_011_day_14_data.csv,1,300,121.0,Training at home,,,,,,,,,,,,,
11,14,3029,B,63.13959088583559,38.965843556544776,3.156979544291779,0.6120740392908511,B,695.6380000337958,Correct,sub_011_day_14_data.csv,1,300,121.0,Training at home,,,,,,,,,,,,,
11,14,3030,A,34.16056670687839,58.10594727355262,1.7080283353439196,0.912726085422344,A,661.4174579735845,Correct,sub_011_day_14_data.csv,1,300,121.0,Training at home,,,,,,,,,,,,,
11,14,3031,A,25.837510380262263,43.33466964504811,1.2918755190131137,0.6806993990131187,A,660.4394580353983,Correct,sub_011_day_14_data.csv,1,300,121.0,Training at home,,,,,,,,,,,,,
11,14,3032,B,78.28209415131411,66.43062609997085,3.914104707565706,1.043489834645194,B,660.7066669967026,Correct,sub_011_day_14_data.csv,1,300,121.0,Training at home,,,,,,,,,,,,,
11,14,3033,B,63.09725699362909,33.6422736536647,3.1548628496814546,0.5284515988020524,B,822.5390419829637,Correct,sub_011_day_14_data.csv,1,300,121.0,Training at home,,,,,,,,,,,,,
11,14,3034,B,52.89534806840682,39.49463341736566,2.644767403420341,0.6203802510010895,B,545.1736659742892,Correct,sub_011_day_14_data.csv,1,300,121.0,Training at home,,,,,,,,,,,,,
11,14,3035,B,81.71021633462415,58.79228982453674,4.085510816731207,0.9235071290024328,B,639.0014999778941,Correct,sub_011_day_14_data.csv,1,300,121.0,Training at home,,,,,,,,,,,,,
11,14,3036,B,68.42659869430716,50.5596466984975,3.4213299347153576,0.794189073180476,B,475.5499589955434,Correct,sub_011_day_14_data.csv,1,300,121.0,Training at home,,,,,,,,,,,,,
11,14,3037,A,46.476497621618655,74.3836772813107,2.3238248810809328,1.1684160704697983,A,642.7097499836236,Correct,sub_011_day_14_data.csv,1,300,121.0,Training at home,,,,,,,,,,,,,
11,14,3038,B,82.9613321029644,68.31307540515482,4.1480666051482205,1.0730592791848,B,1635.9759580227546,Correct,sub_011_day_14_data.csv,1,300,121.0,Training at home,,,,,,,,,,,,,
11,14,3039,B,38.41463683500653,17.325280585099254,1.9207318417503267,0.2721448710376484,B,1082.20808301121,Correct,sub_011_day_14_data.csv,1,300,121.0,Training at home,,,,,,,,,,,,,
11,14,3040,A,44.23778884430149,52.127256739250065,2.2118894422150746,0.8188130341190851,A,616.6994159575552,Correct,sub_011_day_14_data.csv,1,300,121.0,Training at home,,,,,,,,,,,,,
11,14,3041,B,48.900194209440635,27.696610116388,2.4450097104720316,0.4350573343549264,B,771.1929579963908,Correct,sub_011_day_14_data.csv,1,300,121.0,Training at home,,,,,,,,,,,,,
11,14,3042,B,62.1437929097979,36.91459624971842,3.107189645489895,0.5798531219417437,B,981.802333961241,Correct,sub_011_day_14_data.csv,1,300,121.0,Training at home,,,,,,,,,,,,,
11,14,3043,A,42.99641730695499,56.698023102432984,2.1498208653477495,0.8906104642583391,A,649.8722500400618,Correct,sub_011_day_14_data.csv,1,300,121.0,Training at home,,,,,,,,,,,,,
11,14,3044,B,71.80678263904002,55.93993603096255,3.590339131952001,0.8787024603857745,B,1235.026582959108,Correct,sub_011_day_14_data.csv,1,300,121.0,Training at home,,,,,,,,,,,,,
11,14,3045,B,48.84846046259909,29.411697485328663,2.442423023129954,0.4619978637475696,B,1093.5634590568952,Correct,sub_011_day_14_data.csv,1,300,121.0,Training at home,,,,,,,,,,,,,
11,14,3046,A,22.163161889402105,45.74765142523672,1.1081580944701053,0.7186024281825515,A,430.9185409802012,Correct,sub_011_day_14_data.csv,1,300,121.0,Training at home,,,,,,,,,,,,,
11,14,3047,B,58.6635918182215,42.47131550233789,2.9331795909110747,0.667137863852195,A,1488.3576250285842,Incorrect,sub_011_day_14_data.csv,0,300,121.0,Training at home,,,,,,,,,,,,,
11,14,3048,A,59.17631886393274,74.10160464221813,2.9588159431966368,1.163985283816039,A,1107.0285419700667,Correct,sub_011_day_14_data.csv,1,300,121.0,Training at home,,,,,,,,,,,,,
11,14,3049,A,41.511072907812995,61.92280289704718,2.07555364539065,0.972681113355261,A,450.1832079840824,Correct,sub_011_day_14_data.csv,1,300,121.0,Training at home,,,,,,,,,,,,,
11,14,3050,A,45.28703481873796,69.13199272654661,2.264351740936898,1.0859228023887093,A,1070.932166010607,Correct,sub_011_day_14_data.csv,1,300,122.0,Training at home,,,,,,,,,,,,,
11,14,3051,B,44.457485469383805,33.34612106852123,2.2228742734691904,0.5237996448729105,B,952.8917080024256,Correct,sub_011_day_14_data.csv,1,300,122.0,Training at home,,,,,,,,,,,,,
11,14,3052,A,17.929687687427293,47.91764651680391,0.8964843843713646,0.7526886313725185,A,470.0859999866225,Correct,sub_011_day_14_data.csv,1,300,122.0,Training at home,,,,,,,,,,,,,
11,14,3053,A,19.443937029527973,32.7373440944733,0.9721968514763988,0.5142369985261926,A,614.1959999804385,Correct,sub_011_day_14_data.csv,1,300,122.0,Training at home,,,,,,,,,,,,,
11,14,3054,B,48.69720009917182,29.487200350232413,2.4348600049585913,0.4631838599761025,B,1163.7719169957563,Correct,sub_011_day_14_data.csv,1,300,122.0,Training at home,,,,,,,,,,,,,
11,14,3055,B,66.79229886033964,57.07769260175712,3.3396149430169824,0.8965742988076832,A,1818.0630830465816,Incorrect,sub_011_day_14_data.csv,0,300,122.0,Training at home,,,,,,,,,,,,,
11,14,3056,A,29.90229418516688,50.60715483639505,1.495114709258344,0.7949353292654991,A,787.8921669907868,Correct,sub_011_day_14_data.csv,1,300,122.0,Training at home,,,,,,,,,,,,,
11,14,3057,B,38.19344108407033,11.669661782448204,1.9096720542035168,0.1833066186280842,B,468.4656669851393,Correct,sub_011_day_14_data.csv,1,300,122.0,Training at home,,,,,,,,,,,,,
11,14,3058,B,74.71010696582356,62.27442529058478,3.735505348291178,0.978204384997138,A,1483.4926669718698,Incorrect,sub_011_day_14_data.csv,0,300,122.0,Training at home,,,,,,,,,,,,,
11,14,3059,A,61.29983356856361,82.30418422045824,3.0649916784281803,1.292831102533463,A,1286.984374979511,Correct,sub_011_day_14_data.csv,1,300,122.0,Training at home,,,,,,,,,,,,,
11,14,3060,A,66.58810639123999,85.40724947061531,3.3294053195619995,1.341573937500979,A,582.6653750264086,Correct,sub_011_day_14_data.csv,1,300,122.0,Training at home,,,,,,,,,,,,,
11,14,3061,B,46.380475672715264,32.36392224781615,2.319023783635763,0.5083713018754523,B,915.568833006546,Correct,sub_011_day_14_data.csv,1,300,122.0,Training at home,,,,,,,,,,,,,
11,14,3062,A,22.305549622408744,53.64333660751808,1.1152774811204371,0.842627561001116,A,485.9182499931194,Correct,sub_011_day_14_data.csv,1,300,122.0,Training at home,,,,,,,,,,,,,
11,14,3063,A,25.792511112363073,50.77711643111088,1.2896255556181535,0.7976050797522575,A,540.9005410037935,Correct,sub_011_day_14_data.csv,1,300,122.0,Training at home,,,,,,,,,,,,,
11,14,3064,B,36.50317823624083,21.18159575437397,1.8251589118120417,0.3327197280662501,B,537.6880840049125,Correct,sub_011_day_14_data.csv,1,300,122.0,Training at home,,,,,,,,,,,,,
11,14,3065,B,78.20359001389457,52.9192906825899,3.910179500694728,0.8312542742080361,B,827.407208038494,Correct,sub_011_day_14_data.csv,1,300,122.0,Training at home,,,,,,,,,,,,,
11,14,3066,A,46.27995901933916,76.9258861217436,2.313997950966958,1.2083489935547738,A,710.4165410273708,Correct,sub_011_day_14_data.csv,1,300,122.0,Training at home,,,,,,,,,,,,,
11,14,3067,A,44.46343263699836,67.75823576063162,2.223171631849918,1.0643438784290276,A,711.9184170151129,Correct,sub_011_day_14_data.csv,1,300,122.0,Training at home,,,,,,,,,,,,,
11,14,3068,A,34.838941420417164,56.56231390237621,1.7419470710208582,0.8884787491287245,A,1404.8307500197552,Correct,sub_011_day_14_data.csv,1,300,122.0,Training at home,,,,,,,,,,,,,
11,14,3069,A,13.895003295854169,36.27052600338155,0.6947501647927083,0.5697360901703052,A,477.1339580183849,Correct,sub_011_day_14_data.csv,1,300,122.0,Training at home,,,,,,,,,,,,,
11,14,3070,A,35.03088445094707,57.21614049997636,1.7515442225473534,0.8987490333074359,A,505.8756250073202,Correct,sub_011_day_14_data.csv,1,300,122.0,Training at home,,,,,,,,,,,,,
11,14,3071,A,39.26387865943137,51.86963323103544,1.9631939329715689,0.8147662935150897,A,499.92324999766424,Correct,sub_011_day_14_data.csv,1,300,122.0,Training at home,,,,,,,,,,,,,
11,14,3072,A,18.873562045943007,33.37534410504017,0.9436781022971504,0.5242586792571281,A,496.5047080186196,Correct,sub_011_day_14_data.csv,1,300,122.0,Training at home,,,,,,,,,,,,,
11,14,3073,A,46.27986704936636,65.66266386508394,2.313993352468318,1.0314267120684184,A,570.2172909514047,Correct,sub_011_day_14_data.csv,1,300,122.0,Training at home,,,,,,,,,,,,,
11,14,3074,B,82.81627735248762,67.00869617076643,4.140813867624381,1.0525701380835517,B,1242.4063340295106,Correct,sub_011_day_14_data.csv,1,300,122.0,Training at home,,,,,,,,,,,,,
11,14,3075,A,21.583735320981436,52.41833515403532,1.0791867660490717,0.8233852831666248,A,537.6279579941183,Correct,sub_011_day_14_data.csv,1,300,123.0,Training at home,,,,,,,,,,,,,
11,14,3076,B,60.68357749082029,27.62756934786179,3.0341788745410145,0.4339728444989258,B,577.3449160042219,Correct,sub_011_day_14_data.csv,1,300,123.0,Training at home,,,,,,,,,,,,,
11,14,3077,B,36.38763558626418,20.359769769996184,1.8193817793132092,0.3198105156909978,B,437.64641700545326,Correct,sub_011_day_14_data.csv,1,300,123.0,Training at home,,,,,,,,,,,,,
11,14,3078,B,30.905744542806417,16.938829524690764,1.5452872271403209,0.2660745119758919,B,467.72333403350785,Correct,sub_011_day_14_data.csv,1,300,123.0,Training at home,,,,,,,,,,,,,
11,14,3079,A,49.094100637635975,63.401202623134,2.4547050318817987,0.9959037619479786,A,533.2435420132242,Correct,sub_011_day_14_data.csv,1,300,123.0,Training at home,,,,,,,,,,,,,
11,14,3080,A,29.440524647504205,43.71594284834923,1.4720262323752105,0.6866884244856258,A,493.1329999817535,Correct,sub_011_day_14_data.csv,1,300,123.0,Training at home,,,,,,,,,,,,,
11,14,3081,B,58.97396934360837,39.5438530218924,2.9486984671804186,0.6211533907410585,B,574.8689590254799,Correct,sub_011_day_14_data.csv,1,300,123.0,Training at home,,,,,,,,,,,,,
11,14,3082,A,46.81059902878169,75.50473154613753,2.3405299514390845,1.1860255496830758,A,574.0434170002118,Correct,sub_011_day_14_data.csv,1,300,123.0,Training at home,,,,,,,,,,,,,
11,14,3083,B,67.12171490931135,51.174494527673986,3.3560857454655673,0.8038470802965583,B,916.81745799724,Correct,sub_011_day_14_data.csv,1,300,123.0,Training at home,,,,,,,,,,,,,
11,14,3084,B,56.97225208924111,44.90606520810934,2.8486126044620557,0.7053828227971025,B,598.1180829694495,Correct,sub_011_day_14_data.csv,1,300,123.0,Training at home,,,,,,,,,,,,,
11,14,3085,A,29.40100106727111,40.44838826776617,1.4700500533635557,0.6353617971578089,A,534.6517919679172,Correct,sub_011_day_14_data.csv,1,300,123.0,Training at home,,,,,,,,,,,,,
11,14,3086,B,57.39832255154113,28.31252767305779,2.8699161275770564,0.4447321447111804,B,580.3458750015125,Correct,sub_011_day_14_data.csv,1,300,123.0,Training at home,,,,,,,,,,,,,
11,14,3087,A,42.18862700903167,58.707583564445336,2.1094313504515836,0.9221765661803518,A,537.4717499944381,Correct,sub_011_day_14_data.csv,1,300,123.0,Training at home,,,,,,,,,,,,,
11,14,3088,A,42.126597890677296,65.69902208048495,2.106329894533865,1.0319978255804256,A,728.4738330054097,Correct,sub_011_day_14_data.csv,1,300,123.0,Training at home,,,,,,,,,,,,,
11,14,3089,A,52.33395577080822,64.76614038055874,2.6166977885404106,1.0173441541046429,A,1717.8754580090754,Correct,sub_011_day_14_data.csv,1,300,123.0,Training at home,,,,,,,,,,,,,
11,14,3090,B,54.08444812568355,47.35418814327253,2.7042224062841775,0.7438378479380694,B,1295.7777089904994,Correct,sub_011_day_14_data.csv,1,300,123.0,Training at home,,,,,,,,,,,,,
11,14,3091,B,45.759471192771905,20.00232726641636,2.2879735596385955,0.3141958219743622,B,934.6093339845538,Correct,sub_011_day_14_data.csv,1,300,123.0,Training at home,,,,,,,,,,,,,
11,14,3092,A,52.922520977839554,73.96998420639129,2.6461260488919778,1.1619177948447594,A,604.7517919796519,Correct,sub_011_day_14_data.csv,1,300,123.0,Training at home,,,,,,,,,,,,,
11,14,3093,B,41.691743534408104,20.303375546864025,2.084587176720405,0.3189246773055133,B,1037.2500829980709,Correct,sub_011_day_14_data.csv,1,300,123.0,Training at home,,,,,,,,,,,,,
11,14,3094,B,42.45611749755956,26.463265671019332,2.1228058748779777,0.4156840051103465,B,1224.63491698727,Correct,sub_011_day_14_data.csv,1,300,123.0,Training at home,,,,,,,,,,,,,
11,14,3095,B,83.63761456597067,68.35829223247711,4.181880728298534,1.0737695434474717,B,529.8290830105543,Correct,sub_011_day_14_data.csv,1,300,123.0,Training at home,,,,,,,,,,,,,
11,14,3096,A,55.4379995402643,75.72379294248131,2.7718999770132147,1.1894665580502697,A,1952.5133750285024,Correct,sub_011_day_14_data.csv,1,300,123.0,Training at home,,,,,,,,,,,,,
11,14,3097,B,47.552029243697746,29.85224578609418,2.377601462184887,0.4689179802737517,B,477.63095796108246,Correct,sub_011_day_14_data.csv,1,300,123.0,Training at home,,,,,,,,,,,,,
11,14,3098,A,19.43453876077188,50.75070133412622,0.971726938038594,0.7971901523791033,A,498.15175001276657,Correct,sub_011_day_14_data.csv,1,300,123.0,Training at home,,,,,,,,,,,,,
11,14,3099,A,17.71718396742482,42.030333881973135,0.8858591983712409,0.660210940757665,A,2690.3070000116713,Correct,sub_011_day_14_data.csv,1,300,123.0,Training at home,,,,,,,,,,,,,
11,14,3100,A,41.6359584857349,64.91096291847543,2.0817979242867453,1.0196190212106095,A,641.6244159918278,Correct,sub_011_day_14_data.csv,1,300,124.0,Training at home,,,,,,,,,,,,,
11,14,3101,B,55.70297048493737,43.704829365374735,2.7851485242468685,0.6865138543032837,B,672.9163749841973,Correct,sub_011_day_14_data.csv,1,300,124.0,Training at home,,,,,,,,,,,,,
11,14,3102,A,26.343454271701276,47.828762582396806,1.3171727135850635,0.751292445795741,A,508.5334579925984,Correct,sub_011_day_14_data.csv,1,300,124.0,Training at home,,,,,,,,,,,,,
11,14,3103,B,33.8243869692181,17.517811397664723,1.6912193484609048,0.2751691379693752,B,958.744542032946,Correct,sub_011_day_14_data.csv,1,300,124.0,Training at home,,,,,,,,,,,,,
11,14,3104,B,36.63787740644412,17.50207756720683,1.831893870322206,0.2749219915384785,B,739.9014999973588,Correct,sub_011_day_14_data.csv,1,300,124.0,Training at home,,,,,,,,,,,,,
11,14,3105,A,53.58536214434732,73.65191537335224,2.679268107217366,1.1569215812987026,A,1910.837083007209,Correct,sub_011_day_14_data.csv,1,300,124.0,Training at home,,,,,,,,,,,,,
11,14,3106,B,41.25675203480002,17.88743969905682,2.0628376017400014,0.2809752457504366,B,472.1339999814518,Correct,sub_011_day_14_data.csv,1,300,124.0,Training at home,,,,,,,,,,,,,
11,14,3107,B,47.23193982930778,39.25218244336385,2.361596991465389,0.6165718400071907,B,764.9152500089258,Correct,sub_011_day_14_data.csv,1,300,124.0,Training at home,,,,,,,,,,,,,
11,14,3108,B,75.51910635794185,46.61052854192157,3.775955317897093,0.7321564702361908,B,680.4535000119358,Correct,sub_011_day_14_data.csv,1,300,124.0,Training at home,,,,,,,,,,,,,
11,14,3109,A,45.33061381161326,70.05857239919791,2.2665306905806633,1.100477481851544,A,558.3585420390591,Correct,sub_011_day_14_data.csv,1,300,124.0,Training at home,,,,,,,,,,,,,
11,14,3110,B,65.04973215097361,34.42696898152228,3.252486607548681,0.5407775641885704,B,524.3692079675384,Correct,sub_011_day_14_data.csv,1,300,124.0,Training at home,,,,,,,,,,,,,
11,14,3111,A,27.421531992955188,43.766177632828786,1.3710765996477594,0.6874775106350042,A,492.1328329946846,Correct,sub_011_day_14_data.csv,1,300,124.0,Training at home,,,,,,,,,,,,,
11,14,3112,A,39.789285006047415,64.8169946724718,1.9894642503023707,1.0181429714540309,A,1149.750916985795,Correct,sub_011_day_14_data.csv,1,300,124.0,Training at home,,,,,,,,,,,,,
11,14,3113,B,43.03949040239502,18.635672135345203,2.151974520119751,0.2927284533755425,B,846.779165964108,Correct,sub_011_day_14_data.csv,1,300,124.0,Training at home,,,,,,,,,,,,,
11,14,3114,A,45.31661177286616,76.12451223993726,2.265830588643308,1.195761042055466,A,813.6391250300221,Correct,sub_011_day_14_data.csv,1,300,124.0,Training at home,,,,,,,,,,,,,
11,14,3115,B,55.54111288897942,44.25713422518805,2.777055644448971,0.6951894387539408,B,568.5205840272829,Correct,sub_011_day_14_data.csv,1,300,124.0,Training at home,,,,,,,,,,,,,
11,14,3116,B,74.84735898953153,55.61495520878615,3.742367949476576,0.8735976735682398,B,719.8164999717847,Correct,sub_011_day_14_data.csv,1,300,124.0,Training at home,,,,,,,,,,,,,
11,14,3117,B,36.45576537700474,24.73052635177854,1.822788268850237,0.3884661995307812,B,470.1559160021134,Correct,sub_011_day_14_data.csv,1,300,124.0,Training at home,,,,,,,,,,,,,
11,14,3118,B,48.841886649938864,40.14199031143263,2.4420943324969433,0.6305489093143469,B,1724.275916989427,Correct,sub_011_day_14_data.csv,1,300,124.0,Training at home,,,,,,,,,,,,,
11,14,3119,A,37.12397715139874,48.98725146157369,1.856198857569937,0.7694899465561787,A,1061.789333994966,Correct,sub_011_day_14_data.csv,1,300,124.0,Training at home,,,,,,,,,,,,,
11,14,3120,A,63.32481708458478,87.57120371691646,3.1662408542292386,1.3755652513153995,A,2020.2693340252151,Correct,sub_011_day_14_data.csv,1,300,124.0,Training at home,,,,,,,,,,,,,
11,14,3121,A,52.10342079454706,69.08076436245045,2.605171039727353,1.0851181091272095,A,680.2724999724887,Correct,sub_011_day_14_data.csv,1,300,124.0,Training at home,,,,,,,,,,,,,
11,14,3122,B,83.69338166176004,57.48313650551684,4.184669083088002,0.9029429967551548,B,615.3086249832995,Correct,sub_011_day_14_data.csv,1,300,124.0,Training at home,,,,,,,,,,,,,
11,14,3123,B,59.74297149617602,27.113892078708663,2.987148574808801,0.4259040208234881,B,505.0852080457844,Correct,sub_011_day_14_data.csv,1,300,124.0,Training at home,,,,,,,,,,,,,
11,14,3124,B,70.86866135757742,38.87217415993535,3.5434330678788712,0.6106026838495793,B,486.800457991194,Correct,sub_011_day_14_data.csv,1,300,124.0,Training at home,,,,,,,,,,,,,
11,14,3125,B,52.561093845011854,29.441700055780142,2.6280546922505925,0.4624691430221654,B,367.2687080106698,Correct,sub_011_day_14_data.csv,1,300,125.0,Training at home,,,,,,,,,,,,,
11,14,3126,B,62.09276112503995,40.20759804983162,3.1046380562519977,0.6315794732592115,B,500.0037080026232,Correct,sub_011_day_14_data.csv,1,300,125.0,Training at home,,,,,,,,,,,,,
11,14,3127,A,39.80155109296317,63.31521960008027,1.9900775546481584,0.9945531437801832,A,594.1911250120029,Correct,sub_011_day_14_data.csv,1,300,125.0,Training at home,,,,,,,,,,,,,
11,14,3128,B,76.92200349615496,60.6812755287047,3.846100174807748,0.953179247057184,B,532.5598749914207,Correct,sub_011_day_14_data.csv,1,300,125.0,Training at home,,,,,,,,,,,,,
11,14,3129,B,49.49339984199941,18.824495406286783,2.47466999209997,0.2956944823796268,B,1985.1746250060387,Correct,sub_011_day_14_data.csv,1,300,125.0,Training at home,,,,,,,,,,,,,
11,14,3130,A,16.594512644437728,40.86020944408045,0.8297256322218864,0.6418306690683172,A,863.3855829830281,Correct,sub_011_day_14_data.csv,1,300,125.0,Training at home,,,,,,,,,,,,,
11,14,3131,A,15.005406598683509,36.15914624377923,0.7502703299341753,0.567986540997679,A,442.1820839634165,Correct,sub_011_day_14_data.csv,1,300,125.0,Training at home,,,,,,,,,,,,,
11,14,3132,A,48.007234509029075,65.73150610804822,2.4003617254514538,1.0325080834921845,A,926.832375000231,Correct,sub_011_day_14_data.csv,1,300,125.0,Training at home,,,,,,,,,,,,,
11,14,3133,B,73.45799998118261,51.06828613834193,3.6728999990591302,0.8021787628181825,B,647.2077500075102,Correct,sub_011_day_14_data.csv,1,300,125.0,Training at home,,,,,,,,,,,,,
11,14,3134,A,56.85244997181674,69.96896549353583,2.8426224985908366,1.0990699398688497,A,505.67012501414865,Correct,sub_011_day_14_data.csv,1,300,125.0,Training at home,,,,,,,,,,,,,
11,14,3135,B,65.33375594982445,48.12016154924467,3.266687797491222,0.7558697300633054,B,843.4338750084862,Correct,sub_011_day_14_data.csv,1,300,125.0,Training at home,,,,,,,,,,,,,
11,14,3136,B,43.77721888196187,21.66049627899045,2.1888609440980935,0.3402422799159272,B,420.37770798197016,Correct,sub_011_day_14_data.csv,1,300,125.0,Training at home,,,,,,,,,,,,,
11,14,3137,B,75.1192802626327,56.54429377583619,3.755964013131635,0.8881956896429501,B,532.0539170061238,Correct,sub_011_day_14_data.csv,1,300,125.0,Training at home,,,,,,,,,,,,,
11,14,3138,B,60.75866052365995,31.95957928579289,3.0379330261829973,0.5020198974803374,B,449.773250031285,Correct,sub_011_day_14_data.csv,1,300,125.0,Training at home,,,,,,,,,,,,,
11,14,3139,B,66.08176074481382,46.96812119026458,3.304088037240691,0.7377735224212515,B,450.5499580409378,Correct,sub_011_day_14_data.csv,1,300,125.0,Training at home,,,,,,,,,,,,,
11,14,3140,B,72.81665956938298,45.151937937381035,3.640832978469149,0.7092449825970927,B,523.5035000368953,Correct,sub_011_day_14_data.csv,1,300,125.0,Training at home,,,,,,,,,,,,,
11,14,3141,B,63.80901340457337,48.21951098596942,3.190450670228669,0.7574303073660693,B,460.1301659713499,Correct,sub_011_day_14_data.csv,1,300,125.0,Training at home,,,,,,,,,,,,,
11,14,3142,B,60.640037092977465,53.41264781651216,3.0320018546488736,0.8390039099456675,B,431.4141250215471,Correct,sub_011_day_14_data.csv,1,300,125.0,Training at home,,,,,,,,,,,,,
11,14,3143,A,64.76120242341312,86.05411411590447,3.238060121170656,1.351734863588516,A,1037.3605420463718,Correct,sub_011_day_14_data.csv,1,300,125.0,Training at home,,,,,,,,,,,,,
11,14,3144,A,31.074530913286015,57.12833476164955,1.5537265456643008,0.8973697839950832,A,493.0655410280451,Correct,sub_011_day_14_data.csv,1,300,125.0,Training at home,,,,,,,,,,,,,
11,14,3145,A,39.367710929325874,51.571861727075905,1.9683855464662936,0.8100889096686513,A,910.2242090157232,Correct,sub_011_day_14_data.csv,1,300,125.0,Training at home,,,,,,,,,,,,,
11,14,3146,A,62.249242613491845,75.39572230859916,3.1124621306745923,1.184313236583956,A,628.9591249660589,Correct,sub_011_day_14_data.csv,1,300,125.0,Training at home,,,,,,,,,,,,,
11,14,3147,B,60.62589746913832,28.187919709340733,3.031294873456916,0.442774807394219,B,482.23162500653416,Correct,sub_011_day_14_data.csv,1,300,125.0,Training at home,,,,,,,,,,,,,
11,14,3148,B,77.18787510778208,55.720083980887246,3.859393755389104,0.8752490324588084,B,614.4590419717133,Correct,sub_011_day_14_data.csv,1,300,125.0,Training at home,,,,,,,,,,,,,
11,14,3149,A,16.357103209075373,33.8815771778149,0.8178551604537687,0.5322105697692944,A,617.8680839948356,Correct,sub_011_day_14_data.csv,1,300,125.0,Training at home,,,,,,,,,,,,,
11,14,3150,A,63.370451606607425,89.17725604339435,3.168522580330371,1.4007930622661182,A,643.714000005275,Correct,sub_011_day_14_data.csv,1,300,126.0,Training at home,,,,,,,,,,,,,
11,14,3151,A,52.35355945362256,73.03700078271612,2.617677972681128,1.1472625254960644,A,421.17837496334687,Correct,sub_011_day_14_data.csv,1,300,126.0,Training at home,,,,,,,,,,,,,
11,14,3152,A,13.50723190970864,41.03665598996065,0.675361595485432,0.6446022849297599,A,442.4946670187637,Correct,sub_011_day_14_data.csv,1,300,126.0,Training at home,,,,,,,,,,,,,
11,14,3153,B,87.70673026452125,63.79564593509524,4.385336513226062,1.0020996630035537,B,722.1419169800356,Correct,sub_011_day_14_data.csv,1,300,126.0,Training at home,,,,,,,,,,,,,
11,14,3154,B,61.746487860786985,52.545461347218705,3.0873243930393492,0.8253821767395436,B,563.3580829598941,Correct,sub_011_day_14_data.csv,1,300,126.0,Training at home,,,,,,,,,,,,,
11,14,3155,B,51.33856663409654,37.193303700023066,2.566928331704827,0.5842310483336326,B,524.2588340188377,Correct,sub_011_day_14_data.csv,1,300,126.0,Training at home,,,,,,,,,,,,,
11,14,3156,B,44.32710672229386,29.9810101979383,2.2163553361146935,0.4709406069252181,B,1269.061375001911,Correct,sub_011_day_14_data.csv,1,300,126.0,Training at home,,,,,,,,,,,,,
11,14,3157,B,58.786456631202086,38.015723146353096,2.9393228315601045,0.5971495827874317,B,427.70404199836776,Correct,sub_011_day_14_data.csv,1,300,126.0,Training at home,,,,,,,,,,,,,
11,14,3158,B,61.43558083413145,40.23626535933391,3.0717790417065727,0.6320297783038644,B,616.8712090002373,Correct,sub_011_day_14_data.csv,1,300,126.0,Training at home,,,,,,,,,,,,,
11,14,3159,A,18.914972857250344,38.92448942985767,0.9457486428625173,0.6114244501878722,A,520.649540994782,Correct,sub_011_day_14_data.csv,1,300,126.0,Training at home,,,,,,,,,,,,,
11,14,3160,B,43.62184134460283,25.203461988607874,2.1810920672301415,0.3958950551422004,B,483.9697080315091,Correct,sub_011_day_14_data.csv,1,300,126.0,Training at home,,,,,,,,,,,,,
11,14,3161,B,73.47232952791235,49.9382947302184,3.673616476395617,0.78442889928628,B,676.5797500265762,Correct,sub_011_day_14_data.csv,1,300,126.0,Training at home,,,,,,,,,,,,,
11,14,3162,A,27.62416150211586,50.41998890543119,1.3812080751057931,0.7919953336969074,A,2370.1141250203364,Correct,sub_011_day_14_data.csv,1,300,126.0,Training at home,,,,,,,,,,,,,
11,14,3163,A,12.887889767684928,31.257344770790745,0.6443944883842464,0.4909892235131977,A,521.0731659899466,Correct,sub_011_day_14_data.csv,1,300,126.0,Training at home,,,,,,,,,,,,,
11,14,3164,A,46.24391676514681,63.95722641825537,2.3121958382573404,1.0046377632978505,A,686.4544170093723,Correct,sub_011_day_14_data.csv,1,300,126.0,Training at home,,,,,,,,,,,,,
11,14,3165,A,24.11720457263165,47.14710587998589,1.2058602286315825,0.740585007352919,A,868.9526250236668,Correct,sub_011_day_14_data.csv,1,300,126.0,Training at home,,,,,,,,,,,,,
11,14,3166,B,48.9630591167909,33.62070104785724,2.448152955839545,0.5281127371024349,B,844.2099160165526,Correct,sub_011_day_14_data.csv,1,300,126.0,Training at home,,,,,,,,,,,,,
11,14,3167,A,52.09935473657794,70.89410545448104,2.6049677368288973,1.1136020043930883,A,698.3009579707868,Correct,sub_011_day_14_data.csv,1,300,126.0,Training at home,,,,,,,,,,,,,
11,14,3168,A,41.207930395715934,69.08759022157298,2.060396519785797,1.0852253294715786,A,426.92833399632946,Correct,sub_011_day_14_data.csv,1,300,126.0,Training at home,,,,,,,,,,,,,
11,14,3169,A,51.36169437526024,74.95607001626327,2.568084718763012,1.1774071945252742,A,935.6377919903024,Correct,sub_011_day_14_data.csv,1,300,126.0,Training at home,,,,,,,,,,,,,
11,14,3170,A,42.258479519975126,72.97827055319992,2.1129239759987564,1.1463399932081058,A,822.362000006251,Correct,sub_011_day_14_data.csv,1,300,126.0,Training at home,,,,,,,,,,,,,
11,14,3171,B,79.80605822207862,48.48187518921454,3.990302911103931,0.7615515146334683,B,1059.3334999866784,Correct,sub_011_day_14_data.csv,1,300,126.0,Training at home,,,,,,,,,,,,,
11,14,3172,B,67.66757220061078,48.00642243077685,3.383378610030539,0.7540831201682839,B,583.4449590183794,Correct,sub_011_day_14_data.csv,1,300,126.0,Training at home,,,,,,,,,,,,,
11,14,3173,B,59.98889880908823,32.64169064440721,2.9994449404544117,0.5127344776461018,B,963.0641670082696,Correct,sub_011_day_14_data.csv,1,300,126.0,Training at home,,,,,,,,,,,,,
11,14,3174,A,42.99906986522936,63.78363781555745,2.149953493261468,1.0019110399029372,A,648.1424169614911,Correct,sub_011_day_14_data.csv,1,300,126.0,Training at home,,,,,,,,,,,,,
11,14,3175,A,16.137439927903724,41.95877925387007,0.8068719963951863,0.6590869632877702,A,930.260959023144,Correct,sub_011_day_14_data.csv,1,300,127.0,Training at home,,,,,,,,,,,,,
11,14,3176,A,50.706028110049495,63.256791555444806,2.5353014055024747,0.9936353582012312,A,1032.7059580013156,Correct,sub_011_day_14_data.csv,1,300,127.0,Training at home,,,,,,,,,,,,,
11,14,3177,B,59.08004823807943,40.69573293451369,2.9540024119039714,0.6392470780976021,B,536.9444589596242,Correct,sub_011_day_14_data.csv,1,300,127.0,Training at home,,,,,,,,,,,,,
11,14,3178,A,52.95252602539418,62.0439657968479,2.6476263012697085,0.9745843357347688,A,524.7687500086613,Correct,sub_011_day_14_data.csv,1,300,127.0,Training at home,,,,,,,,,,,,,
11,14,3179,B,74.55391162771947,56.24827194435683,3.727695581385974,0.8835457895875615,B,762.9390829824843,Correct,sub_011_day_14_data.csv,1,300,127.0,Training at home,,,,,,,,,,,,,
11,14,3180,A,64.414053759391,86.93712024556159,3.2207026879695495,1.3656050914385436,A,631.3943339628167,Correct,sub_011_day_14_data.csv,1,300,127.0,Training at home,,,,,,,,,,,,,
11,14,3181,B,42.69196808788023,19.184153068413337,2.1345984043940116,0.301343971725347,B,478.02220802986994,Correct,sub_011_day_14_data.csv,1,300,127.0,Training at home,,,,,,,,,,,,,
11,14,3182,A,17.241890139906655,38.14592823649711,0.8620945069953327,0.5991948395607138,A,550.1661250018515,Correct,sub_011_day_14_data.csv,1,300,127.0,Training at home,,,,,,,,,,,,,
11,14,3183,B,45.373077123691104,22.45579305877657,2.2686538561845553,0.3527347725199257,B,500.6776250083931,Correct,sub_011_day_14_data.csv,1,300,127.0,Training at home,,,,,,,,,,,,,
11,14,3184,B,64.57262553981735,51.27525728011673,3.2286312769908676,0.8054298579107064,A,583.6557919974439,Incorrect,sub_011_day_14_data.csv,0,300,127.0,Training at home,,,,,,,,,,,,,
11,14,3185,A,14.31308392744468,33.120665246471745,0.715654196372234,0.520258193101612,A,458.64787499886006,Correct,sub_011_day_14_data.csv,1,300,127.0,Training at home,,,,,,,,,,,,,
11,14,3186,A,62.78772904909093,88.31814064687036,3.1393864524545463,1.3872981091745902,A,609.9511670181528,Correct,sub_011_day_14_data.csv,1,300,127.0,Training at home,,,,,,,,,,,,,
11,14,3187,B,41.9463525551092,31.810155195536723,2.09731762775546,0.4996727493592467,B,482.8586250077933,Correct,sub_011_day_14_data.csv,1,300,127.0,Training at home,,,,,,,,,,,,,
11,14,3188,A,17.63297030033278,33.90558244764513,0.8816485150166389,0.5325876436660248,A,709.3610410229303,Correct,sub_011_day_14_data.csv,1,300,127.0,Training at home,,,,,,,,,,,,,
11,14,3189,A,32.816752855943164,55.6008166407551,1.640837642797158,0.8733755854609466,A,546.6217920184135,Correct,sub_011_day_14_data.csv,1,300,127.0,Training at home,,,,,,,,,,,,,
11,14,3190,B,57.799414712845355,39.45475608110756,2.8899707356422675,0.6197538592679237,B,1445.9935000049882,Correct,sub_011_day_14_data.csv,1,300,127.0,Training at home,,,,,,,,,,,,,
11,14,3191,A,22.244430039643063,33.50899372198866,1.112221501982153,0.5263580425309304,A,521.397500007879,Correct,sub_011_day_14_data.csv,1,300,127.0,Training at home,,,,,,,,,,,,,
11,14,3192,B,61.072824298154714,29.208278639374708,3.053641214907736,0.4588025679873163,B,521.4885410387069,Correct,sub_011_day_14_data.csv,1,300,127.0,Training at home,,,,,,,,,,,,,
11,14,3193,B,62.46197770293458,35.056547624645354,3.1230988851467294,0.5506669623890327,B,419.9866669951007,Correct,sub_011_day_14_data.csv,1,300,127.0,Training at home,,,,,,,,,,,,,
11,14,3194,A,34.362499262394714,58.60622446238389,1.7181249631197355,0.9205844211282984,A,736.1336250323802,Correct,sub_011_day_14_data.csv,1,300,127.0,Training at home,,,,,,,,,,,,,
11,14,3195,A,44.31193263486298,62.54663009996857,2.215596631743149,0.9824801681442974,A,2139.7772079799324,Correct,sub_011_day_14_data.csv,1,300,127.0,Training at home,,,,,,,,,,,,,
11,14,3196,B,70.83203554175827,56.41416369097746,3.5416017770879136,0.8861516110499342,B,802.6274999720044,Correct,sub_011_day_14_data.csv,1,300,127.0,Training at home,,,,,,,,,,,,,
11,14,3197,B,37.55451560185301,27.34050761288953,1.8777257800926503,0.4294636893103478,B,574.3146669701673,Correct,sub_011_day_14_data.csv,1,300,127.0,Training at home,,,,,,,,,,,,,
11,14,3198,B,55.54527962801875,30.985281898167955,2.7772639814009374,0.4867156699034663,B,486.34095897432417,Correct,sub_011_day_14_data.csv,1,300,127.0,Training at home,,,,,,,,,,,,,
11,14,3199,B,64.46444772728915,34.95239323609857,3.2232223863644576,0.5490309090795443,B,476.7978750169277,Correct,sub_011_day_14_data.csv,1,300,127.0,Training at home,,,,,,,,,,,,,
11,14,3200,B,87.35190589566534,69.22482736844289,4.367595294783268,1.0873810455336093,B,1764.2124999547375,Correct,sub_011_day_14_data.csv,1,300,128.0,Training at home,,,,,,,,,,,,,
11,14,3201,B,50.64401846995769,25.215346882102768,2.532200923497885,0.3960817426126617,B,499.4809160125442,Correct,sub_011_day_14_data.csv,1,300,128.0,Training at home,,,,,,,,,,,,,
11,14,3202,A,27.449987441605295,49.208536319582464,1.3724993720802647,0.7729658809775339,A,467.28441602317616,Correct,sub_011_day_14_data.csv,1,300,128.0,Training at home,,,,,,,,,,,,,
11,14,3203,B,43.04228510857655,19.52368321363791,2.1521142554288275,0.3066772987748961,B,478.153417003341,Correct,sub_011_day_14_data.csv,1,300,128.0,Training at home,,,,,,,,,,,,,
11,14,3204,B,73.50645459742124,50.70724558523604,3.675322729871062,0.7965075510717551,B,430.9593750513159,Correct,sub_011_day_14_data.csv,1,300,128.0,Training at home,,,,,,,,,,,,,
11,14,3205,B,34.19574670641116,16.91274434283241,1.709787335320558,0.2656647668974232,B,468.29404204618186,Correct,sub_011_day_14_data.csv,1,300,128.0,Training at home,,,,,,,,,,,,,
11,14,3206,B,75.00848671483902,63.34242471042244,3.7504243357419513,0.9949804806541386,B,559.3308750540018,Correct,sub_011_day_14_data.csv,1,300,128.0,Training at home,,,,,,,,,,,,,
11,14,3207,A,23.520089310974132,49.98177550426378,1.1760044655487063,0.7851118936878467,A,961.5644160076044,Correct,sub_011_day_14_data.csv,1,300,128.0,Training at home,,,,,,,,,,,,,
11,14,3208,A,57.0023560689441,79.36056431684528,2.8501178034472052,1.2465928292127069,A,561.2792079919018,Correct,sub_011_day_14_data.csv,1,300,128.0,Training at home,,,,,,,,,,,,,
11,14,3209,A,28.60927019641753,54.99267573291612,1.4304635098208762,0.8638229304188749,A,530.5074590141885,Correct,sub_011_day_14_data.csv,1,300,128.0,Training at home,,,,,,,,,,,,,
11,14,3210,B,33.380326166095614,13.75393648984089,1.6690163083047806,0.2160463291721236,B,788.3192920126021,Correct,sub_011_day_14_data.csv,1,300,128.0,Training at home,,,,,,,,,,,,,
11,14,3211,A,38.736909461353704,68.73371286271002,1.9368454730676856,1.0796666369172006,A,786.2766669713892,Correct,sub_011_day_14_data.csv,1,300,128.0,Training at home,,,,,,,,,,,,,
11,14,3212,B,86.46511068502623,67.18123219324255,4.323255534251311,1.0552803275870044,B,533.0731249996461,Correct,sub_011_day_14_data.csv,1,300,128.0,Training at home,,,,,,,,,,,,,
11,14,3213,B,76.64408693831584,65.04999769447794,3.832204346915792,1.0218029743650243,B,580.3341250284575,Correct,sub_011_day_14_data.csv,1,300,128.0,Training at home,,,,,,,,,,,,,
11,14,3214,A,39.146790461850415,65.59296227656996,1.9573395230925208,1.030331842076323,A,723.9032079814933,Correct,sub_011_day_14_data.csv,1,300,128.0,Training at home,,,,,,,,,,,,,
11,14,3215,A,37.56689974030583,59.84412815074216,1.8783449870152913,0.9400293667942884,A,395.99712495692074,Correct,sub_011_day_14_data.csv,1,300,128.0,Training at home,,,,,,,,,,,,,
11,14,3216,B,55.864181817759054,40.63277244531071,2.7932090908879523,0.6382580970458696,B,420.1562500093132,Correct,sub_011_day_14_data.csv,1,300,128.0,Training at home,,,,,,,,,,,,,
11,14,3217,B,55.22980893746416,27.70182902283755,2.761490446873208,0.4351393127457348,B,457.22037501400337,Correct,sub_011_day_14_data.csv,1,300,128.0,Training at home,,,,,,,,,,,,,
11,14,3218,A,38.225017084525945,46.980025434289104,1.9112508542262971,0.7379605138491213,B,485.3231669985689,Incorrect,sub_011_day_14_data.csv,0,300,128.0,Training at home,,,,,,,,,,,,,
11,14,3219,A,41.60323969899408,70.30539872136917,2.080161984949704,1.104354620653773,A,591.7950000148267,Correct,sub_011_day_14_data.csv,1,300,128.0,Training at home,,,,,,,,,,,,,
11,14,3220,A,13.967347425175864,41.38773183882891,0.6983673712587931,0.6501169714680465,A,612.5793330138549,Correct,sub_011_day_14_data.csv,1,300,128.0,Training at home,,,,,,,,,,,,,
11,14,3221,A,46.94596555118971,76.91481071249063,2.3472982775594855,1.2081750214330509,A,544.8475839802995,Correct,sub_011_day_14_data.csv,1,300,128.0,Training at home,,,,,,,,,,,,,
11,14,3222,A,24.667730570224496,36.97534553558789,1.2333865285112249,0.5808073694927353,A,1904.228417028207,Correct,sub_011_day_14_data.csv,1,300,128.0,Training at home,,,,,,,,,,,,,
11,14,3223,B,49.55704768517792,24.819358389173104,2.477852384258896,0.3898615699111921,B,547.9345410130918,Correct,sub_011_day_14_data.csv,1,300,128.0,Training at home,,,,,,,,,,,,,
11,14,3224,B,56.54281257636707,43.66168085640708,2.827140628818354,0.685836079109353,B,841.5524170268327,Correct,sub_011_day_14_data.csv,1,300,128.0,Training at home,,,,,,,,,,,,,
11,14,3225,B,71.83496430916739,53.999397380378625,3.5917482154583693,0.848220550542367,B,609.2797919991426,Correct,sub_011_day_14_data.csv,1,300,129.0,Training at home,,,,,,,,,,,,,
11,14,3226,A,28.768296694200107,40.36707428069903,1.4384148347100054,0.6340845200357877,A,493.75620897626504,Correct,sub_011_day_14_data.csv,1,300,129.0,Training at home,,,,,,,,,,,,,
11,14,3227,A,25.230029315262467,44.339872914154654,1.2615014657631234,0.6964890950410666,A,649.6192920021713,Correct,sub_011_day_14_data.csv,1,300,129.0,Training at home,,,,,,,,,,,,,
11,14,3228,A,35.64400080846884,59.66791648366487,1.782200040423442,0.9372614404004544,A,528.8391669746488,Correct,sub_011_day_14_data.csv,1,300,129.0,Training at home,,,,,,,,,,,,,
11,14,3229,B,38.79919727858564,11.886962205032509,1.939959863929282,0.1867199656841482,B,634.5162090146914,Correct,sub_011_day_14_data.csv,1,300,129.0,Training at home,,,,,,,,,,,,,
11,14,3230,B,62.783703984820875,40.33845236556955,3.1391851992410436,0.6336349280442756,B,889.8062080261298,Correct,sub_011_day_14_data.csv,1,300,129.0,Training at home,,,,,,,,,,,,,
11,14,3231,B,47.58930077048144,21.476715256698498,2.3794650385240717,0.3373554543684192,B,650.3813749877736,Correct,sub_011_day_14_data.csv,1,300,129.0,Training at home,,,,,,,,,,,,,
11,14,3232,A,21.798051305430093,34.61123275301556,1.0899025652715046,0.5436719727428005,A,618.833624990657,Correct,sub_011_day_14_data.csv,1,300,129.0,Training at home,,,,,,,,,,,,,
11,14,3233,B,64.76941378630198,36.90879102489579,3.238470689315099,0.5797619336834675,B,566.8399160495028,Correct,sub_011_day_14_data.csv,1,300,129.0,Training at home,,,,,,,,,,,,,
11,14,3234,A,41.27735462212125,48.779021615276775,2.063867731106063,0.7662190797792562,A,1646.161666023545,Correct,sub_011_day_14_data.csv,1,300,129.0,Training at home,,,,,,,,,,,,,
11,14,3235,A,23.643875896860617,40.6560384591792,1.1821937948430306,0.6386235587371073,A,497.3127920529805,Correct,sub_011_day_14_data.csv,1,300,129.0,Training at home,,,,,,,,,,,,,
11,14,3236,B,68.73103129921705,44.56893619495148,3.436551564960853,0.700087212641859,B,648.152708017733,Correct,sub_011_day_14_data.csv,1,300,129.0,Training at home,,,,,,,,,,,,,
11,14,3237,A,24.699157306560014,39.93829984463805,1.234957865328001,0.6273493469439065,A,1181.4112910069523,Correct,sub_011_day_14_data.csv,1,300,129.0,Training at home,,,,,,,,,,,,,
11,14,3238,A,22.59580697214948,52.41591394924405,1.1297903486074743,0.8233472509706993,A,529.5419999747537,Correct,sub_011_day_14_data.csv,1,300,129.0,Training at home,,,,,,,,,,,,,
11,14,3239,B,41.4525019778369,30.408204475819,2.0726250988918453,0.4776509589504461,B,638.3404579828493,Correct,sub_011_day_14_data.csv,1,300,129.0,Training at home,,,,,,,,,,,,,
11,14,3240,A,40.99868376104788,57.392285793745934,2.049934188052394,0.9015159171117902,A,565.5889159534127,Correct,sub_011_day_14_data.csv,1,300,129.0,Training at home,,,,,,,,,,,,,
11,14,3241,A,57.69928477926767,69.60153377131368,2.8849642389633834,1.0932983358727049,A,598.9683330408297,Correct,sub_011_day_14_data.csv,1,300,129.0,Training at home,,,,,,,,,,,,,
11,14,3242,A,42.38327111454563,53.37862839548444,2.119163555727282,0.8384695341297673,A,990.4170840163716,Correct,sub_011_day_14_data.csv,1,300,129.0,Training at home,,,,,,,,,,,,,
11,14,3243,B,55.653965708737395,37.52962339084879,2.7826982854368696,0.5895139456834111,B,3328.4421670250595,Correct,sub_011_day_14_data.csv,1,300,129.0,Training at home,,,,,,,,,,,,,
11,14,3244,B,55.72565623156473,28.55413087773811,2.786282811578236,0.4485272389757175,B,555.4349169833586,Correct,sub_011_day_14_data.csv,1,300,129.0,Training at home,,,,,,,,,,,,,
11,14,3245,B,54.79725781859047,39.29915632036387,2.7398628909295235,0.6173097039416601,B,434.0383749804459,Correct,sub_011_day_14_data.csv,1,300,129.0,Training at home,,,,,,,,,,,,,
11,14,3246,A,53.06848632416752,60.48531533529534,2.653424316208376,0.9501011115371296,A,559.2453749850392,Correct,sub_011_day_14_data.csv,1,300,129.0,Training at home,,,,,,,,,,,,,
11,14,3247,A,32.712788435621526,59.33361854807192,1.635639421781076,0.9320103007076092,A,742.738958040718,Correct,sub_011_day_14_data.csv,1,300,129.0,Training at home,,,,,,,,,,,,,
11,14,3248,A,38.9305397008757,48.005435571368935,1.946526985043785,0.7540676186169539,A,606.7928340053186,Correct,sub_011_day_14_data.csv,1,300,129.0,Training at home,,,,,,,,,,,,,
11,14,3249,A,60.10199506436024,74.75876243854024,3.0050997532180124,1.174307894341913,A,561.5199159947224,Correct,sub_011_day_14_data.csv,1,300,129.0,Training at home,,,,,,,,,,,,,
11,14,3250,A,44.316493952179584,53.969086501395445,2.2158246976089795,0.8477444283686799,A,475.35541700199246,Correct,sub_011_day_14_data.csv,1,300,130.0,Training at home,,,,,,,,,,,,,
11,14,3251,B,56.16061949060443,47.16823541426445,2.8080309745302214,0.7409169093012357,A,466.6995000443422,Incorrect,sub_011_day_14_data.csv,0,300,130.0,Training at home,,,,,,,,,,,,,
11,14,3252,A,64.04948701660813,88.66490946957776,3.202474350830406,1.3927451411041478,A,475.5191250005737,Correct,sub_011_day_14_data.csv,1,300,130.0,Training at home,,,,,,,,,,,,,
11,14,3253,B,84.51180935606018,66.67769256553319,4.225590467803009,1.0473707456109893,B,638.2914169807918,Correct,sub_011_day_14_data.csv,1,300,130.0,Training at home,,,,,,,,,,,,,
11,14,3254,B,51.46722599908093,23.464546642596048,2.5733612999540463,0.3685802367609739,B,460.5340419802815,Correct,sub_011_day_14_data.csv,1,300,130.0,Training at home,,,,,,,,,,,,,
11,14,3255,A,46.986033404295256,57.53826365981699,2.349301670214763,0.903808932069968,A,928.018249978777,Correct,sub_011_day_14_data.csv,1,300,130.0,Training at home,,,,,,,,,,,,,
11,14,3256,A,20.86914740485794,44.58166013896631,1.043457370242897,0.7002870798870674,A,583.9847080060281,Correct,sub_011_day_14_data.csv,1,300,130.0,Training at home,,,,,,,,,,,,,
11,14,3257,A,11.52502146625671,38.08514339790767,0.5762510733128355,0.5982400335489028,A,532.671749999281,Correct,sub_011_day_14_data.csv,1,300,130.0,Training at home,,,,,,,,,,,,,
11,14,3258,B,55.901504738604544,27.885218909707177,2.795075236930227,0.4380199943523962,B,513.1720000063069,Correct,sub_011_day_14_data.csv,1,300,130.0,Training at home,,,,,,,,,,,,,
11,14,3259,A,29.224412934192245,56.079969106318536,1.461220646709612,0.8809020947897644,A,522.7034999988973,Correct,sub_011_day_14_data.csv,1,300,130.0,Training at home,,,,,,,,,,,,,
11,14,3260,A,50.2650460099851,77.05206420644186,2.513252300499255,1.210330994274434,A,561.2231669947505,Correct,sub_011_day_14_data.csv,1,300,130.0,Training at home,,,,,,,,,,,,,
11,14,3261,B,75.39183938378518,59.52894624346714,3.769591969189259,0.9350785009720904,B,1290.374582982622,Correct,sub_011_day_14_data.csv,1,300,130.0,Training at home,,,,,,,,,,,,,
11,14,3262,A,49.91637686446054,57.989891040310354,2.495818843223027,0.9109030783735578,A,843.6499160015956,Correct,sub_011_day_14_data.csv,1,300,130.0,Training at home,,,,,,,,,,,,,
11,14,3263,B,55.40431239920376,37.08375919234025,2.7702156199601884,0.5825103272307454,B,635.5007499805652,Correct,sub_011_day_14_data.csv,1,300,130.0,Training at home,,,,,,,,,,,,,
11,14,3264,B,44.016604337215526,19.676186698167022,2.2008302168607763,0.3090728179081137,B,391.1001660162583,Correct,sub_011_day_14_data.csv,1,300,130.0,Training at home,,,,,,,,,,,,,
11,14,3265,B,47.5998904357436,28.37010483763121,2.3799945217871796,0.4456365646973723,B,514.2869169940241,Correct,sub_011_day_14_data.csv,1,300,130.0,Training at home,,,,,,,,,,,,,
11,14,3266,B,72.735959531444,58.349088429108065,3.6367979765722,0.9165453377627356,B,674.5610840152949,Correct,sub_011_day_14_data.csv,1,300,130.0,Training at home,,,,,,,,,,,,,
11,14,3267,A,44.885622248418045,62.647008688296495,2.244281112420902,0.984056911322641,A,928.7044170196168,Correct,sub_011_day_14_data.csv,1,300,130.0,Training at home,,,,,,,,,,,,,
11,14,3268,A,48.94079458124819,71.92363177445847,2.4470397290624093,1.1297737660106806,A,894.8612920357846,Correct,sub_011_day_14_data.csv,1,300,130.0,Training at home,,,,,,,,,,,,,
11,14,3269,A,47.84067568880342,60.18092844683308,2.392033784440171,0.945319813473919,A,698.6453339923173,Correct,sub_011_day_14_data.csv,1,300,130.0,Training at home,,,,,,,,,,,,,
11,14,3270,A,34.0454922589537,67.22923624844421,1.702274612947685,1.0560343735228248,A,513.9376670122147,Correct,sub_011_day_14_data.csv,1,300,130.0,Training at home,,,,,,,,,,,,,
11,14,3271,B,71.9851126256118,41.64520627738008,3.5992556312805903,0.6541613704912439,B,583.374791953247,Correct,sub_011_day_14_data.csv,1,300,130.0,Training at home,,,,,,,,,,,,,
11,14,3272,B,46.117076774423055,16.64151780657074,2.305853838721153,0.2614043504285318,B,501.42808398231864,Correct,sub_011_day_14_data.csv,1,300,130.0,Training at home,,,,,,,,,,,,,
11,14,3273,A,31.317400534843426,59.812125145278145,1.565870026742171,0.9395266647599956,A,495.7183750229888,Correct,sub_011_day_14_data.csv,1,300,130.0,Training at home,,,,,,,,,,,,,
11,14,3274,A,56.82672315866693,79.04529509735903,2.8413361579333465,1.241640591893502,A,552.4714589701034,Correct,sub_011_day_14_data.csv,1,300,130.0,Training at home,,,,,,,,,,,,,
11,14,3275,B,58.93961115487724,36.96508096546055,2.946980557743862,0.5806461340022138,B,566.5843330207281,Correct,sub_011_day_14_data.csv,1,300,131.0,Training at home,,,,,,,,,,,,,
11,14,3276,A,62.576412657693936,75.4019534827238,3.128820632884697,1.184411115638222,A,587.963416997809,Correct,sub_011_day_14_data.csv,1,300,131.0,Training at home,,,,,,,,,,,,,
11,14,3277,A,25.684460225355387,54.44824359060139,1.2842230112677695,0.8552710103255043,A,1190.562208998017,Correct,sub_011_day_14_data.csv,1,300,131.0,Training at home,,,,,,,,,,,,,
11,14,3278,B,73.38333461953059,52.6293904434432,3.6691667309765297,0.8267005319001501,A,847.6426670094952,Incorrect,sub_011_day_14_data.csv,0,300,131.0,Training at home,,,,,,,,,,,,,
11,14,3279,A,49.04135970264256,70.87722314701045,2.452067985132128,1.1133368177274623,A,492.2654590336606,Correct,sub_011_day_14_data.csv,1,300,131.0,Training at home,,,,,,,,,,,,,
11,14,3280,A,32.08957712048746,46.86819205614493,1.604478856024373,0.7362038392531021,A,486.1799579812214,Correct,sub_011_day_14_data.csv,1,300,131.0,Training at home,,,,,,,,,,,,,
11,14,3281,A,22.87215228904662,37.036872971756225,1.143607614452331,0.5817738402000385,A,580.4192500072531,Correct,sub_011_day_14_data.csv,1,300,131.0,Training at home,,,,,,,,,,,,,
11,14,3282,B,45.381277420981256,26.92727848188137,2.2690638710490627,0.422972701299225,B,389.8031249991618,Correct,sub_011_day_14_data.csv,1,300,131.0,Training at home,,,,,,,,,,,,,
11,14,3283,B,56.74554997648203,39.51235893397841,2.8372774988241014,0.6206586827649481,B,439.04399999883026,Correct,sub_011_day_14_data.csv,1,300,131.0,Training at home,,,,,,,,,,,,,
11,14,3284,B,56.041374922935915,37.18782346045665,2.8020687461467957,0.5841449649318239,B,429.305707977619,Correct,sub_011_day_14_data.csv,1,300,131.0,Training at home,,,,,,,,,,,,,
11,14,3285,B,40.37222731357821,29.844997945680767,2.01861136567891,0.4688041314627658,B,436.531790997833,Correct,sub_011_day_14_data.csv,1,300,131.0,Training at home,,,,,,,,,,,,,
11,14,3286,B,69.41704656377819,42.43342654782504,3.470852328188909,0.6665427055464461,B,515.9725409466773,Correct,sub_011_day_14_data.csv,1,300,131.0,Training at home,,,,,,,,,,,,,
11,14,3287,B,77.17787346551258,50.46274914252341,3.8588936732756287,0.7926670099304809,B,586.3936669775285,Correct,sub_011_day_14_data.csv,1,300,131.0,Training at home,,,,,,,,,,,,,
11,14,3288,A,42.4925161265605,53.244166819105445,2.1246258063280252,0.8363574166270554,A,709.5007080351934,Correct,sub_011_day_14_data.csv,1,300,131.0,Training at home,,,,,,,,,,,,,
11,14,3289,B,63.655400592998525,39.55230619156424,3.182770029649926,0.6212861728197615,B,641.3145840051584,Correct,sub_011_day_14_data.csv,1,300,131.0,Training at home,,,,,,,,,,,,,
11,14,3290,A,36.74235748075456,44.47101989059779,1.837117874037728,0.6985491469297378,B,849.9118750332855,Incorrect,sub_011_day_14_data.csv,0,300,131.0,Training at home,,,,,,,,,,,,,
11,14,3291,B,44.61450315148577,15.670492737969344,2.2307251575742884,0.2461515243186834,B,892.0704579795711,Correct,sub_011_day_14_data.csv,1,300,131.0,Training at home,,,,,,,,,,,,,
11,14,3292,B,64.88271694084735,36.39175660639805,3.244135847042367,0.5716403760294395,B,682.2569590294734,Correct,sub_011_day_14_data.csv,1,300,131.0,Training at home,,,,,,,,,,,,,
11,14,3293,B,53.32594189082896,37.52703035235013,2.666297094541448,0.5894732143299216,B,445.2980409841985,Correct,sub_011_day_14_data.csv,1,300,131.0,Training at home,,,,,,,,,,,,,
11,14,3294,A,23.28820697700895,49.475152061362486,1.1644103488504476,0.7771538712560714,A,540.7014999655075,Correct,sub_011_day_14_data.csv,1,300,131.0,Training at home,,,,,,,,,,,,,
11,14,3295,A,57.87187874347635,66.57418409258538,2.8935939371738173,1.0457448383200036,B,540.7778749940917,Incorrect,sub_011_day_14_data.csv,0,300,131.0,Training at home,,,,,,,,,,,,,
11,14,3296,B,35.39933260462405,24.26665969503925,1.7699666302312025,0.3811797991254942,B,435.2314170100726,Correct,sub_011_day_14_data.csv,1,300,131.0,Training at home,,,,,,,,,,,,,
11,14,3297,A,53.593927315643995,77.63991800706505,2.6796963657822,1.2195649801815474,A,461.56820899341255,Correct,sub_011_day_14_data.csv,1,300,131.0,Training at home,,,,,,,,,,,,,
11,14,3298,B,44.88450259320704,32.147804247571806,2.244225129660352,0.5049765282660716,B,528.163917013444,Correct,sub_011_day_14_data.csv,1,300,131.0,Training at home,,,,,,,,,,,,,
11,14,3299,B,60.52569199005868,29.206988399801347,3.026284599502934,0.4587823009514911,B,518.4310000040568,Correct,sub_011_day_14_data.csv,1,300,131.0,Training at home,,,,,,,,,,,,,
