subject,day,trial,cat,x,y,xt,yt,resp,rt,fb,f_name,acc,n_trials,block,session_type,ns_left_digit,ns_right_digit,ns_left_size,ns_right_size,ns_congruent,ns_cue,ns_correct_side,ns_resp,ns_rt,ns_fb,acc_stroop,acc_stroop_mean,resp_key
11,18,3900,A,52.00433582392564,62.90309871818095,2.6002167911962824,0.988079564105354,B,1391.6807089699432,Incorrect,sub_011_day_18_data.csv,0,300,156.0,Training at home,,,,,,,,,,,,,
11,18,3901,B,59.25674839086367,42.21276057799322,2.9628374195431837,0.6630764925978417,B,767.6959169912152,Correct,sub_011_day_18_data.csv,1,300,156.0,Training at home,,,,,,,,,,,,,
11,18,3902,B,44.40445277434868,28.250823822681333,2.2202226387174337,0.443762902895976,B,638.5346669703722,Correct,sub_011_day_18_data.csv,1,300,156.0,Training at home,,,,,,,,,,,,,
11,18,3903,A,25.89284247056797,57.552071771483256,1.2946421235283987,0.9040258293808217,A,533.7953750276938,Correct,sub_011_day_18_data.csv,1,300,156.0,Training at home,,,,,,,,,,,,,
11,18,3904,A,43.03534534660488,70.64618305330718,2.151767267330244,1.109707648422148,A,710.8232919708826,Correct,sub_011_day_18_data.csv,1,300,156.0,Training at home,,,,,,,,,,,,,
11,18,3905,A,39.559620025921824,71.65704763856135,1.977981001296091,1.125586272196191,A,449.56566602922976,Correct,sub_011_day_18_data.csv,1,300,156.0,Training at home,,,,,,,,,,,,,
11,18,3906,A,27.014248413173892,47.47618537015106,1.3507124206586945,0.745754175896669,A,975.2325000008568,Correct,sub_011_day_18_data.csv,1,300,156.0,Training at home,,,,,,,,,,,,,
11,18,3907,B,43.57234275574602,17.73846523428229,2.178617137787301,0.278635160329896,B,861.01512494497,Correct,sub_011_day_18_data.csv,1,300,156.0,Training at home,,,,,,,,,,,,,
11,18,3908,A,52.10336236397109,70.7369761062858,2.6051681181985544,1.111133822363321,A,763.3649159688503,Correct,sub_011_day_18_data.csv,1,300,156.0,Training at home,,,,,,,,,,,,,
11,18,3909,B,71.34409743242969,51.551955991097486,3.5672048716214846,0.8097762310990808,B,950.9555000113324,Correct,sub_011_day_18_data.csv,1,300,156.0,Training at home,,,,,,,,,,,,,
11,18,3910,B,56.18211242858789,40.94699909666562,2.8091056214293944,0.643193957743163,B,927.9305000090972,Correct,sub_011_day_18_data.csv,1,300,156.0,Training at home,,,,,,,,,,,,,
11,18,3911,B,57.90793422238019,26.29108489908489,2.8953967111190093,0.4129793958693531,B,520.7200419972651,Correct,sub_011_day_18_data.csv,1,300,156.0,Training at home,,,,,,,,,,,,,
11,18,3912,B,53.14803182554529,36.72050087515396,2.657401591277264,0.5768042789276063,B,523.0417089769617,Correct,sub_011_day_18_data.csv,1,300,156.0,Training at home,,,,,,,,,,,,,
11,18,3913,B,57.66465418355383,26.525587709042405,2.8832327091776917,0.4166629573943966,B,532.9518750077114,Correct,sub_011_day_18_data.csv,1,300,156.0,Training at home,,,,,,,,,,,,,
11,18,3914,A,29.63177872706432,53.3186593587403,1.481588936353216,0.8375275427033759,A,635.0539170089178,Correct,sub_011_day_18_data.csv,1,300,156.0,Training at home,,,,,,,,,,,,,
11,18,3915,A,47.47441346846889,55.81271019305005,2.3737206734234446,0.8767040015971109,A,533.1582920043729,Correct,sub_011_day_18_data.csv,1,300,156.0,Training at home,,,,,,,,,,,,,
11,18,3916,B,35.358431462624836,19.48853617814644,1.7679215731312417,0.3061252104324188,B,561.8774999747984,Correct,sub_011_day_18_data.csv,1,300,156.0,Training at home,,,,,,,,,,,,,
11,18,3917,B,65.3431392224616,36.30343787575159,3.26715696112308,0.5702530686525733,B,846.8487500213087,Correct,sub_011_day_18_data.csv,1,300,156.0,Training at home,,,,,,,,,,,,,
11,18,3918,A,34.21150059052446,60.69219173133057,1.7105750295262228,0.9533507183670564,A,554.9184170085937,Correct,sub_011_day_18_data.csv,1,300,156.0,Training at home,,,,,,,,,,,,,
11,18,3919,B,83.57921089680968,59.1032396183022,4.178960544840484,0.9283915169410768,B,580.7200410054065,Correct,sub_011_day_18_data.csv,1,300,156.0,Training at home,,,,,,,,,,,,,
11,18,3920,B,55.29721658459797,23.821977707275295,2.7648608292298986,0.3741947507957794,B,478.4865000401623,Correct,sub_011_day_18_data.csv,1,300,156.0,Training at home,,,,,,,,,,,,,
11,18,3921,B,70.34550512455833,58.3619725417469,3.5172752562279164,0.9167477209308064,B,526.6152499825694,Correct,sub_011_day_18_data.csv,1,300,156.0,Training at home,,,,,,,,,,,,,
11,18,3922,A,43.197089600530674,70.4064229859417,2.159854480026534,1.10594150609085,A,594.9326669797301,Correct,sub_011_day_18_data.csv,1,300,156.0,Training at home,,,,,,,,,,,,,
11,18,3923,B,77.8676987463413,45.876693347737735,3.8933849373170655,0.720629413961223,B,447.1437080064789,Correct,sub_011_day_18_data.csv,1,300,156.0,Training at home,,,,,,,,,,,,,
11,18,3924,B,70.02842359791478,39.43513031625367,3.501421179895739,0.6194455784744932,B,493.58524999115616,Correct,sub_011_day_18_data.csv,1,300,156.0,Training at home,,,,,,,,,,,,,
11,18,3925,A,16.886106690285175,46.16877863383869,0.8443053345142587,0.7252174789064051,A,562.2754999785684,Correct,sub_011_day_18_data.csv,1,300,157.0,Training at home,,,,,,,,,,,,,
11,18,3926,A,48.2135197115627,64.850882835819,2.410675985578135,1.0186752854791066,A,456.8712079781107,Correct,sub_011_day_18_data.csv,1,300,157.0,Training at home,,,,,,,,,,,,,
11,18,3927,B,36.605830017734185,12.798085288667178,1.830291500886709,0.201031853614462,B,474.61766604101285,Correct,sub_011_day_18_data.csv,1,300,157.0,Training at home,,,,,,,,,,,,,
11,18,3928,A,11.00808601592389,31.78694123901058,0.5504043007961945,0.4993081053828303,A,481.2481250264682,Correct,sub_011_day_18_data.csv,1,300,157.0,Training at home,,,,,,,,,,,,,
11,18,3929,B,85.86550082047751,63.008895539877855,4.293275041023875,0.9897414166944348,B,598.0582920019515,Correct,sub_011_day_18_data.csv,1,300,157.0,Training at home,,,,,,,,,,,,,
11,18,3930,B,63.799896450576774,52.54412740554519,3.189994822528839,0.8253612232327343,B,514.7752499906346,Correct,sub_011_day_18_data.csv,1,300,157.0,Training at home,,,,,,,,,,,,,
11,18,3931,B,57.933048853405786,33.97098548989994,2.8966524426702893,0.5336149922513755,B,503.01958300406113,Correct,sub_011_day_18_data.csv,1,300,157.0,Training at home,,,,,,,,,,,,,
11,18,3932,A,49.25831295618917,71.89447592746842,2.4629156478094587,1.1293157870371149,A,883.7727080099285,Correct,sub_011_day_18_data.csv,1,300,157.0,Training at home,,,,,,,,,,,,,
11,18,3933,A,39.35332066164134,57.52717912609447,1.967666033082067,0.9036348166214124,A,482.2275000042282,Correct,sub_011_day_18_data.csv,1,300,157.0,Training at home,,,,,,,,,,,,,
11,18,3934,A,30.861915466152624,57.969290298601656,1.5430957733076311,0.9105794826795052,A,454.3011249625124,Correct,sub_011_day_18_data.csv,1,300,157.0,Training at home,,,,,,,,,,,,,
11,18,3935,B,72.84571807429792,62.98642813534071,3.642285903714896,0.9893884995292392,B,1086.3280420308,Correct,sub_011_day_18_data.csv,1,300,157.0,Training at home,,,,,,,,,,,,,
11,18,3936,B,52.57864659848092,43.4727244573178,2.628932329924046,0.6828679589332146,B,919.616082974244,Correct,sub_011_day_18_data.csv,1,300,157.0,Training at home,,,,,,,,,,,,,
11,18,3937,A,67.7986206739164,82.69641782497678,3.38993103369582,1.298992293585695,A,686.2219590111636,Correct,sub_011_day_18_data.csv,1,300,157.0,Training at home,,,,,,,,,,,,,
11,18,3938,B,78.48301585646094,50.47179206028137,3.9241507928230472,0.7928090557504581,B,546.875124971848,Correct,sub_011_day_18_data.csv,1,300,157.0,Training at home,,,,,,,,,,,,,
11,18,3939,A,50.85996222586959,59.29219064996993,2.5429981112934796,0.9313595528059548,A,1234.8526660352943,Correct,sub_011_day_18_data.csv,1,300,157.0,Training at home,,,,,,,,,,,,,
11,18,3940,B,67.35810724473137,37.075087391988,3.3679053622365687,0.5823741109093453,B,576.8167909700423,Correct,sub_011_day_18_data.csv,1,300,157.0,Training at home,,,,,,,,,,,,,
11,18,3941,A,23.117768853894383,41.071955255928366,1.1558884426947191,0.6451567645029662,A,576.6454159747809,Correct,sub_011_day_18_data.csv,1,300,157.0,Training at home,,,,,,,,,,,,,
11,18,3942,B,81.08086216640122,53.1362860776203,4.054043108320061,0.8346628299024877,B,618.8161660102196,Correct,sub_011_day_18_data.csv,1,300,157.0,Training at home,,,,,,,,,,,,,
11,18,3943,A,47.094674957804784,65.7816646714762,2.354733747890239,1.033295972364084,A,784.9989169626497,Correct,sub_011_day_18_data.csv,1,300,157.0,Training at home,,,,,,,,,,,,,
11,18,3944,A,45.09423530162586,59.71021451519683,2.254711765081293,0.9379258563260652,A,538.6247090063989,Correct,sub_011_day_18_data.csv,1,300,157.0,Training at home,,,,,,,,,,,,,
11,18,3945,A,19.405693410126023,35.22168752964051,0.9702846705063012,0.5532609739507693,A,557.2735420428216,Correct,sub_011_day_18_data.csv,1,300,157.0,Training at home,,,,,,,,,,,,,
11,18,3946,B,52.09663171746996,43.62816482401468,2.604831585873498,0.6853096105036458,B,957.576707995031,Correct,sub_011_day_18_data.csv,1,300,157.0,Training at home,,,,,,,,,,,,,
11,18,3947,A,26.62995119533047,42.9022012374801,1.3314975597665235,0.6739062011524921,A,476.13983403425664,Correct,sub_011_day_18_data.csv,1,300,157.0,Training at home,,,,,,,,,,,,,
11,18,3948,B,40.913863034509426,27.64058704837732,2.0456931517254713,0.4341773260604569,B,512.1758749592118,Correct,sub_011_day_18_data.csv,1,300,157.0,Training at home,,,,,,,,,,,,,
11,18,3949,B,70.29839660721117,39.268052734517866,3.514919830360559,0.6168211299576896,B,491.061125008855,Correct,sub_011_day_18_data.csv,1,300,157.0,Training at home,,,,,,,,,,,,,
11,18,3950,B,45.42879611139404,31.69100117501342,2.271439805569702,0.4978010823816383,B,429.7759579494595,Correct,sub_011_day_18_data.csv,1,300,158.0,Training at home,,,,,,,,,,,,,
11,18,3951,B,41.95520109660843,28.213837065705363,2.097760054830421,0.4431819162759968,B,583.110083010979,Correct,sub_011_day_18_data.csv,1,300,158.0,Training at home,,,,,,,,,,,,,
11,18,3952,B,37.299688876109805,16.152750440500267,1.86498444380549,0.2537268105957246,B,723.1026670197025,Correct,sub_011_day_18_data.csv,1,300,158.0,Training at home,,,,,,,,,,,,,
11,18,3953,B,61.080901380995854,34.667152880602615,3.0540450690497924,0.544550364052877,B,610.1270840154029,Correct,sub_011_day_18_data.csv,1,300,158.0,Training at home,,,,,,,,,,,,,
11,18,3954,B,78.78475636394022,60.0541673371039,3.939237818197011,0.9433286546184884,B,622.4152499926277,Correct,sub_011_day_18_data.csv,1,300,158.0,Training at home,,,,,,,,,,,,,
11,18,3955,A,29.868423065682112,62.41965865736093,1.4934211532841055,0.980485705387738,A,457.4654169846326,Correct,sub_011_day_18_data.csv,1,300,158.0,Training at home,,,,,,,,,,,,,
11,18,3956,A,47.36433337756446,60.943457170318005,2.3682166688782234,0.9572975866531764,A,1309.0560829732567,Correct,sub_011_day_18_data.csv,1,300,158.0,Training at home,,,,,,,,,,,,,
11,18,3957,A,46.80408161702494,68.2020300366367,2.340204080851247,1.0713149826150414,A,646.6470420127735,Correct,sub_011_day_18_data.csv,1,300,158.0,Training at home,,,,,,,,,,,,,
11,18,3958,B,87.63005083891521,60.569528119944515,4.3815025419457605,0.9514239228650904,B,730.3534159436822,Correct,sub_011_day_18_data.csv,1,300,158.0,Training at home,,,,,,,,,,,,,
11,18,3959,B,46.52176026322931,27.10710102758091,2.3260880131614656,0.4257973472418225,B,544.2931670113467,Correct,sub_011_day_18_data.csv,1,300,158.0,Training at home,,,,,,,,,,,,,
11,18,3960,B,80.68865524559752,64.17573879518675,4.0344327622798755,1.0080701476882807,B,532.117584021762,Correct,sub_011_day_18_data.csv,1,300,158.0,Training at home,,,,,,,,,,,,,
11,18,3961,B,65.12839235648778,49.48127357929494,3.256419617824389,0.7772500278348986,B,477.4476669845171,Correct,sub_011_day_18_data.csv,1,300,158.0,Training at home,,,,,,,,,,,,,
11,18,3962,A,46.420427250598195,70.48734843999753,2.32102136252991,1.107212680150601,A,665.589916985482,Correct,sub_011_day_18_data.csv,1,300,158.0,Training at home,,,,,,,,,,,,,
11,18,3963,B,46.524923659615936,21.591382050280227,2.326246182980797,0.3391566361500545,B,742.158415960148,Correct,sub_011_day_18_data.csv,1,300,158.0,Training at home,,,,,,,,,,,,,
11,18,3964,A,47.65092968115152,62.571579950679265,2.3825464840575763,0.982872079482802,A,739.9281659745611,Correct,sub_011_day_18_data.csv,1,300,158.0,Training at home,,,,,,,,,,,,,
11,18,3965,A,53.754460344027066,81.53687039771592,2.6877230172013533,1.2807781651908372,A,578.0845410190523,Correct,sub_011_day_18_data.csv,1,300,158.0,Training at home,,,,,,,,,,,,,
11,18,3966,B,39.982677267460225,21.43752453648192,1.9991338633730111,0.3367398479748126,B,461.3067499594763,Correct,sub_011_day_18_data.csv,1,300,158.0,Training at home,,,,,,,,,,,,,
11,18,3967,A,40.93143293462105,60.89332795002563,2.0465716467310524,0.9565101587021728,A,518.179707985837,Correct,sub_011_day_18_data.csv,1,300,158.0,Training at home,,,,,,,,,,,,,
11,18,3968,B,79.70458210257388,66.26757039766304,3.985229105128694,1.0409285616627133,B,517.1772500034422,Correct,sub_011_day_18_data.csv,1,300,158.0,Training at home,,,,,,,,,,,,,
11,18,3969,B,54.49960137816549,45.95855273458792,2.724980068908274,0.7219152582030026,B,802.9611250385642,Correct,sub_011_day_18_data.csv,1,300,158.0,Training at home,,,,,,,,,,,,,
11,18,3970,A,44.642133815480626,74.88876096553446,2.2321066907740312,1.1763499064288256,A,476.011999999173,Correct,sub_011_day_18_data.csv,1,300,158.0,Training at home,,,,,,,,,,,,,
11,18,3971,A,12.225767248952216,38.692336495810466,0.6112883624476109,0.6077778004273119,A,567.7078750450164,Correct,sub_011_day_18_data.csv,1,300,158.0,Training at home,,,,,,,,,,,,,
11,18,3972,B,41.04601869840749,23.124183169258743,2.0523009349203742,0.36323381982404,B,468.1606669910252,Correct,sub_011_day_18_data.csv,1,300,158.0,Training at home,,,,,,,,,,,,,
11,18,3973,B,87.94272275769322,63.32816209561844,4.397136137884661,0.9947564440246924,B,541.2195829558186,Correct,sub_011_day_18_data.csv,1,300,158.0,Training at home,,,,,,,,,,,,,
11,18,3974,A,34.937462664643654,53.43631976661436,1.7468731332321823,0.8393757480683536,A,468.4800420072861,Correct,sub_011_day_18_data.csv,1,300,158.0,Training at home,,,,,,,,,,,,,
11,18,3975,A,44.77890906868067,65.42341766543792,2.2389454534340336,1.0276686415523824,A,483.72883402043954,Correct,sub_011_day_18_data.csv,1,300,159.0,Training at home,,,,,,,,,,,,,
11,18,3976,A,40.3484458439933,57.67072405468689,2.0174222921996647,0.9058896150870424,A,574.1784169804305,Correct,sub_011_day_18_data.csv,1,300,159.0,Training at home,,,,,,,,,,,,,
11,18,3977,A,18.740101524440433,42.59198858060275,0.9370050762220216,0.6690333921330098,A,542.1474580070935,Correct,sub_011_day_18_data.csv,1,300,159.0,Training at home,,,,,,,,,,,,,
11,18,3978,A,16.94987681567113,37.68393114237149,0.8474938407835565,0.5919378061762894,A,537.1184590039775,Correct,sub_011_day_18_data.csv,1,300,159.0,Training at home,,,,,,,,,,,,,
11,18,3979,A,47.457523095994205,56.96534913798556,2.37287615479971,0.8948096118053656,A,1538.4831660194322,Correct,sub_011_day_18_data.csv,1,300,159.0,Training at home,,,,,,,,,,,,,
11,18,3980,A,57.49011493662323,70.4152423829976,2.8745057468311614,1.1060800408558495,A,666.9348339783028,Correct,sub_011_day_18_data.csv,1,300,159.0,Training at home,,,,,,,,,,,,,
11,18,3981,A,24.18051292337738,51.02812803262992,1.2090256461688689,0.8015479607687477,A,471.09829203691334,Correct,sub_011_day_18_data.csv,1,300,159.0,Training at home,,,,,,,,,,,,,
11,18,3982,A,62.224745227254786,81.85138600846102,3.1112372613627395,1.2857185648516176,A,548.1153330183588,Correct,sub_011_day_18_data.csv,1,300,159.0,Training at home,,,,,,,,,,,,,
11,18,3983,B,48.675933147890525,33.87486776180959,2.4337966573945264,0.5321051785091335,B,605.0797500065528,Correct,sub_011_day_18_data.csv,1,300,159.0,Training at home,,,,,,,,,,,,,
11,18,3984,B,52.08992980438003,38.06003927776411,2.6044964902190015,0.5978456989518135,B,1153.957167000044,Correct,sub_011_day_18_data.csv,1,300,159.0,Training at home,,,,,,,,,,,,,
11,18,3985,A,39.8584040815072,53.68873704931653,1.99292020407536,0.8433407094732348,A,944.496917014476,Correct,sub_011_day_18_data.csv,1,300,159.0,Training at home,,,,,,,,,,,,,
11,18,3986,A,13.023297362641724,35.43066749407726,0.6511648681320863,0.556543623555879,A,426.1086250189692,Correct,sub_011_day_18_data.csv,1,300,159.0,Training at home,,,,,,,,,,,,,
11,18,3987,B,74.99573972914826,62.80517638644331,3.749786986457413,0.9865414037153072,B,796.1135829682462,Correct,sub_011_day_18_data.csv,1,300,159.0,Training at home,,,,,,,,,,,,,
11,18,3988,A,40.08487196746761,51.51313891328384,2.004243598373381,0.809166493866615,A,548.8990839803591,Correct,sub_011_day_18_data.csv,1,300,159.0,Training at home,,,,,,,,,,,,,
11,18,3989,A,29.96775104222202,55.41434945620168,1.4983875521111008,0.8704465657753038,A,495.55670795962214,Correct,sub_011_day_18_data.csv,1,300,159.0,Training at home,,,,,,,,,,,,,
11,18,3990,B,77.37374189719719,48.8685015639461,3.868687094859859,0.7676246275261718,B,852.2815830074251,Correct,sub_011_day_18_data.csv,1,300,159.0,Training at home,,,,,,,,,,,,,
11,18,3991,A,43.53602550589859,51.09152875584425,2.1768012752949293,0.8025438570001597,A,1224.3923749774694,Correct,sub_011_day_18_data.csv,1,300,159.0,Training at home,,,,,,,,,,,,,
11,18,3992,A,26.048249620142975,46.46261720902435,1.302412481007149,0.7298330844521279,A,468.9014590112493,Correct,sub_011_day_18_data.csv,1,300,159.0,Training at home,,,,,,,,,,,,,
11,18,3993,B,34.18330147040956,19.933645562283324,1.709165073520478,0.3131169722886603,B,711.224582977593,Correct,sub_011_day_18_data.csv,1,300,159.0,Training at home,,,,,,,,,,,,,
11,18,3994,A,31.00327994983771,59.21476666926503,1.5501639974918855,0.9301433797609838,A,488.1329159834422,Correct,sub_011_day_18_data.csv,1,300,159.0,Training at home,,,,,,,,,,,,,
11,18,3995,A,45.540363061419555,68.88218585238465,2.2770181530709777,1.081998845185292,A,574.0029590087943,Correct,sub_011_day_18_data.csv,1,300,159.0,Training at home,,,,,,,,,,,,,
11,18,3996,A,20.21111263015693,34.31838313181898,1.0105556315078466,0.539071901650012,A,538.8640000019222,Correct,sub_011_day_18_data.csv,1,300,159.0,Training at home,,,,,,,,,,,,,
11,18,3997,A,39.02739466302838,47.50121157961225,1.9513697331514193,0.7461472866756212,A,530.7314589736052,Correct,sub_011_day_18_data.csv,1,300,159.0,Training at home,,,,,,,,,,,,,
11,18,3998,B,66.88307030956358,43.68827090158357,3.3441535154781787,0.6862537545622782,B,900.5420000175945,Correct,sub_011_day_18_data.csv,1,300,159.0,Training at home,,,,,,,,,,,,,
11,18,3999,B,68.79286628558415,51.559961839068535,3.439643314279208,0.809901986664939,B,1181.7966669914313,Correct,sub_011_day_18_data.csv,1,300,159.0,Training at home,,,,,,,,,,,,,
11,18,4000,A,14.261692429155024,32.36491970341061,0.7130846214577511,0.5083869698712915,A,574.3122919811867,Correct,sub_011_day_18_data.csv,1,300,160.0,Training at home,,,,,,,,,,,,,
11,18,4001,A,21.730585024119453,34.83883745961606,1.0865292512059723,0.5472471791136935,A,605.1411250373349,Correct,sub_011_day_18_data.csv,1,300,160.0,Training at home,,,,,,,,,,,,,
11,18,4002,B,56.75964339215379,28.14244311085215,2.83798216960769,0.442060462655609,B,546.4228329947218,Correct,sub_011_day_18_data.csv,1,300,160.0,Training at home,,,,,,,,,,,,,
11,18,4003,A,66.04258437441925,78.69561788066805,3.302129218720962,1.2361478750180817,A,760.2118749637157,Correct,sub_011_day_18_data.csv,1,300,160.0,Training at home,,,,,,,,,,,,,
11,18,4004,B,43.57599182931918,31.56315367097224,2.178799591465959,0.4957928584842605,B,532.4027499882504,Correct,sub_011_day_18_data.csv,1,300,160.0,Training at home,,,,,,,,,,,,,
11,18,4005,B,74.8081503712706,45.55097628426754,3.7404075185635297,0.7155130622924891,B,463.9038329478353,Correct,sub_011_day_18_data.csv,1,300,160.0,Training at home,,,,,,,,,,,,,
11,18,4006,A,41.70659034918002,64.51754877757779,2.085329517459001,1.0134392863362975,A,653.0046249972656,Correct,sub_011_day_18_data.csv,1,300,160.0,Training at home,,,,,,,,,,,,,
11,18,4007,A,24.031499474337025,52.02998596384426,1.2015749737168513,0.8172851083519659,A,437.8804999869317,Correct,sub_011_day_18_data.csv,1,300,160.0,Training at home,,,,,,,,,,,,,
11,18,4008,A,60.79152128770601,80.31116723101054,3.0395760643853005,1.2615248648708204,A,1066.1715000169352,Correct,sub_011_day_18_data.csv,1,300,160.0,Training at home,,,,,,,,,,,,,
11,18,4009,A,19.907475435410113,49.093868467532566,0.9953737717705056,0.7711646825695194,A,1016.6091669816524,Correct,sub_011_day_18_data.csv,1,300,160.0,Training at home,,,,,,,,,,,,,
11,18,4010,A,39.76445020026324,64.87132789739526,1.988222510013162,1.0189964357553578,A,557.4980829842389,Correct,sub_011_day_18_data.csv,1,300,160.0,Training at home,,,,,,,,,,,,,
11,18,4011,A,13.340599082521091,33.63349867774545,0.6670299541260546,0.5283137618026357,A,490.34899997059256,Correct,sub_011_day_18_data.csv,1,300,160.0,Training at home,,,,,,,,,,,,,
11,18,4012,A,25.125915930986913,52.10319711070256,1.2562957965493455,0.8184351063576205,A,430.189042002894,Correct,sub_011_day_18_data.csv,1,300,160.0,Training at home,,,,,,,,,,,,,
11,18,4013,B,76.83296529295038,53.93161494126112,3.8416482646475183,0.8471558264784973,B,544.1424999735318,Correct,sub_011_day_18_data.csv,1,300,160.0,Training at home,,,,,,,,,,,,,
11,18,4014,B,56.47241798109036,26.20654987020907,2.823620899054518,0.4116515227409167,B,473.4186250134371,Correct,sub_011_day_18_data.csv,1,300,160.0,Training at home,,,,,,,,,,,,,
11,18,4015,B,33.64262831613318,11.138832107135872,1.6821314158066587,0.1749683655867408,B,722.5442500202917,Correct,sub_011_day_18_data.csv,1,300,160.0,Training at home,,,,,,,,,,,,,
11,18,4016,A,35.98686487078372,58.633005154282486,1.799343243539186,0.9210050912529316,A,459.09695798764005,Correct,sub_011_day_18_data.csv,1,300,160.0,Training at home,,,,,,,,,,,,,
11,18,4017,B,61.05916635507304,36.29883636042778,3.0529583177536517,0.5701807882188898,B,671.0601249942556,Correct,sub_011_day_18_data.csv,1,300,160.0,Training at home,,,,,,,,,,,,,
11,18,4018,A,27.94503207225561,55.719583075583536,1.397251603612781,0.8752411642566971,A,494.5037909783423,Correct,sub_011_day_18_data.csv,1,300,160.0,Training at home,,,,,,,,,,,,,
11,18,4019,A,65.14950090743889,81.96776483198477,3.2574750453719448,1.287546639136696,A,752.0103749702685,Correct,sub_011_day_18_data.csv,1,300,160.0,Training at home,,,,,,,,,,,,,
11,18,4020,B,41.433059065542,31.996700030442607,2.0716529532771,0.502602988773774,B,587.1141250245273,Correct,sub_011_day_18_data.csv,1,300,160.0,Training at home,,,,,,,,,,,,,
11,18,4021,B,79.624366952719,64.18607072580835,3.9812183476359504,1.008232441274972,A,428.9973329869099,Incorrect,sub_011_day_18_data.csv,0,300,160.0,Training at home,,,,,,,,,,,,,
11,18,4022,A,65.11441041849535,79.67942823841322,3.255720520924768,1.2516015319801703,A,916.1900829640216,Correct,sub_011_day_18_data.csv,1,300,160.0,Training at home,,,,,,,,,,,,,
11,18,4023,A,56.077494088375815,72.12421960896212,2.803874704418791,1.1329245923470617,A,449.5164999971166,Correct,sub_011_day_18_data.csv,1,300,160.0,Training at home,,,,,,,,,,,,,
11,18,4024,B,75.16845781434463,50.85084566585692,3.758422890717231,0.7987632158634224,B,480.62658397248015,Correct,sub_011_day_18_data.csv,1,300,160.0,Training at home,,,,,,,,,,,,,
11,18,4025,B,71.06867214145444,42.910896544812694,3.553433607072722,0.674042786720676,B,538.6919589946046,Correct,sub_011_day_18_data.csv,1,300,161.0,Training at home,,,,,,,,,,,,,
11,18,4026,A,62.423339687330504,74.7956729009688,3.1211669843665253,1.1748876825299437,A,621.3452919619158,Correct,sub_011_day_18_data.csv,1,300,161.0,Training at home,,,,,,,,,,,,,
11,18,4027,A,36.20854780249977,66.35849719674363,1.8104273901249883,1.0423568364827434,A,561.1539169913158,Correct,sub_011_day_18_data.csv,1,300,161.0,Training at home,,,,,,,,,,,,,
11,18,4028,A,51.85818137651022,66.88691729587073,2.592909068825511,1.0506572399898777,A,433.35954198846593,Correct,sub_011_day_18_data.csv,1,300,161.0,Training at home,,,,,,,,,,,,,
11,18,4029,B,56.26823223749462,31.06590400738175,2.813411611874731,0.4879820790335811,B,509.6120420494117,Correct,sub_011_day_18_data.csv,1,300,161.0,Training at home,,,,,,,,,,,,,
11,18,4030,A,50.31539113282152,76.92722303606078,2.5157695566410765,1.2083699937557604,A,531.8145420169458,Correct,sub_011_day_18_data.csv,1,300,161.0,Training at home,,,,,,,,,,,,,
11,18,4031,A,18.20783319689454,41.00365650350504,0.910391659844727,0.644083930208654,A,608.3791669807397,Correct,sub_011_day_18_data.csv,1,300,161.0,Training at home,,,,,,,,,,,,,
11,18,4032,A,12.939046284750198,39.074669680439726,0.6469523142375099,0.6137834760475863,A,502.47700000181794,Correct,sub_011_day_18_data.csv,1,300,161.0,Training at home,,,,,,,,,,,,,
11,18,4033,A,33.54583173417391,51.7710017148066,1.6772915867086953,0.813216993281105,A,477.4327920167707,Correct,sub_011_day_18_data.csv,1,300,161.0,Training at home,,,,,,,,,,,,,
11,18,4034,A,59.42860272105007,82.73831929446928,2.9714301360525037,1.2996504803293567,A,683.15795797389,Correct,sub_011_day_18_data.csv,1,300,161.0,Training at home,,,,,,,,,,,,,
11,18,4035,A,23.568030405634417,48.28946528740395,1.1784015202817208,0.7585291469634379,A,435.0958340219222,Correct,sub_011_day_18_data.csv,1,300,161.0,Training at home,,,,,,,,,,,,,
11,18,4036,B,61.342727005129255,44.56549280430803,3.067136350256463,0.7000331239881145,B,1050.3051669802517,Correct,sub_011_day_18_data.csv,1,300,161.0,Training at home,,,,,,,,,,,,,
11,18,4037,B,54.73753251407637,42.71636842146381,2.736876625703818,0.6709871461045287,B,926.3908750144764,Correct,sub_011_day_18_data.csv,1,300,161.0,Training at home,,,,,,,,,,,,,
11,18,4038,A,31.01114426036941,42.747099138912375,1.5505572130184704,0.6714698630854085,A,1728.7279589800164,Correct,sub_011_day_18_data.csv,1,300,161.0,Training at home,,,,,,,,,,,,,
11,18,4039,B,42.67412035973673,25.28737769313617,2.133706017986837,0.397213199946535,B,644.6350000333041,Correct,sub_011_day_18_data.csv,1,300,161.0,Training at home,,,,,,,,,,,,,
11,18,4040,A,41.10337946047318,63.383433935330146,2.055168973023659,0.995624652052636,A,529.4414170202799,Correct,sub_011_day_18_data.csv,1,300,161.0,Training at home,,,,,,,,,,,,,
11,18,4041,A,19.17603493829725,43.90367434096787,0.9588017469148624,0.6896373038759168,A,517.8509159595706,Correct,sub_011_day_18_data.csv,1,300,161.0,Training at home,,,,,,,,,,,,,
11,18,4042,A,50.88032061636313,69.02666169348439,2.5440160308181565,1.0842682663903926,A,641.6976250475273,Correct,sub_011_day_18_data.csv,1,300,161.0,Training at home,,,,,,,,,,,,,
11,18,4043,B,77.78212546637022,65.25040487064103,3.8891062733185104,1.0249509629268276,B,1100.9074169560336,Correct,sub_011_day_18_data.csv,1,300,161.0,Training at home,,,,,,,,,,,,,
11,18,4044,A,24.344441599407048,40.08670862198653,1.2172220799703524,0.6296805465671375,A,568.4110000147484,Correct,sub_011_day_18_data.csv,1,300,161.0,Training at home,,,,,,,,,,,,,
11,18,4045,B,67.5794258118516,44.8114985563018,3.37897129059258,0.7038973733041368,B,757.7792499796487,Correct,sub_011_day_18_data.csv,1,300,161.0,Training at home,,,,,,,,,,,,,
11,18,4046,B,52.73708535967547,25.928776427521395,2.6368542679837734,0.4072882677063671,B,423.2427090173587,Correct,sub_011_day_18_data.csv,1,300,161.0,Training at home,,,,,,,,,,,,,
11,18,4047,B,53.234932345622994,34.03755717462503,2.6617466172811497,0.5346606978297227,B,463.04733300348744,Correct,sub_011_day_18_data.csv,1,300,161.0,Training at home,,,,,,,,,,,,,
11,18,4048,A,34.0976180417745,43.53856884705657,1.704880902088725,0.6839022401886317,A,810.1999590289779,Correct,sub_011_day_18_data.csv,1,300,161.0,Training at home,,,,,,,,,,,,,
11,18,4049,A,65.02055573288338,85.98044255541008,3.251027786644169,1.3505776334223776,A,629.8150419606827,Correct,sub_011_day_18_data.csv,1,300,161.0,Training at home,,,,,,,,,,,,,
11,18,4050,A,47.61992047507467,64.27220430490371,2.3809960237537338,1.009585424371539,A,700.9272089926526,Correct,sub_011_day_18_data.csv,1,300,162.0,Training at home,,,,,,,,,,,,,
11,18,4051,B,56.886881407764214,32.73060476607628,2.844344070388211,0.5141311374032816,B,518.0297910119407,Correct,sub_011_day_18_data.csv,1,300,162.0,Training at home,,,,,,,,,,,,,
11,18,4052,A,35.583577138467405,52.972438781585865,1.7791788569233702,0.832089122594826,A,491.4767079753801,Correct,sub_011_day_18_data.csv,1,300,162.0,Training at home,,,,,,,,,,,,,
11,18,4053,A,39.97023697780005,51.80300009191316,1.9985118488900024,0.8137196226133289,A,745.5479580094106,Correct,sub_011_day_18_data.csv,1,300,162.0,Training at home,,,,,,,,,,,,,
11,18,4054,B,42.85549747452701,31.791743931075885,2.1427748737263506,0.4993835458933794,B,633.5396249778569,Correct,sub_011_day_18_data.csv,1,300,162.0,Training at home,,,,,,,,,,,,,
11,18,4055,B,34.7743631566268,17.057804817285938,1.73871815783134,0.2679433715017704,B,535.3011249681003,Correct,sub_011_day_18_data.csv,1,300,162.0,Training at home,,,,,,,,,,,,,
11,18,4056,B,77.86436391833892,60.86926748431958,3.8932181959169463,0.9561322177906524,B,985.1565000135452,Correct,sub_011_day_18_data.csv,1,300,162.0,Training at home,,,,,,,,,,,,,
11,18,4057,B,40.714850125503546,28.226001078063035,2.0357425062751773,0.443372988135302,B,952.3348750080912,Correct,sub_011_day_18_data.csv,1,300,162.0,Training at home,,,,,,,,,,,,,
11,18,4058,A,11.321729535798848,31.318414245491617,0.5660864767899425,0.4919485005785919,A,464.4527080236003,Correct,sub_011_day_18_data.csv,1,300,162.0,Training at home,,,,,,,,,,,,,
11,18,4059,A,25.685182297410655,48.83394467176059,1.284259114870533,0.7670818091330674,A,551.1205419898033,Correct,sub_011_day_18_data.csv,1,300,162.0,Training at home,,,,,,,,,,,,,
11,18,4060,B,37.746116983416314,24.421302657153184,1.8873058491708157,0.3836089250940266,B,609.129666001536,Correct,sub_011_day_18_data.csv,1,300,162.0,Training at home,,,,,,,,,,,,,
11,18,4061,B,64.66239912399183,50.7345792969982,3.2331199561995914,0.7969369080120919,B,784.7067500115372,Correct,sub_011_day_18_data.csv,1,300,162.0,Training at home,,,,,,,,,,,,,
11,18,4062,A,32.466039286550426,46.031857647758045,1.6233019643275213,0.7230667290864391,A,853.4804160008207,Correct,sub_011_day_18_data.csv,1,300,162.0,Training at home,,,,,,,,,,,,,
11,18,4063,B,78.38386333382182,50.369739554980015,3.919193166691091,0.7912060187457821,B,645.1610829681158,Correct,sub_011_day_18_data.csv,1,300,162.0,Training at home,,,,,,,,,,,,,
11,18,4064,B,87.11072058498638,62.948231064854056,4.355536029249319,0.9887885013490916,B,537.9119589924812,Correct,sub_011_day_18_data.csv,1,300,162.0,Training at home,,,,,,,,,,,,,
11,18,4065,B,81.1429717998314,58.978503426329155,4.05714858999157,0.9264321654193806,B,883.6562079959549,Correct,sub_011_day_18_data.csv,1,300,162.0,Training at home,,,,,,,,,,,,,
11,18,4066,B,55.12254520871933,47.365559443747806,2.7561272604359663,0.7440164679082438,B,472.05774998292327,Correct,sub_011_day_18_data.csv,1,300,162.0,Training at home,,,,,,,,,,,,,
11,18,4067,A,30.44684845721592,57.441857349285584,1.5223424228607962,0.9022945852853422,A,470.7304170005955,Correct,sub_011_day_18_data.csv,1,300,162.0,Training at home,,,,,,,,,,,,,
11,18,4068,A,25.44269181896149,55.97849475927096,1.2721345909480746,0.879308139473702,A,527.7320840395987,Correct,sub_011_day_18_data.csv,1,300,162.0,Training at home,,,,,,,,,,,,,
11,18,4069,A,53.85483945875653,68.21118961686759,2.6927419729378266,1.071458860964858,A,592.100165958982,Correct,sub_011_day_18_data.csv,1,300,162.0,Training at home,,,,,,,,,,,,,
11,18,4070,A,38.30492924023642,46.04499328174849,1.915246462011821,0.7232730631426623,A,639.4192920415662,Correct,sub_011_day_18_data.csv,1,300,162.0,Training at home,,,,,,,,,,,,,
11,18,4071,B,67.37622250140501,39.421538172939776,3.36881112507025,0.6192320735865859,B,736.9020420010202,Correct,sub_011_day_18_data.csv,1,300,162.0,Training at home,,,,,,,,,,,,,
11,18,4072,A,24.674322287230556,51.84575151821312,1.2337161143615278,0.8143911604473011,A,584.9210000014864,Correct,sub_011_day_18_data.csv,1,300,162.0,Training at home,,,,,,,,,,,,,
11,18,4073,B,51.54416910388271,35.628814206777776,2.577208455194135,0.5596561048406435,B,579.1078329784796,Correct,sub_011_day_18_data.csv,1,300,162.0,Training at home,,,,,,,,,,,,,
11,18,4074,A,63.10792888323038,79.78993087760006,3.1553964441615188,1.2533373033775286,A,476.94974998012185,Correct,sub_011_day_18_data.csv,1,300,162.0,Training at home,,,,,,,,,,,,,
11,18,4075,B,63.71041769800799,48.299318389407006,3.185520884900399,0.7586839191277772,B,471.1021250113845,Correct,sub_011_day_18_data.csv,1,300,163.0,Training at home,,,,,,,,,,,,,
11,18,4076,B,77.90883036940716,48.08444549402384,3.8954415184703577,0.7553087035798206,B,444.0986670088023,Correct,sub_011_day_18_data.csv,1,300,163.0,Training at home,,,,,,,,,,,,,
11,18,4077,A,32.64374681126066,53.030206424419994,1.632187340563033,0.8329965346065406,A,558.7352080037817,Correct,sub_011_day_18_data.csv,1,300,163.0,Training at home,,,,,,,,,,,,,
11,18,4078,A,29.204604791746167,51.344071887228125,1.4602302395873084,0.8065107952315106,A,498.72062500799075,Correct,sub_011_day_18_data.csv,1,300,163.0,Training at home,,,,,,,,,,,,,
11,18,4079,B,62.556355612851256,43.758052916604726,3.127817780642563,0.6873498878909942,B,561.5640420001,Correct,sub_011_day_18_data.csv,1,300,163.0,Training at home,,,,,,,,,,,,,
11,18,4080,A,46.95553014538451,74.79464686019686,2.347776507269226,1.1748715655191868,A,607.0020829793066,Correct,sub_011_day_18_data.csv,1,300,163.0,Training at home,,,,,,,,,,,,,
11,18,4081,B,57.92653191503771,29.181615353509155,2.8963265957518853,0.4583837420723374,B,590.3673749999143,Correct,sub_011_day_18_data.csv,1,300,163.0,Training at home,,,,,,,,,,,,,
11,18,4082,B,64.81319928729985,46.81263948886726,3.2406599643649927,0.7353312215668643,B,596.4697499875911,Correct,sub_011_day_18_data.csv,1,300,163.0,Training at home,,,,,,,,,,,,,
11,18,4083,A,23.67062884273039,39.88805652123043,1.1835314421365195,0.6265601266653599,A,451.08054199954495,Correct,sub_011_day_18_data.csv,1,300,163.0,Training at home,,,,,,,,,,,,,
11,18,4084,B,53.40968729125134,27.94455636704803,2.670484364562567,0.4389520649527199,B,508.9869169751182,Correct,sub_011_day_18_data.csv,1,300,163.0,Training at home,,,,,,,,,,,,,
11,18,4085,A,40.883839176511,68.47055462394952,2.04419195882555,1.0755329569690923,A,554.8225410166197,Correct,sub_011_day_18_data.csv,1,300,163.0,Training at home,,,,,,,,,,,,,
11,18,4086,B,82.64300044981276,59.35540690970689,4.132150022490638,0.9323525514918402,B,481.1227080062963,Correct,sub_011_day_18_data.csv,1,300,163.0,Training at home,,,,,,,,,,,,,
11,18,4087,B,71.68513156558038,58.6071735433777,3.584256578279019,0.9205993292576872,B,656.1545000295155,Correct,sub_011_day_18_data.csv,1,300,163.0,Training at home,,,,,,,,,,,,,
11,18,4088,B,68.69943824512553,52.56172187380176,3.4349719122562767,0.8256375964938278,B,810.785332985688,Correct,sub_011_day_18_data.csv,1,300,163.0,Training at home,,,,,,,,,,,,,
11,18,4089,A,56.936942731288006,69.899580507901,2.8468471365644,1.0979800430631506,A,839.1155420104042,Correct,sub_011_day_18_data.csv,1,300,163.0,Training at home,,,,,,,,,,,,,
11,18,4090,B,45.67714723809931,20.066960718124903,2.283857361904966,0.3152110818596808,B,533.1572910072282,Correct,sub_011_day_18_data.csv,1,300,163.0,Training at home,,,,,,,,,,,,,
11,18,4091,B,73.5802278965725,54.32822430521948,3.679011394828625,0.8533857517992797,B,800.3798749996349,Correct,sub_011_day_18_data.csv,1,300,163.0,Training at home,,,,,,,,,,,,,
11,18,4092,B,42.50969175729494,33.64893439995528,2.125484587864747,0.5285562255601219,B,454.4155419571325,Correct,sub_011_day_18_data.csv,1,300,163.0,Training at home,,,,,,,,,,,,,
11,18,4093,B,41.265330832247685,17.357901933267215,2.0632665416123843,0.2726572859764217,B,421.40841705258936,Correct,sub_011_day_18_data.csv,1,300,163.0,Training at home,,,,,,,,,,,,,
11,18,4094,B,56.520679511047454,40.472503872780024,2.826033975552373,0.6357406041955508,B,489.303041016683,Correct,sub_011_day_18_data.csv,1,300,163.0,Training at home,,,,,,,,,,,,,
11,18,4095,B,32.371953589746035,11.160043095870588,1.6185976794873016,0.1753015470186626,B,392.88574998499826,Correct,sub_011_day_18_data.csv,1,300,163.0,Training at home,,,,,,,,,,,,,
11,18,4096,A,14.620472450266512,37.37062568182901,0.7310236225133255,0.5870164155104404,A,529.976666031871,Correct,sub_011_day_18_data.csv,1,300,163.0,Training at home,,,,,,,,,,,,,
11,18,4097,A,19.31686322506477,41.966780842290106,0.9658431612532384,0.6592126519447573,A,638.3712499518879,Correct,sub_011_day_18_data.csv,1,300,163.0,Training at home,,,,,,,,,,,,,
11,18,4098,A,63.87675151779797,84.109458629698,3.1938375758898987,1.3211882866423692,A,718.6931669712067,Correct,sub_011_day_18_data.csv,1,300,163.0,Training at home,,,,,,,,,,,,,
11,18,4099,B,32.56934006513937,18.771680099441525,1.6284670032569688,0.294864861479716,B,623.6643330194056,Correct,sub_011_day_18_data.csv,1,300,163.0,Training at home,,,,,,,,,,,,,
11,18,4100,B,70.86406571999042,54.23294806716851,3.543203285999521,0.8518891561516668,B,578.6354579613544,Correct,sub_011_day_18_data.csv,1,300,164.0,Training at home,,,,,,,,,,,,,
11,18,4101,B,39.95522384471077,27.96883127208173,1.9977611922355385,0.4393333742693222,B,606.7093749879859,Correct,sub_011_day_18_data.csv,1,300,164.0,Training at home,,,,,,,,,,,,,
11,18,4102,B,55.748866148600925,40.41133595383284,2.7874433074300464,0.6347797807715516,B,599.2459999979474,Correct,sub_011_day_18_data.csv,1,300,164.0,Training at home,,,,,,,,,,,,,
11,18,4103,B,56.70465824418362,28.74500054127151,2.835232912209181,0.451525412639466,B,428.27912501525134,Correct,sub_011_day_18_data.csv,1,300,164.0,Training at home,,,,,,,,,,,,,
11,18,4104,A,38.60978206698714,54.212511128741255,1.9304891033493567,0.8515681334735422,A,2595.372417010367,Correct,sub_011_day_18_data.csv,1,300,164.0,Training at home,,,,,,,,,,,,,
11,18,4105,B,50.39823328910623,20.14773036495762,2.5199116644553117,0.3164798085052943,B,691.1593749537133,Correct,sub_011_day_18_data.csv,1,300,164.0,Training at home,,,,,,,,,,,,,
11,18,4106,B,62.80637946984296,34.1674233985684,3.140318973492148,0.5367006317051725,B,529.7284579719417,Correct,sub_011_day_18_data.csv,1,300,164.0,Training at home,,,,,,,,,,,,,
11,18,4107,B,59.8809488910908,43.05213920478298,2.9940474445545395,0.6762614212353567,B,561.8417920195498,Correct,sub_011_day_18_data.csv,1,300,164.0,Training at home,,,,,,,,,,,,,
11,18,4108,B,80.50927022300098,58.48341796690816,4.025463511150049,0.9186553812083,B,938.9985839952716,Correct,sub_011_day_18_data.csv,1,300,164.0,Training at home,,,,,,,,,,,,,
11,18,4109,A,40.447905507860725,50.74828707090968,2.0223952753930363,0.7971522292211788,A,579.0769999730401,Correct,sub_011_day_18_data.csv,1,300,164.0,Training at home,,,,,,,,,,,,,
11,18,4110,A,58.097835121587494,82.64589080123731,2.9048917560793743,1.298198616952757,A,542.9332909989171,Correct,sub_011_day_18_data.csv,1,300,164.0,Training at home,,,,,,,,,,,,,
11,18,4111,A,67.32881453322258,83.93448942504814,3.36644072666113,1.3184398768027072,A,640.8442499814555,Correct,sub_011_day_18_data.csv,1,300,164.0,Training at home,,,,,,,,,,,,,
11,18,4112,B,55.22438452716159,48.509819141649366,2.7612192263580795,0.7619904572118757,B,562.1206250507385,Correct,sub_011_day_18_data.csv,1,300,164.0,Training at home,,,,,,,,,,,,,
11,18,4113,A,34.58256965049641,51.79814932289905,1.7291284825248203,0.8136434269118338,A,473.27066597063094,Correct,sub_011_day_18_data.csv,1,300,164.0,Training at home,,,,,,,,,,,,,
11,18,4114,B,68.35842941416908,43.557466261380185,3.417921470708454,0.6841990800786862,B,1241.7659579659812,Correct,sub_011_day_18_data.csv,1,300,164.0,Training at home,,,,,,,,,,,,,
11,18,4115,B,74.38044764236277,64.06889018438686,3.7190223821181383,1.0063917736346049,B,790.0720830075443,Correct,sub_011_day_18_data.csv,1,300,164.0,Training at home,,,,,,,,,,,,,
11,18,4116,A,64.74254265300057,84.37415534028226,3.2371271326500284,1.325346132849374,A,544.644583016634,Correct,sub_011_day_18_data.csv,1,300,164.0,Training at home,,,,,,,,,,,,,
11,18,4117,B,49.91839911705201,26.49553066914914,2.495919955852601,0.4161908225158099,B,572.7487910189666,Correct,sub_011_day_18_data.csv,1,300,164.0,Training at home,,,,,,,,,,,,,
11,18,4118,B,33.62133130025836,16.711550858171343,1.6810665650129182,0.2625044270306164,B,592.7620420116,Correct,sub_011_day_18_data.csv,1,300,164.0,Training at home,,,,,,,,,,,,,
11,18,4119,B,48.722879752054624,21.61190553499317,2.436143987602731,0.3394790182940556,B,532.4214579886757,Correct,sub_011_day_18_data.csv,1,300,164.0,Training at home,,,,,,,,,,,,,
11,18,4120,B,57.0870871835158,34.587496589634526,2.8543543591757903,0.5432991259602893,B,469.0150409587659,Correct,sub_011_day_18_data.csv,1,300,164.0,Training at home,,,,,,,,,,,,,
11,18,4121,A,27.521012034286574,55.841123264575266,1.3760506017143288,0.8771503130809587,A,450.0373330083676,Correct,sub_011_day_18_data.csv,1,300,164.0,Training at home,,,,,,,,,,,,,
11,18,4122,A,33.4867792118907,66.29745448310275,1.6743389605945351,1.0413979797790966,A,438.68666602065787,Correct,sub_011_day_18_data.csv,1,300,164.0,Training at home,,,,,,,,,,,,,
11,18,4123,B,68.80452175531245,49.10358715485083,3.4402260877656228,0.7713173433529275,B,559.5133749884553,Correct,sub_011_day_18_data.csv,1,300,164.0,Training at home,,,,,,,,,,,,,
11,18,4124,B,76.33435164731239,63.34129750886514,3.816717582365619,0.9949627746134808,B,773.9224589895457,Correct,sub_011_day_18_data.csv,1,300,164.0,Training at home,,,,,,,,,,,,,
11,18,4125,B,59.6890591453285,47.72115612439642,2.984452957266425,0.7496021675060768,B,506.71329197939485,Correct,sub_011_day_18_data.csv,1,300,165.0,Training at home,,,,,,,,,,,,,
11,18,4126,B,88.27731690733737,61.29569164710275,4.413865845366868,0.962830472876216,B,572.3514999845065,Correct,sub_011_day_18_data.csv,1,300,165.0,Training at home,,,,,,,,,,,,,
11,18,4127,A,27.878390383728735,52.99256655623732,1.3939195191864369,0.8324052889397165,A,486.2255830084905,Correct,sub_011_day_18_data.csv,1,300,165.0,Training at home,,,,,,,,,,,,,
11,18,4128,A,50.35109345225747,78.68703389642909,2.517554672612874,1.2360130381089631,A,538.3028750075027,Correct,sub_011_day_18_data.csv,1,300,165.0,Training at home,,,,,,,,,,,,,
11,18,4129,A,25.722751242134756,35.99752450467403,1.286137562106738,0.5654477926565125,B,435.1572919986211,Incorrect,sub_011_day_18_data.csv,0,300,165.0,Training at home,,,,,,,,,,,,,
11,18,4130,A,69.20981311316312,88.5943250546317,3.4604906556581563,1.3916364037068851,A,885.1794170332141,Correct,sub_011_day_18_data.csv,1,300,165.0,Training at home,,,,,,,,,,,,,
11,18,4131,A,52.50575829764231,63.936755673679784,2.6252879148821155,1.0043162095939897,A,517.2085830126889,Correct,sub_011_day_18_data.csv,1,300,165.0,Training at home,,,,,,,,,,,,,
11,18,4132,B,78.00090718531027,62.665707077796114,3.9000453592655138,0.9843506249380708,B,561.4942079992034,Correct,sub_011_day_18_data.csv,1,300,165.0,Training at home,,,,,,,,,,,,,
11,18,4133,A,24.05779991537665,39.15471456201324,1.2028899957688324,0.6150408181071304,A,586.1664999974892,Correct,sub_011_day_18_data.csv,1,300,165.0,Training at home,,,,,,,,,,,,,
11,18,4134,A,57.26369127389573,76.25187910900168,2.863184563694786,1.1977617161562837,A,618.683582986705,Correct,sub_011_day_18_data.csv,1,300,165.0,Training at home,,,,,,,,,,,,,
11,18,4135,B,44.82279739055449,31.463677927564127,2.2411398695277245,0.4942302971607539,B,525.4557079751976,Correct,sub_011_day_18_data.csv,1,300,165.0,Training at home,,,,,,,,,,,,,
11,18,4136,A,48.563444783081415,71.21237190428705,2.4281722391540708,1.118601322096062,A,504.500790964812,Correct,sub_011_day_18_data.csv,1,300,165.0,Training at home,,,,,,,,,,,,,
11,18,4137,B,34.5709892147521,19.80110816878983,1.728549460737605,0.3110350797800348,B,471.11204103566706,Correct,sub_011_day_18_data.csv,1,300,165.0,Training at home,,,,,,,,,,,,,
11,18,4138,A,26.245831256889403,37.0310550218245,1.3122915628444702,0.5816824520562164,A,4061.593916965649,Correct,sub_011_day_18_data.csv,1,300,165.0,Training at home,,,,,,,,,,,,,
11,18,4139,A,50.258037564450355,79.38606084964263,2.5129018782225176,1.2469933278133478,A,740.4417080106214,Correct,sub_011_day_18_data.csv,1,300,165.0,Training at home,,,,,,,,,,,,,
11,18,4140,A,66.09826829366085,80.18028500841571,3.3049134146830426,1.2594689717258731,A,616.4597499882802,Correct,sub_011_day_18_data.csv,1,300,165.0,Training at home,,,,,,,,,,,,,
11,18,4141,A,31.471206465310715,53.97114301380625,1.573560323265536,0.847776731990089,A,699.7932909871452,Correct,sub_011_day_18_data.csv,1,300,165.0,Training at home,,,,,,,,,,,,,
11,18,4142,A,34.086635071929074,45.85178882659375,1.7043317535964535,0.7202382146578873,A,784.9024169845507,Correct,sub_011_day_18_data.csv,1,300,165.0,Training at home,,,,,,,,,,,,,
11,18,4143,A,41.313498756920474,49.479284434725166,2.0656749378460235,0.7772187824250619,A,595.6471670069732,Correct,sub_011_day_18_data.csv,1,300,165.0,Training at home,,,,,,,,,,,,,
11,18,4144,B,33.67645324243706,11.941611710930648,1.683822662121853,0.1875783981154078,B,1122.2469579661265,Correct,sub_011_day_18_data.csv,1,300,165.0,Training at home,,,,,,,,,,,,,
11,18,4145,A,60.75106805748214,74.00761827052163,3.0375534028741065,1.1625089493417424,A,690.7559999963269,Correct,sub_011_day_18_data.csv,1,300,165.0,Training at home,,,,,,,,,,,,,
11,18,4146,A,13.997407261191626,31.20342484486458,0.6998703630595813,0.4901422512973389,A,494.0358329913579,Correct,sub_011_day_18_data.csv,1,300,165.0,Training at home,,,,,,,,,,,,,
11,18,4147,A,13.584639704774611,35.419997736091425,0.6792319852387307,0.5563760233893597,A,779.5230830088258,Correct,sub_011_day_18_data.csv,1,300,165.0,Training at home,,,,,,,,,,,,,
11,18,4148,B,55.175867238409865,34.56491728543128,2.7587933619204934,0.5429444510792488,B,730.4229169967584,Correct,sub_011_day_18_data.csv,1,300,165.0,Training at home,,,,,,,,,,,,,
11,18,4149,B,70.52281295451675,40.55443092488977,3.5261406477258377,0.6370275113207421,B,800.4317920422181,Correct,sub_011_day_18_data.csv,1,300,165.0,Training at home,,,,,,,,,,,,,
11,18,4150,B,73.85389485992366,46.06873628520574,3.692694742996183,0.7236460173688394,B,496.0302090039477,Correct,sub_011_day_18_data.csv,1,300,166.0,Training at home,,,,,,,,,,,,,
11,18,4151,B,62.26176282196038,47.83829230857242,3.1130881410980193,0.7514421383844613,B,426.4985420159064,Correct,sub_011_day_18_data.csv,1,300,166.0,Training at home,,,,,,,,,,,,,
11,18,4152,A,57.951218087924936,72.75444003618962,2.897560904396247,1.1428240716686622,A,575.653332984075,Correct,sub_011_day_18_data.csv,1,300,166.0,Training at home,,,,,,,,,,,,,
11,18,4153,B,73.61838644394498,47.39603295378951,3.680919322197249,0.7444951446846244,B,884.5954579883255,Correct,sub_011_day_18_data.csv,1,300,166.0,Training at home,,,,,,,,,,,,,
11,18,4154,A,42.71374155390225,71.64266351558051,2.1356870776951125,1.1253603269207662,A,467.08362497156486,Correct,sub_011_day_18_data.csv,1,300,166.0,Training at home,,,,,,,,,,,,,
11,18,4155,A,59.859157803445605,75.17043306871324,2.99295789017228,1.180774401479164,A,468.2050420087762,Correct,sub_011_day_18_data.csv,1,300,166.0,Training at home,,,,,,,,,,,,,
11,18,4156,B,44.3184801074294,17.660310777371404,2.21592400537147,0.2774075129915132,B,490.8984579960816,Correct,sub_011_day_18_data.csv,1,300,166.0,Training at home,,,,,,,,,,,,,
11,18,4157,A,14.52933370469896,42.28331329881088,0.726466685234948,0.6641847321448994,A,576.2427079607733,Correct,sub_011_day_18_data.csv,1,300,166.0,Training at home,,,,,,,,,,,,,
11,18,4158,B,82.0559400656153,53.788648941209786,4.102797003280765,0.8449101218011253,B,497.6720840204507,Correct,sub_011_day_18_data.csv,1,300,166.0,Training at home,,,,,,,,,,,,,
11,18,4159,B,72.40342508661732,49.78400699285998,3.6201712543308657,0.782005353175159,B,424.8589579947293,Correct,sub_011_day_18_data.csv,1,300,166.0,Training at home,,,,,,,,,,,,,
11,18,4160,B,30.47585200203915,15.38599688529795,1.5237926001019575,0.2416826739150373,B,529.0081249549985,Correct,sub_011_day_18_data.csv,1,300,166.0,Training at home,,,,,,,,,,,,,
11,18,4161,B,49.93477665109606,26.028342515894195,2.496738832554803,0.4088522481652604,B,391.3006670190953,Correct,sub_011_day_18_data.csv,1,300,166.0,Training at home,,,,,,,,,,,,,
11,18,4162,A,22.69466839256667,49.65302863773754,1.1347334196283334,0.7799479499839993,A,477.3462919984013,Correct,sub_011_day_18_data.csv,1,300,166.0,Training at home,,,,,,,,,,,,,
11,18,4163,A,49.91521621784499,59.07023357624773,2.4957608108922495,0.9278730592448649,A,743.1818330078386,Correct,sub_011_day_18_data.csv,1,300,166.0,Training at home,,,,,,,,,,,,,
11,18,4164,B,59.22575372698291,45.831000886446944,2.9612876863491455,0.7199116784576451,B,951.5369160217232,Correct,sub_011_day_18_data.csv,1,300,166.0,Training at home,,,,,,,,,,,,,
11,18,4165,A,17.108730864481256,43.52900158574452,0.8554365432240628,0.6837519579993672,A,477.1279999986291,Correct,sub_011_day_18_data.csv,1,300,166.0,Training at home,,,,,,,,,,,,,
11,18,4166,A,42.47336588749818,59.03168715878124,2.1236682943749092,0.9272675735351904,A,632.1159589570016,Correct,sub_011_day_18_data.csv,1,300,166.0,Training at home,,,,,,,,,,,,,
11,18,4167,B,77.66108263548882,64.80723895236527,3.883054131774441,1.017989728960945,B,1928.6515419953505,Correct,sub_011_day_18_data.csv,1,300,166.0,Training at home,,,,,,,,,,,,,
11,18,4168,B,39.53073676345679,15.062807297064804,1.9765368381728392,0.2366060237344875,B,498.7974999821745,Correct,sub_011_day_18_data.csv,1,300,166.0,Training at home,,,,,,,,,,,,,
11,18,4169,B,79.13426810198857,58.59398436126416,3.956713405099429,0.9203921540695136,B,488.3127079810947,Correct,sub_011_day_18_data.csv,1,300,166.0,Training at home,,,,,,,,,,,,,
11,18,4170,B,71.45543126466598,41.89275040887758,3.572771563233299,0.658049784616003,B,427.9937079991214,Correct,sub_011_day_18_data.csv,1,300,166.0,Training at home,,,,,,,,,,,,,
11,18,4171,A,59.05861942684177,69.81335655498083,2.952930971342089,1.096625640377863,B,959.489249973558,Incorrect,sub_011_day_18_data.csv,0,300,166.0,Training at home,,,,,,,,,,,,,
11,18,4172,B,63.95532246438436,38.947962593667775,3.197766123219218,0.6117931657827838,B,895.6671249470674,Correct,sub_011_day_18_data.csv,1,300,166.0,Training at home,,,,,,,,,,,,,
11,18,4173,B,70.99339918232397,50.461184744218095,3.549669959116198,0.7926424364193647,B,724.6950410190038,Correct,sub_011_day_18_data.csv,1,300,166.0,Training at home,,,,,,,,,,,,,
11,18,4174,B,60.43198364040162,32.06712672874193,3.021599182020081,0.5037092487637427,B,434.0050839819014,Correct,sub_011_day_18_data.csv,1,300,166.0,Training at home,,,,,,,,,,,,,
11,18,4175,A,47.57880318242851,57.825815133029145,2.378940159121426,0.9083257800488292,A,688.1945420172997,Correct,sub_011_day_18_data.csv,1,300,167.0,Training at home,,,,,,,,,,,,,
11,18,4176,A,62.96280086218707,86.0376870326291,3.148140043109354,1.351476827567827,A,503.27650003600866,Correct,sub_011_day_18_data.csv,1,300,167.0,Training at home,,,,,,,,,,,,,
11,18,4177,A,21.20292767973175,51.370791985896,1.0601463839865874,0.8069305135599014,A,463.6743749724701,Correct,sub_011_day_18_data.csv,1,300,167.0,Training at home,,,,,,,,,,,,,
11,18,4178,B,64.73919838992872,33.98072363606472,3.236959919496436,0.5337679586936298,B,685.4037920129485,Correct,sub_011_day_18_data.csv,1,300,167.0,Training at home,,,,,,,,,,,,,
11,18,4179,B,46.09152636951785,21.911683727111036,2.3045763184758927,0.3441879231243752,B,689.3881669966504,Correct,sub_011_day_18_data.csv,1,300,167.0,Training at home,,,,,,,,,,,,,
11,18,4180,A,24.82056038787444,56.298976083407915,1.241028019393722,0.8843422483413088,A,649.0626669838093,Correct,sub_011_day_18_data.csv,1,300,167.0,Training at home,,,,,,,,,,,,,
11,18,4181,B,60.062491542233055,35.93693522869732,3.003124577111653,0.5644960585350387,B,650.3236659918912,Correct,sub_011_day_18_data.csv,1,300,167.0,Training at home,,,,,,,,,,,,,
11,18,4182,B,46.13100514330893,21.856049012487215,2.3065502571654464,0.3433140150706414,B,474.6756659587845,Correct,sub_011_day_18_data.csv,1,300,167.0,Training at home,,,,,,,,,,,,,
11,18,4183,A,24.056103024625315,34.91291100002189,1.202805151231266,0.5484107235655153,A,514.3725420348346,Correct,sub_011_day_18_data.csv,1,300,167.0,Training at home,,,,,,,,,,,,,
11,18,4184,A,47.22609194876913,58.09536475748012,2.361304597438457,0.9125598556485948,A,508.79695801995695,Correct,sub_011_day_18_data.csv,1,300,167.0,Training at home,,,,,,,,,,,,,
11,18,4185,B,57.09865853885199,31.508723518730257,2.8549329269425994,0.4949378716521745,B,3137.897999957204,Correct,sub_011_day_18_data.csv,1,300,167.0,Training at home,,,,,,,,,,,,,
11,18,4186,B,63.33778302405542,52.99375035962281,3.166889151202771,0.8324238840798123,B,888.4939170093276,Correct,sub_011_day_18_data.csv,1,300,167.0,Training at home,,,,,,,,,,,,,
11,18,4187,B,64.11035805524658,38.37216524763918,3.2055179027623293,0.6027485622215841,B,552.0299159688875,Correct,sub_011_day_18_data.csv,1,300,167.0,Training at home,,,,,,,,,,,,,
11,18,4188,B,75.21074769848352,50.25667986989008,3.760537384924175,0.7894300813653033,B,659.5806669793092,Correct,sub_011_day_18_data.csv,1,300,167.0,Training at home,,,,,,,,,,,,,
11,18,4189,A,41.53384642916373,72.86380500225673,2.0766923214581863,1.1445419725384447,A,1123.3051660237834,Correct,sub_011_day_18_data.csv,1,300,167.0,Training at home,,,,,,,,,,,,,
11,18,4190,A,40.07766949636263,64.67920733054082,2.0038834748181316,1.0159786129481907,A,1097.9593329830095,Correct,sub_011_day_18_data.csv,1,300,167.0,Training at home,,,,,,,,,,,,,
11,18,4191,B,39.20336067574656,29.308141790410875,1.960168033787328,0.460371214695614,B,1289.353583008051,Correct,sub_011_day_18_data.csv,1,300,167.0,Training at home,,,,,,,,,,,,,
11,18,4192,B,40.12757934359409,23.064504523635197,2.006378967179705,0.3622963898507044,B,495.3257919987664,Correct,sub_011_day_18_data.csv,1,300,167.0,Training at home,,,,,,,,,,,,,
11,18,4193,A,19.68441509258368,37.61429043428372,0.984220754629184,0.5908438924916928,A,530.87479097303,Correct,sub_011_day_18_data.csv,1,300,167.0,Training at home,,,,,,,,,,,,,
11,18,4194,A,24.727334887489583,45.011322672230285,1.236366744374479,0.7070362031771918,A,434.5366669585928,Correct,sub_011_day_18_data.csv,1,300,167.0,Training at home,,,,,,,,,,,,,
11,18,4195,A,33.68824668986056,48.046972900834106,1.6844123344930282,0.7547200854624415,A,452.8772499761544,Correct,sub_011_day_18_data.csv,1,300,167.0,Training at home,,,,,,,,,,,,,
11,18,4196,B,39.07402078914551,13.64054729112555,1.9537010394572751,0.2142652158037209,B,580.1204580347985,Correct,sub_011_day_18_data.csv,1,300,167.0,Training at home,,,,,,,,,,,,,
11,18,4197,A,46.07548789983962,55.13729182558951,2.303774394991981,0.8660945546905428,A,1924.7080000350252,Correct,sub_011_day_18_data.csv,1,300,167.0,Training at home,,,,,,,,,,,,,
11,18,4198,A,64.02557510241768,74.44770188979999,3.201278755120884,1.169421766668193,A,446.3884590077214,Correct,sub_011_day_18_data.csv,1,300,167.0,Training at home,,,,,,,,,,,,,
11,18,4199,B,53.712381794361995,29.226528307792737,2.6856190897181,0.459089233108479,B,820.0789170223288,Correct,sub_011_day_18_data.csv,1,300,167.0,Training at home,,,,,,,,,,,,,
