subject,day,trial,cat,x,y,xt,yt,resp,rt,fb,f_name,acc,n_trials,block,session_type,ns_left_digit,ns_right_digit,ns_left_size,ns_right_size,ns_congruent,ns_cue,ns_correct_side,ns_resp,ns_rt,ns_fb,acc_stroop,acc_stroop_mean,resp_key
11,12,2400,A,36.96806153166436,70.24692005413279,1.8484030765832185,1.1034360398968657,B,1333.9493329986,Incorrect,sub_011_day_12_data.csv,0,300,96.0,Training at home,,,,,,,,,,,,,
11,12,2401,B,32.50853593342366,18.030736999927715,1.625426796671183,0.2832261544889128,B,773.6635420005769,Correct,sub_011_day_12_data.csv,1,300,96.0,Training at home,,,,,,,,,,,,,
11,12,2402,A,58.69416827477267,68.3575892929754,2.9347084137386337,1.0737585016995992,A,1952.7270830003545,Correct,sub_011_day_12_data.csv,1,300,96.0,Training at home,,,,,,,,,,,,,
11,12,2403,A,33.37479496383353,63.8049380213002,1.6687397481916764,1.002245622752344,A,1020.9395829588176,Correct,sub_011_day_12_data.csv,1,300,96.0,Training at home,,,,,,,,,,,,,
11,12,2404,B,81.04423032737864,58.3406201077869,4.052211516368931,0.9164123176824814,B,1003.9074580417946,Correct,sub_011_day_12_data.csv,1,300,96.0,Training at home,,,,,,,,,,,,,
11,12,2405,B,62.11500251728444,32.111154911610996,3.1057501258642217,0.5044008418430045,B,558.7125410092995,Correct,sub_011_day_12_data.csv,1,300,96.0,Training at home,,,,,,,,,,,,,
11,12,2406,B,40.95165481814023,17.652154227482008,2.0475827409070115,0.2772793902054574,B,462.8861249657348,Correct,sub_011_day_12_data.csv,1,300,96.0,Training at home,,,,,,,,,,,,,
11,12,2407,A,14.252666372586738,37.85301645527411,0.7126333186293369,0.5945937920605134,A,542.0299160177819,Correct,sub_011_day_12_data.csv,1,300,96.0,Training at home,,,,,,,,,,,,,
11,12,2408,B,61.77361982665536,52.320977018513354,3.088680991332768,0.8218559851500097,B,561.0722500132397,Correct,sub_011_day_12_data.csv,1,300,96.0,Training at home,,,,,,,,,,,,,
11,12,2409,B,35.5601982849784,21.65128607989144,1.77800991424892,0.3400976064467895,B,1054.466457979288,Correct,sub_011_day_12_data.csv,1,300,96.0,Training at home,,,,,,,,,,,,,
11,12,2410,A,28.36489884367727,46.91242844481032,1.4182449421838634,0.7368987028213646,A,773.6447490169667,Correct,sub_011_day_12_data.csv,1,300,96.0,Training at home,,,,,,,,,,,,,
11,12,2411,A,39.13161642596115,64.84880045324309,1.956580821298057,1.0186425754900943,A,564.8514160420746,Correct,sub_011_day_12_data.csv,1,300,96.0,Training at home,,,,,,,,,,,,,
11,12,2412,B,83.26890042807078,62.03048601170164,4.163445021403539,0.9743725957648316,B,534.8030829918571,Correct,sub_011_day_12_data.csv,1,300,96.0,Training at home,,,,,,,,,,,,,
11,12,2413,A,52.08898256934941,68.40086736893625,2.6044491284674707,1.0744383121270995,A,791.9180419994518,Correct,sub_011_day_12_data.csv,1,300,96.0,Training at home,,,,,,,,,,,,,
11,12,2414,B,35.343808820594845,17.1220629527824,1.7671904410297423,0.2689527359338157,B,476.4276669593528,Correct,sub_011_day_12_data.csv,1,300,96.0,Training at home,,,,,,,,,,,,,
11,12,2415,A,36.51879957345566,53.85868453691361,1.8259399786727828,0.8460102383658898,A,765.7305829925463,Correct,sub_011_day_12_data.csv,1,300,96.0,Training at home,,,,,,,,,,,,,
11,12,2416,B,32.88530325773246,16.376416869815188,1.644265162886623,0.2572401546516767,B,5737.001332978252,Correct,sub_011_day_12_data.csv,1,300,96.0,Training at home,,,,,,,,,,,,,
11,12,2417,B,35.45029934091298,12.41174021941356,1.7725149670456488,0.194963159457873,B,2403.0917499912903,Correct,sub_011_day_12_data.csv,1,300,96.0,Training at home,,,,,,,,,,,,,
11,12,2418,A,27.421246103188327,42.528444995696795,1.3710623051594164,0.6680352518353934,A,821.5332489926368,Correct,sub_011_day_12_data.csv,1,300,96.0,Training at home,,,,,,,,,,,,,
11,12,2419,A,56.466914770068456,76.77659854060109,2.823345738503422,1.206003989713826,A,1005.590749962721,Correct,sub_011_day_12_data.csv,1,300,96.0,Training at home,,,,,,,,,,,,,
11,12,2420,B,69.13686551749926,36.075193305441275,3.456843275874963,0.56666781132603,B,3162.0952079538256,Correct,sub_011_day_12_data.csv,1,300,96.0,Training at home,,,,,,,,,,,,,
11,12,2421,A,19.10144450966242,44.614080022681485,0.9550722254831212,0.7007963302296166,A,488.53775003226474,Correct,sub_011_day_12_data.csv,1,300,96.0,Training at home,,,,,,,,,,,,,
11,12,2422,B,32.511459965495106,16.492959684605374,1.625572998274755,0.2590708049055443,B,545.5172079964541,Correct,sub_011_day_12_data.csv,1,300,96.0,Training at home,,,,,,,,,,,,,
11,12,2423,B,42.107265597295495,30.895589315028392,2.105363279864775,0.4853067821021025,B,778.494167025201,Correct,sub_011_day_12_data.csv,1,300,96.0,Training at home,,,,,,,,,,,,,
11,12,2424,B,48.45417070329722,23.262007200315058,2.422708535164861,0.3653987546413133,B,471.1248329840601,Correct,sub_011_day_12_data.csv,1,300,96.0,Training at home,,,,,,,,,,,,,
11,12,2425,B,35.04752754759765,21.713136526687656,1.7523763773798828,0.3410691509931707,B,561.4961250103079,Correct,sub_011_day_12_data.csv,1,300,97.0,Training at home,,,,,,,,,,,,,
11,12,2426,A,35.27197146003064,48.69621082376396,1.763598573001532,0.7649182909079832,A,2100.4296239698306,Correct,sub_011_day_12_data.csv,1,300,97.0,Training at home,,,,,,,,,,,,,
11,12,2427,B,86.88947550726655,59.654058848987574,4.344473775363327,0.9370437651839628,B,961.4772080094554,Correct,sub_011_day_12_data.csv,1,300,97.0,Training at home,,,,,,,,,,,,,
11,12,2428,B,52.91767870118658,44.18389687505337,2.645883935059329,0.6940390291481834,B,451.06591598596424,Correct,sub_011_day_12_data.csv,1,300,97.0,Training at home,,,,,,,,,,,,,
11,12,2429,B,39.488326693853686,21.12632234014823,1.974416334692684,0.3318514953058981,B,483.33024996099994,Correct,sub_011_day_12_data.csv,1,300,97.0,Training at home,,,,,,,,,,,,,
11,12,2430,A,22.174476360705448,42.38162694446977,1.1087238180352723,0.6657290392796473,A,864.1827499959618,Correct,sub_011_day_12_data.csv,1,300,97.0,Training at home,,,,,,,,,,,,,
11,12,2431,A,47.26678307885998,64.97593199382449,2.363339153942999,1.0206395530597452,A,1010.6494579813444,Correct,sub_011_day_12_data.csv,1,300,97.0,Training at home,,,,,,,,,,,,,
11,12,2432,A,42.0953501458984,69.10050651975428,2.10476750729492,1.085428218208968,A,760.0610419758596,Correct,sub_011_day_12_data.csv,1,300,97.0,Training at home,,,,,,,,,,,,,
11,12,2433,A,43.66077681862249,65.25476139767274,2.183038840931124,1.0250193950934174,A,1531.654916005209,Correct,sub_011_day_12_data.csv,1,300,97.0,Training at home,,,,,,,,,,,,,
11,12,2434,B,88.58758253869553,62.08070170970561,4.429379126934776,0.9751613821045524,B,934.740124968812,Correct,sub_011_day_12_data.csv,1,300,97.0,Training at home,,,,,,,,,,,,,
11,12,2435,A,65.7809878141421,77.76980441030429,3.289049390707105,1.2216052310326353,A,1255.6594160269017,Correct,sub_011_day_12_data.csv,1,300,97.0,Training at home,,,,,,,,,,,,,
11,12,2436,B,53.678175896344904,31.071472309307836,2.6839087948172455,0.4880695457157009,B,918.9207080053166,Correct,sub_011_day_12_data.csv,1,300,97.0,Training at home,,,,,,,,,,,,,
11,12,2437,A,42.48313714249232,67.76340541000113,2.124156857124616,1.064425083091432,A,961.6571659571492,Correct,sub_011_day_12_data.csv,1,300,97.0,Training at home,,,,,,,,,,,,,
11,12,2438,A,49.44338158327801,59.44016715510476,2.4721690791639004,0.9336839623131322,A,703.413792012725,Correct,sub_011_day_12_data.csv,1,300,97.0,Training at home,,,,,,,,,,,,,
11,12,2439,A,54.75516472658242,68.57069637398477,2.7377582363291206,1.077105979900234,A,643.5515829944052,Correct,sub_011_day_12_data.csv,1,300,97.0,Training at home,,,,,,,,,,,,,
11,12,2440,A,64.23161169689723,76.00739655321608,3.2115805848448615,1.1939213931503492,A,894.2437079967931,Correct,sub_011_day_12_data.csv,1,300,97.0,Training at home,,,,,,,,,,,,,
11,12,2441,B,57.39973568717632,30.37097667640168,2.8699867843588165,0.4770661860446523,B,1017.7237910102122,Correct,sub_011_day_12_data.csv,1,300,97.0,Training at home,,,,,,,,,,,,,
11,12,2442,A,39.209488912643145,54.597926956193845,1.9604744456321572,0.8576222311340536,A,600.6467909901403,Correct,sub_011_day_12_data.csv,1,300,97.0,Training at home,,,,,,,,,,,,,
11,12,2443,B,60.904927394890024,42.854186493702215,3.045246369744502,0.6731519873209091,B,722.3399989889003,Correct,sub_011_day_12_data.csv,1,300,97.0,Training at home,,,,,,,,,,,,,
11,12,2444,B,77.02201331931738,45.87038447970989,3.851100665965869,0.7205303144939792,B,1051.9329580129124,Correct,sub_011_day_12_data.csv,1,300,97.0,Training at home,,,,,,,,,,,,,
11,12,2445,A,56.37396790651967,66.0940683571709,2.818698395325983,1.0382031979837485,A,614.7053329623304,Correct,sub_011_day_12_data.csv,1,300,97.0,Training at home,,,,,,,,,,,,,
11,12,2446,B,69.41512951528095,38.63721698550452,3.470756475764048,0.606911985184079,B,1409.2797500197776,Correct,sub_011_day_12_data.csv,1,300,97.0,Training at home,,,,,,,,,,,,,
11,12,2447,A,65.38258794055716,78.40797829550148,3.269129397027858,1.2316296429798772,A,574.8918330064043,Correct,sub_011_day_12_data.csv,1,300,97.0,Training at home,,,,,,,,,,,,,
11,12,2448,A,62.16927544373784,74.5096833353193,3.108463772186892,1.170395368937705,A,644.5818329812028,Correct,sub_011_day_12_data.csv,1,300,97.0,Training at home,,,,,,,,,,,,,
11,12,2449,B,76.23210859803709,58.06762926419048,3.8116054299018542,0.9121241875387824,B,901.2404580134898,Correct,sub_011_day_12_data.csv,1,300,97.0,Training at home,,,,,,,,,,,,,
11,12,2450,B,52.68865514491458,21.689824098620363,2.634432757245729,0.3407029602294029,B,453.6702079931274,Correct,sub_011_day_12_data.csv,1,300,98.0,Training at home,,,,,,,,,,,,,
11,12,2451,A,52.630183907984645,69.68051726100484,2.631509195399232,1.0945390056275477,A,529.5627919840626,Correct,sub_011_day_12_data.csv,1,300,98.0,Training at home,,,,,,,,,,,,,
11,12,2452,B,32.92386563201762,13.842154980972268,1.646193281600881,0.2174320619903691,B,444.8213329887949,Correct,sub_011_day_12_data.csv,1,300,98.0,Training at home,,,,,,,,,,,,,
11,12,2453,A,29.15115358063122,45.48546355472959,1.4575576790315612,0.7144839907433239,A,623.1809580349363,Correct,sub_011_day_12_data.csv,1,300,98.0,Training at home,,,,,,,,,,,,,
11,12,2454,B,77.54543709869586,47.0391485482923,3.8772718549347926,0.7388892175521703,B,485.56224995991215,Correct,sub_011_day_12_data.csv,1,300,98.0,Training at home,,,,,,,,,,,,,
11,12,2455,A,29.95851909775225,42.92197161434965,1.4979259548876127,0.6742167535061524,A,604.7431250335649,Correct,sub_011_day_12_data.csv,1,300,98.0,Training at home,,,,,,,,,,,,,
11,12,2456,A,41.75336198809546,72.71341140430178,2.087668099404773,1.1421795954260336,A,541.833332972601,Correct,sub_011_day_12_data.csv,1,300,98.0,Training at home,,,,,,,,,,,,,
11,12,2457,A,64.50090747091869,76.04661456374893,3.225045373545935,1.194537428219241,A,524.8739990056492,Correct,sub_011_day_12_data.csv,1,300,98.0,Training at home,,,,,,,,,,,,,
11,12,2458,A,45.149277658807534,64.31235257360265,2.257463882940377,1.0102160719015336,A,697.1273749950342,Correct,sub_011_day_12_data.csv,1,300,98.0,Training at home,,,,,,,,,,,,,
11,12,2459,A,14.929022835608194,40.46757339157987,0.7464511417804097,0.6356631563779656,A,558.5101660108194,Correct,sub_011_day_12_data.csv,1,300,98.0,Training at home,,,,,,,,,,,,,
11,12,2460,B,66.86412145543754,36.1273685343489,3.3432060727718773,0.5674873779052079,B,635.8508330304176,Correct,sub_011_day_12_data.csv,1,300,98.0,Training at home,,,,,,,,,,,,,
11,12,2461,B,56.82660076032753,42.95444493643491,2.8413300380163764,0.6747268432566561,B,664.1544579761103,Correct,sub_011_day_12_data.csv,1,300,98.0,Training at home,,,,,,,,,,,,,
11,12,2462,B,51.62515963340501,35.95072362564797,2.5812579816702503,0.5647126461678633,B,1952.447250019759,Correct,sub_011_day_12_data.csv,1,300,98.0,Training at home,,,,,,,,,,,,,
11,12,2463,A,47.19834796213422,78.71433461007473,2.359917398106711,1.2364418767160978,A,1562.1383329853415,Correct,sub_011_day_12_data.csv,1,300,98.0,Training at home,,,,,,,,,,,,,
11,12,2464,A,37.163023138784816,66.7875165012902,1.8581511569392408,1.0490958559598018,A,944.4686670321972,Correct,sub_011_day_12_data.csv,1,300,98.0,Training at home,,,,,,,,,,,,,
11,12,2465,B,41.054518918057695,23.827491942776852,2.0527259459028846,0.3742813682044887,B,872.5103749893606,Correct,sub_011_day_12_data.csv,1,300,98.0,Training at home,,,,,,,,,,,,,
11,12,2466,B,56.49134513962328,30.577885415286147,2.8245672569811644,0.4803163009148672,B,646.181957970839,Correct,sub_011_day_12_data.csv,1,300,98.0,Training at home,,,,,,,,,,,,,
11,12,2467,B,52.80745932246464,39.08927473878572,2.640372966123232,0.6140128917676114,B,706.1882499838248,Correct,sub_011_day_12_data.csv,1,300,98.0,Training at home,,,,,,,,,,,,,
11,12,2468,B,73.73555519444186,49.791663106157735,3.686777759722093,0.7821256151216155,B,869.2738329991698,Correct,sub_011_day_12_data.csv,1,300,98.0,Training at home,,,,,,,,,,,,,
11,12,2469,A,50.7154715789061,61.89285113280025,2.535773578945305,0.97221063214266,A,940.430374990683,Correct,sub_011_day_12_data.csv,1,300,98.0,Training at home,,,,,,,,,,,,,
11,12,2470,A,50.76469784456131,65.30731092591881,2.5382348922280658,1.025844841152855,A,712.0962080080062,Correct,sub_011_day_12_data.csv,1,300,98.0,Training at home,,,,,,,,,,,,,
11,12,2471,A,56.495962704482025,72.13120750304076,2.8247981352241016,1.133034357930569,A,546.3954579900019,Correct,sub_011_day_12_data.csv,1,300,98.0,Training at home,,,,,,,,,,,,,
11,12,2472,A,34.85333403407422,46.352342537380366,1.7426667017037112,0.7281008939605591,A,598.0261669610627,Correct,sub_011_day_12_data.csv,1,300,98.0,Training at home,,,,,,,,,,,,,
11,12,2473,A,19.91960912329479,37.437156794363744,0.9959804561647396,0.5880614837823117,A,473.87391596566886,Correct,sub_011_day_12_data.csv,1,300,98.0,Training at home,,,,,,,,,,,,,
11,12,2474,B,63.81347102032736,39.78978307953755,3.190673551016368,0.6250164510530332,B,523.1688329949975,Correct,sub_011_day_12_data.csv,1,300,98.0,Training at home,,,,,,,,,,,,,
11,12,2475,B,55.98160377161278,40.72835646794556,2.7990801885806387,0.6397595273624205,B,790.0348749826662,Correct,sub_011_day_12_data.csv,1,300,99.0,Training at home,,,,,,,,,,,,,
11,12,2476,B,81.84880131207832,63.481143188228216,4.092440065603916,0.9971594654080976,B,808.8542909827083,Correct,sub_011_day_12_data.csv,1,300,99.0,Training at home,,,,,,,,,,,,,
11,12,2477,A,38.2050227565848,48.56057843826456,1.91025113782924,0.7627877823786144,A,1187.9802079638466,Correct,sub_011_day_12_data.csv,1,300,99.0,Training at home,,,,,,,,,,,,,
11,12,2478,A,51.86534940390204,77.13658517175584,2.593267470195102,1.2116586464929575,A,3684.7636249731295,Correct,sub_011_day_12_data.csv,1,300,99.0,Training at home,,,,,,,,,,,,,
11,12,2479,B,86.23491934202542,61.82795488365318,4.311745967101271,0.97119124424483,B,1066.67779100826,Correct,sub_011_day_12_data.csv,1,300,99.0,Training at home,,,,,,,,,,,,,
11,12,2480,A,54.710122003910485,81.5071677116267,2.7355061001955243,1.2803115964887886,A,578.4829999902286,Correct,sub_011_day_12_data.csv,1,300,99.0,Training at home,,,,,,,,,,,,,
11,12,2481,A,57.37251900944932,65.2399990095733,2.868625950472466,1.024787508043404,B,1003.1164989923128,Incorrect,sub_011_day_12_data.csv,0,300,99.0,Training at home,,,,,,,,,,,,,
11,12,2482,B,74.27039310706631,57.62974468295491,3.7135196553533154,0.9052459126211329,B,1477.3590409895403,Correct,sub_011_day_12_data.csv,1,300,99.0,Training at home,,,,,,,,,,,,,
11,12,2483,B,45.70259023093264,35.804864545550174,2.285129511546632,0.5624214970953904,B,1426.9492080202326,Correct,sub_011_day_12_data.csv,1,300,99.0,Training at home,,,,,,,,,,,,,
11,12,2484,A,39.41801970465471,68.60262552396429,1.9709009852327355,1.0776075218152892,A,660.1270000101067,Correct,sub_011_day_12_data.csv,1,300,99.0,Training at home,,,,,,,,,,,,,
11,12,2485,A,50.36205664706683,64.80493863710927,2.518102832353341,1.0179535956933992,A,710.5147499823943,Correct,sub_011_day_12_data.csv,1,300,99.0,Training at home,,,,,,,,,,,,,
11,12,2486,A,35.82262486067123,47.74107942670125,1.7911312430335615,0.7499151220068572,B,761.3990000099875,Incorrect,sub_011_day_12_data.csv,0,300,99.0,Training at home,,,,,,,,,,,,,
11,12,2487,B,71.55766634419507,58.56664814164632,3.5778833172097535,0.919962757735872,B,750.3103740164079,Correct,sub_011_day_12_data.csv,1,300,99.0,Training at home,,,,,,,,,,,,,
11,12,2488,A,26.0131017766365,40.82516204314043,1.3006550888318251,0.6412801457817143,A,583.4549580467865,Correct,sub_011_day_12_data.csv,1,300,99.0,Training at home,,,,,,,,,,,,,
11,12,2489,B,66.51354450052229,37.793795704703705,3.3256772250261144,0.5936635546858533,B,808.0510830041021,Correct,sub_011_day_12_data.csv,1,300,99.0,Training at home,,,,,,,,,,,,,
11,12,2490,A,57.12476420338699,65.49720553327302,2.8562382101693493,1.0288276986699565,A,1128.1470410176553,Correct,sub_011_day_12_data.csv,1,300,99.0,Training at home,,,,,,,,,,,,,
11,12,2491,A,49.138461226540926,62.52956972440458,2.4569230613270463,0.9822121843916009,A,2480.7842079899274,Correct,sub_011_day_12_data.csv,1,300,99.0,Training at home,,,,,,,,,,,,,
11,12,2492,A,66.0072718601076,88.0967973880399,3.30036359300538,1.383821257395273,A,578.3092909841798,Correct,sub_011_day_12_data.csv,1,300,99.0,Training at home,,,,,,,,,,,,,
11,12,2493,A,25.213634020794583,52.72188233378084,1.260681701039729,0.8281533911161569,A,660.3572079911828,Correct,sub_011_day_12_data.csv,1,300,99.0,Training at home,,,,,,,,,,,,,
11,12,2494,A,29.51612581539743,57.11132529554056,1.4758062907698717,0.8971025999262356,A,850.901291007176,Correct,sub_011_day_12_data.csv,1,300,99.0,Training at home,,,,,,,,,,,,,
11,12,2495,A,31.30077486971043,41.79958764501093,1.5650387434855215,0.656586387343245,A,494.7915829834528,Correct,sub_011_day_12_data.csv,1,300,99.0,Training at home,,,,,,,,,,,,,
11,12,2496,B,56.663229047703744,35.57380161318659,2.8331614523851876,0.5587919690412387,B,1119.702958036214,Correct,sub_011_day_12_data.csv,1,300,99.0,Training at home,,,,,,,,,,,,,
11,12,2497,B,39.43953393860349,18.624744621538923,1.9719766969301744,0.2925568043900634,B,654.9109580228105,Correct,sub_011_day_12_data.csv,1,300,99.0,Training at home,,,,,,,,,,,,,
11,12,2498,B,46.28086699539197,35.75037683050438,2.3140433497695985,0.5615656060688965,B,1380.623625009321,Correct,sub_011_day_12_data.csv,1,300,99.0,Training at home,,,,,,,,,,,,,
11,12,2499,B,42.45461874960513,15.768922682289649,2.1227309374802563,0.2476976582685331,B,713.4884999832138,Correct,sub_011_day_12_data.csv,1,300,99.0,Training at home,,,,,,,,,,,,,
11,12,2500,B,72.66280143445496,58.7574756247822,3.633140071722748,0.9229602688314856,B,2734.389875025954,Correct,sub_011_day_12_data.csv,1,300,100.0,Training at home,,,,,,,,,,,,,
11,12,2501,A,46.11071878868338,74.68660110092759,2.305535939434169,1.1731743867013271,A,708.3319579833187,Correct,sub_011_day_12_data.csv,1,300,100.0,Training at home,,,,,,,,,,,,,
11,12,2502,A,43.12184068347615,64.50217656538668,2.1560920341738075,1.0131978201918526,A,961.3385000266136,Correct,sub_011_day_12_data.csv,1,300,100.0,Training at home,,,,,,,,,,,,,
11,12,2503,B,74.42735205969916,48.549175421889544,3.721367602984958,0.7626086642162516,B,578.1696670455858,Correct,sub_011_day_12_data.csv,1,300,100.0,Training at home,,,,,,,,,,,,,
11,12,2504,A,64.7165127685573,86.71925164752807,3.235825638427865,1.3621828195033936,A,1138.1524989847094,Correct,sub_011_day_12_data.csv,1,300,100.0,Training at home,,,,,,,,,,,,,
11,12,2505,A,52.61564130037489,71.25874299529521,2.630782065018744,1.1193297174903127,A,851.7230830038898,Correct,sub_011_day_12_data.csv,1,300,100.0,Training at home,,,,,,,,,,,,,
11,12,2506,A,41.70134568906856,52.29192440985438,2.085067284453428,0.8213996278403566,A,714.0409579733387,Correct,sub_011_day_12_data.csv,1,300,100.0,Training at home,,,,,,,,,,,,,
11,12,2507,B,82.87593285554155,61.53107936959813,4.143796642777078,0.9665279345748996,B,1130.8564580394886,Correct,sub_011_day_12_data.csv,1,300,100.0,Training at home,,,,,,,,,,,,,
11,12,2508,A,23.768891080153324,43.55003293641771,1.1884445540076662,0.6840823176832169,A,575.0806250143796,Correct,sub_011_day_12_data.csv,1,300,100.0,Training at home,,,,,,,,,,,,,
11,12,2509,B,70.5293150811153,57.37971314696822,3.5264657540557653,0.9013184264380252,B,437.8695829655044,Correct,sub_011_day_12_data.csv,1,300,100.0,Training at home,,,,,,,,,,,,,
11,12,2510,A,40.59624140366034,69.77772393453303,2.0298120701830173,1.0960659244847284,A,592.7635829430073,Correct,sub_011_day_12_data.csv,1,300,100.0,Training at home,,,,,,,,,,,,,
11,12,2511,B,63.601878831189424,46.08950157947986,3.180093941559471,0.7239721978485455,B,536.0909579903819,Correct,sub_011_day_12_data.csv,1,300,100.0,Training at home,,,,,,,,,,,,,
11,12,2512,A,37.519632006912744,51.273556666726705,1.875981600345637,0.8054031447380429,A,609.9485830054618,Correct,sub_011_day_12_data.csv,1,300,100.0,Training at home,,,,,,,,,,,,,
11,12,2513,B,86.97868899784048,59.007660905155234,4.348934449892024,0.9268901700257666,B,637.7462910022587,Correct,sub_011_day_12_data.csv,1,300,100.0,Training at home,,,,,,,,,,,,,
11,12,2514,B,49.56695072562875,35.72642029960544,2.4783475362814373,0.5611892977615085,B,1227.2499580285512,Correct,sub_011_day_12_data.csv,1,300,100.0,Training at home,,,,,,,,,,,,,
11,12,2515,A,39.50575410932246,52.013589126328434,1.9752877054661229,0.8170275474305567,A,3341.7841250193305,Correct,sub_011_day_12_data.csv,1,300,100.0,Training at home,,,,,,,,,,,,,
11,12,2516,A,34.19104348759435,52.967077744721536,1.7095521743797175,0.832004911624683,A,607.1732910349965,Correct,sub_011_day_12_data.csv,1,300,100.0,Training at home,,,,,,,,,,,,,
11,12,2517,B,84.89615872989819,57.77307469096596,4.244807936494909,0.9074973351221652,B,1032.329750014469,Correct,sub_011_day_12_data.csv,1,300,100.0,Training at home,,,,,,,,,,,,,
11,12,2518,B,54.46204788982777,35.83373687341709,2.723102394491389,0.562875022560984,B,587.1530410367996,Correct,sub_011_day_12_data.csv,1,300,100.0,Training at home,,,,,,,,,,,,,
11,12,2519,B,46.314926164964966,30.29539080323716,2.315746308248248,0.4758788859254082,B,485.3953330311924,Correct,sub_011_day_12_data.csv,1,300,100.0,Training at home,,,,,,,,,,,,,
11,12,2520,A,63.56028206847522,87.45281542640981,3.178014103423761,1.373705612396766,A,505.5353330099024,Correct,sub_011_day_12_data.csv,1,300,100.0,Training at home,,,,,,,,,,,,,
11,12,2521,B,33.76003162419415,10.464751783211964,1.6880015812097071,0.1643799366188969,B,434.91683300817385,Correct,sub_011_day_12_data.csv,1,300,100.0,Training at home,,,,,,,,,,,,,
11,12,2522,A,33.89825125167304,42.35623133837633,1.694912562583652,0.6653301260319643,A,507.3494579992257,Correct,sub_011_day_12_data.csv,1,300,100.0,Training at home,,,,,,,,,,,,,
11,12,2523,A,37.32557217427675,68.35729643848197,1.8662786087138377,1.0737539015519737,A,671.2413749773987,Correct,sub_011_day_12_data.csv,1,300,100.0,Training at home,,,,,,,,,,,,,
11,12,2524,B,60.51184343633999,44.55686288054584,3.0255921718169994,0.6998975654626527,B,564.4687080057338,Correct,sub_011_day_12_data.csv,1,300,100.0,Training at home,,,,,,,,,,,,,
11,12,2525,A,64.2816174883789,79.33129579209796,3.2140808744189453,1.246133080301069,A,542.5481240381487,Correct,sub_011_day_12_data.csv,1,300,101.0,Training at home,,,,,,,,,,,,,
11,12,2526,B,46.6600761117116,32.85973870503457,2.3330038055855797,0.516159568573084,B,809.1319990344346,Correct,sub_011_day_12_data.csv,1,300,101.0,Training at home,,,,,,,,,,,,,
11,12,2527,A,26.411221800669992,48.50552317506638,1.3205610900334994,0.76192297632659,A,541.6456250241026,Correct,sub_011_day_12_data.csv,1,300,101.0,Training at home,,,,,,,,,,,,,
11,12,2528,A,45.990481207775666,76.61656673936386,2.299524060388783,1.203490216058288,A,570.6492909812368,Correct,sub_011_day_12_data.csv,1,300,101.0,Training at home,,,,,,,,,,,,,
11,12,2529,A,11.19154449459628,34.23328699965192,0.559577224729814,0.5377352147316872,A,622.4515410140157,Correct,sub_011_day_12_data.csv,1,300,101.0,Training at home,,,,,,,,,,,,,
11,12,2530,B,55.48716022091622,46.12426298982473,2.7743580110458113,0.7245182288053849,B,757.6854579965584,Correct,sub_011_day_12_data.csv,1,300,101.0,Training at home,,,,,,,,,,,,,
11,12,2531,B,34.45627033604241,14.62047647415364,1.7228135168021204,0.2296579074159174,B,427.6541250292212,Correct,sub_011_day_12_data.csv,1,300,101.0,Training at home,,,,,,,,,,,,,
11,12,2532,A,49.91903233294619,67.1686164077503,2.4959516166473095,1.055082159291896,A,837.3368330067024,Correct,sub_011_day_12_data.csv,1,300,101.0,Training at home,,,,,,,,,,,,,
11,12,2533,B,67.61525753455504,35.935316119950926,3.380762876727752,0.5644706256343236,B,485.7562080142088,Correct,sub_011_day_12_data.csv,1,300,101.0,Training at home,,,,,,,,,,,,,
11,12,2534,B,76.44334297111587,47.076399947848195,3.8221671485557938,0.739474361168074,B,495.8645830047317,Correct,sub_011_day_12_data.csv,1,300,101.0,Training at home,,,,,,,,,,,,,
11,12,2535,B,87.78692035758472,64.89763929183411,4.3893460178792365,1.0194097341727315,B,5580.304375034757,Correct,sub_011_day_12_data.csv,1,300,101.0,Training at home,,,,,,,,,,,,,
11,12,2536,A,58.67469193881798,70.82520079479872,2.9337345969408988,1.1125196525298082,A,836.3194579724222,Correct,sub_011_day_12_data.csv,1,300,101.0,Training at home,,,,,,,,,,,,,
11,12,2537,B,42.55031833879485,22.70937860323797,2.127515916939742,0.3567180849376081,B,887.8200410399586,Correct,sub_011_day_12_data.csv,1,300,101.0,Training at home,,,,,,,,,,,,,
11,12,2538,A,45.97937023898563,61.498771839018104,2.2989685119492815,0.9660204490712706,A,653.6673330119811,Correct,sub_011_day_12_data.csv,1,300,101.0,Training at home,,,,,,,,,,,,,
11,12,2539,A,45.707111916397885,71.52641735329613,2.2853555958198943,1.123534336473563,A,904.5110829756596,Correct,sub_011_day_12_data.csv,1,300,101.0,Training at home,,,,,,,,,,,,,
11,12,2540,A,58.84130092399626,73.41657034119741,2.942065046199813,1.1532247901783204,A,877.9691239469685,Correct,sub_011_day_12_data.csv,1,300,101.0,Training at home,,,,,,,,,,,,,
11,12,2541,B,83.51983006761486,58.469021047647765,4.175991503380743,0.918429234929386,B,591.8489579926245,Correct,sub_011_day_12_data.csv,1,300,101.0,Training at home,,,,,,,,,,,,,
11,12,2542,A,60.346748077243745,75.25978889760113,3.0173374038621876,1.1821779995571118,A,518.0772920139134,Correct,sub_011_day_12_data.csv,1,300,101.0,Training at home,,,,,,,,,,,,,
11,12,2543,B,74.6246570652761,54.90577090338364,3.731232853263805,0.8624578325487714,B,542.7712500095367,Correct,sub_011_day_12_data.csv,1,300,101.0,Training at home,,,,,,,,,,,,,
11,12,2544,A,55.262457022654274,77.27471233407384,2.763122851132714,1.2138283428849548,A,623.3580409898423,Correct,sub_011_day_12_data.csv,1,300,101.0,Training at home,,,,,,,,,,,,,
11,12,2545,B,70.70270816295253,54.24574896139465,3.5351354081476267,0.8520902321279681,B,1024.6899999910966,Correct,sub_011_day_12_data.csv,1,300,101.0,Training at home,,,,,,,,,,,,,
11,12,2546,B,60.382768480774,40.18350408202692,3.0191384240386996,0.6312010060979562,B,495.57183298747987,Correct,sub_011_day_12_data.csv,1,300,101.0,Training at home,,,,,,,,,,,,,
11,12,2547,B,67.94953980787814,48.52059574377355,3.3974769903939066,0.7621597356821957,B,466.11616702284664,Correct,sub_011_day_12_data.csv,1,300,101.0,Training at home,,,,,,,,,,,,,
11,12,2548,A,19.292590510400757,44.39869083375866,0.964629525520038,0.6974130047617034,A,705.6559160118923,Correct,sub_011_day_12_data.csv,1,300,101.0,Training at home,,,,,,,,,,,,,
11,12,2549,A,22.91196041541674,43.08340151811025,1.145598020770837,0.6767524885047725,A,475.7299999473617,Correct,sub_011_day_12_data.csv,1,300,101.0,Training at home,,,,,,,,,,,,,
11,12,2550,A,46.35110590826825,64.08063063827798,2.317555295413413,1.0065761922530756,A,890.7052490394562,Correct,sub_011_day_12_data.csv,1,300,102.0,Training at home,,,,,,,,,,,,,
11,12,2551,B,80.82280288801246,60.35728597092279,4.041140144400623,0.9480900309843466,B,526.4591659652069,Correct,sub_011_day_12_data.csv,1,300,102.0,Training at home,,,,,,,,,,,,,
11,12,2552,A,38.83348702906081,68.0537447366448,1.9416743514530408,1.0689857225695918,A,551.5169170103036,Correct,sub_011_day_12_data.csv,1,300,102.0,Training at home,,,,,,,,,,,,,
11,12,2553,A,28.413462607370988,47.62708142316632,1.4206731303685496,0.748124445554711,A,885.8270409982651,Correct,sub_011_day_12_data.csv,1,300,102.0,Training at home,,,,,,,,,,,,,
11,12,2554,B,39.402188465472406,12.423181779667884,1.9701094232736205,0.195142883066076,B,602.7669999748468,Correct,sub_011_day_12_data.csv,1,300,102.0,Training at home,,,,,,,,,,,,,
11,12,2555,B,73.75075790771297,61.47998746191722,3.687537895385648,0.9657253847657584,B,978.7819999619388,Correct,sub_011_day_12_data.csv,1,300,102.0,Training at home,,,,,,,,,,,,,
11,12,2556,A,36.74110045917614,59.252105038845386,1.837055022958807,0.9307298894988372,A,503.7800000282005,Correct,sub_011_day_12_data.csv,1,300,102.0,Training at home,,,,,,,,,,,,,
11,12,2557,B,37.48981599056541,23.6501922888858,1.8744907995282705,0.371496351753748,B,553.4694580128416,Correct,sub_011_day_12_data.csv,1,300,102.0,Training at home,,,,,,,,,,,,,
11,12,2558,B,81.22243477629398,61.85557868903942,4.061121738814699,0.971625157965158,B,594.9818739900365,Correct,sub_011_day_12_data.csv,1,300,102.0,Training at home,,,,,,,,,,,,,
11,12,2559,B,77.7004860809052,51.72033214810739,3.88502430404526,0.8124210775885908,B,580.9759579715319,Correct,sub_011_day_12_data.csv,1,300,102.0,Training at home,,,,,,,,,,,,,
11,12,2560,B,40.43253514245016,31.22275780305925,2.021626757122508,0.4904459326945216,B,638.9435410383157,Correct,sub_011_day_12_data.csv,1,300,102.0,Training at home,,,,,,,,,,,,,
11,12,2561,B,33.77957014914022,14.464758967788168,1.6889785074570112,0.2272119025457519,B,653.8437909912318,Correct,sub_011_day_12_data.csv,1,300,102.0,Training at home,,,,,,,,,,,,,
11,12,2562,B,51.76924900473307,22.82189960622572,2.588462450236654,0.3584855607194125,B,631.6452489700168,Correct,sub_011_day_12_data.csv,1,300,102.0,Training at home,,,,,,,,,,,,,
11,12,2563,B,36.61052836780924,23.87296935033621,1.830526418390462,0.3749957256519526,B,752.0181660074741,Correct,sub_011_day_12_data.csv,1,300,102.0,Training at home,,,,,,,,,,,,,
11,12,2564,A,28.07293542085044,44.84566762764767,1.4036467710425222,0.7044340998217377,A,877.1457910188474,Correct,sub_011_day_12_data.csv,1,300,102.0,Training at home,,,,,,,,,,,,,
11,12,2565,B,48.88036181893914,21.957662084297827,2.4440180909469573,0.344910149470186,B,833.8483750121668,Correct,sub_011_day_12_data.csv,1,300,102.0,Training at home,,,,,,,,,,,,,
11,12,2566,A,47.62746819404948,68.55403098081555,2.3813734097024737,1.0768442005164862,A,665.0000830413774,Correct,sub_011_day_12_data.csv,1,300,102.0,Training at home,,,,,,,,,,,,,
11,12,2567,B,79.98198249514817,60.79833843614555,3.9990991247574086,0.9550180669073042,B,1011.640541953966,Correct,sub_011_day_12_data.csv,1,300,102.0,Training at home,,,,,,,,,,,,,
11,12,2568,B,79.04624248509916,50.2808643181346,3.9523121242549575,0.789809969789984,B,838.8067489722744,Correct,sub_011_day_12_data.csv,1,300,102.0,Training at home,,,,,,,,,,,,,
11,12,2569,A,56.99846653441677,85.32719304060721,2.849923326720839,1.3403164140390489,A,728.9875419810414,Correct,sub_011_day_12_data.csv,1,300,102.0,Training at home,,,,,,,,,,,,,
11,12,2570,B,50.80134509859215,38.56896525155495,2.5400672549296077,0.6058398894542253,B,588.0155000486411,Correct,sub_011_day_12_data.csv,1,300,102.0,Training at home,,,,,,,,,,,,,
11,12,2571,A,17.754445311521984,47.937881705401765,0.8877222655760991,0.7530064849717336,A,837.1193740167655,Correct,sub_011_day_12_data.csv,1,300,102.0,Training at home,,,,,,,,,,,,,
11,12,2572,B,72.19538051447282,41.86599889153483,3.609769025723641,0.6576295727642212,B,510.990499984473,Correct,sub_011_day_12_data.csv,1,300,102.0,Training at home,,,,,,,,,,,,,
11,12,2573,B,86.16252607933363,63.15247270576249,4.308126303966682,0.991996721542267,B,2753.9623750490136,Correct,sub_011_day_12_data.csv,1,300,102.0,Training at home,,,,,,,,,,,,,
11,12,2574,B,47.97756353245869,37.72315011051023,2.398878176622935,0.5925538562872197,B,654.2833750136197,Correct,sub_011_day_12_data.csv,1,300,102.0,Training at home,,,,,,,,,,,,,
11,12,2575,B,56.600730317265665,43.41023774193048,2.830036515863283,0.6818864199031759,B,594.1547909751534,Correct,sub_011_day_12_data.csv,1,300,103.0,Training at home,,,,,,,,,,,,,
11,12,2576,A,48.58029241416338,64.1870483033436,2.429014620708169,1.0082477970269872,A,3451.4272910309955,Correct,sub_011_day_12_data.csv,1,300,103.0,Training at home,,,,,,,,,,,,,
11,12,2577,B,33.30252026039682,19.36310738004033,1.6651260130198409,0.304154979479025,B,499.676792009268,Correct,sub_011_day_12_data.csv,1,300,103.0,Training at home,,,,,,,,,,,,,
11,12,2578,B,69.30899629190667,58.51771951733669,3.4654498145953334,0.9191941887024648,B,4342.114540981129,Correct,sub_011_day_12_data.csv,1,300,103.0,Training at home,,,,,,,,,,,,,
11,12,2579,A,34.47106070510728,54.23214985419296,1.723553035255364,0.851876617851567,A,2185.6104159960523,Correct,sub_011_day_12_data.csv,1,300,103.0,Training at home,,,,,,,,,,,,,
11,12,2580,B,48.05631988847945,39.354016489601584,2.4028159944239724,0.6181714454649196,B,1394.7134999907576,Correct,sub_011_day_12_data.csv,1,300,103.0,Training at home,,,,,,,,,,,,,
11,12,2581,A,51.76282546050558,75.18132066878928,2.5881412730252795,1.1809454235012344,A,595.6136250169948,Correct,sub_011_day_12_data.csv,1,300,103.0,Training at home,,,,,,,,,,,,,
11,12,2582,B,31.66363609921986,12.9178510080635,1.583181804960993,0.202913129135499,B,3596.6777079738677,Correct,sub_011_day_12_data.csv,1,300,103.0,Training at home,,,,,,,,,,,,,
11,12,2583,A,32.32514077117152,58.515770263972115,1.6162570385585755,0.9191635699022144,A,2757.914540998172,Correct,sub_011_day_12_data.csv,1,300,103.0,Training at home,,,,,,,,,,,,,
11,12,2584,B,62.43374864657501,50.67041812942659,3.1216874323287502,0.795929066748648,B,600.6912079756148,Correct,sub_011_day_12_data.csv,1,300,103.0,Training at home,,,,,,,,,,,,,
11,12,2585,B,55.423785474661095,42.68011205427505,2.771189273733055,0.6704176324204983,B,1442.0651249820369,Correct,sub_011_day_12_data.csv,1,300,103.0,Training at home,,,,,,,,,,,,,
11,12,2586,A,15.622003388354692,43.57112802054657,0.7811001694177346,0.6844136784898474,A,769.145916972775,Correct,sub_011_day_12_data.csv,1,300,103.0,Training at home,,,,,,,,,,,,,
11,12,2587,B,34.12401543622696,20.89247477771742,1.706200771811348,0.3281782263849354,B,3478.020499984268,Correct,sub_011_day_12_data.csv,1,300,103.0,Training at home,,,,,,,,,,,,,
11,12,2588,A,65.50297733496477,83.77783200346363,3.2751488667482387,1.315979107778806,A,1248.848374991212,Correct,sub_011_day_12_data.csv,1,300,103.0,Training at home,,,,,,,,,,,,,
11,12,2589,A,52.07828334381862,82.67331627736958,2.603914167190931,1.2986294153244484,A,607.9434999846853,Correct,sub_011_day_12_data.csv,1,300,103.0,Training at home,,,,,,,,,,,,,
11,12,2590,B,50.80278098412669,43.381820627523055,2.540139049206334,0.6814400449138829,B,948.6522080260328,Correct,sub_011_day_12_data.csv,1,300,103.0,Training at home,,,,,,,,,,,,,
11,12,2591,B,41.167108467782235,13.987086745299724,2.058355423389112,0.2197086448207839,B,619.6069159777835,Correct,sub_011_day_12_data.csv,1,300,103.0,Training at home,,,,,,,,,,,,,
11,12,2592,A,18.30593511349865,37.083472017269585,0.9152967556749324,0.582505816295284,A,809.3519999529235,Correct,sub_011_day_12_data.csv,1,300,103.0,Training at home,,,,,,,,,,,,,
11,12,2593,A,20.65441717369959,43.86059170476247,1.0327208586849794,0.688960563408916,A,615.360249998048,Correct,sub_011_day_12_data.csv,1,300,103.0,Training at home,,,,,,,,,,,,,
11,12,2594,B,46.85181747290522,30.169245708561945,2.342590873645261,0.4738974034118179,B,2872.8677080362104,Correct,sub_011_day_12_data.csv,1,300,103.0,Training at home,,,,,,,,,,,,,
11,12,2595,A,63.00725278893834,85.96248949821424,3.150362639446917,1.350295627459398,A,891.1679160082713,Correct,sub_011_day_12_data.csv,1,300,103.0,Training at home,,,,,,,,,,,,,
11,12,2596,B,78.43564381191854,51.40191226447232,3.9217821905959274,0.8074193497526666,B,1044.5429580286143,Correct,sub_011_day_12_data.csv,1,300,103.0,Training at home,,,,,,,,,,,,,
11,12,2597,B,74.84212060752976,50.49916324873013,3.742106030376488,0.7932390013732112,B,1172.2365000168793,Correct,sub_011_day_12_data.csv,1,300,103.0,Training at home,,,,,,,,,,,,,
11,12,2598,B,45.94884201324268,20.559878777462117,2.297442100662134,0.3229538206298584,B,730.1675420021638,Correct,sub_011_day_12_data.csv,1,300,103.0,Training at home,,,,,,,,,,,,,
11,12,2599,A,55.48441806177527,75.23502519205095,2.7742209030887635,1.1817890121799517,A,542.8527499898337,Correct,sub_011_day_12_data.csv,1,300,103.0,Training at home,,,,,,,,,,,,,
11,12,2600,B,39.38167521096248,25.77061159106341,1.9690837605481244,0.4048038202650038,B,529.0843329858035,Correct,sub_011_day_12_data.csv,1,300,104.0,Training at home,,,,,,,,,,,,,
11,12,2601,B,85.4131479644831,60.46747889245569,4.270657398224155,0.9498209373481734,B,813.0967079778202,Correct,sub_011_day_12_data.csv,1,300,104.0,Training at home,,,,,,,,,,,,,
11,12,2602,A,50.7710327382526,71.83564632184734,2.5385516369126297,1.128391693752951,A,730.788916000165,Correct,sub_011_day_12_data.csv,1,300,104.0,Training at home,,,,,,,,,,,,,
11,12,2603,A,55.489890704667914,64.63362864323919,2.7744945352333956,1.0152626646022551,A,827.6923749945126,Correct,sub_011_day_12_data.csv,1,300,104.0,Training at home,,,,,,,,,,,,,
11,12,2604,A,55.935188127917286,64.91755049830948,2.7967594063958643,1.0197224986726674,A,1245.5106250126846,Correct,sub_011_day_12_data.csv,1,300,104.0,Training at home,,,,,,,,,,,,,
11,12,2605,A,25.888490851233428,36.33869168051916,1.2944245425616714,0.5708068341229177,A,1107.0949989953078,Correct,sub_011_day_12_data.csv,1,300,104.0,Training at home,,,,,,,,,,,,,
11,12,2606,A,21.47472125593311,36.04777240060436,1.0737360627966557,0.5662370847600778,A,721.7020000098273,Correct,sub_011_day_12_data.csv,1,300,104.0,Training at home,,,,,,,,,,,,,
11,12,2607,B,57.14307488921528,30.516845286623756,2.857153744460764,0.4793574848159675,B,530.127041041851,Correct,sub_011_day_12_data.csv,1,300,104.0,Training at home,,,,,,,,,,,,,
11,12,2608,B,57.80289252687305,27.921130562464185,2.8901446263436528,0.4385840932747946,B,488.3324989932589,Correct,sub_011_day_12_data.csv,1,300,104.0,Training at home,,,,,,,,,,,,,
11,12,2609,B,51.65892209171146,21.941254524310203,2.5829461045855733,0.3446524201205837,B,499.49895800091326,Correct,sub_011_day_12_data.csv,1,300,104.0,Training at home,,,,,,,,,,,,,
11,12,2610,B,79.98433598220203,63.71264009615058,3.9992167991101017,1.0007958103343857,B,905.1091250148602,Correct,sub_011_day_12_data.csv,1,300,104.0,Training at home,,,,,,,,,,,,,
11,12,2611,B,67.8315333064936,45.00355572690793,3.39157666532468,0.7069142002853641,B,995.2182080014608,Correct,sub_011_day_12_data.csv,1,300,104.0,Training at home,,,,,,,,,,,,,
11,12,2612,A,37.83808102625938,56.880906196841394,1.891904051312969,0.8934831851876354,A,741.8006670195609,Correct,sub_011_day_12_data.csv,1,300,104.0,Training at home,,,,,,,,,,,,,
11,12,2613,A,38.2103164866418,62.73362724687925,1.91051582433209,0.9854175124591814,A,417.11745801148936,Correct,sub_011_day_12_data.csv,1,300,104.0,Training at home,,,,,,,,,,,,,
11,12,2614,A,34.981782974368066,65.6400641928243,1.7490891487184033,1.0310717172466963,A,644.8063750285655,Correct,sub_011_day_12_data.csv,1,300,104.0,Training at home,,,,,,,,,,,,,
11,12,2615,A,26.408488081999955,49.9938197938943,1.320424404099998,0.7853010849469516,A,625.0519170425832,Correct,sub_011_day_12_data.csv,1,300,104.0,Training at home,,,,,,,,,,,,,
11,12,2616,A,32.61877022533031,57.62344520429099,1.6309385112665151,0.9051469606416728,A,600.5208329879679,Correct,sub_011_day_12_data.csv,1,300,104.0,Training at home,,,,,,,,,,,,,
11,12,2617,B,72.3445431189992,45.21621073107064,3.61722715594996,0.7102545772794975,B,2961.537124007009,Correct,sub_011_day_12_data.csv,1,300,104.0,Training at home,,,,,,,,,,,,,
11,12,2618,A,15.651841779041938,40.57180550564887,0.782592088952097,0.6373004305971021,A,505.96995797241107,Correct,sub_011_day_12_data.csv,1,300,104.0,Training at home,,,,,,,,,,,,,
11,12,2619,B,88.81057739581671,63.193761381129,4.440528869790835,0.9926452825383064,B,508.5722079966217,Correct,sub_011_day_12_data.csv,1,300,104.0,Training at home,,,,,,,,,,,,,
11,12,2620,B,70.46425014444002,59.801360980665336,3.523212507222001,0.9393575816576476,B,438.9970409683883,Correct,sub_011_day_12_data.csv,1,300,104.0,Training at home,,,,,,,,,,,,,
11,12,2621,A,43.7446066446359,66.49676787297243,2.187230332231795,1.0445287871859796,A,842.8240829962306,Correct,sub_011_day_12_data.csv,1,300,104.0,Training at home,,,,,,,,,,,,,
11,12,2622,B,81.03787104917569,60.107563418426096,4.051893552458784,0.94416739830255,B,474.81920797144994,Correct,sub_011_day_12_data.csv,1,300,104.0,Training at home,,,,,,,,,,,,,
11,12,2623,B,45.71793938383863,19.87290928782934,2.2858969691919317,0.3121629291205051,B,574.9651250080206,Correct,sub_011_day_12_data.csv,1,300,104.0,Training at home,,,,,,,,,,,,,
11,12,2624,B,60.79113344993608,40.552201510002575,3.039556672496804,0.6369924917535851,B,849.4176659733057,Correct,sub_011_day_12_data.csv,1,300,104.0,Training at home,,,,,,,,,,,,,
11,12,2625,A,43.36617651770629,65.48388876974307,2.1683088258853145,1.02861851943758,A,974.034583021421,Correct,sub_011_day_12_data.csv,1,300,105.0,Training at home,,,,,,,,,,,,,
11,12,2626,A,56.17399118591155,85.53002123298356,2.8086995592955772,1.3435024318346007,A,899.4955410016701,Correct,sub_011_day_12_data.csv,1,300,105.0,Training at home,,,,,,,,,,,,,
11,12,2627,B,74.59358050878511,43.9011228114344,3.729679025439256,0.689597224543728,B,518.9848750014789,Correct,sub_011_day_12_data.csv,1,300,105.0,Training at home,,,,,,,,,,,,,
11,12,2628,B,79.20267687483229,62.56906544701671,3.9601338437416143,0.9828325817516332,B,697.0317079685628,Correct,sub_011_day_12_data.csv,1,300,105.0,Training at home,,,,,,,,,,,,,
11,12,2629,B,78.03634583030117,47.463100446253456,3.901817291515058,0.7455486383927215,B,988.0733329919168,Correct,sub_011_day_12_data.csv,1,300,105.0,Training at home,,,,,,,,,,,,,
11,12,2630,B,66.10736788067133,55.002639038307734,3.3053683940335667,0.8639794336539938,B,1197.8404579567723,Correct,sub_011_day_12_data.csv,1,300,105.0,Training at home,,,,,,,,,,,,,
11,12,2631,B,58.17382379201798,36.016900548789245,2.908691189600899,0.5657521508457525,B,917.755332950037,Correct,sub_011_day_12_data.csv,1,300,105.0,Training at home,,,,,,,,,,,,,
11,12,2632,B,40.52755795717567,30.21138741505496,2.0263778978587834,0.4745593637894589,B,609.883624012582,Correct,sub_011_day_12_data.csv,1,300,105.0,Training at home,,,,,,,,,,,,,
11,12,2633,A,39.54386812709422,64.485387134849,1.977193406354711,1.012934092433677,A,526.345832971856,Correct,sub_011_day_12_data.csv,1,300,105.0,Training at home,,,,,,,,,,,,,
11,12,2634,B,71.379102282397,50.61533490117461,3.5689551141198503,0.7950638214225861,B,1595.7913330057636,Correct,sub_011_day_12_data.csv,1,300,105.0,Training at home,,,,,,,,,,,,,
11,12,2635,B,75.43692374297078,55.95919664113986,3.7718461871485385,0.879005005342958,B,479.8295410000719,Correct,sub_011_day_12_data.csv,1,300,105.0,Training at home,,,,,,,,,,,,,
11,12,2636,A,55.740973753242095,78.54493085721055,2.787048687662105,1.2337808887886546,A,560.5100829852745,Correct,sub_011_day_12_data.csv,1,300,105.0,Training at home,,,,,,,,,,,,,
11,12,2637,B,81.21013099170048,62.1958147113489,4.060506549585024,0.9769695729060284,B,697.1588330343366,Correct,sub_011_day_12_data.csv,1,300,105.0,Training at home,,,,,,,,,,,,,
11,12,2638,A,48.298697193647605,65.96680463450392,2.41493485968238,1.036204144102753,A,1347.914167039562,Correct,sub_011_day_12_data.csv,1,300,105.0,Training at home,,,,,,,,,,,,,
11,12,2639,A,55.017739696910446,79.4109387115421,2.7508869848455224,1.2473841083542498,A,556.2811660347506,Correct,sub_011_day_12_data.csv,1,300,105.0,Training at home,,,,,,,,,,,,,
11,12,2640,B,68.20333868911649,55.97568564140674,3.4101669344558245,0.8792640139534754,B,952.3617079830728,Correct,sub_011_day_12_data.csv,1,300,105.0,Training at home,,,,,,,,,,,,,
11,12,2641,A,59.21402721998851,81.96274153899435,2.9607013609994253,1.287467733434918,A,5331.188665993977,Correct,sub_011_day_12_data.csv,1,300,105.0,Training at home,,,,,,,,,,,,,
11,12,2642,B,59.82240310334098,38.04909249621597,2.991120155167049,0.597673747309353,B,1320.973415975459,Correct,sub_011_day_12_data.csv,1,300,105.0,Training at home,,,,,,,,,,,,,
11,12,2643,A,27.58342041688823,47.66188738464806,1.379171020844412,0.7486711763191719,A,823.0750829679891,Correct,sub_011_day_12_data.csv,1,300,105.0,Training at home,,,,,,,,,,,,,
11,12,2644,A,28.4088242586625,55.312493799959256,1.4204412129331248,0.8688466208684149,A,1255.837166972924,Correct,sub_011_day_12_data.csv,1,300,105.0,Training at home,,,,,,,,,,,,,
11,12,2645,B,70.78038958664172,57.34366859496592,3.5390194793320857,0.9007522399391632,B,963.4046659921296,Correct,sub_011_day_12_data.csv,1,300,105.0,Training at home,,,,,,,,,,,,,
11,12,2646,A,50.32093929798759,74.84297934328293,2.5160469648993797,1.1756307703881514,A,1749.355915992055,Correct,sub_011_day_12_data.csv,1,300,105.0,Training at home,,,,,,,,,,,,,
11,12,2647,B,55.67191825259008,34.35624053032948,2.783595912629504,0.539666564275235,B,730.7394159724936,Correct,sub_011_day_12_data.csv,1,300,105.0,Training at home,,,,,,,,,,,,,
11,12,2648,B,88.85700029176175,63.8347748873254,4.442850014588088,1.0027142991478983,B,1565.2888329932466,Correct,sub_011_day_12_data.csv,1,300,105.0,Training at home,,,,,,,,,,,,,
11,12,2649,B,37.01376512728889,23.20541672180279,1.8506882563644445,0.3645098334835269,B,914.6963749662972,Correct,sub_011_day_12_data.csv,1,300,105.0,Training at home,,,,,,,,,,,,,
11,12,2650,B,53.67895066626404,22.732586934668635,2.683947533313202,0.3570826405552315,B,442.05733301350847,Correct,sub_011_day_12_data.csv,1,300,106.0,Training at home,,,,,,,,,,,,,
11,12,2651,B,72.05930711294644,42.0197795167872,3.602965355647322,0.6600451531770077,B,543.5821670107543,Correct,sub_011_day_12_data.csv,1,300,106.0,Training at home,,,,,,,,,,,,,
11,12,2652,B,80.48028233843544,49.4864618109775,4.024014116921773,0.7773315243875939,B,616.1162490025163,Correct,sub_011_day_12_data.csv,1,300,106.0,Training at home,,,,,,,,,,,,,
11,12,2653,B,66.2780399854447,46.730180209182635,3.313901999272235,0.7340359542304766,B,705.0791240180843,Correct,sub_011_day_12_data.csv,1,300,106.0,Training at home,,,,,,,,,,,,,
11,12,2654,A,28.792889756590377,51.122431300753256,1.4396444878295187,0.8030292730404766,A,2375.361208047252,Correct,sub_011_day_12_data.csv,1,300,106.0,Training at home,,,,,,,,,,,,,
11,12,2655,A,24.94657916941879,35.62587270342989,1.2473289584709395,0.5596098998141025,A,1121.556791011244,Correct,sub_011_day_12_data.csv,1,300,106.0,Training at home,,,,,,,,,,,,,
11,12,2656,A,34.09170620916988,43.94315473339573,1.7045853104584938,0.6902574604299778,A,599.4585000444204,Correct,sub_011_day_12_data.csv,1,300,106.0,Training at home,,,,,,,,,,,,,
11,12,2657,B,65.14862228974074,39.13505937989943,3.257431114487037,0.6147320752284618,B,841.3558329921216,Correct,sub_011_day_12_data.csv,1,300,106.0,Training at home,,,,,,,,,,,,,
11,12,2658,A,18.95197673510348,49.075303944992214,0.947598836755174,0.7708730717313687,A,580.4536240175366,Correct,sub_011_day_12_data.csv,1,300,106.0,Training at home,,,,,,,,,,,,,
11,12,2659,A,34.98168201732317,61.1973888606651,1.7490841008661588,0.9612863363177164,A,953.1861250288785,Correct,sub_011_day_12_data.csv,1,300,106.0,Training at home,,,,,,,,,,,,,
11,12,2660,B,67.53413211679096,43.002410110735205,3.376706605839548,0.6754802784527058,B,903.2495830324478,Correct,sub_011_day_12_data.csv,1,300,106.0,Training at home,,,,,,,,,,,,,
11,12,2661,B,81.95734060708496,65.87613836927477,4.097867030354248,1.0347799617388915,A,723.2290000538342,Incorrect,sub_011_day_12_data.csv,0,300,106.0,Training at home,,,,,,,,,,,,,
11,12,2662,B,77.9564121099892,56.951260822323334,3.89782060549946,0.894588313060436,B,1253.605375008192,Correct,sub_011_day_12_data.csv,1,300,106.0,Training at home,,,,,,,,,,,,,
11,12,2663,A,43.49926112652759,75.85706825475918,2.1749630563263795,1.191560041760055,A,472.5740419817157,Correct,sub_011_day_12_data.csv,1,300,106.0,Training at home,,,,,,,,,,,,,
11,12,2664,A,30.050275293190268,61.024475517838056,1.5025137646595137,0.9585702198800512,A,491.78699898766354,Correct,sub_011_day_12_data.csv,1,300,106.0,Training at home,,,,,,,,,,,,,
11,12,2665,B,36.36969215395043,26.150861645904076,1.8184846076975216,0.4107767741590766,B,465.7208330463618,Correct,sub_011_day_12_data.csv,1,300,106.0,Training at home,,,,,,,,,,,,,
11,12,2666,B,43.80609344498595,25.160035557052435,2.190304672249298,0.3952129143504695,B,514.6921660052612,Correct,sub_011_day_12_data.csv,1,300,106.0,Training at home,,,,,,,,,,,,,
11,12,2667,A,18.25496373229004,35.583997756603026,0.912748186614502,0.5589521296874987,A,712.9800000111572,Correct,sub_011_day_12_data.csv,1,300,106.0,Training at home,,,,,,,,,,,,,
11,12,2668,A,29.01733039047069,46.96236420405109,1.4508665195235346,0.7376830918932759,A,838.1200410076417,Correct,sub_011_day_12_data.csv,1,300,106.0,Training at home,,,,,,,,,,,,,
11,12,2669,A,64.6847971577017,87.97407244658652,3.234239857885085,1.381893498522862,A,514.6568329655565,Correct,sub_011_day_12_data.csv,1,300,106.0,Training at home,,,,,,,,,,,,,
11,12,2670,B,37.15348762319225,26.412675315727157,1.8576743811596124,0.4148893336677045,B,832.5338740251027,Correct,sub_011_day_12_data.csv,1,300,106.0,Training at home,,,,,,,,,,,,,
11,12,2671,A,32.59070772649248,64.24624043203278,1.6295353863246242,1.0091775848101885,A,486.3692079670727,Correct,sub_011_day_12_data.csv,1,300,106.0,Training at home,,,,,,,,,,,,,
11,12,2672,B,67.7336855603503,45.0870751284406,3.3866842780175146,0.7082261199768003,B,690.1007079868577,Correct,sub_011_day_12_data.csv,1,300,106.0,Training at home,,,,,,,,,,,,,
11,12,2673,A,33.71302221471399,57.45576724944354,1.6856511107356993,0.9025130814860844,A,526.6555410344154,Correct,sub_011_day_12_data.csv,1,300,106.0,Training at home,,,,,,,,,,,,,
11,12,2674,A,14.769080456419534,38.61390369017263,0.7384540228209766,0.6065457807973506,A,490.14916602754965,Correct,sub_011_day_12_data.csv,1,300,106.0,Training at home,,,,,,,,,,,,,
11,12,2675,B,32.51379474847467,20.18912079690424,1.6256897374237338,0.3171299678899563,B,871.093166002538,Correct,sub_011_day_12_data.csv,1,300,107.0,Training at home,,,,,,,,,,,,,
11,12,2676,A,40.835425155433136,50.21258469298597,2.0417712577716567,0.7887374359462,B,732.9842080362141,Incorrect,sub_011_day_12_data.csv,0,300,107.0,Training at home,,,,,,,,,,,,,
11,12,2677,A,57.796759670320455,84.86243826483373,2.889837983516023,1.333016063092595,A,806.374041014351,Correct,sub_011_day_12_data.csv,1,300,107.0,Training at home,,,,,,,,,,,,,
11,12,2678,B,66.58722108149497,42.85030526460977,3.3293610540747487,0.6730910211168905,B,1038.4008749970235,Correct,sub_011_day_12_data.csv,1,300,107.0,Training at home,,,,,,,,,,,,,
11,12,2679,B,74.03473568653564,53.32370680964179,3.701736784326782,0.8376068278767334,B,2031.383541005198,Correct,sub_011_day_12_data.csv,1,300,107.0,Training at home,,,,,,,,,,,,,
11,12,2680,A,32.72382442704496,59.63798280993976,1.636191221352248,0.9367912433531056,A,1140.0092910043895,Correct,sub_011_day_12_data.csv,1,300,107.0,Training at home,,,,,,,,,,,,,
11,12,2681,A,47.00819147830104,74.54305081675952,2.3504095739150523,1.1709195041105116,A,846.8881250009872,Correct,sub_011_day_12_data.csv,1,300,107.0,Training at home,,,,,,,,,,,,,
11,12,2682,A,53.99284085466142,63.05032770072265,2.6996420427330707,0.9903922315550966,A,839.7851249901578,Correct,sub_011_day_12_data.csv,1,300,107.0,Training at home,,,,,,,,,,,,,
11,12,2683,B,59.93019712630908,48.23099045347891,2.9965098563154537,0.7576106264200438,B,775.9777079918422,Correct,sub_011_day_12_data.csv,1,300,107.0,Training at home,,,,,,,,,,,,,
11,12,2684,A,59.47303813281515,76.51190690376737,2.9736519066407574,1.2018462232051086,A,640.6033329549246,Correct,sub_011_day_12_data.csv,1,300,107.0,Training at home,,,,,,,,,,,,,
11,12,2685,B,70.11664255719607,50.16961966990351,3.505832127859804,0.7880625429418142,B,1319.1618329728954,Correct,sub_011_day_12_data.csv,1,300,107.0,Training at home,,,,,,,,,,,,,
11,12,2686,A,24.62168210190046,44.07200256150658,1.231084105095023,0.6922813973810981,A,1035.0835410063155,Correct,sub_011_day_12_data.csv,1,300,107.0,Training at home,,,,,,,,,,,,,
11,12,2687,A,38.121920275358335,54.77408645966147,1.9060960137679168,0.8603893381438235,A,908.0461660050788,Correct,sub_011_day_12_data.csv,1,300,107.0,Training at home,,,,,,,,,,,,,
11,12,2688,B,63.06726216265466,30.61403062843461,3.1533631081327327,0.4808840685953154,B,650.318791042082,Correct,sub_011_day_12_data.csv,1,300,107.0,Training at home,,,,,,,,,,,,,
11,12,2689,A,18.493304479324895,33.11036176382922,0.924665223966245,0.5200963463747313,A,539.8020829888992,Correct,sub_011_day_12_data.csv,1,300,107.0,Training at home,,,,,,,,,,,,,
11,12,2690,A,19.56061297334221,50.26116784450278,0.9780306486671104,0.7895005783056673,A,660.7899160007946,Correct,sub_011_day_12_data.csv,1,300,107.0,Training at home,,,,,,,,,,,,,
11,12,2691,B,60.47380199462374,37.02932821932493,3.023690099731187,0.5816553275059821,B,617.4456249573268,Correct,sub_011_day_12_data.csv,1,300,107.0,Training at home,,,,,,,,,,,,,
11,12,2692,B,69.06889045620017,57.45497559897724,3.4534445228100084,0.9025006462696388,B,677.0233749994077,Correct,sub_011_day_12_data.csv,1,300,107.0,Training at home,,,,,,,,,,,,,
11,12,2693,A,32.31475833478015,42.907414983689975,1.6157379167390076,0.6739880984864451,B,928.9856670075096,Incorrect,sub_011_day_12_data.csv,0,300,107.0,Training at home,,,,,,,,,,,,,
11,12,2694,A,18.373676013430213,46.76586348214458,0.9186838006715108,0.734596465771443,A,452.0381670445204,Correct,sub_011_day_12_data.csv,1,300,107.0,Training at home,,,,,,,,,,,,,
11,12,2695,A,38.50959461174544,46.17523907430406,1.925479730587272,0.7253189592679299,A,740.9804579801857,Correct,sub_011_day_12_data.csv,1,300,107.0,Training at home,,,,,,,,,,,,,
11,12,2696,A,64.01292884441985,82.1885318220653,3.200646442220992,1.2910144389076563,A,929.9157080240548,Correct,sub_011_day_12_data.csv,1,300,107.0,Training at home,,,,,,,,,,,,,
11,12,2697,A,17.242242624088888,40.91030914356875,0.8621121312044444,0.6426176333076147,A,733.8592080050148,Correct,sub_011_day_12_data.csv,1,300,107.0,Training at home,,,,,,,,,,,,,
11,12,2698,A,11.602906119118014,33.63008808645907,0.5801453059559007,0.5282601883599872,A,446.30787504138425,Correct,sub_011_day_12_data.csv,1,300,107.0,Training at home,,,,,,,,,,,,,
11,12,2699,A,67.65104567776676,89.3682691168967,3.382552283888338,1.4037934886083914,A,1090.0297909975052,Correct,sub_011_day_12_data.csv,1,300,107.0,Training at home,,,,,,,,,,,,,
