subject,day,trial,cat,x,y,xt,yt,resp,rt,fb,f_name,acc,n_trials,block,session_type,ns_left_digit,ns_right_digit,ns_left_size,ns_right_size,ns_congruent,ns_cue,ns_correct_side,ns_resp,ns_rt,ns_fb,acc_stroop,acc_stroop_mean,resp_key
11,9,1800,B,71.74073855826818,54.12400659619689,3.5870369279134087,0.8501779075272883,B,1153.0634990194812,Correct,sub_011_day_09_data.csv,1,300,72.0,Training at home,,,,,,,,,,,,,
11,9,1801,B,43.552598666435294,29.95975855410083,2.177629933321765,0.4706067868844356,B,675.4711240064353,Correct,sub_011_day_09_data.csv,1,300,72.0,Training at home,,,,,,,,,,,,,
11,9,1802,B,58.31832436290154,35.32394617488903,2.9159162181450773,0.5548672489941633,B,2855.0050830235705,Correct,sub_011_day_09_data.csv,1,300,72.0,Training at home,,,,,,,,,,,,,
11,9,1803,A,38.74520460619325,46.90701234477157,1.9372602303096624,0.7368136269209007,A,1795.6617909949273,Correct,sub_011_day_09_data.csv,1,300,72.0,Training at home,,,,,,,,,,,,,
11,9,1804,B,60.9997482287581,45.64970473131526,3.049987411437905,0.7170638851122163,B,3709.964832989499,Correct,sub_011_day_09_data.csv,1,300,72.0,Training at home,,,,,,,,,,,,,
11,9,1805,A,49.27320639068737,79.93427568305452,2.4636603195343683,1.2556046662795266,A,798.2555819908157,Correct,sub_011_day_09_data.csv,1,300,72.0,Training at home,,,,,,,,,,,,,
11,9,1806,B,59.21487438264166,37.10930842950716,2.960743719132083,0.5829116537096873,B,772.8106239810586,Correct,sub_011_day_09_data.csv,1,300,72.0,Training at home,,,,,,,,,,,,,
11,9,1807,A,48.542898178632726,65.67924655492105,2.4271449089316364,1.0316871923512636,A,758.2644160138443,Correct,sub_011_day_09_data.csv,1,300,72.0,Training at home,,,,,,,,,,,,,
11,9,1808,A,18.84814532162601,39.597807259579064,0.9424072660813004,0.6220009019247908,A,773.5507500474341,Correct,sub_011_day_09_data.csv,1,300,72.0,Training at home,,,,,,,,,,,,,
11,9,1809,B,65.6388949284663,33.20528233999822,3.281944746423315,0.5215873552985665,B,989.7802909836172,Correct,sub_011_day_09_data.csv,1,300,72.0,Training at home,,,,,,,,,,,,,
11,9,1810,B,60.74574795908917,45.30436013160249,3.0372873979544583,0.7116392248251435,B,788.7350410455838,Correct,sub_011_day_09_data.csv,1,300,72.0,Training at home,,,,,,,,,,,,,
11,9,1811,B,83.30592356247156,67.29297637850853,4.165296178123578,1.0570356011445694,B,939.14420803776,Correct,sub_011_day_09_data.csv,1,300,72.0,Training at home,,,,,,,,,,,,,
11,9,1812,A,26.358678523480418,43.029938234530505,1.3179339261740208,0.6759126892101179,A,550.6847910000943,Correct,sub_011_day_09_data.csv,1,300,72.0,Training at home,,,,,,,,,,,,,
11,9,1813,B,54.20286494338197,37.94893774218661,2.7101432471690985,0.5961005201119494,B,1125.772750005126,Correct,sub_011_day_09_data.csv,1,300,72.0,Training at home,,,,,,,,,,,,,
11,9,1814,B,67.09339204974218,54.24941079293757,3.354669602487109,0.8521477520433376,B,1378.5691240336746,Correct,sub_011_day_09_data.csv,1,300,72.0,Training at home,,,,,,,,,,,,,
11,9,1815,A,41.64067529942625,69.03707465911447,2.0820337649713125,1.0844318328720204,A,895.6539580249228,Correct,sub_011_day_09_data.csv,1,300,72.0,Training at home,,,,,,,,,,,,,
11,9,1816,A,35.59160635652581,61.20356108168541,1.7795803178262903,0.9613832893387853,A,557.6990409754217,Correct,sub_011_day_09_data.csv,1,300,72.0,Training at home,,,,,,,,,,,,,
11,9,1817,A,29.395322497963768,47.80354151821611,1.4697661248981886,0.7508962742460119,A,538.884666049853,Correct,sub_011_day_09_data.csv,1,300,72.0,Training at home,,,,,,,,,,,,,
11,9,1818,B,80.49374986657917,53.65636018171328,4.024687493328958,0.8428321348261918,B,671.9494580174796,Correct,sub_011_day_09_data.csv,1,300,72.0,Training at home,,,,,,,,,,,,,
11,9,1819,A,15.949970659073005,38.691929342395426,0.7974985329536501,0.6077714048764241,A,613.3607910014689,Correct,sub_011_day_09_data.csv,1,300,72.0,Training at home,,,,,,,,,,,,,
11,9,1820,A,40.2145016735658,60.94701869483022,2.01072508367829,0.957353530949392,A,736.5897910203785,Correct,sub_011_day_09_data.csv,1,300,72.0,Training at home,,,,,,,,,,,,,
11,9,1821,B,39.03927499144493,27.76920396843847,1.9519637495722464,0.4361976359164142,B,676.7882909625769,Correct,sub_011_day_09_data.csv,1,300,72.0,Training at home,,,,,,,,,,,,,
11,9,1822,B,61.5874042992063,38.00895697696373,3.079370214960315,0.5970433000471989,B,867.0865829917602,Correct,sub_011_day_09_data.csv,1,300,72.0,Training at home,,,,,,,,,,,,,
11,9,1823,A,33.2918648302683,55.54056393145112,1.6645932415134153,0.8724291381164053,A,1237.94874898158,Correct,sub_011_day_09_data.csv,1,300,72.0,Training at home,,,,,,,,,,,,,
11,9,1824,B,58.56549551792762,48.30134140790279,2.9282747758963814,0.7587156966279994,B,1842.5582490162924,Correct,sub_011_day_09_data.csv,1,300,72.0,Training at home,,,,,,,,,,,,,
11,9,1825,A,39.69100489850919,62.70649759013181,1.9845502449254595,0.9849913608075208,A,1123.718499962706,Correct,sub_011_day_09_data.csv,1,300,73.0,Training at home,,,,,,,,,,,,,
11,9,1826,B,60.47373663452747,28.26817717198945,3.0236868317263736,0.4440354886694837,B,579.2959579848684,Correct,sub_011_day_09_data.csv,1,300,73.0,Training at home,,,,,,,,,,,,,
11,9,1827,A,37.7319340932655,70.61881913385614,1.886596704663275,1.1092778169805435,A,728.592332045082,Correct,sub_011_day_09_data.csv,1,300,73.0,Training at home,,,,,,,,,,,,,
11,9,1828,A,22.1200772733124,51.23865040600741,1.10600386366562,0.8048548384768427,A,551.7994579859078,Correct,sub_011_day_09_data.csv,1,300,73.0,Training at home,,,,,,,,,,,,,
11,9,1829,A,26.832896754492307,36.499027797160565,1.3416448377246153,0.5733253879536464,A,4002.8155819745734,Correct,sub_011_day_09_data.csv,1,300,73.0,Training at home,,,,,,,,,,,,,
11,9,1830,B,51.586417099681725,21.889488317469247,2.5793208549840863,0.3438392784450049,B,740.852040995378,Correct,sub_011_day_09_data.csv,1,300,73.0,Training at home,,,,,,,,,,,,,
11,9,1831,A,58.46091367243196,75.75420921358665,2.9230456836215977,1.18994433571954,A,1262.4439159990288,Correct,sub_011_day_09_data.csv,1,300,73.0,Training at home,,,,,,,,,,,,,
11,9,1832,A,42.53614634426414,51.640153284624866,2.1268073172132067,0.8111616309461416,A,1655.7500410126522,Correct,sub_011_day_09_data.csv,1,300,73.0,Training at home,,,,,,,,,,,,,
11,9,1833,B,54.4013771342917,39.870396520430496,2.720068856714585,0.6262827240214824,B,711.3700410118327,Correct,sub_011_day_09_data.csv,1,300,73.0,Training at home,,,,,,,,,,,,,
11,9,1834,B,85.74103318676057,65.39508735906017,4.287051659338029,1.027223630140431,B,531.1851660371758,Correct,sub_011_day_09_data.csv,1,300,73.0,Training at home,,,,,,,,,,,,,
11,9,1835,A,18.501805791945564,42.381394538702295,0.9250902895972782,0.6657253886583886,A,783.9625410269946,Correct,sub_011_day_09_data.csv,1,300,73.0,Training at home,,,,,,,,,,,,,
11,9,1836,B,34.80437427146554,21.540013784219813,1.7402187135732772,0.3383497453136392,B,654.4393739895895,Correct,sub_011_day_09_data.csv,1,300,73.0,Training at home,,,,,,,,,,,,,
11,9,1837,A,15.810891352241892,33.92798548403432,0.7905445676120947,0.5329395497387168,A,623.1863319990225,Correct,sub_011_day_09_data.csv,1,300,73.0,Training at home,,,,,,,,,,,,,
11,9,1838,A,27.22207124551055,57.1326942804214,1.3611035622755276,0.8974382631558173,A,588.831207016483,Correct,sub_011_day_09_data.csv,1,300,73.0,Training at home,,,,,,,,,,,,,
11,9,1839,B,41.629044186458344,18.112785593008425,2.0814522093229173,0.2845149707752116,B,1087.138706992846,Correct,sub_011_day_09_data.csv,1,300,73.0,Training at home,,,,,,,,,,,,,
11,9,1840,A,41.9478778460538,58.77798661376049,2.0973938923026902,0.9232824546929458,A,1369.2750820191577,Correct,sub_011_day_09_data.csv,1,300,73.0,Training at home,,,,,,,,,,,,,
11,9,1841,A,35.53798457329541,43.88711293610437,1.7768992286647705,0.6893771579366554,A,1428.4098320058547,Correct,sub_011_day_09_data.csv,1,300,73.0,Training at home,,,,,,,,,,,,,
11,9,1842,B,42.47919833396859,33.602645782952294,2.1239599166984293,0.5278291256645149,B,839.8850410012528,Correct,sub_011_day_09_data.csv,1,300,73.0,Training at home,,,,,,,,,,,,,
11,9,1843,A,41.846568930160544,66.75769081736351,2.092328446508027,1.04862735521224,A,631.2895409646444,Correct,sub_011_day_09_data.csv,1,300,73.0,Training at home,,,,,,,,,,,,,
11,9,1844,B,55.90516532134309,34.88641719945805,2.7952582660671546,0.5479945599194301,B,529.6290830010548,Correct,sub_011_day_09_data.csv,1,300,73.0,Training at home,,,,,,,,,,,,,
11,9,1845,A,19.733926593389526,49.68832808599479,0.9866963296694764,0.780502432420603,A,568.4999999939464,Correct,sub_011_day_09_data.csv,1,300,73.0,Training at home,,,,,,,,,,,,,
11,9,1846,B,50.9025851599139,34.72371196829266,2.545129257995695,0.5454387921247811,B,461.6661660256795,Correct,sub_011_day_09_data.csv,1,300,73.0,Training at home,,,,,,,,,,,,,
11,9,1847,B,54.494102417881706,28.582111996966887,2.7247051208940856,0.4489667653687593,B,462.6806660089642,Correct,sub_011_day_09_data.csv,1,300,73.0,Training at home,,,,,,,,,,,,,
11,9,1848,B,50.40845374607425,28.465344208086453,2.520422687303713,0.4471325812301459,B,521.7662079958245,Correct,sub_011_day_09_data.csv,1,300,73.0,Training at home,,,,,,,,,,,,,
11,9,1849,A,13.960995352064202,30.990974432114232,0.6980497676032101,0.4868050880175958,A,574.4775820057839,Correct,sub_011_day_09_data.csv,1,300,73.0,Training at home,,,,,,,,,,,,,
11,9,1850,B,48.85768573807643,21.346684984293475,2.4428842869038214,0.3353129436257597,B,550.2655410091393,Correct,sub_011_day_09_data.csv,1,300,74.0,Training at home,,,,,,,,,,,,,
11,9,1851,A,51.58775451620258,78.23819727552355,2.5793877258101294,1.228962728954469,A,705.362374021206,Correct,sub_011_day_09_data.csv,1,300,74.0,Training at home,,,,,,,,,,,,,
11,9,1852,A,58.45377645834382,83.2447706778814,2.922688822917191,1.3076058000569963,A,876.650582998991,Correct,sub_011_day_09_data.csv,1,300,74.0,Training at home,,,,,,,,,,,,,
11,9,1853,A,56.54108123991264,80.79096335565416,2.8270540619956317,1.269061484772826,A,733.9255819679238,Correct,sub_011_day_09_data.csv,1,300,74.0,Training at home,,,,,,,,,,,,,
11,9,1854,A,42.781154178315035,63.35987145253263,2.1390577089157516,0.9952545334383508,A,1038.938290963415,Correct,sub_011_day_09_data.csv,1,300,74.0,Training at home,,,,,,,,,,,,,
11,9,1855,A,55.94408767778472,72.53764556598587,2.797204383889236,1.139418672094007,A,915.3241659514606,Correct,sub_011_day_09_data.csv,1,300,74.0,Training at home,,,,,,,,,,,,,
11,9,1856,B,77.93567320248974,54.258456578741495,3.8967836601244863,0.8522898429144752,B,752.9749579844065,Correct,sub_011_day_09_data.csv,1,300,74.0,Training at home,,,,,,,,,,,,,
11,9,1857,A,33.60253496524409,47.40127119916825,1.6801267482622049,0.7445774268506221,A,1131.4965820056386,Correct,sub_011_day_09_data.csv,1,300,74.0,Training at home,,,,,,,,,,,,,
11,9,1858,A,14.720095468794526,34.444220617988144,0.7360047734397263,0.5410485522604882,A,503.26649902854115,Correct,sub_011_day_09_data.csv,1,300,74.0,Training at home,,,,,,,,,,,,,
11,9,1859,B,41.14219245980355,25.50381876419429,2.0571096229901773,0.4006130483403914,B,1295.8682079915889,Correct,sub_011_day_09_data.csv,1,300,74.0,Training at home,,,,,,,,,,,,,
11,9,1860,A,45.73821454394648,59.50376065587477,2.286910727197324,0.9346828866873076,A,1288.7037909822538,Correct,sub_011_day_09_data.csv,1,300,74.0,Training at home,,,,,,,,,,,,,
11,9,1861,B,59.23396716100364,35.62427972880831,2.9616983580501817,0.5595848774272599,B,603.8403739803471,Correct,sub_011_day_09_data.csv,1,300,74.0,Training at home,,,,,,,,,,,,,
11,9,1862,B,59.29434812540485,42.2627426737832,2.9647174062702426,0.6638616095225658,B,665.4194989823736,Correct,sub_011_day_09_data.csv,1,300,74.0,Training at home,,,,,,,,,,,,,
11,9,1863,A,35.67842899779476,62.3205877988188,1.783921449889738,0.9789295039808342,A,560.2653750102036,Correct,sub_011_day_09_data.csv,1,300,74.0,Training at home,,,,,,,,,,,,,
11,9,1864,B,66.6316627521721,58.16722211331879,3.3315831376086056,0.9136885883546404,B,699.8058329918422,Correct,sub_011_day_09_data.csv,1,300,74.0,Training at home,,,,,,,,,,,,,
11,9,1865,B,81.77264437742481,67.90515307109949,4.088632218871241,1.0666516501452827,B,1203.2127489801496,Correct,sub_011_day_09_data.csv,1,300,74.0,Training at home,,,,,,,,,,,,,
11,9,1866,A,37.75877318754583,45.00835102649833,1.8879386593772916,0.7069895246751889,A,2257.953124004416,Correct,sub_011_day_09_data.csv,1,300,74.0,Training at home,,,,,,,,,,,,,
11,9,1867,B,68.15665779786421,44.33187232711335,3.40783288989321,0.6963634221136997,B,732.497624005191,Correct,sub_011_day_09_data.csv,1,300,74.0,Training at home,,,,,,,,,,,,,
11,9,1868,B,47.47257728906752,19.048504466740248,2.3736288644533756,0.2992132084729176,B,914.9167079594918,Correct,sub_011_day_09_data.csv,1,300,74.0,Training at home,,,,,,,,,,,,,
11,9,1869,A,55.14278749119049,66.01309025707128,2.7571393745595243,1.0369311969618755,A,971.0682069999166,Correct,sub_011_day_09_data.csv,1,300,74.0,Training at home,,,,,,,,,,,,,
11,9,1870,A,23.989396520691532,47.66488226498209,1.1994698260345766,0.7487182197894509,A,731.4703319570981,Correct,sub_011_day_09_data.csv,1,300,74.0,Training at home,,,,,,,,,,,,,
11,9,1871,B,64.02785920008608,35.90288947609483,3.2013929600043043,0.5639612691037291,B,1182.168707018718,Correct,sub_011_day_09_data.csv,1,300,74.0,Training at home,,,,,,,,,,,,,
11,9,1872,A,19.90632926979793,39.715976207668,0.9953164634898966,0.6238570954207839,A,895.651665981859,Correct,sub_011_day_09_data.csv,1,300,74.0,Training at home,,,,,,,,,,,,,
11,9,1873,B,65.88932375953142,41.22935568970804,3.294466187976571,0.6476292047351367,B,889.0999999712221,Correct,sub_011_day_09_data.csv,1,300,74.0,Training at home,,,,,,,,,,,,,
11,9,1874,A,33.747125624980505,56.70226512789045,1.6873562812490253,0.8906770978384067,A,1117.3323330003768,Correct,sub_011_day_09_data.csv,1,300,74.0,Training at home,,,,,,,,,,,,,
11,9,1875,B,62.05672805777371,47.99844309549473,3.102836402888686,0.7539577810627699,B,838.2506659836508,Correct,sub_011_day_09_data.csv,1,300,75.0,Training at home,,,,,,,,,,,,,
11,9,1876,A,51.88878392644521,74.56936582772286,2.59443919632226,1.1713328593361196,A,974.9149990384468,Correct,sub_011_day_09_data.csv,1,300,75.0,Training at home,,,,,,,,,,,,,
11,9,1877,A,28.40155920990573,54.67640698651368,1.4200779604952865,0.8588549925675852,A,631.6987909958698,Correct,sub_011_day_09_data.csv,1,300,75.0,Training at home,,,,,,,,,,,,,
11,9,1878,A,66.54529076565075,88.75567309265354,3.327264538282537,1.394170852761488,A,1049.232416029554,Correct,sub_011_day_09_data.csv,1,300,75.0,Training at home,,,,,,,,,,,,,
11,9,1879,A,24.30698770804573,56.63368865232375,1.2153493854022868,0.8895999010791596,A,1193.124915997032,Correct,sub_011_day_09_data.csv,1,300,75.0,Training at home,,,,,,,,,,,,,
11,9,1880,A,38.09613396310452,58.383673287181175,1.904806698155226,0.9170885954429752,A,706.4668739913031,Correct,sub_011_day_09_data.csv,1,300,75.0,Training at home,,,,,,,,,,,,,
11,9,1881,A,37.3783066487736,52.083992574852594,1.86891533243868,0.8181334422139113,A,642.4096659757197,Correct,sub_011_day_09_data.csv,1,300,75.0,Training at home,,,,,,,,,,,,,
11,9,1882,A,49.507526474785685,65.42746673628604,2.4753763237392845,1.027732244208534,A,807.8388330177404,Correct,sub_011_day_09_data.csv,1,300,75.0,Training at home,,,,,,,,,,,,,
11,9,1883,B,82.66235989705045,55.68494099597556,4.1331179948525225,0.8746970077426895,B,820.0081660179421,Correct,sub_011_day_09_data.csv,1,300,75.0,Training at home,,,,,,,,,,,,,
11,9,1884,B,64.37273299659059,56.87111834796866,3.218636649829529,0.8933294380170701,B,614.2011660267599,Correct,sub_011_day_09_data.csv,1,300,75.0,Training at home,,,,,,,,,,,,,
11,9,1885,B,66.15632550200093,34.42438771075727,3.307816275100046,0.540737017682209,B,1134.4937069807202,Correct,sub_011_day_09_data.csv,1,300,75.0,Training at home,,,,,,,,,,,,,
11,9,1886,B,38.97333137718291,18.77724932758015,1.9486665688591456,0.2949523427107485,B,788.9119579922408,Correct,sub_011_day_09_data.csv,1,300,75.0,Training at home,,,,,,,,,,,,,
11,9,1887,B,73.69644360366777,48.646615756789615,3.6848221801833887,0.7641392534176786,B,774.2524570203386,Correct,sub_011_day_09_data.csv,1,300,75.0,Training at home,,,,,,,,,,,,,
11,9,1888,A,53.638967743833135,61.423285078471594,2.6819483871916567,0.9648347058093896,B,2694.09204099793,Incorrect,sub_011_day_09_data.csv,0,300,75.0,Training at home,,,,,,,,,,,,,
11,9,1889,A,42.24093000287522,71.79331577955541,2.112046500143761,1.1277267671495173,A,538.3502490003593,Correct,sub_011_day_09_data.csv,1,300,75.0,Training at home,,,,,,,,,,,,,
11,9,1890,B,72.12521901126316,48.95900035442848,3.6062609505631578,0.7690461792028629,B,770.7322080386803,Correct,sub_011_day_09_data.csv,1,300,75.0,Training at home,,,,,,,,,,,,,
11,9,1891,B,67.0065876404089,48.15832529857378,3.350329382020445,0.7564692048359345,B,638.6494159814902,Correct,sub_011_day_09_data.csv,1,300,75.0,Training at home,,,,,,,,,,,,,
11,9,1892,B,68.48577789814374,44.226525099569464,3.424288894907187,0.6947086317330601,B,530.1959160133265,Correct,sub_011_day_09_data.csv,1,300,75.0,Training at home,,,,,,,,,,,,,
11,9,1893,A,39.23427064652985,46.26091443434868,1.9617135323264927,0.7266647446764791,B,1137.0197070064023,Incorrect,sub_011_day_09_data.csv,0,300,75.0,Training at home,,,,,,,,,,,,,
11,9,1894,B,56.86167118101143,43.318399856048785,2.8430835590505716,0.6804438337651401,B,663.9691659947857,Correct,sub_011_day_09_data.csv,1,300,75.0,Training at home,,,,,,,,,,,,,
11,9,1895,A,26.032620980160857,49.26217450713824,1.301631049008043,0.7738084276574194,A,579.4852909748442,Correct,sub_011_day_09_data.csv,1,300,75.0,Training at home,,,,,,,,,,,,,
11,9,1896,B,75.78606478352359,44.48367371177509,3.789303239176179,0.6987479126879901,B,507.05079099861905,Correct,sub_011_day_09_data.csv,1,300,75.0,Training at home,,,,,,,,,,,,,
11,9,1897,A,40.78334245301003,73.2670930409347,2.039167122650502,1.1508768062364017,A,1032.7664579963312,Correct,sub_011_day_09_data.csv,1,300,75.0,Training at home,,,,,,,,,,,,,
11,9,1898,B,42.663309645730266,34.67842999481733,2.133165482286514,0.5447275045487302,B,1016.958833031822,Correct,sub_011_day_09_data.csv,1,300,75.0,Training at home,,,,,,,,,,,,,
11,9,1899,B,63.91353937919828,45.693802552454216,3.195676968959914,0.7177565720668636,B,551.9613320357166,Correct,sub_011_day_09_data.csv,1,300,75.0,Training at home,,,,,,,,,,,,,
11,9,1900,A,26.56878215186052,45.05857998001839,1.3284391075930262,0.7077785192320696,A,919.0034580533392,Correct,sub_011_day_09_data.csv,1,300,76.0,Training at home,,,,,,,,,,,,,
11,9,1901,B,55.11499914700135,27.506641891138237,2.755749957350067,0.4320733204506257,B,644.0920410095714,Correct,sub_011_day_09_data.csv,1,300,76.0,Training at home,,,,,,,,,,,,,
11,9,1902,A,54.55996207682871,78.73072619631829,2.7279981038414354,1.236699355150715,A,786.3475410267711,Correct,sub_011_day_09_data.csv,1,300,76.0,Training at home,,,,,,,,,,,,,
11,9,1903,B,43.304898393768426,32.70488958145394,2.165244919688422,0.5137272042278054,B,589.2452079569921,Correct,sub_011_day_09_data.csv,1,300,76.0,Training at home,,,,,,,,,,,,,
11,9,1904,A,68.16508269614042,82.16808714392813,3.408254134807021,1.2906932946544527,A,943.5614160029218,Correct,sub_011_day_09_data.csv,1,300,76.0,Training at home,,,,,,,,,,,,,
11,9,1905,A,34.690255942783395,46.68340220635069,1.7345127971391696,0.7333011670802443,A,1288.6850829818286,Correct,sub_011_day_09_data.csv,1,300,76.0,Training at home,,,,,,,,,,,,,
11,9,1906,A,35.6282602172163,57.08459287440824,1.781413010860815,0.896682688037026,A,924.1679579718038,Correct,sub_011_day_09_data.csv,1,300,76.0,Training at home,,,,,,,,,,,,,
11,9,1907,B,46.32584572985863,28.399669604178783,2.3162922864929314,0.4461009669643271,B,871.1614989442751,Correct,sub_011_day_09_data.csv,1,300,76.0,Training at home,,,,,,,,,,,,,
11,9,1908,A,31.003225341920608,61.965176926799145,1.5501612670960303,0.9733467230581198,A,1622.7143749711104,Correct,sub_011_day_09_data.csv,1,300,76.0,Training at home,,,,,,,,,,,,,
11,9,1909,A,30.92095766547583,42.99921236281418,1.5460478832737914,0.6754300483458221,A,1589.2524160444736,Correct,sub_011_day_09_data.csv,1,300,76.0,Training at home,,,,,,,,,,,,,
11,9,1910,A,55.416385918142545,80.92653354207835,2.770819295907127,1.2711910162814064,A,961.5135820349678,Correct,sub_011_day_09_data.csv,1,300,76.0,Training at home,,,,,,,,,,,,,
11,9,1911,B,64.87557994289473,53.46610497662684,3.2437789971447364,0.8398436130531577,B,1331.931582011748,Correct,sub_011_day_09_data.csv,1,300,76.0,Training at home,,,,,,,,,,,,,
11,9,1912,B,74.4403869106352,53.6539736906312,3.72201934553176,0.8427946479119351,B,3729.852248972747,Correct,sub_011_day_09_data.csv,1,300,76.0,Training at home,,,,,,,,,,,,,
11,9,1913,A,48.248650757202114,79.1842058401159,2.4124325378601057,1.2438225967382504,A,2526.2008329737,Correct,sub_011_day_09_data.csv,1,300,76.0,Training at home,,,,,,,,,,,,,
11,9,1914,B,75.12507348082406,47.62178784727459,3.756253674041203,0.7480412942590478,B,1082.073207013309,Correct,sub_011_day_09_data.csv,1,300,76.0,Training at home,,,,,,,,,,,,,
11,9,1915,A,49.06761298360816,60.95528906896362,2.453380649180408,0.9574834416824916,A,1710.91104100924,Correct,sub_011_day_09_data.csv,1,300,76.0,Training at home,,,,,,,,,,,,,
11,9,1916,A,48.72065712150827,65.75287040790903,2.4360328560754136,1.0328436731296435,A,670.2184990281239,Correct,sub_011_day_09_data.csv,1,300,76.0,Training at home,,,,,,,,,,,,,
11,9,1917,B,55.72411827672968,24.68670457083697,2.786205913836484,0.387777848605415,B,972.4638739717192,Correct,sub_011_day_09_data.csv,1,300,76.0,Training at home,,,,,,,,,,,,,
11,9,1918,B,61.403432760574766,41.87062188020432,3.070171638028738,0.6577021905004297,B,957.7941249590368,Correct,sub_011_day_09_data.csv,1,300,76.0,Training at home,,,,,,,,,,,,,
11,9,1919,A,57.49963331795771,69.14883323766848,2.8749816658978857,1.086187332518825,A,659.1404579812661,Correct,sub_011_day_09_data.csv,1,300,76.0,Training at home,,,,,,,,,,,,,
11,9,1920,A,20.85842474551557,45.313706379333425,1.0429212372757786,0.7117860353411942,A,944.850540952757,Correct,sub_011_day_09_data.csv,1,300,76.0,Training at home,,,,,,,,,,,,,
11,9,1921,B,61.69208315644014,46.99954797565577,3.084604157822007,0.7382671732118061,B,1490.9744579927064,Correct,sub_011_day_09_data.csv,1,300,76.0,Training at home,,,,,,,,,,,,,
11,9,1922,A,60.862709174917455,75.39244764810579,3.0431354587458723,1.184261798337211,A,771.7778329970315,Correct,sub_011_day_09_data.csv,1,300,76.0,Training at home,,,,,,,,,,,,,
11,9,1923,B,65.89832824398438,45.15724522368671,3.2949164121992194,0.7093283492554346,B,793.6463750083931,Correct,sub_011_day_09_data.csv,1,300,76.0,Training at home,,,,,,,,,,,,,
11,9,1924,B,54.84583530812629,27.574632222649992,2.7422917654063146,0.433141310080588,B,574.1086240159348,Correct,sub_011_day_09_data.csv,1,300,76.0,Training at home,,,,,,,,,,,,,
11,9,1925,A,23.518912961125007,40.60651409459008,1.1759456480562505,0.637845631837273,A,780.1983319805004,Correct,sub_011_day_09_data.csv,1,300,77.0,Training at home,,,,,,,,,,,,,
11,9,1926,B,43.7641355218977,28.91692041691353,2.188206776094885,0.4542259237310811,B,1152.846498996951,Correct,sub_011_day_09_data.csv,1,300,77.0,Training at home,,,,,,,,,,,,,
11,9,1927,B,58.938410377654755,38.66736398419581,2.946920518882738,0.6073855331321605,B,678.2969579799101,Correct,sub_011_day_09_data.csv,1,300,77.0,Training at home,,,,,,,,,,,,,
11,9,1928,A,40.66246665340407,59.06414700992063,2.033123332670203,0.927777451684571,A,1794.7610829724,Correct,sub_011_day_09_data.csv,1,300,77.0,Training at home,,,,,,,,,,,,,
11,9,1929,A,49.81738506007142,66.8672863532959,2.490869253003571,1.050348877864997,A,709.7508329898119,Correct,sub_011_day_09_data.csv,1,300,77.0,Training at home,,,,,,,,,,,,,
11,9,1930,B,71.13384405046827,39.06428354259715,3.5566922025234136,0.6136203309758593,B,547.282749961596,Correct,sub_011_day_09_data.csv,1,300,77.0,Training at home,,,,,,,,,,,,,
11,9,1931,A,38.14644341732362,50.74387696174962,1.9073221708661807,0.7970829553884846,A,498.8168739946559,Correct,sub_011_day_09_data.csv,1,300,77.0,Training at home,,,,,,,,,,,,,
11,9,1932,A,23.84112864393075,54.086496298571184,1.1920564321965377,0.8495886971500138,A,499.08387497998774,Correct,sub_011_day_09_data.csv,1,300,77.0,Training at home,,,,,,,,,,,,,
11,9,1933,B,58.363745228716226,36.48241468500795,2.918187261435811,0.5730644297981867,B,1141.835207992699,Correct,sub_011_day_09_data.csv,1,300,77.0,Training at home,,,,,,,,,,,,,
11,9,1934,B,37.28400291803992,26.083641694705804,1.8642001459019957,0.4097208856347809,B,1786.6703739855438,Correct,sub_011_day_09_data.csv,1,300,77.0,Training at home,,,,,,,,,,,,,
11,9,1935,B,76.58085380347876,44.18150520357633,3.829042690173938,0.694001460860473,B,1190.181708021555,Correct,sub_011_day_09_data.csv,1,300,77.0,Training at home,,,,,,,,,,,,,
11,9,1936,B,54.891249748038256,23.10293406322849,2.7445624874019128,0.3629000396470401,B,943.476082989946,Correct,sub_011_day_09_data.csv,1,300,77.0,Training at home,,,,,,,,,,,,,
11,9,1937,B,58.75958784517662,35.71644437921255,2.937979392258831,0.561032596370413,B,675.1648740028031,Correct,sub_011_day_09_data.csv,1,300,77.0,Training at home,,,,,,,,,,,,,
11,9,1938,B,65.00641425072511,46.9277189399464,3.250320712536256,0.737138885357311,B,745.8815409918316,Correct,sub_011_day_09_data.csv,1,300,77.0,Training at home,,,,,,,,,,,,,
11,9,1939,A,27.346144715043877,52.658264396818495,1.3673072357521938,0.8271540828991697,A,718.6491659958847,Correct,sub_011_day_09_data.csv,1,300,77.0,Training at home,,,,,,,,,,,,,
11,9,1940,A,60.239781663105454,74.54507165691798,3.0119890831552727,1.170951247393491,A,731.6174159641378,Correct,sub_011_day_09_data.csv,1,300,77.0,Training at home,,,,,,,,,,,,,
11,9,1941,A,59.05503486421937,68.97199379141698,2.952751743210969,1.083409544992782,A,1272.4890409735965,Correct,sub_011_day_09_data.csv,1,300,77.0,Training at home,,,,,,,,,,,,,
11,9,1942,A,28.660093667798712,42.89260016723285,1.4330046833899357,0.6737553878937153,A,1148.4194989898242,Correct,sub_011_day_09_data.csv,1,300,77.0,Training at home,,,,,,,,,,,,,
11,9,1943,B,82.10816500954773,56.25591516821285,4.105408250477387,0.8836658490671405,B,1588.419791019987,Correct,sub_011_day_09_data.csv,1,300,77.0,Training at home,,,,,,,,,,,,,
11,9,1944,B,87.91921752306155,66.44284833019591,4.395960876153078,1.0436818209886216,B,575.4715409711935,Correct,sub_011_day_09_data.csv,1,300,77.0,Training at home,,,,,,,,,,,,,
11,9,1945,A,16.744937099059108,46.4917616386249,0.8372468549529555,0.7302908840817588,A,744.7261659544893,Correct,sub_011_day_09_data.csv,1,300,77.0,Training at home,,,,,,,,,,,,,
11,9,1946,A,25.46611767333907,54.42178762641426,1.2733058836669535,0.8548554410118345,A,1239.072081982158,Correct,sub_011_day_09_data.csv,1,300,77.0,Training at home,,,,,,,,,,,,,
11,9,1947,A,44.00755882347726,65.56471012875353,2.2003779411738633,1.029888058376182,A,1552.4104160140269,Correct,sub_011_day_09_data.csv,1,300,77.0,Training at home,,,,,,,,,,,,,
11,9,1948,A,58.7575306982167,86.31995488556184,2.9378765349108344,1.3559106806334174,A,1532.798208005261,Correct,sub_011_day_09_data.csv,1,300,77.0,Training at home,,,,,,,,,,,,,
11,9,1949,B,48.58383844650238,19.89796383047346,2.429191922325119,0.3125564849560542,B,1170.0770410243422,Correct,sub_011_day_09_data.csv,1,300,77.0,Training at home,,,,,,,,,,,,,
11,9,1950,B,68.8725399023072,44.27742386041329,3.44362699511536,0.6955081475987791,B,632.449374999851,Correct,sub_011_day_09_data.csv,1,300,78.0,Training at home,,,,,,,,,,,,,
11,9,1951,A,23.669719348357447,39.84363052997664,1.1834859674178724,0.625862284826603,A,782.3757489677519,Correct,sub_011_day_09_data.csv,1,300,78.0,Training at home,,,,,,,,,,,,,
11,9,1952,B,37.74751493664374,14.930488897262164,1.887375746832187,0.2345275711707139,B,1571.951374004129,Correct,sub_011_day_09_data.csv,1,300,78.0,Training at home,,,,,,,,,,,,,
11,9,1953,A,52.12436967641726,67.92278207983877,2.606218483820862,1.0669285659670096,A,2290.946707013063,Correct,sub_011_day_09_data.csv,1,300,78.0,Training at home,,,,,,,,,,,,,
11,9,1954,B,85.70348841106662,62.81516272450449,4.28517442055333,0.9866982687467536,B,1225.9058749768883,Correct,sub_011_day_09_data.csv,1,300,78.0,Training at home,,,,,,,,,,,,,
11,9,1955,B,64.4757528343604,37.43684773669568,3.22378764171802,0.5880566291158142,B,1661.330375005491,Correct,sub_011_day_09_data.csv,1,300,78.0,Training at home,,,,,,,,,,,,,
11,9,1956,A,49.59785622513665,75.14079112345306,2.4798928112568324,1.180308786891826,A,1329.1866240324453,Correct,sub_011_day_09_data.csv,1,300,78.0,Training at home,,,,,,,,,,,,,
11,9,1957,B,78.83041263445747,56.77082509251969,3.941520631722874,0.8917540352444547,B,1036.5545820095576,Correct,sub_011_day_09_data.csv,1,300,78.0,Training at home,,,,,,,,,,,,,
11,9,1958,B,60.75571560220659,48.71066305487653,3.0377857801103296,0.7651453060234393,B,1421.0107499966398,Correct,sub_011_day_09_data.csv,1,300,78.0,Training at home,,,,,,,,,,,,,
11,9,1959,B,83.16955882919302,63.27863516917247,4.158477941459651,0.9939784768833044,B,670.0183320208453,Correct,sub_011_day_09_data.csv,1,300,78.0,Training at home,,,,,,,,,,,,,
11,9,1960,A,28.151452880269943,59.2273617231624,1.4075726440134972,0.9303412224049616,A,1617.921416007448,Correct,sub_011_day_09_data.csv,1,300,78.0,Training at home,,,,,,,,,,,,,
11,9,1961,B,60.58775525376247,53.50611827116427,3.029387762688123,0.8404721404139814,B,5213.547291001305,Correct,sub_011_day_09_data.csv,1,300,78.0,Training at home,,,,,,,,,,,,,
11,9,1962,A,45.32892411697787,66.64684129860541,2.2664462058488937,1.0468861350433178,A,867.0027910266072,Correct,sub_011_day_09_data.csv,1,300,78.0,Training at home,,,,,,,,,,,,,
11,9,1963,B,81.08169310412305,55.17357858167669,4.054084655206152,0.8666645457222732,B,884.0749159571715,Correct,sub_011_day_09_data.csv,1,300,78.0,Training at home,,,,,,,,,,,,,
11,9,1964,A,35.43062301226895,58.807542742733595,1.7715311506134477,0.9237467212811982,A,1369.2199570359662,Correct,sub_011_day_09_data.csv,1,300,78.0,Training at home,,,,,,,,,,,,,
11,9,1965,B,41.900630041858875,21.898101750485154,2.095031502092944,0.3439745779344297,B,1004.9724580021576,Correct,sub_011_day_09_data.csv,1,300,78.0,Training at home,,,,,,,,,,,,,
11,9,1966,A,27.783056487080373,49.03440937769403,1.3891528243540188,0.7702307013703902,A,787.0905409799889,Correct,sub_011_day_09_data.csv,1,300,78.0,Training at home,,,,,,,,,,,,,
11,9,1967,A,63.376231977651365,86.15310323803794,3.168811598882568,1.353289781082915,A,1164.1669990494847,Correct,sub_011_day_09_data.csv,1,300,78.0,Training at home,,,,,,,,,,,,,
11,9,1968,A,20.268157659070024,36.99982058258658,1.0134078829535011,0.581191822631972,A,1059.770749008749,Correct,sub_011_day_09_data.csv,1,300,78.0,Training at home,,,,,,,,,,,,,
11,9,1969,A,14.3061219674424,31.53906810552886,0.7153060983721201,0.4954145233069881,A,953.8424990023486,Correct,sub_011_day_09_data.csv,1,300,78.0,Training at home,,,,,,,,,,,,,
11,9,1970,A,35.89708873605491,58.23561716774328,1.7948544368027457,0.9147629353572496,A,636.4516239846125,Correct,sub_011_day_09_data.csv,1,300,78.0,Training at home,,,,,,,,,,,,,
11,9,1971,A,45.94030827316238,75.6321805018056,2.297015413658119,1.1880275131972484,A,992.5113330245948,Correct,sub_011_day_09_data.csv,1,300,78.0,Training at home,,,,,,,,,,,,,
11,9,1972,B,60.16824183969203,29.82922109559677,3.0084120919846016,0.4685563092811625,B,2453.41166597791,Correct,sub_011_day_09_data.csv,1,300,78.0,Training at home,,,,,,,,,,,,,
11,9,1973,A,29.149704028933662,56.77835554550701,1.457485201446683,0.8918723233233704,A,570.6602080026641,Correct,sub_011_day_09_data.csv,1,300,78.0,Training at home,,,,,,,,,,,,,
11,9,1974,A,48.52796506008504,69.6776461726937,2.4263982530042516,1.0944939066778174,A,707.9614159883931,Correct,sub_011_day_09_data.csv,1,300,78.0,Training at home,,,,,,,,,,,,,
11,9,1975,B,73.33654037617751,61.92416524548513,3.6668270188088754,0.9727025130744824,B,854.9160830443725,Correct,sub_011_day_09_data.csv,1,300,79.0,Training at home,,,,,,,,,,,,,
11,9,1976,B,61.63292615355845,30.34405368698548,3.0816463076779224,0.4766432807158393,B,573.654165957123,Correct,sub_011_day_09_data.csv,1,300,79.0,Training at home,,,,,,,,,,,,,
11,9,1977,B,42.72245591468351,34.04660413026532,2.1361227957341753,0.5348028070766073,B,733.2985819666646,Correct,sub_011_day_09_data.csv,1,300,79.0,Training at home,,,,,,,,,,,,,
11,9,1978,B,34.4930239570003,23.17848001997837,1.724651197850015,0.3640867127607093,B,744.422416028101,Correct,sub_011_day_09_data.csv,1,300,79.0,Training at home,,,,,,,,,,,,,
11,9,1979,B,33.6284646578798,16.608387647617384,1.6814232328939902,0.2608839431086312,B,588.9812909881584,Correct,sub_011_day_09_data.csv,1,300,79.0,Training at home,,,,,,,,,,,,,
11,9,1980,A,39.23097825569832,62.541186332829184,1.961548912784916,0.9823946576500328,A,790.4697910416871,Correct,sub_011_day_09_data.csv,1,300,79.0,Training at home,,,,,,,,,,,,,
11,9,1981,B,55.97267273825458,31.01891624614153,2.79863363691273,0.4872439970059765,B,682.3385410243645,Correct,sub_011_day_09_data.csv,1,300,79.0,Training at home,,,,,,,,,,,,,
11,9,1982,B,81.3276476127946,67.53790611581695,4.06638238063973,1.0608829484614384,B,872.0855410210788,Correct,sub_011_day_09_data.csv,1,300,79.0,Training at home,,,,,,,,,,,,,
11,9,1983,B,45.062628356617715,34.030578173127566,2.2531314178308857,0.5345510719305536,B,626.0859990143217,Correct,sub_011_day_09_data.csv,1,300,79.0,Training at home,,,,,,,,,,,,,
11,9,1984,B,45.40186634822903,17.393624315329678,2.2700933174114515,0.2732184118417025,B,2269.591373973526,Correct,sub_011_day_09_data.csv,1,300,79.0,Training at home,,,,,,,,,,,,,
11,9,1985,B,58.56517911530344,38.69744521263075,2.9282589557651715,0.6078580479634713,B,728.2205410301685,Correct,sub_011_day_09_data.csv,1,300,79.0,Training at home,,,,,,,,,,,,,
11,9,1986,B,50.934121372607464,31.569961664600005,2.5467060686303733,0.4958997981980939,B,1361.369581951294,Correct,sub_011_day_09_data.csv,1,300,79.0,Training at home,,,,,,,,,,,,,
11,9,1987,B,68.73082576077346,43.29959845657713,3.4365412880386725,0.6801485020728534,B,1105.7952910196036,Correct,sub_011_day_09_data.csv,1,300,79.0,Training at home,,,,,,,,,,,,,
11,9,1988,B,41.23002405943797,33.02803469945369,2.061501202971898,0.5188031558715624,B,1213.7205409817398,Correct,sub_011_day_09_data.csv,1,300,79.0,Training at home,,,,,,,,,,,,,
11,9,1989,B,49.28842237023517,33.0622135970696,2.4644211185117584,0.5193400367398521,B,604.82895700261,Correct,sub_011_day_09_data.csv,1,300,79.0,Training at home,,,,,,,,,,,,,
11,9,1990,A,44.811801986345955,73.30927282418386,2.2405900993172976,1.1515393647223295,A,941.7354160104878,Correct,sub_011_day_09_data.csv,1,300,79.0,Training at home,,,,,,,,,,,,,
11,9,1991,B,81.80056316335664,65.68953567449857,4.090028158167832,1.0318488134636468,B,2765.83574997494,Correct,sub_011_day_09_data.csv,1,300,79.0,Training at home,,,,,,,,,,,,,
11,9,1992,A,41.00303728700858,73.38980738495385,2.050151864350429,1.152804398644705,A,1144.490125006996,Correct,sub_011_day_09_data.csv,1,300,79.0,Training at home,,,,,,,,,,,,,
11,9,1993,B,81.16003796058415,67.69541827305208,4.058001898029207,1.0633571436415432,B,825.8560820249841,Correct,sub_011_day_09_data.csv,1,300,79.0,Training at home,,,,,,,,,,,,,
11,9,1994,A,41.02261006740847,55.69279459990375,2.0511305033704237,0.8748203718647146,A,1250.77812501695,Correct,sub_011_day_09_data.csv,1,300,79.0,Training at home,,,,,,,,,,,,,
11,9,1995,A,36.25415307655282,60.65983998827015,1.812707653827641,0.9528425383754092,A,3196.104874019511,Correct,sub_011_day_09_data.csv,1,300,79.0,Training at home,,,,,,,,,,,,,
11,9,1996,B,41.46302494211723,18.58844400976071,2.0731512471058613,0.2919865957136472,B,2241.3899159873836,Correct,sub_011_day_09_data.csv,1,300,79.0,Training at home,,,,,,,,,,,,,
11,9,1997,A,42.64320510070934,65.51472315789975,2.132160255035467,1.0291028648741347,A,1094.4522499921732,Correct,sub_011_day_09_data.csv,1,300,79.0,Training at home,,,,,,,,,,,,,
11,9,1998,A,38.18696925572456,56.0727927815649,1.909348462786228,0.8807893693441353,A,817.3944579903036,Correct,sub_011_day_09_data.csv,1,300,79.0,Training at home,,,,,,,,,,,,,
11,9,1999,A,67.46757272232074,85.88031476510503,3.3733786361160365,1.3490048297701651,A,761.4824160118587,Correct,sub_011_day_09_data.csv,1,300,79.0,Training at home,,,,,,,,,,,,,
11,9,2000,B,44.00197851388862,24.108158172012132,2.200098925694431,0.3786900630238702,B,1157.4568320065737,Correct,sub_011_day_09_data.csv,1,300,80.0,Training at home,,,,,,,,,,,,,
11,9,2001,A,51.4402011699097,78.5061391753839,2.572010058495485,1.2331715504754197,A,807.7922079828568,Correct,sub_011_day_09_data.csv,1,300,80.0,Training at home,,,,,,,,,,,,,
11,9,2002,B,43.61170033434993,35.89051260181702,2.1805850167174965,0.5637668536172014,B,574.6984989964403,Correct,sub_011_day_09_data.csv,1,300,80.0,Training at home,,,,,,,,,,,,,
11,9,2003,A,46.8712728917046,55.67923378055664,2.3435636445852297,0.874607359012527,A,1518.6922079883516,Correct,sub_011_day_09_data.csv,1,300,80.0,Training at home,,,,,,,,,,,,,
11,9,2004,A,37.47816733726829,69.52835710181458,1.8739083668634149,1.092148879436142,A,1733.0681240418926,Correct,sub_011_day_09_data.csv,1,300,80.0,Training at home,,,,,,,,,,,,,
11,9,2005,A,50.3396729739197,66.02426727284272,2.516983648695985,1.0371067651150585,A,1744.8132910067216,Correct,sub_011_day_09_data.csv,1,300,80.0,Training at home,,,,,,,,,,,,,
11,9,2006,B,67.01644180744326,57.97516636001115,3.3508220903721626,0.9106717836362856,B,2179.024082957767,Correct,sub_011_day_09_data.csv,1,300,80.0,Training at home,,,,,,,,,,,,,
11,9,2007,A,43.78063273183615,75.41148154889486,2.189031636591807,1.1845607821516515,A,529.636916005984,Correct,sub_011_day_09_data.csv,1,300,80.0,Training at home,,,,,,,,,,,,,
11,9,2008,B,58.30952704529606,34.55179511645366,2.9154763522648026,0.5427383285309525,B,581.7422910477035,Correct,sub_011_day_09_data.csv,1,300,80.0,Training at home,,,,,,,,,,,,,
11,9,2009,A,20.91554590521097,48.91111576515448,1.0457772952605484,0.7682940098334462,A,1630.1652489928529,Correct,sub_011_day_09_data.csv,1,300,80.0,Training at home,,,,,,,,,,,,,
11,9,2010,A,38.96939911905232,64.81021901107023,1.948469955952616,1.0180365396136188,A,803.5544580197893,Correct,sub_011_day_09_data.csv,1,300,80.0,Training at home,,,,,,,,,,,,,
11,9,2011,B,39.32730389633838,17.462499114016822,1.966365194816919,0.2743002946495676,B,785.0063330261037,Correct,sub_011_day_09_data.csv,1,300,80.0,Training at home,,,,,,,,,,,,,
11,9,2012,A,55.79542259839697,73.46462330919798,2.789771129919848,1.153979604434589,A,1186.6107079549693,Correct,sub_011_day_09_data.csv,1,300,80.0,Training at home,,,,,,,,,,,,,
11,9,2013,B,42.459752057688576,24.167959709774387,2.122987602884429,0.3796294233824067,B,514.666999981273,Correct,sub_011_day_09_data.csv,1,300,80.0,Training at home,,,,,,,,,,,,,
11,9,2014,B,72.15050843404028,42.31822900279335,3.6075254217020136,0.6647331867405306,B,926.2768740300088,Correct,sub_011_day_09_data.csv,1,300,80.0,Training at home,,,,,,,,,,,,,
11,9,2015,B,74.26183741434687,43.33735896436926,3.713091870717343,0.680741642742231,B,1176.7421240219846,Correct,sub_011_day_09_data.csv,1,300,80.0,Training at home,,,,,,,,,,,,,
11,9,2016,B,89.17595341291559,67.61250977519862,4.4587976706457795,1.06205482000266,B,2598.4130409779027,Correct,sub_011_day_09_data.csv,1,300,80.0,Training at home,,,,,,,,,,,,,
11,9,2017,B,87.19270439200164,65.68901806438717,4.359635219600082,1.0318406828630298,B,1064.9169989628715,Correct,sub_011_day_09_data.csv,1,300,80.0,Training at home,,,,,,,,,,,,,
11,9,2018,B,82.9006962312273,68.828649506667,4.145034811561365,1.081157898233259,B,670.7429160014726,Correct,sub_011_day_09_data.csv,1,300,80.0,Training at home,,,,,,,,,,,,,
11,9,2019,B,56.41034817068433,46.02075047043261,2.8205174085342164,0.7228922579530005,B,827.2128739627078,Correct,sub_011_day_09_data.csv,1,300,80.0,Training at home,,,,,,,,,,,,,
11,9,2020,B,56.09888580275437,36.41256267217368,2.804944290137718,0.5719671969463936,B,499.3239989853464,Correct,sub_011_day_09_data.csv,1,300,80.0,Training at home,,,,,,,,,,,,,
11,9,2021,A,15.568524967596854,32.619663891655335,0.7784262483798428,0.5123884822229632,A,5105.604624026455,Correct,sub_011_day_09_data.csv,1,300,80.0,Training at home,,,,,,,,,,,,,
11,9,2022,A,49.87027408291913,63.88257076665062,2.4935137041459567,1.0034650750646985,A,1715.9306660178115,Correct,sub_011_day_09_data.csv,1,300,80.0,Training at home,,,,,,,,,,,,,
11,9,2023,B,50.38209431873641,42.579753653819225,2.51910471593682,0.6688412063525081,B,1291.6993329999968,Correct,sub_011_day_09_data.csv,1,300,80.0,Training at home,,,,,,,,,,,,,
11,9,2024,A,36.337376378107464,58.92051587772397,1.8168688189053737,0.925521299135892,A,869.3501660018228,Correct,sub_011_day_09_data.csv,1,300,80.0,Training at home,,,,,,,,,,,,,
11,9,2025,B,54.004422875310496,45.70153529175602,2.7002211437655252,0.7178780376517767,B,579.997040971648,Correct,sub_011_day_09_data.csv,1,300,81.0,Training at home,,,,,,,,,,,,,
11,9,2026,B,77.13111011119486,63.34692118355202,3.8565555055597422,0.9950511110888932,B,831.0543750412762,Correct,sub_011_day_09_data.csv,1,300,81.0,Training at home,,,,,,,,,,,,,
11,9,2027,A,56.25175106195211,79.85306142956082,2.8125875530976057,1.254328955768814,A,1754.4324990012683,Correct,sub_011_day_09_data.csv,1,300,81.0,Training at home,,,,,,,,,,,,,
11,9,2028,B,78.05803736305243,56.15012239503731,3.9029018681526217,0.8820040600720845,B,725.3832909627818,Correct,sub_011_day_09_data.csv,1,300,81.0,Training at home,,,,,,,,,,,,,
11,9,2029,B,34.90991236568543,13.237690601731842,1.7454956182842716,0.207937157724477,B,671.1423749802634,Correct,sub_011_day_09_data.csv,1,300,81.0,Training at home,,,,,,,,,,,,,
11,9,2030,A,21.20636102026608,53.035344251815786,1.060318051013304,0.8330772394105506,A,569.9040830368176,Correct,sub_011_day_09_data.csv,1,300,81.0,Training at home,,,,,,,,,,,,,
11,9,2031,A,68.85092635057583,82.66548069957128,3.442546317528792,1.2985063343562098,B,1033.7072490365244,Incorrect,sub_011_day_09_data.csv,0,300,81.0,Training at home,,,,,,,,,,,,,
11,9,2032,A,57.40903790521574,74.07607165140737,2.8704518952607874,1.1635842125342628,A,1583.954999980051,Correct,sub_011_day_09_data.csv,1,300,81.0,Training at home,,,,,,,,,,,,,
11,9,2033,B,76.10677479808128,50.44606232313504,3.805338739904064,0.7924048939844696,B,549.5095830410719,Correct,sub_011_day_09_data.csv,1,300,81.0,Training at home,,,,,,,,,,,,,
11,9,2034,A,24.375142287048543,38.86073739224448,1.2187571143524272,0.6104230355227871,A,1104.080582968891,Correct,sub_011_day_09_data.csv,1,300,81.0,Training at home,,,,,,,,,,,,,
11,9,2035,B,58.47993690437949,35.67147322293808,2.923996845218974,0.5603261910995365,B,481.3190830172971,Correct,sub_011_day_09_data.csv,1,300,81.0,Training at home,,,,,,,,,,,,,
11,9,2036,A,43.27507659866327,58.22354353920812,2.1637538299331633,0.9145732832437086,A,1964.3882490345277,Correct,sub_011_day_09_data.csv,1,300,81.0,Training at home,,,,,,,,,,,,,
11,9,2037,A,46.25348957277372,60.52414402857581,2.312674478638686,0.9507110312249216,A,1337.8077910165302,Correct,sub_011_day_09_data.csv,1,300,81.0,Training at home,,,,,,,,,,,,,
11,9,2038,A,43.41124722868518,50.629681207176034,2.170562361434259,0.7952891726702872,A,699.5928749674931,Correct,sub_011_day_09_data.csv,1,300,81.0,Training at home,,,,,,,,,,,,,
11,9,2039,B,71.90307386066425,46.17599480136639,3.5951536930332124,0.7253308302008658,B,542.9746660520323,Correct,sub_011_day_09_data.csv,1,300,81.0,Training at home,,,,,,,,,,,,,
11,9,2040,B,70.90148300075273,56.20939223403201,3.5450741500376366,0.8829350685259107,B,1280.8525409782303,Correct,sub_011_day_09_data.csv,1,300,81.0,Training at home,,,,,,,,,,,,,
11,9,2041,A,28.738647907235524,40.420744199132265,1.4369323953617763,0.6349275651431309,A,821.4200410293415,Correct,sub_011_day_09_data.csv,1,300,81.0,Training at home,,,,,,,,,,,,,
11,9,2042,A,52.48788532934395,62.80787577963382,2.6243942664671978,0.9865838056843896,A,3859.929415979422,Correct,sub_011_day_09_data.csv,1,300,81.0,Training at home,,,,,,,,,,,,,
11,9,2043,A,41.66910034620803,73.06698690437227,2.083455017310402,1.1477335463935878,A,495.68129098042846,Correct,sub_011_day_09_data.csv,1,300,81.0,Training at home,,,,,,,,,,,,,
11,9,2044,A,27.93558819516158,44.88325707463986,1.396779409758079,0.7050245534743534,A,649.7615830157883,Correct,sub_011_day_09_data.csv,1,300,81.0,Training at home,,,,,,,,,,,,,
11,9,2045,B,65.26669914478609,52.03350468694812,3.2633349572393047,0.8173403803252315,B,3075.6737909978256,Correct,sub_011_day_09_data.csv,1,300,81.0,Training at home,,,,,,,,,,,,,
11,9,2046,A,51.32797907135914,64.38748710010991,2.566398953567957,1.0113962822840643,A,1476.1280000093393,Correct,sub_011_day_09_data.csv,1,300,81.0,Training at home,,,,,,,,,,,,,
11,9,2047,B,80.08297106320114,64.65280524594222,4.004148553160057,1.0155638899731183,B,1763.6147909797728,Correct,sub_011_day_09_data.csv,1,300,81.0,Training at home,,,,,,,,,,,,,
11,9,2048,B,42.4947784781331,24.73971433805544,2.124738923906655,0.3886105240817252,B,619.4843329722062,Correct,sub_011_day_09_data.csv,1,300,81.0,Training at home,,,,,,,,,,,,,
11,9,2049,B,78.34581244425682,66.06766727789433,3.9172906222128407,1.037788490800238,B,602.9957910068333,Correct,sub_011_day_09_data.csv,1,300,81.0,Training at home,,,,,,,,,,,,,
11,9,2050,B,84.86869466991006,64.7100167931776,4.243434733495502,1.0164625668555944,B,797.2355409874581,Correct,sub_011_day_09_data.csv,1,300,82.0,Training at home,,,,,,,,,,,,,
11,9,2051,A,34.02700062267616,56.13634727316904,1.701350031133808,0.8817876809637664,A,2236.536498996429,Correct,sub_011_day_09_data.csv,1,300,82.0,Training at home,,,,,,,,,,,,,
11,9,2052,A,61.903027852476896,79.77992783991144,3.095151392623845,1.253180176028948,A,549.355541006662,Correct,sub_011_day_09_data.csv,1,300,82.0,Training at home,,,,,,,,,,,,,
11,9,2053,B,41.28020372574565,32.084667430185824,2.0640101862872826,0.5039847774577174,B,1017.5726240267976,Correct,sub_011_day_09_data.csv,1,300,82.0,Training at home,,,,,,,,,,,,,
11,9,2054,B,50.87431479723387,28.32987095914895,2.5437157398616934,0.4450045724120458,B,617.105707002338,Correct,sub_011_day_09_data.csv,1,300,82.0,Training at home,,,,,,,,,,,,,
11,9,2055,B,63.2369399608383,52.05459469798693,3.161846998041915,0.8176716614439496,B,598.7246250151657,Correct,sub_011_day_09_data.csv,1,300,82.0,Training at home,,,,,,,,,,,,,
11,9,2056,B,70.57107136202738,50.97167969254487,3.528553568101369,0.8006612723161551,B,406.69908199924976,Correct,sub_011_day_09_data.csv,1,300,82.0,Training at home,,,,,,,,,,,,,
11,9,2057,B,42.03807960399939,32.60423664730088,2.1019039801999697,0.5121461516353177,B,1512.59341603145,Correct,sub_011_day_09_data.csv,1,300,82.0,Training at home,,,,,,,,,,,,,
11,9,2058,B,85.24282104803285,56.82704824915639,4.262141052401643,0.8926371865237122,B,578.824041003827,Correct,sub_011_day_09_data.csv,1,300,82.0,Training at home,,,,,,,,,,,,,
11,9,2059,A,30.24503194001397,56.80063347134326,1.5122515970006984,0.8922222641640923,A,1184.733415953815,Correct,sub_011_day_09_data.csv,1,300,82.0,Training at home,,,,,,,,,,,,,
11,9,2060,B,49.02615887759013,18.73046431784006,2.4513079438795065,0.2942174454962604,B,497.09995795274153,Correct,sub_011_day_09_data.csv,1,300,82.0,Training at home,,,,,,,,,,,,,
11,9,2061,A,63.4028069943173,80.73495460329286,3.170140349715865,1.2681817013480516,A,2103.804748971015,Correct,sub_011_day_09_data.csv,1,300,82.0,Training at home,,,,,,,,,,,,,
11,9,2062,A,39.2959470740512,70.81588492194847,1.96479735370256,1.1123733191412677,A,1024.6449160040356,Correct,sub_011_day_09_data.csv,1,300,82.0,Training at home,,,,,,,,,,,,,
11,9,2063,B,59.77954582276499,52.71291682300703,2.9889772911382493,0.8280125612022435,A,594.1174579784274,Incorrect,sub_011_day_09_data.csv,0,300,82.0,Training at home,,,,,,,,,,,,,
11,9,2064,A,66.38169425548543,80.4761742962277,3.3190847127742713,1.2641167897902037,A,899.6979579678737,Correct,sub_011_day_09_data.csv,1,300,82.0,Training at home,,,,,,,,,,,,,
11,9,2065,B,35.63320873899077,19.391149222497315,1.7816604369495384,0.3045954597103049,B,478.57249999651685,Correct,sub_011_day_09_data.csv,1,300,82.0,Training at home,,,,,,,,,,,,,
11,9,2066,B,32.14363757421131,13.996072711645516,1.6071818787105656,0.2198497960500706,B,500.05570700159296,Correct,sub_011_day_09_data.csv,1,300,82.0,Training at home,,,,,,,,,,,,,
11,9,2067,A,17.40187378409919,43.12715261751651,0.8700936892049596,0.6774397291671784,A,548.5046239919029,Correct,sub_011_day_09_data.csv,1,300,82.0,Training at home,,,,,,,,,,,,,
11,9,2068,A,27.774218341694336,40.79632502476848,1.3887109170847167,0.6408271749563704,A,1574.8472490231509,Correct,sub_011_day_09_data.csv,1,300,82.0,Training at home,,,,,,,,,,,,,
11,9,2069,A,41.180576006156,70.7940741340181,2.0590288003078,1.1120307160856124,A,921.9561659847386,Correct,sub_011_day_09_data.csv,1,300,82.0,Training at home,,,,,,,,,,,,,
11,9,2070,A,35.93371353413235,53.621059158134535,1.7966856767066175,0.8422776276444958,A,1183.853790978901,Correct,sub_011_day_09_data.csv,1,300,82.0,Training at home,,,,,,,,,,,,,
11,9,2071,A,27.694959326284856,57.894688542058454,1.3847479663142428,0.909407641028,A,1451.3560410123318,Correct,sub_011_day_09_data.csv,1,300,82.0,Training at home,,,,,,,,,,,,,
11,9,2072,A,43.39927863413724,70.61448389850945,2.169963931706862,1.1092097192629602,A,704.0137910516933,Correct,sub_011_day_09_data.csv,1,300,82.0,Training at home,,,,,,,,,,,,,
11,9,2073,A,67.76624729610971,87.9379830952073,3.388312364805486,1.3813266083170337,A,1663.7408320093527,Correct,sub_011_day_09_data.csv,1,300,82.0,Training at home,,,,,,,,,,,,,
11,9,2074,B,44.479085903258735,23.253768904772222,2.2239542951629367,0.3652693477975359,B,1259.87258303212,Correct,sub_011_day_09_data.csv,1,300,82.0,Training at home,,,,,,,,,,,,,
11,9,2075,B,56.14233303203166,33.07483690034937,2.807116651601583,0.5195383231240909,B,885.8552079764195,Correct,sub_011_day_09_data.csv,1,300,83.0,Training at home,,,,,,,,,,,,,
11,9,2076,A,47.886621305407985,70.334643731135,2.394331065270399,1.1048140001929456,A,1188.2924159872346,Correct,sub_011_day_09_data.csv,1,300,83.0,Training at home,,,,,,,,,,,,,
11,9,2077,B,81.07808910885912,68.12246055117495,4.0539044554429555,1.0700651080601586,B,845.4667080077343,Correct,sub_011_day_09_data.csv,1,300,83.0,Training at home,,,,,,,,,,,,,
11,9,2078,A,57.55060482788172,74.3384304684429,2.8775302413940858,1.167705335195279,A,2055.6665409822017,Correct,sub_011_day_09_data.csv,1,300,83.0,Training at home,,,,,,,,,,,,,
11,9,2079,B,61.074366981025015,35.255852267392854,3.0537183490512505,0.5537976323964421,B,992.5343740032986,Correct,sub_011_day_09_data.csv,1,300,83.0,Training at home,,,,,,,,,,,,,
11,9,2080,B,84.36389925603301,58.68851646581683,4.21819496280165,0.9218770608954688,B,1468.614540994167,Correct,sub_011_day_09_data.csv,1,300,83.0,Training at home,,,,,,,,,,,,,
11,9,2081,A,41.59891373810265,68.01780163374976,2.0799456869051327,1.0684211296295802,A,631.7721660016105,Correct,sub_011_day_09_data.csv,1,300,83.0,Training at home,,,,,,,,,,,,,
11,9,2082,B,67.24537221173873,36.56813411243992,3.3622686105869364,0.5744109074156378,B,682.8142909798771,Correct,sub_011_day_09_data.csv,1,300,83.0,Training at home,,,,,,,,,,,,,
11,9,2083,A,15.402425628915626,36.33933090580091,0.7701212814457813,0.5708168750501633,A,630.138331966009,Correct,sub_011_day_09_data.csv,1,300,83.0,Training at home,,,,,,,,,,,,,
11,9,2084,B,68.56582173601062,45.76749858241672,3.428291086800531,0.7189141865985081,B,1281.2414990039542,Correct,sub_011_day_09_data.csv,1,300,83.0,Training at home,,,,,,,,,,,,,
11,9,2085,B,43.952662106648134,22.92032349103195,2.1976331053324065,0.3600315994866377,B,748.6516240169294,Correct,sub_011_day_09_data.csv,1,300,83.0,Training at home,,,,,,,,,,,,,
11,9,2086,B,69.98863376992757,54.07813686425331,3.4994316884963785,0.8494573874628077,B,1095.585124043282,Correct,sub_011_day_09_data.csv,1,300,83.0,Training at home,,,,,,,,,,,,,
11,9,2087,B,46.41449610638303,35.36466403290619,2.320724805319151,0.5555068436122463,B,738.866625004448,Correct,sub_011_day_09_data.csv,1,300,83.0,Training at home,,,,,,,,,,,,,
11,9,2088,A,55.225035996170135,83.57208716273892,2.761251799808507,1.3127472753781324,A,690.8089159987867,Correct,sub_011_day_09_data.csv,1,300,83.0,Training at home,,,,,,,,,,,,,
11,9,2089,A,22.76251772482028,47.59028457896544,1.1381258862410142,0.7475464420776272,A,1098.3034989912994,Correct,sub_011_day_09_data.csv,1,300,83.0,Training at home,,,,,,,,,,,,,
11,9,2090,A,26.49257484943563,51.30819037284905,1.3246287424717815,0.8059471697216455,A,1167.003374022897,Correct,sub_011_day_09_data.csv,1,300,83.0,Training at home,,,,,,,,,,,,,
11,9,2091,B,32.47561835589299,11.798861048809162,1.6237809177946496,0.185336075958328,B,888.1662500207312,Correct,sub_011_day_09_data.csv,1,300,83.0,Training at home,,,,,,,,,,,,,
11,9,2092,A,51.92821377769296,80.20551837527998,2.596410688884648,1.2598653365257035,A,687.5403740559705,Correct,sub_011_day_09_data.csv,1,300,83.0,Training at home,,,,,,,,,,,,,
11,9,2093,A,39.57548445320445,59.53918284384888,1.9787742226602227,0.9352392971148756,A,1140.2134990203194,Correct,sub_011_day_09_data.csv,1,300,83.0,Training at home,,,,,,,,,,,,,
11,9,2094,A,59.13204869916837,79.7359118751625,2.956602434958419,1.2524887748714684,A,975.0730820233002,Correct,sub_011_day_09_data.csv,1,300,83.0,Training at home,,,,,,,,,,,,,
11,9,2095,B,51.94376337413553,40.134593987165466,2.5971881687067766,0.6304327281244407,B,935.4660410317592,Correct,sub_011_day_09_data.csv,1,300,83.0,Training at home,,,,,,,,,,,,,
11,9,2096,A,26.781785168518525,58.54356624943277,1.3390892584259262,0.9196001882208268,A,607.3686660383828,Correct,sub_011_day_09_data.csv,1,300,83.0,Training at home,,,,,,,,,,,,,
11,9,2097,A,33.066392889226634,45.46962774872596,1.6533196444613316,0.7142352424843005,A,1613.4524989756756,Correct,sub_011_day_09_data.csv,1,300,83.0,Training at home,,,,,,,,,,,,,
11,9,2098,B,66.06739760832528,44.76444467591153,3.303369880416264,0.7031582526793518,B,1573.3971250010654,Correct,sub_011_day_09_data.csv,1,300,83.0,Training at home,,,,,,,,,,,,,
11,9,2099,A,21.87237505417809,36.228519799073446,1.0936187527089043,0.5690762582560075,A,723.2940830290318,Correct,sub_011_day_09_data.csv,1,300,83.0,Training at home,,,,,,,,,,,,,
