subject,day,trial,cat,x,y,xt,yt,resp,rt,fb,f_name,acc,n_trials,block,session_type,ns_left_digit,ns_right_digit,ns_left_size,ns_right_size,ns_congruent,ns_cue,ns_correct_side,ns_resp,ns_rt,ns_fb,acc_stroop,acc_stroop_mean,resp_key
11,19,4200,B,82.70690865703527,67.0704734961518,4.135345432851763,1.0535405340414972,B,919.8200409882702,Correct,sub_011_day_19_data.csv,1,300,168.0,Training at home,,,,,,,,,,,,,
11,19,4201,B,64.55227985207009,52.92509165065614,3.227613992603505,0.8313453956013391,B,463.3598749642261,Correct,sub_011_day_19_data.csv,1,300,168.0,Training at home,,,,,,,,,,,,,
11,19,4202,A,69.36341681486813,87.25362185836723,3.468170840743406,1.3705766871467415,A,610.2026249864139,Correct,sub_011_day_19_data.csv,1,300,168.0,Training at home,,,,,,,,,,,,,
11,19,4203,A,32.99223669131772,42.65105476505904,1.649611834565886,0.6699612015888271,B,535.523833008483,Incorrect,sub_011_day_19_data.csv,0,300,168.0,Training at home,,,,,,,,,,,,,
11,19,4204,B,34.85132778731756,17.56067910871065,1.7425663893658778,0.2758425023998657,B,476.7408749903552,Correct,sub_011_day_19_data.csv,1,300,168.0,Training at home,,,,,,,,,,,,,
11,19,4205,A,61.99476635577636,85.3573211654457,3.0997383177888183,1.3407896655173437,A,569.4817089824937,Correct,sub_011_day_19_data.csv,1,300,168.0,Training at home,,,,,,,,,,,,,
11,19,4206,B,58.21001372763314,32.76059539210024,2.910500686381657,0.5146022290552488,B,491.83712498052046,Correct,sub_011_day_19_data.csv,1,300,168.0,Training at home,,,,,,,,,,,,,
11,19,4207,A,39.663162641228034,69.44586023420652,1.9831581320614016,1.0908530216700336,A,572.2938329563476,Correct,sub_011_day_19_data.csv,1,300,168.0,Training at home,,,,,,,,,,,,,
11,19,4208,B,78.47083136112758,66.56205706382971,3.923541568056379,1.04555434739776,B,838.0644590361044,Correct,sub_011_day_19_data.csv,1,300,168.0,Training at home,,,,,,,,,,,,,
11,19,4209,B,75.45097183289309,61.16108688001505,3.772548591644654,0.9607161061391116,B,665.3260409948416,Correct,sub_011_day_19_data.csv,1,300,168.0,Training at home,,,,,,,,,,,,,
11,19,4210,A,63.492297745171385,76.54026367479975,3.1746148872585693,1.2022916503228829,A,484.8792910343036,Correct,sub_011_day_19_data.csv,1,300,168.0,Training at home,,,,,,,,,,,,,
11,19,4211,B,48.03184279381256,40.585993300435376,2.401592139690628,0.6375232919564617,B,612.9037500359118,Correct,sub_011_day_19_data.csv,1,300,168.0,Training at home,,,,,,,,,,,,,
11,19,4212,B,80.63809144094928,56.57174303096013,4.031904572047464,0.8886268615341696,B,566.7591250385158,Correct,sub_011_day_19_data.csv,1,300,168.0,Training at home,,,,,,,,,,,,,
11,19,4213,A,27.126010022898285,48.42957658990372,1.3563005011449143,0.7607300101565287,A,462.6675419858657,Correct,sub_011_day_19_data.csv,1,300,168.0,Training at home,,,,,,,,,,,,,
11,19,4214,B,55.19379218810833,28.720461405183077,2.7596896094054166,0.4511399527911617,B,468.7136249849573,Correct,sub_011_day_19_data.csv,1,300,168.0,Training at home,,,,,,,,,,,,,
11,19,4215,B,86.97319353058614,61.3494623944342,4.348659676529308,0.9636751018001888,B,554.2878750129603,Correct,sub_011_day_19_data.csv,1,300,168.0,Training at home,,,,,,,,,,,,,
11,19,4216,A,33.69937561346479,64.08149670733923,1.6849687806732394,1.006589796434077,A,446.62208401132375,Correct,sub_011_day_19_data.csv,1,300,168.0,Training at home,,,,,,,,,,,,,
11,19,4217,B,35.344169449842,25.09525748659197,1.7672084724921,0.3941953827991079,B,1299.855584045872,Correct,sub_011_day_19_data.csv,1,300,168.0,Training at home,,,,,,,,,,,,,
11,19,4218,A,64.08363836190135,77.95828081588678,3.2041819180950677,1.2245658114884002,A,475.4762920201756,Correct,sub_011_day_19_data.csv,1,300,168.0,Training at home,,,,,,,,,,,,,
11,19,4219,B,59.711320729593005,41.50101687792082,2.98556603647965,0.6518964487009103,B,965.861250006128,Correct,sub_011_day_19_data.csv,1,300,168.0,Training at home,,,,,,,,,,,,,
11,19,4220,B,63.51826286381261,50.263358695872995,3.1759131431906304,0.7895349921185163,B,513.8054999988526,Correct,sub_011_day_19_data.csv,1,300,168.0,Training at home,,,,,,,,,,,,,
11,19,4221,A,31.4741911180046,63.20598354634989,1.57370955590023,0.9928372678606509,A,497.38908297149464,Correct,sub_011_day_19_data.csv,1,300,168.0,Training at home,,,,,,,,,,,,,
11,19,4222,B,40.517066436430454,25.73964958851107,2.025853321821523,0.4043174702662095,B,516.389042022638,Correct,sub_011_day_19_data.csv,1,300,168.0,Training at home,,,,,,,,,,,,,
11,19,4223,A,49.08547832109305,60.32968499305218,2.4542739160546523,0.9476564758377956,A,664.2237500054762,Correct,sub_011_day_19_data.csv,1,300,168.0,Training at home,,,,,,,,,,,,,
11,19,4224,A,51.418030055574135,81.82737154770189,2.5709015027787068,1.2853413465841137,A,566.7720839846879,Correct,sub_011_day_19_data.csv,1,300,168.0,Training at home,,,,,,,,,,,,,
11,19,4225,B,84.59932153819823,59.802268342036726,4.229966076909911,0.9393718344567402,B,540.8887910307385,Correct,sub_011_day_19_data.csv,1,300,169.0,Training at home,,,,,,,,,,,,,
11,19,4226,B,78.3873842675861,62.86724408799574,3.919369213379305,0.9875163608914188,B,754.3516250443645,Correct,sub_011_day_19_data.csv,1,300,169.0,Training at home,,,,,,,,,,,,,
11,19,4227,A,48.13491891989328,69.0509939134459,2.406745945994664,1.0846504760077758,A,690.5435420339927,Correct,sub_011_day_19_data.csv,1,300,169.0,Training at home,,,,,,,,,,,,,
11,19,4228,B,77.28286571758011,66.16418946275012,3.864143285879005,1.0393046577344949,B,581.1140420264564,Correct,sub_011_day_19_data.csv,1,300,169.0,Training at home,,,,,,,,,,,,,
11,19,4229,A,54.747682912170895,75.62291176271151,2.737384145608545,1.1878819201840185,A,526.3221670174971,Correct,sub_011_day_19_data.csv,1,300,169.0,Training at home,,,,,,,,,,,,,
11,19,4230,A,36.30236252052655,57.90589431328858,1.8151181260263272,0.9095836608708718,A,559.3777500325814,Correct,sub_011_day_19_data.csv,1,300,169.0,Training at home,,,,,,,,,,,,,
11,19,4231,B,53.32245265101464,21.603149598292156,2.6661226325507323,0.3393414803619796,B,416.0578749724664,Correct,sub_011_day_19_data.csv,1,300,169.0,Training at home,,,,,,,,,,,,,
11,19,4232,A,54.20840624774567,81.64398299207437,2.710420312387283,1.2824606858885543,A,420.7839589798823,Correct,sub_011_day_19_data.csv,1,300,169.0,Training at home,,,,,,,,,,,,,
11,19,4233,A,45.40945848499212,62.27814183808458,2.270472924249606,0.9782627643887484,A,627.7821669937111,Correct,sub_011_day_19_data.csv,1,300,169.0,Training at home,,,,,,,,,,,,,
11,19,4234,A,48.21224878034634,70.57191308388002,2.410612439017317,1.1085410184704745,A,672.4367919960059,Correct,sub_011_day_19_data.csv,1,300,169.0,Training at home,,,,,,,,,,,,,
11,19,4235,A,51.23862327251061,80.88015601620634,2.5619311636255304,1.2704625198085508,A,552.2820830228738,Correct,sub_011_day_19_data.csv,1,300,169.0,Training at home,,,,,,,,,,,,,
11,19,4236,B,72.66959117948323,50.1307518627939,3.6334795589741615,0.7874520088554309,B,452.09204097045586,Correct,sub_011_day_19_data.csv,1,300,169.0,Training at home,,,,,,,,,,,,,
11,19,4237,B,49.56876055945442,28.644114094298615,2.4784380279727207,0.4499406920361818,B,434.9157499964349,Correct,sub_011_day_19_data.csv,1,300,169.0,Training at home,,,,,,,,,,,,,
11,19,4238,A,64.26973977890633,87.19055352720017,3.2134869889453164,1.3695860121173982,A,418.5979579924606,Correct,sub_011_day_19_data.csv,1,300,169.0,Training at home,,,,,,,,,,,,,
11,19,4239,A,38.50531720919961,70.98432995739418,1.9252658604599804,1.1150192475707172,A,525.6074159988202,Correct,sub_011_day_19_data.csv,1,300,169.0,Training at home,,,,,,,,,,,,,
11,19,4240,A,38.697060358841846,67.93784563941225,1.934853017942092,1.0671651838074745,A,655.8892089524306,Correct,sub_011_day_19_data.csv,1,300,169.0,Training at home,,,,,,,,,,,,,
11,19,4241,B,84.18468416583855,56.5254947890149,4.209234208291928,0.8879003958484867,B,534.755792003125,Correct,sub_011_day_19_data.csv,1,300,169.0,Training at home,,,,,,,,,,,,,
11,19,4242,B,58.8827944778958,35.99518060167964,2.94413972389479,0.565410974714373,B,428.4103339887224,Correct,sub_011_day_19_data.csv,1,300,169.0,Training at home,,,,,,,,,,,,,
11,19,4243,B,69.17155981739288,60.63257497050162,3.458577990869644,0.9524142604778012,B,403.5010830266401,Correct,sub_011_day_19_data.csv,1,300,169.0,Training at home,,,,,,,,,,,,,
11,19,4244,A,38.3016934098985,69.36522736989482,1.9150846704949247,1.0895864435992362,A,458.58533401042223,Correct,sub_011_day_19_data.csv,1,300,169.0,Training at home,,,,,,,,,,,,,
11,19,4245,A,42.58931212434821,72.23107227936032,2.12946560621741,1.1346030301687589,A,445.86933398386464,Correct,sub_011_day_19_data.csv,1,300,169.0,Training at home,,,,,,,,,,,,,
11,19,4246,B,63.1127839908622,45.523717018156304,3.1556391995431103,0.7150848747417025,B,578.7465409957804,Correct,sub_011_day_19_data.csv,1,300,169.0,Training at home,,,,,,,,,,,,,
11,19,4247,A,36.22838892881501,49.20743053814769,1.8114194464407505,0.7729485114033742,A,1014.5308329956606,Correct,sub_011_day_19_data.csv,1,300,169.0,Training at home,,,,,,,,,,,,,
11,19,4248,B,67.2932694584095,52.98897063806287,3.364663472920475,0.8323488043891176,B,657.9045829712413,Correct,sub_011_day_19_data.csv,1,300,169.0,Training at home,,,,,,,,,,,,,
11,19,4249,B,62.15643573746416,32.62295275716015,3.107821786873208,0.512440143601506,B,408.9426250429824,Correct,sub_011_day_19_data.csv,1,300,169.0,Training at home,,,,,,,,,,,,,
11,19,4250,A,57.939379233012026,66.46296859325803,2.8969689616506016,1.0439978693417429,A,1229.9007080146112,Correct,sub_011_day_19_data.csv,1,300,170.0,Training at home,,,,,,,,,,,,,
11,19,4251,A,13.716011953527213,33.49346629518034,0.6858005976763606,0.5261141382809795,A,596.7824169783853,Correct,sub_011_day_19_data.csv,1,300,170.0,Training at home,,,,,,,,,,,,,
11,19,4252,B,71.10388880921796,45.584591852327854,3.555194440460898,0.7160410944008118,B,1290.6362910289315,Correct,sub_011_day_19_data.csv,1,300,170.0,Training at home,,,,,,,,,,,,,
11,19,4253,A,56.36788018611671,68.28152006633219,2.8183940093058357,1.072563609081666,A,902.9224999831058,Correct,sub_011_day_19_data.csv,1,300,170.0,Training at home,,,,,,,,,,,,,
11,19,4254,A,34.67232770555164,48.403830381561384,1.733616385277582,0.7603255896615984,A,550.8849590551108,Correct,sub_011_day_19_data.csv,1,300,170.0,Training at home,,,,,,,,,,,,,
11,19,4255,A,51.4105657240042,77.63326469130402,2.5705282862002097,1.2194604701419631,A,557.8220000024885,Correct,sub_011_day_19_data.csv,1,300,170.0,Training at home,,,,,,,,,,,,,
11,19,4256,B,58.47289474985169,34.955843313590876,2.923644737492584,0.549085102770065,B,847.1709170262329,Correct,sub_011_day_19_data.csv,1,300,170.0,Training at home,,,,,,,,,,,,,
11,19,4257,A,50.62712851275006,78.36937451729715,2.531356425637503,1.231023256249839,A,647.8467499837279,Correct,sub_011_day_19_data.csv,1,300,170.0,Training at home,,,,,,,,,,,,,
11,19,4258,B,77.08622413747197,56.29144197065116,3.8543112068735983,0.8842239027748692,B,639.0963749727234,Correct,sub_011_day_19_data.csv,1,300,170.0,Training at home,,,,,,,,,,,,,
11,19,4259,B,36.57181689480675,10.821742338638057,1.8285908447403376,0.1699875311505347,B,563.3720000041649,Correct,sub_011_day_19_data.csv,1,300,170.0,Training at home,,,,,,,,,,,,,
11,19,4260,A,21.33937460232821,39.467495463344214,1.0669687301164104,0.6199539690161534,A,677.6585420011543,Correct,sub_011_day_19_data.csv,1,300,170.0,Training at home,,,,,,,,,,,,,
11,19,4261,B,67.77154262605531,53.875972977562995,3.3885771313027653,0.8462818045565705,B,667.0871250098571,Correct,sub_011_day_19_data.csv,1,300,170.0,Training at home,,,,,,,,,,,,,
11,19,4262,B,51.20441081688664,35.25461601886767,2.560220540844332,0.5537782134500185,B,1002.3593340301886,Correct,sub_011_day_19_data.csv,1,300,170.0,Training at home,,,,,,,,,,,,,
11,19,4263,B,62.96217463951063,31.544264177588815,3.148108731975531,0.4954961430160435,B,441.0128750023432,Correct,sub_011_day_19_data.csv,1,300,170.0,Training at home,,,,,,,,,,,,,
11,19,4264,A,41.029155139036135,65.79615403639495,2.0514577569518067,1.033523570776004,A,622.6663750130683,Correct,sub_011_day_19_data.csv,1,300,170.0,Training at home,,,,,,,,,,,,,
11,19,4265,B,66.31934116366361,54.98046971571997,3.31596705818318,0.8636311987491097,B,1386.5954159991816,Correct,sub_011_day_19_data.csv,1,300,170.0,Training at home,,,,,,,,,,,,,
11,19,4266,A,50.39545284080184,80.98200865796822,2.519772642040092,1.2720624173640898,A,784.4696249812841,Correct,sub_011_day_19_data.csv,1,300,170.0,Training at home,,,,,,,,,,,,,
11,19,4267,B,59.1764288730002,52.27557724835967,2.95882144365001,0.8211428472280622,B,1366.978166042827,Correct,sub_011_day_19_data.csv,1,300,170.0,Training at home,,,,,,,,,,,,,
11,19,4268,A,36.5272946062085,53.13662454543426,1.826364730310425,0.8346681465424767,A,957.1727919974364,Correct,sub_011_day_19_data.csv,1,300,170.0,Training at home,,,,,,,,,,,,,
11,19,4269,A,51.226800905906856,64.46852397174217,2.561340045295343,1.0126692064870133,A,659.0759169775993,Correct,sub_011_day_19_data.csv,1,300,170.0,Training at home,,,,,,,,,,,,,
11,19,4270,B,71.90804658058133,48.52375459485385,3.595402329029066,0.762209354798934,B,690.130541974213,Correct,sub_011_day_19_data.csv,1,300,170.0,Training at home,,,,,,,,,,,,,
11,19,4271,B,66.70739406757302,38.32522899399854,3.3353697033786514,0.6020112892734618,B,529.1427080519497,Correct,sub_011_day_19_data.csv,1,300,170.0,Training at home,,,,,,,,,,,,,
11,19,4272,A,50.42066708905506,77.1634101591278,2.521033354452753,1.2120800124092597,A,671.3809170178138,Correct,sub_011_day_19_data.csv,1,300,170.0,Training at home,,,,,,,,,,,,,
11,19,4273,B,64.49532171988872,56.925474181531015,3.224766085994436,0.8941832574540665,B,881.8190830061212,Correct,sub_011_day_19_data.csv,1,300,170.0,Training at home,,,,,,,,,,,,,
11,19,4274,B,49.67091455093664,22.171933142361503,2.483545727546832,0.3482759113796347,B,519.6218750206754,Correct,sub_011_day_19_data.csv,1,300,170.0,Training at home,,,,,,,,,,,,,
11,19,4275,B,36.54695958692366,23.61666105712423,1.827347979346183,0.3709696443969081,B,570.5239999806508,Correct,sub_011_day_19_data.csv,1,300,171.0,Training at home,,,,,,,,,,,,,
11,19,4276,A,62.43255375730853,88.46804889954569,3.1216276878654265,1.3896528625011766,A,500.7117909844965,Correct,sub_011_day_19_data.csv,1,300,171.0,Training at home,,,,,,,,,,,,,
11,19,4277,A,32.86965229239216,58.79830957482488,1.6434826146196082,0.9236016870188414,A,527.4402910145,Correct,sub_011_day_19_data.csv,1,300,171.0,Training at home,,,,,,,,,,,,,
11,19,4278,B,43.25751513772977,15.925057976576213,2.1628757568864883,0.2501502257360168,B,454.2444999678992,Correct,sub_011_day_19_data.csv,1,300,171.0,Training at home,,,,,,,,,,,,,
11,19,4279,B,86.86173662044433,64.8695987958627,4.343086831022217,1.0189692750919976,B,734.5834579900838,Correct,sub_011_day_19_data.csv,1,300,171.0,Training at home,,,,,,,,,,,,,
11,19,4280,A,28.81718350980516,41.718227377154015,1.440859175490258,0.6553083832442782,A,442.3700000043027,Correct,sub_011_day_19_data.csv,1,300,171.0,Training at home,,,,,,,,,,,,,
11,19,4281,B,68.5771702426272,51.61540982369761,3.42885851213136,0.8107729615707742,B,556.978790962603,Correct,sub_011_day_19_data.csv,1,300,171.0,Training at home,,,,,,,,,,,,,
11,19,4282,A,39.93656602596181,53.64955233768604,1.9968283012980903,0.8427251974622779,A,577.0864169462584,Correct,sub_011_day_19_data.csv,1,300,171.0,Training at home,,,,,,,,,,,,,
11,19,4283,B,48.60251895121897,27.663331277774404,2.430125947560948,0.434534591580384,B,441.54537498252466,Correct,sub_011_day_19_data.csv,1,300,171.0,Training at home,,,,,,,,,,,,,
11,19,4284,B,42.06578647268291,13.695322160113776,2.103289323634146,0.2151256174337946,B,396.4599579921923,Correct,sub_011_day_19_data.csv,1,300,171.0,Training at home,,,,,,,,,,,,,
11,19,4285,B,50.10324782307714,36.189072749721454,2.505162391153857,0.5684566254537575,B,761.5125000011176,Correct,sub_011_day_19_data.csv,1,300,171.0,Training at home,,,,,,,,,,,,,
11,19,4286,B,56.069888780728064,31.163363091765824,2.8034944390364034,0.4895129627512141,B,412.13587496895343,Correct,sub_011_day_19_data.csv,1,300,171.0,Training at home,,,,,,,,,,,,,
11,19,4287,A,11.427406761053888,34.969645299992315,0.5713703380526944,0.5493019038654835,A,462.1244580484926,Correct,sub_011_day_19_data.csv,1,300,171.0,Training at home,,,,,,,,,,,,,
11,19,4288,B,51.55357841327893,36.72566598190008,2.5776789206639465,0.5768854122346493,B,486.9413750129752,Correct,sub_011_day_19_data.csv,1,300,171.0,Training at home,,,,,,,,,,,,,
11,19,4289,A,35.94359249010933,64.46303278002527,1.7971796245054663,1.012582951049227,A,439.259666018188,Correct,sub_011_day_19_data.csv,1,300,171.0,Training at home,,,,,,,,,,,,,
11,19,4290,A,14.069024447719318,35.11882342832855,0.7034512223859659,0.5516451884257704,A,484.403874957934,Correct,sub_011_day_19_data.csv,1,300,171.0,Training at home,,,,,,,,,,,,,
11,19,4291,B,45.63414514146159,28.32273851081706,2.2817072570730796,0.4448925361756379,B,807.3576249880716,Correct,sub_011_day_19_data.csv,1,300,171.0,Training at home,,,,,,,,,,,,,
11,19,4292,A,21.086870409692175,49.300251168440326,1.0543435204846088,0.7744065344545187,A,461.2400000332854,Correct,sub_011_day_19_data.csv,1,300,171.0,Training at home,,,,,,,,,,,,,
11,19,4293,B,83.52239255587811,57.3341506350875,4.176119627793906,0.9006027321750073,B,610.7323330361396,Correct,sub_011_day_19_data.csv,1,300,171.0,Training at home,,,,,,,,,,,,,
11,19,4294,A,53.99904454007488,63.41851655240758,2.6999522270037435,0.9961757285130318,A,1465.3292080038227,Correct,sub_011_day_19_data.csv,1,300,171.0,Training at home,,,,,,,,,,,,,
11,19,4295,A,45.23261486352505,59.160278950938846,2.2616307431762523,0.9292874886829616,A,609.3437499948777,Correct,sub_011_day_19_data.csv,1,300,171.0,Training at home,,,,,,,,,,,,,
11,19,4296,A,57.92978960397082,80.72139115161556,2.896489480198541,1.267968647147318,A,500.646417029202,Correct,sub_011_day_19_data.csv,1,300,171.0,Training at home,,,,,,,,,,,,,
11,19,4297,A,13.206164530368142,33.01541364341369,0.660308226518407,0.5186049047868834,A,490.3655420057475,Correct,sub_011_day_19_data.csv,1,300,171.0,Training at home,,,,,,,,,,,,,
11,19,4298,A,30.73947104896797,51.754503921902355,1.5369735524483985,0.8129578465561628,A,501.8473329837434,Correct,sub_011_day_19_data.csv,1,300,171.0,Training at home,,,,,,,,,,,,,
11,19,4299,B,78.28309897980218,58.592963810553776,3.9141549489901086,0.9203761232964418,B,796.9619170180522,Correct,sub_011_day_19_data.csv,1,300,171.0,Training at home,,,,,,,,,,,,,
11,19,4300,B,77.05372974255287,59.64731193898958,3.852686487127644,0.9369377849695422,B,461.4324169815518,Correct,sub_011_day_19_data.csv,1,300,172.0,Training at home,,,,,,,,,,,,,
11,19,4301,B,78.02235183424935,50.337477188442094,3.901117591712467,0.7906992426772673,B,380.8707079733722,Correct,sub_011_day_19_data.csv,1,300,172.0,Training at home,,,,,,,,,,,,,
11,19,4302,B,61.0023813625162,33.70046364271409,3.05011906812581,0.5293656450126025,B,366.5765000041574,Correct,sub_011_day_19_data.csv,1,300,172.0,Training at home,,,,,,,,,,,,,
11,19,4303,B,71.20799307262548,40.80627584001715,3.560399653631274,0.6409834819967827,B,370.3830419690348,Correct,sub_011_day_19_data.csv,1,300,172.0,Training at home,,,,,,,,,,,,,
11,19,4304,B,57.41181578289301,50.19225614197042,2.8705907891446505,0.7884181158135573,B,555.3814580198377,Correct,sub_011_day_19_data.csv,1,300,172.0,Training at home,,,,,,,,,,,,,
11,19,4305,A,19.763460155284104,32.53993821873043,0.9881730077642052,0.5111361542811462,A,442.6067500025965,Correct,sub_011_day_19_data.csv,1,300,172.0,Training at home,,,,,,,,,,,,,
11,19,4306,B,70.44435392978454,53.04719111625934,3.522217696489227,0.8332633295220706,A,764.1905000200495,Incorrect,sub_011_day_19_data.csv,0,300,172.0,Training at home,,,,,,,,,,,,,
11,19,4307,B,44.05951921620476,32.968939672819,2.202975960810238,0.5178748933638662,B,463.9252080232836,Correct,sub_011_day_19_data.csv,1,300,172.0,Training at home,,,,,,,,,,,,,
11,19,4308,B,79.00973712507701,63.03373054873207,3.95048685625385,0.990131524101276,B,767.4220409826376,Correct,sub_011_day_19_data.csv,1,300,172.0,Training at home,,,,,,,,,,,,,
11,19,4309,A,31.205056034700352,59.18007381044017,1.5602528017350177,0.9295984256089028,A,480.8391249971464,Correct,sub_011_day_19_data.csv,1,300,172.0,Training at home,,,,,,,,,,,,,
11,19,4310,B,72.52156227105002,55.19211283536357,3.626078113552501,0.8669556810983855,B,582.7747090370394,Correct,sub_011_day_19_data.csv,1,300,172.0,Training at home,,,,,,,,,,,,,
11,19,4311,A,39.3825914393088,71.40593143871622,1.96912957196544,1.1216417481530367,A,572.032833006233,Correct,sub_011_day_19_data.csv,1,300,172.0,Training at home,,,,,,,,,,,,,
11,19,4312,A,19.226603731693555,39.73613305478531,0.9613301865846776,0.6241737184349004,A,425.5939159775153,Correct,sub_011_day_19_data.csv,1,300,172.0,Training at home,,,,,,,,,,,,,
11,19,4313,B,61.963886912879424,38.84993304775337,3.098194345643971,0.6102533212763865,B,490.1789169525728,Correct,sub_011_day_19_data.csv,1,300,172.0,Training at home,,,,,,,,,,,,,
11,19,4314,B,54.41687636191433,29.68080793986811,2.7208438180957164,0.4662250408824963,B,749.7754999785684,Correct,sub_011_day_19_data.csv,1,300,172.0,Training at home,,,,,,,,,,,,,
11,19,4315,B,37.0576734276776,19.561013419195316,1.85288367138388,0.3072636802725768,B,462.27820799686015,Correct,sub_011_day_19_data.csv,1,300,172.0,Training at home,,,,,,,,,,,,,
11,19,4316,A,64.27963933964546,83.98853045231199,3.2139819669822725,1.3192887512739295,A,822.286874987185,Correct,sub_011_day_19_data.csv,1,300,172.0,Training at home,,,,,,,,,,,,,
11,19,4317,B,75.00442734121992,58.2882979403241,3.750221367060996,0.9155904429978764,B,594.625250028912,Correct,sub_011_day_19_data.csv,1,300,172.0,Training at home,,,,,,,,,,,,,
11,19,4318,B,58.73239769196192,26.46512470436674,2.936619884598096,0.4157132067378815,B,424.2540000122972,Correct,sub_011_day_19_data.csv,1,300,172.0,Training at home,,,,,,,,,,,,,
11,19,4319,B,43.87882049805097,22.738127406693664,2.1939410249025486,0.3571696700862877,B,402.9566250392236,Correct,sub_011_day_19_data.csv,1,300,172.0,Training at home,,,,,,,,,,,,,
11,19,4320,A,37.48009634977288,70.22664775997882,1.874004817488644,1.1031176034449377,A,641.4341669878922,Correct,sub_011_day_19_data.csv,1,300,172.0,Training at home,,,,,,,,,,,,,
11,19,4321,A,59.62051140008147,72.26456158136462,2.981025570004073,1.1351290788945114,A,710.0840829662047,Correct,sub_011_day_19_data.csv,1,300,172.0,Training at home,,,,,,,,,,,,,
11,19,4322,A,35.94075566286669,48.258873941275816,1.7970377831433348,0.7580486192221401,A,888.7165000196546,Correct,sub_011_day_19_data.csv,1,300,172.0,Training at home,,,,,,,,,,,,,
11,19,4323,A,15.215941128408712,30.604169622113552,0.7607970564204356,0.4807291722702392,A,440.3072079876438,Correct,sub_011_day_19_data.csv,1,300,172.0,Training at home,,,,,,,,,,,,,
11,19,4324,A,28.120654562158613,47.54067646313005,1.4060327281079308,0.7467671996162928,A,455.2591659594327,Correct,sub_011_day_19_data.csv,1,300,172.0,Training at home,,,,,,,,,,,,,
11,19,4325,B,57.500181480333126,45.72148947492999,2.8750090740166563,0.7181914772281155,B,565.5695840250701,Correct,sub_011_day_19_data.csv,1,300,173.0,Training at home,,,,,,,,,,,,,
11,19,4326,A,57.062162217283834,69.00503350649605,2.853108110864192,1.0839285316236271,A,430.86541700176895,Correct,sub_011_day_19_data.csv,1,300,173.0,Training at home,,,,,,,,,,,,,
11,19,4327,A,69.0318096035862,88.85935573820035,3.45159048017931,1.3957994959492612,A,536.3146669697016,Correct,sub_011_day_19_data.csv,1,300,173.0,Training at home,,,,,,,,,,,,,
11,19,4328,B,72.61876086196035,39.80977932990097,3.630938043098018,0.6253305514192384,B,507.97458400484174,Correct,sub_011_day_19_data.csv,1,300,173.0,Training at home,,,,,,,,,,,,,
11,19,4329,A,69.2937437460025,84.72079206204229,3.4646871873001253,1.3307910897421027,A,663.6351670022123,Correct,sub_011_day_19_data.csv,1,300,173.0,Training at home,,,,,,,,,,,,,
11,19,4330,A,22.6306178662288,36.87947792900653,1.13153089331144,0.5793014846499692,A,574.0772919962183,Correct,sub_011_day_19_data.csv,1,300,173.0,Training at home,,,,,,,,,,,,,
11,19,4331,A,28.906328076203863,47.632959668128166,1.445316403810193,0.7482167808106518,A,523.6906670033932,Correct,sub_011_day_19_data.csv,1,300,173.0,Training at home,,,,,,,,,,,,,
11,19,4332,A,63.837098854606126,86.0903487996899,3.191854942730306,1.3523040366704433,A,513.2262500119396,Correct,sub_011_day_19_data.csv,1,300,173.0,Training at home,,,,,,,,,,,,,
11,19,4333,A,10.988657609308037,32.432382264664795,0.5494328804654017,0.5094466693054341,A,467.91866701096296,Correct,sub_011_day_19_data.csv,1,300,173.0,Training at home,,,,,,,,,,,,,
11,19,4334,B,66.29803213513364,33.84084679522651,3.314901606756682,0.5315707784157065,B,540.5660000396892,Correct,sub_011_day_19_data.csv,1,300,173.0,Training at home,,,,,,,,,,,,,
11,19,4335,A,13.110022523590708,38.76771890157076,0.6555011261795355,0.6089619044880442,A,524.2567079840228,Correct,sub_011_day_19_data.csv,1,300,173.0,Training at home,,,,,,,,,,,,,
11,19,4336,B,33.817775213243394,10.397868119886628,1.69088876066217,0.1633293304921567,B,448.6535839969292,Correct,sub_011_day_19_data.csv,1,300,173.0,Training at home,,,,,,,,,,,,,
11,19,4337,B,35.58935918066079,22.659357609183665,1.7794679590330396,0.3559323570003769,B,475.2880000160076,Correct,sub_011_day_19_data.csv,1,300,173.0,Training at home,,,,,,,,,,,,,
11,19,4338,B,57.63118799351464,36.14403779295929,2.881559399675732,0.5677492180071636,B,459.8073329543695,Correct,sub_011_day_19_data.csv,1,300,173.0,Training at home,,,,,,,,,,,,,
11,19,4339,A,32.9640031333086,48.48019658612941,1.64820015666543,0.7615251471978656,B,658.7985000223853,Incorrect,sub_011_day_19_data.csv,0,300,173.0,Training at home,,,,,,,,,,,,,
11,19,4340,A,17.560868874390902,47.78873974684373,0.8780434437195451,0.7506637685649941,A,590.2990419999696,Correct,sub_011_day_19_data.csv,1,300,173.0,Training at home,,,,,,,,,,,,,
11,19,4341,B,48.73203313344598,31.43854231048651,2.436601656672299,0.4938354678109815,B,496.36529199779034,Correct,sub_011_day_19_data.csv,1,300,173.0,Training at home,,,,,,,,,,,,,
11,19,4342,A,23.867251359138177,39.34214716511922,1.1933625679569089,0.6179850025519352,A,801.3735410058871,Correct,sub_011_day_19_data.csv,1,300,173.0,Training at home,,,,,,,,,,,,,
11,19,4343,A,25.498772853887395,55.9976341904452,1.27493864269437,0.8796087809555562,A,429.7827080008574,Correct,sub_011_day_19_data.csv,1,300,173.0,Training at home,,,,,,,,,,,,,
11,19,4344,B,48.55750001507499,29.32418345606037,2.4278750007537497,0.460623196590393,B,495.0162910390645,Correct,sub_011_day_19_data.csv,1,300,173.0,Training at home,,,,,,,,,,,,,
11,19,4345,A,27.53232017487318,59.95943844970535,1.3766160087436592,0.9418406567348184,A,472.838000045158,Correct,sub_011_day_19_data.csv,1,300,173.0,Training at home,,,,,,,,,,,,,
11,19,4346,A,58.77049776158151,76.93768818593091,2.9385248880790753,1.208534379945514,A,726.4608750119805,Correct,sub_011_day_19_data.csv,1,300,173.0,Training at home,,,,,,,,,,,,,
11,19,4347,A,49.098444194311824,61.51381841359036,2.454922209715591,0.96625680011196,A,477.8793749865145,Correct,sub_011_day_19_data.csv,1,300,173.0,Training at home,,,,,,,,,,,,,
11,19,4348,B,77.99401823137023,50.032846452095306,3.899700911568511,0.7859141142604439,B,575.4918330349028,Correct,sub_011_day_19_data.csv,1,300,173.0,Training at home,,,,,,,,,,,,,
11,19,4349,B,58.88119687747386,47.41883123832263,2.944059843873693,0.7448532593006428,B,594.8471670271829,Correct,sub_011_day_19_data.csv,1,300,173.0,Training at home,,,,,,,,,,,,,
11,19,4350,A,53.73068472438083,76.32771073827043,2.6865342362190416,1.1989528766033857,A,605.7530409889296,Correct,sub_011_day_19_data.csv,1,300,174.0,Training at home,,,,,,,,,,,,,
11,19,4351,A,13.287312136260317,33.476944051373174,0.6643656068130157,0.5258546074821525,A,518.2288750074804,Correct,sub_011_day_19_data.csv,1,300,174.0,Training at home,,,,,,,,,,,,,
11,19,4352,B,55.08279087863492,36.67573601440283,2.754139543931746,0.5761011141392327,B,716.559958003927,Correct,sub_011_day_19_data.csv,1,300,174.0,Training at home,,,,,,,,,,,,,
11,19,4353,A,22.79412682782894,40.97290773538115,1.139706341391447,0.6436009296884292,A,760.1861659786664,Correct,sub_011_day_19_data.csv,1,300,174.0,Training at home,,,,,,,,,,,,,
11,19,4354,A,41.85487555359072,49.886901429847626,2.092743777679536,0.7836216152118372,A,450.6232080166228,Correct,sub_011_day_19_data.csv,1,300,174.0,Training at home,,,,,,,,,,,,,
11,19,4355,B,62.97827442953216,52.783331740760985,3.1489137214766076,0.8291186361438384,B,727.8655000263825,Correct,sub_011_day_19_data.csv,1,300,174.0,Training at home,,,,,,,,,,,,,
11,19,4356,A,48.53837913330645,73.28568236818816,2.426918956665322,1.1511688067060748,A,581.749957986176,Correct,sub_011_day_19_data.csv,1,300,174.0,Training at home,,,,,,,,,,,,,
11,19,4357,B,48.3887091152993,28.728521081617203,2.419435455764965,0.4512665538925405,B,1496.4297079714015,Correct,sub_011_day_19_data.csv,1,300,174.0,Training at home,,,,,,,,,,,,,
11,19,4358,B,55.64921817941479,23.638020434350594,2.7824609089707395,0.3713051567098062,B,957.989374990575,Correct,sub_011_day_19_data.csv,1,300,174.0,Training at home,,,,,,,,,,,,,
11,19,4359,A,47.646506350556066,56.35752867634584,2.3823253175278034,0.885261990320421,A,1426.4898339752108,Correct,sub_011_day_19_data.csv,1,300,174.0,Training at home,,,,,,,,,,,,,
11,19,4360,B,83.0060255322864,57.799324541365195,4.15030127661432,0.9079096668080258,B,1119.8759580147453,Correct,sub_011_day_19_data.csv,1,300,174.0,Training at home,,,,,,,,,,,,,
11,19,4361,B,44.51404599208893,17.77631368109933,2.225702299604446,0.2792296823422469,B,754.0944160427898,Correct,sub_011_day_19_data.csv,1,300,174.0,Training at home,,,,,,,,,,,,,
11,19,4362,A,30.661854848167813,44.6337169698879,1.5330927424083909,0.7011047866750294,A,980.505292012822,Correct,sub_011_day_19_data.csv,1,300,174.0,Training at home,,,,,,,,,,,,,
11,19,4363,B,83.44413727059225,58.76761801276721,4.172206863529612,0.9231195850894036,B,1145.7659999723546,Correct,sub_011_day_19_data.csv,1,300,174.0,Training at home,,,,,,,,,,,,,
11,19,4364,B,42.88323716776179,15.134178416537193,2.1441618583880895,0.2377271186575522,B,735.5764579842798,Correct,sub_011_day_19_data.csv,1,300,174.0,Training at home,,,,,,,,,,,,,
11,19,4365,B,59.32597530073328,33.49852918090933,2.9662987650366635,0.5261936659040403,B,736.1719589680433,Correct,sub_011_day_19_data.csv,1,300,174.0,Training at home,,,,,,,,,,,,,
11,19,4366,A,59.92198260409908,80.27878432045466,2.996099130204954,1.261016195301299,A,815.6242090044543,Correct,sub_011_day_19_data.csv,1,300,174.0,Training at home,,,,,,,,,,,,,
11,19,4367,A,35.77629826990612,68.15676502028344,1.7888149134953062,1.0706039614008414,A,733.2857910078019,Correct,sub_011_day_19_data.csv,1,300,174.0,Training at home,,,,,,,,,,,,,
11,19,4368,B,47.2054459598296,34.99232126045726,2.36027229799148,0.5496580970195323,B,465.6756249605678,Correct,sub_011_day_19_data.csv,1,300,174.0,Training at home,,,,,,,,,,,,,
11,19,4369,B,88.25612985421125,64.22579337796148,4.412806492710563,1.0088564032358989,B,460.7972499798052,Correct,sub_011_day_19_data.csv,1,300,174.0,Training at home,,,,,,,,,,,,,
11,19,4370,A,20.079569641856754,45.0820973200801,1.0039784820928377,0.7081479287459188,A,474.32104201288894,Correct,sub_011_day_19_data.csv,1,300,174.0,Training at home,,,,,,,,,,,,,
11,19,4371,A,58.38257893132277,70.86225294024099,2.9191289465661385,1.113101666269414,A,1044.70999998739,Correct,sub_011_day_19_data.csv,1,300,174.0,Training at home,,,,,,,,,,,,,
11,19,4372,B,42.30364695636134,31.53587689239091,2.115182347818067,0.4953643958482369,B,580.8431659825146,Correct,sub_011_day_19_data.csv,1,300,174.0,Training at home,,,,,,,,,,,,,
11,19,4373,A,24.927492480336404,47.3330501131831,1.2463746240168203,0.7435058125378677,A,523.1143750133924,Correct,sub_011_day_19_data.csv,1,300,174.0,Training at home,,,,,,,,,,,,,
11,19,4374,B,47.81684840182029,31.084970688683484,2.3908424200910146,0.4882815777631104,B,620.2784579945728,Correct,sub_011_day_19_data.csv,1,300,174.0,Training at home,,,,,,,,,,,,,
11,19,4375,A,38.17550753510702,64.89127448216144,1.908775376755351,1.019309755976186,A,593.4030840289779,Correct,sub_011_day_19_data.csv,1,300,175.0,Training at home,,,,,,,,,,,,,
11,19,4376,A,20.010890138288588,33.22941167350426,1.0005445069144294,0.5219663779829594,A,534.6330419997685,Correct,sub_011_day_19_data.csv,1,300,175.0,Training at home,,,,,,,,,,,,,
11,19,4377,A,41.28491704753836,61.6101202080356,2.064245852376918,0.9677695051617434,A,605.3684169892222,Correct,sub_011_day_19_data.csv,1,300,175.0,Training at home,,,,,,,,,,,,,
11,19,4378,B,82.21954517930561,63.5117937550408,4.11097725896528,0.9976409233857314,B,484.704917005729,Correct,sub_011_day_19_data.csv,1,300,175.0,Training at home,,,,,,,,,,,,,
11,19,4379,A,59.118108440025665,70.84325224893028,2.9559054220012833,1.11280320410824,A,631.3408749992959,Correct,sub_011_day_19_data.csv,1,300,175.0,Training at home,,,,,,,,,,,,,
11,19,4380,A,21.225727766137137,33.43488500683501,1.0612863883068568,0.525193945555462,A,655.719832982868,Correct,sub_011_day_19_data.csv,1,300,175.0,Training at home,,,,,,,,,,,,,
11,19,4381,B,67.68657631196886,41.490478511480184,3.384328815598443,0.6517309124279566,B,491.62816698662937,Correct,sub_011_day_19_data.csv,1,300,175.0,Training at home,,,,,,,,,,,,,
11,19,4382,A,42.26578507487821,66.21786742451026,2.1132892537439103,1.0401478291861217,A,457.7475829864852,Correct,sub_011_day_19_data.csv,1,300,175.0,Training at home,,,,,,,,,,,,,
11,19,4383,A,66.85983147303384,89.46378630686094,3.342991573651692,1.4052938691198071,A,467.75483299279585,Correct,sub_011_day_19_data.csv,1,300,175.0,Training at home,,,,,,,,,,,,,
11,19,4384,B,59.214239419347415,28.3704309319944,2.960711970967371,0.4456416869756511,B,594.1211250028573,Correct,sub_011_day_19_data.csv,1,300,175.0,Training at home,,,,,,,,,,,,,
11,19,4385,A,54.744920840883545,74.24277721975932,2.7372460420441773,1.1662028174784975,A,655.7997090276331,Correct,sub_011_day_19_data.csv,1,300,175.0,Training at home,,,,,,,,,,,,,
11,19,4386,B,66.24002478918452,55.88501977617585,3.312001239459226,0.8778398378727719,B,1441.0732919932343,Correct,sub_011_day_19_data.csv,1,300,175.0,Training at home,,,,,,,,,,,,,
11,19,4387,A,48.579113441037,59.27213300462356,2.4289556720518504,0.9310444880496124,B,561.1278329743072,Incorrect,sub_011_day_19_data.csv,0,300,175.0,Training at home,,,,,,,,,,,,,
11,19,4388,A,57.129773226590544,80.10021856906614,2.8564886613295273,1.258211291037575,A,816.7154589900747,Correct,sub_011_day_19_data.csv,1,300,175.0,Training at home,,,,,,,,,,,,,
11,19,4389,B,84.0751528363524,60.73506216439667,4.20375764181762,0.95402412555494,B,1192.3724170192145,Correct,sub_011_day_19_data.csv,1,300,175.0,Training at home,,,,,,,,,,,,,
11,19,4390,B,78.50773211279781,55.422653804632816,3.9253866056398903,0.8705770101754241,B,521.2993340101093,Correct,sub_011_day_19_data.csv,1,300,175.0,Training at home,,,,,,,,,,,,,
11,19,4391,A,36.75862472351763,64.76858890444872,1.8379312361758815,1.0173826154279677,A,487.7700420329347,Correct,sub_011_day_19_data.csv,1,300,175.0,Training at home,,,,,,,,,,,,,
11,19,4392,B,70.53225272242763,49.22442686062578,3.5266126361213814,0.7732154890125501,B,520.6900420016609,Correct,sub_011_day_19_data.csv,1,300,175.0,Training at home,,,,,,,,,,,,,
11,19,4393,B,67.51131305788024,48.6464836685328,3.375565652894012,0.7641371785801924,B,447.32841599034145,Correct,sub_011_day_19_data.csv,1,300,175.0,Training at home,,,,,,,,,,,,,
11,19,4394,B,40.08549139457565,18.478160256817464,2.0042745697287825,0.2902542625733632,B,423.4864999889396,Correct,sub_011_day_19_data.csv,1,300,175.0,Training at home,,,,,,,,,,,,,
11,19,4395,B,41.39146813414074,14.696257698321736,2.0695734067070366,0.23084827610155,B,406.0168329742737,Correct,sub_011_day_19_data.csv,1,300,175.0,Training at home,,,,,,,,,,,,,
11,19,4396,B,33.88546776482393,21.295369749993196,1.6942733882411969,0.3345068858102846,B,426.4028329635039,Correct,sub_011_day_19_data.csv,1,300,175.0,Training at home,,,,,,,,,,,,,
11,19,4397,B,47.85504635856073,19.852665213979307,2.392752317928037,0.3118449359520751,B,389.6187500213273,Correct,sub_011_day_19_data.csv,1,300,175.0,Training at home,,,,,,,,,,,,,
11,19,4398,A,53.92544411990009,72.44837260248242,2.6962722059950046,1.1380163756624742,A,774.0908749983646,Correct,sub_011_day_19_data.csv,1,300,175.0,Training at home,,,,,,,,,,,,,
11,19,4399,A,36.68472401771385,54.75449197895659,1.8342362008856925,0.8600815487606562,A,603.630667028483,Correct,sub_011_day_19_data.csv,1,300,175.0,Training at home,,,,,,,,,,,,,
11,19,4400,A,44.09907426155264,67.44195315566887,2.204953713077632,1.0593757228879814,A,380.63566701021045,Correct,sub_011_day_19_data.csv,1,300,176.0,Training at home,,,,,,,,,,,,,
11,19,4401,A,35.334289556721245,66.5593087366272,1.7667144778360622,1.0455111767750147,A,387.4752499978058,Correct,sub_011_day_19_data.csv,1,300,176.0,Training at home,,,,,,,,,,,,,
11,19,4402,B,37.46909946972073,11.989382699106802,1.8734549734860368,0.1883287830429525,B,503.12491599470377,Correct,sub_011_day_19_data.csv,1,300,176.0,Training at home,,,,,,,,,,,,,
11,19,4403,A,57.36488190184359,74.93094426239693,2.8682440950921797,1.1770125201064623,A,626.0010419646278,Correct,sub_011_day_19_data.csv,1,300,176.0,Training at home,,,,,,,,,,,,,
11,19,4404,A,32.4561531569331,60.29571347800032,1.622807657846655,0.9471228525272044,A,502.7856249944307,Correct,sub_011_day_19_data.csv,1,300,176.0,Training at home,,,,,,,,,,,,,
11,19,4405,A,53.19691526896854,61.27257521233588,2.659845763448427,0.9624673607680124,A,465.8005409874022,Correct,sub_011_day_19_data.csv,1,300,176.0,Training at home,,,,,,,,,,,,,
11,19,4406,B,54.137427614849,40.89854716799664,2.70687138074245,0.6424328766273694,B,757.1412920369767,Correct,sub_011_day_19_data.csv,1,300,176.0,Training at home,,,,,,,,,,,,,
11,19,4407,B,39.28493040253421,26.951819963102043,1.9642465201267103,0.4233581979847806,B,455.3877920261584,Correct,sub_011_day_19_data.csv,1,300,176.0,Training at home,,,,,,,,,,,,,
11,19,4408,A,48.09469607415536,77.68582463612293,2.404734803707768,1.2202860798245438,A,454.21145897125825,Correct,sub_011_day_19_data.csv,1,300,176.0,Training at home,,,,,,,,,,,,,
11,19,4409,A,36.29442297556827,49.966383916088056,1.8147211487784136,0.7848701231861472,A,765.2261250186712,Correct,sub_011_day_19_data.csv,1,300,176.0,Training at home,,,,,,,,,,,,,
11,19,4410,A,23.686494672369182,47.774777605666415,1.1843247336184592,0.7504444517642388,A,485.62791699077934,Correct,sub_011_day_19_data.csv,1,300,176.0,Training at home,,,,,,,,,,,,,
11,19,4411,B,42.78326993082836,31.717267292244983,2.139163496541418,0.4982136695863033,A,510.9575830283575,Incorrect,sub_011_day_19_data.csv,0,300,176.0,Training at home,,,,,,,,,,,,,
11,19,4412,A,27.242475087021457,44.010355800592805,1.3621237543510727,0.6913130523250766,A,976.5735419932752,Correct,sub_011_day_19_data.csv,1,300,176.0,Training at home,,,,,,,,,,,,,
11,19,4413,B,60.64562363991377,28.628388720794018,3.032281181995689,0.4496936784467968,B,428.43970796093345,Correct,sub_011_day_19_data.csv,1,300,176.0,Training at home,,,,,,,,,,,,,
11,19,4414,A,22.37992105258818,40.56996995648487,1.118996052629409,0.6372715978582574,A,460.8812499791384,Correct,sub_011_day_19_data.csv,1,300,176.0,Training at home,,,,,,,,,,,,,
11,19,4415,B,56.60415763456142,35.7910348423557,2.830207881728071,0.5622042606256049,B,550.7302499609068,Correct,sub_011_day_19_data.csv,1,300,176.0,Training at home,,,,,,,,,,,,,
11,19,4416,B,85.86454433258623,66.75019836369319,4.293227216629312,1.0485096640252,B,517.5049160025083,Correct,sub_011_day_19_data.csv,1,300,176.0,Training at home,,,,,,,,,,,,,
11,19,4417,B,66.03567338825425,49.5627605634447,3.3017836694127127,0.778530022388739,B,479.2217499925755,Correct,sub_011_day_19_data.csv,1,300,176.0,Training at home,,,,,,,,,,,,,
11,19,4418,B,32.26988831473645,11.063815609140974,1.6134944157368225,0.1737900091917468,B,888.4362499811687,Correct,sub_011_day_19_data.csv,1,300,176.0,Training at home,,,,,,,,,,,,,
11,19,4419,B,43.69130347961668,32.09206379293224,2.1845651739808343,0.5041009592520546,B,600.7429999881424,Correct,sub_011_day_19_data.csv,1,300,176.0,Training at home,,,,,,,,,,,,,
11,19,4420,A,36.66517143919023,49.65238446225242,1.8332585719595116,0.7799378312991411,A,878.0568340444006,Correct,sub_011_day_19_data.csv,1,300,176.0,Training at home,,,,,,,,,,,,,
11,19,4421,A,42.429768047647585,66.74449462323058,2.1214884023823792,1.0484200698795232,A,510.5549999861978,Correct,sub_011_day_19_data.csv,1,300,176.0,Training at home,,,,,,,,,,,,,
11,19,4422,B,42.10135339395579,22.95895378099188,2.1050676696977892,0.3606384026623586,B,546.3951659621671,Correct,sub_011_day_19_data.csv,1,300,176.0,Training at home,,,,,,,,,,,,,
11,19,4423,A,33.95622826046988,61.42791812931363,1.697811413023494,0.9649074816018348,A,440.610125020612,Correct,sub_011_day_19_data.csv,1,300,176.0,Training at home,,,,,,,,,,,,,
11,19,4424,A,58.67548537241235,71.12900901029252,2.933774268620618,1.117291860819286,A,1307.085458014626,Correct,sub_011_day_19_data.csv,1,300,176.0,Training at home,,,,,,,,,,,,,
11,19,4425,B,44.0190353397691,30.562403670172927,2.200951766988455,0.480073114231305,B,496.1887499666773,Correct,sub_011_day_19_data.csv,1,300,177.0,Training at home,,,,,,,,,,,,,
11,19,4426,B,43.791531855368234,34.67333396966555,2.189576592768412,0.5446474563728335,B,390.50091698300093,Correct,sub_011_day_19_data.csv,1,300,177.0,Training at home,,,,,,,,,,,,,
11,19,4427,B,40.165373788984674,31.234695714541935,2.008268689449234,0.4906334529695876,B,407.6946250279434,Correct,sub_011_day_19_data.csv,1,300,177.0,Training at home,,,,,,,,,,,,,
11,19,4428,A,25.879620238721635,37.432902689339464,1.2939810119360815,0.5879946604568523,A,753.0165000353009,Correct,sub_011_day_19_data.csv,1,300,177.0,Training at home,,,,,,,,,,,,,
11,19,4429,A,21.182256042286063,37.852999320018355,1.0591128021143033,0.5945935229005456,A,448.2417089748196,Correct,sub_011_day_19_data.csv,1,300,177.0,Training at home,,,,,,,,,,,,,
11,19,4430,A,48.1762863616956,73.84162567223001,2.40881431808478,1.1599015437050264,A,468.3439999935217,Correct,sub_011_day_19_data.csv,1,300,177.0,Training at home,,,,,,,,,,,,,
11,19,4431,B,72.14901968454579,46.82831017287297,3.60745098422729,0.7355773760956095,B,488.057459006086,Correct,sub_011_day_19_data.csv,1,300,177.0,Training at home,,,,,,,,,,,,,
11,19,4432,A,33.83544092662299,54.31305972191299,1.6917720463311494,0.8531475470817278,A,515.0270000449382,Correct,sub_011_day_19_data.csv,1,300,177.0,Training at home,,,,,,,,,,,,,
11,19,4433,A,44.475348782250194,73.21278470765526,2.2237674391125095,1.1500237329321046,A,594.7847919887863,Correct,sub_011_day_19_data.csv,1,300,177.0,Training at home,,,,,,,,,,,,,
11,19,4434,A,50.30467550219656,76.31837309460622,2.515233775109828,1.198806201239699,A,540.9207920311019,Correct,sub_011_day_19_data.csv,1,300,177.0,Training at home,,,,,,,,,,,,,
11,19,4435,B,81.34224419386322,60.32300229442568,4.067112209693161,0.9475515042532396,B,561.98554194998,Correct,sub_011_day_19_data.csv,1,300,177.0,Training at home,,,,,,,,,,,,,
11,19,4436,B,82.95333275504093,68.9297660165944,4.147666637752047,1.0827462326569817,B,495.30483299167827,Correct,sub_011_day_19_data.csv,1,300,177.0,Training at home,,,,,,,,,,,,,
11,19,4437,A,24.381361805015803,50.72465081417906,1.2190680902507902,0.7967809517686623,A,487.7631670096889,Correct,sub_011_day_19_data.csv,1,300,177.0,Training at home,,,,,,,,,,,,,
11,19,4438,A,22.453438423560424,53.189876324614474,1.1226719211780212,0.8355046235337926,A,440.4460410005413,Correct,sub_011_day_19_data.csv,1,300,177.0,Training at home,,,,,,,,,,,,,
11,19,4439,B,71.23336384872044,54.700635662818854,3.5616681924360223,0.8592355757250179,B,457.4262499809265,Correct,sub_011_day_19_data.csv,1,300,177.0,Training at home,,,,,,,,,,,,,
11,19,4440,B,67.0967451263238,56.45612335358841,3.35483725631619,0.8868107118889625,B,529.9085829756223,Correct,sub_011_day_19_data.csv,1,300,177.0,Training at home,,,,,,,,,,,,,
11,19,4441,A,53.491505078937465,60.91020048398524,2.6745752539468732,0.9567751918458476,A,984.17824995704,Correct,sub_011_day_19_data.csv,1,300,177.0,Training at home,,,,,,,,,,,,,
11,19,4442,B,45.69889633769803,25.903345031833616,2.284944816884902,0.4068887922770508,B,504.0952090057544,Correct,sub_011_day_19_data.csv,1,300,177.0,Training at home,,,,,,,,,,,,,
11,19,4443,A,34.36225385110524,62.373231939285304,1.718112692555262,0.9797564362055547,A,442.2427919926122,Correct,sub_011_day_19_data.csv,1,300,177.0,Training at home,,,,,,,,,,,,,
11,19,4444,B,82.61585308844586,53.12448182544637,4.130792654422293,0.834477409142934,B,556.305667036213,Correct,sub_011_day_19_data.csv,1,300,177.0,Training at home,,,,,,,,,,,,,
11,19,4445,B,47.79471750427969,36.775162731627034,2.3897358752139843,0.5776629053612432,B,577.0824170322157,Correct,sub_011_day_19_data.csv,1,300,177.0,Training at home,,,,,,,,,,,,,
11,19,4446,B,64.63723462743249,56.52521941243283,3.2318617313716245,0.8878960702432507,B,643.8634170335717,Correct,sub_011_day_19_data.csv,1,300,177.0,Training at home,,,,,,,,,,,,,
11,19,4447,B,60.644239267466126,35.68750477255026,3.0322119633733062,0.5605780140919728,B,607.2422500001267,Correct,sub_011_day_19_data.csv,1,300,177.0,Training at home,,,,,,,,,,,,,
11,19,4448,A,47.44280301797892,58.968296799833055,2.3721401508989457,0.9262718401052902,A,523.1888340204023,Correct,sub_011_day_19_data.csv,1,300,177.0,Training at home,,,,,,,,,,,,,
11,19,4449,A,37.59272586665061,56.18076789716338,1.8796362933325304,0.8824854384938089,A,465.7104999641888,Correct,sub_011_day_19_data.csv,1,300,177.0,Training at home,,,,,,,,,,,,,
11,19,4450,B,50.560932975758654,30.44038891477429,2.5280466487879325,0.4781565109353554,B,1512.7489999867976,Correct,sub_011_day_19_data.csv,1,300,178.0,Training at home,,,,,,,,,,,,,
11,19,4451,B,48.8431545844874,31.896654102904385,2.44215772922437,0.5010314710188957,B,757.5676249689423,Correct,sub_011_day_19_data.csv,1,300,178.0,Training at home,,,,,,,,,,,,,
11,19,4452,B,66.37121310644899,55.92962634850535,3.31856065532245,0.8785405162724326,B,1014.3298750044778,Correct,sub_011_day_19_data.csv,1,300,178.0,Training at home,,,,,,,,,,,,,
11,19,4453,B,69.30108172126461,40.618076089240255,3.4650540860632306,0.6380272472245421,B,415.01087497454137,Correct,sub_011_day_19_data.csv,1,300,178.0,Training at home,,,,,,,,,,,,,
11,19,4454,A,45.30961897201978,59.15745232547098,2.265480948600989,0.9292430881539404,A,744.9312920216471,Correct,sub_011_day_19_data.csv,1,300,178.0,Training at home,,,,,,,,,,,,,
11,19,4455,A,44.093559481924906,74.57239644156911,2.204677974096245,1.1713804641070955,A,661.8042499758303,Correct,sub_011_day_19_data.csv,1,300,178.0,Training at home,,,,,,,,,,,,,
11,19,4456,B,53.4927743352566,37.75817526948862,2.6746387167628303,0.5931040301979063,B,500.0322089763358,Correct,sub_011_day_19_data.csv,1,300,178.0,Training at home,,,,,,,,,,,,,
11,19,4457,A,57.132020470328385,70.82702779463105,2.856601023516419,1.112548350976065,A,471.5527920052409,Correct,sub_011_day_19_data.csv,1,300,178.0,Training at home,,,,,,,,,,,,,
11,19,4458,B,56.88360449377363,29.456916719163736,2.8441802246886816,0.4627081658116557,B,494.092459033709,Correct,sub_011_day_19_data.csv,1,300,178.0,Training at home,,,,,,,,,,,,,
11,19,4459,A,34.0470640049255,61.18696237154195,1.7023532002462751,0.9611225574095564,A,446.72341604018584,Correct,sub_011_day_19_data.csv,1,300,178.0,Training at home,,,,,,,,,,,,,
11,19,4460,B,57.91019014364849,44.60667395034035,2.8955095071824246,0.7006799959173222,B,673.0197920114733,Correct,sub_011_day_19_data.csv,1,300,178.0,Training at home,,,,,,,,,,,,,
11,19,4461,A,38.96140938519356,65.52350008874014,1.9480704692596784,1.0292407325813808,A,743.8667499809526,Correct,sub_011_day_19_data.csv,1,300,178.0,Training at home,,,,,,,,,,,,,
11,19,4462,B,65.9840884421488,51.30370697439436,3.29920442210744,0.8058767446634038,B,657.4920840212144,Correct,sub_011_day_19_data.csv,1,300,178.0,Training at home,,,,,,,,,,,,,
11,19,4463,B,80.98768007010642,67.83350091117812,4.049384003505321,1.0655261406491687,B,640.6947079813108,Correct,sub_011_day_19_data.csv,1,300,178.0,Training at home,,,,,,,,,,,,,
11,19,4464,B,75.17923221174601,43.51524934673778,3.758961610587301,0.6835359383341972,B,730.5512909661047,Correct,sub_011_day_19_data.csv,1,300,178.0,Training at home,,,,,,,,,,,,,
11,19,4465,A,17.513099474817086,32.5653016305724,0.8756549737408542,0.5115345618227097,A,594.5851249853149,Correct,sub_011_day_19_data.csv,1,300,178.0,Training at home,,,,,,,,,,,,,
11,19,4466,B,63.1924004499637,54.054461180603845,3.159620022498185,0.8490854906936983,B,619.7545839822851,Correct,sub_011_day_19_data.csv,1,300,178.0,Training at home,,,,,,,,,,,,,
11,19,4467,A,65.54256796486763,86.92475617202297,3.2771283982433816,1.3654108770255569,A,489.8167499923147,Correct,sub_011_day_19_data.csv,1,300,178.0,Training at home,,,,,,,,,,,,,
11,19,4468,B,80.03930554112429,62.12888725018749,4.001965277056215,0.975918278804488,B,969.40145798726,Correct,sub_011_day_19_data.csv,1,300,178.0,Training at home,,,,,,,,,,,,,
11,19,4469,B,45.82975858771729,29.59613924387493,2.2914879293858648,0.4648950681158902,B,417.5448340247385,Correct,sub_011_day_19_data.csv,1,300,178.0,Training at home,,,,,,,,,,,,,
11,19,4470,A,65.5640959736826,89.71222231231586,3.2782047986841296,1.4091962927679291,A,877.535917039495,Correct,sub_011_day_19_data.csv,1,300,178.0,Training at home,,,,,,,,,,,,,
11,19,4471,A,62.36325093707018,83.93205111521932,3.118162546853509,1.31840157592148,A,565.7045840052888,Correct,sub_011_day_19_data.csv,1,300,178.0,Training at home,,,,,,,,,,,,,
11,19,4472,B,59.21244578102537,28.94223665190389,2.960622289051269,0.4546235902203926,B,443.57704202411696,Correct,sub_011_day_19_data.csv,1,300,178.0,Training at home,,,,,,,,,,,,,
11,19,4473,B,67.43152499666685,41.748369487516015,3.3715762498333426,0.6557818544066629,B,470.92091699596494,Correct,sub_011_day_19_data.csv,1,300,178.0,Training at home,,,,,,,,,,,,,
11,19,4474,B,31.869048042009453,11.971001226462564,1.5934524021004728,0.1880400475458459,B,635.1586250239052,Correct,sub_011_day_19_data.csv,1,300,178.0,Training at home,,,,,,,,,,,,,
11,19,4475,A,37.86077463207048,65.24087413683635,1.893038731603524,1.0248012545103071,A,557.013958983589,Correct,sub_011_day_19_data.csv,1,300,179.0,Training at home,,,,,,,,,,,,,
11,19,4476,A,50.48259463776607,60.072150553476064,2.524129731888303,0.9436111343207022,A,1101.8897499889135,Correct,sub_011_day_19_data.csv,1,300,179.0,Training at home,,,,,,,,,,,,,
11,19,4477,A,36.75856463174005,64.39089383820301,1.8379282315870027,1.0114497952008945,A,577.0760829909705,Correct,sub_011_day_19_data.csv,1,300,179.0,Training at home,,,,,,,,,,,,,
11,19,4478,A,55.59912415049607,80.21874186755494,2.779956207524803,1.2600730506566329,A,1009.35433403356,Correct,sub_011_day_19_data.csv,1,300,179.0,Training at home,,,,,,,,,,,,,
11,19,4479,B,76.08749569916324,51.88688289440931,3.804374784958162,0.815037250593751,B,648.2278750045225,Correct,sub_011_day_19_data.csv,1,300,179.0,Training at home,,,,,,,,,,,,,
11,19,4480,A,29.848510147345912,54.74799584959157,1.4924255073672956,0.8599795077992068,A,633.3113749860786,Correct,sub_011_day_19_data.csv,1,300,179.0,Training at home,,,,,,,,,,,,,
11,19,4481,A,37.531893343677545,65.84016144703773,1.8765946671838776,1.0342148375658982,A,507.7242910047062,Correct,sub_011_day_19_data.csv,1,300,179.0,Training at home,,,,,,,,,,,,,
11,19,4482,B,54.58619395212103,26.77352304764512,2.7293096976060514,0.4205575165859946,B,427.061041991692,Correct,sub_011_day_19_data.csv,1,300,179.0,Training at home,,,,,,,,,,,,,
11,19,4483,A,46.364247241826305,58.49630111335448,2.3182123620913155,0.9188577491994544,A,878.3479160047136,Correct,sub_011_day_19_data.csv,1,300,179.0,Training at home,,,,,,,,,,,,,
11,19,4484,B,64.5765619517173,51.07439619077224,3.2288280975858648,0.802274739297323,B,635.5529159773141,Correct,sub_011_day_19_data.csv,1,300,179.0,Training at home,,,,,,,,,,,,,
11,19,4485,B,48.23355081725084,26.869695482813825,2.411677540862542,0.4220681896650137,B,482.823958969675,Correct,sub_011_day_19_data.csv,1,300,179.0,Training at home,,,,,,,,,,,,,
11,19,4486,A,59.29663773700724,72.52660682124373,2.964831886850362,1.1392452758970737,A,593.1710000149906,Correct,sub_011_day_19_data.csv,1,300,179.0,Training at home,,,,,,,,,,,,,
11,19,4487,A,28.14699785782428,40.23831626003453,1.4073498928912145,0.632061993776736,A,684.5977499615401,Correct,sub_011_day_19_data.csv,1,300,179.0,Training at home,,,,,,,,,,,,,
11,19,4488,A,31.787728203362725,65.07803600041981,1.589386410168136,1.022243399044855,A,485.5085420422256,Correct,sub_011_day_19_data.csv,1,300,179.0,Training at home,,,,,,,,,,,,,
11,19,4489,B,55.517215157993725,31.81766289987779,2.7758607578996863,0.4997906801032629,B,680.8015000424348,Correct,sub_011_day_19_data.csv,1,300,179.0,Training at home,,,,,,,,,,,,,
11,19,4490,B,58.26969034957471,47.9501097671134,2.9134845174787354,0.7531985629159382,B,944.4748340174556,Correct,sub_011_day_19_data.csv,1,300,179.0,Training at home,,,,,,,,,,,,,
11,19,4491,A,42.18049681178248,66.18940128675244,2.109024840589123,1.0397006841398413,A,885.3936250088736,Correct,sub_011_day_19_data.csv,1,300,179.0,Training at home,,,,,,,,,,,,,
11,19,4492,B,45.40006279448028,25.191368586180765,2.2700031397240137,0.395705092421091,B,540.9331659902819,Correct,sub_011_day_19_data.csv,1,300,179.0,Training at home,,,,,,,,,,,,,
11,19,4493,A,15.445295696431234,32.57774807013358,0.7722647848215617,0.5117300700381536,A,677.4872920359485,Correct,sub_011_day_19_data.csv,1,300,179.0,Training at home,,,,,,,,,,,,,
11,19,4494,B,71.01350772591354,39.73470624639913,3.5506753862956772,0.6241513061811798,B,721.5997079620138,Correct,sub_011_day_19_data.csv,1,300,179.0,Training at home,,,,,,,,,,,,,
11,19,4495,A,27.90038194189383,54.001263726403465,1.3950190970946914,0.8482498670371703,A,678.3614580053836,Correct,sub_011_day_19_data.csv,1,300,179.0,Training at home,,,,,,,,,,,,,
11,19,4496,A,16.010465496531076,39.60802799533528,0.8005232748265538,0.6221614488666207,A,452.046624966897,Correct,sub_011_day_19_data.csv,1,300,179.0,Training at home,,,,,,,,,,,,,
11,19,4497,A,52.97504713534035,64.38021354043732,2.6487523567670173,1.0112820294759002,A,673.2714580139145,Correct,sub_011_day_19_data.csv,1,300,179.0,Training at home,,,,,,,,,,,,,
11,19,4498,A,22.12274115085718,39.81144730774918,1.106137057542859,0.6253567519540099,A,510.8638749807142,Correct,sub_011_day_19_data.csv,1,300,179.0,Training at home,,,,,,,,,,,,,
11,19,4499,B,89.36250438252641,67.10758768453726,4.46812521912632,1.054123522349376,B,992.5895829801448,Correct,sub_011_day_19_data.csv,1,300,179.0,Training at home,,,,,,,,,,,,,
