subject,day,trial,cat,x,y,xt,yt,resp,rt,fb,f_name,acc,n_trials,block,session_type,ns_left_digit,ns_right_digit,ns_left_size,ns_right_size,ns_congruent,ns_cue,ns_correct_side,ns_resp,ns_rt,ns_fb,acc_stroop,acc_stroop_mean,resp_key
11,2,0,B,44.227635882007505,33.02168864803738,2.2113817941003755,0.5187034723290186,B,589.5397079875693,Correct,sub_011_day_02_data.csv,1,300,0.0,Training at home,,,,,,,,,,,,,
11,2,1,B,59.77728364938409,29.664811595753473,2.9888641824692046,0.4659737708967221,B,529.8831250111107,Correct,sub_011_day_02_data.csv,1,300,0.0,Training at home,,,,,,,,,,,,,
11,2,2,A,21.324612499080885,37.778756040558264,1.0662306249540443,0.5934273121938943,A,552.0836249925196,Correct,sub_011_day_02_data.csv,1,300,0.0,Training at home,,,,,,,,,,,,,
11,2,3,B,79.81484886251224,65.35547410849732,3.990742443125612,1.0266013866556656,A,862.0367499825079,Incorrect,sub_011_day_02_data.csv,0,300,0.0,Training at home,,,,,,,,,,,,,
11,2,4,B,68.99705857613648,45.424946496942894,3.4498529288068243,0.7135333910225259,B,924.1647500020918,Correct,sub_011_day_02_data.csv,1,300,0.0,Training at home,,,,,,,,,,,,,
11,2,5,A,67.39040799593215,88.23344687451265,3.369520399796607,1.3859677425093713,A,896.6802910144906,Correct,sub_011_day_02_data.csv,1,300,0.0,Training at home,,,,,,,,,,,,,
11,2,6,B,78.31374037422894,59.14820972885899,3.9156870187114463,0.9290979057858588,B,768.6004579882137,Correct,sub_011_day_02_data.csv,1,300,0.0,Training at home,,,,,,,,,,,,,
11,2,7,A,28.265731021078224,59.22246365058126,1.4132865510539114,0.9302642836607732,A,1759.493833000306,Correct,sub_011_day_02_data.csv,1,300,0.0,Training at home,,,,,,,,,,,,,
11,2,8,A,55.17630172199751,81.83638420573152,2.758815086099876,1.28548291708539,A,618.8872499915306,Correct,sub_011_day_02_data.csv,1,300,0.0,Training at home,,,,,,,,,,,,,
11,2,9,B,83.65777832332897,55.135261014228504,4.182888916166449,0.8660626547802799,B,686.6525420045946,Correct,sub_011_day_02_data.csv,1,300,0.0,Training at home,,,,,,,,,,,,,
11,2,10,A,26.67495014722286,41.19490704134466,1.333747507361143,0.6470880866320142,A,591.9892080128193,Correct,sub_011_day_02_data.csv,1,300,0.0,Training at home,,,,,,,,,,,,,
11,2,11,A,43.5173270745064,64.99236202899435,2.17586635372532,1.0208976354486845,A,740.6545410049148,Correct,sub_011_day_02_data.csv,1,300,0.0,Training at home,,,,,,,,,,,,,
11,2,12,A,51.63736046165788,72.54843999913709,2.581868023082894,1.1395882306534448,A,633.399999991525,Correct,sub_011_day_02_data.csv,1,300,0.0,Training at home,,,,,,,,,,,,,
11,2,13,A,33.7587775350689,53.54984964938482,1.6879388767534451,0.8411590712967265,A,751.976375002414,Correct,sub_011_day_02_data.csv,1,300,0.0,Training at home,,,,,,,,,,,,,
11,2,14,B,59.3692135745313,52.367489396160025,2.9684606787265646,0.8225865998695887,B,1828.663541993592,Correct,sub_011_day_02_data.csv,1,300,0.0,Training at home,,,,,,,,,,,,,
11,2,15,A,34.27212210121006,64.58375316981963,1.7136061050605031,1.0144792224978094,A,1307.631458999822,Correct,sub_011_day_02_data.csv,1,300,0.0,Training at home,,,,,,,,,,,,,
11,2,16,B,72.35514507779757,54.62217964621118,3.617757253889879,0.858003191497995,B,829.1292500216514,Correct,sub_011_day_02_data.csv,1,300,0.0,Training at home,,,,,,,,,,,,,
11,2,17,A,39.74386835477283,69.37600614626677,1.9871934177386412,1.0897557562225602,A,786.9840420025866,Correct,sub_011_day_02_data.csv,1,300,0.0,Training at home,,,,,,,,,,,,,
11,2,18,B,80.78583195948592,59.266752493308175,4.039291597974295,0.9309599711755076,B,832.487375009805,Correct,sub_011_day_02_data.csv,1,300,0.0,Training at home,,,,,,,,,,,,,
11,2,19,B,42.12314257003517,14.604867628326794,2.106157128501758,0.2294127242390142,B,673.7059580045752,Correct,sub_011_day_02_data.csv,1,300,0.0,Training at home,,,,,,,,,,,,,
11,2,20,B,86.37743316802424,69.92068728061567,4.318871658401212,1.098311587473657,B,510.0897919910494,Correct,sub_011_day_02_data.csv,1,300,0.0,Training at home,,,,,,,,,,,,,
11,2,21,B,33.84262123943857,10.8089427429709,1.6921310619719288,0.1697864755719504,B,775.7004589948338,Correct,sub_011_day_02_data.csv,1,300,0.0,Training at home,,,,,,,,,,,,,
11,2,22,A,36.57285358647673,67.79841356634839,1.8286426793238368,1.0649749899254133,A,1628.1937080202624,Correct,sub_011_day_02_data.csv,1,300,0.0,Training at home,,,,,,,,,,,,,
11,2,23,A,31.40193096986572,43.593453620195135,1.570096548493286,0.684764368189062,A,935.6182090123184,Correct,sub_011_day_02_data.csv,1,300,0.0,Training at home,,,,,,,,,,,,,
11,2,24,B,47.18815683076505,18.12869713913244,2.3594078415382524,0.2847649087572638,B,526.4555829926394,Correct,sub_011_day_02_data.csv,1,300,0.0,Training at home,,,,,,,,,,,,,
11,2,25,B,71.8462849046268,46.73448862833243,3.59231424523134,0.7341036307202244,B,608.2111250143498,Correct,sub_011_day_02_data.csv,1,300,1.0,Training at home,,,,,,,,,,,,,
11,2,26,A,40.88349363082229,65.66619932688164,2.044174681541114,1.0314822469724718,A,887.8261669888161,Correct,sub_011_day_02_data.csv,1,300,1.0,Training at home,,,,,,,,,,,,,
11,2,27,B,52.591579443069435,35.035026051216896,2.629578972153472,0.5503289023041501,B,490.0868750119116,Correct,sub_011_day_02_data.csv,1,300,1.0,Training at home,,,,,,,,,,,,,
11,2,28,A,43.848064478959806,60.83529349466897,2.19240322394799,0.9555985556091549,A,538.6791249911766,Correct,sub_011_day_02_data.csv,1,300,1.0,Training at home,,,,,,,,,,,,,
11,2,29,B,57.75902978529216,37.273125202964586,2.887951489264608,0.5854848815698306,B,627.3894170008134,Correct,sub_011_day_02_data.csv,1,300,1.0,Training at home,,,,,,,,,,,,,
11,2,30,A,30.20981986435728,49.47484510765852,1.510490993217864,0.7771490496385647,A,891.6563749953639,Correct,sub_011_day_02_data.csv,1,300,1.0,Training at home,,,,,,,,,,,,,
11,2,31,A,38.40991064037141,69.00898006092106,1.9204955320185704,1.0839905239555707,A,646.2220000103116,Correct,sub_011_day_02_data.csv,1,300,1.0,Training at home,,,,,,,,,,,,,
11,2,32,A,31.466825960962176,52.06193069508296,1.573341298048109,0.8177868950168677,A,591.6282920225058,Correct,sub_011_day_02_data.csv,1,300,1.0,Training at home,,,,,,,,,,,,,
11,2,33,B,53.59242598549674,27.510183353261812,2.679621299274837,0.4321289496075776,B,537.8626250021625,Correct,sub_011_day_02_data.csv,1,300,1.0,Training at home,,,,,,,,,,,,,
11,2,34,B,50.08724160267652,43.283083838381536,2.504362080133826,0.6798890910568526,B,489.00445899926126,Correct,sub_011_day_02_data.csv,1,300,1.0,Training at home,,,,,,,,,,,,,
11,2,35,B,59.65165569012739,33.45851119767612,2.9825827845063695,0.5255650648933555,B,523.8348330021836,Correct,sub_011_day_02_data.csv,1,300,1.0,Training at home,,,,,,,,,,,,,
11,2,36,A,47.591167171332344,62.14984295252903,2.3795583585666176,0.9762474502071228,A,696.9492080097552,Correct,sub_011_day_02_data.csv,1,300,1.0,Training at home,,,,,,,,,,,,,
11,2,37,B,48.929719364538535,25.72664375929771,2.4464859682269267,0.4041131751786568,B,496.2318329780828,Correct,sub_011_day_02_data.csv,1,300,1.0,Training at home,,,,,,,,,,,,,
11,2,38,A,50.698864888282145,71.0317625657614,2.5349432444141073,1.1157643172406524,A,539.0087909763679,Correct,sub_011_day_02_data.csv,1,300,1.0,Training at home,,,,,,,,,,,,,
11,2,39,A,62.65566372227373,80.80918915057714,3.1327831861136866,1.269347774890006,A,504.7848329995759,Correct,sub_011_day_02_data.csv,1,300,1.0,Training at home,,,,,,,,,,,,,
11,2,40,B,66.22563837901583,54.808156881062686,3.3112819189507916,0.860924515071717,B,944.913000013912,Correct,sub_011_day_02_data.csv,1,300,1.0,Training at home,,,,,,,,,,,,,
11,2,41,B,48.68134514767654,20.14448537917236,2.434067257383827,0.3164288363877744,B,560.4700419935398,Correct,sub_011_day_02_data.csv,1,300,1.0,Training at home,,,,,,,,,,,,,
11,2,42,B,44.06772165352884,23.041231385203695,2.203386082676442,0.3619308162470925,B,577.565167011926,Correct,sub_011_day_02_data.csv,1,300,1.0,Training at home,,,,,,,,,,,,,
11,2,43,B,70.29390940129497,48.39381696275779,3.5146954700647486,0.7601682992468449,B,1024.7738329926506,Correct,sub_011_day_02_data.csv,1,300,1.0,Training at home,,,,,,,,,,,,,
11,2,44,A,34.35007516246641,64.43248222999921,1.7175037581233203,1.012103064131602,A,639.3154579855036,Correct,sub_011_day_02_data.csv,1,300,1.0,Training at home,,,,,,,,,,,,,
11,2,45,A,32.24497901723919,58.33407794606704,1.6122489508619595,0.9163095536464928,A,972.3065419821068,Correct,sub_011_day_02_data.csv,1,300,1.0,Training at home,,,,,,,,,,,,,
11,2,46,A,20.13297668611307,35.55696067641053,1.0066488343056534,0.5585274322249625,A,662.86987499916,Correct,sub_011_day_02_data.csv,1,300,1.0,Training at home,,,,,,,,,,,,,
11,2,47,B,51.97655211454552,41.86045267596795,2.598827605727276,0.6575424530138204,B,2644.979250006145,Correct,sub_011_day_02_data.csv,1,300,1.0,Training at home,,,,,,,,,,,,,
11,2,48,B,33.15568309156855,21.053570045223587,1.6577841545784275,0.3307087049295626,B,1011.4546249969862,Correct,sub_011_day_02_data.csv,1,300,1.0,Training at home,,,,,,,,,,,,,
11,2,49,A,59.64312104728228,70.7594098049876,2.982156052364114,1.111486210078493,A,2806.21079201228,Correct,sub_011_day_02_data.csv,1,300,1.0,Training at home,,,,,,,,,,,,,
11,2,50,A,56.42810292430655,68.06557627656413,2.821405146215328,1.0691715719640478,A,2101.743457984412,Correct,sub_011_day_02_data.csv,1,300,2.0,Training at home,,,,,,,,,,,,,
11,2,51,A,58.74587773123289,85.03546051948001,2.937293886561644,1.3357338903131164,A,1161.089000001084,Correct,sub_011_day_02_data.csv,1,300,2.0,Training at home,,,,,,,,,,,,,
11,2,52,A,37.26270504823498,59.73886731603094,1.8631352524117488,0.9383759334690912,A,1554.197916004341,Correct,sub_011_day_02_data.csv,1,300,2.0,Training at home,,,,,,,,,,,,,
11,2,53,A,56.62932729680439,73.41727794005932,2.831466364840219,1.1532359051152516,A,998.9408749970607,Correct,sub_011_day_02_data.csv,1,300,2.0,Training at home,,,,,,,,,,,,,
11,2,54,A,49.04355993552024,68.16057156979289,2.452177996776012,1.0706637545407134,A,779.660583997611,Correct,sub_011_day_02_data.csv,1,300,2.0,Training at home,,,,,,,,,,,,,
11,2,55,B,58.95982959771691,47.64240492024037,2.9479914798858453,0.7483651464838866,B,1018.0520419962704,Correct,sub_011_day_02_data.csv,1,300,2.0,Training at home,,,,,,,,,,,,,
11,2,56,A,53.63596488451156,80.25600753181325,2.6817982442255777,1.2606584183419582,A,1097.147667023819,Correct,sub_011_day_02_data.csv,1,300,2.0,Training at home,,,,,,,,,,,,,
11,2,57,B,49.15308599692025,32.09984863395621,2.457654299846012,0.504223243248906,B,889.4557080056984,Correct,sub_011_day_02_data.csv,1,300,2.0,Training at home,,,,,,,,,,,,,
11,2,58,B,56.378744474451416,33.500555031691164,2.8189372237225707,0.5262254878937077,B,608.9917089848313,Correct,sub_011_day_02_data.csv,1,300,2.0,Training at home,,,,,,,,,,,,,
11,2,59,A,25.247632851207577,54.26040051651148,1.2623816425603789,0.8523203782175613,A,1309.2982920061331,Correct,sub_011_day_02_data.csv,1,300,2.0,Training at home,,,,,,,,,,,,,
11,2,60,B,74.36684139781647,45.72562595653645,3.718342069890824,0.7182564529292483,B,1300.8909579948522,Correct,sub_011_day_02_data.csv,1,300,2.0,Training at home,,,,,,,,,,,,,
11,2,61,A,13.172817271790592,34.09123819030716,0.6586408635895296,0.5355039172522439,A,617.6835410005879,Correct,sub_011_day_02_data.csv,1,300,2.0,Training at home,,,,,,,,,,,,,
11,2,62,B,46.62279512560379,34.645228749051604,2.331139756280189,0.5442059805997921,B,679.2905410111416,Correct,sub_011_day_02_data.csv,1,300,2.0,Training at home,,,,,,,,,,,,,
11,2,63,A,51.570534134495645,67.05140614522386,2.578526706724782,1.053241024793504,A,791.5972089977004,Correct,sub_011_day_02_data.csv,1,300,2.0,Training at home,,,,,,,,,,,,,
11,2,64,A,34.34573896637594,47.74316713171328,1.717286948318797,0.7499479156005006,B,997.0522919902578,Incorrect,sub_011_day_02_data.csv,0,300,2.0,Training at home,,,,,,,,,,,,,
11,2,65,B,72.5691404809327,48.37727571951206,3.628457024046635,0.7599084700055347,B,590.773582982365,Correct,sub_011_day_02_data.csv,1,300,2.0,Training at home,,,,,,,,,,,,,
11,2,66,A,60.90294922703682,80.36281502742844,3.0451474613518412,1.2623361465598228,A,739.1644580056891,Correct,sub_011_day_02_data.csv,1,300,2.0,Training at home,,,,,,,,,,,,,
11,2,67,B,61.11936992477618,32.20183897067663,3.0559684962388087,0.505825303711796,B,880.1050829933956,Correct,sub_011_day_02_data.csv,1,300,2.0,Training at home,,,,,,,,,,,,,
11,2,68,B,81.22291581951066,67.63445169769382,4.061145790975533,1.062399482915243,B,857.2129170061089,Correct,sub_011_day_02_data.csv,1,300,2.0,Training at home,,,,,,,,,,,,,
11,2,69,B,74.63374735967746,42.49727287705727,3.7316873679838727,0.6675456013408195,B,586.2222920113709,Correct,sub_011_day_02_data.csv,1,300,2.0,Training at home,,,,,,,,,,,,,
11,2,70,B,69.3836296345559,37.05327039731275,3.4691814817277953,0.5820314103583695,B,576.2162090104539,Correct,sub_011_day_02_data.csv,1,300,2.0,Training at home,,,,,,,,,,,,,
11,2,71,B,58.43839130518611,30.617257987846976,2.9219195652593055,0.4809347638384173,B,525.0229579978622,Correct,sub_011_day_02_data.csv,1,300,2.0,Training at home,,,,,,,,,,,,,
11,2,72,A,54.315698155635,77.28664427561583,2.7157849077817495,1.2140157693844116,A,1321.2677920237184,Correct,sub_011_day_02_data.csv,1,300,2.0,Training at home,,,,,,,,,,,,,
11,2,73,A,43.810768758069806,70.10661804730812,2.19053843790349,1.101232181127244,A,629.9457089917269,Correct,sub_011_day_02_data.csv,1,300,2.0,Training at home,,,,,,,,,,,,,
11,2,74,A,44.167778449755474,59.83309729715642,2.2083889224877735,0.9398560945513496,A,2360.7513750030193,Correct,sub_011_day_02_data.csv,1,300,2.0,Training at home,,,,,,,,,,,,,
11,2,75,B,64.16922531817394,48.6033931177046,3.2084612659086975,0.7634603137905873,B,1175.338750006631,Correct,sub_011_day_02_data.csv,1,300,3.0,Training at home,,,,,,,,,,,,,
11,2,76,A,50.47654983453724,75.83390344270317,2.523827491726862,1.19119616974317,A,1217.5430839997716,Correct,sub_011_day_02_data.csv,1,300,3.0,Training at home,,,,,,,,,,,,,
11,2,77,A,54.5842807643466,81.9212650721188,2.72921403821733,1.2868162226167528,A,738.0691249854863,Correct,sub_011_day_02_data.csv,1,300,3.0,Training at home,,,,,,,,,,,,,
11,2,78,B,77.44239221925783,53.60022637200131,3.872119610962891,0.841950387005146,B,872.4757909949403,Correct,sub_011_day_02_data.csv,1,300,3.0,Training at home,,,,,,,,,,,,,
11,2,79,A,32.482631682501356,65.47133239080384,1.624131584125068,1.028421284298424,A,1326.4223340083845,Correct,sub_011_day_02_data.csv,1,300,3.0,Training at home,,,,,,,,,,,,,
11,2,80,B,66.90588311825238,53.75226954711325,3.3452941559126192,0.8443386756149467,B,1098.075499990955,Correct,sub_011_day_02_data.csv,1,300,3.0,Training at home,,,,,,,,,,,,,
11,2,81,A,40.845916789417835,69.4230759521412,2.0422958394708917,1.090495127004265,A,909.964000020409,Correct,sub_011_day_02_data.csv,1,300,3.0,Training at home,,,,,,,,,,,,,
11,2,82,B,80.03604939750176,63.45490730683533,4.001802469875088,0.9967473531468756,B,740.0297499843873,Correct,sub_011_day_02_data.csv,1,300,3.0,Training at home,,,,,,,,,,,,,
11,2,83,B,48.36888209480628,31.64182822050871,2.4184441047403142,0.4970286754185018,B,771.791959006805,Correct,sub_011_day_02_data.csv,1,300,3.0,Training at home,,,,,,,,,,,,,
11,2,84,A,41.74629161990988,57.18146755378723,2.087314580995494,0.8982043919423055,A,3274.7288339887746,Correct,sub_011_day_02_data.csv,1,300,3.0,Training at home,,,,,,,,,,,,,
11,2,85,B,61.8177308365074,37.536963097173384,3.09088654182537,0.5896292375207552,B,935.3998340084216,Correct,sub_011_day_02_data.csv,1,300,3.0,Training at home,,,,,,,,,,,,,
11,2,86,B,82.06634752172293,51.816517101391455,4.103317376086147,0.8139319473017063,B,785.6909160036594,Correct,sub_011_day_02_data.csv,1,300,3.0,Training at home,,,,,,,,,,,,,
11,2,87,B,52.055895599329,43.511580673755425,2.60279477996645,0.6834783109537483,B,744.9765000201296,Correct,sub_011_day_02_data.csv,1,300,3.0,Training at home,,,,,,,,,,,,,
11,2,88,B,78.37353426075623,60.66131318555689,3.918676713037811,0.9528656793042758,B,789.8532499966677,Correct,sub_011_day_02_data.csv,1,300,3.0,Training at home,,,,,,,,,,,,,
11,2,89,A,31.376221623360458,53.09394789140394,1.568811081168023,0.8339977832285694,A,691.0680829896592,Correct,sub_011_day_02_data.csv,1,300,3.0,Training at home,,,,,,,,,,,,,
11,2,90,B,84.20118452316498,55.35521035073228,4.21005922615825,0.8695176108788911,B,1042.892000026768,Correct,sub_011_day_02_data.csv,1,300,3.0,Training at home,,,,,,,,,,,,,
11,2,91,B,84.97668428832779,64.05435335842253,4.248834214416389,1.0061634297063244,B,968.569958000444,Correct,sub_011_day_02_data.csv,1,300,3.0,Training at home,,,,,,,,,,,,,
11,2,92,A,11.193541096667666,30.66469049095907,0.5596770548333833,0.481679831855009,A,657.8172910085414,Correct,sub_011_day_02_data.csv,1,300,3.0,Training at home,,,,,,,,,,,,,
11,2,93,A,56.41574166884072,69.65472813211429,2.820787083442036,1.0941339109382229,B,819.8361670074519,Incorrect,sub_011_day_02_data.csv,0,300,3.0,Training at home,,,,,,,,,,,,,
11,2,94,B,54.08132212027138,44.29984869536837,2.7040661060135687,0.6958603960825432,B,565.253707987722,Correct,sub_011_day_02_data.csv,1,300,3.0,Training at home,,,,,,,,,,,,,
11,2,95,B,31.274459178324676,12.886527179991903,1.5637229589162336,0.2024210955947388,B,555.1516249834094,Correct,sub_011_day_02_data.csv,1,300,3.0,Training at home,,,,,,,,,,,,,
11,2,96,A,45.03325418355755,57.89807747128402,2.251662709177878,0.909460874203793,B,1508.5265829984564,Incorrect,sub_011_day_02_data.csv,0,300,3.0,Training at home,,,,,,,,,,,,,
11,2,97,B,58.28555125677879,25.542631684991356,2.9142775628389392,0.4012227202745936,B,815.9846249909606,Correct,sub_011_day_02_data.csv,1,300,3.0,Training at home,,,,,,,,,,,,,
11,2,98,B,67.12617090380819,53.03008746733293,3.3563085451904096,0.8329946660329863,B,449.5072079880629,Correct,sub_011_day_02_data.csv,1,300,3.0,Training at home,,,,,,,,,,,,,
11,2,99,A,19.52419233998523,49.153598965980535,0.9762096169992616,0.7721029270451165,A,527.8711249993648,Correct,sub_011_day_02_data.csv,1,300,3.0,Training at home,,,,,,,,,,,,,
11,2,100,A,19.325654410147,43.800388065674646,0.96628272050735,0.6880148868575275,A,1097.0562500006054,Correct,sub_011_day_02_data.csv,1,300,4.0,Training at home,,,,,,,,,,,,,
11,2,101,A,33.943363563689815,50.11414870176112,1.6971681781844907,0.7871912070117959,A,1422.7124169992749,Correct,sub_011_day_02_data.csv,1,300,4.0,Training at home,,,,,,,,,,,,,
11,2,102,A,29.323468153440476,50.36297702910116,1.466173407672024,0.7910997932376784,A,1837.5052920018788,Correct,sub_011_day_02_data.csv,1,300,4.0,Training at home,,,,,,,,,,,,,
11,2,103,B,33.3694101052065,10.474031094797477,1.6684705052603248,0.164525695704434,B,761.3848329929169,Correct,sub_011_day_02_data.csv,1,300,4.0,Training at home,,,,,,,,,,,,,
11,2,104,B,87.85254345166426,61.13850287303916,4.392627172583213,0.9603613573870912,B,1274.643416982144,Correct,sub_011_day_02_data.csv,1,300,4.0,Training at home,,,,,,,,,,,,,
11,2,105,B,61.62541842616864,29.731126830789755,3.081270921308432,0.4670154481727774,B,608.258249994833,Correct,sub_011_day_02_data.csv,1,300,4.0,Training at home,,,,,,,,,,,,,
11,2,106,B,42.65228424981646,23.93703167866974,2.132614212490823,0.376002014352275,B,495.0877499941271,Correct,sub_011_day_02_data.csv,1,300,4.0,Training at home,,,,,,,,,,,,,
11,2,107,A,32.27568274554707,50.58683987995008,1.6137841372773536,0.7946162226758716,A,1230.9407919819932,Correct,sub_011_day_02_data.csv,1,300,4.0,Training at home,,,,,,,,,,,,,
11,2,108,A,28.972131327815333,53.93531314942658,1.4486065663907666,0.8472139177965176,A,986.818791978294,Correct,sub_011_day_02_data.csv,1,300,4.0,Training at home,,,,,,,,,,,,,
11,2,109,A,34.71106374520943,68.0553362582923,1.7355531872604717,1.0690107221331708,A,1127.001000015298,Correct,sub_011_day_02_data.csv,1,300,4.0,Training at home,,,,,,,,,,,,,
11,2,110,A,29.698476856813222,41.58731837999947,1.4849238428406613,0.6532520695255305,B,1169.3805000104476,Incorrect,sub_011_day_02_data.csv,0,300,4.0,Training at home,,,,,,,,,,,,,
11,2,111,B,59.379160705656346,39.12006211287818,2.968958035282817,0.6144964987089725,B,555.416959017748,Correct,sub_011_day_02_data.csv,1,300,4.0,Training at home,,,,,,,,,,,,,
11,2,112,B,82.23111084837647,62.10639411698306,4.111555542418824,0.9755649574943316,B,822.1271250222344,Correct,sub_011_day_02_data.csv,1,300,4.0,Training at home,,,,,,,,,,,,,
11,2,113,B,52.258932715472355,36.40586511227741,2.612946635773618,0.5718619919215583,B,852.8697500005364,Correct,sub_011_day_02_data.csv,1,300,4.0,Training at home,,,,,,,,,,,,,
11,2,114,B,84.43876119283428,54.57520592117025,4.2219380596417135,0.8572653299504932,B,545.8174170053098,Correct,sub_011_day_02_data.csv,1,300,4.0,Training at home,,,,,,,,,,,,,
11,2,115,B,47.18960818101022,29.61708230576378,2.359480409050511,0.4652240409627587,B,1080.7961660029832,Correct,sub_011_day_02_data.csv,1,300,4.0,Training at home,,,,,,,,,,,,,
11,2,116,B,76.58185285631552,65.4110663869303,3.829092642815776,1.0274746281232725,B,1633.7420000054408,Correct,sub_011_day_02_data.csv,1,300,4.0,Training at home,,,,,,,,,,,,,
11,2,117,A,64.25121931747037,85.49434852858666,3.212560965873519,1.3429420863042658,A,739.9092089908663,Correct,sub_011_day_02_data.csv,1,300,4.0,Training at home,,,,,,,,,,,,,
11,2,118,B,64.48773812867408,38.65672098090252,3.224386906433704,0.607218353227369,B,1010.6051670154555,Correct,sub_011_day_02_data.csv,1,300,4.0,Training at home,,,,,,,,,,,,,
11,2,119,A,25.349754746736508,48.53472586503428,1.2674877373368254,0.7623816911079312,A,2307.717499992578,Correct,sub_011_day_02_data.csv,1,300,4.0,Training at home,,,,,,,,,,,,,
11,2,120,B,44.27824081583891,21.794406553976778,2.2139120407919455,0.3423457375966133,B,1032.4120830046013,Correct,sub_011_day_02_data.csv,1,300,4.0,Training at home,,,,,,,,,,,,,
11,2,121,B,54.44258255750414,38.27451537631938,2.7221291278752067,0.6012146816297727,B,855.5071659793612,Correct,sub_011_day_02_data.csv,1,300,4.0,Training at home,,,,,,,,,,,,,
11,2,122,B,62.01924495705184,34.55559871692175,3.100962247852592,0.5427980753473912,B,1525.263209012337,Correct,sub_011_day_02_data.csv,1,300,4.0,Training at home,,,,,,,,,,,,,
11,2,123,B,38.790141973209366,29.517644830036783,1.939507098660468,0.4636620807465814,B,586.0060839913785,Correct,sub_011_day_02_data.csv,1,300,4.0,Training at home,,,,,,,,,,,,,
11,2,124,B,71.52364674981565,60.274299389077385,3.576182337490783,0.9467864808049864,B,2074.1502919991035,Correct,sub_011_day_02_data.csv,1,300,4.0,Training at home,,,,,,,,,,,,,
11,2,125,A,40.64454677962504,60.41332499947887,2.032227338981252,0.948970289986477,A,1295.9478330158165,Correct,sub_011_day_02_data.csv,1,300,5.0,Training at home,,,,,,,,,,,,,
11,2,126,B,39.73583922597771,19.24948793214756,1.9867919612988856,0.3023702493650007,B,774.5630829886068,Correct,sub_011_day_02_data.csv,1,300,5.0,Training at home,,,,,,,,,,,,,
11,2,127,A,43.69686130731513,62.62374086701565,2.1848430653657567,0.9836914212406364,A,1347.2251670027615,Correct,sub_011_day_02_data.csv,1,300,5.0,Training at home,,,,,,,,,,,,,
11,2,128,A,54.49254883731345,82.54626877535229,2.7246274418656724,1.2966337578294764,A,747.1452910103835,Correct,sub_011_day_02_data.csv,1,300,5.0,Training at home,,,,,,,,,,,,,
11,2,129,A,14.024506140445478,36.34606401498059,0.7012253070222739,0.5709226384818368,A,525.4830420017242,Correct,sub_011_day_02_data.csv,1,300,5.0,Training at home,,,,,,,,,,,,,
11,2,130,B,82.58977568188624,55.64504580119713,4.1294887840943115,0.8740703354885424,B,972.7492079837248,Correct,sub_011_day_02_data.csv,1,300,5.0,Training at home,,,,,,,,,,,,,
11,2,131,B,81.76329485162967,59.68207631626339,4.088164742581483,0.9374838625307924,B,1102.1531249862164,Correct,sub_011_day_02_data.csv,1,300,5.0,Training at home,,,,,,,,,,,,,
11,2,132,B,87.26563215972905,66.73530509646984,4.363281607986453,1.0482757211307157,B,1074.164124991512,Correct,sub_011_day_02_data.csv,1,300,5.0,Training at home,,,,,,,,,,,,,
11,2,133,B,60.012362502803086,38.7702790560609,3.000618125140154,0.6090021193007357,B,737.9966660228092,Correct,sub_011_day_02_data.csv,1,300,5.0,Training at home,,,,,,,,,,,,,
11,2,134,B,35.276504136728235,20.0795462293727,1.763825206836412,0.3154087746080695,B,2892.201707989443,Correct,sub_011_day_02_data.csv,1,300,5.0,Training at home,,,,,,,,,,,,,
11,2,135,A,45.61553651510342,63.291703882573195,2.2807768257551713,0.9941837597533628,B,1137.819750001654,Incorrect,sub_011_day_02_data.csv,0,300,5.0,Training at home,,,,,,,,,,,,,
11,2,136,A,30.23496060740963,40.68978809652221,1.5117480303704816,0.6391536968007979,B,1015.317125013098,Incorrect,sub_011_day_02_data.csv,0,300,5.0,Training at home,,,,,,,,,,,,,
11,2,137,B,65.86572494154038,39.025716031273106,3.293286247077019,0.6130145139246451,B,969.020749995252,Correct,sub_011_day_02_data.csv,1,300,5.0,Training at home,,,,,,,,,,,,,
11,2,138,B,65.16353612788141,43.00006609331875,3.2581768063940704,0.6754434587132288,B,1154.4764160062186,Correct,sub_011_day_02_data.csv,1,300,5.0,Training at home,,,,,,,,,,,,,
11,2,139,A,52.64361103820784,65.06342891496193,2.6321805519103925,1.0220139514830306,A,1356.577250000555,Correct,sub_011_day_02_data.csv,1,300,5.0,Training at home,,,,,,,,,,,,,
11,2,140,A,20.249124363645603,47.932998827845225,1.0124562181822805,0.7529297849104335,A,1431.1793750093784,Correct,sub_011_day_02_data.csv,1,300,5.0,Training at home,,,,,,,,,,,,,
11,2,141,B,46.1362802138931,19.707188144635637,2.306814010694655,0.3095597874904959,B,1106.870000017807,Correct,sub_011_day_02_data.csv,1,300,5.0,Training at home,,,,,,,,,,,,,
11,2,142,A,31.531542729000947,50.35161995071182,1.5765771364500472,0.7909213966675076,A,1337.9601250053383,Correct,sub_011_day_02_data.csv,1,300,5.0,Training at home,,,,,,,,,,,,,
11,2,143,B,53.50554419673513,41.40566852208442,2.6752772098367563,0.6503987202297727,B,1352.4129170109518,Correct,sub_011_day_02_data.csv,1,300,5.0,Training at home,,,,,,,,,,,,,
11,2,144,B,86.03329529276328,58.07224527334837,4.301664764638164,0.9121966956410792,B,1132.5234999821987,Correct,sub_011_day_02_data.csv,1,300,5.0,Training at home,,,,,,,,,,,,,
11,2,145,B,53.20609153995588,40.815904366571395,2.660304576997794,0.6411347265382213,B,708.2482499827165,Correct,sub_011_day_02_data.csv,1,300,5.0,Training at home,,,,,,,,,,,,,
11,2,146,A,13.720844307307022,38.53960272453273,0.686042215365351,0.605378663958306,A,565.748082997743,Correct,sub_011_day_02_data.csv,1,300,5.0,Training at home,,,,,,,,,,,,,
11,2,147,B,65.1082260484428,44.100472216178794,3.2554113024221403,0.6927285976709404,B,522.4187500134576,Correct,sub_011_day_02_data.csv,1,300,5.0,Training at home,,,,,,,,,,,,,
11,2,148,A,66.68355817075475,87.49328277664407,3.3341779085377374,1.374341272047797,A,726.6015000059269,Correct,sub_011_day_02_data.csv,1,300,5.0,Training at home,,,,,,,,,,,,,
11,2,149,B,39.9256635161868,28.95668016457994,1.99628317580934,0.4548504683869681,B,472.5772499805316,Correct,sub_011_day_02_data.csv,1,300,5.0,Training at home,,,,,,,,,,,,,
11,2,150,B,58.54853468966256,34.5121917198968,2.927426734483128,0.5421162398325513,B,553.2074169896077,Correct,sub_011_day_02_data.csv,1,300,6.0,Training at home,,,,,,,,,,,,,
11,2,151,A,49.67981232793858,78.39086749142933,2.483990616396929,1.2313608670980267,A,449.7825000144075,Correct,sub_011_day_02_data.csv,1,300,6.0,Training at home,,,,,,,,,,,,,
11,2,152,A,36.19546917979691,67.45840344569004,1.809773458989846,1.0596341234393811,A,509.7141250153072,Correct,sub_011_day_02_data.csv,1,300,6.0,Training at home,,,,,,,,,,,,,
11,2,153,B,89.40969142088332,67.33382643863499,4.470484571044166,1.0576772723885293,B,911.8379580031616,Correct,sub_011_day_02_data.csv,1,300,6.0,Training at home,,,,,,,,,,,,,
11,2,154,A,61.05332984132221,81.516088134726,3.052666492066111,1.2804517181671666,A,777.6117909816094,Correct,sub_011_day_02_data.csv,1,300,6.0,Training at home,,,,,,,,,,,,,
11,2,155,A,39.01905222934865,64.57960247577806,1.9509526114674327,1.0144140235482677,B,743.8935829850379,Incorrect,sub_011_day_02_data.csv,0,300,6.0,Training at home,,,,,,,,,,,,,
11,2,156,A,46.79503558038234,68.7554530134017,2.339751779019117,1.080008130405705,A,711.3805830013007,Correct,sub_011_day_02_data.csv,1,300,6.0,Training at home,,,,,,,,,,,,,
11,2,157,B,77.9301192712388,53.131405223997795,3.89650596356194,0.8345861616330693,B,863.4815830155276,Correct,sub_011_day_02_data.csv,1,300,6.0,Training at home,,,,,,,,,,,,,
11,2,158,A,22.290950777048785,49.062767178044915,1.114547538852439,0.7706761446566616,A,869.3986249854788,Correct,sub_011_day_02_data.csv,1,300,6.0,Training at home,,,,,,,,,,,,,
11,2,159,A,61.1805290017209,85.17695080085738,3.059026450086045,1.337956414455764,A,686.4410419948399,Correct,sub_011_day_02_data.csv,1,300,6.0,Training at home,,,,,,,,,,,,,
11,2,160,A,27.280732168680068,41.34041987605055,1.3640366084340032,0.6493737968945892,A,739.0339160047006,Correct,sub_011_day_02_data.csv,1,300,6.0,Training at home,,,,,,,,,,,,,
11,2,161,A,29.7283442513813,54.44635862947918,1.4864172125690651,0.8552414014254351,A,557.1034160093404,Correct,sub_011_day_02_data.csv,1,300,6.0,Training at home,,,,,,,,,,,,,
11,2,162,A,41.039573569461055,57.24846992562771,2.051978678473053,0.8992568627380411,A,512.8180840110872,Correct,sub_011_day_02_data.csv,1,300,6.0,Training at home,,,,,,,,,,,,,
11,2,163,A,59.58767086714478,79.02765413361288,2.9793835433572387,1.2413634882829665,A,588.9480420155451,Correct,sub_011_day_02_data.csv,1,300,6.0,Training at home,,,,,,,,,,,,,
11,2,164,B,87.2592872409829,63.37234349312915,4.362964362049144,0.9954504437939172,B,739.594084006967,Correct,sub_011_day_02_data.csv,1,300,6.0,Training at home,,,,,,,,,,,,,
11,2,165,A,24.261405306165027,35.17834320009613,1.2130702653082517,0.5525801228144123,A,519.0680419909768,Correct,sub_011_day_02_data.csv,1,300,6.0,Training at home,,,,,,,,,,,,,
11,2,166,B,57.952804070049545,36.18047233472202,2.8976402035024775,0.5683215304508573,B,794.5776660053525,Correct,sub_011_day_02_data.csv,1,300,6.0,Training at home,,,,,,,,,,,,,
11,2,167,B,89.23847301864777,67.84274042455309,4.4619236509323885,1.0656712745858763,B,631.6918340162374,Correct,sub_011_day_02_data.csv,1,300,6.0,Training at home,,,,,,,,,,,,,
11,2,168,B,50.35517180743311,36.20605257492144,2.5177585903716557,0.568723343924295,A,923.5155420028605,Incorrect,sub_011_day_02_data.csv,0,300,6.0,Training at home,,,,,,,,,,,,,
11,2,169,B,65.6048483732492,39.18280209972679,3.2802424186624597,0.615482016117822,B,1499.8411250126082,Correct,sub_011_day_02_data.csv,1,300,6.0,Training at home,,,,,,,,,,,,,
11,2,170,A,37.1656019540614,57.69249948853902,1.85828009770307,0.9062316628021354,A,869.0239159914199,Correct,sub_011_day_02_data.csv,1,300,6.0,Training at home,,,,,,,,,,,,,
11,2,171,B,45.39377787300714,28.514346800276847,2.2696888936503568,0.4479023121483068,B,605.9126670006663,Correct,sub_011_day_02_data.csv,1,300,6.0,Training at home,,,,,,,,,,,,,
11,2,172,B,79.95421837223563,65.60213887545595,3.9977109186117814,1.0304759877545489,B,792.127332999371,Correct,sub_011_day_02_data.csv,1,300,6.0,Training at home,,,,,,,,,,,,,
11,2,173,B,57.82979934764992,42.62663013075855,2.891489967382496,0.669577540330402,B,633.9348749897908,Correct,sub_011_day_02_data.csv,1,300,6.0,Training at home,,,,,,,,,,,,,
11,2,174,A,32.32004648262046,62.89848268938245,1.616002324131023,0.9880070556945436,A,705.747917003464,Correct,sub_011_day_02_data.csv,1,300,6.0,Training at home,,,,,,,,,,,,,
11,2,175,B,33.480830763974765,18.431372806184328,1.6740415381987384,0.2895193270174169,B,828.4644169907551,Correct,sub_011_day_02_data.csv,1,300,7.0,Training at home,,,,,,,,,,,,,
11,2,176,B,59.50535835900325,39.20472638016456,2.9752679179501627,0.6158264019096147,B,620.0830830202904,Correct,sub_011_day_02_data.csv,1,300,7.0,Training at home,,,,,,,,,,,,,
11,2,177,A,29.966833836941447,38.88837921054805,1.4983416918470724,0.610857232189359,B,1113.004833023297,Incorrect,sub_011_day_02_data.csv,0,300,7.0,Training at home,,,,,,,,,,,,,
11,2,178,B,83.67709828329986,54.97497361971814,4.183854914164993,0.863544866274996,B,531.8157080037054,Correct,sub_011_day_02_data.csv,1,300,7.0,Training at home,,,,,,,,,,,,,
11,2,179,A,12.23397352136606,31.199320035127393,0.611698676068303,0.4900777730967652,A,523.7179170071613,Correct,sub_011_day_02_data.csv,1,300,7.0,Training at home,,,,,,,,,,,,,
11,2,180,A,12.93295920447801,31.06887061191033,0.6466479602239005,0.4880286783485466,A,470.2167079958599,Correct,sub_011_day_02_data.csv,1,300,7.0,Training at home,,,,,,,,,,,,,
11,2,181,A,30.290592661264633,61.78460900458308,1.5145296330632316,0.97051036876858,A,670.0704579998273,Correct,sub_011_day_02_data.csv,1,300,7.0,Training at home,,,,,,,,,,,,,
11,2,182,B,70.07000219092636,49.937327825814755,3.5035001095463176,0.7844137111874241,B,615.0299579894636,Correct,sub_011_day_02_data.csv,1,300,7.0,Training at home,,,,,,,,,,,,,
11,2,183,B,31.220427914653655,16.361871021266342,1.5610213957326828,0.2570116689969703,B,692.6668749947567,Correct,sub_011_day_02_data.csv,1,300,7.0,Training at home,,,,,,,,,,,,,
11,2,184,B,61.321766104675746,53.253423224631334,3.0660883052337873,0.8365028159050495,B,936.4586250158028,Correct,sub_011_day_02_data.csv,1,300,7.0,Training at home,,,,,,,,,,,,,
11,2,185,A,40.30635894928775,48.58120531691854,2.0153179474643874,0.7631117886308434,B,640.6520839955192,Incorrect,sub_011_day_02_data.csv,0,300,7.0,Training at home,,,,,,,,,,,,,
11,2,186,A,29.353427267978887,55.99205191226755,1.4676713633989442,0.8795210947349904,A,520.463666995056,Correct,sub_011_day_02_data.csv,1,300,7.0,Training at home,,,,,,,,,,,,,
11,2,187,A,41.89452459424703,52.425587274723355,2.0947262297123515,0.8234991992120072,A,947.2007500007747,Correct,sub_011_day_02_data.csv,1,300,7.0,Training at home,,,,,,,,,,,,,
11,2,188,A,48.11454685867086,67.9867889469988,2.405727342933543,1.067933983485256,A,497.2255830070935,Correct,sub_011_day_02_data.csv,1,300,7.0,Training at home,,,,,,,,,,,,,
11,2,189,B,67.23817024862319,35.361371421565494,3.3619085124311594,0.5554551233942511,B,555.9183750010561,Correct,sub_011_day_02_data.csv,1,300,7.0,Training at home,,,,,,,,,,,,,
11,2,190,B,85.68389969526677,57.99346759829916,4.284194984763339,0.9109592588150716,B,782.8154999879189,Correct,sub_011_day_02_data.csv,1,300,7.0,Training at home,,,,,,,,,,,,,
11,2,191,A,20.216615732210737,50.39568003709736,1.0108307866105366,0.7916134908860343,A,583.8744590000715,Correct,sub_011_day_02_data.csv,1,300,7.0,Training at home,,,,,,,,,,,,,
11,2,192,B,51.33589290533847,42.821234570462096,2.5667946452669237,0.672634379721045,B,989.255749998847,Correct,sub_011_day_02_data.csv,1,300,7.0,Training at home,,,,,,,,,,,,,
11,2,193,B,43.267714891685145,20.535238704136532,2.1633857445842573,0.3225667752631406,B,480.7653749885503,Correct,sub_011_day_02_data.csv,1,300,7.0,Training at home,,,,,,,,,,,,,
11,2,194,A,39.78167629780231,61.618600022815,1.9890838148901155,0.9679027057808172,A,1369.4917079992592,Correct,sub_011_day_02_data.csv,1,300,7.0,Training at home,,,,,,,,,,,,,
11,2,195,A,33.732209377877936,52.24241389533988,1.686610468893897,0.8206219184969854,A,678.8963750004768,Correct,sub_011_day_02_data.csv,1,300,7.0,Training at home,,,,,,,,,,,,,
11,2,196,B,49.04399981934528,18.21450926909538,2.452199990967264,0.2861128425426662,B,433.1625000049826,Correct,sub_011_day_02_data.csv,1,300,7.0,Training at home,,,,,,,,,,,,,
11,2,197,A,35.0618836779406,49.88129722746531,1.7530941838970302,0.7835335846066697,A,2562.70866599516,Correct,sub_011_day_02_data.csv,1,300,7.0,Training at home,,,,,,,,,,,,,
11,2,198,A,51.07641916167221,73.17793943397501,2.55382095808361,1.1494763846530736,A,763.1926250178367,Correct,sub_011_day_02_data.csv,1,300,7.0,Training at home,,,,,,,,,,,,,
11,2,199,B,87.12146244881228,66.21531700145947,4.356073122440614,1.0401077672345218,B,633.609415992396,Correct,sub_011_day_02_data.csv,1,300,7.0,Training at home,,,,,,,,,,,,,
11,2,200,B,72.58939086088854,50.603807155177435,3.629469543044427,0.7948827440119003,B,1800.2379999961704,Correct,sub_011_day_02_data.csv,1,300,8.0,Training at home,,,,,,,,,,,,,
11,2,201,B,69.6174108815374,52.63318215447839,3.48087054407687,0.8267600919578134,B,1370.6365410180297,Correct,sub_011_day_02_data.csv,1,300,8.0,Training at home,,,,,,,,,,,,,
11,2,202,A,53.06890964281184,73.39855810056409,2.653445482140592,1.1529418545640788,A,791.0392089979723,Correct,sub_011_day_02_data.csv,1,300,8.0,Training at home,,,,,,,,,,,,,
11,2,203,A,43.34779358458414,62.767695433261295,2.167389679229207,0.9859526542794764,A,697.148000006564,Correct,sub_011_day_02_data.csv,1,300,8.0,Training at home,,,,,,,,,,,,,
11,2,204,B,64.89570074106756,48.201327542213534,3.244785037053378,0.757144682499467,B,974.4245840120128,Correct,sub_011_day_02_data.csv,1,300,8.0,Training at home,,,,,,,,,,,,,
11,2,205,A,48.61551092145507,58.39344727867666,2.430775546072754,0.9172421249423676,A,896.1753339972347,Correct,sub_011_day_02_data.csv,1,300,8.0,Training at home,,,,,,,,,,,,,
11,2,206,A,51.684336575244174,79.62823152062776,2.5842168287622087,1.2507973358177569,A,758.2589580269996,Correct,sub_011_day_02_data.csv,1,300,8.0,Training at home,,,,,,,,,,,,,
11,2,207,A,22.10956817770605,39.60751645635698,1.1054784088853025,0.6221534136311397,A,518.9537499973085,Correct,sub_011_day_02_data.csv,1,300,8.0,Training at home,,,,,,,,,,,,,
11,2,208,A,18.25182433462474,43.358063361362106,0.912591216731237,0.6810668666496799,A,450.1251250039786,Correct,sub_011_day_02_data.csv,1,300,8.0,Training at home,,,,,,,,,,,,,
11,2,209,A,44.99753757553442,57.35132244694241,2.249876878776721,0.9008724663648684,A,1212.6129590033088,Correct,sub_011_day_02_data.csv,1,300,8.0,Training at home,,,,,,,,,,,,,
11,2,210,B,39.11011030236968,13.42020740221378,1.9555055151184837,0.2108041249222308,B,858.9457499911077,Correct,sub_011_day_02_data.csv,1,300,8.0,Training at home,,,,,,,,,,,,,
11,2,211,A,21.6725665767538,40.53671606483527,1.0836283288376898,0.6367492469497091,A,856.0294170165434,Correct,sub_011_day_02_data.csv,1,300,8.0,Training at home,,,,,,,,,,,,,
11,2,212,A,26.78371520249715,44.22759095428325,1.3391857601248571,0.6947253741397531,A,671.0213750193361,Correct,sub_011_day_02_data.csv,1,300,8.0,Training at home,,,,,,,,,,,,,
11,2,213,A,52.22460800955173,73.5422009847599,2.6112304004775866,1.1551981917127288,A,655.1338749995921,Correct,sub_011_day_02_data.csv,1,300,8.0,Training at home,,,,,,,,,,,,,
11,2,214,B,38.45522768381084,21.35207803933084,1.922761384190542,0.3353976575361886,B,575.7135419989936,Correct,sub_011_day_02_data.csv,1,300,8.0,Training at home,,,,,,,,,,,,,
11,2,215,B,58.88425431447837,44.83717088391477,2.944212715723918,0.7043006332832841,B,768.7326250015758,Correct,sub_011_day_02_data.csv,1,300,8.0,Training at home,,,,,,,,,,,,,
11,2,216,A,40.330611716013294,60.763478560343735,2.016530585800665,0.954470489258684,B,1241.869749996113,Incorrect,sub_011_day_02_data.csv,0,300,8.0,Training at home,,,,,,,,,,,,,
11,2,217,B,34.794780500130216,23.939685409899493,1.739739025006511,0.376043699064955,B,656.537875009235,Correct,sub_011_day_02_data.csv,1,300,8.0,Training at home,,,,,,,,,,,,,
11,2,218,A,14.63679574412096,42.323120006634184,0.731839787206048,0.6648100144492057,A,1016.4670410158578,Correct,sub_011_day_02_data.csv,1,300,8.0,Training at home,,,,,,,,,,,,,
11,2,219,A,63.66648943929151,73.68112787262028,3.1833244719645757,1.1573804501641702,A,627.2797920100857,Correct,sub_011_day_02_data.csv,1,300,8.0,Training at home,,,,,,,,,,,,,
11,2,220,B,48.98849620581104,33.21602957813819,2.449424810290552,0.521756172520501,B,599.0337500115857,Correct,sub_011_day_02_data.csv,1,300,8.0,Training at home,,,,,,,,,,,,,
11,2,221,B,81.91903396966677,65.56523587341835,4.095951698483338,1.0298963167540651,B,496.6483330063056,Correct,sub_011_day_02_data.csv,1,300,8.0,Training at home,,,,,,,,,,,,,
11,2,222,B,81.60637161565751,54.14634452694701,4.080318580782875,0.8505287909229932,B,523.4586670121644,Correct,sub_011_day_02_data.csv,1,300,8.0,Training at home,,,,,,,,,,,,,
11,2,223,B,85.34773318754162,68.65301431923021,4.267386659377081,1.0783990271604424,B,1328.493916982552,Correct,sub_011_day_02_data.csv,1,300,8.0,Training at home,,,,,,,,,,,,,
11,2,224,B,56.51433116752859,43.19411950167326,2.82571655837643,0.6784916425236817,B,1459.977082995465,Correct,sub_011_day_02_data.csv,1,300,8.0,Training at home,,,,,,,,,,,,,
11,2,225,B,64.65887255475629,35.22056901529454,3.2329436277378143,0.553243404368508,B,549.7921670030337,Correct,sub_011_day_02_data.csv,1,300,9.0,Training at home,,,,,,,,,,,,,
11,2,226,A,17.653460874466713,35.72133820530321,0.8826730437233357,0.5611094684108849,A,593.7817090016324,Correct,sub_011_day_02_data.csv,1,300,9.0,Training at home,,,,,,,,,,,,,
11,2,227,A,43.07887346626316,74.00487571741999,2.153943673313158,1.1624658694183618,A,766.107417002786,Correct,sub_011_day_02_data.csv,1,300,9.0,Training at home,,,,,,,,,,,,,
11,2,228,A,69.69087701644307,88.46038653431961,3.4845438508221536,1.38953250234966,A,871.5762089996133,Correct,sub_011_day_02_data.csv,1,300,9.0,Training at home,,,,,,,,,,,,,
11,2,229,B,82.94119319507956,63.47157913460444,4.147059659753978,0.9970092336050824,B,1273.8905000151135,Correct,sub_011_day_02_data.csv,1,300,9.0,Training at home,,,,,,,,,,,,,
11,2,230,A,40.49443048779523,51.25928058175164,2.0247215243897614,0.8051788965196445,B,2476.182874990627,Incorrect,sub_011_day_02_data.csv,0,300,9.0,Training at home,,,,,,,,,,,,,
11,2,231,A,27.19863389818268,36.92553001022419,1.3599316949091338,0.5800248690501488,B,1125.04408301902,Incorrect,sub_011_day_02_data.csv,0,300,9.0,Training at home,,,,,,,,,,,,,
11,2,232,B,72.13298192428748,53.65437370341172,3.6066490962143742,0.8428009312979983,B,1339.8381249862723,Correct,sub_011_day_02_data.csv,1,300,9.0,Training at home,,,,,,,,,,,,,
11,2,233,A,49.46403526176491,77.93373135888106,2.4732017630882455,1.224180189519506,A,563.4259159851354,Correct,sub_011_day_02_data.csv,1,300,9.0,Training at home,,,,,,,,,,,,,
11,2,234,B,63.93052129055017,40.255460883911326,3.196526064527508,0.6323313008988355,B,531.4894159964751,Correct,sub_011_day_02_data.csv,1,300,9.0,Training at home,,,,,,,,,,,,,
11,2,235,B,43.72109199390543,18.850530423371687,2.1860545996952716,0.2961034394716769,B,507.68758298363537,Correct,sub_011_day_02_data.csv,1,300,9.0,Training at home,,,,,,,,,,,,,
11,2,236,A,61.34769119587932,78.2959357445782,3.067384559793966,1.2298696827055269,B,553.3526250219438,Incorrect,sub_011_day_02_data.csv,0,300,9.0,Training at home,,,,,,,,,,,,,
11,2,237,B,41.85864312474099,26.94360802384119,2.0929321562370493,0.4232292051445124,B,500.3896669950336,Correct,sub_011_day_02_data.csv,1,300,9.0,Training at home,,,,,,,,,,,,,
11,2,238,B,31.67803974309938,13.07967847991155,1.5839019871549689,0.2054551091190332,B,564.5515829965007,Correct,sub_011_day_02_data.csv,1,300,9.0,Training at home,,,,,,,,,,,,,
11,2,239,A,53.44937039927429,83.09931511098705,2.6724685199637146,1.3053209893551008,A,600.2295420039445,Correct,sub_011_day_02_data.csv,1,300,9.0,Training at home,,,,,,,,,,,,,
11,2,240,B,60.844751564151466,40.077900984671146,3.0422375782075735,0.62954219652371,B,676.2008329969831,Correct,sub_011_day_02_data.csv,1,300,9.0,Training at home,,,,,,,,,,,,,
11,2,241,A,66.43448252198534,84.06491240698712,3.321724126099267,1.3204885562123008,A,788.8224160124082,Correct,sub_011_day_02_data.csv,1,300,9.0,Training at home,,,,,,,,,,,,,
11,2,242,B,48.01403503255492,38.43666547544137,2.400701751627746,0.6037617294306752,B,826.8815410265233,Correct,sub_011_day_02_data.csv,1,300,9.0,Training at home,,,,,,,,,,,,,
11,2,243,A,27.528072522901816,43.97590715408093,1.376403626145091,0.6907719342510373,A,1806.1699579993729,Correct,sub_011_day_02_data.csv,1,300,9.0,Training at home,,,,,,,,,,,,,
11,2,244,A,60.350893754885234,72.90050900305255,3.017544687744262,1.145118517634732,A,1596.8369169859216,Correct,sub_011_day_02_data.csv,1,300,9.0,Training at home,,,,,,,,,,,,,
11,2,245,B,75.44903557862733,47.64660662127075,3.7724517789313663,0.748431146649335,B,733.2443330087699,Correct,sub_011_day_02_data.csv,1,300,9.0,Training at home,,,,,,,,,,,,,
11,2,246,B,69.23555207548097,40.701435227638825,3.4617776037740486,0.6393366495085547,B,530.6996669969521,Correct,sub_011_day_02_data.csv,1,300,9.0,Training at home,,,,,,,,,,,,,
11,2,247,B,73.0723838660295,41.19307591114227,3.653619193301475,0.6470593233060563,B,529.2307499912567,Correct,sub_011_day_02_data.csv,1,300,9.0,Training at home,,,,,,,,,,,,,
11,2,248,A,63.41461911298954,86.1587759283958,3.170730955649477,1.3533788874946868,A,695.7324170216452,Correct,sub_011_day_02_data.csv,1,300,9.0,Training at home,,,,,,,,,,,,,
11,2,249,B,49.85184186847504,30.03464642890552,2.492592093423752,0.4717831228710825,B,562.6932499872055,Correct,sub_011_day_02_data.csv,1,300,9.0,Training at home,,,,,,,,,,,,,
11,2,250,A,54.8951496379593,77.16388605957114,2.744757481897965,1.2120874878359424,A,570.5495409783907,Correct,sub_011_day_02_data.csv,1,300,10.0,Training at home,,,,,,,,,,,,,
11,2,251,A,35.145369575966754,46.37341568266372,1.7572684787983377,0.72843191015261,B,647.9899999976624,Incorrect,sub_011_day_02_data.csv,0,300,10.0,Training at home,,,,,,,,,,,,,
11,2,252,B,84.05697661012687,63.512409413196565,4.202848830506343,0.9976505941214276,B,634.0078329958487,Correct,sub_011_day_02_data.csv,1,300,10.0,Training at home,,,,,,,,,,,,,
11,2,253,A,51.76346658399108,82.04652930624279,2.588173329199554,1.28878386860516,A,699.3470409943257,Correct,sub_011_day_02_data.csv,1,300,10.0,Training at home,,,,,,,,,,,,,
11,2,254,A,60.25337604882249,85.43208062046156,3.0126688024411243,1.3419639842906648,A,517.2926670056768,Correct,sub_011_day_02_data.csv,1,300,10.0,Training at home,,,,,,,,,,,,,
11,2,255,A,57.94449203062012,66.89474972368012,2.897224601531006,1.0507802714782066,A,554.1476249927655,Correct,sub_011_day_02_data.csv,1,300,10.0,Training at home,,,,,,,,,,,,,
11,2,256,A,31.023570413057975,58.9596628709141,1.5511785206528987,0.9261362186669732,A,589.1227080137469,Correct,sub_011_day_02_data.csv,1,300,10.0,Training at home,,,,,,,,,,,,,
11,2,257,B,40.59233088725823,23.858530569738186,2.0296165443629115,0.3747689218166848,B,586.6581249865703,Correct,sub_011_day_02_data.csv,1,300,10.0,Training at home,,,,,,,,,,,,,
11,2,258,A,60.08186579132205,69.56279841748282,3.0040932895661023,1.0926898823575588,A,1210.8262090187054,Correct,sub_011_day_02_data.csv,1,300,10.0,Training at home,,,,,,,,,,,,,
11,2,259,A,63.5051569200087,85.95242507987565,3.175257846000435,1.3501375359458223,A,612.5384159968235,Correct,sub_011_day_02_data.csv,1,300,10.0,Training at home,,,,,,,,,,,,,
11,2,260,B,73.01994353097656,58.842449178125435,3.650997176548828,0.924295030286148,B,837.7663750143256,Correct,sub_011_day_02_data.csv,1,300,10.0,Training at home,,,,,,,,,,,,,
11,2,261,A,66.16786754198114,80.62432927806549,3.308393377099057,1.266444002802875,A,582.4004999885801,Correct,sub_011_day_02_data.csv,1,300,10.0,Training at home,,,,,,,,,,,,,
11,2,262,A,50.82831572221013,61.42979827905998,2.5414157861105067,0.9649370149249888,B,885.1124590146355,Incorrect,sub_011_day_02_data.csv,0,300,10.0,Training at home,,,,,,,,,,,,,
11,2,263,A,60.26998774881278,84.60506934106657,3.0134993874406395,1.3289733214917487,A,515.1602920086589,Correct,sub_011_day_02_data.csv,1,300,10.0,Training at home,,,,,,,,,,,,,
11,2,264,A,62.25292380204456,77.18431218505361,3.1126461901022275,1.2124083406647277,A,624.9466660083272,Correct,sub_011_day_02_data.csv,1,300,10.0,Training at home,,,,,,,,,,,,,
11,2,265,A,56.30371075454752,80.98978222446108,2.8151855377273756,1.2721845242610206,A,578.2463339855894,Correct,sub_011_day_02_data.csv,1,300,10.0,Training at home,,,,,,,,,,,,,
11,2,266,A,61.36319559024706,82.90902327167689,3.068159779512353,1.3023318921330267,A,558.9787909993902,Correct,sub_011_day_02_data.csv,1,300,10.0,Training at home,,,,,,,,,,,,,
11,2,267,B,63.78225792350776,34.83137460558541,3.1891128961753883,0.547129952876706,B,513.0578750104178,Correct,sub_011_day_02_data.csv,1,300,10.0,Training at home,,,,,,,,,,,,,
11,2,268,A,24.448806887003823,49.338478870168174,1.2224403443501912,0.7750070137890778,A,625.2114999806508,Correct,sub_011_day_02_data.csv,1,300,10.0,Training at home,,,,,,,,,,,,,
11,2,269,B,53.13477238708458,41.7803269188176,2.656738619354229,0.6562838405636863,B,2026.9574169942643,Correct,sub_011_day_02_data.csv,1,300,10.0,Training at home,,,,,,,,,,,,,
11,2,270,B,78.07401541207204,57.222446552847806,3.9037007706036024,0.8988480885543063,B,810.2075000060722,Correct,sub_011_day_02_data.csv,1,300,10.0,Training at home,,,,,,,,,,,,,
11,2,271,B,64.29148064530628,55.52091472240153,3.214574032265314,0.8721204890624101,B,1526.2639170105103,Correct,sub_011_day_02_data.csv,1,300,10.0,Training at home,,,,,,,,,,,,,
11,2,272,A,52.52639926042728,60.72104394285587,2.6263199630213645,0.9538039278458952,A,702.7669999806676,Correct,sub_011_day_02_data.csv,1,300,10.0,Training at home,,,,,,,,,,,,,
11,2,273,B,61.26223229061035,37.47877906737098,3.063111614530518,0.5887152849178379,B,781.1875409970526,Correct,sub_011_day_02_data.csv,1,300,10.0,Training at home,,,,,,,,,,,,,
11,2,274,A,10.928252879963718,30.673981396308328,0.546412643998186,0.4818257730549611,A,577.9248750186525,Correct,sub_011_day_02_data.csv,1,300,10.0,Training at home,,,,,,,,,,,,,
11,2,275,A,52.15842510323111,59.277941061763194,2.6079212551615556,0.93113572079782,A,1174.724292010069,Correct,sub_011_day_02_data.csv,1,300,11.0,Training at home,,,,,,,,,,,,,
11,2,276,B,69.96195749646313,56.705493439518975,3.4980978748231566,0.8907278080388851,B,999.5402920176276,Correct,sub_011_day_02_data.csv,1,300,11.0,Training at home,,,,,,,,,,,,,
11,2,277,B,45.58210171185901,18.998255767563695,2.279105085592951,0.29842390375199,B,593.9439999929164,Correct,sub_011_day_02_data.csv,1,300,11.0,Training at home,,,,,,,,,,,,,
11,2,278,A,15.2378537576924,32.40143113995687,0.7618926878846198,0.5089604901754203,A,581.4827920112293,Correct,sub_011_day_02_data.csv,1,300,11.0,Training at home,,,,,,,,,,,,,
11,2,279,A,28.251280199127443,53.95584839190476,1.4125640099563723,0.8475364846310633,A,615.9665830200538,Correct,sub_011_day_02_data.csv,1,300,11.0,Training at home,,,,,,,,,,,,,
11,2,280,B,43.52569381114457,35.04355289352254,2.1762846905572286,0.5504628416298788,B,722.9165830067359,Correct,sub_011_day_02_data.csv,1,300,11.0,Training at home,,,,,,,,,,,,,
11,2,281,A,27.17493119745053,41.46798647785637,1.358746559872526,0.6513776083899722,A,1482.061332993908,Correct,sub_011_day_02_data.csv,1,300,11.0,Training at home,,,,,,,,,,,,,
11,2,282,B,52.86980218498621,37.23189900756182,2.643490109249311,0.5848373020067666,B,757.5385829841252,Correct,sub_011_day_02_data.csv,1,300,11.0,Training at home,,,,,,,,,,,,,
11,2,283,A,17.490207213870878,46.97508004356309,0.8745103606935438,0.7378828318332515,A,475.2081659971736,Correct,sub_011_day_02_data.csv,1,300,11.0,Training at home,,,,,,,,,,,,,
11,2,284,B,64.70632978068679,35.66488907010303,3.23531648903434,0.560222767468653,B,692.0355829934124,Correct,sub_011_day_02_data.csv,1,300,11.0,Training at home,,,,,,,,,,,,,
11,2,285,B,60.88686638309314,34.57654060452878,3.044343319154657,0.543127029748684,B,512.537834001705,Correct,sub_011_day_02_data.csv,1,300,11.0,Training at home,,,,,,,,,,,,,
11,2,286,B,80.29854819046271,67.79749059443691,4.0149274095231355,1.0649604919165303,B,623.9105419954285,Correct,sub_011_day_02_data.csv,1,300,11.0,Training at home,,,,,,,,,,,,,
11,2,287,A,65.10861551837557,83.85736556800444,3.2554307759187786,1.3172284180891822,A,1007.1459579921792,Correct,sub_011_day_02_data.csv,1,300,11.0,Training at home,,,,,,,,,,,,,
11,2,288,B,58.86900502879743,30.85710757303957,2.943450251439872,0.4847023123124555,B,557.4612499913201,Correct,sub_011_day_02_data.csv,1,300,11.0,Training at home,,,,,,,,,,,,,
11,2,289,B,68.5900541795244,38.56427929464891,3.42950270897622,0.6057662826152699,B,492.4861250037793,Correct,sub_011_day_02_data.csv,1,300,11.0,Training at home,,,,,,,,,,,,,
11,2,290,A,46.73951261275316,70.12790777062787,2.3369756306376583,1.1015665993191357,A,792.9260419914499,Correct,sub_011_day_02_data.csv,1,300,11.0,Training at home,,,,,,,,,,,,,
11,2,291,B,78.58506309025408,62.090603905590086,3.929253154512704,0.9753169254337776,B,810.7332079962362,Correct,sub_011_day_02_data.csv,1,300,11.0,Training at home,,,,,,,,,,,,,
11,2,292,A,40.72075168758793,47.724139372056975,2.0360375843793963,0.749649028250748,A,598.5841660003643,Correct,sub_011_day_02_data.csv,1,300,11.0,Training at home,,,,,,,,,,,,,
11,2,293,A,41.21590818652708,59.5543614051603,2.0607954093263543,0.9354777213984156,A,692.5999159866478,Correct,sub_011_day_02_data.csv,1,300,11.0,Training at home,,,,,,,,,,,,,
11,2,294,B,37.54384196764664,27.3784285345578,1.877192098382332,0.4300593497549997,B,742.8133329958655,Correct,sub_011_day_02_data.csv,1,300,11.0,Training at home,,,,,,,,,,,,,
11,2,295,A,13.15968281895535,35.189435071316005,0.6579841409477675,0.5527543535201069,A,523.1091249734163,Correct,sub_011_day_02_data.csv,1,300,11.0,Training at home,,,,,,,,,,,,,
11,2,296,A,35.02146887154258,66.77539340083726,1.7510734435771291,1.0489054267431934,A,638.5481669858564,Correct,sub_011_day_02_data.csv,1,300,11.0,Training at home,,,,,,,,,,,,,
11,2,297,A,26.556875190713303,49.89247180403903,1.3278437595356651,0.7837091144450246,A,566.5662079991307,Correct,sub_011_day_02_data.csv,1,300,11.0,Training at home,,,,,,,,,,,,,
11,2,298,A,63.10913381825328,78.9086503961133,3.155456690912664,1.2394941819455745,A,773.1289160146844,Correct,sub_011_day_02_data.csv,1,300,11.0,Training at home,,,,,,,,,,,,,
11,2,299,B,36.81320667028688,19.834998856852113,1.840660333514344,0.3115674334632426,B,433.0132080067415,Correct,sub_011_day_02_data.csv,1,300,11.0,Training at home,,,,,,,,,,,,,
