subject,day,trial,cat,x,y,xt,yt,resp,rt,fb,f_name,acc,n_trials,block,session_type,ns_left_digit,ns_right_digit,ns_left_size,ns_right_size,ns_congruent,ns_cue,ns_correct_side,ns_resp,ns_rt,ns_fb,acc_stroop,acc_stroop_mean,resp_key
11,7,1200,A,13.965206436409352,34.88718491737319,0.6982603218204676,0.5480066192042412,A,1920.7033749553375,Correct,sub_011_day_07_data.csv,1,300,48.0,Training at home,,,,,,,,,,,,,
11,7,1201,A,61.84760503418703,79.28032594440057,3.0923802517093515,1.2453324478056655,A,1149.9489580164663,Correct,sub_011_day_07_data.csv,1,300,48.0,Training at home,,,,,,,,,,,,,
11,7,1202,A,22.596316188694068,52.065681437269795,1.1298158094347033,0.8178458115373661,A,1109.1912090196274,Correct,sub_011_day_07_data.csv,1,300,48.0,Training at home,,,,,,,,,,,,,
11,7,1203,B,52.81888246575913,36.80116216356168,2.640944123287957,0.57807130348306,B,1128.1977919861674,Correct,sub_011_day_07_data.csv,1,300,48.0,Training at home,,,,,,,,,,,,,
11,7,1204,B,70.13889850394742,42.81592384655666,3.506944925197371,0.6725509590650122,B,548.405458976049,Correct,sub_011_day_07_data.csv,1,300,48.0,Training at home,,,,,,,,,,,,,
11,7,1205,B,56.92392391701081,43.52738938366671,2.8461961958505406,0.6837266335883484,B,1217.509708018042,Correct,sub_011_day_07_data.csv,1,300,48.0,Training at home,,,,,,,,,,,,,
11,7,1206,A,35.12614785543127,47.24412980034166,1.7563073927715636,0.7421090555299799,A,1491.4946250501089,Correct,sub_011_day_07_data.csv,1,300,48.0,Training at home,,,,,,,,,,,,,
11,7,1207,A,31.900148574883357,57.34310737481325,1.5950074287441678,0.90074342431362,A,615.472583041992,Correct,sub_011_day_07_data.csv,1,300,48.0,Training at home,,,,,,,,,,,,,
11,7,1208,A,41.94399701245312,72.2312484128613,2.097199850622656,1.1346057968673224,A,599.7149160248227,Correct,sub_011_day_07_data.csv,1,300,48.0,Training at home,,,,,,,,,,,,,
11,7,1209,B,53.64491736157291,25.874457933539514,2.682245868078645,0.4064350347981293,B,1021.8665410066023,Correct,sub_011_day_07_data.csv,1,300,48.0,Training at home,,,,,,,,,,,,,
11,7,1210,A,55.49761304951381,69.71321824362263,2.774880652475691,1.095052671461334,A,963.7367500108668,Correct,sub_011_day_07_data.csv,1,300,48.0,Training at home,,,,,,,,,,,,,
11,7,1211,B,69.41888749805136,59.25694047889971,3.4709443749025684,0.9308058444135948,B,961.7254579789004,Correct,sub_011_day_07_data.csv,1,300,48.0,Training at home,,,,,,,,,,,,,
11,7,1212,B,51.45250074293929,35.20823050206418,2.572625037146965,0.5530495914559046,B,620.3485000296496,Correct,sub_011_day_07_data.csv,1,300,48.0,Training at home,,,,,,,,,,,,,
11,7,1213,B,61.05250916282594,53.783410486244605,3.052625458141297,0.8448278363429513,B,628.2150830375031,Correct,sub_011_day_07_data.csv,1,300,48.0,Training at home,,,,,,,,,,,,,
11,7,1214,B,58.21791420791188,35.0527808975641,2.9108957103955944,0.5506077947784,B,525.7530410308391,Correct,sub_011_day_07_data.csv,1,300,48.0,Training at home,,,,,,,,,,,,,
11,7,1215,A,45.395752933066355,70.24185676142206,2.2697876466533176,1.1033565058809505,A,612.8032919950783,Correct,sub_011_day_07_data.csv,1,300,48.0,Training at home,,,,,,,,,,,,,
11,7,1216,A,59.42409443060224,80.8941582301012,2.971204721530112,1.270682466070081,A,494.5781250135042,Correct,sub_011_day_07_data.csv,1,300,48.0,Training at home,,,,,,,,,,,,,
11,7,1217,B,83.21317864888702,66.8192091438986,4.160658932444352,1.0495936828257588,A,556.5199999837205,Incorrect,sub_011_day_07_data.csv,0,300,48.0,Training at home,,,,,,,,,,,,,
11,7,1218,A,54.59280135313936,78.15417611072898,2.729640067656968,1.2276429275841454,A,1610.5464579886757,Correct,sub_011_day_07_data.csv,1,300,48.0,Training at home,,,,,,,,,,,,,
11,7,1219,B,32.6620309253757,16.644076119564627,1.633101546268785,0.2614445363150677,B,742.5829999847338,Correct,sub_011_day_07_data.csv,1,300,48.0,Training at home,,,,,,,,,,,,,
11,7,1220,A,56.5856781561351,73.05724158716426,2.829283907806755,1.1475804673088497,A,1323.6191660398615,Correct,sub_011_day_07_data.csv,1,300,48.0,Training at home,,,,,,,,,,,,,
11,7,1221,B,84.73069285864659,60.171333835126646,4.236534642932329,0.945169101665664,B,633.4037500200793,Correct,sub_011_day_07_data.csv,1,300,48.0,Training at home,,,,,,,,,,,,,
11,7,1222,B,40.6696812171255,22.7045620172688,2.033484060856275,0.3566424261821275,B,561.7323750047944,Correct,sub_011_day_07_data.csv,1,300,48.0,Training at home,,,,,,,,,,,,,
11,7,1223,A,33.281329232439646,66.60965998385643,1.6640664616219822,1.046302092316987,A,630.3673329530284,Correct,sub_011_day_07_data.csv,1,300,48.0,Training at home,,,,,,,,,,,,,
11,7,1224,A,36.61981922549799,45.051065898672704,1.8309909612748996,0.707660488318299,A,1420.3719579963945,Correct,sub_011_day_07_data.csv,1,300,48.0,Training at home,,,,,,,,,,,,,
11,7,1225,A,60.1012365725212,69.64473564599827,3.00506182862606,1.0939769493333569,A,980.1676669740118,Correct,sub_011_day_07_data.csv,1,300,49.0,Training at home,,,,,,,,,,,,,
11,7,1226,A,46.63188870437455,66.4655856080893,2.3315944352187277,1.0440389773145842,A,620.1162079814821,Correct,sub_011_day_07_data.csv,1,300,49.0,Training at home,,,,,,,,,,,,,
11,7,1227,B,70.7926115126525,40.67759385630703,3.539630575632625,0.6389621501234173,B,726.7205840325914,Correct,sub_011_day_07_data.csv,1,300,49.0,Training at home,,,,,,,,,,,,,
11,7,1228,B,62.27802602563696,52.094076216091835,3.113901301281848,0.8182918356801044,B,913.5004580020905,Correct,sub_011_day_07_data.csv,1,300,49.0,Training at home,,,,,,,,,,,,,
11,7,1229,A,45.06754384385744,70.18175407899592,2.253377192192872,1.1024124151530956,A,684.5532499719411,Correct,sub_011_day_07_data.csv,1,300,49.0,Training at home,,,,,,,,,,,,,
11,7,1230,A,41.896350055179866,62.44776516253414,2.0948175027589935,0.9809272013385892,A,634.6488749841228,Correct,sub_011_day_07_data.csv,1,300,49.0,Training at home,,,,,,,,,,,,,
11,7,1231,B,85.33546792547574,61.63717153572488,4.266773396273788,0.968194426423436,B,593.5814999975264,Correct,sub_011_day_07_data.csv,1,300,49.0,Training at home,,,,,,,,,,,,,
11,7,1232,A,17.11366787616269,46.33516399791013,0.8556833938081345,0.7278310540935636,A,525.4632080323063,Correct,sub_011_day_07_data.csv,1,300,49.0,Training at home,,,,,,,,,,,,,
11,7,1233,A,47.417903545470985,76.55708412137196,2.370895177273549,1.2025558652797896,A,663.8376659830101,Correct,sub_011_day_07_data.csv,1,300,49.0,Training at home,,,,,,,,,,,,,
11,7,1234,B,59.55589051432067,48.92526264731373,2.9777945257160336,0.7685162285387596,B,526.0989579837769,Correct,sub_011_day_07_data.csv,1,300,49.0,Training at home,,,,,,,,,,,,,
11,7,1235,A,45.95401945875689,64.06635999214548,2.2977009729378444,1.0063520294678163,A,2064.359957992565,Correct,sub_011_day_07_data.csv,1,300,49.0,Training at home,,,,,,,,,,,,,
11,7,1236,B,47.72049218372059,22.416375395905575,2.386024609186029,0.3521156013194397,B,469.9444589787163,Correct,sub_011_day_07_data.csv,1,300,49.0,Training at home,,,,,,,,,,,,,
11,7,1237,A,55.50640058208958,83.52705024540111,2.775320029104479,1.3120398371348885,A,588.7000000220723,Correct,sub_011_day_07_data.csv,1,300,49.0,Training at home,,,,,,,,,,,,,
11,7,1238,B,77.47234324786585,58.96215329933372,3.873617162393293,0.92617533822511,B,547.9748340439983,Correct,sub_011_day_07_data.csv,1,300,49.0,Training at home,,,,,,,,,,,,,
11,7,1239,A,36.34449833439864,45.53701754198322,1.8172249167199324,0.71529379888142,A,3617.225458030589,Correct,sub_011_day_07_data.csv,1,300,49.0,Training at home,,,,,,,,,,,,,
11,7,1240,B,75.44095305345462,63.758942425996366,3.772047652672731,1.001523125630824,B,529.7029170324095,Correct,sub_011_day_07_data.csv,1,300,49.0,Training at home,,,,,,,,,,,,,
11,7,1241,A,47.67654387587627,73.18312276400943,2.3838271937938136,1.1495578042108598,A,557.1684999740683,Correct,sub_011_day_07_data.csv,1,300,49.0,Training at home,,,,,,,,,,,,,
11,7,1242,A,55.35836231822932,65.10558604892165,2.767918115911466,1.0226761541947518,A,605.3265410009772,Correct,sub_011_day_07_data.csv,1,300,49.0,Training at home,,,,,,,,,,,,,
11,7,1243,A,40.493423448837206,64.51754578521103,2.0246711724418605,1.0134392393323104,A,593.8864579657093,Correct,sub_011_day_07_data.csv,1,300,49.0,Training at home,,,,,,,,,,,,,
11,7,1244,B,64.39709433221634,48.725190467595496,3.219854716610817,0.7653735020888072,B,4451.658459031023,Correct,sub_011_day_07_data.csv,1,300,49.0,Training at home,,,,,,,,,,,,,
11,7,1245,A,51.868263391264506,61.40453147171296,2.5934131695632257,0.9645401248432832,A,1148.8237080047838,Correct,sub_011_day_07_data.csv,1,300,49.0,Training at home,,,,,,,,,,,,,
11,7,1246,A,24.05675118448023,55.07408653852028,1.2028375592240117,0.8651017283629192,A,558.0167919979431,Correct,sub_011_day_07_data.csv,1,300,49.0,Training at home,,,,,,,,,,,,,
11,7,1247,B,61.40641384796095,47.02771356489812,3.0703206923980475,0.7387095972530451,B,1348.7201249809004,Correct,sub_011_day_07_data.csv,1,300,49.0,Training at home,,,,,,,,,,,,,
11,7,1248,A,40.90671171175455,53.83488591349511,2.0453355855877273,0.8456364104634043,B,1196.6714999871328,Incorrect,sub_011_day_07_data.csv,0,300,49.0,Training at home,,,,,,,,,,,,,
11,7,1249,A,49.32306919193291,70.01391921218044,2.466153459596646,1.0997760712300768,A,1014.5508749992588,Correct,sub_011_day_07_data.csv,1,300,49.0,Training at home,,,,,,,,,,,,,
11,7,1250,B,78.60641635514759,59.6753333969784,3.930320817757379,0.9373779450023452,B,542.6395839895122,Correct,sub_011_day_07_data.csv,1,300,50.0,Training at home,,,,,,,,,,,,,
11,7,1251,B,61.9361281514754,34.4969082500367,3.09680640757377,0.5418761676493821,B,1169.92116603069,Correct,sub_011_day_07_data.csv,1,300,50.0,Training at home,,,,,,,,,,,,,
11,7,1252,A,50.404468748726416,78.26909756528437,2.5202234374363206,1.2294481095710006,A,589.1681669745594,Correct,sub_011_day_07_data.csv,1,300,50.0,Training at home,,,,,,,,,,,,,
11,7,1253,B,68.08746245512961,38.85856853121966,3.4043731227564806,0.610388967133476,B,525.8742500445805,Correct,sub_011_day_07_data.csv,1,300,50.0,Training at home,,,,,,,,,,,,,
11,7,1254,B,63.73041145815703,53.47344579223865,3.186520572907851,0.8399589223151447,B,1098.2074580388144,Correct,sub_011_day_07_data.csv,1,300,50.0,Training at home,,,,,,,,,,,,,
11,7,1255,A,33.10142653711715,42.95805880730619,1.6550713268558577,0.6747836098075571,A,2187.540667015128,Correct,sub_011_day_07_data.csv,1,300,50.0,Training at home,,,,,,,,,,,,,
11,7,1256,A,62.68787235520771,84.29749650168274,3.134393617760386,1.324141978628489,A,899.2606249521486,Correct,sub_011_day_07_data.csv,1,300,50.0,Training at home,,,,,,,,,,,,,
11,7,1257,B,41.15696156637398,27.972978521096024,2.057848078318699,0.4393985191045018,B,1426.4812499750406,Correct,sub_011_day_07_data.csv,1,300,50.0,Training at home,,,,,,,,,,,,,
11,7,1258,B,88.30803875699598,67.8299770785325,4.415401937849799,1.0654707884154089,B,585.1399170351215,Correct,sub_011_day_07_data.csv,1,300,50.0,Training at home,,,,,,,,,,,,,
11,7,1259,A,63.9980378117841,83.18301416529025,3.199901890589205,1.3066357310256576,A,682.4858749751002,Correct,sub_011_day_07_data.csv,1,300,50.0,Training at home,,,,,,,,,,,,,
11,7,1260,B,80.97914331247637,52.83323850955049,4.048957165623818,0.8299025698348059,B,838.1959580001421,Correct,sub_011_day_07_data.csv,1,300,50.0,Training at home,,,,,,,,,,,,,
11,7,1261,A,29.607871819026514,55.134423065977494,1.4803935909513255,0.8660494923199328,A,915.7408339669928,Correct,sub_011_day_07_data.csv,1,300,50.0,Training at home,,,,,,,,,,,,,
11,7,1262,A,50.37099330389371,80.66099693649426,2.5185496651946857,1.267019977034596,A,668.2992080459371,Correct,sub_011_day_07_data.csv,1,300,50.0,Training at home,,,,,,,,,,,,,
11,7,1263,B,48.001803845292336,21.362816424788388,2.4000901922646167,0.3355663357005128,B,1515.8184170140885,Correct,sub_011_day_07_data.csv,1,300,50.0,Training at home,,,,,,,,,,,,,
11,7,1264,B,74.64476108788215,60.79516977126925,3.732238054394107,0.9549682936358186,B,1985.1158339879476,Correct,sub_011_day_07_data.csv,1,300,50.0,Training at home,,,,,,,,,,,,,
11,7,1265,B,74.4950390051078,57.22584720798801,3.72475195025539,0.8989015059203355,B,1457.787916995585,Correct,sub_011_day_07_data.csv,1,300,50.0,Training at home,,,,,,,,,,,,,
11,7,1266,A,45.6124276120633,70.46012759902943,2.280621380603165,1.1067850961805514,A,786.5882079931907,Correct,sub_011_day_07_data.csv,1,300,50.0,Training at home,,,,,,,,,,,,,
11,7,1267,A,38.615378034069856,46.863928798864414,1.9307689017034928,0.736136872164338,A,1144.21845797915,Correct,sub_011_day_07_data.csv,1,300,50.0,Training at home,,,,,,,,,,,,,
11,7,1268,B,50.18825985777465,34.63984917636058,2.5094129928887328,0.5441214784695642,B,1023.0508749955334,Correct,sub_011_day_07_data.csv,1,300,50.0,Training at home,,,,,,,,,,,,,
11,7,1269,B,50.93638897200087,35.030833039083966,2.5468194486000435,0.550263038623584,B,1499.48554194998,Correct,sub_011_day_07_data.csv,1,300,50.0,Training at home,,,,,,,,,,,,,
11,7,1270,B,35.93868883563057,16.83649974951474,1.7969344417815285,0.2644671196262095,A,1417.3456249991432,Incorrect,sub_011_day_07_data.csv,0,300,50.0,Training at home,,,,,,,,,,,,,
11,7,1271,A,31.46871343053987,59.84529492341721,1.5734356715269937,0.94004769441661,A,1868.3918329770677,Correct,sub_011_day_07_data.csv,1,300,50.0,Training at home,,,,,,,,,,,,,
11,7,1272,A,32.342648866641504,51.89853570060312,1.617132443332075,0.8152202924454119,A,1436.273291008547,Correct,sub_011_day_07_data.csv,1,300,50.0,Training at home,,,,,,,,,,,,,
11,7,1273,B,65.98946491584203,55.64179711533846,3.299473245792102,0.8740193052504053,B,1122.3862909828313,Correct,sub_011_day_07_data.csv,1,300,50.0,Training at home,,,,,,,,,,,,,
11,7,1274,A,33.340481473947726,59.79780650705383,1.6670240736973865,0.9393017481167212,A,612.220375041943,Correct,sub_011_day_07_data.csv,1,300,50.0,Training at home,,,,,,,,,,,,,
11,7,1275,A,41.25623072263621,53.73519090743968,2.06281153613181,0.8440704049702877,A,719.3911669892259,Correct,sub_011_day_07_data.csv,1,300,51.0,Training at home,,,,,,,,,,,,,
11,7,1276,B,68.83015246944778,38.3558317181282,3.44150762347239,0.6024919957399896,B,527.5010830373503,Correct,sub_011_day_07_data.csv,1,300,51.0,Training at home,,,,,,,,,,,,,
11,7,1277,B,62.66330998869616,29.516343205527647,3.1331654994348077,0.4636416348766033,B,531.7836669855751,Correct,sub_011_day_07_data.csv,1,300,51.0,Training at home,,,,,,,,,,,,,
11,7,1278,A,59.682125096784006,69.6121812418305,2.984106254839201,1.0934655859484794,A,1266.6914999717849,Correct,sub_011_day_07_data.csv,1,300,51.0,Training at home,,,,,,,,,,,,,
11,7,1279,A,49.376554751108515,74.29852424849341,2.4688277375554257,1.16707848975815,A,841.8778330087662,Correct,sub_011_day_07_data.csv,1,300,51.0,Training at home,,,,,,,,,,,,,
11,7,1280,B,32.73658400479634,11.939357204584285,1.636829200239817,0.1875429844125317,B,995.6621250021273,Correct,sub_011_day_07_data.csv,1,300,51.0,Training at home,,,,,,,,,,,,,
11,7,1281,A,42.770654678679534,61.81124651097739,2.138532733933977,0.9709287897405716,A,1005.686082993634,Correct,sub_011_day_07_data.csv,1,300,51.0,Training at home,,,,,,,,,,,,,
11,7,1282,A,62.07368724150535,74.79116826881892,3.103684362075267,1.1748169239335975,A,951.4866670360788,Correct,sub_011_day_07_data.csv,1,300,51.0,Training at home,,,,,,,,,,,,,
11,7,1283,A,22.83475192186317,42.08579603984661,1.1417375960931582,0.6610821382963027,A,603.0099999625236,Correct,sub_011_day_07_data.csv,1,300,51.0,Training at home,,,,,,,,,,,,,
11,7,1284,A,52.74591170917403,80.78680408653332,2.6372955854587015,1.2689961511262549,A,613.8962090481073,Correct,sub_011_day_07_data.csv,1,300,51.0,Training at home,,,,,,,,,,,,,
11,7,1285,B,52.42068585524079,44.85271047572528,2.6210342927620394,0.7045447286206424,B,4487.929916009307,Correct,sub_011_day_07_data.csv,1,300,51.0,Training at home,,,,,,,,,,,,,
11,7,1286,A,28.921534069713044,44.630787742489794,1.4460767034856523,0.7010587744786566,A,1407.0465410477482,Correct,sub_011_day_07_data.csv,1,300,51.0,Training at home,,,,,,,,,,,,,
11,7,1287,A,17.961086616195406,37.20190323783279,0.8980543308097703,0.5843661295576692,A,635.3181669837795,Correct,sub_011_day_07_data.csv,1,300,51.0,Training at home,,,,,,,,,,,,,
11,7,1288,B,39.89690937887987,13.064653393758114,1.9948454689439936,0.2052190956176372,B,483.04150003241375,Correct,sub_011_day_07_data.csv,1,300,51.0,Training at home,,,,,,,,,,,,,
11,7,1289,A,21.61251022412469,52.0282522352329,1.0806255112062346,0.8172578750066221,A,584.949082985986,Correct,sub_011_day_07_data.csv,1,300,51.0,Training at home,,,,,,,,,,,,,
11,7,1290,B,78.8950523207709,49.14769151272584,3.944752616038545,0.7720101329863847,B,704.1817090357654,Correct,sub_011_day_07_data.csv,1,300,51.0,Training at home,,,,,,,,,,,,,
11,7,1291,A,49.91331571793428,60.57176038900536,2.4956657858967137,0.9514589872655024,A,761.2703339545988,Correct,sub_011_day_07_data.csv,1,300,51.0,Training at home,,,,,,,,,,,,,
11,7,1292,B,43.020133593419786,23.84780221507971,2.1510066796709895,0.374600401215784,B,560.9827500302345,Correct,sub_011_day_07_data.csv,1,300,51.0,Training at home,,,,,,,,,,,,,
11,7,1293,A,33.246562883934196,62.656218733547895,1.6623281441967095,0.9842015823751462,A,600.9712919476442,Correct,sub_011_day_07_data.csv,1,300,51.0,Training at home,,,,,,,,,,,,,
11,7,1294,A,48.3880614098282,60.737361908580134,2.41940307049141,0.9540602498520994,A,984.72008301178,Correct,sub_011_day_07_data.csv,1,300,51.0,Training at home,,,,,,,,,,,,,
11,7,1295,A,33.0344109731635,42.41015969795282,1.6517205486581752,0.6661772307232924,A,1066.7345839901827,Correct,sub_011_day_07_data.csv,1,300,51.0,Training at home,,,,,,,,,,,,,
11,7,1296,B,75.04548851147699,48.59288566151776,3.75227442557385,0.7632952630547649,B,1171.996416989714,Correct,sub_011_day_07_data.csv,1,300,51.0,Training at home,,,,,,,,,,,,,
11,7,1297,B,52.006624026993464,25.56218285263414,2.600331201349673,0.401529829297772,B,621.8324999790639,Correct,sub_011_day_07_data.csv,1,300,51.0,Training at home,,,,,,,,,,,,,
11,7,1298,B,38.36890284676953,21.57282833299792,1.9184451423384763,0.3388651950405,B,629.7577919904143,Correct,sub_011_day_07_data.csv,1,300,51.0,Training at home,,,,,,,,,,,,,
11,7,1299,A,36.811011322313966,45.1282712846996,1.8405505661156984,0.7088732276860974,A,981.2527079484424,Correct,sub_011_day_07_data.csv,1,300,51.0,Training at home,,,,,,,,,,,,,
11,7,1300,A,53.65375004460034,64.80549291015225,2.6826875022300167,1.0179623021939987,A,630.1343329832889,Correct,sub_011_day_07_data.csv,1,300,52.0,Training at home,,,,,,,,,,,,,
11,7,1301,A,49.19301125868891,59.59921429329573,2.4596505629344456,0.9361822689177084,A,640.4387090005912,Correct,sub_011_day_07_data.csv,1,300,52.0,Training at home,,,,,,,,,,,,,
11,7,1302,A,65.73498141721188,88.83747824502461,3.286749070860594,1.3954558450900618,A,702.3578750086017,Correct,sub_011_day_07_data.csv,1,300,52.0,Training at home,,,,,,,,,,,,,
11,7,1303,B,63.400360825608146,47.58275022588973,3.170018041280407,0.7474280927362664,B,1564.9855829542505,Correct,sub_011_day_07_data.csv,1,300,52.0,Training at home,,,,,,,,,,,,,
11,7,1304,B,53.67380679460229,24.161753880584634,2.6836903397301146,0.3795319424454468,B,465.51116701448336,Correct,sub_011_day_07_data.csv,1,300,52.0,Training at home,,,,,,,,,,,,,
11,7,1305,B,61.41286988720803,31.9773330381054,3.070643494360402,0.5022987727695306,B,597.5293340161443,Correct,sub_011_day_07_data.csv,1,300,52.0,Training at home,,,,,,,,,,,,,
11,7,1306,A,40.96459297566389,55.9164191160236,2.0482296487831944,0.8783330575497381,A,673.565957986284,Correct,sub_011_day_07_data.csv,1,300,52.0,Training at home,,,,,,,,,,,,,
11,7,1307,A,42.58366381503232,50.3567718823973,2.129183190751616,0.791002323021182,A,697.3297499935143,Correct,sub_011_day_07_data.csv,1,300,52.0,Training at home,,,,,,,,,,,,,
11,7,1308,B,42.82482352922612,16.379620323968435,2.1412411764613064,0.2572904743918465,B,509.2311660409905,Correct,sub_011_day_07_data.csv,1,300,52.0,Training at home,,,,,,,,,,,,,
11,7,1309,B,38.63249104531562,27.648710837163428,1.931624552265781,0.4343049342363057,B,552.1524999639951,Correct,sub_011_day_07_data.csv,1,300,52.0,Training at home,,,,,,,,,,,,,
11,7,1310,A,16.025404807408766,41.6614350889486,0.8012702403704383,0.6544162920672447,A,515.0480419979431,Correct,sub_011_day_07_data.csv,1,300,52.0,Training at home,,,,,,,,,,,,,
11,7,1311,B,87.9215643406981,66.12424448519775,4.396078217034905,1.0386772034943632,B,506.0417500208132,Correct,sub_011_day_07_data.csv,1,300,52.0,Training at home,,,,,,,,,,,,,
11,7,1312,B,72.86835527415904,45.20530603711085,3.643417763707952,0.7100832867473288,B,446.8774169799872,Correct,sub_011_day_07_data.csv,1,300,52.0,Training at home,,,,,,,,,,,,,
11,7,1313,B,64.27615656957114,50.849089346076056,3.213807828478557,0.7987356276568178,B,867.272958974354,Correct,sub_011_day_07_data.csv,1,300,52.0,Training at home,,,,,,,,,,,,,
11,7,1314,B,57.44087123321554,43.152555056184546,2.8720435616607767,0.6778387497406921,B,665.6914590275846,Correct,sub_011_day_07_data.csv,1,300,52.0,Training at home,,,,,,,,,,,,,
11,7,1315,B,56.238599461907704,25.935118662480377,2.811929973095385,0.4073878913001394,B,588.5082919849083,Correct,sub_011_day_07_data.csv,1,300,52.0,Training at home,,,,,,,,,,,,,
11,7,1316,A,56.055118343016616,74.95868768308344,2.8027559171508307,1.1774483127395332,A,651.8598329857923,Correct,sub_011_day_07_data.csv,1,300,52.0,Training at home,,,,,,,,,,,,,
11,7,1317,B,54.96072994516491,40.2067073452945,2.748036497258245,0.6315654821050598,B,500.51299994811416,Correct,sub_011_day_07_data.csv,1,300,52.0,Training at home,,,,,,,,,,,,,
11,7,1318,B,78.5490918095919,60.99339780621803,3.927454590479595,0.9580820523274718,B,525.7890829816461,Correct,sub_011_day_07_data.csv,1,300,52.0,Training at home,,,,,,,,,,,,,
11,7,1319,B,70.93590782987944,61.52719689988445,3.5467953914939723,0.9664669488832484,B,532.7552090166137,Correct,sub_011_day_07_data.csv,1,300,52.0,Training at home,,,,,,,,,,,,,
11,7,1320,A,55.69759391237773,68.87055995050238,2.784879695618886,1.0818162259455686,A,839.0032090246677,Correct,sub_011_day_07_data.csv,1,300,52.0,Training at home,,,,,,,,,,,,,
11,7,1321,B,67.55653686076002,42.36393977350764,3.3778268430380014,0.6654512098478602,B,507.6357499929145,Correct,sub_011_day_07_data.csv,1,300,52.0,Training at home,,,,,,,,,,,,,
11,7,1322,A,49.59731013174066,73.47430667736543,2.4798655065870334,1.1541317104260735,A,600.5306669976562,Correct,sub_011_day_07_data.csv,1,300,52.0,Training at home,,,,,,,,,,,,,
11,7,1323,B,71.72961563641819,56.11328303213966,3.5864807818209097,0.8814253887128738,B,963.7420829967596,Correct,sub_011_day_07_data.csv,1,300,52.0,Training at home,,,,,,,,,,,,,
11,7,1324,B,55.574884253732336,33.284462185929456,2.7787442126866164,0.5228311094100162,B,596.7707090312615,Correct,sub_011_day_07_data.csv,1,300,52.0,Training at home,,,,,,,,,,,,,
11,7,1325,A,60.55660401692853,87.53934948260648,3.0278302008464264,1.3750648861729298,A,1061.2368329893798,Correct,sub_011_day_07_data.csv,1,300,53.0,Training at home,,,,,,,,,,,,,
11,7,1326,A,11.03643263083396,37.0982910167118,0.5518216315416979,0.5827385925941899,A,612.837209017016,Correct,sub_011_day_07_data.csv,1,300,53.0,Training at home,,,,,,,,,,,,,
11,7,1327,B,80.37789596957144,65.40768817721991,4.018894798478573,1.02742156332923,B,666.3131670211442,Correct,sub_011_day_07_data.csv,1,300,53.0,Training at home,,,,,,,,,,,,,
11,7,1328,A,46.67155630141509,73.36043849415768,2.3335778150707545,1.152343073186858,A,635.6921660481021,Correct,sub_011_day_07_data.csv,1,300,53.0,Training at home,,,,,,,,,,,,,
11,7,1329,A,34.27999746000886,50.70981167205005,1.713999873000443,0.7965478590691718,A,3382.3994169943035,Correct,sub_011_day_07_data.csv,1,300,53.0,Training at home,,,,,,,,,,,,,
11,7,1330,B,76.17110140593157,45.96484445763075,3.808555070296578,0.7220140883574514,B,454.97724995948374,Correct,sub_011_day_07_data.csv,1,300,53.0,Training at home,,,,,,,,,,,,,
11,7,1331,A,21.126821465174103,51.88189168359667,1.056341073258705,0.8149588488376432,A,532.9139999812469,Correct,sub_011_day_07_data.csv,1,300,53.0,Training at home,,,,,,,,,,,,,
11,7,1332,B,74.56202908021282,56.33271291739028,3.728101454010641,0.8848721852902808,B,934.040832973551,Correct,sub_011_day_07_data.csv,1,300,53.0,Training at home,,,,,,,,,,,,,
11,7,1333,B,43.00943817041307,30.894825424588007,2.1504719085206534,0.4852947829391242,B,682.4642909923568,Correct,sub_011_day_07_data.csv,1,300,53.0,Training at home,,,,,,,,,,,,,
11,7,1334,B,64.45752422935549,42.24177730486815,3.2228762114677743,0.6635322862777492,B,628.1107499962673,Correct,sub_011_day_07_data.csv,1,300,53.0,Training at home,,,,,,,,,,,,,
11,7,1335,A,11.914337723443968,36.72013039478925,0.5957168861721983,0.5767984594356459,A,746.259999985341,Correct,sub_011_day_07_data.csv,1,300,53.0,Training at home,,,,,,,,,,,,,
11,7,1336,B,78.93632309475177,60.357249550647765,3.946816154737588,0.9480894588960044,B,1342.077958979644,Correct,sub_011_day_07_data.csv,1,300,53.0,Training at home,,,,,,,,,,,,,
11,7,1337,A,64.60186714204004,77.85377022234974,3.2300933571020014,1.2229241629240084,A,1721.5684590046294,Correct,sub_011_day_07_data.csv,1,300,53.0,Training at home,,,,,,,,,,,,,
11,7,1338,B,41.10803566281925,14.955718503207729,2.0554017831409626,0.2349238768941716,B,1618.146666965913,Correct,sub_011_day_07_data.csv,1,300,53.0,Training at home,,,,,,,,,,,,,
11,7,1339,B,70.89793357858704,59.54028086143801,3.5448966789293523,0.935256544734833,B,2478.7404160015285,Correct,sub_011_day_07_data.csv,1,300,53.0,Training at home,,,,,,,,,,,,,
11,7,1340,A,59.30079534732938,79.68958772224163,2.965039767366469,1.2517611167789684,A,1048.8937079790048,Correct,sub_011_day_07_data.csv,1,300,53.0,Training at home,,,,,,,,,,,,,
11,7,1341,A,58.189294885942275,74.50335259810385,2.9094647442971135,1.1702959259500654,A,1311.0040000174197,Correct,sub_011_day_07_data.csv,1,300,53.0,Training at home,,,,,,,,,,,,,
11,7,1342,B,33.97787222926514,21.079450208238615,1.698893611463257,0.3311152295795713,B,1229.6917089843191,Correct,sub_011_day_07_data.csv,1,300,53.0,Training at home,,,,,,,,,,,,,
11,7,1343,B,87.3499403417789,69.01329784439523,4.3674970170889456,1.0840583475397818,B,1945.142125012353,Correct,sub_011_day_07_data.csv,1,300,53.0,Training at home,,,,,,,,,,,,,
11,7,1344,B,47.73351834415304,18.598140637181636,2.386675917207652,0.2921389099809982,B,698.0542090022936,Correct,sub_011_day_07_data.csv,1,300,53.0,Training at home,,,,,,,,,,,,,
11,7,1345,B,46.39964980127975,26.919691423922597,2.319982490063987,0.4228535240714969,B,1285.6803750037216,Correct,sub_011_day_07_data.csv,1,300,53.0,Training at home,,,,,,,,,,,,,
11,7,1346,B,66.02479110515972,41.45605164092227,3.3012395552579856,0.6511901364098025,B,893.8822080381215,Correct,sub_011_day_07_data.csv,1,300,53.0,Training at home,,,,,,,,,,,,,
11,7,1347,B,74.72290958882277,58.25055216331161,3.7361454794411384,0.914997533719044,B,1396.6591670177877,Correct,sub_011_day_07_data.csv,1,300,53.0,Training at home,,,,,,,,,,,,,
11,7,1348,B,85.08522752995407,60.659631322415066,4.254261376497704,0.9528392606598224,B,1006.365708017256,Correct,sub_011_day_07_data.csv,1,300,53.0,Training at home,,,,,,,,,,,,,
11,7,1349,B,68.61596678022619,56.531032458010785,3.4307983390113095,0.8879873813496642,B,2026.2621670262888,Correct,sub_011_day_07_data.csv,1,300,53.0,Training at home,,,,,,,,,,,,,
11,7,1350,B,69.85602790924551,53.22653627702279,3.492801395462276,0.836080476719627,B,734.8582089762203,Correct,sub_011_day_07_data.csv,1,300,54.0,Training at home,,,,,,,,,,,,,
11,7,1351,A,45.23080880001926,72.96115843124703,2.261540440000963,1.1460711966250332,A,590.086332987994,Correct,sub_011_day_07_data.csv,1,300,54.0,Training at home,,,,,,,,,,,,,
11,7,1352,B,67.5619783757756,50.706138064617704,3.37809891878878,0.7964901541785637,B,714.767583005596,Correct,sub_011_day_07_data.csv,1,300,54.0,Training at home,,,,,,,,,,,,,
11,7,1353,B,35.00537977166459,14.066767447237254,1.7502689885832297,0.220960266359983,B,1699.1429579793476,Correct,sub_011_day_07_data.csv,1,300,54.0,Training at home,,,,,,,,,,,,,
11,7,1354,A,34.204382647486646,51.68589628381989,1.7102191323743323,0.8118801602972628,A,1072.496749984566,Correct,sub_011_day_07_data.csv,1,300,54.0,Training at home,,,,,,,,,,,,,
11,7,1355,A,54.23056653815066,78.28970047699138,2.711528326907533,1.229771739351307,A,559.7227080143057,Correct,sub_011_day_07_data.csv,1,300,54.0,Training at home,,,,,,,,,,,,,
11,7,1356,B,43.98900596827647,23.60605438541102,2.1994502984138236,0.3708030351872419,B,1047.425333992578,Correct,sub_011_day_07_data.csv,1,300,54.0,Training at home,,,,,,,,,,,,,
11,7,1357,A,36.281691213364795,55.769528082023896,1.81408456066824,0.8760256985832797,A,1331.49604202481,Correct,sub_011_day_07_data.csv,1,300,54.0,Training at home,,,,,,,,,,,,,
11,7,1358,A,25.040589945204736,50.99858889089913,1.2520294972602368,0.8010839610154737,A,1107.0034169824794,Correct,sub_011_day_07_data.csv,1,300,54.0,Training at home,,,,,,,,,,,,,
11,7,1359,A,38.064428941570235,54.40112373586181,1.903221447078512,0.8545308533780638,B,2329.366374993697,Incorrect,sub_011_day_07_data.csv,0,300,54.0,Training at home,,,,,,,,,,,,,
11,7,1360,B,73.38404645437154,47.336937222572416,3.669202322718577,0.7435668711093737,B,622.4383750231937,Correct,sub_011_day_07_data.csv,1,300,54.0,Training at home,,,,,,,,,,,,,
11,7,1361,A,12.70680073190477,30.927956831762167,0.6353400365952385,0.4858152098660314,A,518.3678339817561,Correct,sub_011_day_07_data.csv,1,300,54.0,Training at home,,,,,,,,,,,,,
11,7,1362,A,47.17797404912377,53.94390026056324,2.3588987024561887,0.84734880382283,B,1027.8630829998292,Incorrect,sub_011_day_07_data.csv,0,300,54.0,Training at home,,,,,,,,,,,,,
11,7,1363,B,67.06277612271373,43.23466279462339,3.3531388061356866,0.679128495080104,B,791.5859579807147,Correct,sub_011_day_07_data.csv,1,300,54.0,Training at home,,,,,,,,,,,,,
11,7,1364,A,46.633358662463344,57.66376472244279,2.331667933123167,0.9057802981517828,A,1351.4481249731034,Correct,sub_011_day_07_data.csv,1,300,54.0,Training at home,,,,,,,,,,,,,
11,7,1365,B,65.33838128701552,49.753467229000904,3.266919064350776,0.7815256356862488,B,871.9837910030037,Correct,sub_011_day_07_data.csv,1,300,54.0,Training at home,,,,,,,,,,,,,
11,7,1366,A,26.634194277011066,57.603820911514696,1.3317097138505531,0.9048387029715832,A,985.5995830148458,Correct,sub_011_day_07_data.csv,1,300,54.0,Training at home,,,,,,,,,,,,,
11,7,1367,B,47.64389522339867,24.53093157439107,2.3821947611699335,0.3853309720991044,B,1002.6052499888464,Correct,sub_011_day_07_data.csv,1,300,54.0,Training at home,,,,,,,,,,,,,
11,7,1368,B,88.17889009449637,64.79009561336784,4.408944504724818,1.0177204420216834,B,2049.216333020013,Correct,sub_011_day_07_data.csv,1,300,54.0,Training at home,,,,,,,,,,,,,
11,7,1369,B,56.89988464516038,24.40585890076928,2.844994232258019,0.3833663351360292,B,2249.492125003598,Correct,sub_011_day_07_data.csv,1,300,54.0,Training at home,,,,,,,,,,,,,
11,7,1370,A,67.47435730761686,86.39531073506221,3.3737178653808426,1.3570943675493945,A,799.654417030979,Correct,sub_011_day_07_data.csv,1,300,54.0,Training at home,,,,,,,,,,,,,
11,7,1371,A,34.52753415984595,64.98206495597793,1.7263767079922974,1.020735889403975,A,3733.288459014147,Correct,sub_011_day_07_data.csv,1,300,54.0,Training at home,,,,,,,,,,,,,
11,7,1372,B,36.593831796997506,11.227061427894045,1.8296915898498751,0.1763542685163663,B,1680.4401250556111,Correct,sub_011_day_07_data.csv,1,300,54.0,Training at home,,,,,,,,,,,,,
11,7,1373,A,26.940150098272877,48.63821421418292,1.3470075049136438,0.7640072822950187,A,1992.1246669837271,Correct,sub_011_day_07_data.csv,1,300,54.0,Training at home,,,,,,,,,,,,,
11,7,1374,B,68.29439483201324,35.452591466672295,3.414719741600662,0.5568880045120894,B,1013.5247499565594,Correct,sub_011_day_07_data.csv,1,300,54.0,Training at home,,,,,,,,,,,,,
11,7,1375,B,39.07994770348432,17.78443701255669,1.953997385174216,0.2793572833343925,B,1015.0801250129008,Correct,sub_011_day_07_data.csv,1,300,55.0,Training at home,,,,,,,,,,,,,
11,7,1376,B,51.936870653502616,30.960532626160543,2.596843532675131,0.4863269092478653,B,1136.8727090302857,Correct,sub_011_day_07_data.csv,1,300,55.0,Training at home,,,,,,,,,,,,,
11,7,1377,B,58.69357668917459,51.12462838315448,2.93467883445873,0.8030637847301318,B,2061.6776249953546,Correct,sub_011_day_07_data.csv,1,300,55.0,Training at home,,,,,,,,,,,,,
11,7,1378,A,56.528395373230566,74.20071574887145,2.8264197686615287,1.165542117438795,A,1589.1790420282632,Correct,sub_011_day_07_data.csv,1,300,55.0,Training at home,,,,,,,,,,,,,
11,7,1379,A,61.92093080420048,73.29240658304272,3.0960465402100237,1.151274430426016,A,2417.9352920036763,Correct,sub_011_day_07_data.csv,1,300,55.0,Training at home,,,,,,,,,,,,,
11,7,1380,A,54.22050634138809,79.26826035510989,2.7110253170694047,1.2451429219722814,A,479.73199997795746,Correct,sub_011_day_07_data.csv,1,300,55.0,Training at home,,,,,,,,,,,,,
11,7,1381,B,80.3231303758671,49.06260703759587,4.016156518793355,0.7706736291763703,B,996.0719170048832,Correct,sub_011_day_07_data.csv,1,300,55.0,Training at home,,,,,,,,,,,,,
11,7,1382,A,27.210587248633697,58.02066797937742,1.360529362431685,0.9113865214019232,A,1345.5015000072308,Correct,sub_011_day_07_data.csv,1,300,55.0,Training at home,,,,,,,,,,,,,
11,7,1383,A,47.42805712392625,60.46749242502883,2.3714028561963123,0.9498211499173352,B,1374.748291040305,Incorrect,sub_011_day_07_data.csv,0,300,55.0,Training at home,,,,,,,,,,,,,
11,7,1384,A,50.703839455668586,67.53645279977721,2.535191972783429,1.0608601198264695,A,493.08670801110566,Correct,sub_011_day_07_data.csv,1,300,55.0,Training at home,,,,,,,,,,,,,
11,7,1385,A,37.28795779154485,59.81124247401546,1.8643978895772424,0.939512799792224,A,581.5593750448897,Correct,sub_011_day_07_data.csv,1,300,55.0,Training at home,,,,,,,,,,,,,
11,7,1386,A,33.008042907401986,43.09248856786317,1.6504021453700994,0.6768952275485054,B,543.6805000063032,Incorrect,sub_011_day_07_data.csv,0,300,55.0,Training at home,,,,,,,,,,,,,
11,7,1387,B,75.25701985692656,57.58282253651824,3.762850992846328,0.9045088612684524,B,461.2208749749698,Correct,sub_011_day_07_data.csv,1,300,55.0,Training at home,,,,,,,,,,,,,
11,7,1388,A,59.10654470113742,78.02504316731918,2.955327235056871,1.225614512052382,A,632.2183340089396,Correct,sub_011_day_07_data.csv,1,300,55.0,Training at home,,,,,,,,,,,,,
11,7,1389,B,63.73735037043081,52.55515525890641,3.1868675185215403,0.8255344483482567,B,1088.7691670213826,Correct,sub_011_day_07_data.csv,1,300,55.0,Training at home,,,,,,,,,,,,,
11,7,1390,B,68.21959106550003,45.64188840119984,3.410979553275001,0.7169411064858731,B,483.3268750226125,Correct,sub_011_day_07_data.csv,1,300,55.0,Training at home,,,,,,,,,,,,,
11,7,1391,B,50.349502798515424,34.53189356083988,2.517475139925771,0.5424257156263963,B,534.6903339959681,Correct,sub_011_day_07_data.csv,1,300,55.0,Training at home,,,,,,,,,,,,,
11,7,1392,B,56.885348329016566,26.28106667109553,2.844267416450828,0.4128220299120864,B,439.2419999931008,Correct,sub_011_day_07_data.csv,1,300,55.0,Training at home,,,,,,,,,,,,,
11,7,1393,A,49.492145818925195,67.8655096730649,2.47460729094626,1.066028933105139,A,604.846166970674,Correct,sub_011_day_07_data.csv,1,300,55.0,Training at home,,,,,,,,,,,,,
11,7,1394,B,42.663743790768976,13.782748353706587,2.133187189538449,0.2164989048714071,B,439.6158750168979,Correct,sub_011_day_07_data.csv,1,300,55.0,Training at home,,,,,,,,,,,,,
11,7,1395,B,31.02024932543674,13.91610815019931,1.5510124662718372,0.2185937156561359,B,480.93808302655816,Correct,sub_011_day_07_data.csv,1,300,55.0,Training at home,,,,,,,,,,,,,
11,7,1396,A,21.31964609535067,37.8034438111269,1.0659823047675334,0.593815106787154,A,1135.964083019644,Correct,sub_011_day_07_data.csv,1,300,55.0,Training at home,,,,,,,,,,,,,
11,7,1397,B,58.07253300981451,28.702404117653465,2.9036266504907253,0.4508563095819278,B,617.052124987822,Correct,sub_011_day_07_data.csv,1,300,55.0,Training at home,,,,,,,,,,,,,
11,7,1398,B,40.035082977717224,13.650068547166768,2.001754148885861,0.2144147753438811,B,722.0380420330912,Correct,sub_011_day_07_data.csv,1,300,55.0,Training at home,,,,,,,,,,,,,
11,7,1399,A,29.677012263769548,59.17796376333171,1.4838506131884772,0.9295652810664295,A,544.292000005953,Correct,sub_011_day_07_data.csv,1,300,55.0,Training at home,,,,,,,,,,,,,
11,7,1400,A,48.502228731137464,58.208877474574024,2.425111436556873,0.9143429092391506,A,689.2058330122381,Correct,sub_011_day_07_data.csv,1,300,56.0,Training at home,,,,,,,,,,,,,
11,7,1401,A,26.4995490435413,42.71430046898634,1.324977452177065,0.6709546627829727,A,777.7253750246018,Correct,sub_011_day_07_data.csv,1,300,56.0,Training at home,,,,,,,,,,,,,
11,7,1402,B,61.38665709213177,53.502860589828074,3.0693328546065883,0.8404209688752137,B,1884.45445796242,Correct,sub_011_day_07_data.csv,1,300,56.0,Training at home,,,,,,,,,,,,,
11,7,1403,A,42.80769599756368,56.33988624706099,2.140384799878184,0.8849848636892572,A,859.1124580125324,Correct,sub_011_day_07_data.csv,1,300,56.0,Training at home,,,,,,,,,,,,,
11,7,1404,B,44.87374928720001,31.63791517059967,2.2436874643600007,0.4969672093742648,B,1379.282667010557,Correct,sub_011_day_07_data.csv,1,300,56.0,Training at home,,,,,,,,,,,,,
11,7,1405,A,36.20104467673589,53.57194315956521,1.8100522338367944,0.8415061153431002,A,2452.2348329774104,Correct,sub_011_day_07_data.csv,1,300,56.0,Training at home,,,,,,,,,,,,,
11,7,1406,A,66.03100130395516,77.78594492196729,3.3015500651977585,1.2218587655969635,A,578.9904160192236,Correct,sub_011_day_07_data.csv,1,300,56.0,Training at home,,,,,,,,,,,,,
11,7,1407,B,58.04285354785467,43.695854480184536,2.902142677392734,0.6863728771363818,B,912.716625025496,Correct,sub_011_day_07_data.csv,1,300,56.0,Training at home,,,,,,,,,,,,,
11,7,1408,B,54.79851605706281,28.112248861069915,2.7399258028531404,0.4415861724891264,B,1803.1365419737997,Correct,sub_011_day_07_data.csv,1,300,56.0,Training at home,,,,,,,,,,,,,
11,7,1409,B,36.40721253079082,11.883364979043929,1.8203606265395411,0.1866634605904531,B,535.0446249940433,Correct,sub_011_day_07_data.csv,1,300,56.0,Training at home,,,,,,,,,,,,,
11,7,1410,A,36.9428433488827,54.39802045693691,1.8471421674441348,0.8544821071867015,B,1266.893959022127,Incorrect,sub_011_day_07_data.csv,0,300,56.0,Training at home,,,,,,,,,,,,,
11,7,1411,B,52.65712608560244,21.891608233573827,2.6328563042801223,0.3438725780093067,B,538.1917079794221,Correct,sub_011_day_07_data.csv,1,300,56.0,Training at home,,,,,,,,,,,,,
11,7,1412,B,57.2317491156626,41.57359091317082,2.86158745578313,0.6530364389808241,B,1628.8823329959996,Correct,sub_011_day_07_data.csv,1,300,56.0,Training at home,,,,,,,,,,,,,
11,7,1413,B,64.62945301453917,50.10738279994795,3.2314726507269587,0.7870849284746402,B,1205.447375017684,Correct,sub_011_day_07_data.csv,1,300,56.0,Training at home,,,,,,,,,,,,,
11,7,1414,B,64.90187355994802,47.009296409561905,3.2450936779974007,0.7384203012535235,B,717.0159999513999,Correct,sub_011_day_07_data.csv,1,300,56.0,Training at home,,,,,,,,,,,,,
11,7,1415,B,67.88125922599211,50.2159530963003,3.394062961299605,0.7887903467017333,B,674.2585830506869,Correct,sub_011_day_07_data.csv,1,300,56.0,Training at home,,,,,,,,,,,,,
11,7,1416,A,56.00125252071664,77.98128171241322,2.800062626035832,1.224927108726167,A,712.7576669445261,Correct,sub_011_day_07_data.csv,1,300,56.0,Training at home,,,,,,,,,,,,,
11,7,1417,B,72.34188236937067,55.05204628306353,3.617094118468533,0.8647555208397883,B,3228.2837080419995,Correct,sub_011_day_07_data.csv,1,300,56.0,Training at home,,,,,,,,,,,,,
11,7,1418,B,48.71232736698834,22.31738214489668,2.435616368349417,0.3505606189688172,B,699.1729579749517,Correct,sub_011_day_07_data.csv,1,300,56.0,Training at home,,,,,,,,,,,,,
11,7,1419,A,59.044865802860045,79.94756643239062,2.9522432901430022,1.2558134368819016,A,2396.3944579591043,Correct,sub_011_day_07_data.csv,1,300,56.0,Training at home,,,,,,,,,,,,,
11,7,1420,A,40.221574139522026,61.1231130543525,2.0110787069761016,0.9601196146804608,A,550.5322079989128,Correct,sub_011_day_07_data.csv,1,300,56.0,Training at home,,,,,,,,,,,,,
11,7,1421,A,52.5817035526116,62.193376106141784,2.62908517763058,0.97693126738501,A,1568.4920409694314,Correct,sub_011_day_07_data.csv,1,300,56.0,Training at home,,,,,,,,,,,,,
11,7,1422,A,52.04356373259168,81.85226255442495,2.602178186629584,1.2857323336034217,A,470.5594999832101,Correct,sub_011_day_07_data.csv,1,300,56.0,Training at home,,,,,,,,,,,,,
11,7,1423,B,61.84994151155816,48.51647707284474,3.092497075577908,0.7620950397505333,B,1931.9795420160517,Correct,sub_011_day_07_data.csv,1,300,56.0,Training at home,,,,,,,,,,,,,
11,7,1424,A,30.62409065756605,63.65988728266445,1.5312045328783026,0.9999671710778646,A,496.21191702317446,Correct,sub_011_day_07_data.csv,1,300,56.0,Training at home,,,,,,,,,,,,,
11,7,1425,B,65.3664919510188,36.32871994735263,3.26832459755094,0.5706501985046201,B,1007.335166039411,Correct,sub_011_day_07_data.csv,1,300,57.0,Training at home,,,,,,,,,,,,,
11,7,1426,A,16.24643508628847,43.067649052272486,0.8123217543144235,0.6765050493500132,A,611.6629589814693,Correct,sub_011_day_07_data.csv,1,300,57.0,Training at home,,,,,,,,,,,,,
11,7,1427,B,56.31915974100629,39.02350741843533,2.8159579870503144,0.6129798211153161,B,938.4456249536016,Correct,sub_011_day_07_data.csv,1,300,57.0,Training at home,,,,,,,,,,,,,
11,7,1428,B,70.5126455632035,50.43051208075623,3.525632278160175,0.7921606313483754,B,588.7729590176605,Correct,sub_011_day_07_data.csv,1,300,57.0,Training at home,,,,,,,,,,,,,
11,7,1429,A,45.619250726458446,68.4343470629574,2.2809625363229227,1.074964209931006,A,647.9552910313942,Correct,sub_011_day_07_data.csv,1,300,57.0,Training at home,,,,,,,,,,,,,
11,7,1430,A,49.72012243781609,58.31860478397969,2.4860061218908043,0.9160665017847855,A,1192.5168330199083,Correct,sub_011_day_07_data.csv,1,300,57.0,Training at home,,,,,,,,,,,,,
11,7,1431,B,34.78309902342677,10.555343491947191,1.7391549511713384,0.1658029478520906,B,608.0114999786019,Correct,sub_011_day_07_data.csv,1,300,57.0,Training at home,,,,,,,,,,,,,
11,7,1432,A,37.22574843240497,55.63822420983794,1.8612874216202484,0.873963182182043,A,1461.057875014376,Correct,sub_011_day_07_data.csv,1,300,57.0,Training at home,,,,,,,,,,,,,
11,7,1433,A,30.93253282604325,45.41724238234494,1.5466266413021623,0.7134123750734093,A,3092.8479169961065,Correct,sub_011_day_07_data.csv,1,300,57.0,Training at home,,,,,,,,,,,,,
11,7,1434,A,61.02116071325622,86.32197534039192,3.051058035662811,1.3559424178636723,A,825.6796670029871,Correct,sub_011_day_07_data.csv,1,300,57.0,Training at home,,,,,,,,,,,,,
11,7,1435,B,58.59631644270892,51.29979174453453,2.929815822135446,0.80581524437658,B,1119.5666250423528,Correct,sub_011_day_07_data.csv,1,300,57.0,Training at home,,,,,,,,,,,,,
11,7,1436,B,64.06252681147812,40.73981511202351,3.203126340573906,0.6399395193226974,B,495.977541024331,Correct,sub_011_day_07_data.csv,1,300,57.0,Training at home,,,,,,,,,,,,,
11,7,1437,A,18.10070362742885,37.667720219132605,0.9050351813714426,0.5916831655895135,A,614.2714999732561,Correct,sub_011_day_07_data.csv,1,300,57.0,Training at home,,,,,,,,,,,,,
11,7,1438,B,51.684083844740336,42.51189961450985,2.5842041922370167,0.6677753575954546,B,2018.158833961934,Correct,sub_011_day_07_data.csv,1,300,57.0,Training at home,,,,,,,,,,,,,
11,7,1439,A,42.83597868694423,62.22112990676453,2.1417989343472117,0.977367223065738,A,704.538166988641,Correct,sub_011_day_07_data.csv,1,300,57.0,Training at home,,,,,,,,,,,,,
11,7,1440,A,44.44973889921415,51.21145128142021,2.222486944960707,0.8044275956269067,B,1681.2358340248466,Incorrect,sub_011_day_07_data.csv,0,300,57.0,Training at home,,,,,,,,,,,,,
11,7,1441,A,12.563737042411496,35.59480730329156,0.6281868521205748,0.5591219256498253,A,572.937874996569,Correct,sub_011_day_07_data.csv,1,300,57.0,Training at home,,,,,,,,,,,,,
11,7,1442,B,53.150852925685506,23.581919781634927,2.6575426462842753,0.3704239297176405,B,630.1459579844959,Correct,sub_011_day_07_data.csv,1,300,57.0,Training at home,,,,,,,,,,,,,
11,7,1443,A,46.65141637310775,77.41814412905704,2.3325708186553875,1.216081364252007,A,574.3880420341156,Correct,sub_011_day_07_data.csv,1,300,57.0,Training at home,,,,,,,,,,,,,
11,7,1444,B,71.52382544479163,41.93126196479389,3.576191272239581,0.658654722721728,B,694.8928749770857,Correct,sub_011_day_07_data.csv,1,300,57.0,Training at home,,,,,,,,,,,,,
11,7,1445,A,24.519057212244615,39.43224596475906,1.2259528606122307,0.6194002711871641,A,840.9805829869583,Correct,sub_011_day_07_data.csv,1,300,57.0,Training at home,,,,,,,,,,,,,
11,7,1446,B,39.50589465542204,14.182604217324542,1.975294732771102,0.222779826089592,B,620.5967920250259,Correct,sub_011_day_07_data.csv,1,300,57.0,Training at home,,,,,,,,,,,,,
11,7,1447,A,68.05697060797009,80.96232928050513,3.4028485303985043,1.2717532944257637,A,836.4425839972682,Correct,sub_011_day_07_data.csv,1,300,57.0,Training at home,,,,,,,,,,,,,
11,7,1448,A,39.50115616942515,56.668604075109414,1.9750578084712576,0.8901483512577618,A,1910.0184999988417,Correct,sub_011_day_07_data.csv,1,300,57.0,Training at home,,,,,,,,,,,,,
11,7,1449,B,53.95031092446628,25.824461097305942,2.6975155462233142,0.4056496863310588,B,465.1577079785056,Correct,sub_011_day_07_data.csv,1,300,57.0,Training at home,,,,,,,,,,,,,
11,7,1450,B,61.94333466806183,39.05552155130353,3.0971667334030917,0.6134826979384651,B,771.7654579901136,Correct,sub_011_day_07_data.csv,1,300,58.0,Training at home,,,,,,,,,,,,,
11,7,1451,A,49.422531404972915,68.6162280038501,2.4711265702486456,1.0778211890696885,A,612.902541004587,Correct,sub_011_day_07_data.csv,1,300,58.0,Training at home,,,,,,,,,,,,,
11,7,1452,A,31.934064839603906,57.15539645353705,1.596703241980195,0.8977948680572206,A,599.7095410129987,Correct,sub_011_day_07_data.csv,1,300,58.0,Training at home,,,,,,,,,,,,,
11,7,1453,B,50.20548415885752,43.29038463406478,2.510274207942876,0.6800037716872719,A,1088.823041995056,Incorrect,sub_011_day_07_data.csv,0,300,58.0,Training at home,,,,,,,,,,,,,
11,7,1454,A,59.69424965281512,86.28109799221889,2.984712482640756,1.3553003179800795,A,553.1554170302115,Correct,sub_011_day_07_data.csv,1,300,58.0,Training at home,,,,,,,,,,,,,
11,7,1455,A,31.261576863598343,45.51737347734059,1.5630788431799172,0.7149852306355805,A,2916.940499970224,Correct,sub_011_day_07_data.csv,1,300,58.0,Training at home,,,,,,,,,,,,,
11,7,1456,B,42.63700358181717,26.32510455967085,2.1318501790908586,0.4135137754482256,B,3894.9778750538826,Correct,sub_011_day_07_data.csv,1,300,58.0,Training at home,,,,,,,,,,,,,
11,7,1457,B,74.59311242999492,56.49260621185851,3.7296556214997456,0.8873837832865791,B,3120.7410829956643,Correct,sub_011_day_07_data.csv,1,300,58.0,Training at home,,,,,,,,,,,,,
11,7,1458,A,37.836410587358294,68.8584760383147,1.891820529367915,1.0816264122967914,A,872.4737910088152,Correct,sub_011_day_07_data.csv,1,300,58.0,Training at home,,,,,,,,,,,,,
11,7,1459,A,29.921678309756032,53.72042382158976,1.4960839154878016,0.8438384441281827,A,1463.9112920267507,Correct,sub_011_day_07_data.csv,1,300,58.0,Training at home,,,,,,,,,,,,,
11,7,1460,B,68.4273433278354,57.64851155294035,3.4213671663917697,0.9055407019255186,B,1573.4701660112478,Correct,sub_011_day_07_data.csv,1,300,58.0,Training at home,,,,,,,,,,,,,
11,7,1461,B,50.9360867473606,41.87394303050338,2.54680433736803,0.6577543590073347,B,562.6525420229882,Correct,sub_011_day_07_data.csv,1,300,58.0,Training at home,,,,,,,,,,,,,
11,7,1462,B,55.23254243110349,29.236134766921857,2.761627121555174,0.4592401310156141,B,559.5079169725068,Correct,sub_011_day_07_data.csv,1,300,58.0,Training at home,,,,,,,,,,,,,
11,7,1463,B,40.29700922720547,27.1052852762784,2.0148504613602736,0.4257688254870589,B,518.3082919684239,Correct,sub_011_day_07_data.csv,1,300,58.0,Training at home,,,,,,,,,,,,,
11,7,1464,A,53.051094336806784,64.73508198481048,2.6525547168403394,1.0168562899650675,A,982.5556250289084,Correct,sub_011_day_07_data.csv,1,300,58.0,Training at home,,,,,,,,,,,,,
11,7,1465,A,33.87132112415243,62.552214232668426,1.6935660562076214,0.98256788349563,A,1225.9420420159586,Correct,sub_011_day_07_data.csv,1,300,58.0,Training at home,,,,,,,,,,,,,
11,7,1466,A,24.39055685883291,52.53122137209965,1.2195278429416454,0.8251584957334368,A,770.1467919978313,Correct,sub_011_day_07_data.csv,1,300,58.0,Training at home,,,,,,,,,,,,,
11,7,1467,A,26.474185461025403,41.65610372473099,1.3237092730512705,0.6543325471939465,A,605.2418329636566,Correct,sub_011_day_07_data.csv,1,300,58.0,Training at home,,,,,,,,,,,,,
11,7,1468,B,81.11005863079342,50.45442625444228,4.055502931539671,0.7925362743102193,B,693.8869589939713,Correct,sub_011_day_07_data.csv,1,300,58.0,Training at home,,,,,,,,,,,,,
11,7,1469,B,58.79436582511471,44.332023090761425,2.9397182912557356,0.6963657903035458,B,963.8809169991872,Correct,sub_011_day_07_data.csv,1,300,58.0,Training at home,,,,,,,,,,,,,
11,7,1470,A,53.818934426874314,77.25117927829241,2.6909467213437157,1.2134586865091574,A,692.2239160048775,Correct,sub_011_day_07_data.csv,1,300,58.0,Training at home,,,,,,,,,,,,,
11,7,1471,A,14.614455859647006,38.738142318013395,0.7307227929823503,0.6084973165999338,A,563.1973749841563,Correct,sub_011_day_07_data.csv,1,300,58.0,Training at home,,,,,,,,,,,,,
11,7,1472,B,72.4834232196213,56.8602062946385,3.624171160981065,0.8931580318841821,B,920.0154999853112,Correct,sub_011_day_07_data.csv,1,300,58.0,Training at home,,,,,,,,,,,,,
11,7,1473,B,70.61426787635764,48.96583603372113,3.5307133938178823,0.7691535538021034,B,817.6972079672851,Correct,sub_011_day_07_data.csv,1,300,58.0,Training at home,,,,,,,,,,,,,
11,7,1474,B,49.54412534723583,31.44581622257044,2.477206267361791,0.4939497261548102,B,550.3629999584518,Correct,sub_011_day_07_data.csv,1,300,58.0,Training at home,,,,,,,,,,,,,
11,7,1475,B,51.68034187196345,34.587915392884156,2.584017093598172,0.5433057045063509,B,451.43841701792553,Correct,sub_011_day_07_data.csv,1,300,59.0,Training at home,,,,,,,,,,,,,
11,7,1476,A,65.1072995638875,76.34867545604627,3.255364978194375,1.1992821896201311,A,965.9764170064592,Correct,sub_011_day_07_data.csv,1,300,59.0,Training at home,,,,,,,,,,,,,
11,7,1477,A,31.603105525350717,42.5133478182308,1.580155276267536,0.6677981059263077,B,737.6280419994146,Incorrect,sub_011_day_07_data.csv,0,300,59.0,Training at home,,,,,,,,,,,,,
11,7,1478,B,43.466544807193074,32.96292957065001,2.173327240359654,0.5177804868997591,B,499.1961669875309,Correct,sub_011_day_07_data.csv,1,300,59.0,Training at home,,,,,,,,,,,,,
11,7,1479,B,59.96583188450183,43.97476518895405,2.998291594225092,0.6907539963047712,B,545.3293329919688,Correct,sub_011_day_07_data.csv,1,300,59.0,Training at home,,,,,,,,,,,,,
11,7,1480,A,31.784560992188887,48.95328054989827,1.5892280496094444,0.7689563327234025,B,1313.9306249795482,Incorrect,sub_011_day_07_data.csv,0,300,59.0,Training at home,,,,,,,,,,,,,
11,7,1481,A,40.924758889827615,67.86519853941914,2.0462379444913807,1.0660240458292596,A,1957.1915419655852,Correct,sub_011_day_07_data.csv,1,300,59.0,Training at home,,,,,,,,,,,,,
11,7,1482,A,44.4255340564837,69.04793840607347,2.2212767028241847,1.0846024802102048,A,499.6882500126958,Correct,sub_011_day_07_data.csv,1,300,59.0,Training at home,,,,,,,,,,,,,
11,7,1483,B,65.57853859530363,41.51520364126864,3.278926929765181,0.6521192938584689,B,517.0632909866981,Correct,sub_011_day_07_data.csv,1,300,59.0,Training at home,,,,,,,,,,,,,
11,7,1484,A,37.36658824830222,65.80355995585535,1.8683294124151109,1.0336399026868532,A,590.7171659637243,Correct,sub_011_day_07_data.csv,1,300,59.0,Training at home,,,,,,,,,,,,,
11,7,1485,B,84.63181452351142,58.60443554555705,4.231590726175571,0.9205563208884928,B,593.6798339826055,Correct,sub_011_day_07_data.csv,1,300,59.0,Training at home,,,,,,,,,,,,,
11,7,1486,B,79.88219249173764,53.48023059692569,3.994109624586882,0.8400654977779493,B,533.805624989327,Correct,sub_011_day_07_data.csv,1,300,59.0,Training at home,,,,,,,,,,,,,
11,7,1487,A,67.0251868011176,81.46820373903722,3.3512593400558797,1.2796995518385792,A,952.3078339989296,Correct,sub_011_day_07_data.csv,1,300,59.0,Training at home,,,,,,,,,,,,,
11,7,1488,A,46.57861598047126,58.605829372898405,2.328930799023563,0.9205782150771727,A,679.1900420212187,Correct,sub_011_day_07_data.csv,1,300,59.0,Training at home,,,,,,,,,,,,,
11,7,1489,B,64.1483354872846,34.87038938624709,3.20741677436423,0.5477427956182468,B,742.2617499832995,Correct,sub_011_day_07_data.csv,1,300,59.0,Training at home,,,,,,,,,,,,,
11,7,1490,A,54.02528030774371,63.00528538771468,2.7012640153871854,0.9896847085568636,A,901.838875026442,Correct,sub_011_day_07_data.csv,1,300,59.0,Training at home,,,,,,,,,,,,,
11,7,1491,A,56.52748411983528,77.04309753875813,2.8263742059917636,1.210190146187822,A,477.82887500943616,Correct,sub_011_day_07_data.csv,1,300,59.0,Training at home,,,,,,,,,,,,,
11,7,1492,B,45.995857048242776,20.1918232606136,2.2997928524121387,0.3171724180906359,B,589.507374970708,Correct,sub_011_day_07_data.csv,1,300,59.0,Training at home,,,,,,,,,,,,,
11,7,1493,B,51.644222712536006,41.97906610508385,2.5822111356268005,0.6594056284014586,B,650.0944999861531,Correct,sub_011_day_07_data.csv,1,300,59.0,Training at home,,,,,,,,,,,,,
11,7,1494,A,34.89825859218606,43.284161908769626,1.744912929609303,0.679906025346909,B,609.352333995048,Incorrect,sub_011_day_07_data.csv,0,300,59.0,Training at home,,,,,,,,,,,,,
11,7,1495,B,69.1800261888953,50.32125592076217,3.4590013094447647,0.7904444396003915,B,474.7539579984732,Correct,sub_011_day_07_data.csv,1,300,59.0,Training at home,,,,,,,,,,,,,
11,7,1496,B,53.25040020063399,24.889228709012265,2.6625200100316992,0.3909590903287455,B,449.26466699689627,Correct,sub_011_day_07_data.csv,1,300,59.0,Training at home,,,,,,,,,,,,,
11,7,1497,A,68.1011587174226,86.800828889696,3.40505793587113,1.3634642318268682,A,567.707582958974,Correct,sub_011_day_07_data.csv,1,300,59.0,Training at home,,,,,,,,,,,,,
11,7,1498,A,57.495565560787085,65.78184099969505,2.8747782780393543,1.0332987421212692,A,816.6629589977674,Correct,sub_011_day_07_data.csv,1,300,59.0,Training at home,,,,,,,,,,,,,
11,7,1499,A,25.783715535300303,56.04978695448705,1.2891857767650154,0.8804279946574477,A,488.3235419983976,Correct,sub_011_day_07_data.csv,1,300,59.0,Training at home,,,,,,,,,,,,,
