subject,day,trial,cat,x,y,xt,yt,resp,rt,fb,f_name,acc,n_trials,block,session_type,ns_left_digit,ns_right_digit,ns_left_size,ns_right_size,ns_congruent,ns_cue,ns_correct_side,ns_resp,ns_rt,ns_fb,acc_stroop,acc_stroop_mean,resp_key
7,5,900,B,68.81819518507339,55.6849423106752,3.4409097592536693,0.8746970283939431,A,1192.325416021049,Incorrect,sub_007_day_05_data.csv,0,300,36.0,Training at home,,,,,,,,,,,,,
7,5,901,A,63.85510870182055,89.18262473762192,3.1927554350910277,1.4008773935178418,A,544.1212080186233,Correct,sub_007_day_05_data.csv,1,300,36.0,Training at home,,,,,,,,,,,,,
7,5,902,A,24.69744798744692,56.73631217093786,1.234872399372346,0.8912119075399777,A,550.4862070083618,Correct,sub_007_day_05_data.csv,1,300,36.0,Training at home,,,,,,,,,,,,,
7,5,903,A,18.988773398795946,33.15871030655872,0.9494386699397972,0.5208558035079851,A,479.89549895282835,Correct,sub_007_day_05_data.csv,1,300,36.0,Training at home,,,,,,,,,,,,,
7,5,904,B,75.72776772892013,47.88226048995961,3.7863883864460064,0.7521327889626497,B,839.6597909741104,Correct,sub_007_day_05_data.csv,1,300,36.0,Training at home,,,,,,,,,,,,,
7,5,905,B,35.84675820915071,25.97388257976053,1.7923379104575354,0.4079967934888979,B,847.8851660038345,Correct,sub_007_day_05_data.csv,1,300,36.0,Training at home,,,,,,,,,,,,,
7,5,906,B,40.92548621515503,13.835094878946135,2.046274310757752,0.2173211621670747,B,565.4670830117539,Correct,sub_007_day_05_data.csv,1,300,36.0,Training at home,,,,,,,,,,,,,
7,5,907,B,67.89931187719345,38.315981508214826,3.394965593859673,0.6018660301064502,B,1994.9512489838528,Correct,sub_007_day_05_data.csv,1,300,36.0,Training at home,,,,,,,,,,,,,
7,5,908,A,23.09474054329584,35.01296694118403,1.154737027164792,0.5499823986140302,A,810.8313750126399,Correct,sub_007_day_05_data.csv,1,300,36.0,Training at home,,,,,,,,,,,,,
7,5,909,A,14.051835233967608,42.01598325951105,0.7025917616983804,0.6599855217071583,A,562.2122490312904,Correct,sub_007_day_05_data.csv,1,300,36.0,Training at home,,,,,,,,,,,,,
7,5,910,A,34.273862262068675,67.14368008166012,1.713693113103434,1.0546904603976337,A,583.5544160217978,Correct,sub_007_day_05_data.csv,1,300,36.0,Training at home,,,,,,,,,,,,,
7,5,911,B,68.13197268917156,49.88110656759862,3.406598634458578,0.7835305897284872,B,636.0564160277136,Correct,sub_007_day_05_data.csv,1,300,36.0,Training at home,,,,,,,,,,,,,
7,5,912,A,37.27978979762774,66.67546517304751,1.8639894898813871,1.047335757811641,A,544.457707030233,Correct,sub_007_day_05_data.csv,1,300,36.0,Training at home,,,,,,,,,,,,,
7,5,913,B,76.0562690605583,64.73110983908155,3.8028134530279143,1.0167938956458629,B,655.5644570034929,Correct,sub_007_day_05_data.csv,1,300,36.0,Training at home,,,,,,,,,,,,,
7,5,914,B,44.27056110801183,22.17337732338646,2.213528055400592,0.3482985965221271,B,576.1180410045199,Correct,sub_007_day_05_data.csv,1,300,36.0,Training at home,,,,,,,,,,,,,
7,5,915,B,69.57170891734299,47.97540485703244,3.4785854458671497,0.753595897259246,B,793.8841240247712,Correct,sub_007_day_05_data.csv,1,300,36.0,Training at home,,,,,,,,,,,,,
7,5,916,A,26.777644516621596,40.497408168473626,1.33888222583108,0.6361317999575201,A,529.6450830064714,Correct,sub_007_day_05_data.csv,1,300,36.0,Training at home,,,,,,,,,,,,,
7,5,917,B,76.82838493717037,48.6322535894931,3.841419246858518,0.7639136530213368,B,666.5740820462815,Correct,sub_007_day_05_data.csv,1,300,36.0,Training at home,,,,,,,,,,,,,
7,5,918,B,79.71234229580729,54.649727683093296,3.985617114790364,0.8584359150494434,B,953.8672489579768,Correct,sub_007_day_05_data.csv,1,300,36.0,Training at home,,,,,,,,,,,,,
7,5,919,A,18.358959252820913,34.96551766127534,0.9179479626410456,0.5492370670681339,A,706.7020409740508,Correct,sub_007_day_05_data.csv,1,300,36.0,Training at home,,,,,,,,,,,,,
7,5,920,A,60.501938441709214,69.32979771118262,3.025096922085461,1.0890299158215888,A,807.0022069732659,Correct,sub_007_day_05_data.csv,1,300,36.0,Training at home,,,,,,,,,,,,,
7,5,921,B,81.05973979525628,55.38126594425766,4.052986989762814,0.8699268911849125,B,535.4732909472659,Correct,sub_007_day_05_data.csv,1,300,36.0,Training at home,,,,,,,,,,,,,
7,5,922,A,28.93802696734412,56.413478473368215,1.446901348367206,0.8861408476768975,A,623.2988329720683,Correct,sub_007_day_05_data.csv,1,300,36.0,Training at home,,,,,,,,,,,,,
7,5,923,B,71.80972657678142,55.04861325525731,3.590486328839071,0.8647015949651102,B,1427.8319580480456,Correct,sub_007_day_05_data.csv,1,300,36.0,Training at home,,,,,,,,,,,,,
7,5,924,A,33.22684400838496,42.65923940768563,1.6613422004192475,0.670089765654567,A,1194.6525410166942,Correct,sub_007_day_05_data.csv,1,300,36.0,Training at home,,,,,,,,,,,,,
7,5,925,B,63.09880224333271,47.76860230875564,3.154940112166636,0.7503474504271955,B,1787.6316659967415,Correct,sub_007_day_05_data.csv,1,300,37.0,Training at home,,,,,,,,,,,,,
7,5,926,A,33.7447320104219,41.801191827740574,1.687236600521095,0.6566115857866374,A,1286.2234159838408,Correct,sub_007_day_05_data.csv,1,300,37.0,Training at home,,,,,,,,,,,,,
7,5,927,B,69.38086022672418,58.5452174323876,3.469043011336209,0.9196261249420298,B,1092.3551250016317,Correct,sub_007_day_05_data.csv,1,300,37.0,Training at home,,,,,,,,,,,,,
7,5,928,B,55.499440397777455,43.98627795845794,2.7749720198888728,0.6909348384652505,A,2483.257041021716,Incorrect,sub_007_day_05_data.csv,0,300,37.0,Training at home,,,,,,,,,,,,,
7,5,929,B,40.801289492927346,31.03080128070227,2.040064474646367,0.4874306866922949,A,587.5668739899993,Incorrect,sub_007_day_05_data.csv,0,300,37.0,Training at home,,,,,,,,,,,,,
7,5,930,A,57.30847707012377,84.75970974913557,2.8654238535061887,1.3314024073414374,A,965.092791011557,Correct,sub_007_day_05_data.csv,1,300,37.0,Training at home,,,,,,,,,,,,,
7,5,931,B,47.722642995986774,23.435661507893855,2.386132149799338,0.3681265101260821,B,588.7835409957916,Correct,sub_007_day_05_data.csv,1,300,37.0,Training at home,,,,,,,,,,,,,
7,5,932,A,63.819870134778824,82.97668593090201,3.1909935067389417,1.3033947346987464,A,1615.1621660101227,Correct,sub_007_day_05_data.csv,1,300,37.0,Training at home,,,,,,,,,,,,,
7,5,933,A,11.138497841724668,35.613115720012544,0.5569248920862334,0.5594095135871728,A,600.3248319611885,Correct,sub_007_day_05_data.csv,1,300,37.0,Training at home,,,,,,,,,,,,,
7,5,934,B,51.751461692961925,33.191168959603935,2.5875730846480964,0.5213656628377465,B,1052.5248320191167,Correct,sub_007_day_05_data.csv,1,300,37.0,Training at home,,,,,,,,,,,,,
7,5,935,A,48.81615930123496,55.90277088330405,2.440807965061748,0.8781186716115068,A,878.6486239987426,Correct,sub_007_day_05_data.csv,1,300,37.0,Training at home,,,,,,,,,,,,,
7,5,936,A,31.135257549913213,50.636756617189334,1.5567628774956606,0.7954003129508819,A,533.4056239807978,Correct,sub_007_day_05_data.csv,1,300,37.0,Training at home,,,,,,,,,,,,,
7,5,937,A,26.969975429516992,59.177810553389605,1.3484987714758494,0.9295628744502864,A,509.8166239913553,Correct,sub_007_day_05_data.csv,1,300,37.0,Training at home,,,,,,,,,,,,,
7,5,938,B,47.309146787234766,31.59044905662373,2.3654573393617384,0.4962216133994586,B,624.1289990139194,Correct,sub_007_day_05_data.csv,1,300,37.0,Training at home,,,,,,,,,,,,,
7,5,939,B,71.23263570299218,54.723494522676006,3.561631785149609,0.859594641856001,B,581.0614160145633,Correct,sub_007_day_05_data.csv,1,300,37.0,Training at home,,,,,,,,,,,,,
7,5,940,B,67.2362536533649,34.56970845182868,3.3618126826682446,0.5430197105450298,B,578.665750043001,Correct,sub_007_day_05_data.csv,1,300,37.0,Training at home,,,,,,,,,,,,,
7,5,941,B,47.930468364189906,32.90861501461063,2.396523418209495,0.5169273158485777,B,649.4251250405796,Correct,sub_007_day_05_data.csv,1,300,37.0,Training at home,,,,,,,,,,,,,
7,5,942,B,57.375129784583166,26.45341837547831,2.8687564892291584,0.4155293241536995,B,683.2721660030074,Correct,sub_007_day_05_data.csv,1,300,37.0,Training at home,,,,,,,,,,,,,
7,5,943,A,28.22387650762588,47.01849346854935,1.411193825381294,0.7385647683182716,A,587.411750049796,Correct,sub_007_day_05_data.csv,1,300,37.0,Training at home,,,,,,,,,,,,,
7,5,944,B,73.9701677235658,42.746270477857365,3.6985083861782897,0.6714568465079946,B,668.2553330319934,Correct,sub_007_day_05_data.csv,1,300,37.0,Training at home,,,,,,,,,,,,,
7,5,945,B,45.50130639911015,36.84658389197548,2.2750653199555075,0.5787847863245509,B,1219.5036240154875,Correct,sub_007_day_05_data.csv,1,300,37.0,Training at home,,,,,,,,,,,,,
7,5,946,B,32.79749990612666,10.976020771071358,1.639874995306333,0.1724109311002337,B,710.6754570268095,Correct,sub_007_day_05_data.csv,1,300,37.0,Training at home,,,,,,,,,,,,,
7,5,947,A,53.86985983791152,76.47925031174442,2.693492991895576,1.201333254657156,B,923.01516601583,Incorrect,sub_007_day_05_data.csv,0,300,37.0,Training at home,,,,,,,,,,,,,
7,5,948,A,32.47988360996802,57.60439088533517,1.623994180498401,0.9048476560994192,A,429.1571659850888,Correct,sub_007_day_05_data.csv,1,300,37.0,Training at home,,,,,,,,,,,,,
7,5,949,A,33.10530667202343,47.67118351507568,1.6552653336011716,0.748817199594463,A,561.0909580136649,Correct,sub_007_day_05_data.csv,1,300,37.0,Training at home,,,,,,,,,,,,,
7,5,950,A,24.625839623571448,55.70800037353131,1.2312919811785723,0.8750592235983171,A,572.4678330007009,Correct,sub_007_day_05_data.csv,1,300,38.0,Training at home,,,,,,,,,,,,,
7,5,951,B,31.35633559953295,14.633640351159467,1.5678167799766476,0.2298646851123887,B,614.6763740107417,Correct,sub_007_day_05_data.csv,1,300,38.0,Training at home,,,,,,,,,,,,,
7,5,952,B,72.11662110661672,43.75714793248308,3.605831055330836,0.6873356724336532,B,736.3309999927878,Correct,sub_007_day_05_data.csv,1,300,38.0,Training at home,,,,,,,,,,,,,
7,5,953,A,51.40836086137611,59.549117087257216,2.570418043068805,0.9353953438454284,A,1103.2823749701492,Correct,sub_007_day_05_data.csv,1,300,38.0,Training at home,,,,,,,,,,,,,
7,5,954,B,46.52500322356498,33.93210451472563,2.326250161178249,0.5330042513215154,B,1176.4265410020016,Correct,sub_007_day_05_data.csv,1,300,38.0,Training at home,,,,,,,,,,,,,
7,5,955,B,66.12990343155562,44.04948140192389,3.306495171577781,0.6919276358336216,B,749.2200409760699,Correct,sub_007_day_05_data.csv,1,300,38.0,Training at home,,,,,,,,,,,,,
7,5,956,B,77.59464666569934,51.50705386429212,3.879732333284967,0.8090709101405693,B,763.3207910112105,Correct,sub_007_day_05_data.csv,1,300,38.0,Training at home,,,,,,,,,,,,,
7,5,957,A,18.712016194283752,39.88621335644653,0.9356008097141876,0.6265311743006375,A,487.34154098201543,Correct,sub_007_day_05_data.csv,1,300,38.0,Training at home,,,,,,,,,,,,,
7,5,958,B,65.75223352904598,44.514490813788726,3.2876116764522987,0.699231986594445,B,1172.0078740036115,Correct,sub_007_day_05_data.csv,1,300,38.0,Training at home,,,,,,,,,,,,,
7,5,959,A,23.137336085857555,36.83158350195491,1.1568668042928778,0.5785491607491028,A,545.6523740431294,Correct,sub_007_day_05_data.csv,1,300,38.0,Training at home,,,,,,,,,,,,,
7,5,960,A,31.943680802593015,63.56839323522987,1.5971840401296509,0.9985299859415262,A,608.3904579863884,Correct,sub_007_day_05_data.csv,1,300,38.0,Training at home,,,,,,,,,,,,,
7,5,961,B,65.71738993545756,56.10042144248551,3.285869496772878,0.8812233593350189,B,792.4784159986302,Correct,sub_007_day_05_data.csv,1,300,38.0,Training at home,,,,,,,,,,,,,
7,5,962,B,50.82707525909714,38.3790103014551,2.541353762954857,0.6028560840754916,B,2612.71520802984,Correct,sub_007_day_05_data.csv,1,300,38.0,Training at home,,,,,,,,,,,,,
7,5,963,A,53.08331057098902,71.88395898092773,2.654165528549451,1.1291505872271632,B,1173.2210819609463,Incorrect,sub_007_day_05_data.csv,0,300,38.0,Training at home,,,,,,,,,,,,,
7,5,964,B,35.76229788072618,11.061482326319464,1.788114894036309,0.1737533580708928,B,560.2472079917789,Correct,sub_007_day_05_data.csv,1,300,38.0,Training at home,,,,,,,,,,,,,
7,5,965,A,26.753106897378352,36.95951435815253,1.3376553448689177,0.5805586939390923,A,765.0504159973934,Correct,sub_007_day_05_data.csv,1,300,38.0,Training at home,,,,,,,,,,,,,
7,5,966,A,25.85546397664438,54.89379320721084,1.292773198832219,0.8622696873372544,A,946.2123319972306,Correct,sub_007_day_05_data.csv,1,300,38.0,Training at home,,,,,,,,,,,,,
7,5,967,A,62.18021954782098,84.34078842233701,3.109010977391049,1.324822006527925,A,1112.0415409677662,Correct,sub_007_day_05_data.csv,1,300,38.0,Training at home,,,,,,,,,,,,,
7,5,968,B,64.9649542592664,35.79825403324584,3.24824771296332,0.5623176594109316,B,507.98424903769046,Correct,sub_007_day_05_data.csv,1,300,38.0,Training at home,,,,,,,,,,,,,
7,5,969,A,35.37579763142366,45.10253244826811,1.768789881571183,0.7084689229888717,A,720.6112910062075,Correct,sub_007_day_05_data.csv,1,300,38.0,Training at home,,,,,,,,,,,,,
7,5,970,A,27.754071360906245,55.61667683089688,1.3877035680453125,0.8736247167451163,A,542.2895409865305,Correct,sub_007_day_05_data.csv,1,300,38.0,Training at home,,,,,,,,,,,,,
7,5,971,B,83.83819387460092,64.3031922133454,4.191909693730046,1.0100721812990916,B,899.2019579745829,Correct,sub_007_day_05_data.csv,1,300,38.0,Training at home,,,,,,,,,,,,,
7,5,972,A,50.58835070115002,73.7148921982617,2.529417535057501,1.1579108189511125,A,734.1641659731977,Correct,sub_007_day_05_data.csv,1,300,38.0,Training at home,,,,,,,,,,,,,
7,5,973,A,27.774205358191328,53.58960058437942,1.3887102679095664,0.8417834775234885,A,579.141749010887,Correct,sub_007_day_05_data.csv,1,300,38.0,Training at home,,,,,,,,,,,,,
7,5,974,B,84.19898225375181,57.76923524115572,4.209949112687591,0.9074370251855768,B,634.3256660038605,Correct,sub_007_day_05_data.csv,1,300,38.0,Training at home,,,,,,,,,,,,,
7,5,975,B,84.80446018181362,68.71552324382148,4.240223009090681,1.0793809150518412,B,641.2736240308732,Correct,sub_007_day_05_data.csv,1,300,39.0,Training at home,,,,,,,,,,,,,
7,5,976,B,47.14659991952056,39.26710338440839,2.357329995976028,0.6168062176010414,B,836.0809159930795,Correct,sub_007_day_05_data.csv,1,300,39.0,Training at home,,,,,,,,,,,,,
7,5,977,B,65.70736924107689,32.66373821496075,3.2853684620538446,0.5130808000745044,B,666.103916009888,Correct,sub_007_day_05_data.csv,1,300,39.0,Training at home,,,,,,,,,,,,,
7,5,978,A,44.59512086778223,71.51651666254553,2.229756043389111,1.1233788167869252,A,573.2711659511551,Correct,sub_007_day_05_data.csv,1,300,39.0,Training at home,,,,,,,,,,,,,
7,5,979,B,66.61611529745518,44.64584394738579,3.3308057648727587,0.7012952767921177,B,655.5897910147905,Correct,sub_007_day_05_data.csv,1,300,39.0,Training at home,,,,,,,,,,,,,
7,5,980,A,30.393802246615387,47.85241852587445,1.5196901123307691,0.7516640324869563,A,657.6011659926735,Correct,sub_007_day_05_data.csv,1,300,39.0,Training at home,,,,,,,,,,,,,
7,5,981,B,56.208911361487694,27.471771830049416,2.810445568074385,0.4315255828118913,B,610.0723320269026,Correct,sub_007_day_05_data.csv,1,300,39.0,Training at home,,,,,,,,,,,,,
7,5,982,A,40.82752988304989,57.464383994530735,2.041376494152494,0.9026484330014032,A,1127.4798330268825,Correct,sub_007_day_05_data.csv,1,300,39.0,Training at home,,,,,,,,,,,,,
7,5,983,A,63.20168245016653,78.45807316455944,3.1600841225083265,1.232416531342952,A,1063.75183199998,Correct,sub_007_day_05_data.csv,1,300,39.0,Training at home,,,,,,,,,,,,,
7,5,984,B,50.59342743827986,37.70268909553629,2.529671371913993,0.5922324554155841,B,592.329790990334,Correct,sub_007_day_05_data.csv,1,300,39.0,Training at home,,,,,,,,,,,,,
7,5,985,A,44.632842108890905,58.36736820130254,2.2316421054445454,0.9168324757529128,A,993.223041004967,Correct,sub_007_day_05_data.csv,1,300,39.0,Training at home,,,,,,,,,,,,,
7,5,986,B,65.13013381927108,44.69173899924476,3.256506690963554,0.7020161945808989,B,715.9390819724649,Correct,sub_007_day_05_data.csv,1,300,39.0,Training at home,,,,,,,,,,,,,
7,5,987,A,25.159054387592352,53.428303010494446,1.2579527193796176,0.8392498211576939,A,542.7974570193328,Correct,sub_007_day_05_data.csv,1,300,39.0,Training at home,,,,,,,,,,,,,
7,5,988,B,59.88936094781409,40.30634593434623,2.9944680473907046,0.6331306014019547,B,753.1370819779113,Correct,sub_007_day_05_data.csv,1,300,39.0,Training at home,,,,,,,,,,,,,
7,5,989,B,38.620514578760904,15.327270610909586,1.931025728938045,0.2407602037540814,B,801.213541009929,Correct,sub_007_day_05_data.csv,1,300,39.0,Training at home,,,,,,,,,,,,,
7,5,990,A,61.25330462030192,76.31569721557982,3.0626652310150964,1.198764168630243,A,1158.54729100829,Correct,sub_007_day_05_data.csv,1,300,39.0,Training at home,,,,,,,,,,,,,
7,5,991,A,15.781818122853243,44.81269324981833,0.7890909061426623,0.703916139506011,A,1468.3722489862705,Correct,sub_007_day_05_data.csv,1,300,39.0,Training at home,,,,,,,,,,,,,
7,5,992,A,37.89075938097318,62.80753845855465,1.894537969048659,0.9865785070572684,A,681.9064580486156,Correct,sub_007_day_05_data.csv,1,300,39.0,Training at home,,,,,,,,,,,,,
7,5,993,A,38.4711041074949,60.95344566154113,1.9235552053747451,0.9574544855064114,A,735.3378320112824,Correct,sub_007_day_05_data.csv,1,300,39.0,Training at home,,,,,,,,,,,,,
7,5,994,A,38.51645612454014,65.67040330428202,1.9258228062270069,1.0315482828950564,A,751.4962070272304,Correct,sub_007_day_05_data.csv,1,300,39.0,Training at home,,,,,,,,,,,,,
7,5,995,B,68.67813404384557,42.54453053063272,3.433906702192279,0.6682879228273121,B,2429.103498987388,Correct,sub_007_day_05_data.csv,1,300,39.0,Training at home,,,,,,,,,,,,,
7,5,996,A,27.83517553527892,47.748508605575424,1.391758776763946,0.7500318192757239,A,862.4166660010815,Correct,sub_007_day_05_data.csv,1,300,39.0,Training at home,,,,,,,,,,,,,
7,5,997,B,70.90483238508078,61.620012469371,3.545241619254039,0.9679248924394368,B,2048.088207026012,Correct,sub_007_day_05_data.csv,1,300,39.0,Training at home,,,,,,,,,,,,,
7,5,998,B,59.58485076634265,52.47919765194192,2.9792425383171324,0.8243413090481373,B,1419.04537496157,Correct,sub_007_day_05_data.csv,1,300,39.0,Training at home,,,,,,,,,,,,,
7,5,999,B,35.32268953938804,11.678752878042529,1.7661344769694016,0.1834494212237452,B,668.2397910044529,Correct,sub_007_day_05_data.csv,1,300,39.0,Training at home,,,,,,,,,,,,,
7,5,1000,A,24.174841404691147,55.481362299765486,1.2087420702345577,0.8714992010604847,A,846.1357079795562,Correct,sub_007_day_05_data.csv,1,300,40.0,Training at home,,,,,,,,,,,,,
7,5,1001,A,62.76923813070002,72.82006809653231,3.1384619065350012,1.143854954829872,A,1097.742915968411,Correct,sub_007_day_05_data.csv,1,300,40.0,Training at home,,,,,,,,,,,,,
7,5,1002,B,80.60023435083649,60.10987372534632,4.030011717541824,0.9442036885187908,B,716.9304580311291,Correct,sub_007_day_05_data.csv,1,300,40.0,Training at home,,,,,,,,,,,,,
7,5,1003,B,83.93782003617383,57.846446774538805,4.196891001808692,0.9086498611158206,B,778.1352080055512,Correct,sub_007_day_05_data.csv,1,300,40.0,Training at home,,,,,,,,,,,,,
7,5,1004,B,36.63790178766374,18.60945624090628,1.8318950893831871,0.2923166550686594,B,824.3529570172541,Correct,sub_007_day_05_data.csv,1,300,40.0,Training at home,,,,,,,,,,,,,
7,5,1005,B,40.62265682167447,14.5575781639186,2.0311328410837235,0.2286699030691293,B,1516.814124013763,Correct,sub_007_day_05_data.csv,1,300,40.0,Training at home,,,,,,,,,,,,,
7,5,1006,A,31.17213911398654,46.378239889739106,1.558606955699327,0.7285076886201473,A,1273.2856659567915,Correct,sub_007_day_05_data.csv,1,300,40.0,Training at home,,,,,,,,,,,,,
7,5,1007,B,50.15637008930641,22.939463118392325,2.50781850446532,0.3603322440501766,B,601.309999008663,Correct,sub_007_day_05_data.csv,1,300,40.0,Training at home,,,,,,,,,,,,,
7,5,1008,B,80.89656341355891,59.24153852080741,4.044828170677945,0.9305639110216264,B,665.62324995175,Correct,sub_007_day_05_data.csv,1,300,40.0,Training at home,,,,,,,,,,,,,
7,5,1009,A,27.49063573331644,38.07089923709988,1.374531786665822,0.5980162867941512,A,567.6299159531482,Correct,sub_007_day_05_data.csv,1,300,40.0,Training at home,,,,,,,,,,,,,
7,5,1010,B,66.02571314396876,48.47130067402283,3.301285657198438,0.7613854105372605,A,829.2457080096938,Incorrect,sub_007_day_05_data.csv,0,300,40.0,Training at home,,,,,,,,,,,,,
7,5,1011,A,45.7029549939606,74.80396864744367,2.28514774969803,1.1750179918108512,A,559.4092499813996,Correct,sub_007_day_05_data.csv,1,300,40.0,Training at home,,,,,,,,,,,,,
7,5,1012,B,80.55783000184816,58.625015043788025,4.027891500092408,0.9208795828907778,B,491.192499990575,Correct,sub_007_day_05_data.csv,1,300,40.0,Training at home,,,,,,,,,,,,,
7,5,1013,A,36.38842003125076,47.480543108186296,1.8194210015625376,0.7458226270856577,A,758.1941660027951,Correct,sub_007_day_05_data.csv,1,300,40.0,Training at home,,,,,,,,,,,,,
7,5,1014,B,78.55913965049258,60.69422875037324,3.9279569825246288,0.9533827157873548,B,1108.3236659760587,Correct,sub_007_day_05_data.csv,1,300,40.0,Training at home,,,,,,,,,,,,,
7,5,1015,A,38.48352785644345,59.11920970915218,1.924176392822173,0.9286423745415344,A,578.4026249893941,Correct,sub_007_day_05_data.csv,1,300,40.0,Training at home,,,,,,,,,,,,,
7,5,1016,B,40.36468069323059,30.485682579271263,2.0182340346615297,0.4788679821535447,B,852.142832998652,Correct,sub_007_day_05_data.csv,1,300,40.0,Training at home,,,,,,,,,,,,,
7,5,1017,A,18.159744436525127,45.110766575036386,0.9079872218262564,0.7085982643496914,A,708.3121660398319,Correct,sub_007_day_05_data.csv,1,300,40.0,Training at home,,,,,,,,,,,,,
7,5,1018,A,40.64213486803912,69.51884062335061,2.032106743401956,1.0919993949419895,A,690.7590830232948,Correct,sub_007_day_05_data.csv,1,300,40.0,Training at home,,,,,,,,,,,,,
7,5,1019,A,34.16526334973261,55.34046660003192,1.7082631674866309,0.8692860165844578,A,877.95824900968,Correct,sub_007_day_05_data.csv,1,300,40.0,Training at home,,,,,,,,,,,,,
7,5,1020,A,11.161393022458586,30.941936932429464,0.5580696511229293,0.4860348087737954,A,584.5076250261627,Correct,sub_007_day_05_data.csv,1,300,40.0,Training at home,,,,,,,,,,,,,
7,5,1021,B,76.463104296209,64.71303050927408,3.8231552148104497,1.016509906197338,B,1424.495790968649,Correct,sub_007_day_05_data.csv,1,300,40.0,Training at home,,,,,,,,,,,,,
7,5,1022,B,85.55866296687144,65.61597761528176,4.277933148343572,1.0306933661714075,B,717.4810409778729,Correct,sub_007_day_05_data.csv,1,300,40.0,Training at home,,,,,,,,,,,,,
7,5,1023,B,40.92796266543135,14.486379332320269,2.0463981332715675,0.2275515144376618,B,632.2280819877051,Correct,sub_007_day_05_data.csv,1,300,40.0,Training at home,,,,,,,,,,,,,
7,5,1024,B,42.27423468972728,17.482101503703,2.113711734486364,0.2746082082667221,B,660.9173319884576,Correct,sub_007_day_05_data.csv,1,300,40.0,Training at home,,,,,,,,,,,,,
7,5,1025,B,41.6486256403677,18.383414838340165,2.082431282018385,0.2887660050201153,B,645.4200830194168,Correct,sub_007_day_05_data.csv,1,300,41.0,Training at home,,,,,,,,,,,,,
7,5,1026,A,32.4902814059221,62.90982823046656,1.624514070296105,0.9881852710371476,A,617.7420830354095,Correct,sub_007_day_05_data.csv,1,300,41.0,Training at home,,,,,,,,,,,,,
7,5,1027,A,10.970353852492313,36.95507561229662,0.5485176926246156,0.5804889702822319,A,671.6185410041362,Correct,sub_007_day_05_data.csv,1,300,41.0,Training at home,,,,,,,,,,,,,
7,5,1028,B,65.54977661256574,49.279837004395205,3.2774888306282866,0.774085869515552,B,1062.4820409575475,Correct,sub_007_day_05_data.csv,1,300,41.0,Training at home,,,,,,,,,,,,,
7,5,1029,A,13.814706865455562,33.40592657986947,0.6907353432727781,0.5247390676483897,A,506.6018319921568,Correct,sub_007_day_05_data.csv,1,300,41.0,Training at home,,,,,,,,,,,,,
7,5,1030,A,67.44684001749451,82.51367514950762,3.372342000874726,1.296121778351939,A,822.7816239814274,Correct,sub_007_day_05_data.csv,1,300,41.0,Training at home,,,,,,,,,,,,,
7,5,1031,A,63.556763016351454,83.04855826524185,3.1778381508175726,1.3045237026865384,A,804.7078750096262,Correct,sub_007_day_05_data.csv,1,300,41.0,Training at home,,,,,,,,,,,,,
7,5,1032,A,56.89934765041203,79.04032018866849,2.8449673825206014,1.2415624462105297,A,1202.0494159660302,Correct,sub_007_day_05_data.csv,1,300,41.0,Training at home,,,,,,,,,,,,,
7,5,1033,B,68.93109765286792,36.328644372590304,3.446554882643396,0.5706490113790295,B,875.241375004407,Correct,sub_007_day_05_data.csv,1,300,41.0,Training at home,,,,,,,,,,,,,
7,5,1034,A,56.35903525218183,72.00099502837129,2.8179517626090917,1.1309889851614323,A,582.6097499812022,Correct,sub_007_day_05_data.csv,1,300,41.0,Training at home,,,,,,,,,,,,,
7,5,1035,B,45.80485343527951,28.659299559883824,2.2902426717639757,0.450179224771801,B,825.7225410197861,Correct,sub_007_day_05_data.csv,1,300,41.0,Training at home,,,,,,,,,,,,,
7,5,1036,B,43.537824636095934,24.762698317194634,2.1768912318047966,0.3889715555817949,B,506.3833750318736,Correct,sub_007_day_05_data.csv,1,300,41.0,Training at home,,,,,,,,,,,,,
7,5,1037,B,42.748893429034354,16.63181915971093,2.1374446714517177,0.2612520044399091,B,563.2572910399176,Correct,sub_007_day_05_data.csv,1,300,41.0,Training at home,,,,,,,,,,,,,
7,5,1038,B,37.8142403666735,11.299218479712543,1.8907120183336752,0.1774877088358548,B,577.0811249967664,Correct,sub_007_day_05_data.csv,1,300,41.0,Training at home,,,,,,,,,,,,,
7,5,1039,A,37.31400475527016,47.44318535869588,1.865700237763508,0.7452358129288892,A,1669.239540991839,Correct,sub_007_day_05_data.csv,1,300,41.0,Training at home,,,,,,,,,,,,,
7,5,1040,B,68.04875035962218,47.67637977002166,3.402437517981109,0.7488988221762856,B,1237.7056240220554,Correct,sub_007_day_05_data.csv,1,300,41.0,Training at home,,,,,,,,,,,,,
7,5,1041,B,49.92464154863133,30.302398919993593,2.496232077431566,0.4759889691659958,A,750.5974580417387,Incorrect,sub_007_day_05_data.csv,0,300,41.0,Training at home,,,,,,,,,,,,,
7,5,1042,B,51.17950001012755,44.15091044011653,2.5589750005063774,0.693520879439855,B,2292.8439999814145,Correct,sub_007_day_05_data.csv,1,300,41.0,Training at home,,,,,,,,,,,,,
7,5,1043,B,30.486373314230537,15.531945976857417,1.5243186657115269,0.243975236884244,B,703.7449160125107,Correct,sub_007_day_05_data.csv,1,300,41.0,Training at home,,,,,,,,,,,,,
7,5,1044,A,12.098847607987857,34.29423738099263,0.6049423803993929,0.5386926210829546,A,698.2034160173498,Correct,sub_007_day_05_data.csv,1,300,41.0,Training at home,,,,,,,,,,,,,
7,5,1045,B,39.28976038775187,14.884503268278266,1.9644880193875935,0.2338052305997813,B,764.7923750337213,Correct,sub_007_day_05_data.csv,1,300,41.0,Training at home,,,,,,,,,,,,,
7,5,1046,A,48.41142052437759,55.04886701890233,2.42057102621888,0.864705581075125,A,744.6877500042319,Correct,sub_007_day_05_data.csv,1,300,41.0,Training at home,,,,,,,,,,,,,
7,5,1047,B,35.52656876600039,14.170366803465573,1.7763284383000195,0.2225876012422006,B,518.3039160328917,Correct,sub_007_day_05_data.csv,1,300,41.0,Training at home,,,,,,,,,,,,,
7,5,1048,A,19.176377307927083,48.84519997464409,0.9588188653963542,0.7672586070173312,A,644.8467079899274,Correct,sub_007_day_05_data.csv,1,300,41.0,Training at home,,,,,,,,,,,,,
7,5,1049,B,65.03651312782026,41.535160865273454,3.2518256563910133,0.6524327812000668,B,951.3612079899758,Correct,sub_007_day_05_data.csv,1,300,41.0,Training at home,,,,,,,,,,,,,
7,5,1050,A,42.36271021027288,69.83968075291708,2.1181355105136443,1.0970391399121038,A,785.7508329907432,Correct,sub_007_day_05_data.csv,1,300,42.0,Training at home,,,,,,,,,,,,,
7,5,1051,A,38.64152071249499,62.65471269593561,1.9320760356247493,0.9841779255916524,A,1557.9384160228074,Correct,sub_007_day_05_data.csv,1,300,42.0,Training at home,,,,,,,,,,,,,
7,5,1052,A,44.88347972876826,51.74075631830317,2.244173986438413,0.8127418997038046,A,1067.0423330157064,Correct,sub_007_day_05_data.csv,1,300,42.0,Training at home,,,,,,,,,,,,,
7,5,1053,A,47.78016530073353,73.07591037960962,2.3890082650366766,1.147873716014839,A,1564.1063750372268,Correct,sub_007_day_05_data.csv,1,300,42.0,Training at home,,,,,,,,,,,,,
7,5,1054,A,41.299899098212585,53.05795066691447,2.0649949549106292,0.8334323401485407,A,885.5429160175845,Correct,sub_007_day_05_data.csv,1,300,42.0,Training at home,,,,,,,,,,,,,
7,5,1055,A,50.95269477394753,59.40823367224417,2.547634738697377,0.9331823523373404,A,684.8615410272032,Correct,sub_007_day_05_data.csv,1,300,42.0,Training at home,,,,,,,,,,,,,
7,5,1056,B,36.63543436583428,15.48629105129802,1.831771718291714,0.2432580909905561,B,647.393082967028,Correct,sub_007_day_05_data.csv,1,300,42.0,Training at home,,,,,,,,,,,,,
7,5,1057,B,38.03908888345441,16.628039406940424,1.9019544441727203,0.2611926322222281,B,1078.6734989960678,Correct,sub_007_day_05_data.csv,1,300,42.0,Training at home,,,,,,,,,,,,,
7,5,1058,A,12.328210162354395,39.93582001144895,0.6164105081177198,0.6273103938152614,A,486.04754102416337,Correct,sub_007_day_05_data.csv,1,300,42.0,Training at home,,,,,,,,,,,,,
7,5,1059,A,15.85142702754244,35.49963866913751,0.792571351377122,0.5576270202402727,A,563.0583320162259,Correct,sub_007_day_05_data.csv,1,300,42.0,Training at home,,,,,,,,,,,,,
7,5,1060,A,54.06135141713406,73.44354049597409,2.703067570856703,1.1536484363788833,B,991.7479989817366,Incorrect,sub_007_day_05_data.csv,0,300,42.0,Training at home,,,,,,,,,,,,,
7,5,1061,A,48.72391827852403,59.5836884641075,2.4361959139262015,0.9359383897631152,B,1031.2834579963237,Incorrect,sub_007_day_05_data.csv,0,300,42.0,Training at home,,,,,,,,,,,,,
7,5,1062,A,37.79564078856736,53.61042165464912,1.889782039428368,0.8421105341304841,B,718.8817079877481,Incorrect,sub_007_day_05_data.csv,0,300,42.0,Training at home,,,,,,,,,,,,,
7,5,1063,A,51.080728910407146,61.357888835708835,2.5540364455203575,0.9638074640302104,A,2038.426956976764,Correct,sub_007_day_05_data.csv,1,300,42.0,Training at home,,,,,,,,,,,,,
7,5,1064,A,43.6454789749438,66.08696951210058,2.1822739487471896,1.038091689586139,A,565.3498740284704,Correct,sub_007_day_05_data.csv,1,300,42.0,Training at home,,,,,,,,,,,,,
7,5,1065,B,70.80459114833185,37.960604532473,3.5402295574165925,0.5962837816252229,B,613.4016240248457,Correct,sub_007_day_05_data.csv,1,300,42.0,Training at home,,,,,,,,,,,,,
7,5,1066,A,45.26890696815015,63.71464470596101,2.263445348407507,1.0008272986716544,A,702.555374999065,Correct,sub_007_day_05_data.csv,1,300,42.0,Training at home,,,,,,,,,,,,,
7,5,1067,B,53.06747417280751,25.51589215208962,2.6533737086403755,0.400802696673971,B,531.4232910168357,Correct,sub_007_day_05_data.csv,1,300,42.0,Training at home,,,,,,,,,,,,,
7,5,1068,B,81.54529218302251,60.581012359498814,4.0772646091511255,0.9516043168781696,B,872.8668739786372,Correct,sub_007_day_05_data.csv,1,300,42.0,Training at home,,,,,,,,,,,,,
7,5,1069,B,82.94727005649904,56.32729029349654,4.147363502824952,0.884787006913342,B,566.36683200486,Correct,sub_007_day_05_data.csv,1,300,42.0,Training at home,,,,,,,,,,,,,
7,5,1070,A,68.18026453441739,85.45217082815006,3.4090132267208695,1.342279560535081,B,986.7059160023928,Incorrect,sub_007_day_05_data.csv,0,300,42.0,Training at home,,,,,,,,,,,,,
7,5,1071,A,38.72342329747162,55.12765986999811,1.9361711648735809,0.8659432562859146,A,941.8964570504612,Correct,sub_007_day_05_data.csv,1,300,42.0,Training at home,,,,,,,,,,,,,
7,5,1072,B,82.2641977024127,56.67500982653934,4.113209885120636,0.8902489725659265,B,905.773124017287,Correct,sub_007_day_05_data.csv,1,300,42.0,Training at home,,,,,,,,,,,,,
7,5,1073,A,39.78434651981995,62.27907775565261,1.9892173259909975,0.9782774657475286,A,638.0486250272952,Correct,sub_007_day_05_data.csv,1,300,42.0,Training at home,,,,,,,,,,,,,
7,5,1074,A,58.809869908823,79.63580258081774,2.94049349544115,1.2509162617531204,A,3097.1186659880914,Correct,sub_007_day_05_data.csv,1,300,42.0,Training at home,,,,,,,,,,,,,
7,5,1075,B,64.01649731358742,32.6786314013596,3.200824865679371,0.5133147416994004,B,1047.1921659773216,Correct,sub_007_day_05_data.csv,1,300,43.0,Training at home,,,,,,,,,,,,,
7,5,1076,B,65.27421086753505,32.50595187057724,3.263710543376752,0.5106022979727443,B,3053.210999001749,Correct,sub_007_day_05_data.csv,1,300,43.0,Training at home,,,,,,,,,,,,,
7,5,1077,B,56.260883079942545,48.78264782710636,2.8130441539971276,0.7662760401814771,A,3522.1310410415754,Incorrect,sub_007_day_05_data.csv,0,300,43.0,Training at home,,,,,,,,,,,,,
7,5,1078,B,70.14821639886148,53.866377310290694,3.5074108199430736,0.8461310761675258,B,658.9544159942307,Correct,sub_007_day_05_data.csv,1,300,43.0,Training at home,,,,,,,,,,,,,
7,5,1079,A,23.13450178785676,43.85062217998981,1.156725089392838,0.6888039624799881,A,625.7448329706676,Correct,sub_007_day_05_data.csv,1,300,43.0,Training at home,,,,,,,,,,,,,
7,5,1080,A,54.8964375186316,70.53823722253554,2.74482187593158,1.1080120392774586,A,1338.8122079777531,Correct,sub_007_day_05_data.csv,1,300,43.0,Training at home,,,,,,,,,,,,,
7,5,1081,B,53.66120170669568,29.36979571690725,2.683060085334784,0.4613396723083439,B,762.3523740330711,Correct,sub_007_day_05_data.csv,1,300,43.0,Training at home,,,,,,,,,,,,,
7,5,1082,A,35.92365668730028,61.214745669740395,1.796182834365014,0.9615589764371202,A,656.1316239531152,Correct,sub_007_day_05_data.csv,1,300,43.0,Training at home,,,,,,,,,,,,,
7,5,1083,A,26.714591295102142,59.50536555842096,1.3357295647551073,0.9347080964375518,A,709.4208740163594,Correct,sub_007_day_05_data.csv,1,300,43.0,Training at home,,,,,,,,,,,,,
7,5,1084,B,67.16664691521694,38.18877110894868,3.358332345760847,0.5998678138274766,B,787.59462403832,Correct,sub_007_day_05_data.csv,1,300,43.0,Training at home,,,,,,,,,,,,,
7,5,1085,A,67.11240776407186,80.5355718653015,3.355620388203593,1.2650498046234202,A,1648.322208027821,Correct,sub_007_day_05_data.csv,1,300,43.0,Training at home,,,,,,,,,,,,,
7,5,1086,A,47.54728782989011,67.09243591909416,2.3773643914945053,1.0538855189743508,A,792.3881660099141,Correct,sub_007_day_05_data.csv,1,300,43.0,Training at home,,,,,,,,,,,,,
7,5,1087,B,83.92076523796787,57.902615452006145,4.196038261898393,0.9095321566382868,B,1308.1376659683883,Correct,sub_007_day_05_data.csv,1,300,43.0,Training at home,,,,,,,,,,,,,
7,5,1088,B,41.96150756189695,21.29390208487472,2.0980753780948476,0.334483831780514,B,520.6870409892872,Correct,sub_007_day_05_data.csv,1,300,43.0,Training at home,,,,,,,,,,,,,
7,5,1089,A,28.29383359976797,49.24644262912667,1.4146916799883984,0.7735613118954778,A,622.510457993485,Correct,sub_007_day_05_data.csv,1,300,43.0,Training at home,,,,,,,,,,,,,
7,5,1090,A,50.1895648366113,71.2589097420577,2.509478241830565,1.119332336742333,A,915.9244570182636,Correct,sub_007_day_05_data.csv,1,300,43.0,Training at home,,,,,,,,,,,,,
7,5,1091,B,88.92114683337296,66.53635788095643,4.446057341668648,1.0451506655771703,B,1508.114582975395,Correct,sub_007_day_05_data.csv,1,300,43.0,Training at home,,,,,,,,,,,,,
7,5,1092,A,22.10739119773406,47.12503229276426,1.105369559886703,0.7402382762556499,A,870.6058320240118,Correct,sub_007_day_05_data.csv,1,300,43.0,Training at home,,,,,,,,,,,,,
7,5,1093,B,51.53984404788266,26.413310465637373,2.576992202394133,0.4148993105791638,B,1709.551457024645,Correct,sub_007_day_05_data.csv,1,300,43.0,Training at home,,,,,,,,,,,,,
7,5,1094,B,71.95312232108826,52.246678559251194,3.597656116054413,0.8206889076810545,B,1812.012373993639,Correct,sub_007_day_05_data.csv,1,300,43.0,Training at home,,,,,,,,,,,,,
7,5,1095,B,81.52688446329327,50.54406706513224,4.076344223164664,0.7939443488718463,B,1288.3948739618063,Correct,sub_007_day_05_data.csv,1,300,43.0,Training at home,,,,,,,,,,,,,
7,5,1096,A,32.75193294950158,56.75391973556932,1.637596647475079,0.8914884865184468,A,1351.5131659805777,Correct,sub_007_day_05_data.csv,1,300,43.0,Training at home,,,,,,,,,,,,,
7,5,1097,B,57.772836877965545,39.81251665251189,2.8886418438982777,0.6253735491822633,B,1029.4687910354696,Correct,sub_007_day_05_data.csv,1,300,43.0,Training at home,,,,,,,,,,,,,
7,5,1098,B,54.95494462560811,35.169850601131124,2.7477472312804054,0.5524467213818205,B,1804.492915980518,Correct,sub_007_day_05_data.csv,1,300,43.0,Training at home,,,,,,,,,,,,,
7,5,1099,B,79.83574912770241,51.97073919823914,3.99178745638512,0.8163544623340958,B,645.8027909975499,Correct,sub_007_day_05_data.csv,1,300,43.0,Training at home,,,,,,,,,,,,,
7,5,1100,A,61.28412897327581,73.08377229041702,3.0642064486637905,1.1479972106210168,A,1076.1799160391092,Correct,sub_007_day_05_data.csv,1,300,44.0,Training at home,,,,,,,,,,,,,
7,5,1101,B,46.2545486097852,16.509319463794476,2.3127274304892604,0.2593277837161185,B,544.3717069574632,Correct,sub_007_day_05_data.csv,1,300,44.0,Training at home,,,,,,,,,,,,,
7,5,1102,A,56.917851075295886,81.32899615638227,2.845892553764794,1.2775128842436154,A,963.7626659823582,Correct,sub_007_day_05_data.csv,1,300,44.0,Training at home,,,,,,,,,,,,,
7,5,1103,A,30.38452645673288,54.40292844860784,1.519226322836644,0.8545592017395878,A,690.5702489893883,Correct,sub_007_day_05_data.csv,1,300,44.0,Training at home,,,,,,,,,,,,,
7,5,1104,A,25.033495085021137,55.24731167330952,1.251674754251057,0.867822742417274,A,541.0003740107641,Correct,sub_007_day_05_data.csv,1,300,44.0,Training at home,,,,,,,,,,,,,
7,5,1105,A,64.86164583506402,87.8068832108819,3.243082291753201,1.3792672961496175,A,1331.9019160117025,Correct,sub_007_day_05_data.csv,1,300,44.0,Training at home,,,,,,,,,,,,,
7,5,1106,B,59.32378344083706,37.273227759050926,2.966189172041853,0.5854864925170676,B,792.6370410132222,Correct,sub_007_day_05_data.csv,1,300,44.0,Training at home,,,,,,,,,,,,,
7,5,1107,B,59.62854412222291,51.56869298354744,2.9814272061111455,0.8100391351617009,B,1357.8585410141386,Correct,sub_007_day_05_data.csv,1,300,44.0,Training at home,,,,,,,,,,,,,
7,5,1108,B,69.18484371167034,54.31519919913673,3.459242185583517,0.8531811539113707,B,696.1268750019372,Correct,sub_007_day_05_data.csv,1,300,44.0,Training at home,,,,,,,,,,,,,
7,5,1109,A,30.27019213106179,42.135034095439856,1.5135096065530893,0.6618555678649465,A,720.471749024,Correct,sub_007_day_05_data.csv,1,300,44.0,Training at home,,,,,,,,,,,,,
7,5,1110,B,61.6997199485205,32.507243426242965,3.084985997426025,0.5106225856817,B,785.4954159702174,Correct,sub_007_day_05_data.csv,1,300,44.0,Training at home,,,,,,,,,,,,,
7,5,1111,A,19.54408482324689,44.47729465718399,0.9772042411623444,0.6986477107327889,A,621.2868330185302,Correct,sub_007_day_05_data.csv,1,300,44.0,Training at home,,,,,,,,,,,,,
7,5,1112,B,69.58014863852885,53.51711551785731,3.4790074319264424,0.8406448847610842,B,538.1484579993412,Correct,sub_007_day_05_data.csv,1,300,44.0,Training at home,,,,,,,,,,,,,
7,5,1113,A,50.85211850538415,70.62977341204535,2.5426059252692075,1.1094498863799669,A,1062.67408299027,Correct,sub_007_day_05_data.csv,1,300,44.0,Training at home,,,,,,,,,,,,,
7,5,1114,A,28.937265889336413,51.60218107775918,1.4468632944668207,0.8105651649154924,A,910.1167080225424,Correct,sub_007_day_05_data.csv,1,300,44.0,Training at home,,,,,,,,,,,,,
7,5,1115,B,77.383549640453,55.42344006902289,3.86917748202265,0.8705893607875824,B,606.7756239790469,Correct,sub_007_day_05_data.csv,1,300,44.0,Training at home,,,,,,,,,,,,,
7,5,1116,A,37.262550706736626,59.52693569268062,1.8631275353368313,0.9350469193141876,A,676.15658295108,Correct,sub_007_day_05_data.csv,1,300,44.0,Training at home,,,,,,,,,,,,,
7,5,1117,B,59.04009613674772,45.1856604447712,2.952004806837386,0.7097746945044806,B,627.8317070100456,Correct,sub_007_day_05_data.csv,1,300,44.0,Training at home,,,,,,,,,,,,,
7,5,1118,A,46.60361747518273,68.09320940880926,2.3301808737591365,1.0696056321903329,A,853.1383329536766,Correct,sub_007_day_05_data.csv,1,300,44.0,Training at home,,,,,,,,,,,,,
7,5,1119,B,80.25076310436648,66.27403079582629,4.012538155218324,1.041030041359758,B,830.0801659934223,Correct,sub_007_day_05_data.csv,1,300,44.0,Training at home,,,,,,,,,,,,,
7,5,1120,A,31.90530162327807,49.916464768201905,1.5952650811639035,0.7840859950447843,A,798.7942909821868,Correct,sub_007_day_05_data.csv,1,300,44.0,Training at home,,,,,,,,,,,,,
7,5,1121,B,59.16575073924055,30.47783809573258,2.958287536962027,0.4787447612942629,B,674.2647910141386,Correct,sub_007_day_05_data.csv,1,300,44.0,Training at home,,,,,,,,,,,,,
7,5,1122,B,69.60847828379457,52.83279504665034,3.4804239141897284,0.8298956039358596,B,2224.1087080328725,Correct,sub_007_day_05_data.csv,1,300,44.0,Training at home,,,,,,,,,,,,,
7,5,1123,A,39.74255407204147,47.39310644015998,1.9871277036020736,0.7444491751160287,A,1492.713832994923,Correct,sub_007_day_05_data.csv,1,300,44.0,Training at home,,,,,,,,,,,,,
7,5,1124,B,55.45761806903947,31.825353000332584,2.7728809034519735,0.4999114759187336,B,1049.9678329797462,Correct,sub_007_day_05_data.csv,1,300,44.0,Training at home,,,,,,,,,,,,,
7,5,1125,B,61.01970050851055,30.7636438715693,3.0509850254255273,0.4832341879228738,B,997.8987079812214,Correct,sub_007_day_05_data.csv,1,300,45.0,Training at home,,,,,,,,,,,,,
7,5,1126,A,22.603800329883903,39.774491979149474,1.1301900164941951,0.6247762590098106,A,1391.115582024213,Correct,sub_007_day_05_data.csv,1,300,45.0,Training at home,,,,,,,,,,,,,
7,5,1127,A,25.451708534936262,39.32540533333318,1.2725854267468133,0.617722022473202,A,1051.4540409785695,Correct,sub_007_day_05_data.csv,1,300,45.0,Training at home,,,,,,,,,,,,,
7,5,1128,A,55.75560508660891,72.60071693126555,2.7877802543304453,1.1404093947830798,A,1114.085373992566,Correct,sub_007_day_05_data.csv,1,300,45.0,Training at home,,,,,,,,,,,,,
7,5,1129,A,31.954122157978205,59.881022342690954,1.59770610789891,0.9406088994062208,A,720.432291040197,Correct,sub_007_day_05_data.csv,1,300,45.0,Training at home,,,,,,,,,,,,,
7,5,1130,A,51.15504316754678,58.07293618796119,2.557752158377339,0.9122075485024388,A,926.3967910083012,Correct,sub_007_day_05_data.csv,1,300,45.0,Training at home,,,,,,,,,,,,,
7,5,1131,A,31.93842352354068,52.286482386169894,1.596921176177034,0.8213141447322172,A,857.9118739580736,Correct,sub_007_day_05_data.csv,1,300,45.0,Training at home,,,,,,,,,,,,,
7,5,1132,A,31.14553396573745,41.11244539907679,1.5572766982868729,0.6457927821842557,A,801.7661239719018,Correct,sub_007_day_05_data.csv,1,300,45.0,Training at home,,,,,,,,,,,,,
7,5,1133,B,80.01167309712623,57.48333808193786,4.000583654856311,0.9029461631101716,B,675.8275820175186,Correct,sub_007_day_05_data.csv,1,300,45.0,Training at home,,,,,,,,,,,,,
7,5,1134,B,85.22812399359707,69.15610472591685,4.261406199679853,1.0863015527891338,B,474.65754102449864,Correct,sub_007_day_05_data.csv,1,300,45.0,Training at home,,,,,,,,,,,,,
7,5,1135,B,58.3062811264443,37.623806232529915,2.915314056322215,0.5909933663010094,B,1168.987415963784,Correct,sub_007_day_05_data.csv,1,300,45.0,Training at home,,,,,,,,,,,,,
7,5,1136,A,38.29380064660041,45.47032648636093,1.9146900323300204,0.7142462182294046,A,1023.9629989955574,Correct,sub_007_day_05_data.csv,1,300,45.0,Training at home,,,,,,,,,,,,,
7,5,1137,B,47.897517706726134,25.40208044668039,2.394875885336307,0.3990149465859403,B,830.9773749788292,Correct,sub_007_day_05_data.csv,1,300,45.0,Training at home,,,,,,,,,,,,,
7,5,1138,A,25.413129772607476,50.82044225774798,1.2706564886303735,0.7982856402456266,A,834.9209990119562,Correct,sub_007_day_05_data.csv,1,300,45.0,Training at home,,,,,,,,,,,,,
7,5,1139,B,48.60977464045737,20.627848186598385,2.4304887320228685,0.3240214816119151,B,806.9122080341913,Correct,sub_007_day_05_data.csv,1,300,45.0,Training at home,,,,,,,,,,,,,
7,5,1140,A,18.052802385836873,33.15822014343537,0.9026401192918436,0.5208481040436482,A,711.5144580020569,Correct,sub_007_day_05_data.csv,1,300,45.0,Training at home,,,,,,,,,,,,,
7,5,1141,A,58.84883347193197,71.83432396131695,2.9424416735965986,1.128370922162313,A,1121.867123991251,Correct,sub_007_day_05_data.csv,1,300,45.0,Training at home,,,,,,,,,,,,,
7,5,1142,A,27.59727571701076,58.55026130228042,1.3798637858505378,0.9197053538650348,A,591.3800410344265,Correct,sub_007_day_05_data.csv,1,300,45.0,Training at home,,,,,,,,,,,,,
7,5,1143,B,56.03202624807312,31.429386752848306,2.801601312403656,0.4936916526479029,B,1305.8732490171678,Correct,sub_007_day_05_data.csv,1,300,45.0,Training at home,,,,,,,,,,,,,
7,5,1144,B,74.12427083524646,44.14572338985191,3.706213541762323,0.6934394014448293,B,673.799999000039,Correct,sub_007_day_05_data.csv,1,300,45.0,Training at home,,,,,,,,,,,,,
7,5,1145,B,55.851285837733506,41.16232911409936,2.7925642918866753,0.6465763537474991,B,1354.6900000073947,Correct,sub_007_day_05_data.csv,1,300,45.0,Training at home,,,,,,,,,,,,,
7,5,1146,B,71.32760777554113,54.76173104615874,3.5663803887770564,0.8601952597623619,B,637.6050830003805,Correct,sub_007_day_05_data.csv,1,300,45.0,Training at home,,,,,,,,,,,,,
7,5,1147,B,52.05790558038364,21.37415073758951,2.6028952790191817,0.3357443746696603,B,1073.170999006834,Correct,sub_007_day_05_data.csv,1,300,45.0,Training at home,,,,,,,,,,,,,
7,5,1148,A,55.51074057454563,67.4369806022489,2.775537028727282,1.0592976142015127,A,1411.3065410056151,Correct,sub_007_day_05_data.csv,1,300,45.0,Training at home,,,,,,,,,,,,,
7,5,1149,B,74.28575463146859,48.939771911762925,3.7142877315734295,0.7687441395317726,B,2275.1319159870036,Correct,sub_007_day_05_data.csv,1,300,45.0,Training at home,,,,,,,,,,,,,
7,5,1150,A,42.660892186655374,68.54447756599994,2.1330446093327686,1.0766941358274789,A,984.3893329962156,Correct,sub_007_day_05_data.csv,1,300,46.0,Training at home,,,,,,,,,,,,,
7,5,1151,B,57.895152074549536,48.90767349986972,2.8947576037274767,0.7682399388567945,B,2541.0007489845157,Correct,sub_007_day_05_data.csv,1,300,46.0,Training at home,,,,,,,,,,,,,
7,5,1152,B,52.26429071424788,36.61339277676425,2.6132145357123937,0.5751218288524008,B,687.447540985886,Correct,sub_007_day_05_data.csv,1,300,46.0,Training at home,,,,,,,,,,,,,
7,5,1153,B,59.1266972380692,49.873063166910825,2.9563348619034597,0.7834042442859338,B,683.2888319622725,Correct,sub_007_day_05_data.csv,1,300,46.0,Training at home,,,,,,,,,,,,,
7,5,1154,B,78.09862027977539,57.96386953017762,3.9049310139887696,0.9104943334482164,B,687.4482910498045,Correct,sub_007_day_05_data.csv,1,300,46.0,Training at home,,,,,,,,,,,,,
7,5,1155,A,27.170309782501167,50.92178405410469,1.3585154891250584,0.7998775134603059,A,617.2087080194615,Correct,sub_007_day_05_data.csv,1,300,46.0,Training at home,,,,,,,,,,,,,
7,5,1156,A,31.677239642541934,41.46254337978835,1.583861982127097,0.6512921084054558,A,482.3072490398772,Correct,sub_007_day_05_data.csv,1,300,46.0,Training at home,,,,,,,,,,,,,
7,5,1157,A,37.63347718538328,62.990238645633376,1.881673859269164,0.9894483548849484,A,1587.9627069807611,Correct,sub_007_day_05_data.csv,1,300,46.0,Training at home,,,,,,,,,,,,,
7,5,1158,A,17.213305904469898,31.151008822305496,0.860665295223495,0.4893189023403289,A,742.8920409874991,Correct,sub_007_day_05_data.csv,1,300,46.0,Training at home,,,,,,,,,,,,,
7,5,1159,A,17.627651923468658,46.334881058660656,0.881382596173433,0.727826609694226,A,895.419666019734,Correct,sub_007_day_05_data.csv,1,300,46.0,Training at home,,,,,,,,,,,,,
7,5,1160,A,68.89506774838311,83.54264672716305,3.4447533874191554,1.312284826097514,A,1056.1676240176894,Correct,sub_007_day_05_data.csv,1,300,46.0,Training at home,,,,,,,,,,,,,
7,5,1161,B,52.725581513372,35.88460429543954,2.6362790756686003,0.5636740461576478,B,649.5374989463016,Correct,sub_007_day_05_data.csv,1,300,46.0,Training at home,,,,,,,,,,,,,
7,5,1162,B,68.63962430826079,35.39243442591172,3.43198121541304,0.5559430599255137,B,493.4651250368915,Correct,sub_007_day_05_data.csv,1,300,46.0,Training at home,,,,,,,,,,,,,
7,5,1163,B,62.83725707707783,44.75732120463624,3.1418628538538917,0.7030463574542195,B,735.0720410468057,Correct,sub_007_day_05_data.csv,1,300,46.0,Training at home,,,,,,,,,,,,,
7,5,1164,B,34.409118176485805,14.125583171891233,1.7204559088242903,0.2218841416024255,B,649.1419990197755,Correct,sub_007_day_05_data.csv,1,300,46.0,Training at home,,,,,,,,,,,,,
7,5,1165,A,17.493072762251824,31.343576245586988,0.8746536381125912,0.4923437443518382,A,732.2347489534877,Correct,sub_007_day_05_data.csv,1,300,46.0,Training at home,,,,,,,,,,,,,
7,5,1166,A,15.849546104006247,45.76002440043875,0.7924773052003125,0.7187967824225402,A,493.1297069997526,Correct,sub_007_day_05_data.csv,1,300,46.0,Training at home,,,,,,,,,,,,,
7,5,1167,B,65.33896563630626,39.654021618607096,3.266948281815313,0.6228839150115344,B,1264.1660000081174,Correct,sub_007_day_05_data.csv,1,300,46.0,Training at home,,,,,,,,,,,,,
7,5,1168,B,56.10990984460994,25.54889240280809,2.805495492230497,0.4013210634000898,B,639.9120829883032,Correct,sub_007_day_05_data.csv,1,300,46.0,Training at home,,,,,,,,,,,,,
7,5,1169,B,67.12154581569136,47.884800181574505,3.3560772907845684,0.7521726823452484,B,1333.3897489937954,Correct,sub_007_day_05_data.csv,1,300,46.0,Training at home,,,,,,,,,,,,,
7,5,1170,B,70.35860070291957,38.08199722232341,3.517930035145979,0.5981906135383906,B,823.923874006141,Correct,sub_007_day_05_data.csv,1,300,46.0,Training at home,,,,,,,,,,,,,
7,5,1171,A,48.88457626407393,73.1302692560005,2.444228813203696,1.1487275832484731,A,1344.990749959834,Correct,sub_007_day_05_data.csv,1,300,46.0,Training at home,,,,,,,,,,,,,
7,5,1172,A,38.193510395073545,55.99005630104538,1.9096755197536772,0.8794897477472154,A,728.8659160258248,Correct,sub_007_day_05_data.csv,1,300,46.0,Training at home,,,,,,,,,,,,,
7,5,1173,A,27.38592855522439,41.69176570813289,1.3692964277612194,0.6548927243192857,A,579.6864989679307,Correct,sub_007_day_05_data.csv,1,300,46.0,Training at home,,,,,,,,,,,,,
7,5,1174,A,34.03952066113572,63.99508073643521,1.701976033056786,1.0052323775373528,A,716.9777079834603,Correct,sub_007_day_05_data.csv,1,300,46.0,Training at home,,,,,,,,,,,,,
7,5,1175,B,53.47633669156461,33.680013709366314,2.6738168345782305,0.5290444182107437,B,643.838833027985,Correct,sub_007_day_05_data.csv,1,300,47.0,Training at home,,,,,,,,,,,,,
7,5,1176,A,31.3166736907122,55.03277967578201,1.56583368453561,0.8644528816803122,A,819.0589159494266,Correct,sub_007_day_05_data.csv,1,300,47.0,Training at home,,,,,,,,,,,,,
7,5,1177,B,69.30693011434431,44.469643505431485,3.4653465057172155,0.698527526722103,B,631.7995829740539,Correct,sub_007_day_05_data.csv,1,300,47.0,Training at home,,,,,,,,,,,,,
7,5,1178,A,63.30468369723573,84.24511396009419,3.165234184861786,1.323319155589334,A,787.2058330103755,Correct,sub_007_day_05_data.csv,1,300,47.0,Training at home,,,,,,,,,,,,,
7,5,1179,B,40.917223400727906,23.440673066454455,2.045861170036395,0.3682052315038672,B,640.9856239915825,Correct,sub_007_day_05_data.csv,1,300,47.0,Training at home,,,,,,,,,,,,,
7,5,1180,B,47.66372624557215,19.92904192641411,2.3831863122786077,0.3130446585455277,B,655.2852499880828,Correct,sub_007_day_05_data.csv,1,300,47.0,Training at home,,,,,,,,,,,,,
7,5,1181,B,71.42496787216689,46.3397846462631,3.571248393608345,0.7279036350681661,B,954.714082996361,Correct,sub_007_day_05_data.csv,1,300,47.0,Training at home,,,,,,,,,,,,,
7,5,1182,A,41.232919238833055,64.19358740835284,2.061645961941653,1.0083505130482775,A,821.6374160256237,Correct,sub_007_day_05_data.csv,1,300,47.0,Training at home,,,,,,,,,,,,,
7,5,1183,A,47.168054319727574,78.72355899523393,2.3584027159863785,1.2365867730193478,A,573.701624001842,Correct,sub_007_day_05_data.csv,1,300,47.0,Training at home,,,,,,,,,,,,,
7,5,1184,B,59.90568969174265,44.34502734709759,2.9952844845871325,0.6965700606844013,B,1049.2206659982912,Correct,sub_007_day_05_data.csv,1,300,47.0,Training at home,,,,,,,,,,,,,
7,5,1185,B,74.57972698851844,54.238053791090856,3.7289863494259223,0.8519693566754954,B,912.530749978032,Correct,sub_007_day_05_data.csv,1,300,47.0,Training at home,,,,,,,,,,,,,
7,5,1186,A,26.44387596580905,57.654582702525005,1.3221937982904524,0.9056360673201886,A,553.4453750005923,Correct,sub_007_day_05_data.csv,1,300,47.0,Training at home,,,,,,,,,,,,,
7,5,1187,B,54.09247792803897,40.610791066471755,2.7046238964019484,0.6379128143544883,B,969.1213740152308,Correct,sub_007_day_05_data.csv,1,300,47.0,Training at home,,,,,,,,,,,,,
7,5,1188,B,37.384603970624525,20.873491705203534,1.8692301985312263,0.3278800409791745,B,1512.1396660106257,Correct,sub_007_day_05_data.csv,1,300,47.0,Training at home,,,,,,,,,,,,,
7,5,1189,A,36.98282039217131,57.63972501916381,1.8491410196085656,0.9054026833757042,A,626.7865829868242,Correct,sub_007_day_05_data.csv,1,300,47.0,Training at home,,,,,,,,,,,,,
7,5,1190,A,38.82788496614147,55.84962924465983,1.9413942483070736,0.877283924703685,A,930.0324160140008,Correct,sub_007_day_05_data.csv,1,300,47.0,Training at home,,,,,,,,,,,,,
7,5,1191,A,56.251880529181314,71.37704927551162,2.8125940264590654,1.1211880681943198,A,1535.657958011143,Correct,sub_007_day_05_data.csv,1,300,47.0,Training at home,,,,,,,,,,,,,
7,5,1192,B,61.22492564001483,33.436902909946326,3.0612462820007416,0.5252256427034128,B,1639.4937910372391,Correct,sub_007_day_05_data.csv,1,300,47.0,Training at home,,,,,,,,,,,,,
7,5,1193,B,78.05043635916033,59.01647877163754,3.902521817958017,0.9270286807485724,B,1213.1440410157666,Correct,sub_007_day_05_data.csv,1,300,47.0,Training at home,,,,,,,,,,,,,
7,5,1194,B,55.674764923253065,31.02737699121476,2.7837382461626534,0.4873768980788063,B,1402.9200830264017,Correct,sub_007_day_05_data.csv,1,300,47.0,Training at home,,,,,,,,,,,,,
7,5,1195,A,20.020473228369305,44.61372657144443,1.001023661418465,0.7007907782305678,A,855.0502490252256,Correct,sub_007_day_05_data.csv,1,300,47.0,Training at home,,,,,,,,,,,,,
7,5,1196,A,27.15343665979266,46.950205966558734,1.357671832989633,0.7374921107453428,A,648.3490410028026,Correct,sub_007_day_05_data.csv,1,300,47.0,Training at home,,,,,,,,,,,,,
7,5,1197,A,18.385163153020606,37.30416001289453,0.9192581576510304,0.585972375224238,A,976.1576660093853,Correct,sub_007_day_05_data.csv,1,300,47.0,Training at home,,,,,,,,,,,,,
7,5,1198,A,19.794539602050683,50.30223251155196,0.9897269801025342,0.7901456205872867,A,883.4593329811469,Correct,sub_007_day_05_data.csv,1,300,47.0,Training at home,,,,,,,,,,,,,
7,5,1199,A,35.09914350182021,65.40744989972873,1.7549571750910105,1.0274178204751512,A,842.8436660324223,Correct,sub_007_day_05_data.csv,1,300,47.0,Training at home,,,,,,,,,,,,,
