subject,day,trial,cat,x,y,xt,yt,resp,rt,fb,f_name,acc,n_trials,block,session_type,ns_left_digit,ns_right_digit,ns_left_size,ns_right_size,ns_congruent,ns_cue,ns_correct_side,ns_resp,ns_rt,ns_fb,acc_stroop,acc_stroop_mean,resp_key
7,3,300,A,55.979736656659725,81.0310132847716,2.7989868328329863,1.2728321802418772,A,1608.2263329881243,Correct,sub_007_day_03_data.csv,1,300,12.0,Training at home,,,,,,,,,,,,,
7,3,301,B,79.06089437317264,53.975500503261856,3.953044718658632,0.8478451792743982,B,987.770124047529,Correct,sub_007_day_03_data.csv,1,300,12.0,Training at home,,,,,,,,,,,,,
7,3,302,A,54.17057986200619,67.68773599131664,2.70852899310031,1.0632364706422288,A,781.4345830120146,Correct,sub_007_day_03_data.csv,1,300,12.0,Training at home,,,,,,,,,,,,,
7,3,303,B,43.61778737619328,22.59387133466493,2.180889368809664,0.3549037010056818,B,935.6259580235928,Correct,sub_007_day_03_data.csv,1,300,12.0,Training at home,,,,,,,,,,,,,
7,3,304,A,56.066902928465794,64.81449995335117,2.8033451464232892,1.0181037844977203,A,803.8320419727825,Correct,sub_007_day_03_data.csv,1,300,12.0,Training at home,,,,,,,,,,,,,
7,3,305,A,20.26309287338345,33.19423170387828,1.0131546436691723,0.5214137723123071,A,549.9819579999894,Correct,sub_007_day_03_data.csv,1,300,12.0,Training at home,,,,,,,,,,,,,
7,3,306,A,22.22186963372253,47.55572288985572,1.1110934816861266,0.7470035483346135,A,575.9321249788627,Correct,sub_007_day_03_data.csv,1,300,12.0,Training at home,,,,,,,,,,,,,
7,3,307,A,43.36635174470712,71.27544160159206,2.168317587235356,1.1195920185846495,A,596.4402910321951,Correct,sub_007_day_03_data.csv,1,300,12.0,Training at home,,,,,,,,,,,,,
7,3,308,A,38.96104034421249,70.12767024327506,1.9480520172106248,1.1015628682482024,A,847.3186250193976,Correct,sub_007_day_03_data.csv,1,300,12.0,Training at home,,,,,,,,,,,,,
7,3,309,A,30.217393369166192,43.09966938140031,1.5108696684583096,0.6770080235037809,B,762.9882079781964,Incorrect,sub_007_day_03_data.csv,0,300,12.0,Training at home,,,,,,,,,,,,,
7,3,310,B,60.65334647267177,36.81007991542313,3.032667323633589,0.5782113832017326,B,531.8512080120854,Correct,sub_007_day_03_data.csv,1,300,12.0,Training at home,,,,,,,,,,,,,
7,3,311,A,15.14009875883524,37.42887066721926,0.7570049379417619,0.5879313256014925,A,447.66866602003574,Correct,sub_007_day_03_data.csv,1,300,12.0,Training at home,,,,,,,,,,,,,
7,3,312,A,26.076681310158833,56.64079878870309,1.3038340655079417,0.8897115868402364,A,740.3750410303473,Correct,sub_007_day_03_data.csv,1,300,12.0,Training at home,,,,,,,,,,,,,
7,3,313,B,47.6908643766454,25.100788338375988,2.38454321883227,0.3942822612157718,B,738.0384990246966,Correct,sub_007_day_03_data.csv,1,300,12.0,Training at home,,,,,,,,,,,,,
7,3,314,A,17.01153711630335,41.31148111008992,0.8505768558151675,0.6489192278218601,A,520.815541036427,Correct,sub_007_day_03_data.csv,1,300,12.0,Training at home,,,,,,,,,,,,,
7,3,315,B,43.34943878058621,24.824213682924135,2.1674719390293107,0.3899378366870884,B,545.8386249956675,Correct,sub_007_day_03_data.csv,1,300,12.0,Training at home,,,,,,,,,,,,,
7,3,316,B,84.443311032995,66.64789610673193,4.222165551649749,1.0469027039306242,B,2330.2645420189947,Correct,sub_007_day_03_data.csv,1,300,12.0,Training at home,,,,,,,,,,,,,
7,3,317,B,68.35959932098626,58.52817610165222,3.4179799660493133,0.9193584403448016,B,2076.2747499975376,Correct,sub_007_day_03_data.csv,1,300,12.0,Training at home,,,,,,,,,,,,,
7,3,318,B,62.121150754714265,38.899845320891686,3.1060575377357136,0.611037341429463,B,638.2069159881212,Correct,sub_007_day_03_data.csv,1,300,12.0,Training at home,,,,,,,,,,,,,
7,3,319,A,59.057954435999235,76.31478009314722,2.952897721799962,1.1987497625047596,A,670.8263329928741,Correct,sub_007_day_03_data.csv,1,300,12.0,Training at home,,,,,,,,,,,,,
7,3,320,B,57.90599371414682,49.57575507496207,2.8952996857073408,0.7787341396983387,B,1425.5011670175008,Correct,sub_007_day_03_data.csv,1,300,12.0,Training at home,,,,,,,,,,,,,
7,3,321,B,60.334760189996864,42.66675048914505,3.016738009499843,0.6702077494462341,B,780.8124579605646,Correct,sub_007_day_03_data.csv,1,300,12.0,Training at home,,,,,,,,,,,,,
7,3,322,B,37.849446742274814,13.12331139102086,1.8924723371137409,0.2061404932840119,B,958.8252079556696,Correct,sub_007_day_03_data.csv,1,300,12.0,Training at home,,,,,,,,,,,,,
7,3,323,A,19.04488902208935,48.450439212282575,0.9522444511044676,0.761057719462529,B,1087.78387500206,Incorrect,sub_007_day_03_data.csv,0,300,12.0,Training at home,,,,,,,,,,,,,
7,3,324,B,58.03794919037046,46.44084546150151,2.901897459518523,0.7294910946417602,B,748.3117489609867,Correct,sub_007_day_03_data.csv,1,300,12.0,Training at home,,,,,,,,,,,,,
7,3,325,A,68.81762535192485,87.66774786381961,3.440881267596242,1.3770817632286898,B,624.2965829442255,Incorrect,sub_007_day_03_data.csv,0,300,13.0,Training at home,,,,,,,,,,,,,
7,3,326,A,25.02732188764743,42.20461559707309,1.2513660943823717,0.6629485515367299,A,598.2532079797238,Correct,sub_007_day_03_data.csv,1,300,13.0,Training at home,,,,,,,,,,,,,
7,3,327,B,61.62159066278169,51.12194533573624,3.081079533139085,0.8030216395198397,A,1341.151416010689,Incorrect,sub_007_day_03_data.csv,0,300,13.0,Training at home,,,,,,,,,,,,,
7,3,328,B,36.87155292779961,11.80553094296091,1.8435776463899805,0.1854408464106649,B,858.7114170077257,Correct,sub_007_day_03_data.csv,1,300,13.0,Training at home,,,,,,,,,,,,,
7,3,329,A,42.23946467825193,67.25778627183503,2.1119732339125963,1.0564828362415468,A,1266.458333004266,Correct,sub_007_day_03_data.csv,1,300,13.0,Training at home,,,,,,,,,,,,,
7,3,330,A,40.72175528222307,69.52412213290229,2.036087764111153,1.0920823567000268,A,811.5104999742471,Correct,sub_007_day_03_data.csv,1,300,13.0,Training at home,,,,,,,,,,,,,
7,3,331,B,33.85895465683673,20.57023311579647,1.6929477328418363,0.3231164661960783,B,794.3379580392502,Correct,sub_007_day_03_data.csv,1,300,13.0,Training at home,,,,,,,,,,,,,
7,3,332,B,39.93584032868242,20.568133791205295,1.9967920164341209,0.3230834900825127,B,722.5740419817157,Correct,sub_007_day_03_data.csv,1,300,13.0,Training at home,,,,,,,,,,,,,
7,3,333,B,61.18271793225351,50.764594060707914,3.0591358966126756,0.7974083788179402,B,1114.628040988464,Correct,sub_007_day_03_data.csv,1,300,13.0,Training at home,,,,,,,,,,,,,
7,3,334,A,23.20627263344019,34.499483047610006,1.1603136316720095,0.541916612475086,A,534.3136249575764,Correct,sub_007_day_03_data.csv,1,300,13.0,Training at home,,,,,,,,,,,,,
7,3,335,B,51.55890708807458,28.75442181620255,2.577945354403729,0.45167340168002,B,991.014625004027,Correct,sub_007_day_03_data.csv,1,300,13.0,Training at home,,,,,,,,,,,,,
7,3,336,B,35.28313338786867,16.355437083106416,1.7641566693934336,0.2569106049326859,B,991.9699169695376,Correct,sub_007_day_03_data.csv,1,300,13.0,Training at home,,,,,,,,,,,,,
7,3,337,B,61.63664811983301,34.69058605986895,3.0818324059916504,0.5449184515720439,B,1287.9072909709066,Correct,sub_007_day_03_data.csv,1,300,13.0,Training at home,,,,,,,,,,,,,
7,3,338,B,86.83529987937506,68.49125611693671,4.341764993968753,1.0758581352605268,B,995.3731240238994,Correct,sub_007_day_03_data.csv,1,300,13.0,Training at home,,,,,,,,,,,,,
7,3,339,A,61.89828855230529,79.62324454988752,3.0949144276152647,1.250719000664551,A,2062.87808297202,Correct,sub_007_day_03_data.csv,1,300,13.0,Training at home,,,,,,,,,,,,,
7,3,340,A,23.01304226953888,34.172222627358316,1.150652113476944,0.5367760178147188,A,594.655541004613,Correct,sub_007_day_03_data.csv,1,300,13.0,Training at home,,,,,,,,,,,,,
7,3,341,B,71.66455800892516,47.55530855997241,3.583227900446258,0.7469970400560255,B,738.8437920017168,Correct,sub_007_day_03_data.csv,1,300,13.0,Training at home,,,,,,,,,,,,,
7,3,342,A,23.89508262101789,54.30944584550247,1.194754131050895,0.8530907804438163,A,623.7721240031533,Correct,sub_007_day_03_data.csv,1,300,13.0,Training at home,,,,,,,,,,,,,
7,3,343,B,47.72113199660144,35.745875701195146,2.386056599830072,0.5614949024950427,B,1348.4482080093585,Correct,sub_007_day_03_data.csv,1,300,13.0,Training at home,,,,,,,,,,,,,
7,3,344,A,64.879716648666,77.08462811958776,3.2439858324333,1.2108425070259907,A,1195.0064999982717,Correct,sub_007_day_03_data.csv,1,300,13.0,Training at home,,,,,,,,,,,,,
7,3,345,A,57.91237332584535,75.55751425188555,2.8956186662922674,1.1868546584861486,A,989.2061660066248,Correct,sub_007_day_03_data.csv,1,300,13.0,Training at home,,,,,,,,,,,,,
7,3,346,A,39.96539760689491,60.93057958075479,1.9982698803447456,0.9570953059493372,A,994.45833300706,Correct,sub_007_day_03_data.csv,1,300,13.0,Training at home,,,,,,,,,,,,,
7,3,347,B,86.80883945753652,68.76524635053835,4.340441972876826,1.080161963785718,B,1204.1294160299003,Correct,sub_007_day_03_data.csv,1,300,13.0,Training at home,,,,,,,,,,,,,
7,3,348,A,29.339992179191576,41.8626618051551,1.4669996089595787,0.6575771539339464,A,2688.3981240098365,Correct,sub_007_day_03_data.csv,1,300,13.0,Training at home,,,,,,,,,,,,,
7,3,349,A,46.56588843248707,76.72254161737939,2.3282944216243537,1.2051548655494813,A,1244.320957979653,Correct,sub_007_day_03_data.csv,1,300,13.0,Training at home,,,,,,,,,,,,,
7,3,350,A,41.00320291640975,58.63922375276246,2.0501601458204872,0.9211027727694332,A,1438.7513330439106,Correct,sub_007_day_03_data.csv,1,300,14.0,Training at home,,,,,,,,,,,,,
7,3,351,A,50.380967979587794,71.44191388042182,2.5190483989793897,1.1222069590256394,B,1602.0057910354808,Incorrect,sub_007_day_03_data.csv,0,300,14.0,Training at home,,,,,,,,,,,,,
7,3,352,B,78.73612594913442,61.49809876528022,3.936806297456721,0.9660098764537192,B,672.650207998231,Correct,sub_007_day_03_data.csv,1,300,14.0,Training at home,,,,,,,,,,,,,
7,3,353,B,54.608294582994496,47.54576741750031,2.7304147291497247,0.7468471681405396,B,1450.1767490291968,Correct,sub_007_day_03_data.csv,1,300,14.0,Training at home,,,,,,,,,,,,,
7,3,354,B,48.193127921096305,32.075081647915425,2.409656396054815,0.5038342043419195,B,1453.6117909592576,Correct,sub_007_day_03_data.csv,1,300,14.0,Training at home,,,,,,,,,,,,,
7,3,355,A,15.35584847951966,44.74824642850831,0.7677924239759831,0.702903811204137,A,638.9908739947714,Correct,sub_007_day_03_data.csv,1,300,14.0,Training at home,,,,,,,,,,,,,
7,3,356,A,28.22626259221507,58.55115152195187,1.4113131296107533,0.919719337402934,A,958.8348750257863,Correct,sub_007_day_03_data.csv,1,300,14.0,Training at home,,,,,,,,,,,,,
7,3,357,B,50.5201013647559,35.5443293079714,2.526005068237795,0.5583290191534966,B,786.5251249750145,Correct,sub_007_day_03_data.csv,1,300,14.0,Training at home,,,,,,,,,,,,,
7,3,358,A,34.21950592929349,55.91768033692589,1.7109752964646745,0.878352868761344,A,965.401916007977,Correct,sub_007_day_03_data.csv,1,300,14.0,Training at home,,,,,,,,,,,,,
7,3,359,A,57.52144423529223,84.06174922731587,2.876072211764612,1.3204388691022153,B,1002.1776250214316,Incorrect,sub_007_day_03_data.csv,0,300,14.0,Training at home,,,,,,,,,,,,,
7,3,360,B,43.41300393606296,34.129281058441045,2.170650196803148,0.5361014932274982,B,885.3283330099657,Correct,sub_007_day_03_data.csv,1,300,14.0,Training at home,,,,,,,,,,,,,
7,3,361,A,19.87172303729304,43.64386553202803,0.993586151864652,0.6855562366484003,A,568.0266239796765,Correct,sub_007_day_03_data.csv,1,300,14.0,Training at home,,,,,,,,,,,,,
7,3,362,B,59.57836240912978,28.06003505763516,2.9789181204564894,0.4407659999826934,B,895.561458019074,Correct,sub_007_day_03_data.csv,1,300,14.0,Training at home,,,,,,,,,,,,,
7,3,363,B,49.99756607304115,25.061742526128313,2.4998783036520575,0.3936689310312181,B,645.4686249489896,Correct,sub_007_day_03_data.csv,1,300,14.0,Training at home,,,,,,,,,,,,,
7,3,364,A,63.90222905590359,82.46981128006645,3.19511145279518,1.2954327663019671,B,935.5968750314788,Incorrect,sub_007_day_03_data.csv,0,300,14.0,Training at home,,,,,,,,,,,,,
7,3,365,B,39.708930258388314,16.108092168381216,1.9854465129194157,0.2530253200976685,B,655.0579580361955,Correct,sub_007_day_03_data.csv,1,300,14.0,Training at home,,,,,,,,,,,,,
7,3,366,B,51.99562824209309,39.14149929315316,2.599781412104654,0.6148332331493003,B,1735.4226669995114,Correct,sub_007_day_03_data.csv,1,300,14.0,Training at home,,,,,,,,,,,,,
7,3,367,B,34.07890252002987,10.444596699123691,1.7039451260014935,0.164063341298376,B,787.9427499719895,Correct,sub_007_day_03_data.csv,1,300,14.0,Training at home,,,,,,,,,,,,,
7,3,368,B,45.38374438183418,36.42738549154933,2.269187219091709,0.572200033248674,A,839.7317500202917,Incorrect,sub_007_day_03_data.csv,0,300,14.0,Training at home,,,,,,,,,,,,,
7,3,369,A,26.22477924739139,51.31098838072454,1.3112389623695693,0.8059911207265772,A,620.435125019867,Correct,sub_007_day_03_data.csv,1,300,14.0,Training at home,,,,,,,,,,,,,
7,3,370,B,58.56548584929471,41.04032357497533,2.9282742924647356,0.6446598952204525,B,944.885417004116,Correct,sub_007_day_03_data.csv,1,300,14.0,Training at home,,,,,,,,,,,,,
7,3,371,B,49.20933770458879,22.429394782785725,2.4604668852294393,0.3523201093703244,B,612.6404579845257,Correct,sub_007_day_03_data.csv,1,300,14.0,Training at home,,,,,,,,,,,,,
7,3,372,B,47.853900015267655,36.08370425194397,2.3926950007633825,0.5668015009610698,A,1366.2041670177132,Incorrect,sub_007_day_03_data.csv,0,300,14.0,Training at home,,,,,,,,,,,,,
7,3,373,A,51.16553527881112,71.96342083124631,2.558276763940556,1.1303987710531704,A,1160.5631249840371,Correct,sub_007_day_03_data.csv,1,300,14.0,Training at home,,,,,,,,,,,,,
7,3,374,A,64.10787076384028,76.02973919147817,3.2053935381920144,1.194272350491479,B,1084.3482490163296,Incorrect,sub_007_day_03_data.csv,0,300,14.0,Training at home,,,,,,,,,,,,,
7,3,375,A,51.703935979967085,71.12371591226352,2.585196798998354,1.1172087170298728,A,3541.4831660455093,Correct,sub_007_day_03_data.csv,1,300,15.0,Training at home,,,,,,,,,,,,,
7,3,376,A,35.85918749518226,58.03759154747065,1.792959374759113,0.9116523561878942,A,733.8949580444023,Correct,sub_007_day_03_data.csv,1,300,15.0,Training at home,,,,,,,,,,,,,
7,3,377,B,84.9826893334626,55.87474639147736,4.24913446667313,0.8776784639232904,B,691.6793750133365,Correct,sub_007_day_03_data.csv,1,300,15.0,Training at home,,,,,,,,,,,,,
7,3,378,B,36.43704589364924,11.387235152699738,1.821852294682462,0.1788702715021047,B,687.7323749940842,Correct,sub_007_day_03_data.csv,1,300,15.0,Training at home,,,,,,,,,,,,,
7,3,379,A,60.72796129393182,86.54143342129518,3.036398064696591,1.3593896573373558,A,765.8807080006227,Correct,sub_007_day_03_data.csv,1,300,15.0,Training at home,,,,,,,,,,,,,
7,3,380,A,66.05209714883247,79.03491308349581,3.3026048574416236,1.2414775116010912,A,1119.1015830263495,Correct,sub_007_day_03_data.csv,1,300,15.0,Training at home,,,,,,,,,,,,,
7,3,381,A,53.2048345957535,76.00259601861953,2.6602417297876753,1.19384598652924,A,636.973999964539,Correct,sub_007_day_03_data.csv,1,300,15.0,Training at home,,,,,,,,,,,,,
7,3,382,B,46.6013545543388,33.17019861897369,2.3300677277169397,0.5210362614974102,B,1110.7271669898182,Correct,sub_007_day_03_data.csv,1,300,15.0,Training at home,,,,,,,,,,,,,
7,3,383,A,47.30864104593184,67.07594152560971,2.365432052296592,1.05362642564737,A,934.3160829739644,Correct,sub_007_day_03_data.csv,1,300,15.0,Training at home,,,,,,,,,,,,,
7,3,384,A,19.686532274542444,37.148905083719285,0.9843266137271222,0.5835336364995851,A,518.9247910166159,Correct,sub_007_day_03_data.csv,1,300,15.0,Training at home,,,,,,,,,,,,,
7,3,385,A,46.28498932497757,72.73138874003581,2.314249466248879,1.1424619827553997,A,916.9107910129242,Correct,sub_007_day_03_data.csv,1,300,15.0,Training at home,,,,,,,,,,,,,
7,3,386,B,76.99933491243101,54.626415345441586,3.84996674562155,0.8580697257059201,B,888.8189169811085,Correct,sub_007_day_03_data.csv,1,300,15.0,Training at home,,,,,,,,,,,,,
7,3,387,A,39.61735667079495,66.14138047093097,1.9808678335397472,1.0389463749288206,A,903.9418749744073,Correct,sub_007_day_03_data.csv,1,300,15.0,Training at home,,,,,,,,,,,,,
7,3,388,B,81.18994935001942,60.37789940824694,4.059497467500972,0.9484138261006604,B,1718.055541976355,Correct,sub_007_day_03_data.csv,1,300,15.0,Training at home,,,,,,,,,,,,,
7,3,389,A,40.842703695161866,53.596052945394455,2.0421351847580933,0.8418848309733039,A,753.0424169963226,Correct,sub_007_day_03_data.csv,1,300,15.0,Training at home,,,,,,,,,,,,,
7,3,390,A,38.90344427861661,62.08764639760538,1.9451722139308305,0.9752704690069892,A,664.4184170290828,Correct,sub_007_day_03_data.csv,1,300,15.0,Training at home,,,,,,,,,,,,,
7,3,391,A,51.796244080449085,72.02078314331666,2.5898122040224543,1.1312998161441363,A,696.4434170513414,Correct,sub_007_day_03_data.csv,1,300,15.0,Training at home,,,,,,,,,,,,,
7,3,392,A,19.812255156153498,47.38976939285224,0.9906127578076748,0.7443967568994952,A,569.6851239772514,Correct,sub_007_day_03_data.csv,1,300,15.0,Training at home,,,,,,,,,,,,,
7,3,393,B,55.29694782226843,23.56042195456478,2.7648473911134217,0.370086242639682,B,821.9478749670088,Correct,sub_007_day_03_data.csv,1,300,15.0,Training at home,,,,,,,,,,,,,
7,3,394,A,10.927020767999402,36.570151015924104,0.5463510383999701,0.5744425888614823,A,463.3965829852969,Correct,sub_007_day_03_data.csv,1,300,15.0,Training at home,,,,,,,,,,,,,
7,3,395,A,22.375355667730812,44.32670894062548,1.1187677833865406,0.69628231582841,A,605.3949159686454,Correct,sub_007_day_03_data.csv,1,300,15.0,Training at home,,,,,,,,,,,,,
7,3,396,A,47.05099994773552,73.57017177718969,2.352549997386776,1.1556375558927912,A,975.1730830175802,Correct,sub_007_day_03_data.csv,1,300,15.0,Training at home,,,,,,,,,,,,,
7,3,397,B,48.66670236601836,26.502214547363128,2.4333351183009184,0.4162958126292828,B,1611.0882079810835,Correct,sub_007_day_03_data.csv,1,300,15.0,Training at home,,,,,,,,,,,,,
7,3,398,A,66.8000788041057,84.54025624309622,3.340003940205285,1.3279552397295489,A,1809.0630000224337,Correct,sub_007_day_03_data.csv,1,300,15.0,Training at home,,,,,,,,,,,,,
7,3,399,A,60.75805166228732,70.07880846821342,3.037902583114366,1.1007953492803275,A,516.790832974948,Correct,sub_007_day_03_data.csv,1,300,15.0,Training at home,,,,,,,,,,,,,
7,3,400,B,76.37452132980074,46.82011831103121,3.8187260664900378,0.7354486986307032,B,875.1962499809451,Correct,sub_007_day_03_data.csv,1,300,16.0,Training at home,,,,,,,,,,,,,
7,3,401,A,40.84535913949056,59.64842065666803,2.0422679569745283,0.9369552006661096,A,890.3417080291547,Correct,sub_007_day_03_data.csv,1,300,16.0,Training at home,,,,,,,,,,,,,
7,3,402,B,56.8188133759613,25.075151033692386,2.840940668798065,0.3938795513755125,B,890.0941670290194,Correct,sub_007_day_03_data.csv,1,300,16.0,Training at home,,,,,,,,,,,,,
7,3,403,B,40.16470508101864,22.24597646483854,2.008235254050932,0.349438981169341,B,993.2949999929406,Correct,sub_007_day_03_data.csv,1,300,16.0,Training at home,,,,,,,,,,,,,
7,3,404,A,39.52611245091487,72.26409288214388,1.9763056225457436,1.1351217165843686,A,751.0342079913244,Correct,sub_007_day_03_data.csv,1,300,16.0,Training at home,,,,,,,,,,,,,
7,3,405,A,66.47505865662768,78.72605625884387,3.323752932831384,1.2366259999444031,A,996.9392080092804,Correct,sub_007_day_03_data.csv,1,300,16.0,Training at home,,,,,,,,,,,,,
7,3,406,A,27.62269012996215,40.53815147707125,1.3811345064981078,0.6367717943523863,A,531.1482500401326,Correct,sub_007_day_03_data.csv,1,300,16.0,Training at home,,,,,,,,,,,,,
7,3,407,B,44.9917306682204,19.41069876636385,2.2495865334110197,0.3049025432272656,B,644.8266659863293,Correct,sub_007_day_03_data.csv,1,300,16.0,Training at home,,,,,,,,,,,,,
7,3,408,A,57.298166943333605,77.10715341018766,2.86490834716668,1.2111963334633336,A,1162.4230419984087,Correct,sub_007_day_03_data.csv,1,300,16.0,Training at home,,,,,,,,,,,,,
7,3,409,A,55.76032069722132,64.55005018611158,2.7880160348610663,1.013949817267703,A,965.1859169825912,Correct,sub_007_day_03_data.csv,1,300,16.0,Training at home,,,,,,,,,,,,,
7,3,410,A,39.572850379282464,54.82293749039802,1.9786425189641232,0.8611566883402344,A,781.8932909867726,Correct,sub_007_day_03_data.csv,1,300,16.0,Training at home,,,,,,,,,,,,,
7,3,411,B,63.7939995981498,41.353764530900094,3.18969997990749,0.6495834142427895,B,1621.2780000059863,Correct,sub_007_day_03_data.csv,1,300,16.0,Training at home,,,,,,,,,,,,,
7,3,412,B,46.96331321805933,17.919391465138013,2.3481656609029664,0.2814771429183861,B,602.4583330145106,Correct,sub_007_day_03_data.csv,1,300,16.0,Training at home,,,,,,,,,,,,,
7,3,413,B,44.636981083436055,17.532373166747035,2.231849054171803,0.2753978737032365,B,1320.9451250149868,Correct,sub_007_day_03_data.csv,1,300,16.0,Training at home,,,,,,,,,,,,,
7,3,414,A,39.25186462971223,64.01975809403885,1.9625932314856116,1.005620008564141,A,904.2606240254828,Correct,sub_007_day_03_data.csv,1,300,16.0,Training at home,,,,,,,,,,,,,
7,3,415,B,86.12171158894525,62.45929218472506,4.306085579447262,0.9811082673797532,B,843.2791240047663,Correct,sub_007_day_03_data.csv,1,300,16.0,Training at home,,,,,,,,,,,,,
7,3,416,A,51.11490304421967,66.61604851959251,2.5557451522109833,1.0464024432016652,A,683.2563749630935,Correct,sub_007_day_03_data.csv,1,300,16.0,Training at home,,,,,,,,,,,,,
7,3,417,B,43.54835012905214,20.988928484427404,2.177417506452607,0.3296933176669934,B,651.5765420044772,Correct,sub_007_day_03_data.csv,1,300,16.0,Training at home,,,,,,,,,,,,,
7,3,418,B,85.28294750214705,62.532137503036374,4.264147375107353,0.9822525189640292,B,650.1290830201469,Correct,sub_007_day_03_data.csv,1,300,16.0,Training at home,,,,,,,,,,,,,
7,3,419,A,52.726499557662585,61.894633206595394,2.6363249778831293,0.9722386248923748,A,651.4021240291186,Correct,sub_007_day_03_data.csv,1,300,16.0,Training at home,,,,,,,,,,,,,
7,3,420,B,64.02222538505565,34.10442150921996,3.2011112692527828,0.5357110003414758,A,2234.0424159774557,Incorrect,sub_007_day_03_data.csv,0,300,16.0,Training at home,,,,,,,,,,,,,
7,3,421,A,19.271439605299506,39.177477771163645,0.9635719802649751,0.6153983817603256,A,555.0867489655502,Correct,sub_007_day_03_data.csv,1,300,16.0,Training at home,,,,,,,,,,,,,
7,3,422,B,50.61245906808463,37.38240613507467,2.5306229534042317,0.587201462437303,A,706.069000007119,Incorrect,sub_007_day_03_data.csv,0,300,16.0,Training at home,,,,,,,,,,,,,
7,3,423,A,37.65213269470368,61.48915291509549,1.882606634735184,0.965869355367617,A,685.4648739681579,Correct,sub_007_day_03_data.csv,1,300,16.0,Training at home,,,,,,,,,,,,,
7,3,424,A,56.73770075036235,74.19493074504335,2.8368850375181176,1.1654512468111584,A,806.979123968631,Correct,sub_007_day_03_data.csv,1,300,16.0,Training at home,,,,,,,,,,,,,
7,3,425,A,25.130250940113775,37.9642567423155,1.2565125470056886,0.5963411504032757,A,600.7481659762561,Correct,sub_007_day_03_data.csv,1,300,17.0,Training at home,,,,,,,,,,,,,
7,3,426,A,52.83261448097653,79.32833038653538,2.6416307240488264,1.2460864998194177,A,2547.6118329679593,Correct,sub_007_day_03_data.csv,1,300,17.0,Training at home,,,,,,,,,,,,,
7,3,427,A,12.814537259544384,30.09597684520762,0.6407268629772191,0.4727464987975638,A,874.2741660098545,Correct,sub_007_day_03_data.csv,1,300,17.0,Training at home,,,,,,,,,,,,,
7,3,428,A,60.83776248353604,84.337377613028,3.041888124176802,1.324768429660585,A,1232.578166993335,Correct,sub_007_day_03_data.csv,1,300,17.0,Training at home,,,,,,,,,,,,,
7,3,429,B,49.003541256981144,29.062835315743698,2.450177062849057,0.456517949602152,A,2225.525999965612,Incorrect,sub_007_day_03_data.csv,0,300,17.0,Training at home,,,,,,,,,,,,,
7,3,430,A,48.11436358956533,67.14244090664599,2.4057181794782663,1.0546709954820292,A,874.9700830085203,Correct,sub_007_day_03_data.csv,1,300,17.0,Training at home,,,,,,,,,,,,,
7,3,431,A,11.865594836325414,34.3438744124099,0.5932797418162707,0.5394723177491871,A,599.0530000417493,Correct,sub_007_day_03_data.csv,1,300,17.0,Training at home,,,,,,,,,,,,,
7,3,432,B,64.2259860780575,44.04878138702785,3.211299303902875,0.6919166400253476,B,1091.545916046016,Correct,sub_007_day_03_data.csv,1,300,17.0,Training at home,,,,,,,,,,,,,
7,3,433,B,68.28461698214767,52.84072313883509,3.4142308491073834,0.8300201381166824,B,750.1961249508895,Correct,sub_007_day_03_data.csv,1,300,17.0,Training at home,,,,,,,,,,,,,
7,3,434,A,56.64177022997146,71.48116050322432,2.832088511498573,1.122823443535012,A,758.8908330071718,Correct,sub_007_day_03_data.csv,1,300,17.0,Training at home,,,,,,,,,,,,,
7,3,435,B,60.72730456535595,52.28048864306429,3.0363652282677975,0.8212199952356769,A,1157.894041039981,Incorrect,sub_007_day_03_data.csv,0,300,17.0,Training at home,,,,,,,,,,,,,
7,3,436,A,19.928771984039265,49.61316865835513,0.9964385992019632,0.7793218308919992,A,804.6125409891829,Correct,sub_007_day_03_data.csv,1,300,17.0,Training at home,,,,,,,,,,,,,
7,3,437,A,46.27019001681847,71.27903548606581,2.3135095008409237,1.1196484711899524,A,832.1103329653852,Correct,sub_007_day_03_data.csv,1,300,17.0,Training at home,,,,,,,,,,,,,
7,3,438,A,45.6415959087606,62.83323204198804,2.28207979543803,0.986982100922062,A,482.8156240400858,Correct,sub_007_day_03_data.csv,1,300,17.0,Training at home,,,,,,,,,,,,,
7,3,439,A,32.72279959092418,52.36549823668436,1.636139979546209,0.8225553228096842,A,781.2800420215353,Correct,sub_007_day_03_data.csv,1,300,17.0,Training at home,,,,,,,,,,,,,
7,3,440,A,49.84726041699018,69.29786019759726,2.4923630208495093,1.0885282425313203,A,673.4087909571826,Correct,sub_007_day_03_data.csv,1,300,17.0,Training at home,,,,,,,,,,,,,
7,3,441,A,40.48161720689983,65.61109764562372,2.0240808603449914,1.03061671178727,A,629.8183749895543,Correct,sub_007_day_03_data.csv,1,300,17.0,Training at home,,,,,,,,,,,,,
7,3,442,A,60.419111315145464,81.89465807618741,3.020955565757273,1.2863982809019918,A,846.9970829901285,Correct,sub_007_day_03_data.csv,1,300,17.0,Training at home,,,,,,,,,,,,,
7,3,443,B,67.99620212943735,49.3272843910326,3.3998101064718673,0.7748311713220125,B,708.9067079941742,Correct,sub_007_day_03_data.csv,1,300,17.0,Training at home,,,,,,,,,,,,,
7,3,444,B,81.49189339643067,58.95773854204442,4.074594669821534,0.9261059913797728,B,2054.996332968585,Correct,sub_007_day_03_data.csv,1,300,17.0,Training at home,,,,,,,,,,,,,
7,3,445,B,45.31376635799607,19.9125990356186,2.2656883178998037,0.3127863742208929,B,899.5728330337442,Correct,sub_007_day_03_data.csv,1,300,17.0,Training at home,,,,,,,,,,,,,
7,3,446,A,51.18414209152894,76.79400748268155,2.559207104576447,1.2062774487365595,A,684.7778329974972,Correct,sub_007_day_03_data.csv,1,300,17.0,Training at home,,,,,,,,,,,,,
7,3,447,B,54.1925148272482,29.140406565877264,2.70962574136241,0.4577364359498989,B,1032.668708008714,Correct,sub_007_day_03_data.csv,1,300,17.0,Training at home,,,,,,,,,,,,,
7,3,448,B,37.46172588819528,26.71004815179944,1.873086294409764,0.4195604552536137,B,1970.0502919731664,Correct,sub_007_day_03_data.csv,1,300,17.0,Training at home,,,,,,,,,,,,,
7,3,449,B,51.629989819622544,43.79724008340777,2.581499490981127,0.6879654384677114,A,1712.269124982413,Incorrect,sub_007_day_03_data.csv,0,300,17.0,Training at home,,,,,,,,,,,,,
7,3,450,A,62.259491219700166,80.24717027468901,3.112974560985009,1.2605196030316612,B,1311.935167002957,Incorrect,sub_007_day_03_data.csv,0,300,18.0,Training at home,,,,,,,,,,,,,
7,3,451,A,30.16435719256389,47.33721015070681,1.5082178596281943,0.7435711582544834,A,737.7002499997616,Correct,sub_007_day_03_data.csv,1,300,18.0,Training at home,,,,,,,,,,,,,
7,3,452,B,59.76434363569326,40.05301176633487,2.988217181784663,0.6291512375963159,B,960.8634579926728,Correct,sub_007_day_03_data.csv,1,300,18.0,Training at home,,,,,,,,,,,,,
7,3,453,A,26.38490174184622,44.01921976870064,1.3192450870923111,0.6914522872105225,A,923.2737079728396,Correct,sub_007_day_03_data.csv,1,300,18.0,Training at home,,,,,,,,,,,,,
7,3,454,B,58.14815326108871,27.653557099759865,2.907407663054436,0.4343810591511573,B,908.4297079825774,Correct,sub_007_day_03_data.csv,1,300,18.0,Training at home,,,,,,,,,,,,,
7,3,455,B,41.37965774763377,24.421733126758504,2.068982887381688,0.383615686894775,B,877.0401660003699,Correct,sub_007_day_03_data.csv,1,300,18.0,Training at home,,,,,,,,,,,,,
7,3,456,A,39.85407570253558,70.78323995560827,1.992703785126779,1.111860533209112,A,993.6615410260856,Correct,sub_007_day_03_data.csv,1,300,18.0,Training at home,,,,,,,,,,,,,
7,3,457,A,33.76777749974436,42.348843558614206,1.6883888749872182,0.6652140790588292,A,1926.5849579824137,Correct,sub_007_day_03_data.csv,1,300,18.0,Training at home,,,,,,,,,,,,,
7,3,458,B,59.26190844890535,32.747161762375306,2.9630954224452677,0.5143912140929742,B,1331.8457909626886,Correct,sub_007_day_03_data.csv,1,300,18.0,Training at home,,,,,,,,,,,,,
7,3,459,B,54.68887891840024,33.29493509259817,2.7344439459200123,0.522995617443277,B,642.3484160332009,Correct,sub_007_day_03_data.csv,1,300,18.0,Training at home,,,,,,,,,,,,,
7,3,460,A,56.65880814429787,67.1511002933138,2.8329404072148936,1.05480701680973,A,816.015749995131,Correct,sub_007_day_03_data.csv,1,300,18.0,Training at home,,,,,,,,,,,,,
7,3,461,A,18.37564316544381,39.848332839894496,0.9187821582721908,0.6259361485380672,A,539.2334579955786,Correct,sub_007_day_03_data.csv,1,300,18.0,Training at home,,,,,,,,,,,,,
7,3,462,B,81.47997005503798,67.81021614210138,4.073998502751899,1.0651603843518085,B,738.4752910002135,Correct,sub_007_day_03_data.csv,1,300,18.0,Training at home,,,,,,,,,,,,,
7,3,463,B,78.65696836704869,62.51786017285384,3.932848418352435,0.9820282511859576,B,845.6458740402013,Correct,sub_007_day_03_data.csv,1,300,18.0,Training at home,,,,,,,,,,,,,
7,3,464,A,40.93009629599051,69.29880145841767,2.0465048147995257,1.088543027821713,A,1104.748041019775,Correct,sub_007_day_03_data.csv,1,300,18.0,Training at home,,,,,,,,,,,,,
7,3,465,A,49.216826574833355,69.03921215924113,2.460841328741668,1.0844654086454957,A,956.500792002771,Correct,sub_007_day_03_data.csv,1,300,18.0,Training at home,,,,,,,,,,,,,
7,3,466,B,56.35169466223811,31.67400049543757,2.8175847331119055,0.4975340363313307,B,657.76733297389,Correct,sub_007_day_03_data.csv,1,300,18.0,Training at home,,,,,,,,,,,,,
7,3,467,B,36.68077921779324,10.916072319790718,1.8340389608896617,0.171469263029547,B,696.2123749544844,Correct,sub_007_day_03_data.csv,1,300,18.0,Training at home,,,,,,,,,,,,,
7,3,468,A,62.48436624239045,75.96557944554436,3.1242183121195226,1.1932645315590698,A,1022.2459579817952,Correct,sub_007_day_03_data.csv,1,300,18.0,Training at home,,,,,,,,,,,,,
7,3,469,B,78.43447199632386,59.91373864646518,3.9217235998161937,0.9411228059041692,B,739.8229160462506,Correct,sub_007_day_03_data.csv,1,300,18.0,Training at home,,,,,,,,,,,,,
7,3,470,A,30.56081070906668,45.08471018071162,1.528040535453334,0.7081889714647428,A,692.3199990415014,Correct,sub_007_day_03_data.csv,1,300,18.0,Training at home,,,,,,,,,,,,,
7,3,471,A,45.758826266840295,61.927589737376714,2.2879413133420146,0.9727563048673268,A,519.4158329977654,Correct,sub_007_day_03_data.csv,1,300,18.0,Training at home,,,,,,,,,,,,,
7,3,472,B,56.640890856058135,28.044345021662565,2.832044542802907,0.4405195414739629,B,1194.4274579873309,Correct,sub_007_day_03_data.csv,1,300,18.0,Training at home,,,,,,,,,,,,,
7,3,473,B,66.43072789543005,36.524679765524695,3.321536394771502,0.5737283281304608,B,1453.2267490285449,Correct,sub_007_day_03_data.csv,1,300,18.0,Training at home,,,,,,,,,,,,,
7,3,474,B,68.03023901262793,52.32026591304466,3.4015119506313964,0.8218448151314278,A,1462.3385000159033,Incorrect,sub_007_day_03_data.csv,0,300,18.0,Training at home,,,,,,,,,,,,,
7,3,475,A,31.788865841159335,54.906129527582706,1.5894432920579669,0.8624634658045172,A,350.7345410180278,Correct,sub_007_day_03_data.csv,1,300,19.0,Training at home,,,,,,,,,,,,,
7,3,476,B,55.24833689354715,32.61408186400586,2.762416844677358,0.5123007999376845,B,754.5997079578228,Correct,sub_007_day_03_data.csv,1,300,19.0,Training at home,,,,,,,,,,,,,
7,3,477,A,18.884016217130895,34.21331878098812,0.9442008108565448,0.5374215546863899,A,523.7777489819564,Correct,sub_007_day_03_data.csv,1,300,19.0,Training at home,,,,,,,,,,,,,
7,3,478,A,19.481192087887216,32.7494456007919,0.9740596043943608,0.5144270885429321,A,531.5295830368996,Correct,sub_007_day_03_data.csv,1,300,19.0,Training at home,,,,,,,,,,,,,
7,3,479,A,50.95876166236428,73.81398468112396,2.547938083118214,1.1594673600320426,A,822.3987499950454,Correct,sub_007_day_03_data.csv,1,300,19.0,Training at home,,,,,,,,,,,,,
7,3,480,B,67.1504417175265,49.48740061953061,3.3575220858763255,0.7773462711578617,B,792.1773749985732,Correct,sub_007_day_03_data.csv,1,300,19.0,Training at home,,,,,,,,,,,,,
7,3,481,B,53.82553594028974,23.27200039727297,2.691276797014487,0.3655557274120576,B,740.8835830283351,Correct,sub_007_day_03_data.csv,1,300,19.0,Training at home,,,,,,,,,,,,,
7,3,482,A,41.07162309448216,53.309501429033936,2.053581154724108,0.837383690279938,A,781.5939990105107,Correct,sub_007_day_03_data.csv,1,300,19.0,Training at home,,,,,,,,,,,,,
7,3,483,A,18.943827843416152,33.076155897983774,0.9471913921708076,0.5195590418904826,A,520.9730410133488,Correct,sub_007_day_03_data.csv,1,300,19.0,Training at home,,,,,,,,,,,,,
7,3,484,A,53.75651382823027,83.98231669744087,2.687825691411513,1.3191911458406582,B,879.104208026547,Incorrect,sub_007_day_03_data.csv,0,300,19.0,Training at home,,,,,,,,,,,,,
7,3,485,A,15.826753569156176,36.52454165540669,0.7913376784578088,0.5737261587018002,A,447.0315409707837,Correct,sub_007_day_03_data.csv,1,300,19.0,Training at home,,,,,,,,,,,,,
7,3,486,B,77.52615971735767,46.59636572811224,3.876307985867884,0.7319340012771032,B,817.979582992848,Correct,sub_007_day_03_data.csv,1,300,19.0,Training at home,,,,,,,,,,,,,
7,3,487,A,45.69206859610251,64.96801416959414,2.2846034298051254,1.0205151801675727,A,955.3577490150928,Correct,sub_007_day_03_data.csv,1,300,19.0,Training at home,,,,,,,,,,,,,
7,3,488,B,83.91742443544692,60.22921890937772,4.195871221772347,0.9460783582857624,B,691.0220829886384,Correct,sub_007_day_03_data.csv,1,300,19.0,Training at home,,,,,,,,,,,,,
7,3,489,A,51.79707964283262,62.04637293706086,2.5898539821416313,0.9746221470048148,A,516.3711240165867,Correct,sub_007_day_03_data.csv,1,300,19.0,Training at home,,,,,,,,,,,,,
7,3,490,A,66.30170186478288,88.04156662640975,3.315085093239144,1.3829536946203258,A,582.7710409648716,Correct,sub_007_day_03_data.csv,1,300,19.0,Training at home,,,,,,,,,,,,,
7,3,491,A,51.79910338264566,79.97739204493497,2.589955169132283,1.2562819365081923,A,784.9576660082676,Correct,sub_007_day_03_data.csv,1,300,19.0,Training at home,,,,,,,,,,,,,
7,3,492,B,33.70062623721981,13.214746037750594,1.6850313118609903,0.2075767453562604,B,700.7054580026306,Correct,sub_007_day_03_data.csv,1,300,19.0,Training at home,,,,,,,,,,,,,
7,3,493,A,29.07645125973611,40.63383138051754,1.4538225629868058,0.6382747307612016,A,434.5971660222858,Correct,sub_007_day_03_data.csv,1,300,19.0,Training at home,,,,,,,,,,,,,
7,3,494,B,51.14558402230597,43.7859861709507,2.5572792011152985,0.6877886624242149,A,1118.7942079850473,Incorrect,sub_007_day_03_data.csv,0,300,19.0,Training at home,,,,,,,,,,,,,
7,3,495,B,55.07981974994637,28.243341348101534,2.753990987497318,0.4436453684601231,B,763.3124580024742,Correct,sub_007_day_03_data.csv,1,300,19.0,Training at home,,,,,,,,,,,,,
7,3,496,A,11.581027775307838,33.16090099593792,0.5790513887653919,0.5208902147762852,A,449.2029160028323,Correct,sub_007_day_03_data.csv,1,300,19.0,Training at home,,,,,,,,,,,,,
7,3,497,B,38.2821562715413,14.01883130641372,1.9141078135770648,0.2202072872207197,B,602.5850409641862,Correct,sub_007_day_03_data.csv,1,300,19.0,Training at home,,,,,,,,,,,,,
7,3,498,A,13.342298611402631,35.50447028047667,0.6671149305701317,0.5577029150137132,A,482.9702919814736,Correct,sub_007_day_03_data.csv,1,300,19.0,Training at home,,,,,,,,,,,,,
7,3,499,A,57.84980163596083,71.813548546204,2.8924900817980417,1.1280445827048424,A,631.4907080377452,Correct,sub_007_day_03_data.csv,1,300,19.0,Training at home,,,,,,,,,,,,,
7,3,500,B,43.18242152657877,33.40819808986314,2.159121076328938,0.524774748443933,B,490.90112501289696,Correct,sub_007_day_03_data.csv,1,300,20.0,Training at home,,,,,,,,,,,,,
7,3,501,A,39.413153078691494,68.24331443275483,1.9706576539345744,1.0719634763928043,A,575.163125002291,Correct,sub_007_day_03_data.csv,1,300,20.0,Training at home,,,,,,,,,,,,,
7,3,502,A,57.6350409611516,78.45360672133461,2.88175204805758,1.2323463726168382,A,544.5182080147788,Correct,sub_007_day_03_data.csv,1,300,20.0,Training at home,,,,,,,,,,,,,
7,3,503,B,50.69156040129127,25.685938073225913,2.5345780200645636,0.4034737717570444,B,725.6447079707868,Correct,sub_007_day_03_data.csv,1,300,20.0,Training at home,,,,,,,,,,,,,
7,3,504,A,67.67798269433703,83.10108693159069,3.383899134716852,1.3053488210480604,B,1311.9144159718417,Incorrect,sub_007_day_03_data.csv,0,300,20.0,Training at home,,,,,,,,,,,,,
7,3,505,B,45.68375950259424,17.721009553603224,2.284187975129712,0.2783609671389721,B,669.0306250238791,Correct,sub_007_day_03_data.csv,1,300,20.0,Training at home,,,,,,,,,,,,,
7,3,506,A,44.30500631885882,71.23568832050144,2.2152503159429413,1.1189675755054975,A,482.2040409781039,Correct,sub_007_day_03_data.csv,1,300,20.0,Training at home,,,,,,,,,,,,,
7,3,507,B,69.0596130520636,41.12713472776475,3.4529806526031797,0.6460235216197169,A,876.6683329595253,Incorrect,sub_007_day_03_data.csv,0,300,20.0,Training at home,,,,,,,,,,,,,
7,3,508,B,73.76681680707742,61.650808558451835,3.688340840353871,0.9684086362755152,A,851.2886249809526,Incorrect,sub_007_day_03_data.csv,0,300,20.0,Training at home,,,,,,,,,,,,,
7,3,509,A,45.43518292711169,61.92544578258638,2.2717591463555844,0.972722627704232,A,528.1634580460377,Correct,sub_007_day_03_data.csv,1,300,20.0,Training at home,,,,,,,,,,,,,
7,3,510,A,57.58692314075432,71.4256188295364,2.879346157037716,1.1219509969648818,A,823.7824580282904,Correct,sub_007_day_03_data.csv,1,300,20.0,Training at home,,,,,,,,,,,,,
7,3,511,A,28.978538577623446,59.86700314576547,1.4489269288811724,0.9403886863758693,A,658.4369160118513,Correct,sub_007_day_03_data.csv,1,300,20.0,Training at home,,,,,,,,,,,,,
7,3,512,B,83.88492819092394,57.98532295126479,4.194246409546197,0.9108313229986252,A,1496.5702909976244,Incorrect,sub_007_day_03_data.csv,0,300,20.0,Training at home,,,,,,,,,,,,,
7,3,513,B,76.19856006338148,58.86934112765421,3.809928003169074,0.9247174480415497,B,1007.3267910047434,Correct,sub_007_day_03_data.csv,1,300,20.0,Training at home,,,,,,,,,,,,,
7,3,514,B,50.8554114094776,24.532016449935902,2.5427705704738797,0.3853480132843129,B,811.1474579782225,Correct,sub_007_day_03_data.csv,1,300,20.0,Training at home,,,,,,,,,,,,,
7,3,515,A,28.70482369513943,39.47098941808969,1.4352411847569717,0.6200088519289552,A,877.0248749642633,Correct,sub_007_day_03_data.csv,1,300,20.0,Training at home,,,,,,,,,,,,,
7,3,516,B,54.1445817683061,44.198733458809336,2.707229088415305,0.694272081660844,B,1063.9740829938091,Correct,sub_007_day_03_data.csv,1,300,20.0,Training at home,,,,,,,,,,,,,
7,3,517,A,14.12534178037167,41.57575779550338,0.7062670890185835,0.6530704762889098,A,629.0745830046944,Correct,sub_007_day_03_data.csv,1,300,20.0,Training at home,,,,,,,,,,,,,
7,3,518,B,68.93845677697222,53.80440983911712,3.446922838848611,0.8451576934065236,B,983.56879100902,Correct,sub_007_day_03_data.csv,1,300,20.0,Training at home,,,,,,,,,,,,,
7,3,519,B,80.9342241579395,52.80474340526397,4.046711207896975,0.8294549697833568,B,783.7081660400145,Correct,sub_007_day_03_data.csv,1,300,20.0,Training at home,,,,,,,,,,,,,
7,3,520,A,33.43239756374978,48.6135773616858,1.6716198781874891,0.7636202875209559,A,909.8669580416754,Correct,sub_007_day_03_data.csv,1,300,20.0,Training at home,,,,,,,,,,,,,
7,3,521,A,19.17473785355797,34.375937635680074,0.9587368926778984,0.539975965682567,A,449.4028749759309,Correct,sub_007_day_03_data.csv,1,300,20.0,Training at home,,,,,,,,,,,,,
7,3,522,B,36.816094681378246,25.266501057938324,1.840804734068912,0.3968852705276889,B,1659.216332947835,Correct,sub_007_day_03_data.csv,1,300,20.0,Training at home,,,,,,,,,,,,,
7,3,523,A,46.01713275851161,65.47519215999884,2.3008566379255804,1.0284819134111618,A,1126.804124971386,Correct,sub_007_day_03_data.csv,1,300,20.0,Training at home,,,,,,,,,,,,,
7,3,524,B,81.19567904694301,65.7151265114497,4.059783952347151,1.0322507933904712,B,1625.6956250290386,Correct,sub_007_day_03_data.csv,1,300,20.0,Training at home,,,,,,,,,,,,,
7,3,525,A,55.387162697212105,74.82646686536135,2.769358134860605,1.1753713929914964,A,713.0207910086028,Correct,sub_007_day_03_data.csv,1,300,21.0,Training at home,,,,,,,,,,,,,
7,3,526,A,49.010711038450815,77.9917293448807,2.4505355519225405,1.2250912197532031,A,784.9675419856794,Correct,sub_007_day_03_data.csv,1,300,21.0,Training at home,,,,,,,,,,,,,
7,3,527,B,55.36919152832643,42.62881796674721,2.7684595764163213,0.6696119067777481,B,945.5114989541472,Correct,sub_007_day_03_data.csv,1,300,21.0,Training at home,,,,,,,,,,,,,
7,3,528,B,88.95262686168745,63.48668517099262,4.447631343084373,0.9972465186697924,B,885.351917007938,Correct,sub_007_day_03_data.csv,1,300,21.0,Training at home,,,,,,,,,,,,,
7,3,529,B,68.48633320512741,47.8687400917871,3.42431666025637,0.7519204110447878,B,1036.8190410081295,Correct,sub_007_day_03_data.csv,1,300,21.0,Training at home,,,,,,,,,,,,,
7,3,530,B,82.77721857259864,64.45136835426166,4.138860928629932,1.0123997266777904,B,1196.9218739541247,Correct,sub_007_day_03_data.csv,1,300,21.0,Training at home,,,,,,,,,,,,,
7,3,531,B,65.73288969711479,43.15823407360107,3.2866444848557395,0.677927955537669,B,864.5732500008307,Correct,sub_007_day_03_data.csv,1,300,21.0,Training at home,,,,,,,,,,,,,
7,3,532,B,66.61777476597695,36.049908963531486,3.3308887382988472,0.5662706458120568,B,572.4563329713419,Correct,sub_007_day_03_data.csv,1,300,21.0,Training at home,,,,,,,,,,,,,
7,3,533,A,10.979599029262694,36.30907596502199,0.5489799514631347,0.570341631551734,A,462.7611659816466,Correct,sub_007_day_03_data.csv,1,300,21.0,Training at home,,,,,,,,,,,,,
7,3,534,B,41.20869804134849,29.696486124953125,2.0604349020674246,0.4664713132379198,B,1116.2626660079695,Correct,sub_007_day_03_data.csv,1,300,21.0,Training at home,,,,,,,,,,,,,
7,3,535,A,39.445000245810725,71.69568845363224,1.972250012290536,1.126193240699968,A,684.291707992088,Correct,sub_007_day_03_data.csv,1,300,21.0,Training at home,,,,,,,,,,,,,
7,3,536,B,61.57425319136522,46.82421088336347,3.0787126595682612,0.7355129846065696,B,1567.4834580277093,Correct,sub_007_day_03_data.csv,1,300,21.0,Training at home,,,,,,,,,,,,,
7,3,537,B,73.14801062106261,63.41978432814328,3.6574005310531303,0.99619564268772,B,683.2381240092218,Correct,sub_007_day_03_data.csv,1,300,21.0,Training at home,,,,,,,,,,,,,
7,3,538,B,48.969182831344,36.96831776090615,2.4484591415672,0.5806969774661792,B,838.0017500021495,Correct,sub_007_day_03_data.csv,1,300,21.0,Training at home,,,,,,,,,,,,,
7,3,539,B,79.51778867578406,66.75734783686578,3.9758894337892032,1.04862196768718,B,662.98945795279,Correct,sub_007_day_03_data.csv,1,300,21.0,Training at home,,,,,,,,,,,,,
7,3,540,A,17.77068620861634,46.89621527635896,0.888534310430817,0.7366440269668737,A,737.9176660324447,Correct,sub_007_day_03_data.csv,1,300,21.0,Training at home,,,,,,,,,,,,,
7,3,541,B,35.12319491532334,18.015956721816597,1.7561597457661668,0.2829939864232533,B,677.6641250471584,Correct,sub_007_day_03_data.csv,1,300,21.0,Training at home,,,,,,,,,,,,,
7,3,542,B,64.7917350132984,38.683547800718806,3.2395867506649205,0.607639747927639,B,690.1996659580618,Correct,sub_007_day_03_data.csv,1,300,21.0,Training at home,,,,,,,,,,,,,
7,3,543,B,46.78965619948845,28.57853891161622,2.339482809974422,0.4489106394753178,B,600.9221659624018,Correct,sub_007_day_03_data.csv,1,300,21.0,Training at home,,,,,,,,,,,,,
7,3,544,B,81.59970006750542,63.779419526598254,4.079985003375271,1.0018447791749123,B,576.8988750060089,Correct,sub_007_day_03_data.csv,1,300,21.0,Training at home,,,,,,,,,,,,,
7,3,545,B,77.26413268561967,50.353037972979166,3.863206634280983,0.7909436709091962,B,659.6312079927884,Correct,sub_007_day_03_data.csv,1,300,21.0,Training at home,,,,,,,,,,,,,
7,3,546,B,77.43692685720363,58.783930848366545,3.8718463428601817,0.9233758265117938,B,637.1017079800367,Correct,sub_007_day_03_data.csv,1,300,21.0,Training at home,,,,,,,,,,,,,
7,3,547,B,70.6517479896934,44.23605844501511,3.53258739948467,0.6948583811731409,B,620.0623330078088,Correct,sub_007_day_03_data.csv,1,300,21.0,Training at home,,,,,,,,,,,,,
7,3,548,A,44.39683396633015,63.19975446134136,2.2198416983165075,0.9927394216221438,A,1559.4264160026796,Correct,sub_007_day_03_data.csv,1,300,21.0,Training at home,,,,,,,,,,,,,
7,3,549,A,27.506290735781484,39.85477440225741,1.375314536789074,0.626037332363052,A,1130.5466250050813,Correct,sub_007_day_03_data.csv,1,300,21.0,Training at home,,,,,,,,,,,,,
7,3,550,B,60.485182682362385,42.18061182779733,3.024259134118119,0.6625715012106541,A,1393.362165952567,Incorrect,sub_007_day_03_data.csv,0,300,22.0,Training at home,,,,,,,,,,,,,
7,3,551,B,50.03174180066757,42.86683218375678,2.5015870900333783,0.673350625355784,B,1045.7391659729185,Correct,sub_007_day_03_data.csv,1,300,22.0,Training at home,,,,,,,,,,,,,
7,3,552,A,26.608717501600836,47.84975358354906,1.3304358750800418,0.7516221716707979,A,682.8245830256492,Correct,sub_007_day_03_data.csv,1,300,22.0,Training at home,,,,,,,,,,,,,
7,3,553,B,51.35864897825698,25.621604016876617,2.567932448912849,0.4024632147630316,B,640.9502499736845,Correct,sub_007_day_03_data.csv,1,300,22.0,Training at home,,,,,,,,,,,,,
7,3,554,B,60.449450843807526,43.69765438905409,3.0224725421903766,0.6864011500387904,B,1239.1995409852825,Correct,sub_007_day_03_data.csv,1,300,22.0,Training at home,,,,,,,,,,,,,
7,3,555,B,65.54312135723723,47.57714863091507,3.277156067861861,0.7473401030881625,B,1752.189291000832,Correct,sub_007_day_03_data.csv,1,300,22.0,Training at home,,,,,,,,,,,,,
7,3,556,A,43.654164339397184,74.3820813427676,2.1827082169698593,1.1683910015257857,A,714.4841240369715,Correct,sub_007_day_03_data.csv,1,300,22.0,Training at home,,,,,,,,,,,,,
7,3,557,A,68.40732615088132,84.75633034379703,3.420366307544066,1.3313493237665122,B,654.7384159639478,Incorrect,sub_007_day_03_data.csv,0,300,22.0,Training at home,,,,,,,,,,,,,
7,3,558,B,66.84196473378282,46.80144404732321,3.3420982366891407,0.7351553639823216,A,1710.1537080015987,Incorrect,sub_007_day_03_data.csv,0,300,22.0,Training at home,,,,,,,,,,,,,
7,3,559,A,41.20056512996603,68.48275688296391,2.0600282564983017,1.0757246296054763,A,617.6382499979809,Correct,sub_007_day_03_data.csv,1,300,22.0,Training at home,,,,,,,,,,,,,
7,3,560,A,54.21482671076208,78.49176245404567,2.710741335538104,1.2329457214647253,A,640.8265409991145,Correct,sub_007_day_03_data.csv,1,300,22.0,Training at home,,,,,,,,,,,,,
7,3,561,B,54.37865996097644,46.534817850752574,2.718932998048822,0.7309672094803172,A,851.2375829741359,Incorrect,sub_007_day_03_data.csv,0,300,22.0,Training at home,,,,,,,,,,,,,
7,3,562,B,71.3520627082998,59.00487820312316,3.56760313541499,0.9268464594444612,B,835.2311250055209,Correct,sub_007_day_03_data.csv,1,300,22.0,Training at home,,,,,,,,,,,,,
7,3,563,A,30.794482537657696,63.730869709839595,1.5397241268828847,1.0010821604366018,A,598.3853749930859,Correct,sub_007_day_03_data.csv,1,300,22.0,Training at home,,,,,,,,,,,,,
7,3,564,A,48.56649151874832,59.1776260981809,2.428324575937416,0.9295599770346438,A,1266.7120829573832,Correct,sub_007_day_03_data.csv,1,300,22.0,Training at home,,,,,,,,,,,,,
7,3,565,B,67.1896527054088,41.518419029353666,3.35948263527044,0.6521698010564008,B,625.356082979124,Correct,sub_007_day_03_data.csv,1,300,22.0,Training at home,,,,,,,,,,,,,
7,3,566,B,75.26290811341681,64.7221320753086,3.7631454056708407,1.0166528732622888,B,637.0536239701323,Correct,sub_007_day_03_data.csv,1,300,22.0,Training at home,,,,,,,,,,,,,
7,3,567,A,30.76408156601773,57.741854686546134,1.5382040783008863,0.9070069324395136,A,432.1453740121797,Correct,sub_007_day_03_data.csv,1,300,22.0,Training at home,,,,,,,,,,,,,
7,3,568,B,87.1502988684553,62.000230983586725,4.357514943422765,0.9738973508945316,B,1241.4465409819968,Correct,sub_007_day_03_data.csv,1,300,22.0,Training at home,,,,,,,,,,,,,
7,3,569,A,33.26213044460444,43.84197240472126,1.663106522230222,0.6886680921277938,A,704.744373972062,Correct,sub_007_day_03_data.csv,1,300,22.0,Training at home,,,,,,,,,,,,,
7,3,570,A,24.002153214217778,38.151330751424624,1.2001076607108887,0.5992797020667499,A,460.6794160208665,Correct,sub_007_day_03_data.csv,1,300,22.0,Training at home,,,,,,,,,,,,,
7,3,571,A,51.84573150205466,60.753907948150896,2.592286575102733,0.9543201544339068,B,975.5677910288796,Incorrect,sub_007_day_03_data.csv,0,300,22.0,Training at home,,,,,,,,,,,,,
7,3,572,B,66.63322706286917,43.0070912034158,3.3316613531434585,0.6755538088845864,B,623.6277909483761,Correct,sub_007_day_03_data.csv,1,300,22.0,Training at home,,,,,,,,,,,,,
7,3,573,B,65.90644462159382,39.64276376586044,3.295322231079691,0.622707077074114,A,1705.728332977742,Incorrect,sub_007_day_03_data.csv,0,300,22.0,Training at home,,,,,,,,,,,,,
7,3,574,A,28.042351431362132,49.77749462862901,1.4021175715681065,0.7819030571970313,A,476.12379101337865,Correct,sub_007_day_03_data.csv,1,300,22.0,Training at home,,,,,,,,,,,,,
7,3,575,A,53.84521653675718,62.115612598130426,2.6922608268378587,0.9757097610575808,B,1112.2312910156325,Incorrect,sub_007_day_03_data.csv,0,300,23.0,Training at home,,,,,,,,,,,,,
7,3,576,B,41.23123937712124,12.991184567390995,2.0615619688560622,0.2040650499917232,B,849.4070830056444,Correct,sub_007_day_03_data.csv,1,300,23.0,Training at home,,,,,,,,,,,,,
7,3,577,B,69.74193299600016,46.242365734529706,3.487096649800008,0.7263733823810544,B,1626.9874580320902,Correct,sub_007_day_03_data.csv,1,300,23.0,Training at home,,,,,,,,,,,,,
7,3,578,B,83.42264862806039,59.947231916217454,4.17113243140302,0.9416489169551616,B,1176.8162910011597,Correct,sub_007_day_03_data.csv,1,300,23.0,Training at home,,,,,,,,,,,,,
7,3,579,A,48.81189132007777,57.97453923474896,2.440594566003889,0.910661932775703,A,515.1183329871856,Correct,sub_007_day_03_data.csv,1,300,23.0,Training at home,,,,,,,,,,,,,
7,3,580,B,44.844220746176326,17.755451534111515,2.242211037308816,0.2789019805036717,B,641.8819579994306,Correct,sub_007_day_03_data.csv,1,300,23.0,Training at home,,,,,,,,,,,,,
7,3,581,B,63.5567270025884,45.46083505339912,3.17783635012942,0.71409712714908,A,1570.1299579814076,Incorrect,sub_007_day_03_data.csv,0,300,23.0,Training at home,,,,,,,,,,,,,
7,3,582,B,73.56827184840223,50.91751683882818,3.678413592420112,0.799810484199486,B,4904.172374983318,Correct,sub_007_day_03_data.csv,1,300,23.0,Training at home,,,,,,,,,,,,,
7,3,583,A,42.910538045767765,72.72512592511612,2.1455269022883883,1.1423636066886869,A,452.5443750317209,Correct,sub_007_day_03_data.csv,1,300,23.0,Training at home,,,,,,,,,,,,,
7,3,584,B,59.71700781199703,31.83880859532313,2.9858503905998517,0.5001228359105934,B,649.2571659618989,Correct,sub_007_day_03_data.csv,1,300,23.0,Training at home,,,,,,,,,,,,,
7,3,585,B,57.56861442064894,45.191786235487776,2.878430721032447,0.7098709182000437,B,1368.133999989368,Correct,sub_007_day_03_data.csv,1,300,23.0,Training at home,,,,,,,,,,,,,
7,3,586,A,31.43106015136397,61.27387248540975,1.5715530075681985,0.9624877382858052,A,537.9394989577122,Correct,sub_007_day_03_data.csv,1,300,23.0,Training at home,,,,,,,,,,,,,
7,3,587,B,52.596463014849874,32.86151815218502,2.6298231507424936,0.5161875200635605,B,923.551415966358,Correct,sub_007_day_03_data.csv,1,300,23.0,Training at home,,,,,,,,,,,,,
7,3,588,A,34.25843592208631,50.65572045258251,1.7129217961043155,0.7956981961806572,A,824.2060829652473,Correct,sub_007_day_03_data.csv,1,300,23.0,Training at home,,,,,,,,,,,,,
7,3,589,B,80.65581497495621,51.01551065212072,4.032790748747811,0.8013497674191714,B,630.2725829882547,Correct,sub_007_day_03_data.csv,1,300,23.0,Training at home,,,,,,,,,,,,,
7,3,590,B,75.71897685248142,53.98000689446434,3.7859488426240713,0.8479159655018778,B,649.8817500541918,Correct,sub_007_day_03_data.csv,1,300,23.0,Training at home,,,,,,,,,,,,,
7,3,591,A,65.67976742969788,79.6614423538939,3.283988371484894,1.2513190103667993,A,629.8136240220629,Correct,sub_007_day_03_data.csv,1,300,23.0,Training at home,,,,,,,,,,,,,
7,3,592,B,52.641497174667045,38.88982842091143,2.632074858733352,0.6108799963325144,A,722.6514989743009,Incorrect,sub_007_day_03_data.csv,0,300,23.0,Training at home,,,,,,,,,,,,,
7,3,593,B,56.38872430516314,36.381107380233175,2.8194362152581567,0.5714730983760096,B,906.837542017456,Correct,sub_007_day_03_data.csv,1,300,23.0,Training at home,,,,,,,,,,,,,
7,3,594,B,85.16414591983902,69.63048815151382,4.258207295991951,1.0937531502133346,B,939.5775409648196,Correct,sub_007_day_03_data.csv,1,300,23.0,Training at home,,,,,,,,,,,,,
7,3,595,B,39.1359052459902,28.21929538591418,1.9567952622995104,0.4432676553693417,B,1234.0054170344956,Correct,sub_007_day_03_data.csv,1,300,23.0,Training at home,,,,,,,,,,,,,
7,3,596,A,35.65708549677589,50.64222775569032,1.7828542748387946,0.7954862533934891,B,1552.0195409771986,Incorrect,sub_007_day_03_data.csv,0,300,23.0,Training at home,,,,,,,,,,,,,
7,3,597,B,58.3498671715256,29.536151546871167,2.91749335857628,0.4639527835748263,B,657.6829580008052,Correct,sub_007_day_03_data.csv,1,300,23.0,Training at home,,,,,,,,,,,,,
7,3,598,B,53.30008964243404,45.890970538756726,2.665004482121702,0.7208536795533187,B,668.499541003257,Correct,sub_007_day_03_data.csv,1,300,23.0,Training at home,,,,,,,,,,,,,
7,3,599,A,33.0394160716218,43.179968717989134,1.6519708035810905,0.6782693625333588,A,710.0777080049738,Correct,sub_007_day_03_data.csv,1,300,23.0,Training at home,,,,,,,,,,,,,
