subject,day,trial,cat,x,y,xt,yt,resp,rt,fb,f_name,acc,n_trials,block,session_type,ns_left_digit,ns_right_digit,ns_left_size,ns_right_size,ns_congruent,ns_cue,ns_correct_side,ns_resp,ns_rt,ns_fb,acc_stroop,acc_stroop_mean,resp_key
7,8,1500,B,85.1240723376848,68.74052456514237,4.256203616884239,1.0797736348887998,A,923.7397080287336,Incorrect,sub_007_day_07_data.csv,0,300,60.0,Training at home,,,,,,,,,,,,,
7,8,1501,A,40.77024174043584,61.431098477027945,2.038512087021792,0.9649574383869108,A,463.0207499722019,Correct,sub_007_day_07_data.csv,1,300,60.0,Training at home,,,,,,,,,,,,,
7,8,1502,B,69.12578119568862,59.93410636734647,3.4562890597844307,0.9414427413156246,A,2227.8973740176298,Incorrect,sub_007_day_07_data.csv,0,300,60.0,Training at home,,,,,,,,,,,,,
7,8,1503,A,38.890358972700305,64.22352078729652,1.9445179486350153,1.0088207054652103,A,881.7810410400853,Correct,sub_007_day_07_data.csv,1,300,60.0,Training at home,,,,,,,,,,,,,
7,8,1504,A,52.0235874996313,75.98917270250512,2.601179374981565,1.1936351335727806,A,677.126957976725,Correct,sub_007_day_07_data.csv,1,300,60.0,Training at home,,,,,,,,,,,,,
7,8,1505,A,24.50076011115797,56.27656786872514,1.2250380055578984,0.8839902609281712,A,505.2517909789458,Correct,sub_007_day_07_data.csv,1,300,60.0,Training at home,,,,,,,,,,,,,
7,8,1506,A,50.75545229976606,79.93180795559152,2.5377726149883033,1.2555659033071829,A,713.2368739694357,Correct,sub_007_day_07_data.csv,1,300,60.0,Training at home,,,,,,,,,,,,,
7,8,1507,A,61.532519569353994,70.65369757697074,3.0766259784676997,1.1098256862838314,B,754.5412910403684,Incorrect,sub_007_day_07_data.csv,0,300,60.0,Training at home,,,,,,,,,,,,,
7,8,1508,B,78.55214240503997,55.48707867451928,3.927607120251998,0.8715889936651432,B,892.5626660347916,Correct,sub_007_day_07_data.csv,1,300,60.0,Training at home,,,,,,,,,,,,,
7,8,1509,A,53.531518101751345,73.00441202174105,2.676575905087567,1.14675062243572,A,620.3276659944095,Correct,sub_007_day_07_data.csv,1,300,60.0,Training at home,,,,,,,,,,,,,
7,8,1510,A,40.550869111572894,60.54248042349598,2.0275434555786447,0.9509990586427942,A,532.0609160116874,Correct,sub_007_day_07_data.csv,1,300,60.0,Training at home,,,,,,,,,,,,,
7,8,1511,B,60.5961923607446,51.1718554817746,3.02980961803723,0.8038056262605083,B,669.541165989358,Correct,sub_007_day_07_data.csv,1,300,60.0,Training at home,,,,,,,,,,,,,
7,8,1512,B,60.760505833197264,32.18217424456349,3.038025291659863,0.5055164109163366,B,556.0054579982534,Correct,sub_007_day_07_data.csv,1,300,60.0,Training at home,,,,,,,,,,,,,
7,8,1513,A,50.82329905353837,64.50405195960049,2.5411649526769184,1.013227278815276,A,690.8105409820564,Correct,sub_007_day_07_data.csv,1,300,60.0,Training at home,,,,,,,,,,,,,
7,8,1514,A,64.41110020651797,78.33445788090386,3.2205550103258984,1.2304747870079331,A,857.3985410039313,Correct,sub_007_day_07_data.csv,1,300,60.0,Training at home,,,,,,,,,,,,,
7,8,1515,B,85.62150201342213,57.82241310595357,4.2810751006711065,0.9082723411324896,B,2108.701416000258,Correct,sub_007_day_07_data.csv,1,300,60.0,Training at home,,,,,,,,,,,,,
7,8,1516,B,53.91831542169671,25.9522915253225,2.6959157710848354,0.4076576419988691,B,651.595666015055,Correct,sub_007_day_07_data.csv,1,300,60.0,Training at home,,,,,,,,,,,,,
7,8,1517,B,34.08816937190318,20.392232709096948,1.7044084685951588,0.3203204423459623,A,913.71579101542,Incorrect,sub_007_day_07_data.csv,0,300,60.0,Training at home,,,,,,,,,,,,,
7,8,1518,B,67.48792645482678,58.16723370371196,3.374396322741339,0.9136887704161104,B,1329.663582961075,Correct,sub_007_day_07_data.csv,1,300,60.0,Training at home,,,,,,,,,,,,,
7,8,1519,A,46.67533457264069,53.63774429794274,2.3337667286320345,0.8425397172077235,A,1609.407748968806,Correct,sub_007_day_07_data.csv,1,300,60.0,Training at home,,,,,,,,,,,,,
7,8,1520,A,54.93945969470899,75.6237085574202,2.7469729847354496,1.1878944362060344,A,958.442123956047,Correct,sub_007_day_07_data.csv,1,300,60.0,Training at home,,,,,,,,,,,,,
7,8,1521,A,32.72338271029007,64.2336782283703,1.6361691355145036,1.0089802581764935,A,549.1794159752317,Correct,sub_007_day_07_data.csv,1,300,60.0,Training at home,,,,,,,,,,,,,
7,8,1522,A,36.64765409339977,68.70678584345293,1.8323827046699888,1.0792436682877946,A,596.836207958404,Correct,sub_007_day_07_data.csv,1,300,60.0,Training at home,,,,,,,,,,,,,
7,8,1523,A,58.77727389549091,69.6639745546361,2.9388636947745455,1.0942791534035552,A,986.470582021866,Correct,sub_007_day_07_data.csv,1,300,60.0,Training at home,,,,,,,,,,,,,
7,8,1524,B,38.07482246300684,27.19017092296512,1.903741123150342,0.4271022061071901,B,569.7605409659445,Correct,sub_007_day_07_data.csv,1,300,60.0,Training at home,,,,,,,,,,,,,
7,8,1525,A,24.652553848637098,53.02546436417986,1.2326276924318549,0.832922046498474,A,645.7221240270883,Correct,sub_007_day_07_data.csv,1,300,61.0,Training at home,,,,,,,,,,,,,
7,8,1526,B,87.45376315751949,63.12601199838361,4.372688157875974,0.9915810777227154,B,917.3907490330748,Correct,sub_007_day_07_data.csv,1,300,61.0,Training at home,,,,,,,,,,,,,
7,8,1527,A,58.37431918720803,84.7409415229857,2.9187159593604015,1.3311075967344703,A,748.5494579887018,Correct,sub_007_day_07_data.csv,1,300,61.0,Training at home,,,,,,,,,,,,,
7,8,1528,B,82.31523122465897,62.25776714320866,4.115761561232949,0.9779427194300416,B,654.0110409841873,Correct,sub_007_day_07_data.csv,1,300,61.0,Training at home,,,,,,,,,,,,,
7,8,1529,B,41.99583960060981,29.27340191471377,2.0997919800304907,0.4598255220042308,B,671.5457069803961,Correct,sub_007_day_07_data.csv,1,300,61.0,Training at home,,,,,,,,,,,,,
7,8,1530,A,58.671787839414506,76.07430247878892,2.933589391970725,1.1949723489716553,A,1057.1337909786962,Correct,sub_007_day_07_data.csv,1,300,61.0,Training at home,,,,,,,,,,,,,
7,8,1531,B,59.283421298108046,43.97571224797387,2.9641710649054023,0.6907688726730669,B,952.595623966772,Correct,sub_007_day_07_data.csv,1,300,61.0,Training at home,,,,,,,,,,,,,
7,8,1532,B,71.91779114005335,50.9472983660589,3.5958895570026677,0.8002782913352896,B,776.0577069711871,Correct,sub_007_day_07_data.csv,1,300,61.0,Training at home,,,,,,,,,,,,,
7,8,1533,B,52.649524054135995,25.52316578311465,2.6324762027068,0.4009169506029368,B,647.0165829523467,Correct,sub_007_day_07_data.csv,1,300,61.0,Training at home,,,,,,,,,,,,,
7,8,1534,B,76.27949282132444,53.60648135015053,3.813974641066222,0.8420486399721558,B,1611.6147490101866,Correct,sub_007_day_07_data.csv,1,300,61.0,Training at home,,,,,,,,,,,,,
7,8,1535,A,33.5339308979485,58.933626831309915,1.676696544897425,0.9257272455132276,A,516.0609990125522,Correct,sub_007_day_07_data.csv,1,300,61.0,Training at home,,,,,,,,,,,,,
7,8,1536,A,36.66128679657664,58.71052502108872,1.833064339828832,0.9222227704732604,A,681.6554580000229,Correct,sub_007_day_07_data.csv,1,300,61.0,Training at home,,,,,,,,,,,,,
7,8,1537,A,27.52447568588036,41.5838710066202,1.3762237842940177,0.6531979183111182,A,1155.347875028383,Correct,sub_007_day_07_data.csv,1,300,61.0,Training at home,,,,,,,,,,,,,
7,8,1538,B,59.88194256669274,37.74867099882497,2.9940971283346367,0.592954737463433,B,913.6261660023592,Correct,sub_007_day_07_data.csv,1,300,61.0,Training at home,,,,,,,,,,,,,
7,8,1539,B,58.80660758269367,47.59211869660909,2.940330379134684,0.7475752523302028,B,1234.8259160062298,Correct,sub_007_day_07_data.csv,1,300,61.0,Training at home,,,,,,,,,,,,,
7,8,1540,A,37.373544448993265,59.24184774878023,1.8686772224496633,0.9305687683632652,A,703.7414580117911,Correct,sub_007_day_07_data.csv,1,300,61.0,Training at home,,,,,,,,,,,,,
7,8,1541,B,37.54134196166144,27.904256802152823,1.8770670980830717,0.4383190408676316,B,2258.4443319938146,Correct,sub_007_day_07_data.csv,1,300,61.0,Training at home,,,,,,,,,,,,,
7,8,1542,A,36.93431500536156,59.271212837698656,1.846715750268078,0.9310300341013557,A,1493.719749036245,Correct,sub_007_day_07_data.csv,1,300,61.0,Training at home,,,,,,,,,,,,,
7,8,1543,B,60.16930048822532,30.000603448873235,3.0084650244112656,0.4712483769912038,B,1381.1070410301909,Correct,sub_007_day_07_data.csv,1,300,61.0,Training at home,,,,,,,,,,,,,
7,8,1544,A,36.27852039392007,47.887533632685646,1.8139260196960032,0.7522156192948968,A,1233.22554101469,Correct,sub_007_day_07_data.csv,1,300,61.0,Training at home,,,,,,,,,,,,,
7,8,1545,B,51.66860862111889,31.365804924941393,2.5834304310559446,0.4926929116306321,B,1015.3374579967932,Correct,sub_007_day_07_data.csv,1,300,61.0,Training at home,,,,,,,,,,,,,
7,8,1546,A,10.540865683464158,35.8063119331712,0.527043284173208,0.562444232606976,A,672.0521239913069,Correct,sub_007_day_07_data.csv,1,300,61.0,Training at home,,,,,,,,,,,,,
7,8,1547,B,74.63343657125151,60.58940140753897,3.731671828562576,0.9517360917366376,B,2281.0986249824055,Correct,sub_007_day_07_data.csv,1,300,61.0,Training at home,,,,,,,,,,,,,
7,8,1548,A,52.29773666335116,77.73326887642321,2.614886833167558,1.2210313322084565,A,896.5334989479743,Correct,sub_007_day_07_data.csv,1,300,61.0,Training at home,,,,,,,,,,,,,
7,8,1549,A,13.674001003125651,38.16778611640152,0.6837000501562827,0.5995381823353676,A,519.2583749885671,Correct,sub_007_day_07_data.csv,1,300,61.0,Training at home,,,,,,,,,,,,,
7,8,1550,B,65.75771885366139,35.89412106663178,3.2878859426830696,0.5638235352499651,B,1012.238874041941,Correct,sub_007_day_07_data.csv,1,300,62.0,Training at home,,,,,,,,,,,,,
7,8,1551,A,24.378066100389752,39.84313732165909,1.2189033050194875,0.6258545375284676,A,1275.8229990140535,Correct,sub_007_day_07_data.csv,1,300,62.0,Training at home,,,,,,,,,,,,,
7,8,1552,B,36.30884565180552,17.780491423527625,1.815442282590276,0.2792953061668535,B,828.6179999704473,Correct,sub_007_day_07_data.csv,1,300,62.0,Training at home,,,,,,,,,,,,,
7,8,1553,A,18.531122829244524,37.70099919373382,0.9265561414622262,0.5922059105001445,A,828.8935819873586,Correct,sub_007_day_07_data.csv,1,300,62.0,Training at home,,,,,,,,,,,,,
7,8,1554,A,54.82664669098736,62.191311345767346,2.7413323345493676,0.9768988342048912,B,1875.3084990312343,Incorrect,sub_007_day_07_data.csv,0,300,62.0,Training at home,,,,,,,,,,,,,
7,8,1555,B,87.90784733042341,68.33777433252207,4.39539236652117,1.0734472490286424,B,756.131790985819,Correct,sub_007_day_07_data.csv,1,300,62.0,Training at home,,,,,,,,,,,,,
7,8,1556,A,55.1479055827035,65.37489593913182,2.7573952791351752,1.0269064640578685,A,1286.6196659742857,Correct,sub_007_day_07_data.csv,1,300,62.0,Training at home,,,,,,,,,,,,,
7,8,1557,B,89.13603625325499,69.15255991312408,4.456801812662749,1.0862458709999931,B,1858.948583016172,Correct,sub_007_day_07_data.csv,1,300,62.0,Training at home,,,,,,,,,,,,,
7,8,1558,B,69.35771142179739,50.11119944819642,3.4678855710898695,0.7871448802451338,B,900.4846250172704,Correct,sub_007_day_07_data.csv,1,300,62.0,Training at home,,,,,,,,,,,,,
7,8,1559,B,56.3645710757888,44.024369151546296,2.8182285537894405,0.6915331735271147,B,2725.008041015826,Correct,sub_007_day_07_data.csv,1,300,62.0,Training at home,,,,,,,,,,,,,
7,8,1560,A,38.87609899136819,70.29940284437797,1.9438049495684095,1.104260437638236,A,700.0722499797121,Correct,sub_007_day_07_data.csv,1,300,62.0,Training at home,,,,,,,,,,,,,
7,8,1561,B,82.09723672547516,54.59745691986552,4.104861836273758,0.8576148478206738,B,1105.401623994112,Correct,sub_007_day_07_data.csv,1,300,62.0,Training at home,,,,,,,,,,,,,
7,8,1562,B,71.12553326550875,60.67942179472849,3.5562766632754377,0.953150128671977,B,2050.3580829827115,Correct,sub_007_day_07_data.csv,1,300,62.0,Training at home,,,,,,,,,,,,,
7,8,1563,A,41.49867530971141,57.91204354059696,2.07493376548557,0.9096802527075584,A,731.5615830011666,Correct,sub_007_day_07_data.csv,1,300,62.0,Training at home,,,,,,,,,,,,,
7,8,1564,A,62.17456125490001,72.8283814606412,3.108728062745001,1.1439855408479274,A,2387.5501239672303,Correct,sub_007_day_07_data.csv,1,300,62.0,Training at home,,,,,,,,,,,,,
7,8,1565,B,58.26865950263487,50.622173251826695,2.913432975131743,0.7951712379834424,B,2711.9900000398047,Correct,sub_007_day_07_data.csv,1,300,62.0,Training at home,,,,,,,,,,,,,
7,8,1566,B,44.9443844892136,25.95623731648277,2.24721922446068,0.4077196223414775,B,1359.319290961139,Correct,sub_007_day_07_data.csv,1,300,62.0,Training at home,,,,,,,,,,,,,
7,8,1567,B,65.44913123356721,57.12831013375818,3.2724565616783603,0.8973693971410701,B,1629.551124991849,Correct,sub_007_day_07_data.csv,1,300,62.0,Training at home,,,,,,,,,,,,,
7,8,1568,B,72.58935936146761,54.975550578331635,3.629467968073381,0.8635539291197037,B,1605.8548329747282,Correct,sub_007_day_07_data.csv,1,300,62.0,Training at home,,,,,,,,,,,,,
7,8,1569,A,45.909459152454936,69.37728754623244,2.2954729576227466,1.0897758844061525,A,2204.4144989922643,Correct,sub_007_day_07_data.csv,1,300,62.0,Training at home,,,,,,,,,,,,,
7,8,1570,A,60.07848318613912,84.10176668718528,3.003924159306956,1.3210674618919205,A,1359.7923319903202,Correct,sub_007_day_07_data.csv,1,300,62.0,Training at home,,,,,,,,,,,,,
7,8,1571,B,60.73034328887279,39.55741097028174,3.0365171644436395,0.621366358496347,B,840.4153329902329,Correct,sub_007_day_07_data.csv,1,300,62.0,Training at home,,,,,,,,,,,,,
7,8,1572,A,26.295816071467463,55.61338055534872,1.3147908035733733,0.873572938969885,A,583.1150829908438,Correct,sub_007_day_07_data.csv,1,300,62.0,Training at home,,,,,,,,,,,,,
7,8,1573,B,49.28026715947809,38.85821227229631,2.4640133579739047,0.6103833710313943,B,908.4140409831888,Correct,sub_007_day_07_data.csv,1,300,62.0,Training at home,,,,,,,,,,,,,
7,8,1574,B,63.59217470475393,50.63177638205545,3.1796087352376965,0.795322083600333,B,1469.5267080096528,Correct,sub_007_day_07_data.csv,1,300,62.0,Training at home,,,,,,,,,,,,,
7,8,1575,B,62.29011510634564,49.313511880341295,3.114505755317282,0.7746148332299659,B,1174.3346250150353,Correct,sub_007_day_07_data.csv,1,300,63.0,Training at home,,,,,,,,,,,,,
7,8,1576,A,22.26059969995386,40.02900148673256,1.113029984997693,0.6287740850062696,A,1313.312665966805,Correct,sub_007_day_07_data.csv,1,300,63.0,Training at home,,,,,,,,,,,,,
7,8,1577,B,51.66539344719754,23.649301258055992,2.583269672359877,0.3714823554742028,B,863.4396659908816,Correct,sub_007_day_07_data.csv,1,300,63.0,Training at home,,,,,,,,,,,,,
7,8,1578,B,48.74607865341885,30.855965975677886,2.4373039326709427,0.4846843801430313,B,1361.7401660303583,Correct,sub_007_day_07_data.csv,1,300,63.0,Training at home,,,,,,,,,,,,,
7,8,1579,A,33.98042423984515,58.2054850029421,1.6990212119922574,0.9142896204193688,A,1132.977124012541,Correct,sub_007_day_07_data.csv,1,300,63.0,Training at home,,,,,,,,,,,,,
7,8,1580,B,31.270021320993337,17.11800977457504,1.5635010660496669,0.2688890687594161,B,696.5614160289988,Correct,sub_007_day_07_data.csv,1,300,63.0,Training at home,,,,,,,,,,,,,
7,8,1581,B,43.8005147535786,20.01016972511289,2.19002573767893,0.3143190110274976,B,969.6794989868068,Correct,sub_007_day_07_data.csv,1,300,63.0,Training at home,,,,,,,,,,,,,
7,8,1582,A,52.26515703961991,82.2283556803819,2.6132578519809955,1.2916399906112814,A,781.7004160024226,Correct,sub_007_day_07_data.csv,1,300,63.0,Training at home,,,,,,,,,,,,,
7,8,1583,A,48.13304697883892,65.08240631639025,2.4066523489419462,1.0223120478075878,A,1724.4548739981838,Correct,sub_007_day_07_data.csv,1,300,63.0,Training at home,,,,,,,,,,,,,
7,8,1584,A,51.75572831246036,77.94071076669277,2.587786415623018,1.2242898218010445,A,743.6957500176504,Correct,sub_007_day_07_data.csv,1,300,63.0,Training at home,,,,,,,,,,,,,
7,8,1585,A,40.54780601890461,59.95734948479716,2.0273903009452305,0.9418078433507728,A,1349.16816605255,Correct,sub_007_day_07_data.csv,1,300,63.0,Training at home,,,,,,,,,,,,,
7,8,1586,B,37.61145167607583,24.37940999478518,1.8805725838037912,0.3829508766923535,B,939.9566660285928,Correct,sub_007_day_07_data.csv,1,300,63.0,Training at home,,,,,,,,,,,,,
7,8,1587,A,54.87175862477036,77.67521040725917,2.743587931238518,1.2201193519074345,A,1014.6426239516586,Correct,sub_007_day_07_data.csv,1,300,63.0,Training at home,,,,,,,,,,,,,
7,8,1588,A,46.785546083219224,58.068521283008785,2.339277304160962,0.9121381993376148,A,748.4347490244545,Correct,sub_007_day_07_data.csv,1,300,63.0,Training at home,,,,,,,,,,,,,
7,8,1589,A,58.93112000824446,84.5153537594287,2.9465560004122233,1.3275640724308186,A,693.812582991086,Correct,sub_007_day_07_data.csv,1,300,63.0,Training at home,,,,,,,,,,,,,
7,8,1590,B,69.66205673265016,40.719292240584686,3.483102836632508,0.6396171468119837,B,817.352915997617,Correct,sub_007_day_07_data.csv,1,300,63.0,Training at home,,,,,,,,,,,,,
7,8,1591,B,78.63988772340431,61.27693212146569,3.9319943861702153,0.9625357989365853,B,654.3838740326464,Correct,sub_007_day_07_data.csv,1,300,63.0,Training at home,,,,,,,,,,,,,
7,8,1592,B,86.04906806844687,63.108351084565584,4.302453403422344,0.9913036607371836,B,668.3686660253443,Correct,sub_007_day_07_data.csv,1,300,63.0,Training at home,,,,,,,,,,,,,
7,8,1593,B,33.84667330970045,20.83273959791987,1.6923336654850225,0.3272399083748711,B,1165.413748996798,Correct,sub_007_day_07_data.csv,1,300,63.0,Training at home,,,,,,,,,,,,,
7,8,1594,A,38.071623903495656,53.50924517490317,1.903581195174783,0.8405212577030544,A,668.6116239870898,Correct,sub_007_day_07_data.csv,1,300,63.0,Training at home,,,,,,,,,,,,,
7,8,1595,A,25.104173896932704,45.64641206447454,1.2552086948466352,0.7170121640224285,A,618.6690829927102,Correct,sub_007_day_07_data.csv,1,300,63.0,Training at home,,,,,,,,,,,,,
7,8,1596,A,28.139533575896827,45.72254939076469,1.4069766787948412,0.718208126347114,A,754.128040978685,Correct,sub_007_day_07_data.csv,1,300,63.0,Training at home,,,,,,,,,,,,,
7,8,1597,A,31.955964520796982,55.10557221834929,1.5977982260398491,0.8655963042651397,A,697.1068319980986,Correct,sub_007_day_07_data.csv,1,300,63.0,Training at home,,,,,,,,,,,,,
7,8,1598,A,52.69555122420964,71.1696328682221,2.634777561210482,1.117929978887446,A,1015.1219579856844,Correct,sub_007_day_07_data.csv,1,300,63.0,Training at home,,,,,,,,,,,,,
7,8,1599,B,44.499006572469675,22.605033789989346,2.2249503286234837,0.3550790404438978,B,676.6431239666417,Correct,sub_007_day_07_data.csv,1,300,63.0,Training at home,,,,,,,,,,,,,
7,8,1600,B,50.46783737289846,30.83774965656891,2.523391868644923,0.4843982388715902,B,1383.675790973939,Correct,sub_007_day_07_data.csv,1,300,64.0,Training at home,,,,,,,,,,,,,
7,8,1601,A,32.23333491095941,62.85134059546083,1.6116667455479703,0.9872665494148484,A,700.9956249967217,Correct,sub_007_day_07_data.csv,1,300,64.0,Training at home,,,,,,,,,,,,,
7,8,1602,B,82.19857743297624,53.97328427813907,4.109928871648812,0.8478103668915762,B,1271.192874002736,Correct,sub_007_day_07_data.csv,1,300,64.0,Training at home,,,,,,,,,,,,,
7,8,1603,A,55.30161841823892,82.69609345962883,2.765080920911946,1.2989871984667245,A,754.0248329751194,Correct,sub_007_day_07_data.csv,1,300,64.0,Training at home,,,,,,,,,,,,,
7,8,1604,A,54.12079077595409,82.83853641486903,2.7060395387977048,1.3012246871754154,A,1218.8094989978708,Correct,sub_007_day_07_data.csv,1,300,64.0,Training at home,,,,,,,,,,,,,
7,8,1605,B,42.63403941635684,22.488542433991825,2.131701970817842,0.3532491985028552,B,609.1346240136772,Correct,sub_007_day_07_data.csv,1,300,64.0,Training at home,,,,,,,,,,,,,
7,8,1606,A,32.179578008585075,59.63740135150909,1.6089789004292538,0.9367821098254348,A,635.1322490372695,Correct,sub_007_day_07_data.csv,1,300,64.0,Training at home,,,,,,,,,,,,,
7,8,1607,A,15.698331461547134,39.597778058180495,0.7849165730773566,0.6220004432302947,A,638.8148750411347,Correct,sub_007_day_07_data.csv,1,300,64.0,Training at home,,,,,,,,,,,,,
7,8,1608,B,68.8336022953261,52.10621830374844,3.441680114766305,0.8184825631470106,B,1266.4870409644209,Correct,sub_007_day_07_data.csv,1,300,64.0,Training at home,,,,,,,,,,,,,
7,8,1609,A,13.243387412033757,34.941285227865094,0.6621693706016878,0.5488564248942327,A,921.1499160155654,Correct,sub_007_day_07_data.csv,1,300,64.0,Training at home,,,,,,,,,,,,,
7,8,1610,A,45.44224686888101,65.36791062291954,2.2721123434440504,1.026796738967391,A,1152.4205830064602,Correct,sub_007_day_07_data.csv,1,300,64.0,Training at home,,,,,,,,,,,,,
7,8,1611,A,18.418812532194043,41.772508701071224,0.920940626609702,0.6561610322865054,A,541.7035829741508,Correct,sub_007_day_07_data.csv,1,300,64.0,Training at home,,,,,,,,,,,,,
7,8,1612,B,78.34348504535174,46.31516664817429,3.917174252267587,0.7275169364584569,B,1207.763791026082,Correct,sub_007_day_07_data.csv,1,300,64.0,Training at home,,,,,,,,,,,,,
7,8,1613,B,59.36848554542887,37.96847050920909,2.968424277271444,0.5964073400988599,B,1990.5045820050873,Correct,sub_007_day_07_data.csv,1,300,64.0,Training at home,,,,,,,,,,,,,
7,8,1614,B,35.914929201797214,22.384126127735925,1.7957464600898607,0.3516090309996126,B,755.1104990416206,Correct,sub_007_day_07_data.csv,1,300,64.0,Training at home,,,,,,,,,,,,,
7,8,1615,B,60.85425405182928,43.63600171147863,3.042712702591464,0.6854327120440645,B,1256.1751659959557,Correct,sub_007_day_07_data.csv,1,300,64.0,Training at home,,,,,,,,,,,,,
7,8,1616,B,87.38279973722638,66.04013534035741,4.3691399868613185,1.037356020136713,B,1314.117874018848,Correct,sub_007_day_07_data.csv,1,300,64.0,Training at home,,,,,,,,,,,,,
7,8,1617,B,44.83623715597608,22.581471726420904,2.241811857798804,0.3547089284148477,B,663.3544159703888,Correct,sub_007_day_07_data.csv,1,300,64.0,Training at home,,,,,,,,,,,,,
7,8,1618,B,35.2724187891684,18.907076728315825,1.76362093945842,0.2969916667526776,B,1006.6075829672628,Correct,sub_007_day_07_data.csv,1,300,64.0,Training at home,,,,,,,,,,,,,
7,8,1619,B,68.83847124505728,39.43396855742134,3.441923562252864,0.6194273296094289,B,1267.3659159918316,Correct,sub_007_day_07_data.csv,1,300,64.0,Training at home,,,,,,,,,,,,,
7,8,1620,B,57.1172352876788,34.10987108423178,2.85586176438394,0.5357966020655873,B,616.8804990011267,Correct,sub_007_day_07_data.csv,1,300,64.0,Training at home,,,,,,,,,,,,,
7,8,1621,A,44.1229435380907,67.08142663120567,2.206147176904535,1.053712585484592,A,928.7695829989387,Correct,sub_007_day_07_data.csv,1,300,64.0,Training at home,,,,,,,,,,,,,
7,8,1622,A,36.78146168920208,63.46822880454656,1.839073084460104,0.996956606743598,A,1017.3070409800856,Correct,sub_007_day_07_data.csv,1,300,64.0,Training at home,,,,,,,,,,,,,
7,8,1623,A,45.12959674113321,52.07164941119856,2.256479837056661,0.8179395562526234,A,722.8560830117203,Correct,sub_007_day_07_data.csv,1,300,64.0,Training at home,,,,,,,,,,,,,
7,8,1624,A,48.326375930640246,57.0995478415597,2.4163187965320123,0.8969176001117144,A,1240.7006659777835,Correct,sub_007_day_07_data.csv,1,300,64.0,Training at home,,,,,,,,,,,,,
7,8,1625,B,81.36590996723504,58.28915767245819,4.068295498361752,0.9156039476386588,B,1075.3331659943797,Correct,sub_007_day_07_data.csv,1,300,65.0,Training at home,,,,,,,,,,,,,
7,8,1626,B,39.65031737031332,20.972150620427755,1.9825158685156656,0.3294297715955723,B,1327.5599159533158,Correct,sub_007_day_07_data.csv,1,300,65.0,Training at home,,,,,,,,,,,,,
7,8,1627,A,38.88461968004018,57.64030758928642,1.9442309840020089,0.9054118343657912,A,951.220708026085,Correct,sub_007_day_07_data.csv,1,300,65.0,Training at home,,,,,,,,,,,,,
7,8,1628,B,71.09678413695349,57.15415630461294,3.5548392068476744,0.897775387843474,B,2081.585373962298,Correct,sub_007_day_07_data.csv,1,300,65.0,Training at home,,,,,,,,,,,,,
7,8,1629,B,45.995102681691165,19.037743926988043,2.299755134084558,0.2990441823097466,B,630.5882910382934,Correct,sub_007_day_07_data.csv,1,300,65.0,Training at home,,,,,,,,,,,,,
7,8,1630,A,13.52821565459394,34.038180678690644,0.6764107827296969,0.5346704918086829,A,681.5952910110354,Correct,sub_007_day_07_data.csv,1,300,65.0,Training at home,,,,,,,,,,,,,
7,8,1631,A,20.387943021185915,50.866745907013986,1.0193971510592958,0.799012976267469,A,619.1272489959374,Correct,sub_007_day_07_data.csv,1,300,65.0,Training at home,,,,,,,,,,,,,
7,8,1632,A,33.47685579335958,43.0276024447076,1.6738427896679793,0.675875998709378,A,763.3997500524856,Correct,sub_007_day_07_data.csv,1,300,65.0,Training at home,,,,,,,,,,,,,
7,8,1633,B,81.72274142057415,63.33774227942549,4.086137071028707,0.9949069292000338,B,642.7320409566164,Correct,sub_007_day_07_data.csv,1,300,65.0,Training at home,,,,,,,,,,,,,
7,8,1634,B,50.780448581913525,37.55228471442014,2.5390224290956764,0.5898699089216729,B,1643.2715409900993,Correct,sub_007_day_07_data.csv,1,300,65.0,Training at home,,,,,,,,,,,,,
7,8,1635,B,64.67829274661193,33.29880744020616,3.2339146373305967,0.5230564441372642,B,757.3625409859233,Correct,sub_007_day_07_data.csv,1,300,65.0,Training at home,,,,,,,,,,,,,
7,8,1636,B,58.46160288745832,27.64950761352648,2.923080144372916,0.4343174499701492,B,1319.3535410100594,Correct,sub_007_day_07_data.csv,1,300,65.0,Training at home,,,,,,,,,,,,,
7,8,1637,A,54.511896317807974,70.06234294503007,2.725594815890399,1.1005367094469756,A,1764.1147489775904,Correct,sub_007_day_07_data.csv,1,300,65.0,Training at home,,,,,,,,,,,,,
7,8,1638,B,74.75497993785078,49.98955607547133,3.7377489968925386,0.7852341106145786,B,880.4154159734026,Correct,sub_007_day_07_data.csv,1,300,65.0,Training at home,,,,,,,,,,,,,
7,8,1639,B,88.84795627283476,63.81085479817615,4.442397813641739,1.002338563266176,B,1233.211165992543,Correct,sub_007_day_07_data.csv,1,300,65.0,Training at home,,,,,,,,,,,,,
7,8,1640,A,66.79231007848384,82.90700737989874,3.339615503924192,1.3023002265790231,A,851.2147910078056,Correct,sub_007_day_07_data.csv,1,300,65.0,Training at home,,,,,,,,,,,,,
7,8,1641,A,31.222504167085894,53.26443289123993,1.5611252083542948,0.8366757553437294,A,1638.2710409816357,Correct,sub_007_day_07_data.csv,1,300,65.0,Training at home,,,,,,,,,,,,,
7,8,1642,A,57.715674893812434,76.55855600416449,2.8857837446906216,1.2025789855606297,A,1562.1883319690824,Correct,sub_007_day_07_data.csv,1,300,65.0,Training at home,,,,,,,,,,,,,
7,8,1643,A,23.48926482680433,46.4011201739334,1.1744632413402163,0.7288670912838314,A,513.9095830381848,Correct,sub_007_day_07_data.csv,1,300,65.0,Training at home,,,,,,,,,,,,,
7,8,1644,A,57.38268570957071,85.71049626868455,2.8691342854785353,1.3463373270661736,A,1627.5249579921365,Correct,sub_007_day_07_data.csv,1,300,65.0,Training at home,,,,,,,,,,,,,
7,8,1645,B,64.46008313344174,39.95568255554708,3.2230041566720873,0.6276223939283627,B,2076.3987909886055,Correct,sub_007_day_07_data.csv,1,300,65.0,Training at home,,,,,,,,,,,,,
7,8,1646,A,57.294071603623934,84.21538043598376,2.864703580181197,1.322852102484781,A,2079.1520819766447,Correct,sub_007_day_07_data.csv,1,300,65.0,Training at home,,,,,,,,,,,,,
7,8,1647,B,44.4898329455284,23.828137287065655,2.22449164727642,0.3742915052488724,B,1276.4364579925314,Correct,sub_007_day_07_data.csv,1,300,65.0,Training at home,,,,,,,,,,,,,
7,8,1648,B,71.14407647566847,54.93137479041101,3.5572038237834236,0.8628600174657141,B,1835.1027079625055,Correct,sub_007_day_07_data.csv,1,300,65.0,Training at home,,,,,,,,,,,,,
7,8,1649,A,58.11993812851773,76.98025088267016,2.9059969064258864,1.2092029532224788,B,1117.2377489856444,Incorrect,sub_007_day_07_data.csv,0,300,65.0,Training at home,,,,,,,,,,,,,
7,8,1650,A,56.372413732998,72.0911216311478,2.8186206866498997,1.1324046905273106,A,1366.480373952072,Correct,sub_007_day_07_data.csv,1,300,66.0,Training at home,,,,,,,,,,,,,
7,8,1651,B,67.51189873657454,34.982177559880164,3.375594936828727,0.5494987601434662,B,797.4247080273926,Correct,sub_007_day_07_data.csv,1,300,66.0,Training at home,,,,,,,,,,,,,
7,8,1652,B,71.84924250373274,53.198075395539945,3.592462125186637,0.8356334142387212,B,998.4912910149432,Correct,sub_007_day_07_data.csv,1,300,66.0,Training at home,,,,,,,,,,,,,
7,8,1653,B,61.93637923386589,30.26237985893904,3.096818961693294,0.475360351224933,B,1355.7902490138076,Correct,sub_007_day_07_data.csv,1,300,66.0,Training at home,,,,,,,,,,,,,
7,8,1654,B,75.81210244619669,49.66085991438224,3.790605122309835,0.7800709633898756,B,874.9878749949858,Correct,sub_007_day_07_data.csv,1,300,66.0,Training at home,,,,,,,,,,,,,
7,8,1655,A,18.452665177680025,43.349922560489446,0.9226332588840012,0.6809389912486002,A,780.6602079654112,Correct,sub_007_day_07_data.csv,1,300,66.0,Training at home,,,,,,,,,,,,,
7,8,1656,A,26.925021061513817,46.884078948144335,1.3462510530756908,0.7364533899690705,A,1102.0254570175894,Correct,sub_007_day_07_data.csv,1,300,66.0,Training at home,,,,,,,,,,,,,
7,8,1657,B,79.81182381253369,56.8120004092142,3.990591190626685,0.8924008156066381,B,1890.4982910025865,Correct,sub_007_day_07_data.csv,1,300,66.0,Training at home,,,,,,,,,,,,,
7,8,1658,A,54.1095135536568,63.99257143575423,2.70547567768284,1.0051929615344275,A,1081.175332015846,Correct,sub_007_day_07_data.csv,1,300,66.0,Training at home,,,,,,,,,,,,,
7,8,1659,B,66.52060480506563,49.45581636218304,3.326030240253282,0.7768501468036006,B,1268.8116659992374,Correct,sub_007_day_07_data.csv,1,300,66.0,Training at home,,,,,,,,,,,,,
7,8,1660,A,40.13692244579602,47.59045891274857,2.006846122289801,0.747549180506289,A,590.9538329578936,Correct,sub_007_day_07_data.csv,1,300,66.0,Training at home,,,,,,,,,,,,,
7,8,1661,B,56.472250576378286,40.60291820729848,2.8236125288189147,0.6377891477717808,A,2682.240457041189,Incorrect,sub_007_day_07_data.csv,0,300,66.0,Training at home,,,,,,,,,,,,,
7,8,1662,B,76.99257901769128,53.5235801303766,3.849628950884565,0.8407464306570788,B,1166.456290986389,Correct,sub_007_day_07_data.csv,1,300,66.0,Training at home,,,,,,,,,,,,,
7,8,1663,B,68.70271696607806,47.05869285492689,3.435135848303903,0.7391962188028842,B,667.530874023214,Correct,sub_007_day_07_data.csv,1,300,66.0,Training at home,,,,,,,,,,,,,
7,8,1664,B,47.508611632607625,36.288286561913026,2.3754305816303813,0.5700150723713359,B,1247.4686239729635,Correct,sub_007_day_07_data.csv,1,300,66.0,Training at home,,,,,,,,,,,,,
7,8,1665,B,42.15547834749012,33.587527484983454,2.107773917374506,0.5275916479953463,B,1066.9817909947596,Correct,sub_007_day_07_data.csv,1,300,66.0,Training at home,,,,,,,,,,,,,
7,8,1666,A,31.188613749720155,40.00710066708314,1.5594306874860078,0.6284300677356786,A,828.8030830444768,Correct,sub_007_day_07_data.csv,1,300,66.0,Training at home,,,,,,,,,,,,,
7,8,1667,A,37.098207561465955,68.50603859374635,1.8549103780732976,1.076090337863262,A,1483.1490410142578,Correct,sub_007_day_07_data.csv,1,300,66.0,Training at home,,,,,,,,,,,,,
7,8,1668,B,71.42914787707065,39.207011906688415,3.571457393853533,0.6158623028762994,B,1142.0775820151905,Correct,sub_007_day_07_data.csv,1,300,66.0,Training at home,,,,,,,,,,,,,
7,8,1669,B,47.00942234624571,32.680114146605334,2.3504711173122854,0.513338032607256,B,1162.8366240183825,Correct,sub_007_day_07_data.csv,1,300,66.0,Training at home,,,,,,,,,,,,,
7,8,1670,A,63.060633747165305,86.62843990813028,3.1530316873582653,1.3607563520366346,A,1224.36829097569,Correct,sub_007_day_07_data.csv,1,300,66.0,Training at home,,,,,,,,,,,,,
7,8,1671,B,61.777286520466944,39.679320860467,3.088864326023347,0.6232813145733768,B,738.51866601035,Correct,sub_007_day_07_data.csv,1,300,66.0,Training at home,,,,,,,,,,,,,
7,8,1672,A,57.1058691388306,84.27429222476694,2.85529345694153,1.3237774866990362,A,871.3205410167575,Correct,sub_007_day_07_data.csv,1,300,66.0,Training at home,,,,,,,,,,,,,
7,8,1673,B,44.82542875511768,30.600164287936735,2.241271437755884,0.4806662566281139,B,1451.434790971689,Correct,sub_007_day_07_data.csv,1,300,66.0,Training at home,,,,,,,,,,,,,
7,8,1674,A,66.71124259753175,88.99675123775339,3.335562129876587,1.3979576994094218,A,1149.4507070165128,Correct,sub_007_day_07_data.csv,1,300,66.0,Training at home,,,,,,,,,,,,,
7,8,1675,B,79.91469714969375,58.39668092638871,3.995734857484688,0.9172929189618498,B,1464.5652489853092,Correct,sub_007_day_07_data.csv,1,300,67.0,Training at home,,,,,,,,,,,,,
7,8,1676,A,44.65663897192304,76.44828067301033,2.232831948596152,1.200846784709499,A,1019.6207500412128,Correct,sub_007_day_07_data.csv,1,300,67.0,Training at home,,,,,,,,,,,,,
7,8,1677,A,16.32792043553829,44.95046921996624,0.8163960217769144,0.7060803193843002,A,848.8939160015434,Correct,sub_007_day_07_data.csv,1,300,67.0,Training at home,,,,,,,,,,,,,
7,8,1678,A,48.843900187206465,68.60259649111305,2.442195009360323,1.0776070657683283,A,2187.430582998786,Correct,sub_007_day_07_data.csv,1,300,67.0,Training at home,,,,,,,,,,,,,
7,8,1679,A,60.79661440119355,84.99347999152718,3.0398307200596775,1.3350744617220642,A,1212.6682070083916,Correct,sub_007_day_07_data.csv,1,300,67.0,Training at home,,,,,,,,,,,,,
7,8,1680,B,53.45200459298131,25.985696760556703,2.6726002296490656,0.4081823702068851,B,1248.8884570193477,Correct,sub_007_day_07_data.csv,1,300,67.0,Training at home,,,,,,,,,,,,,
7,8,1681,A,62.349652412215875,85.70162196570242,3.1174826206107933,1.3461979298409017,A,2214.873916003853,Correct,sub_007_day_07_data.csv,1,300,67.0,Training at home,,,,,,,,,,,,,
7,8,1682,B,72.59637879108003,58.67673452767877,3.6298189395540015,0.9216919906439708,B,1345.615623984486,Correct,sub_007_day_07_data.csv,1,300,67.0,Training at home,,,,,,,,,,,,,
7,8,1683,B,35.088675827718504,18.27909853856638,1.7544337913859251,0.2871274084150203,B,710.8061659964733,Correct,sub_007_day_07_data.csv,1,300,67.0,Training at home,,,,,,,,,,,,,
7,8,1684,A,38.43587216570174,63.064428462117405,1.9217936082850868,0.9906137257971354,A,761.9321660022251,Correct,sub_007_day_07_data.csv,1,300,67.0,Training at home,,,,,,,,,,,,,
7,8,1685,B,73.82465866766951,59.9766862531232,3.6912329333834752,0.942111584597359,B,2011.246415961068,Correct,sub_007_day_07_data.csv,1,300,67.0,Training at home,,,,,,,,,,,,,
7,8,1686,B,51.895488674535585,21.149001262587863,2.5947744337267795,0.3322077349865365,B,532.1397070074454,Correct,sub_007_day_07_data.csv,1,300,67.0,Training at home,,,,,,,,,,,,,
7,8,1687,B,80.61330611466573,63.53026972304945,4.030665305733287,0.9979311432125512,B,1409.8164159804585,Correct,sub_007_day_07_data.csv,1,300,67.0,Training at home,,,,,,,,,,,,,
7,8,1688,A,37.10974321649368,55.07405579381282,1.855487160824684,0.8651012454261837,A,1334.2457489925437,Correct,sub_007_day_07_data.csv,1,300,67.0,Training at home,,,,,,,,,,,,,
7,8,1689,B,44.804174599650864,29.3052047360015,2.2402087299825433,0.4603250795528356,B,1290.862332971301,Correct,sub_007_day_07_data.csv,1,300,67.0,Training at home,,,,,,,,,,,,,
7,8,1690,B,44.64972609709334,30.92230831944293,2.232486304854667,0.4857264832420022,B,1652.069373987615,Correct,sub_007_day_07_data.csv,1,300,67.0,Training at home,,,,,,,,,,,,,
7,8,1691,A,40.469711617704554,56.943620173342715,2.0234855808852275,0.8944682940269052,A,1276.8441660446117,Correct,sub_007_day_07_data.csv,1,300,67.0,Training at home,,,,,,,,,,,,,
7,8,1692,B,77.52240501145899,58.94610221944481,3.8761202505729497,0.925923208451804,B,966.6106659569778,Correct,sub_007_day_07_data.csv,1,300,67.0,Training at home,,,,,,,,,,,,,
7,8,1693,B,71.1215057320383,48.79228225268734,3.5560752866019154,0.766427377384611,B,2208.092456974555,Correct,sub_007_day_07_data.csv,1,300,67.0,Training at home,,,,,,,,,,,,,
7,8,1694,B,43.60748234545888,19.26000631399396,2.180374117272944,0.3025354717206823,B,1535.750208015088,Correct,sub_007_day_07_data.csv,1,300,67.0,Training at home,,,,,,,,,,,,,
7,8,1695,A,41.84321466668831,68.11356057378195,2.0921607333344157,1.0699253075421835,A,1956.0091239982285,Correct,sub_007_day_07_data.csv,1,300,67.0,Training at home,,,,,,,,,,,,,
7,8,1696,B,67.67450864003357,45.95678991546353,3.383725432001678,0.7218875679049485,B,1494.25883195363,Correct,sub_007_day_07_data.csv,1,300,67.0,Training at home,,,,,,,,,,,,,
7,8,1697,A,27.47465411973416,40.94054294814862,1.373732705986708,0.6430925447994055,A,1555.4635410080664,Correct,sub_007_day_07_data.csv,1,300,67.0,Training at home,,,,,,,,,,,,,
7,8,1698,B,87.55744720738886,69.35373453075181,4.377872360369443,1.089405914504133,B,2578.1763740233146,Correct,sub_007_day_07_data.csv,1,300,67.0,Training at home,,,,,,,,,,,,,
7,8,1699,A,53.04848305368874,81.5694994588941,2.6524241526844374,1.2812907012852917,A,1595.7832490094006,Correct,sub_007_day_07_data.csv,1,300,67.0,Training at home,,,,,,,,,,,,,
7,8,1700,A,28.041192857701898,42.554552289127464,1.4020596428850949,0.6684453442416278,A,1113.129498960916,Correct,sub_007_day_07_data.csv,1,300,68.0,Training at home,,,,,,,,,,,,,
7,8,1701,A,50.58955825828664,74.52725966887756,2.529477912914332,1.170671457339623,A,1633.0657490179874,Correct,sub_007_day_07_data.csv,1,300,68.0,Training at home,,,,,,,,,,,,,
7,8,1702,B,80.88414716701888,67.13674863948268,4.044207358350945,1.054581581558517,B,1268.7852489762008,Correct,sub_007_day_07_data.csv,1,300,68.0,Training at home,,,,,,,,,,,,,
7,8,1703,B,46.18215079903517,32.740893891410856,2.309107539951759,0.5142927586060964,B,1622.1372910076752,Correct,sub_007_day_07_data.csv,1,300,68.0,Training at home,,,,,,,,,,,,,
7,8,1704,A,23.23579729501899,40.74312702203947,1.1617898647509497,0.6399915426835748,A,1485.306708025746,Correct,sub_007_day_07_data.csv,1,300,68.0,Training at home,,,,,,,,,,,,,
7,8,1705,A,43.84905745389055,66.97367638104909,2.1924528726945276,1.0520200485130204,A,731.6947910003364,Correct,sub_007_day_07_data.csv,1,300,68.0,Training at home,,,,,,,,,,,,,
7,8,1706,B,62.08534607039289,34.43064503178413,3.1042673035196446,0.5408353074510547,B,1100.8154570008628,Correct,sub_007_day_07_data.csv,1,300,68.0,Training at home,,,,,,,,,,,,,
7,8,1707,A,17.58189404905542,48.123506544726126,0.8790947024527711,0.7559222731294595,A,1191.2471660180015,Correct,sub_007_day_07_data.csv,1,300,68.0,Training at home,,,,,,,,,,,,,
7,8,1708,B,49.45927998128204,39.828914837456296,2.4729639990641017,0.625631131269031,B,2338.405541027896,Correct,sub_007_day_07_data.csv,1,300,68.0,Training at home,,,,,,,,,,,,,
7,8,1709,A,66.1281492918704,84.68869951812196,3.30640746459352,1.3302869812410272,A,1097.4143739440478,Correct,sub_007_day_07_data.csv,1,300,68.0,Training at home,,,,,,,,,,,,,
7,8,1710,B,82.32020169402419,55.06941314060567,4.11601008470121,0.8650283188001399,B,830.7161660050042,Correct,sub_007_day_07_data.csv,1,300,68.0,Training at home,,,,,,,,,,,,,
7,8,1711,B,78.45179541744633,66.36153428492933,3.922589770872317,1.042404542952406,B,2302.554498950485,Correct,sub_007_day_07_data.csv,1,300,68.0,Training at home,,,,,,,,,,,,,
7,8,1712,A,11.890728250801672,35.323735723306726,0.5945364125400836,0.5548639432284387,A,771.6885830159299,Correct,sub_007_day_07_data.csv,1,300,68.0,Training at home,,,,,,,,,,,,,
7,8,1713,B,48.05221269391093,29.690600649039144,2.4026106346955465,0.4663788643984485,B,1705.1667909836397,Correct,sub_007_day_07_data.csv,1,300,68.0,Training at home,,,,,,,,,,,,,
7,8,1714,B,46.780190449364,37.66340218514303,2.3390095224682,0.5916153380702155,B,1863.9332490274685,Correct,sub_007_day_07_data.csv,1,300,68.0,Training at home,,,,,,,,,,,,,
7,8,1715,B,60.09968477851642,48.299269539965636,3.004984238925821,0.7586831518025465,B,1650.920041021891,Correct,sub_007_day_07_data.csv,1,300,68.0,Training at home,,,,,,,,,,,,,
7,8,1716,A,12.452764909045484,33.57320758534169,0.6226382454522742,0.5273667115377729,A,1107.3788330540992,Correct,sub_007_day_07_data.csv,1,300,68.0,Training at home,,,,,,,,,,,,,
7,8,1717,B,78.17265346930807,53.27396232134865,3.908632673465404,0.8368254432818418,B,838.0849160021171,Correct,sub_007_day_07_data.csv,1,300,68.0,Training at home,,,,,,,,,,,,,
7,8,1718,B,68.95805083741874,54.800893210726855,3.447902541870937,0.8608104176048913,B,1461.5783329936676,Correct,sub_007_day_07_data.csv,1,300,68.0,Training at home,,,,,,,,,,,,,
7,8,1719,B,48.8477771023554,41.2442903605048,2.44238885511777,0.647863797995431,B,1089.8094159783795,Correct,sub_007_day_07_data.csv,1,300,68.0,Training at home,,,,,,,,,,,,,
7,8,1720,A,13.15487492810107,35.94123805377499,0.6577437464050534,0.5645636471533071,A,858.2485830411315,Correct,sub_007_day_07_data.csv,1,300,68.0,Training at home,,,,,,,,,,,,,
7,8,1721,A,65.61934748737966,80.873521740897,3.2809673743689824,1.2703583088556822,A,1452.4982910370454,Correct,sub_007_day_07_data.csv,1,300,68.0,Training at home,,,,,,,,,,,,,
7,8,1722,B,66.31028047076133,56.84077538259818,3.315514023538066,0.89285281183159,B,4344.783957989421,Correct,sub_007_day_07_data.csv,1,300,68.0,Training at home,,,,,,,,,,,,,
7,8,1723,B,63.03278464763292,36.45199121300574,3.1516392323816462,0.5725865390174926,B,1055.7507909834385,Correct,sub_007_day_07_data.csv,1,300,68.0,Training at home,,,,,,,,,,,,,
7,8,1724,A,59.24184114541195,71.024503580588,2.9620920572705973,1.115650293368186,A,1211.595249013044,Correct,sub_007_day_07_data.csv,1,300,68.0,Training at home,,,,,,,,,,,,,
7,8,1725,A,57.04032865380114,81.34696990745351,2.852016432690057,1.2777952152652297,A,1142.5484990468249,Correct,sub_007_day_07_data.csv,1,300,69.0,Training at home,,,,,,,,,,,,,
7,8,1726,A,49.84834149518467,78.73872142691778,2.4924170747592336,1.2368249439392909,A,876.1548320180736,Correct,sub_007_day_07_data.csv,1,300,69.0,Training at home,,,,,,,,,,,,,
7,8,1727,A,53.39841037567015,72.05272039750412,2.6699205187835076,1.131801485359792,A,1139.0082909492776,Correct,sub_007_day_07_data.csv,1,300,69.0,Training at home,,,,,,,,,,,,,
7,8,1728,A,24.759908078108623,41.63562984421958,1.2379954039054313,0.6540109442309209,A,840.9203320043162,Correct,sub_007_day_07_data.csv,1,300,69.0,Training at home,,,,,,,,,,,,,
7,8,1729,B,58.44465226797334,30.702989289498248,2.9222326133986667,0.482281427975669,B,593.6929159797728,Correct,sub_007_day_07_data.csv,1,300,69.0,Training at home,,,,,,,,,,,,,
7,8,1730,B,54.40471051735582,44.95793576395276,2.720235525867791,0.7061976035829791,B,919.0473319613376,Correct,sub_007_day_07_data.csv,1,300,69.0,Training at home,,,,,,,,,,,,,
7,8,1731,B,45.26281825956438,33.49914991175833,2.263140912978219,0.5262034163214158,B,1112.7787490258925,Correct,sub_007_day_07_data.csv,1,300,69.0,Training at home,,,,,,,,,,,,,
7,8,1732,A,50.67354588577938,71.14788247366882,2.533677294288969,1.11758832448874,A,1426.3517489889637,Correct,sub_007_day_07_data.csv,1,300,69.0,Training at home,,,,,,,,,,,,,
7,8,1733,A,43.8958340598845,64.80220163461622,2.194791702994225,1.017910602958774,A,960.1309159770608,Correct,sub_007_day_07_data.csv,1,300,69.0,Training at home,,,,,,,,,,,,,
7,8,1734,A,30.22361429355605,46.08353835118179,1.5111807146778025,0.7238785276774808,A,827.969333040528,Correct,sub_007_day_07_data.csv,1,300,69.0,Training at home,,,,,,,,,,,,,
7,8,1735,B,60.85897859722483,36.63367802547595,3.0429489298612413,0.5754404687940454,B,939.172456972301,Correct,sub_007_day_07_data.csv,1,300,69.0,Training at home,,,,,,,,,,,,,
7,8,1736,A,31.68145245057005,42.354962487057726,1.5840726225285024,0.6653101949620591,A,1539.6049999981187,Correct,sub_007_day_07_data.csv,1,300,69.0,Training at home,,,,,,,,,,,,,
7,8,1737,A,31.614746024637142,42.39209986882592,1.5807373012318573,0.6658935475907417,A,1074.8349580098875,Correct,sub_007_day_07_data.csv,1,300,69.0,Training at home,,,,,,,,,,,,,
7,8,1738,A,45.51282805508192,58.72593117193284,2.2756414027540957,0.9224647697248204,A,1008.2356240018272,Correct,sub_007_day_07_data.csv,1,300,69.0,Training at home,,,,,,,,,,,,,
7,8,1739,B,47.83518141508793,25.513032446229964,2.3917590707543965,0.4007577765193704,B,855.7072489638813,Correct,sub_007_day_07_data.csv,1,300,69.0,Training at home,,,,,,,,,,,,,
7,8,1740,A,36.70568117421976,51.76278803387324,1.835284058710988,0.8130879730827091,A,1047.445832984522,Correct,sub_007_day_07_data.csv,1,300,69.0,Training at home,,,,,,,,,,,,,
7,8,1741,B,64.91413760612846,47.57178026254955,3.245706880306423,0.7472557769550678,B,2237.909416027833,Correct,sub_007_day_07_data.csv,1,300,69.0,Training at home,,,,,,,,,,,,,
7,8,1742,A,48.650329089677115,62.45567656611713,2.4325164544838556,0.9810514733754688,A,1266.3506250246428,Correct,sub_007_day_07_data.csv,1,300,69.0,Training at home,,,,,,,,,,,,,
7,8,1743,A,63.99875847587424,76.17167939900204,3.199937923793712,1.1965019420575091,A,1467.7169570350088,Correct,sub_007_day_07_data.csv,1,300,69.0,Training at home,,,,,,,,,,,,,
7,8,1744,A,11.74638709151931,32.646703450917244,0.5873193545759655,0.5128132186266308,A,1268.3581659803167,Correct,sub_007_day_07_data.csv,1,300,69.0,Training at home,,,,,,,,,,,,,
7,8,1745,A,29.599256197336196,55.48672248460559,1.4799628098668096,0.8715833986470626,A,1075.5506660207177,Correct,sub_007_day_07_data.csv,1,300,69.0,Training at home,,,,,,,,,,,,,
7,8,1746,A,60.10397251962972,83.21840551270331,3.0051986259814862,1.307191657010825,A,1035.1214570109732,Correct,sub_007_day_07_data.csv,1,300,69.0,Training at home,,,,,,,,,,,,,
7,8,1747,A,54.613378876957135,62.46515457920515,2.7306689438478564,0.9812003536569086,A,1471.9051239662804,Correct,sub_007_day_07_data.csv,1,300,69.0,Training at home,,,,,,,,,,,,,
7,8,1748,A,29.086015666565768,40.43514078613739,1.4543007833282884,0.6351537062029913,B,1144.7599160019308,Incorrect,sub_007_day_07_data.csv,0,300,69.0,Training at home,,,,,,,,,,,,,
7,8,1749,A,47.43437627526971,69.97097415839622,2.3717188137634855,1.099101491902694,B,1529.3824989930729,Incorrect,sub_007_day_07_data.csv,0,300,69.0,Training at home,,,,,,,,,,,,,
7,8,1750,B,38.129299637898455,13.77616798262878,1.9064649818949224,0.2163955406442275,B,688.2622910197824,Correct,sub_007_day_07_data.csv,1,300,70.0,Training at home,,,,,,,,,,,,,
7,8,1751,A,68.31539620890574,84.80666469190658,3.415769810445287,1.3321399738577329,A,1076.3168329722248,Correct,sub_007_day_07_data.csv,1,300,70.0,Training at home,,,,,,,,,,,,,
7,8,1752,A,43.31855243211605,64.32302746184493,2.1659276216058028,1.0103837526539323,A,1055.9168319450691,Correct,sub_007_day_07_data.csv,1,300,70.0,Training at home,,,,,,,,,,,,,
7,8,1753,A,59.30410016872466,76.50960076188508,2.9652050084362327,1.201809998413131,A,2167.7840409683995,Correct,sub_007_day_07_data.csv,1,300,70.0,Training at home,,,,,,,,,,,,,
7,8,1754,A,63.126373045660365,75.73062759512543,3.156318652283018,1.1895739165229526,A,1133.0473739653826,Correct,sub_007_day_07_data.csv,1,300,70.0,Training at home,,,,,,,,,,,,,
7,8,1755,A,44.44739369422179,61.39998209435268,2.222369684711089,0.964468663390816,A,1318.7995830085129,Correct,sub_007_day_07_data.csv,1,300,70.0,Training at home,,,,,,,,,,,,,
7,8,1756,B,69.88698151613019,39.488426148657126,3.494349075806509,0.6202827474522217,B,931.7529989639296,Correct,sub_007_day_07_data.csv,1,300,70.0,Training at home,,,,,,,,,,,,,
7,8,1757,B,47.79273748693572,31.610093058856116,2.389636874346786,0.4965301806649604,B,922.440082009416,Correct,sub_007_day_07_data.csv,1,300,70.0,Training at home,,,,,,,,,,,,,
7,8,1758,A,55.76003777471837,68.3618427894091,2.7880018887359186,1.07382531546534,A,905.5955410003662,Correct,sub_007_day_07_data.csv,1,300,70.0,Training at home,,,,,,,,,,,,,
7,8,1759,A,54.03657096893863,67.88626677165085,2.701828548446932,1.066354984847276,A,1004.420999030117,Correct,sub_007_day_07_data.csv,1,300,70.0,Training at home,,,,,,,,,,,,,
7,8,1760,A,16.13126508609799,30.72958453160517,0.8065632543048994,0.4826991850617867,A,908.3597909775564,Correct,sub_007_day_07_data.csv,1,300,70.0,Training at home,,,,,,,,,,,,,
7,8,1761,B,56.07131034134485,37.72247714528257,2.8035655170672427,0.592543285374143,A,2927.9817910282873,Incorrect,sub_007_day_07_data.csv,0,300,70.0,Training at home,,,,,,,,,,,,,
7,8,1762,B,64.22591463727603,48.62486532370981,3.211295731863802,0.7637975984137992,B,1325.8327500079758,Correct,sub_007_day_07_data.csv,1,300,70.0,Training at home,,,,,,,,,,,,,
7,8,1763,B,34.108712114960184,13.480789755315811,1.7054356057480091,0.2117557502994435,B,1011.6921659791842,Correct,sub_007_day_07_data.csv,1,300,70.0,Training at home,,,,,,,,,,,,,
7,8,1764,B,53.26299948149655,41.42953710147965,2.6631499740748272,0.6507736469981713,B,901.3986659701914,Correct,sub_007_day_07_data.csv,1,300,70.0,Training at home,,,,,,,,,,,,,
7,8,1765,A,65.5647345754999,85.48271898356046,3.2782367287749947,1.3427594098381712,A,1325.177165970672,Correct,sub_007_day_07_data.csv,1,300,70.0,Training at home,,,,,,,,,,,,,
7,8,1766,A,31.057240525066828,59.64985360312707,1.5528620262533417,0.9369777093364532,A,2165.7818329986185,Correct,sub_007_day_07_data.csv,1,300,70.0,Training at home,,,,,,,,,,,,,
7,8,1767,B,84.04659389736113,65.01817318835326,4.202329694868057,1.0213030761917972,B,2738.9964570174925,Correct,sub_007_day_07_data.csv,1,300,70.0,Training at home,,,,,,,,,,,,,
7,8,1768,A,20.485223064098125,37.85043157686886,1.0242611532049062,0.5945531888854717,A,1539.289790962357,Correct,sub_007_day_07_data.csv,1,300,70.0,Training at home,,,,,,,,,,,,,
7,8,1769,B,58.39410939743126,34.47731145804909,2.919705469871563,0.541568341960671,B,811.0578329651617,Correct,sub_007_day_07_data.csv,1,300,70.0,Training at home,,,,,,,,,,,,,
7,8,1770,B,40.87362987644673,17.94791627388479,2.043681493822336,0.2819252095664057,B,523.2275410089642,Correct,sub_007_day_07_data.csv,1,300,70.0,Training at home,,,,,,,,,,,,,
7,8,1771,A,56.57442789835488,66.29640171307078,2.8287213949177437,1.0413814429061046,A,1526.918874005787,Correct,sub_007_day_07_data.csv,1,300,70.0,Training at home,,,,,,,,,,,,,
7,8,1772,B,88.04081540775445,61.37618386925472,4.402040770387723,0.964094841745135,B,1344.6462499559857,Correct,sub_007_day_07_data.csv,1,300,70.0,Training at home,,,,,,,,,,,,,
7,8,1773,A,16.098537505316987,36.932871013246995,0.8049268752658493,0.5801401812559809,A,902.3530410486272,Correct,sub_007_day_07_data.csv,1,300,70.0,Training at home,,,,,,,,,,,,,
7,8,1774,A,39.98671202629575,54.85120215052992,1.9993356013147872,0.8616006685833674,A,1369.260250008665,Correct,sub_007_day_07_data.csv,1,300,70.0,Training at home,,,,,,,,,,,,,
7,8,1775,B,47.21733974546508,30.10174590036596,2.3608669872732544,0.4728371189040819,B,1102.1014990401454,Correct,sub_007_day_07_data.csv,1,300,71.0,Training at home,,,,,,,,,,,,,
7,8,1776,A,24.229133135663055,35.977740847132665,1.2114566567831528,0.565137031690547,A,648.5641659819521,Correct,sub_007_day_07_data.csv,1,300,71.0,Training at home,,,,,,,,,,,,,
7,8,1777,A,23.61151848312369,47.06972160668046,1.1805759241561844,0.7393694580303205,A,591.5284579969011,Correct,sub_007_day_07_data.csv,1,300,71.0,Training at home,,,,,,,,,,,,,
7,8,1778,B,86.88824847970837,67.49731518945481,4.3444124239854185,1.06024534768113,B,624.233708018437,Correct,sub_007_day_07_data.csv,1,300,71.0,Training at home,,,,,,,,,,,,,
7,8,1779,B,60.48059903335774,45.76137365554046,3.024029951667887,0.718817976472117,B,855.8592910412699,Correct,sub_007_day_07_data.csv,1,300,71.0,Training at home,,,,,,,,,,,,,
7,8,1780,A,44.804535286052165,70.26702573511382,2.240226764302608,1.1037518591951925,B,1055.1664580125362,Incorrect,sub_007_day_07_data.csv,0,300,71.0,Training at home,,,,,,,,,,,,,
7,8,1781,A,44.814743652946525,65.64242718835979,2.2407371826473264,1.03110883509377,A,741.509290994145,Correct,sub_007_day_07_data.csv,1,300,71.0,Training at home,,,,,,,,,,,,,
7,8,1782,A,24.407471632801087,37.985047558373154,1.2203735816400545,0.5966677317782201,A,687.6743740285747,Correct,sub_007_day_07_data.csv,1,300,71.0,Training at home,,,,,,,,,,,,,
7,8,1783,B,83.19619638145575,61.196908555977075,4.1598098190727875,0.9612787917093196,B,990.1834999909624,Correct,sub_007_day_07_data.csv,1,300,71.0,Training at home,,,,,,,,,,,,,
7,8,1784,B,37.59889200776958,19.72098249566455,1.8799446003884788,0.3097764686497633,B,647.3591239773668,Correct,sub_007_day_07_data.csv,1,300,71.0,Training at home,,,,,,,,,,,,,
7,8,1785,A,29.196095691980865,40.93957536071187,1.4598047845990434,0.6430773459714906,A,1612.719957018271,Correct,sub_007_day_07_data.csv,1,300,71.0,Training at home,,,,,,,,,,,,,
7,8,1786,A,23.54970226514522,38.42589158284909,1.177485113257261,0.6035924935215828,A,747.7058750228025,Correct,sub_007_day_07_data.csv,1,300,71.0,Training at home,,,,,,,,,,,,,
7,8,1787,B,43.450899770455266,23.177317358273115,2.1725449885227635,0.36406844971335,B,1299.071790999733,Correct,sub_007_day_07_data.csv,1,300,71.0,Training at home,,,,,,,,,,,,,
7,8,1788,B,64.47336519629972,34.97945581420626,3.223668259814986,0.5494560070623958,B,1356.620708014816,Correct,sub_007_day_07_data.csv,1,300,71.0,Training at home,,,,,,,,,,,,,
7,8,1789,B,64.02550049636956,48.47439938870464,3.201275024818478,0.7614340850336603,B,2875.780249014497,Correct,sub_007_day_07_data.csv,1,300,71.0,Training at home,,,,,,,,,,,,,
7,8,1790,B,80.25381987140105,60.707211278598095,4.012690993570052,0.953586644863836,B,2034.40295800101,Correct,sub_007_day_07_data.csv,1,300,71.0,Training at home,,,,,,,,,,,,,
7,8,1791,B,64.5012497583933,31.752902216419013,3.2250624879196654,0.4987734216662852,B,1446.8927909620106,Correct,sub_007_day_07_data.csv,1,300,71.0,Training at home,,,,,,,,,,,,,
7,8,1792,A,39.212853571930914,60.74566838879596,1.9606426785965456,0.9541907277382156,A,736.1885830177926,Correct,sub_007_day_07_data.csv,1,300,71.0,Training at home,,,,,,,,,,,,,
7,8,1793,B,65.8301247474877,38.938517651703194,3.2915062373743855,0.6116448049813362,B,1264.7041240124963,Correct,sub_007_day_07_data.csv,1,300,71.0,Training at home,,,,,,,,,,,,,
7,8,1794,B,80.65442744148649,64.92886323298116,4.032721372074325,1.0199001986933502,B,1491.9863329851069,Correct,sub_007_day_07_data.csv,1,300,71.0,Training at home,,,,,,,,,,,,,
7,8,1795,A,30.83170053158196,46.67995837954469,1.541585026579098,0.7332470715752747,A,1170.6567499786615,Correct,sub_007_day_07_data.csv,1,300,71.0,Training at home,,,,,,,,,,,,,
7,8,1796,A,64.77171072442353,80.17999762354731,3.2385855362211764,1.2594644574949163,A,2253.4223750117235,Correct,sub_007_day_07_data.csv,1,300,71.0,Training at home,,,,,,,,,,,,,
7,8,1797,B,52.90447034403532,38.773452041415105,2.6452235172017655,0.6090519604381294,B,1623.3933750190772,Correct,sub_007_day_07_data.csv,1,300,71.0,Training at home,,,,,,,,,,,,,
7,8,1798,B,40.68741397584761,16.26222366158837,2.034370698792381,0.2554464119314006,B,1905.0116240396164,Correct,sub_007_day_07_data.csv,1,300,71.0,Training at home,,,,,,,,,,,,,
7,8,1799,B,56.02749989398248,26.78739992003323,2.8013749946991244,0.4207754939877411,B,2449.753541033715,Correct,sub_007_day_07_data.csv,1,300,71.0,Training at home,,,,,,,,,,,,,
