subject,day,trial,cat,x,y,xt,yt,resp,rt,fb,f_name,acc,n_trials,block,session_type,ns_left_digit,ns_right_digit,ns_left_size,ns_right_size,ns_congruent,ns_cue,ns_correct_side,ns_resp,ns_rt,ns_fb,acc_stroop,acc_stroop_mean,resp_key
7,15,3300,A,57.41942978759711,68.36661993640794,2.8709714893798552,1.0739003547149233,A,1447.6439590216614,Correct,sub_007_day_13_data.csv,1,300,132.0,Training at home,,,,,,,,,,,,,
7,15,3301,A,35.86071250200037,63.66594523546796,1.7930356251000183,1.000062329177981,A,552.6806249981746,Correct,sub_007_day_13_data.csv,1,300,132.0,Training at home,,,,,,,,,,,,,
7,15,3302,A,57.26416176438734,69.95635711046837,2.8632080882193667,1.0988718878507575,A,1324.8139999923296,Correct,sub_007_day_13_data.csv,1,300,132.0,Training at home,,,,,,,,,,,,,
7,15,3303,B,51.87280472989827,23.65171270077835,2.5936402364949136,0.3715202343279083,B,538.4169589960948,Correct,sub_007_day_13_data.csv,1,300,132.0,Training at home,,,,,,,,,,,,,
7,15,3304,B,38.02018233711348,18.045779067366745,1.9010091168556744,0.2834624347317191,B,1529.0705829975195,Correct,sub_007_day_13_data.csv,1,300,132.0,Training at home,,,,,,,,,,,,,
7,15,3305,B,43.16800041256799,27.54610554988735,2.1584000206284,0.4326932141526756,B,849.4513750192709,Correct,sub_007_day_13_data.csv,1,300,132.0,Training at home,,,,,,,,,,,,,
7,15,3306,B,74.18753027166929,62.40802326896447,3.709376513583464,0.9803029371341982,B,1353.004000033252,Correct,sub_007_day_13_data.csv,1,300,132.0,Training at home,,,,,,,,,,,,,
7,15,3307,A,50.47225106230061,60.71200022068377,2.52361255311503,0.95366186939021,A,955.4880000068806,Correct,sub_007_day_13_data.csv,1,300,132.0,Training at home,,,,,,,,,,,,,
7,15,3308,A,64.86026191812711,87.29923049108206,3.2430130959063552,1.3712931058741271,A,724.4164579897188,Correct,sub_007_day_13_data.csv,1,300,132.0,Training at home,,,,,,,,,,,,,
7,15,3309,B,60.78904173582089,29.41331768660804,3.0394520867910444,0.4620233138097527,B,572.5831669988111,Correct,sub_007_day_13_data.csv,1,300,132.0,Training at home,,,,,,,,,,,,,
7,15,3310,A,26.45494749310057,53.55753641385206,1.3227473746550285,0.8412798147106274,A,647.1187910065055,Correct,sub_007_day_13_data.csv,1,300,132.0,Training at home,,,,,,,,,,,,,
7,15,3311,A,49.32638073654329,67.53838803843607,2.4663190368271644,1.0608905184842377,A,597.48616599245,Correct,sub_007_day_13_data.csv,1,300,132.0,Training at home,,,,,,,,,,,,,
7,15,3312,B,69.86761575474024,38.57137767792031,3.493380787737012,0.6058777837589588,B,543.2932499679737,Correct,sub_007_day_13_data.csv,1,300,132.0,Training at home,,,,,,,,,,,,,
7,15,3313,B,52.64806070249695,44.69767162256063,2.632403035124847,0.7021093840100272,B,1867.348709027283,Correct,sub_007_day_13_data.csv,1,300,132.0,Training at home,,,,,,,,,,,,,
7,15,3314,B,64.49580887505405,34.11422453110483,3.224790443752703,0.5358649858491582,B,557.3249579756521,Correct,sub_007_day_13_data.csv,1,300,132.0,Training at home,,,,,,,,,,,,,
7,15,3315,A,61.881838382238215,70.8800607331543,3.094091919111911,1.1133813904263796,A,738.0507079651579,Correct,sub_007_day_13_data.csv,1,300,132.0,Training at home,,,,,,,,,,,,,
7,15,3316,A,19.276295169976702,43.12658201380612,0.9638147584988352,0.677430766145055,A,568.3932920219377,Correct,sub_007_day_13_data.csv,1,300,132.0,Training at home,,,,,,,,,,,,,
7,15,3317,A,32.246249264485165,43.07430884400793,1.6123124632242585,0.6766096611139658,A,543.5336669906974,Correct,sub_007_day_13_data.csv,1,300,132.0,Training at home,,,,,,,,,,,,,
7,15,3318,A,45.1816082900041,59.114865357287215,2.2590804145002052,0.9285741336220164,A,771.7147499788553,Correct,sub_007_day_13_data.csv,1,300,132.0,Training at home,,,,,,,,,,,,,
7,15,3319,B,78.62824697801199,62.420107306534106,3.931412348900599,0.9804927527524706,B,649.8269169824198,Correct,sub_007_day_13_data.csv,1,300,132.0,Training at home,,,,,,,,,,,,,
7,15,3320,A,65.90875574503961,82.70339600909816,3.2954377872519807,1.2991019066455507,A,657.3264579637907,Correct,sub_007_day_13_data.csv,1,300,132.0,Training at home,,,,,,,,,,,,,
7,15,3321,A,41.798934056057085,73.30113150805857,2.089946702802854,1.1514114812276806,A,760.5736670084298,Correct,sub_007_day_13_data.csv,1,300,132.0,Training at home,,,,,,,,,,,,,
7,15,3322,A,33.96815215331299,41.994621028690375,1.6984076076656496,0.6596499645701057,A,1279.674666991923,Correct,sub_007_day_13_data.csv,1,300,132.0,Training at home,,,,,,,,,,,,,
7,15,3323,B,68.54891745264607,41.05528096645082,3.427445872632303,0.6448948453763338,B,523.492541979067,Correct,sub_007_day_13_data.csv,1,300,132.0,Training at home,,,,,,,,,,,,,
7,15,3324,A,58.53046568801639,77.96778527627262,2.92652328440082,1.2247151072030225,A,1201.8571250373498,Correct,sub_007_day_13_data.csv,1,300,132.0,Training at home,,,,,,,,,,,,,
7,15,3325,B,73.6002271600016,43.893857800127954,3.68001135800008,0.689483106012985,B,1480.4360829875804,Correct,sub_007_day_13_data.csv,1,300,133.0,Training at home,,,,,,,,,,,,,
7,15,3326,A,31.1126841049509,49.039612228250704,1.5556342052475451,0.7703124275558231,A,724.252832995262,Correct,sub_007_day_13_data.csv,1,300,133.0,Training at home,,,,,,,,,,,,,
7,15,3327,B,55.775636093785714,31.485516683889728,2.7887818046892856,0.4945733395429341,B,986.8204160011372,Correct,sub_007_day_13_data.csv,1,300,133.0,Training at home,,,,,,,,,,,,,
7,15,3328,B,50.39415872907106,43.17483637123037,2.519707936453553,0.6781887438189937,A,953.5795000265352,Incorrect,sub_007_day_13_data.csv,0,300,133.0,Training at home,,,,,,,,,,,,,
7,15,3329,A,39.41750769184583,72.49113430086149,1.9708753845922913,1.138688074849887,A,533.4530000109226,Correct,sub_007_day_13_data.csv,1,300,133.0,Training at home,,,,,,,,,,,,,
7,15,3330,A,20.36594472291483,48.21403241761469,1.0182972361457414,0.7573442502155922,A,603.3158330246806,Correct,sub_007_day_13_data.csv,1,300,133.0,Training at home,,,,,,,,,,,,,
7,15,3331,A,49.62800196073445,71.82180789644082,2.481400098036722,1.1281743202749794,A,757.3221250204369,Correct,sub_007_day_13_data.csv,1,300,133.0,Training at home,,,,,,,,,,,,,
7,15,3332,A,29.21843229023049,50.159581249422786,1.4609216145115242,0.7879048598016349,A,564.7509169648401,Correct,sub_007_day_13_data.csv,1,300,133.0,Training at home,,,,,,,,,,,,,
7,15,3333,B,57.90879302310161,32.929744271098336,2.8954396511550806,0.5172592134333656,B,620.4286250285804,Correct,sub_007_day_13_data.csv,1,300,133.0,Training at home,,,,,,,,,,,,,
7,15,3334,B,42.82589234779674,19.598253263939466,2.1412946173898373,0.3078486423859219,B,717.1294170548208,Correct,sub_007_day_13_data.csv,1,300,133.0,Training at home,,,,,,,,,,,,,
7,15,3335,B,51.28675978404812,29.72373759790268,2.5643379892024063,0.4668993783740088,B,1296.078041952569,Correct,sub_007_day_13_data.csv,1,300,133.0,Training at home,,,,,,,,,,,,,
7,15,3336,B,55.57898732681177,27.641628153847464,2.778949366340589,0.4341936797069399,B,920.204832975287,Correct,sub_007_day_13_data.csv,1,300,133.0,Training at home,,,,,,,,,,,,,
7,15,3337,A,40.26955581844816,73.20556805961684,2.013477790922408,1.1499103740897991,A,742.7560840151273,Correct,sub_007_day_13_data.csv,1,300,133.0,Training at home,,,,,,,,,,,,,
7,15,3338,A,19.013049064654904,38.59304594593961,0.9506524532327452,0.6062181481170861,A,732.8964160406031,Correct,sub_007_day_13_data.csv,1,300,133.0,Training at home,,,,,,,,,,,,,
7,15,3339,A,27.24446624962168,47.337492786334224,1.362223312481084,0.7435755978845371,A,620.7593340077437,Correct,sub_007_day_13_data.csv,1,300,133.0,Training at home,,,,,,,,,,,,,
7,15,3340,A,27.83935499197524,48.66374620133739,1.391967749598762,0.764408337811399,A,415.47675000038,Correct,sub_007_day_13_data.csv,1,300,133.0,Training at home,,,,,,,,,,,,,
7,15,3341,A,61.0119533703417,84.74632849168482,3.050597668517085,1.331192215040922,A,773.2253749854863,Correct,sub_007_day_13_data.csv,1,300,133.0,Training at home,,,,,,,,,,,,,
7,15,3342,B,77.47428522225059,60.08849833660376,3.8737142611125295,0.9438679246975844,B,635.4481249582022,Correct,sub_007_day_13_data.csv,1,300,133.0,Training at home,,,,,,,,,,,,,
7,15,3343,A,49.92399059992453,69.1362891238979,2.4961995299962267,1.085990290040488,A,894.2796250339597,Correct,sub_007_day_13_data.csv,1,300,133.0,Training at home,,,,,,,,,,,,,
7,15,3344,A,40.899920771094045,57.76520385243465,2.0449960385547024,0.9073737002796276,A,1204.57337499829,Correct,sub_007_day_13_data.csv,1,300,133.0,Training at home,,,,,,,,,,,,,
7,15,3345,A,28.492640671838853,38.58692301136733,1.424632033591943,0.6061219692857327,A,831.2990000122227,Correct,sub_007_day_13_data.csv,1,300,133.0,Training at home,,,,,,,,,,,,,
7,15,3346,B,45.75114253884248,27.97942149110365,2.287557126942124,0.439499725040718,B,1164.6846660296433,Correct,sub_007_day_13_data.csv,1,300,133.0,Training at home,,,,,,,,,,,,,
7,15,3347,A,18.034008970044848,40.644097851531384,0.9017004485022424,0.6384359961107784,A,667.0234999619424,Correct,sub_007_day_13_data.csv,1,300,133.0,Training at home,,,,,,,,,,,,,
7,15,3348,B,82.01851107324106,62.705131876767574,4.100925553662052,0.9849699082321608,B,734.1777499532327,Correct,sub_007_day_13_data.csv,1,300,133.0,Training at home,,,,,,,,,,,,,
7,15,3349,B,56.15711098768075,32.03432774124243,2.807855549384038,0.5031940434728746,B,712.5358749763109,Correct,sub_007_day_13_data.csv,1,300,133.0,Training at home,,,,,,,,,,,,,
7,15,3350,A,41.94151792021801,73.31809324780174,2.097075896010901,1.1516779156125267,A,1527.68025000114,Correct,sub_007_day_13_data.csv,1,300,134.0,Training at home,,,,,,,,,,,,,
7,15,3351,B,33.33577646801703,10.561247159946396,1.6667888234008514,0.1658956824521683,B,1185.4316249955446,Correct,sub_007_day_13_data.csv,1,300,134.0,Training at home,,,,,,,,,,,,,
7,15,3352,B,70.12375417121109,59.33975552273964,3.5061877085605544,0.932106700080266,B,947.1845420193858,Correct,sub_007_day_13_data.csv,1,300,134.0,Training at home,,,,,,,,,,,,,
7,15,3353,B,47.91292314381862,20.5969483910244,2.3956461571909307,0.3235361087580518,B,817.3371250159107,Correct,sub_007_day_13_data.csv,1,300,134.0,Training at home,,,,,,,,,,,,,
7,15,3354,B,59.77575271129497,35.852627657905316,2.988787635564748,0.5631717583098278,B,556.2787079834379,Correct,sub_007_day_13_data.csv,1,300,134.0,Training at home,,,,,,,,,,,,,
7,15,3355,A,42.87382856869533,63.24608711733857,2.1436914284347663,0.9934672132806543,A,598.408332967665,Correct,sub_007_day_13_data.csv,1,300,134.0,Training at home,,,,,,,,,,,,,
7,15,3356,A,66.00810636481454,78.06471426102976,3.3004053182407267,1.2262376641351873,A,1165.4338749940507,Correct,sub_007_day_13_data.csv,1,300,134.0,Training at home,,,,,,,,,,,,,
7,15,3357,A,38.105989531779755,61.42408681766934,1.9052994765889877,0.9648472994992582,A,608.4672499564476,Correct,sub_007_day_13_data.csv,1,300,134.0,Training at home,,,,,,,,,,,,,
7,15,3358,B,57.34676998833537,38.647489562203816,2.8673384994167685,0.6070733464415385,B,1278.869375004433,Correct,sub_007_day_13_data.csv,1,300,134.0,Training at home,,,,,,,,,,,,,
7,15,3359,B,49.78698792381681,27.789493160279868,2.4893493961908404,0.4365163377965951,B,863.2162919966504,Correct,sub_007_day_13_data.csv,1,300,134.0,Training at home,,,,,,,,,,,,,
7,15,3360,B,53.13592615325395,37.23582243726274,2.656796307662697,0.5848989310963931,B,789.6319169667549,Correct,sub_007_day_13_data.csv,1,300,134.0,Training at home,,,,,,,,,,,,,
7,15,3361,B,69.630812785866,58.79691287738533,3.4815406392933,0.9235797477467644,B,1126.0978750069626,Correct,sub_007_day_13_data.csv,1,300,134.0,Training at home,,,,,,,,,,,,,
7,15,3362,B,83.90188550834864,56.06586242046342,4.195094275417432,0.8806805074865197,B,793.2008340139873,Correct,sub_007_day_13_data.csv,1,300,134.0,Training at home,,,,,,,,,,,,,
7,15,3363,A,22.874844997519094,42.11948119828664,1.1437422498759549,0.6616112635277537,A,1421.3241250254214,Correct,sub_007_day_13_data.csv,1,300,134.0,Training at home,,,,,,,,,,,,,
7,15,3364,A,32.812078252361246,53.57029543510055,1.6406039126180625,0.8414802329477334,A,925.1822919468397,Correct,sub_007_day_13_data.csv,1,300,134.0,Training at home,,,,,,,,,,,,,
7,15,3365,B,39.93682133854344,26.43429370734732,1.996841066927172,0.4152289145691862,B,975.3819579491392,Correct,sub_007_day_13_data.csv,1,300,134.0,Training at home,,,,,,,,,,,,,
7,15,3366,A,15.416102494468351,31.307599140630323,0.7708051247234176,0.4917786173086916,A,551.1742500239052,Correct,sub_007_day_13_data.csv,1,300,134.0,Training at home,,,,,,,,,,,,,
7,15,3367,B,60.18599810668805,28.43365316647664,3.009299905334402,0.4466347795126159,B,557.562458969187,Correct,sub_007_day_13_data.csv,1,300,134.0,Training at home,,,,,,,,,,,,,
7,15,3368,A,25.047738859660377,42.479216419892595,1.2523869429830188,0.6672619711749275,A,1349.969125003554,Correct,sub_007_day_13_data.csv,1,300,134.0,Training at home,,,,,,,,,,,,,
7,15,3369,A,44.29774895229101,70.63979726735467,2.2148874476145504,1.1096073407309688,A,1257.457332976628,Correct,sub_007_day_13_data.csv,1,300,134.0,Training at home,,,,,,,,,,,,,
7,15,3370,A,38.834735223854466,69.20839696525672,1.9417367611927232,1.0871229573638834,A,1182.037082966417,Correct,sub_007_day_13_data.csv,1,300,134.0,Training at home,,,,,,,,,,,,,
7,15,3371,A,58.27898792222083,73.49037676931192,2.9139493961110414,1.1543841388400815,A,990.6182500417344,Correct,sub_007_day_13_data.csv,1,300,134.0,Training at home,,,,,,,,,,,,,
7,15,3372,A,61.546719306674014,71.67587585121404,3.0773359653337007,1.1258820250689403,A,679.6375830308534,Correct,sub_007_day_13_data.csv,1,300,134.0,Training at home,,,,,,,,,,,,,
7,15,3373,A,29.087980018881915,48.402561443751914,1.454399000944096,0.7603056572330981,A,864.9794579832815,Correct,sub_007_day_13_data.csv,1,300,134.0,Training at home,,,,,,,,,,,,,
7,15,3374,B,78.9601926877134,48.1641771611337,3.94800963438567,0.7565611256780745,B,969.473958015442,Correct,sub_007_day_13_data.csv,1,300,134.0,Training at home,,,,,,,,,,,,,
7,15,3375,A,38.06027761836667,53.80343738335413,1.9030138809183337,0.845142418107119,B,1407.7221660409125,Incorrect,sub_007_day_13_data.csv,0,300,135.0,Training at home,,,,,,,,,,,,,
7,15,3376,B,36.11603305962258,19.74508541706014,1.805801652981129,0.3101550764536954,B,687.9976250347681,Correct,sub_007_day_13_data.csv,1,300,135.0,Training at home,,,,,,,,,,,,,
7,15,3377,B,72.21419396913734,59.4488584378214,3.610709698456867,0.9338204846627964,B,1316.787916002795,Correct,sub_007_day_13_data.csv,1,300,135.0,Training at home,,,,,,,,,,,,,
7,15,3378,B,53.125119906797664,41.73388647260615,2.6562559953398828,0.6555543557404496,B,1371.8075409997257,Correct,sub_007_day_13_data.csv,1,300,135.0,Training at home,,,,,,,,,,,,,
7,15,3379,A,62.92401513626193,83.09729221021072,3.146200756813096,1.3052892137040115,A,3640.674708993174,Correct,sub_007_day_13_data.csv,1,300,135.0,Training at home,,,,,,,,,,,,,
7,15,3380,A,21.60930230930696,47.707414690434426,1.0804651154653482,0.7493863175661528,A,1304.2285420233384,Correct,sub_007_day_13_data.csv,1,300,135.0,Training at home,,,,,,,,,,,,,
7,15,3381,B,71.64121089551094,53.78100282952987,3.5820605447755467,0.8447900169597146,B,3537.8260419820435,Correct,sub_007_day_13_data.csv,1,300,135.0,Training at home,,,,,,,,,,,,,
7,15,3382,A,32.9016628652779,61.623579483105026,1.645083143263895,0.9679809229601471,A,833.263500011526,Correct,sub_007_day_13_data.csv,1,300,135.0,Training at home,,,,,,,,,,,,,
7,15,3383,B,58.26258131815762,38.76702979306275,2.913129065907881,0.6089510799969129,B,724.2321250378154,Correct,sub_007_day_13_data.csv,1,300,135.0,Training at home,,,,,,,,,,,,,
7,15,3384,B,50.09208606584232,25.71192456157861,2.504604303292116,0.4038819665615514,B,10387.087874987628,Correct,sub_007_day_13_data.csv,1,300,135.0,Training at home,,,,,,,,,,,,,
7,15,3385,A,58.47487629737307,78.05935532632904,2.9237438148686534,1.226153486185753,A,651.1827500071377,Correct,sub_007_day_13_data.csv,1,300,135.0,Training at home,,,,,,,,,,,,,
7,15,3386,A,42.92023802445343,61.55798207408947,2.1460119012226717,0.9669505212688584,A,1403.6222920403816,Correct,sub_007_day_13_data.csv,1,300,135.0,Training at home,,,,,,,,,,,,,
7,15,3387,A,57.1091007894386,77.80863631745007,2.85545503947193,1.2222152012037055,A,1358.7814170168713,Correct,sub_007_day_13_data.csv,1,300,135.0,Training at home,,,,,,,,,,,,,
7,15,3388,B,73.05008523490842,40.907748066980105,3.652504261745421,0.6425774040106337,B,647.8971249889582,Correct,sub_007_day_13_data.csv,1,300,135.0,Training at home,,,,,,,,,,,,,
7,15,3389,A,41.734291824181454,49.84833955541808,2.086714591209073,0.7830158867047545,A,1689.865542051848,Correct,sub_007_day_13_data.csv,1,300,135.0,Training at home,,,,,,,,,,,,,
7,15,3390,A,61.58462401046947,87.25965246815751,3.079231200523474,1.370671415743811,A,893.4689169982448,Correct,sub_007_day_13_data.csv,1,300,135.0,Training at home,,,,,,,,,,,,,
7,15,3391,A,54.48086084180612,80.50192024796658,2.7240430420903063,1.264521206254416,A,826.5285000088625,Correct,sub_007_day_13_data.csv,1,300,135.0,Training at home,,,,,,,,,,,,,
7,15,3392,B,62.55006594106435,45.88775120448918,3.1275032970532175,0.720803110368897,B,919.0468750311992,Correct,sub_007_day_13_data.csv,1,300,135.0,Training at home,,,,,,,,,,,,,
7,15,3393,B,39.55065499967239,22.041444227800113,1.9775327499836195,0.3462261963028299,B,1316.4364580297845,Correct,sub_007_day_13_data.csv,1,300,135.0,Training at home,,,,,,,,,,,,,
7,15,3394,B,35.772547382572824,11.843736456211476,1.7886273691286414,0.1860409772094379,B,768.8091669697315,Correct,sub_007_day_13_data.csv,1,300,135.0,Training at home,,,,,,,,,,,,,
7,15,3395,A,41.90362536421687,69.0261828533053,2.0951812682108435,1.0842607447864483,A,1224.5385829592124,Correct,sub_007_day_13_data.csv,1,300,135.0,Training at home,,,,,,,,,,,,,
7,15,3396,A,56.33864249547486,65.6871442719509,2.816932124773743,1.0318112494002691,A,1337.1985830017366,Correct,sub_007_day_13_data.csv,1,300,135.0,Training at home,,,,,,,,,,,,,
7,15,3397,B,58.42672668669731,29.157450635857785,2.9213363343348653,0.4580041635750893,B,1245.7222910015844,Correct,sub_007_day_13_data.csv,1,300,135.0,Training at home,,,,,,,,,,,,,
7,15,3398,A,20.29738445955283,47.19564441554115,1.0148692229776417,0.7413474488865011,A,965.9613750409336,Correct,sub_007_day_13_data.csv,1,300,135.0,Training at home,,,,,,,,,,,,,
7,15,3399,B,59.04715574175267,30.81556726949487,2.9523577870876334,0.4840497987502359,B,966.709540982265,Correct,sub_007_day_13_data.csv,1,300,135.0,Training at home,,,,,,,,,,,,,
7,15,3400,B,37.516497442628946,21.65177385483704,1.8758248721314472,0.340105268397718,B,887.0173750328831,Correct,sub_007_day_13_data.csv,1,300,136.0,Training at home,,,,,,,,,,,,,
7,15,3401,B,70.40914607163029,55.396769186211145,3.5204573035815145,0.8701704155400519,B,942.8778340225108,Correct,sub_007_day_13_data.csv,1,300,136.0,Training at home,,,,,,,,,,,,,
7,15,3402,B,81.46255952783889,66.53460370489297,4.073127976391945,1.045123111044,B,742.5019170041196,Correct,sub_007_day_13_data.csv,1,300,136.0,Training at home,,,,,,,,,,,,,
7,15,3403,A,23.252018735641258,54.697391659905065,1.1626009367820629,0.8591846190464068,A,603.8025420275517,Correct,sub_007_day_13_data.csv,1,300,136.0,Training at home,,,,,,,,,,,,,
7,15,3404,A,41.23893366240938,64.70519566573277,2.061946683120469,1.016386836762781,A,1874.165749992244,Correct,sub_007_day_13_data.csv,1,300,136.0,Training at home,,,,,,,,,,,,,
7,15,3405,A,35.112733462050585,61.744245960830504,1.7556366731025292,0.9698763475599318,A,1867.667916987557,Correct,sub_007_day_13_data.csv,1,300,136.0,Training at home,,,,,,,,,,,,,
7,15,3406,A,26.84206261506852,49.72790434336204,1.342103130753426,0.7811240948176108,A,545.3286659903824,Correct,sub_007_day_13_data.csv,1,300,136.0,Training at home,,,,,,,,,,,,,
7,15,3407,B,59.87777645968789,46.95504294975277,2.9938888229843945,0.7375680898996827,B,714.9353750282899,Correct,sub_007_day_13_data.csv,1,300,136.0,Training at home,,,,,,,,,,,,,
7,15,3408,B,68.90401818933215,38.40253417504217,3.445200909466607,0.6032255962177171,B,764.5710000069812,Correct,sub_007_day_13_data.csv,1,300,136.0,Training at home,,,,,,,,,,,,,
7,15,3409,A,59.1883663842682,78.96765668694746,2.9594183192134103,1.240421050594575,A,4321.002499957103,Correct,sub_007_day_13_data.csv,1,300,136.0,Training at home,,,,,,,,,,,,,
7,15,3410,B,78.2641211732784,65.36782076170222,3.91320605866392,1.0267953274306902,B,1711.7490000091493,Correct,sub_007_day_13_data.csv,1,300,136.0,Training at home,,,,,,,,,,,,,
7,15,3411,B,81.20275535649263,55.37739437909077,4.0601377678246315,0.8698660767814813,B,574.0934169734828,Correct,sub_007_day_13_data.csv,1,300,136.0,Training at home,,,,,,,,,,,,,
7,15,3412,B,69.678582234347,39.08135596411076,3.4839291117173503,0.6138885039458901,B,507.1362500311807,Correct,sub_007_day_13_data.csv,1,300,136.0,Training at home,,,,,,,,,,,,,
7,15,3413,B,32.510535404287694,19.173930658682885,1.6255267702143843,0.3011833984887913,B,598.5923340194859,Correct,sub_007_day_13_data.csv,1,300,136.0,Training at home,,,,,,,,,,,,,
7,15,3414,B,34.5976246836168,18.708617923021933,1.72988123418084,0.2938742831289201,B,499.01345797115937,Correct,sub_007_day_13_data.csv,1,300,136.0,Training at home,,,,,,,,,,,,,
7,15,3415,A,52.35677056081458,65.32725051478334,2.6178385280407293,1.026158051482317,A,1556.9627920049245,Correct,sub_007_day_13_data.csv,1,300,136.0,Training at home,,,,,,,,,,,,,
7,15,3416,A,47.18677213230647,71.44123155959691,2.359338606615324,1.122196241155185,A,636.9470419595018,Correct,sub_007_day_13_data.csv,1,300,136.0,Training at home,,,,,,,,,,,,,
7,15,3417,A,61.47441834314031,71.7287959802029,3.073720917157015,1.1267132925112326,B,1494.1193329868838,Incorrect,sub_007_day_13_data.csv,0,300,136.0,Training at home,,,,,,,,,,,,,
7,15,3418,A,27.495002257838983,59.68948476753056,1.3747501128919493,0.9376002342111692,A,761.532458011061,Correct,sub_007_day_13_data.csv,1,300,136.0,Training at home,,,,,,,,,,,,,
7,15,3419,A,17.100814943303156,42.90507000664367,0.8550407471651579,0.6739512636731377,A,772.79004099546,Correct,sub_007_day_13_data.csv,1,300,136.0,Training at home,,,,,,,,,,,,,
7,15,3420,B,76.4455393462525,47.87546654420338,3.8222769673126256,0.7520260699122664,B,718.0922499974258,Correct,sub_007_day_13_data.csv,1,300,136.0,Training at home,,,,,,,,,,,,,
7,15,3421,B,88.07282717314878,68.23516907867015,4.403641358657439,1.071835529470038,B,635.3979580453597,Correct,sub_007_day_13_data.csv,1,300,136.0,Training at home,,,,,,,,,,,,,
7,15,3422,A,40.1736456330016,48.119965072820314,2.00868228165008,0.7558666438188488,B,632.465000031516,Incorrect,sub_007_day_13_data.csv,0,300,136.0,Training at home,,,,,,,,,,,,,
7,15,3423,A,18.544445482914355,48.45805258022668,0.9272222741457178,0.7611773099665403,A,637.2187089873478,Correct,sub_007_day_13_data.csv,1,300,136.0,Training at home,,,,,,,,,,,,,
7,15,3424,A,45.40494158569766,55.69847428149516,2.270247079284883,0.874909588094526,A,2194.918791996315,Correct,sub_007_day_13_data.csv,1,300,136.0,Training at home,,,,,,,,,,,,,
7,15,3425,B,65.8558336720333,50.20342835173092,3.2927916836016653,0.788593608474097,B,1603.8358329678886,Correct,sub_007_day_13_data.csv,1,300,137.0,Training at home,,,,,,,,,,,,,
7,15,3426,B,81.3145513261132,67.83377736606667,4.06572756630566,1.0655304831924033,B,678.018125006929,Correct,sub_007_day_13_data.csv,1,300,137.0,Training at home,,,,,,,,,,,,,
7,15,3427,A,30.067902803661777,52.99691770664285,1.5033951401830887,0.8324736366504598,A,947.5170829682612,Correct,sub_007_day_13_data.csv,1,300,137.0,Training at home,,,,,,,,,,,,,
7,15,3428,A,23.971199618651095,49.24235936397228,1.198559980932555,0.7734971721164192,A,563.4263750398532,Correct,sub_007_day_13_data.csv,1,300,137.0,Training at home,,,,,,,,,,,,,
7,15,3429,B,68.31773873582256,43.653590948097715,3.415886936791128,0.6857090031267884,B,564.0750409802422,Correct,sub_007_day_13_data.csv,1,300,137.0,Training at home,,,,,,,,,,,,,
7,15,3430,B,59.2811398847721,33.05078345193294,2.964056994238605,0.5191604924398983,B,689.9486670154147,Correct,sub_007_day_13_data.csv,1,300,137.0,Training at home,,,,,,,,,,,,,
7,15,3431,B,44.349913915326155,17.45004372578544,2.217495695766308,0.274104645868741,B,630.6462910142727,Correct,sub_007_day_13_data.csv,1,300,137.0,Training at home,,,,,,,,,,,,,
7,15,3432,B,67.1273993140098,48.098832706095024,3.3563699657004906,0.755534697378563,A,3096.720166038722,Incorrect,sub_007_day_13_data.csv,0,300,137.0,Training at home,,,,,,,,,,,,,
7,15,3433,A,44.873147400526896,61.9083063842312,2.243657370026345,0.972453402664434,A,691.6675830143504,Correct,sub_007_day_13_data.csv,1,300,137.0,Training at home,,,,,,,,,,,,,
7,15,3434,B,62.363046190552055,46.594594595496055,3.1181523095276025,0.7319061803910254,B,809.0950829791836,Correct,sub_007_day_13_data.csv,1,300,137.0,Training at home,,,,,,,,,,,,,
7,15,3435,A,25.36416615714258,46.619229690473034,1.268208307857129,0.7322931475580262,A,1487.0990000199529,Correct,sub_007_day_13_data.csv,1,300,137.0,Training at home,,,,,,,,,,,,,
7,15,3436,A,55.20563648557496,66.81144587231869,2.7602818242787475,1.0494717376409424,A,1317.1995840384625,Correct,sub_007_day_13_data.csv,1,300,137.0,Training at home,,,,,,,,,,,,,
7,15,3437,B,60.231956135459065,45.576369177893696,3.011597806772953,0.7159119329328354,B,643.0124579928815,Correct,sub_007_day_13_data.csv,1,300,137.0,Training at home,,,,,,,,,,,,,
7,15,3438,A,40.09312028651101,53.69298461664251,2.0046560143255503,0.8434074301047695,A,984.3957090051844,Correct,sub_007_day_13_data.csv,1,300,137.0,Training at home,,,,,,,,,,,,,
7,15,3439,A,40.1185628534303,62.87983067278838,2.005928142671515,0.9877140705030104,A,880.0554579938762,Correct,sub_007_day_13_data.csv,1,300,137.0,Training at home,,,,,,,,,,,,,
7,15,3440,B,43.16918471944372,17.89717337117738,2.158459235972186,0.2811281419145686,B,622.620249981992,Correct,sub_007_day_13_data.csv,1,300,137.0,Training at home,,,,,,,,,,,,,
7,15,3441,B,57.59810717739019,43.2707534073629,2.8799053588695096,0.679695405099334,B,1444.3808749783784,Correct,sub_007_day_13_data.csv,1,300,137.0,Training at home,,,,,,,,,,,,,
7,15,3442,B,79.31084086307881,54.16877380361414,3.96554204315394,0.8508811091770069,B,751.0387499933131,Correct,sub_007_day_13_data.csv,1,300,137.0,Training at home,,,,,,,,,,,,,
7,15,3443,B,43.69519903410564,35.60661567288476,2.1847599517052823,0.5593074110856497,A,729.0854159509763,Incorrect,sub_007_day_13_data.csv,0,300,137.0,Training at home,,,,,,,,,,,,,
7,15,3444,B,79.79024056279712,48.153823112224,3.989512028139856,0.7563984846581265,B,522.0382079714909,Correct,sub_007_day_13_data.csv,1,300,137.0,Training at home,,,,,,,,,,,,,
7,15,3445,B,70.93211941798266,58.16642879436404,3.546605970899133,0.9136761269296394,B,743.1148340110667,Correct,sub_007_day_13_data.csv,1,300,137.0,Training at home,,,,,,,,,,,,,
7,15,3446,A,10.385813773189764,31.45452102078719,0.5192906886594882,0.4940864608054538,A,633.8322089868598,Correct,sub_007_day_13_data.csv,1,300,137.0,Training at home,,,,,,,,,,,,,
7,15,3447,B,67.32735403216371,36.65407434078231,3.3663677016081857,0.5757608533656793,B,2717.4913749913685,Correct,sub_007_day_13_data.csv,1,300,137.0,Training at home,,,,,,,,,,,,,
7,15,3448,B,84.95851185094253,62.95030520237597,4.247925592547126,0.9888210818250984,B,988.4058749885298,Correct,sub_007_day_13_data.csv,1,300,137.0,Training at home,,,,,,,,,,,,,
7,15,3449,B,68.66955338986652,42.19652770409141,3.433477669493326,0.6628215072108588,B,1133.9647920103744,Correct,sub_007_day_13_data.csv,1,300,137.0,Training at home,,,,,,,,,,,,,
7,15,3450,B,79.5561238335217,57.60526894374543,3.977806191676085,0.9048614486086746,B,987.74604202481,Correct,sub_007_day_13_data.csv,1,300,138.0,Training at home,,,,,,,,,,,,,
7,15,3451,A,67.27466878355273,80.29046937877483,3.3637334391776363,1.261199743768176,A,1086.6124170133844,Correct,sub_007_day_13_data.csv,1,300,138.0,Training at home,,,,,,,,,,,,,
7,15,3452,B,71.9475668275818,38.7866703203414,3.59737834137909,0.609259592677969,B,1143.447958980687,Correct,sub_007_day_13_data.csv,1,300,138.0,Training at home,,,,,,,,,,,,,
7,15,3453,A,37.891769287165395,47.87360240291662,1.8945884643582696,0.7519967880494076,A,1343.4597090235911,Correct,sub_007_day_13_data.csv,1,300,138.0,Training at home,,,,,,,,,,,,,
7,15,3454,B,70.67501316123094,45.13174704905059,3.533750658061547,0.7089278248648507,B,925.366125011351,Correct,sub_007_day_13_data.csv,1,300,138.0,Training at home,,,,,,,,,,,,,
7,15,3455,A,44.77097122772581,61.92727713357303,2.23854856138629,0.9727513944982612,A,1917.8732500295157,Correct,sub_007_day_13_data.csv,1,300,138.0,Training at home,,,,,,,,,,,,,
7,15,3456,A,53.58428943745382,63.89172437841551,2.679214471872691,1.0036088596620705,A,1050.3410419914871,Correct,sub_007_day_13_data.csv,1,300,138.0,Training at home,,,,,,,,,,,,,
7,15,3457,A,36.619727608124464,47.680666538453146,1.8309863804062232,0.7489661585773454,A,905.087957973592,Correct,sub_007_day_13_data.csv,1,300,138.0,Training at home,,,,,,,,,,,,,
7,15,3458,A,45.286780518527365,67.11018106027296,2.2643390259263683,1.054164259000172,A,6286.311541043688,Correct,sub_007_day_13_data.csv,1,300,138.0,Training at home,,,,,,,,,,,,,
7,15,3459,B,49.46494809490451,30.942880823802877,2.4732474047452255,0.486049635384818,B,4183.893082954455,Correct,sub_007_day_13_data.csv,1,300,138.0,Training at home,,,,,,,,,,,,,
7,15,3460,B,72.20291181243233,48.107309068747085,3.6101455906216167,0.7556678437717473,B,1395.2538339653984,Correct,sub_007_day_13_data.csv,1,300,138.0,Training at home,,,,,,,,,,,,,
7,15,3461,B,54.38112299166866,24.198649327620274,2.7190561495834333,0.3801114947722372,B,1013.6727499775589,Correct,sub_007_day_13_data.csv,1,300,138.0,Training at home,,,,,,,,,,,,,
7,15,3462,A,48.166911243023534,56.92162792310609,2.408345562151177,0.8941228405680086,A,2144.1944999969564,Correct,sub_007_day_13_data.csv,1,300,138.0,Training at home,,,,,,,,,,,,,
7,15,3463,B,44.956266354432465,21.232460411416515,2.2478133177216235,0.3335187082307111,B,608.6324159987271,Correct,sub_007_day_13_data.csv,1,300,138.0,Training at home,,,,,,,,,,,,,
7,15,3464,B,75.59177615881643,49.74963567383537,3.7795888079408217,0.7814654497584496,B,579.111874976661,Correct,sub_007_day_13_data.csv,1,300,138.0,Training at home,,,,,,,,,,,,,
7,15,3465,A,65.82815521246107,84.81487619426483,3.2914077606230534,1.3322689598351511,A,696.6101249563508,Correct,sub_007_day_13_data.csv,1,300,138.0,Training at home,,,,,,,,,,,,,
7,15,3466,B,37.92922956905478,17.296640339465434,1.896461478452739,0.2716949911112474,B,13709.25679098582,Correct,sub_007_day_13_data.csv,1,300,138.0,Training at home,,,,,,,,,,,,,
7,15,3467,A,13.82410354751882,39.6695616206389,0.691205177375941,0.623128016792634,A,844.725415983703,Correct,sub_007_day_13_data.csv,1,300,138.0,Training at home,,,,,,,,,,,,,
7,15,3468,B,70.43141818709563,46.67962420824222,3.5215709093547813,0.7332418224247301,B,955.3255829960108,Correct,sub_007_day_13_data.csv,1,300,138.0,Training at home,,,,,,,,,,,,,
7,15,3469,B,67.92355581348394,56.405682534454165,3.3961777906741974,0.8860183893547966,B,1440.727833949495,Correct,sub_007_day_13_data.csv,1,300,138.0,Training at home,,,,,,,,,,,,,
7,15,3470,B,49.415386372307424,33.67444400906598,2.470769318615371,0.5289569295630124,B,1777.830958017148,Correct,sub_007_day_13_data.csv,1,300,138.0,Training at home,,,,,,,,,,,,,
7,15,3471,B,47.700655061557306,22.96601167380492,2.385032753077865,0.3607492677834147,B,981.2386670382692,Correct,sub_007_day_13_data.csv,1,300,138.0,Training at home,,,,,,,,,,,,,
7,15,3472,A,37.68863590808427,55.8668727261565,1.8844317954042136,0.8775547846776461,A,1108.9066249551252,Correct,sub_007_day_13_data.csv,1,300,138.0,Training at home,,,,,,,,,,,,,
7,15,3473,B,52.44172692457387,25.238695542334337,2.622086346228693,0.3964485025099351,B,538.3209160063416,Correct,sub_007_day_13_data.csv,1,300,138.0,Training at home,,,,,,,,,,,,,
7,15,3474,B,67.45527861983854,43.07351910895774,3.3727639309919266,0.676597255984806,B,982.2805000003428,Correct,sub_007_day_13_data.csv,1,300,138.0,Training at home,,,,,,,,,,,,,
7,15,3475,B,69.9286086561235,41.338844380074065,3.496430432806175,0.6493490490616619,B,932.9643750097604,Correct,sub_007_day_13_data.csv,1,300,139.0,Training at home,,,,,,,,,,,,,
7,15,3476,A,51.82606416461691,59.70601051749707,2.591303208230846,0.9378598200846184,A,2825.5679159774445,Correct,sub_007_day_13_data.csv,1,300,139.0,Training at home,,,,,,,,,,,,,
7,15,3477,B,57.42330652537668,29.44338432737013,2.8711653262688337,0.4624955994984341,B,1153.836541052442,Correct,sub_007_day_13_data.csv,1,300,139.0,Training at home,,,,,,,,,,,,,
7,15,3478,A,48.5428542238907,74.24676112632653,2.4271427111945347,1.1662653965365184,A,1962.188333971426,Correct,sub_007_day_13_data.csv,1,300,139.0,Training at home,,,,,,,,,,,,,
7,15,3479,A,52.87230151813335,70.53029431311337,2.6436150759066677,1.1078872723480149,A,843.3042909600772,Correct,sub_007_day_13_data.csv,1,300,139.0,Training at home,,,,,,,,,,,,,
7,15,3480,A,47.5994850575446,57.59232234244134,2.37997425287723,0.9046580838709452,A,2815.0465409853496,Correct,sub_007_day_13_data.csv,1,300,139.0,Training at home,,,,,,,,,,,,,
7,15,3481,B,69.4462917715469,43.53615656436179,3.472314588577345,0.6838643481406701,B,648.098542005755,Correct,sub_007_day_13_data.csv,1,300,139.0,Training at home,,,,,,,,,,,,,
7,15,3482,B,62.24330640085331,54.02271431403283,3.1121653200426653,0.8485868120797284,B,889.9461249820888,Correct,sub_007_day_13_data.csv,1,300,139.0,Training at home,,,,,,,,,,,,,
7,15,3483,B,65.99707529813284,32.99589783800035,3.2998537649066417,0.5182983512323063,B,1801.9189159967937,Correct,sub_007_day_13_data.csv,1,300,139.0,Training at home,,,,,,,,,,,,,
7,15,3484,A,53.95654589731927,69.09620802158064,2.697827294865964,1.0853606975575494,A,2202.9520830255933,Correct,sub_007_day_13_data.csv,1,300,139.0,Training at home,,,,,,,,,,,,,
7,15,3485,A,45.43172889254185,60.13811364499837,2.2715864446270926,0.9446472801393748,A,1372.803499980364,Correct,sub_007_day_13_data.csv,1,300,139.0,Training at home,,,,,,,,,,,,,
7,15,3486,B,47.19757493234451,36.21404418315237,2.3598787466172255,0.5688488758128383,B,782.472749997396,Correct,sub_007_day_13_data.csv,1,300,139.0,Training at home,,,,,,,,,,,,,
7,15,3487,B,75.74818640154867,48.36707756155468,3.7874093200774337,0.7597482777149395,B,926.6446250258014,Correct,sub_007_day_13_data.csv,1,300,139.0,Training at home,,,,,,,,,,,,,
7,15,3488,A,56.9420311675041,79.48977351909096,2.8471015583752046,1.2486224426154633,B,1815.8717089681888,Incorrect,sub_007_day_13_data.csv,0,300,139.0,Training at home,,,,,,,,,,,,,
7,15,3489,A,19.896976545995734,41.15501849378026,0.994848827299787,0.6464615187920606,A,539.331583015155,Correct,sub_007_day_13_data.csv,1,300,139.0,Training at home,,,,,,,,,,,,,
7,15,3490,A,61.82514748514273,72.65209762351937,3.091257374257136,1.1412164808096847,A,874.5592500199564,Correct,sub_007_day_13_data.csv,1,300,139.0,Training at home,,,,,,,,,,,,,
7,15,3491,B,88.17811949110538,65.61876511070841,4.408905974555268,1.0307371520471789,B,642.6610000198707,Correct,sub_007_day_13_data.csv,1,300,139.0,Training at home,,,,,,,,,,,,,
7,15,3492,B,55.64973495231253,38.68556613979944,2.7824867476156268,0.6076714519237799,B,2777.719458041247,Correct,sub_007_day_13_data.csv,1,300,139.0,Training at home,,,,,,,,,,,,,
7,15,3493,A,22.989361192533547,41.66300406214613,1.1494680596266773,0.6544409374405998,A,548.267041973304,Correct,sub_007_day_13_data.csv,1,300,139.0,Training at home,,,,,,,,,,,,,
7,15,3494,A,60.90603858988064,79.45923231500663,3.045301929494032,1.2481427025035474,A,798.1076249852777,Correct,sub_007_day_13_data.csv,1,300,139.0,Training at home,,,,,,,,,,,,,
7,15,3495,B,50.61129714891688,34.27993158098112,2.530564857445844,0.5384679061018551,B,832.9638750292361,Correct,sub_007_day_13_data.csv,1,300,139.0,Training at home,,,,,,,,,,,,,
7,15,3496,B,42.09689942409437,17.22063361206609,2.1048449712047184,0.2705010802291415,B,662.9940419807099,Correct,sub_007_day_13_data.csv,1,300,139.0,Training at home,,,,,,,,,,,,,
7,15,3497,B,56.855494034386695,44.5706595692987,2.842774701719335,0.700114283342802,B,1845.6344589940272,Correct,sub_007_day_13_data.csv,1,300,139.0,Training at home,,,,,,,,,,,,,
7,15,3498,A,55.94228525322049,73.68421936600052,2.797114262661024,1.1574290112286298,A,670.8316250005737,Correct,sub_007_day_13_data.csv,1,300,139.0,Training at home,,,,,,,,,,,,,
7,15,3499,A,65.37854720777955,85.83505293602887,3.2689273603889775,1.348293858621597,A,709.2105830088258,Correct,sub_007_day_13_data.csv,1,300,139.0,Training at home,,,,,,,,,,,,,
7,15,3500,A,33.18553140290189,55.39503469797065,1.6592765701450944,0.8701431702624814,A,787.3908750480041,Correct,sub_007_day_13_data.csv,1,300,140.0,Training at home,,,,,,,,,,,,,
7,15,3501,B,77.5367270661812,65.34423364998722,3.87683635330906,1.026424821946274,B,682.307209004648,Correct,sub_007_day_13_data.csv,1,300,140.0,Training at home,,,,,,,,,,,,,
7,15,3502,A,64.3692384204767,76.26731876507415,3.218461921023835,1.1980042417067398,A,778.2165830140002,Correct,sub_007_day_13_data.csv,1,300,140.0,Training at home,,,,,,,,,,,,,
7,15,3503,A,56.16351941784187,82.71125249242046,2.8081759708920937,1.2992253159969929,A,831.5369579941034,Correct,sub_007_day_13_data.csv,1,300,140.0,Training at home,,,,,,,,,,,,,
7,15,3504,A,39.690094998058896,70.70639078364202,1.984504749902945,1.110653389238694,A,581.372165994253,Correct,sub_007_day_13_data.csv,1,300,140.0,Training at home,,,,,,,,,,,,,
7,15,3505,B,75.10329102605428,61.654882256679144,3.7551645513027143,0.9684726257776346,B,870.686917041894,Correct,sub_007_day_13_data.csv,1,300,140.0,Training at home,,,,,,,,,,,,,
7,15,3506,A,61.436516415222506,85.34897255796245,3.0718258207611253,1.3406585258976589,A,800.9914169670083,Correct,sub_007_day_13_data.csv,1,300,140.0,Training at home,,,,,,,,,,,,,
7,15,3507,A,34.951537904452564,61.19643259547729,1.747576895222628,0.961271315339272,A,1304.8794580390677,Correct,sub_007_day_13_data.csv,1,300,140.0,Training at home,,,,,,,,,,,,,
7,15,3508,A,43.72825644667515,67.45471312272667,2.1864128223337573,1.0595761559818255,A,555.0565419835038,Correct,sub_007_day_13_data.csv,1,300,140.0,Training at home,,,,,,,,,,,,,
7,15,3509,A,52.986080880226154,76.60191456599868,2.649304044011308,1.2032600602572725,A,670.4589169821702,Correct,sub_007_day_13_data.csv,1,300,140.0,Training at home,,,,,,,,,,,,,
7,15,3510,B,83.88342399206792,55.70761196145845,4.194171199603396,0.8750531224357437,B,671.581458998844,Correct,sub_007_day_13_data.csv,1,300,140.0,Training at home,,,,,,,,,,,,,
7,15,3511,A,23.857639052913857,56.4629236119818,1.1928819526456926,0.8869175300980185,A,701.1155840009451,Correct,sub_007_day_13_data.csv,1,300,140.0,Training at home,,,,,,,,,,,,,
7,15,3512,A,51.9845117560879,81.13060976779391,2.599225587804395,1.2743966381388083,A,549.3314579944126,Correct,sub_007_day_13_data.csv,1,300,140.0,Training at home,,,,,,,,,,,,,
7,15,3513,A,29.10882070882431,42.61926678351061,1.4554410354412155,0.6694618771423022,A,852.857917023357,Correct,sub_007_day_13_data.csv,1,300,140.0,Training at home,,,,,,,,,,,,,
7,15,3514,B,58.07125386681225,31.95936944157863,2.9035626933406125,0.5020166012551277,B,763.2160839857534,Correct,sub_007_day_13_data.csv,1,300,140.0,Training at home,,,,,,,,,,,,,
7,15,3515,A,31.15276689850196,53.646835588102505,1.557638344925098,0.8426825228596115,A,1077.1622919710353,Correct,sub_007_day_13_data.csv,1,300,140.0,Training at home,,,,,,,,,,,,,
7,15,3516,A,49.482078864359664,62.92584514929548,2.474103943217983,0.988436864209778,A,782.9315830022097,Correct,sub_007_day_13_data.csv,1,300,140.0,Training at home,,,,,,,,,,,,,
7,15,3517,A,20.69108573838593,33.20213810479435,1.0345542869192963,0.5215379657674784,A,991.704749991186,Correct,sub_007_day_13_data.csv,1,300,140.0,Training at home,,,,,,,,,,,,,
7,15,3518,A,22.432053200417812,51.65786385708808,1.1216026600208906,0.811439827967848,A,668.0756250279956,Correct,sub_007_day_13_data.csv,1,300,140.0,Training at home,,,,,,,,,,,,,
7,15,3519,A,26.841181891516516,36.8196217777251,1.3420590945758255,0.5783612664242795,A,524.3532080203295,Correct,sub_007_day_13_data.csv,1,300,140.0,Training at home,,,,,,,,,,,,,
7,15,3520,A,50.328802648148,62.03985381973551,2.5164401324074,0.9745197449493288,A,476.15762503119186,Correct,sub_007_day_13_data.csv,1,300,140.0,Training at home,,,,,,,,,,,,,
7,15,3521,B,87.618103475254,63.8960723723886,4.3809051737627,1.0036771577916888,B,787.705291993916,Correct,sub_007_day_13_data.csv,1,300,140.0,Training at home,,,,,,,,,,,,,
7,15,3522,A,38.679341790759054,57.44799162717648,1.9339670895379528,0.902390942297128,A,1699.3129160255194,Correct,sub_007_day_13_data.csv,1,300,140.0,Training at home,,,,,,,,,,,,,
7,15,3523,B,88.6680753249262,65.6703784877608,4.433403766246311,1.0315478930780526,B,560.9737919876352,Correct,sub_007_day_13_data.csv,1,300,140.0,Training at home,,,,,,,,,,,,,
7,15,3524,A,45.39603381447788,61.35726159197502,2.269801690723894,0.9637976113086796,A,758.8370420271531,Correct,sub_007_day_13_data.csv,1,300,140.0,Training at home,,,,,,,,,,,,,
7,15,3525,B,54.58683603605092,43.16370836369595,2.729341801802546,0.6780139454853976,B,724.7593330102973,Correct,sub_007_day_13_data.csv,1,300,141.0,Training at home,,,,,,,,,,,,,
7,15,3526,A,26.28011558841215,55.34172856374633,1.3140057794206077,0.8693058394641293,A,527.3497920134105,Correct,sub_007_day_13_data.csv,1,300,141.0,Training at home,,,,,,,,,,,,,
7,15,3527,B,74.60886594669464,52.16106288741837,3.730443297334732,0.8193440598527436,B,533.3489580079913,Correct,sub_007_day_13_data.csv,1,300,141.0,Training at home,,,,,,,,,,,,,
7,15,3528,B,50.242686290205256,41.35962717131618,2.512134314510263,0.6496755043830985,B,1368.809207982849,Correct,sub_007_day_13_data.csv,1,300,141.0,Training at home,,,,,,,,,,,,,
7,15,3529,A,31.8983176862548,51.310947537175934,1.59491588431274,0.8059904791576159,A,878.8762909825891,Correct,sub_007_day_13_data.csv,1,300,141.0,Training at home,,,,,,,,,,,,,
7,15,3530,A,21.81447187060204,37.17834709967315,1.090723593530102,0.5839961106047228,A,427.46450001141056,Correct,sub_007_day_13_data.csv,1,300,141.0,Training at home,,,,,,,,,,,,,
7,15,3531,A,64.98867628773738,85.93330791380582,3.2494338143868684,1.34983724420341,A,642.6894589676522,Correct,sub_007_day_13_data.csv,1,300,141.0,Training at home,,,,,,,,,,,,,
7,15,3532,A,16.43334225021427,35.18978938655766,0.8216671125107134,0.5527599190909082,A,757.8970839967951,Correct,sub_007_day_13_data.csv,1,300,141.0,Training at home,,,,,,,,,,,,,
7,15,3533,B,71.50036704896581,50.43999583209139,3.5750183524482906,0.7923096017659904,B,2797.038374992553,Correct,sub_007_day_13_data.csv,1,300,141.0,Training at home,,,,,,,,,,,,,
7,15,3534,B,78.70103650310816,50.6505023266938,3.935051825155408,0.7956162300508698,B,1067.189708002843,Correct,sub_007_day_13_data.csv,1,300,141.0,Training at home,,,,,,,,,,,,,
7,15,3535,B,47.34155007046055,30.140778899972485,2.3670775035230274,0.473450247828139,B,2090.1508750393987,Correct,sub_007_day_13_data.csv,1,300,141.0,Training at home,,,,,,,,,,,,,
7,15,3536,B,40.811333297864074,14.464996046260412,2.0405666648932037,0.2272156265656856,B,605.611625011079,Correct,sub_007_day_13_data.csv,1,300,141.0,Training at home,,,,,,,,,,,,,
7,15,3537,B,81.19456077746678,61.79342001798145,4.059728038873339,0.9706487718433948,A,562.783874978777,Incorrect,sub_007_day_13_data.csv,0,300,141.0,Training at home,,,,,,,,,,,,,
7,15,3538,B,66.21939198326626,52.61906955972222,3.3109695991633132,0.8265384118377683,B,1630.786249996163,Correct,sub_007_day_13_data.csv,1,300,141.0,Training at home,,,,,,,,,,,,,
7,15,3539,A,23.533660196254367,47.71700678775922,1.1766830098127183,0.7495369898785932,A,696.1916660075076,Correct,sub_007_day_13_data.csv,1,300,141.0,Training at home,,,,,,,,,,,,,
7,15,3540,A,41.05951355912573,52.75562802786752,2.0529756779562867,0.828683467239322,A,732.3092079604976,Correct,sub_007_day_13_data.csv,1,300,141.0,Training at home,,,,,,,,,,,,,
7,15,3541,A,30.773990289081375,55.39836903046269,1.538699514454069,0.8701955458347895,A,1044.1195419989526,Correct,sub_007_day_13_data.csv,1,300,141.0,Training at home,,,,,,,,,,,,,
7,15,3542,B,53.66577597100017,29.562530291831592,2.683288798550009,0.4643671399317193,B,644.2725000088103,Correct,sub_007_day_13_data.csv,1,300,141.0,Training at home,,,,,,,,,,,,,
7,15,3543,A,22.095090607136385,38.03755674672104,1.1047545303568191,0.5974925441800184,A,531.1013329774141,Correct,sub_007_day_13_data.csv,1,300,141.0,Training at home,,,,,,,,,,,,,
7,15,3544,B,31.535441145420187,14.387619477058871,1.576772057271009,0.2260001982588678,B,1433.770250005182,Correct,sub_007_day_13_data.csv,1,300,141.0,Training at home,,,,,,,,,,,,,
7,15,3545,B,71.47380262962054,50.88936154682949,3.573690131481027,0.7993682219069722,B,541.4078329922631,Correct,sub_007_day_13_data.csv,1,300,141.0,Training at home,,,,,,,,,,,,,
7,15,3546,A,24.261284840521306,45.61780100268794,1.213064242026065,0.7165627425148278,A,672.6109579904005,Correct,sub_007_day_13_data.csv,1,300,141.0,Training at home,,,,,,,,,,,,,
7,15,3547,A,43.55562122497017,72.65784946066307,2.1777810612485085,1.141306830456261,A,1959.1957500088029,Correct,sub_007_day_13_data.csv,1,300,141.0,Training at home,,,,,,,,,,,,,
7,15,3548,B,59.54814089277567,30.222851456352455,2.9774070446387833,0.4747394405290622,B,1847.986458975356,Correct,sub_007_day_13_data.csv,1,300,141.0,Training at home,,,,,,,,,,,,,
7,15,3549,B,53.76002735011367,32.8222384756293,2.6880013675056835,0.5155705163470462,B,2006.7014579544775,Correct,sub_007_day_13_data.csv,1,300,141.0,Training at home,,,,,,,,,,,,,
7,15,3550,B,76.52756493736449,61.62048012269611,3.8263782468682246,0.9679322383206898,B,644.4607090088539,Correct,sub_007_day_13_data.csv,1,300,142.0,Training at home,,,,,,,,,,,,,
7,15,3551,B,60.77141101388858,33.797341259485385,3.038570550694429,0.5308873950583325,B,562.0034169987775,Correct,sub_007_day_13_data.csv,1,300,142.0,Training at home,,,,,,,,,,,,,
7,15,3552,B,40.21683725702391,13.384740546513598,2.0108418628511955,0.2102470128556628,B,611.861458979547,Correct,sub_007_day_13_data.csv,1,300,142.0,Training at home,,,,,,,,,,,,,
7,15,3553,B,81.54238820592155,50.37779992315341,4.077119410296078,0.7913326307129759,B,555.5189590086229,Correct,sub_007_day_13_data.csv,1,300,142.0,Training at home,,,,,,,,,,,,,
7,15,3554,A,68.37690930324212,83.97627684484283,3.4188454651621054,1.3190962720579045,A,1069.334624975454,Correct,sub_007_day_13_data.csv,1,300,142.0,Training at home,,,,,,,,,,,,,
7,15,3555,B,63.460082810917754,54.91670880272333,3.1730041405458875,0.8626296446698275,A,4011.825541965663,Incorrect,sub_007_day_13_data.csv,0,300,142.0,Training at home,,,,,,,,,,,,,
7,15,3556,B,73.37603699583886,50.680442336837174,3.668801849791943,0.796086526630444,B,837.9715420305729,Correct,sub_007_day_13_data.csv,1,300,142.0,Training at home,,,,,,,,,,,,,
7,15,3557,B,55.9454952996389,40.73164074884291,2.797274764981945,0.6398111167261178,B,976.084458990954,Correct,sub_007_day_13_data.csv,1,300,142.0,Training at home,,,,,,,,,,,,,
7,15,3558,A,28.998081060691227,55.26755625049208,1.4499040530345613,0.868140743492033,A,1632.335709000472,Correct,sub_007_day_13_data.csv,1,300,142.0,Training at home,,,,,,,,,,,,,
7,15,3559,A,66.9700338030804,87.11587793193321,3.34850169015402,1.3684130106099328,A,721.017749980092,Correct,sub_007_day_13_data.csv,1,300,142.0,Training at home,,,,,,,,,,,,,
7,15,3560,A,20.492674904807913,35.2381854242676,1.0246337452403955,0.5535201222735701,A,629.954167001415,Correct,sub_007_day_13_data.csv,1,300,142.0,Training at home,,,,,,,,,,,,,
7,15,3561,B,72.72380672658417,39.984605893868235,3.636190336329209,0.628076720664298,B,974.0953749860636,Correct,sub_007_day_13_data.csv,1,300,142.0,Training at home,,,,,,,,,,,,,
7,15,3562,A,51.61442546522407,65.1807354606951,2.580721273261204,1.0238565983944974,A,1129.9075409770012,Correct,sub_007_day_13_data.csv,1,300,142.0,Training at home,,,,,,,,,,,,,
7,15,3563,B,56.18294033841737,24.33625755534011,2.8091470169208685,0.3822730397586279,B,1732.9669169848785,Correct,sub_007_day_13_data.csv,1,300,142.0,Training at home,,,,,,,,,,,,,
7,15,3564,A,32.440727778914564,40.85391495748279,1.622036388945728,0.6417317955040505,A,1860.8503330033273,Correct,sub_007_day_13_data.csv,1,300,142.0,Training at home,,,,,,,,,,,,,
7,15,3565,B,75.14664865442765,62.08683017817762,3.757332432721382,0.9752576478621994,B,703.6435409681872,Correct,sub_007_day_13_data.csv,1,300,142.0,Training at home,,,,,,,,,,,,,
7,15,3566,B,52.94420301854157,29.511172649582313,2.6472101509270782,0.4635604159737391,B,880.2977920277044,Correct,sub_007_day_13_data.csv,1,300,142.0,Training at home,,,,,,,,,,,,,
7,15,3567,A,34.63269819046668,58.48098009944351,1.7316349095233337,0.918617087275713,A,462.34958298737183,Correct,sub_007_day_13_data.csv,1,300,142.0,Training at home,,,,,,,,,,,,,
7,15,3568,B,64.16702428745442,52.19744145466556,3.208351214372721,0.8199154930508031,B,1201.43554196693,Correct,sub_007_day_13_data.csv,1,300,142.0,Training at home,,,,,,,,,,,,,
7,15,3569,B,33.1402876752032,20.21110260048092,1.6570143837601596,0.3174752572531021,B,985.2755830506794,Correct,sub_007_day_13_data.csv,1,300,142.0,Training at home,,,,,,,,,,,,,
7,15,3570,B,43.730422791415066,27.84437483591892,2.186521139570753,0.4373784171416169,B,3041.1267500021495,Correct,sub_007_day_13_data.csv,1,300,142.0,Training at home,,,,,,,,,,,,,
7,15,3571,A,43.28660491959846,58.19999132638512,2.164330245979923,0.914203325949806,A,1237.9664999898523,Correct,sub_007_day_13_data.csv,1,300,142.0,Training at home,,,,,,,,,,,,,
7,15,3572,B,40.831862772323674,23.561438809059368,2.041593138616184,0.3701022153527318,B,681.235917028971,Correct,sub_007_day_13_data.csv,1,300,142.0,Training at home,,,,,,,,,,,,,
7,15,3573,A,36.06014196058538,67.98941018193314,1.8030070980292692,1.067975157747321,A,737.0693749981001,Correct,sub_007_day_13_data.csv,1,300,142.0,Training at home,,,,,,,,,,,,,
7,15,3574,B,82.70691246008337,59.66563919202319,4.135345623004168,0.9372256687869964,B,1162.1288749738596,Correct,sub_007_day_13_data.csv,1,300,142.0,Training at home,,,,,,,,,,,,,
7,15,3575,A,39.85284064767992,66.5152944252214,1.992642032383996,1.0448198015881882,A,893.1827920023352,Correct,sub_007_day_13_data.csv,1,300,143.0,Training at home,,,,,,,,,,,,,
7,15,3576,A,38.02122022256664,67.42364139676503,1.901061011128332,1.0590880824517483,A,566.2440419546328,Correct,sub_007_day_13_data.csv,1,300,143.0,Training at home,,,,,,,,,,,,,
7,15,3577,B,87.57708221241057,66.85241122161236,4.378854110620528,1.0501152198429062,B,600.4536249674857,Correct,sub_007_day_13_data.csv,1,300,143.0,Training at home,,,,,,,,,,,,,
7,15,3578,A,65.15623077897648,83.20821764113393,3.2578115389488236,1.307031626298435,A,673.7222499796189,Correct,sub_007_day_13_data.csv,1,300,143.0,Training at home,,,,,,,,,,,,,
7,15,3579,A,15.175156133760565,42.64759124681002,0.7587578066880282,0.6699067967713936,A,519.2357079940848,Correct,sub_007_day_13_data.csv,1,300,143.0,Training at home,,,,,,,,,,,,,
7,15,3580,B,63.59352728872519,41.02616480220126,3.1796763644362596,0.6444374897377981,B,707.7783750137314,Correct,sub_007_day_13_data.csv,1,300,143.0,Training at home,,,,,,,,,,,,,
7,15,3581,B,61.61898213886556,37.46538892821102,3.080949106943278,0.5885049531037606,B,841.7902090004645,Correct,sub_007_day_13_data.csv,1,300,143.0,Training at home,,,,,,,,,,,,,
7,15,3582,B,73.89074636028484,47.69294200071255,3.6945373180142416,0.749158981087613,B,768.0488749756478,Correct,sub_007_day_13_data.csv,1,300,143.0,Training at home,,,,,,,,,,,,,
7,15,3583,B,47.07650354841927,20.644469118037787,2.353825177420964,0.3242825625924442,B,1294.8240000405349,Correct,sub_007_day_13_data.csv,1,300,143.0,Training at home,,,,,,,,,,,,,
7,15,3584,B,75.36524704001076,56.69763703248219,3.768262352000538,0.8906043998857333,B,932.534542051144,Correct,sub_007_day_13_data.csv,1,300,143.0,Training at home,,,,,,,,,,,,,
7,15,3585,B,48.00076829963077,31.899273413662964,2.400038414981538,0.5010726150560788,B,1572.9631659924053,Correct,sub_007_day_13_data.csv,1,300,143.0,Training at home,,,,,,,,,,,,,
7,15,3586,A,56.70858531866352,81.66169859618854,2.835429265933176,1.2827389619472491,A,1411.8617920321412,Correct,sub_007_day_13_data.csv,1,300,143.0,Training at home,,,,,,,,,,,,,
7,15,3587,B,34.28460382996347,16.997799989451078,1.7142301914981737,0.2670008178702408,B,2040.775917004794,Correct,sub_007_day_13_data.csv,1,300,143.0,Training at home,,,,,,,,,,,,,
7,15,3588,B,79.71902540886022,61.57156564448539,3.9859512704430102,0.967163891493685,B,1114.9425000185147,Correct,sub_007_day_13_data.csv,1,300,143.0,Training at home,,,,,,,,,,,,,
7,15,3589,A,67.75398220724455,89.07400911524483,3.387699110362228,1.3991712633112174,A,1043.3845410007052,Correct,sub_007_day_13_data.csv,1,300,143.0,Training at home,,,,,,,,,,,,,
7,15,3590,A,51.04424962791386,75.74109573322758,2.552212481395693,1.1897383496517449,A,728.6910829716362,Correct,sub_007_day_13_data.csv,1,300,143.0,Training at home,,,,,,,,,,,,,
7,15,3591,B,64.26755912271659,48.9170995961461,3.2133779561358295,0.7683880036308641,B,680.6715410202742,Correct,sub_007_day_13_data.csv,1,300,143.0,Training at home,,,,,,,,,,,,,
7,15,3592,B,34.32639128870825,19.735341879319257,1.7163195644354123,0.3100020253207618,B,904.7769589815288,Correct,sub_007_day_13_data.csv,1,300,143.0,Training at home,,,,,,,,,,,,,
7,15,3593,A,61.338780718750535,70.98456313636942,3.066939035937527,1.115022910337495,A,2023.858958971687,Correct,sub_007_day_13_data.csv,1,300,143.0,Training at home,,,,,,,,,,,,,
7,15,3594,A,26.7146834297189,44.51317500475962,1.335734171485945,0.6992113179145482,A,6452.434250037186,Correct,sub_007_day_13_data.csv,1,300,143.0,Training at home,,,,,,,,,,,,,
7,15,3595,A,54.19525515315188,78.73621985404388,2.709762757657594,1.236785649324475,B,736.5599170443602,Incorrect,sub_007_day_13_data.csv,0,300,143.0,Training at home,,,,,,,,,,,,,
7,15,3596,B,74.96675363855954,55.41711373838497,3.748337681927977,0.8704899870183012,B,599.72174995346,Correct,sub_007_day_13_data.csv,1,300,143.0,Training at home,,,,,,,,,,,,,
7,15,3597,B,71.09781471505651,37.96958975796488,3.554890735752826,0.5964249212172037,B,603.2774159684777,Correct,sub_007_day_13_data.csv,1,300,143.0,Training at home,,,,,,,,,,,,,
7,15,3598,A,51.89121949460135,67.67781498691207,2.5945609747300677,1.0630806318694608,A,1735.470375046134,Correct,sub_007_day_13_data.csv,1,300,143.0,Training at home,,,,,,,,,,,,,
7,15,3599,A,31.074623931671415,62.58038824518963,1.553731196583571,0.983010439849424,A,546.9494169810787,Correct,sub_007_day_13_data.csv,1,300,143.0,Training at home,,,,,,,,,,,,,
