subject,day,trial,cat,x,y,xt,yt,resp,rt,fb,f_name,acc,n_trials,block,session_type,ns_left_digit,ns_right_digit,ns_left_size,ns_right_size,ns_congruent,ns_cue,ns_correct_side,ns_resp,ns_rt,ns_fb,acc_stroop,acc_stroop_mean,resp_key
7,14,3000,B,72.90894390588002,60.35267844088985,3.6454471952940017,0.9480176560718332,B,1846.7393750324843,Correct,sub_007_day_12_data.csv,1,300,120.0,Training at home,,,,,,,,,,,,,
7,14,3001,A,22.445079056029975,45.59751830872015,1.1222539528014988,0.7162441427030065,A,541.2694580154493,Correct,sub_007_day_12_data.csv,1,300,120.0,Training at home,,,,,,,,,,,,,
7,14,3002,B,61.018482188401954,51.95626040235841,3.050924109420098,0.8161270299402373,B,815.4028749559075,Correct,sub_007_day_12_data.csv,1,300,120.0,Training at home,,,,,,,,,,,,,
7,14,3003,A,17.773503952565854,33.198116225893976,0.8886751976282926,0.5214747902414432,A,574.345207947772,Correct,sub_007_day_12_data.csv,1,300,120.0,Training at home,,,,,,,,,,,,,
7,14,3004,B,49.29279211977392,35.28325535355069,2.464639605988696,0.554228079067238,B,1136.9462489965372,Correct,sub_007_day_12_data.csv,1,300,120.0,Training at home,,,,,,,,,,,,,
7,14,3005,B,64.16867757971598,55.83535460516312,3.2084338789857987,0.8770596991908074,A,2043.3382909977809,Incorrect,sub_007_day_12_data.csv,0,300,120.0,Training at home,,,,,,,,,,,,,
7,14,3006,B,80.4820814414391,53.4130384939872,4.024104072071955,0.8390100466930949,B,676.2611249578185,Correct,sub_007_day_12_data.csv,1,300,120.0,Training at home,,,,,,,,,,,,,
7,14,3007,A,32.14924221217142,59.184081516961925,1.6074621106085711,0.929661378515735,A,608.7908750050701,Correct,sub_007_day_12_data.csv,1,300,120.0,Training at home,,,,,,,,,,,,,
7,14,3008,B,62.24007895543049,49.598235846962574,3.1120039477715244,0.7790872668391577,B,1563.8572910102084,Correct,sub_007_day_12_data.csv,1,300,120.0,Training at home,,,,,,,,,,,,,
7,14,3009,A,43.518824068765745,68.57124028845759,2.1759412034382875,1.077114523688794,A,852.6917909621261,Correct,sub_007_day_12_data.csv,1,300,120.0,Training at home,,,,,,,,,,,,,
7,14,3010,B,80.77975635899372,66.77099700536746,4.038987817949686,1.0488363683246424,B,553.5739999613725,Correct,sub_007_day_12_data.csv,1,300,120.0,Training at home,,,,,,,,,,,,,
7,14,3011,A,49.74072752701747,61.40412824400698,2.4870363763508734,0.9645337909572892,A,1481.589958013501,Correct,sub_007_day_12_data.csv,1,300,120.0,Training at home,,,,,,,,,,,,,
7,14,3012,B,39.44133260356635,20.825165324749,1.9720666301783176,0.3271209319701217,B,600.3546239808202,Correct,sub_007_day_12_data.csv,1,300,120.0,Training at home,,,,,,,,,,,,,
7,14,3013,A,45.92420158047385,76.73218485220731,2.2962100790236923,1.2053063411279423,A,677.0514160161838,Correct,sub_007_day_12_data.csv,1,300,120.0,Training at home,,,,,,,,,,,,,
7,14,3014,A,20.44932391985411,41.9205606880518,1.0224661959927055,0.6584866274597431,A,472.6051249890588,Correct,sub_007_day_12_data.csv,1,300,120.0,Training at home,,,,,,,,,,,,,
7,14,3015,A,34.264361736653235,44.470338667094325,1.7132180868326616,0.6985384462959683,A,893.798916018568,Correct,sub_007_day_12_data.csv,1,300,120.0,Training at home,,,,,,,,,,,,,
7,14,3016,B,87.53181965509694,63.527450882115005,4.376590982754847,0.9978868649626946,B,621.2878330261447,Correct,sub_007_day_12_data.csv,1,300,120.0,Training at home,,,,,,,,,,,,,
7,14,3017,A,43.20906993975101,51.214074988409,2.16045349698755,0.8044688087199124,A,585.3841250063851,Correct,sub_007_day_12_data.csv,1,300,120.0,Training at home,,,,,,,,,,,,,
7,14,3018,A,64.56292087404975,86.05032081108828,3.228146043702487,1.3516752784957993,A,834.1718750307336,Correct,sub_007_day_12_data.csv,1,300,120.0,Training at home,,,,,,,,,,,,,
7,14,3019,A,21.175177829484127,45.132662451044304,1.0587588914742063,0.7089422039657434,A,575.4196249763481,Correct,sub_007_day_12_data.csv,1,300,120.0,Training at home,,,,,,,,,,,,,
7,14,3020,B,31.47061130212559,17.088735121969,1.5735305651062794,0.2684292235915984,B,570.5436250427738,Correct,sub_007_day_12_data.csv,1,300,120.0,Training at home,,,,,,,,,,,,,
7,14,3021,B,40.612259524736885,27.39852264561989,2.0306129762368443,0.4303749873134651,B,1244.954373978544,Correct,sub_007_day_12_data.csv,1,300,120.0,Training at home,,,,,,,,,,,,,
7,14,3022,B,58.93691144500524,33.99610384482146,2.946845572250262,0.5340095504478342,B,592.9199579986744,Correct,sub_007_day_12_data.csv,1,300,120.0,Training at home,,,,,,,,,,,,,
7,14,3023,B,46.79475168386489,24.965373424480656,2.3397375841932444,0.3921551687223714,B,720.4509999719448,Correct,sub_007_day_12_data.csv,1,300,120.0,Training at home,,,,,,,,,,,,,
7,14,3024,B,65.93122140004877,45.783874598604754,3.2965610700024386,0.7191714204592651,B,735.9764580032788,Correct,sub_007_day_12_data.csv,1,300,120.0,Training at home,,,,,,,,,,,,,
7,14,3025,B,56.05840461782214,45.86146622813708,2.802920230891107,0.7203902269258593,B,1005.1480829715728,Correct,sub_007_day_12_data.csv,1,300,121.0,Training at home,,,,,,,,,,,,,
7,14,3026,A,33.30750068470753,48.476778591016405,1.6653750342353764,0.7614714574561805,A,659.7998740035109,Correct,sub_007_day_12_data.csv,1,300,121.0,Training at home,,,,,,,,,,,,,
7,14,3027,A,17.009881878136742,34.70640163609741,0.8504940939068371,0.5451668820625021,A,417.10250003961846,Correct,sub_007_day_12_data.csv,1,300,121.0,Training at home,,,,,,,,,,,,,
7,14,3028,A,47.94589032342739,57.28001937851954,2.3972945161713697,0.8997524403851898,A,576.8729579867795,Correct,sub_007_day_12_data.csv,1,300,121.0,Training at home,,,,,,,,,,,,,
7,14,3029,A,38.48169300397074,69.42353562054939,1.9240846501985371,1.0905023474587363,A,604.2971250135452,Correct,sub_007_day_12_data.csv,1,300,121.0,Training at home,,,,,,,,,,,,,
7,14,3030,B,83.82677369831245,60.98499564469879,4.191338684915622,0.9579500714829564,B,731.9728329894133,Correct,sub_007_day_12_data.csv,1,300,121.0,Training at home,,,,,,,,,,,,,
7,14,3031,A,49.3070607277212,62.58264506933186,2.46535303638606,0.9830458899601524,A,715.887832979206,Correct,sub_007_day_12_data.csv,1,300,121.0,Training at home,,,,,,,,,,,,,
7,14,3032,B,70.08862106246758,60.75705266369181,3.5044310531233793,0.9543695515101116,A,1789.4562499714084,Incorrect,sub_007_day_12_data.csv,0,300,121.0,Training at home,,,,,,,,,,,,,
7,14,3033,A,60.437129004777574,69.60994766837402,3.021856450238879,1.093430501058669,B,694.2482079612091,Incorrect,sub_007_day_12_data.csv,0,300,121.0,Training at home,,,,,,,,,,,,,
7,14,3034,B,83.95356827045579,66.20821715655501,4.197678413522789,1.0399962431315546,B,571.7753749922849,Correct,sub_007_day_12_data.csv,1,300,121.0,Training at home,,,,,,,,,,,,,
7,14,3035,A,44.573633342902745,63.518017551719694,2.2286816671451373,0.9977386865553506,A,604.6944159897976,Correct,sub_007_day_12_data.csv,1,300,121.0,Training at home,,,,,,,,,,,,,
7,14,3036,A,46.17069052570696,74.78540791607907,2.308534526285348,1.1747264405243496,A,734.3036659876816,Correct,sub_007_day_12_data.csv,1,300,121.0,Training at home,,,,,,,,,,,,,
7,14,3037,A,41.24585531302499,60.595778860424176,2.0622927656512497,0.9518362685323014,A,682.3317909729667,Correct,sub_007_day_12_data.csv,1,300,121.0,Training at home,,,,,,,,,,,,,
7,14,3038,B,43.18644071830791,22.21854493685653,2.159322035915395,0.3490080877354158,B,945.1550000230782,Correct,sub_007_day_12_data.csv,1,300,121.0,Training at home,,,,,,,,,,,,,
7,14,3039,B,73.9303733688808,56.51828938385259,3.69651866844404,0.8877872136088663,B,625.1333330292255,Correct,sub_007_day_12_data.csv,1,300,121.0,Training at home,,,,,,,,,,,,,
7,14,3040,B,68.81895576556572,51.12462330369992,3.4409477882782857,0.803063704942246,B,651.5744989737868,Correct,sub_007_day_12_data.csv,1,300,121.0,Training at home,,,,,,,,,,,,,
7,14,3041,A,38.240739830272574,65.77105226206982,1.9120369915136288,1.0331292730269446,A,726.973541022744,Correct,sub_007_day_12_data.csv,1,300,121.0,Training at home,,,,,,,,,,,,,
7,14,3042,B,70.85167470452882,52.39233093878108,3.542583735226441,0.8229768099085992,B,1210.797248990275,Correct,sub_007_day_12_data.csv,1,300,121.0,Training at home,,,,,,,,,,,,,
7,14,3043,A,43.118152058727134,57.903685221470326,2.155907602936357,0.9095489605377352,A,1406.4693750115111,Correct,sub_007_day_12_data.csv,1,300,121.0,Training at home,,,,,,,,,,,,,
7,14,3044,A,46.81643954692895,55.2827169036469,2.3408219773464474,0.8683788864749068,A,937.4711660202591,Correct,sub_007_day_12_data.csv,1,300,121.0,Training at home,,,,,,,,,,,,,
7,14,3045,A,52.42602821754623,78.64738899368032,2.6213014108773116,1.235390297432824,A,611.1151660443284,Correct,sub_007_day_12_data.csv,1,300,121.0,Training at home,,,,,,,,,,,,,
7,14,3046,B,51.88798673074445,24.717306893097437,2.5943993365372227,0.3882585487593963,B,630.8410410420038,Correct,sub_007_day_12_data.csv,1,300,121.0,Training at home,,,,,,,,,,,,,
7,14,3047,B,48.61242801861189,23.96058527414286,2.4306214009305944,0.376371993364795,B,768.1198330246843,Correct,sub_007_day_12_data.csv,1,300,121.0,Training at home,,,,,,,,,,,,,
7,14,3048,B,82.80250950359651,65.00367781588628,4.1401254751798255,1.0210753834135309,B,1699.0584580344148,Correct,sub_007_day_12_data.csv,1,300,121.0,Training at home,,,,,,,,,,,,,
7,14,3049,B,65.8029101376766,53.954957865652005,3.29014550688383,0.8475224962773958,B,488.83033299352974,Correct,sub_007_day_12_data.csv,1,300,121.0,Training at home,,,,,,,,,,,,,
7,14,3050,B,45.18461883545954,22.16900666022532,2.259230941772977,0.3482299423057352,B,942.2029160195962,Correct,sub_007_day_12_data.csv,1,300,122.0,Training at home,,,,,,,,,,,,,
7,14,3051,A,42.37931679017906,53.19130639045065,2.1189658395089532,0.8355270869554179,A,1509.1229989775456,Correct,sub_007_day_12_data.csv,1,300,122.0,Training at home,,,,,,,,,,,,,
7,14,3052,A,46.166426540646675,53.78786305036399,2.308321327032334,0.8448977770565871,A,1747.2649159608409,Correct,sub_007_day_12_data.csv,1,300,122.0,Training at home,,,,,,,,,,,,,
7,14,3053,A,63.46424058041285,75.74077611653814,3.1732120290206423,1.1897333291245271,A,1276.0851240018385,Correct,sub_007_day_12_data.csv,1,300,122.0,Training at home,,,,,,,,,,,,,
7,14,3054,B,68.08862193227966,43.78364446993652,3.4044310966139837,0.6877518790706998,B,1269.3381250137463,Correct,sub_007_day_12_data.csv,1,300,122.0,Training at home,,,,,,,,,,,,,
7,14,3055,A,22.352171299690973,50.66707777464224,1.1176085649845486,0.7958765965783936,A,903.8676250493154,Correct,sub_007_day_12_data.csv,1,300,122.0,Training at home,,,,,,,,,,,,,
7,14,3056,B,45.959974304418616,20.36915077466493,2.2979987152209307,0.3199578721677509,A,3919.8834580020048,Incorrect,sub_007_day_12_data.csv,0,300,122.0,Training at home,,,,,,,,,,,,,
7,14,3057,B,65.2418998874998,51.45456634833342,3.26209499437499,0.8082464381678645,B,1197.9202500078827,Correct,sub_007_day_12_data.csv,1,300,122.0,Training at home,,,,,,,,,,,,,
7,14,3058,A,15.899050851736645,32.189888414981965,0.7949525425868322,0.5056375848219126,A,669.2202500416897,Correct,sub_007_day_12_data.csv,1,300,122.0,Training at home,,,,,,,,,,,,,
7,14,3059,B,67.38174340108118,46.46151254810816,3.3690871700540588,0.7298157324790329,B,961.5501660155132,Correct,sub_007_day_12_data.csv,1,300,122.0,Training at home,,,,,,,,,,,,,
7,14,3060,B,73.18235754061007,56.73335041858287,3.659117877030503,0.8911653844427769,B,773.2590829837136,Correct,sub_007_day_12_data.csv,1,300,122.0,Training at home,,,,,,,,,,,,,
7,14,3061,B,41.57914731284791,30.982097981787348,2.0789573656423954,0.4866656570619114,B,1337.5177079578862,Correct,sub_007_day_12_data.csv,1,300,122.0,Training at home,,,,,,,,,,,,,
7,14,3062,A,31.437804343308265,48.88861273261889,1.5718902171654134,0.7679405330249596,A,612.1969579835422,Correct,sub_007_day_12_data.csv,1,300,122.0,Training at home,,,,,,,,,,,,,
7,14,3063,A,29.276126084915635,43.65605639666305,1.4638063042457818,0.6857477303022915,A,1862.7165000070815,Correct,sub_007_day_12_data.csv,1,300,122.0,Training at home,,,,,,,,,,,,,
7,14,3064,B,42.1424915284933,27.660115426051952,2.107124576424665,0.4344840770996526,B,1137.4272909597494,Correct,sub_007_day_12_data.csv,1,300,122.0,Training at home,,,,,,,,,,,,,
7,14,3065,B,82.50095846990826,60.817413681143975,4.125047923495413,0.9553177001550666,B,1253.0319989891725,Correct,sub_007_day_12_data.csv,1,300,122.0,Training at home,,,,,,,,,,,,,
7,14,3066,A,50.61338140233518,70.24749233680107,2.5306690701167587,1.1034450292919975,A,1137.535207963083,Correct,sub_007_day_12_data.csv,1,300,122.0,Training at home,,,,,,,,,,,,,
7,14,3067,B,78.61967931767491,66.59362747217901,3.9309839658837458,1.0460502542124648,B,1314.2233740072695,Correct,sub_007_day_12_data.csv,1,300,122.0,Training at home,,,,,,,,,,,,,
7,14,3068,B,72.9864014348711,46.433332535432584,3.6493200717435545,0.7293730818750346,B,1655.3995829890482,Correct,sub_007_day_12_data.csv,1,300,122.0,Training at home,,,,,,,,,,,,,
7,14,3069,A,65.05591824582258,79.71796416816454,3.2527959122911287,1.2522068529492003,A,1308.9240829576738,Correct,sub_007_day_12_data.csv,1,300,122.0,Training at home,,,,,,,,,,,,,
7,14,3070,B,58.83028169423822,34.06765555530689,2.9415140847119106,0.5351334820878982,B,1042.8232499980368,Correct,sub_007_day_12_data.csv,1,300,122.0,Training at home,,,,,,,,,,,,,
7,14,3071,A,65.44916050212811,80.2312904491668,3.2724580251064053,1.2602701633156568,A,1051.6323329648003,Correct,sub_007_day_12_data.csv,1,300,122.0,Training at home,,,,,,,,,,,,,
7,14,3072,A,38.323658108867185,50.11279060321147,1.9161829054433597,0.7871698740496639,A,2393.41100002639,Correct,sub_007_day_12_data.csv,1,300,122.0,Training at home,,,,,,,,,,,,,
7,14,3073,B,74.72862588557557,58.814210766917,3.7364312942787783,0.9238514623601408,B,1115.4836670029908,Correct,sub_007_day_12_data.csv,1,300,122.0,Training at home,,,,,,,,,,,,,
7,14,3074,B,70.88845800601466,45.064117473505576,3.544422900300733,0.7078655019763628,B,1809.977248951327,Correct,sub_007_day_12_data.csv,1,300,122.0,Training at home,,,,,,,,,,,,,
7,14,3075,B,43.999519832774126,26.494507168403334,2.1999759916387065,0.4161747454036902,B,1495.1028740033507,Correct,sub_007_day_12_data.csv,1,300,123.0,Training at home,,,,,,,,,,,,,
7,14,3076,A,50.48861247530559,61.07880815473562,2.524430623765279,0.9594236749446888,A,1334.4961249968037,Correct,sub_007_day_12_data.csv,1,300,123.0,Training at home,,,,,,,,,,,,,
7,14,3077,A,38.04637045270254,69.73649079925683,1.9023185226351271,1.0954182359103872,A,671.4943329570815,Correct,sub_007_day_12_data.csv,1,300,123.0,Training at home,,,,,,,,,,,,,
7,14,3078,A,56.002639420052304,64.76818911210611,2.8001319710026156,1.0173763355045349,A,772.3976249690168,Correct,sub_007_day_12_data.csv,1,300,123.0,Training at home,,,,,,,,,,,,,
7,14,3079,B,59.527777081539455,30.67185733620992,2.9763888540769727,0.4817924083969564,B,1274.482708016876,Correct,sub_007_day_12_data.csv,1,300,123.0,Training at home,,,,,,,,,,,,,
7,14,3080,B,66.05042483847512,48.99553459578894,3.302521241923756,0.7696200577241755,B,2097.2944170353003,Correct,sub_007_day_12_data.csv,1,300,123.0,Training at home,,,,,,,,,,,,,
7,14,3081,B,58.53112164399356,43.90420829676401,2.926556082199678,0.6896456912339493,B,898.6427080235444,Correct,sub_007_day_12_data.csv,1,300,123.0,Training at home,,,,,,,,,,,,,
7,14,3082,B,45.68830489534062,38.08880197819466,2.284415244767031,0.5982975023936635,B,565.1933330227621,Correct,sub_007_day_12_data.csv,1,300,123.0,Training at home,,,,,,,,,,,,,
7,14,3083,A,63.50658187733387,89.27648984539735,3.1753290938666936,1.4023518231829206,A,1246.780832996592,Correct,sub_007_day_12_data.csv,1,300,123.0,Training at home,,,,,,,,,,,,,
7,14,3084,B,73.34299084143359,57.96439611397692,3.6671495420716793,0.9105026050071932,B,1705.630416981876,Correct,sub_007_day_12_data.csv,1,300,123.0,Training at home,,,,,,,,,,,,,
7,14,3085,A,54.07013377319903,83.07237220626584,2.7035066886599513,1.3048977711974084,A,1477.213833015412,Correct,sub_007_day_12_data.csv,1,300,123.0,Training at home,,,,,,,,,,,,,
7,14,3086,A,62.89426731243606,80.44406654613054,3.144713365621803,1.2636124424310606,A,1497.5407909951173,Correct,sub_007_day_12_data.csv,1,300,123.0,Training at home,,,,,,,,,,,,,
7,14,3087,B,36.8365294225015,18.144489878430473,1.841826471125075,0.2850129805260576,B,1480.7267489959486,Correct,sub_007_day_12_data.csv,1,300,123.0,Training at home,,,,,,,,,,,,,
7,14,3088,A,44.935189195890025,72.21998566024584,2.246759459794501,1.134428881962943,A,736.1773329903372,Correct,sub_007_day_12_data.csv,1,300,123.0,Training at home,,,,,,,,,,,,,
7,14,3089,B,64.35177580292797,55.22015046760521,3.217588790146399,0.8673960951957574,B,969.8762079933658,Correct,sub_007_day_12_data.csv,1,300,123.0,Training at home,,,,,,,,,,,,,
7,14,3090,A,38.36868067398609,47.203974202531825,1.9184340336993049,0.7414782928745804,A,2002.2118740016597,Correct,sub_007_day_12_data.csv,1,300,123.0,Training at home,,,,,,,,,,,,,
7,14,3091,B,51.5989640692195,26.401291183348754,2.579948203460974,0.4147105121344671,B,902.3440409800968,Correct,sub_007_day_12_data.csv,1,300,123.0,Training at home,,,,,,,,,,,,,
7,14,3092,B,38.56873606192433,20.12012533537179,1.928436803096216,0.3160461897145494,B,860.5646250071004,Correct,sub_007_day_12_data.csv,1,300,123.0,Training at home,,,,,,,,,,,,,
7,14,3093,B,46.37168422628375,17.95458358704029,2.3185842113141875,0.2820299394765482,B,2001.0519580100663,Correct,sub_007_day_12_data.csv,1,300,123.0,Training at home,,,,,,,,,,,,,
7,14,3094,B,72.91135317859785,60.879681544422816,3.645567658929892,0.956295801464224,B,1624.7481249738485,Correct,sub_007_day_12_data.csv,1,300,123.0,Training at home,,,,,,,,,,,,,
7,14,3095,B,59.107108615217456,30.35005350971168,2.9553554307608727,0.4767375257108366,B,1318.5206670314074,Correct,sub_007_day_12_data.csv,1,300,123.0,Training at home,,,,,,,,,,,,,
7,14,3096,B,86.08732715993806,68.01593860879912,4.304366357996903,1.0683918653020883,B,1235.3857489652,Correct,sub_007_day_12_data.csv,1,300,123.0,Training at home,,,,,,,,,,,,,
7,14,3097,A,42.86011631455277,55.798358058628715,2.143005815727639,0.8764785587968039,A,1260.079248982947,Correct,sub_007_day_12_data.csv,1,300,123.0,Training at home,,,,,,,,,,,,,
7,14,3098,A,17.348498244496195,31.90901712698826,0.8674249122248098,0.501225668947086,A,641.1646240158007,Correct,sub_007_day_12_data.csv,1,300,123.0,Training at home,,,,,,,,,,,,,
7,14,3099,A,60.458276105765194,82.78493702184069,3.02291380528826,1.300382749878542,B,1611.0033330041915,Incorrect,sub_007_day_12_data.csv,0,300,123.0,Training at home,,,,,,,,,,,,,
7,14,3100,B,76.22930500356671,63.43949936198393,3.811465250178335,0.9965053257151152,B,2798.629291995894,Correct,sub_007_day_12_data.csv,1,300,124.0,Training at home,,,,,,,,,,,,,
7,14,3101,A,39.98968631823331,52.38229392892402,1.9994843159116655,0.8228191489264447,A,3406.006333010737,Correct,sub_007_day_12_data.csv,1,300,124.0,Training at home,,,,,,,,,,,,,
7,14,3102,B,58.289202314882694,36.34924495379942,2.9144601157441348,0.5709726045519606,B,993.757624994032,Correct,sub_007_day_12_data.csv,1,300,124.0,Training at home,,,,,,,,,,,,,
7,14,3103,A,34.472053743104794,48.326256151845826,1.7236026871552397,0.7591070565106869,A,1113.0309990257956,Correct,sub_007_day_12_data.csv,1,300,124.0,Training at home,,,,,,,,,,,,,
7,14,3104,A,25.21676683730105,43.89865959178461,1.2608383418650526,0.6895585323799481,A,666.8494580080733,Correct,sub_007_day_12_data.csv,1,300,124.0,Training at home,,,,,,,,,,,,,
7,14,3105,A,53.36669232999162,83.10311005409471,2.668334616499581,1.3053806001820405,A,2634.690332983155,Correct,sub_007_day_12_data.csv,1,300,124.0,Training at home,,,,,,,,,,,,,
7,14,3106,B,88.5406974962604,64.16327911988876,4.42703487481302,1.0078744315663697,B,1064.8120410041884,Correct,sub_007_day_12_data.csv,1,300,124.0,Training at home,,,,,,,,,,,,,
7,14,3107,A,23.377765019004585,44.441898853367576,1.1688882509502292,0.6980917147466013,A,1730.1525410148315,Correct,sub_007_day_12_data.csv,1,300,124.0,Training at home,,,,,,,,,,,,,
7,14,3108,A,41.80229499788876,69.1656244386374,2.090114749894438,1.0864510880868694,A,1816.652791982051,Correct,sub_007_day_12_data.csv,1,300,124.0,Training at home,,,,,,,,,,,,,
7,14,3109,B,83.69172722752575,68.23552217595667,4.1845863613762875,1.0718410759092445,B,788.1101249950007,Correct,sub_007_day_12_data.csv,1,300,124.0,Training at home,,,,,,,,,,,,,
7,14,3110,A,20.79225091196011,46.47642525407914,1.0396125455980054,0.7300499807166507,A,562.5272499746643,Correct,sub_007_day_12_data.csv,1,300,124.0,Training at home,,,,,,,,,,,,,
7,14,3111,A,37.22489798679125,50.14883064163375,1.8612448993395625,0.7877359896493764,A,1633.0694579519331,Correct,sub_007_day_12_data.csv,1,300,124.0,Training at home,,,,,,,,,,,,,
7,14,3112,B,69.51304213378799,50.36561934757027,3.4756521066893993,0.7911412986791333,B,1190.6885829521343,Correct,sub_007_day_12_data.csv,1,300,124.0,Training at home,,,,,,,,,,,,,
7,14,3113,B,60.18261573393637,47.09371701857105,3.0091307866968187,0.7397463770788971,B,2266.402998997364,Correct,sub_007_day_12_data.csv,1,300,124.0,Training at home,,,,,,,,,,,,,
7,14,3114,A,59.93125094794953,68.59972181451573,2.996562547397476,1.0775619104539305,B,2663.6457500280812,Incorrect,sub_007_day_12_data.csv,0,300,124.0,Training at home,,,,,,,,,,,,,
7,14,3115,B,73.48124703666309,50.08346898285595,3.674062351833155,0.7867092911141628,B,1263.9315419946795,Correct,sub_007_day_12_data.csv,1,300,124.0,Training at home,,,,,,,,,,,,,
7,14,3116,A,22.10813562157896,53.8680371411743,1.105406781078948,0.8461571487300765,A,541.2268330110237,Correct,sub_007_day_12_data.csv,1,300,124.0,Training at home,,,,,,,,,,,,,
7,14,3117,A,10.845655107890906,35.111066805381306,0.5422827553945453,0.5515233476774317,A,814.4695420050994,Correct,sub_007_day_12_data.csv,1,300,124.0,Training at home,,,,,,,,,,,,,
7,14,3118,A,58.056908670786,84.47858990623557,2.9028454335393,1.3269865871752724,A,845.9660420194268,Correct,sub_007_day_12_data.csv,1,300,124.0,Training at home,,,,,,,,,,,,,
7,14,3119,B,36.08443112298439,16.35021974982634,1.8042215561492196,0.2568286512531659,B,908.8086249539627,Correct,sub_007_day_12_data.csv,1,300,124.0,Training at home,,,,,,,,,,,,,
7,14,3120,B,89.2492695228481,65.97403142367618,4.462463476142404,1.036317662241616,B,1351.6037910012528,Correct,sub_007_day_12_data.csv,1,300,124.0,Training at home,,,,,,,,,,,,,
7,14,3121,A,43.09669456378089,56.90687131443726,2.1548347281890448,0.8938910443010791,A,1109.0357920038514,Correct,sub_007_day_12_data.csv,1,300,124.0,Training at home,,,,,,,,,,,,,
7,14,3122,A,41.322985373853975,71.6646815196951,2.066149268692699,1.1257061849206316,A,1236.831207992509,Correct,sub_007_day_12_data.csv,1,300,124.0,Training at home,,,,,,,,,,,,,
7,14,3123,B,52.230919292644714,23.489444816056313,2.611545964632236,0.3689713363551268,B,786.8487910018303,Correct,sub_007_day_12_data.csv,1,300,124.0,Training at home,,,,,,,,,,,,,
7,14,3124,B,72.3942580638951,52.33038213445691,3.619712903194755,0.822003720365782,B,756.0532500501722,Correct,sub_007_day_12_data.csv,1,300,124.0,Training at home,,,,,,,,,,,,,
7,14,3125,A,21.558685055397508,42.75172188269931,1.0779342527698754,0.6715424769750108,A,592.8220410132781,Correct,sub_007_day_12_data.csv,1,300,125.0,Training at home,,,,,,,,,,,,,
7,14,3126,A,32.15695312121906,42.98995843382029,1.6078476560609531,0.6752846879691019,A,1208.8367079850286,Correct,sub_007_day_12_data.csv,1,300,125.0,Training at home,,,,,,,,,,,,,
7,14,3127,B,73.27742231758961,60.03691152872464,3.663871115879481,0.9430576010143084,B,772.0752080203965,Correct,sub_007_day_12_data.csv,1,300,125.0,Training at home,,,,,,,,,,,,,
7,14,3128,B,35.82947049430234,12.523831334425598,1.791473524715117,0.1967238825751455,B,1395.107582968194,Correct,sub_007_day_12_data.csv,1,300,125.0,Training at home,,,,,,,,,,,,,
7,14,3129,B,80.0379168596932,57.049577339837995,4.00189584298466,0.8961326653061888,B,562.3410410480574,Correct,sub_007_day_12_data.csv,1,300,125.0,Training at home,,,,,,,,,,,,,
7,14,3130,A,46.02345448360233,76.44870855158115,2.3011727241801165,1.2008535058103726,A,2090.9887499874458,Correct,sub_007_day_12_data.csv,1,300,125.0,Training at home,,,,,,,,,,,,,
7,14,3131,B,70.69907200891954,42.926621903172766,3.534953600445977,0.6742898000721714,B,988.2018740172498,Correct,sub_007_day_12_data.csv,1,300,125.0,Training at home,,,,,,,,,,,,,
7,14,3132,B,84.10573398586232,54.26516898151475,4.205286699293116,0.8523952810906773,B,2726.926499977708,Correct,sub_007_day_12_data.csv,1,300,125.0,Training at home,,,,,,,,,,,,,
7,14,3133,A,46.70974473087568,74.81410987355291,2.335487236543784,1.175177289818067,A,3225.5998739856295,Correct,sub_007_day_12_data.csv,1,300,125.0,Training at home,,,,,,,,,,,,,
7,14,3134,B,55.75828636830342,45.228905761598085,2.7879143184151713,0.7104539903527081,B,3232.523249986116,Correct,sub_007_day_12_data.csv,1,300,125.0,Training at home,,,,,,,,,,,,,
7,14,3135,B,51.74211153398376,35.319580193028735,2.5871055766991877,0.5547986683114732,B,3148.3205829863437,Correct,sub_007_day_12_data.csv,1,300,125.0,Training at home,,,,,,,,,,,,,
7,14,3136,A,24.395788794523646,49.18583854141273,1.219789439726182,0.7726093451117796,A,1590.8416660386138,Correct,sub_007_day_12_data.csv,1,300,125.0,Training at home,,,,,,,,,,,,,
7,14,3137,B,75.84250721374043,52.07576483462988,3.7921253606870216,0.8180042011727147,B,631.1807080055587,Correct,sub_007_day_12_data.csv,1,300,125.0,Training at home,,,,,,,,,,,,,
7,14,3138,B,88.18535132864271,64.62042106078347,4.409267566432136,1.0150552003821824,B,919.9921670369804,Correct,sub_007_day_12_data.csv,1,300,125.0,Training at home,,,,,,,,,,,,,
7,14,3139,A,44.35498001802702,54.81377304329641,2.217749000901351,0.8610127335417911,A,1932.7525830012744,Correct,sub_007_day_12_data.csv,1,300,125.0,Training at home,,,,,,,,,,,,,
7,14,3140,B,80.8750182110944,58.88558511561338,4.04375091055472,0.9249726080077374,B,1481.5702500054613,Correct,sub_007_day_12_data.csv,1,300,125.0,Training at home,,,,,,,,,,,,,
7,14,3141,B,72.83717471314418,45.81070781853016,3.641858735657209,0.7195929156922143,B,2854.7336669871584,Correct,sub_007_day_12_data.csv,1,300,125.0,Training at home,,,,,,,,,,,,,
7,14,3142,B,83.03222857528888,58.976217492137366,4.1516114287644434,0.9263962580490628,B,1702.7878750232048,Correct,sub_007_day_12_data.csv,1,300,125.0,Training at home,,,,,,,,,,,,,
7,14,3143,B,74.91891632390617,53.981844162325416,3.745945816195309,0.8479448252379528,B,3428.172582993284,Correct,sub_007_day_12_data.csv,1,300,125.0,Training at home,,,,,,,,,,,,,
7,14,3144,A,52.66625379848978,73.36486695009152,2.6333126899244887,1.1524126352100006,A,2303.3677919884212,Correct,sub_007_day_12_data.csv,1,300,125.0,Training at home,,,,,,,,,,,,,
7,14,3145,A,56.53987344355568,71.49576295031949,2.826993672177784,1.1230528182376052,A,1154.4843739829955,Correct,sub_007_day_12_data.csv,1,300,125.0,Training at home,,,,,,,,,,,,,
7,14,3146,A,57.32582448455291,83.59668833273787,2.8662912242276457,1.3131337096528244,A,964.1180420294404,Correct,sub_007_day_12_data.csv,1,300,125.0,Training at home,,,,,,,,,,,,,
7,14,3147,A,59.76752261408727,73.69851886854676,2.9883761307043635,1.1576536272893765,A,2115.969208010938,Correct,sub_007_day_12_data.csv,1,300,125.0,Training at home,,,,,,,,,,,,,
7,14,3148,B,51.44434526636812,22.334074501297028,2.572217263318406,0.3508228218900093,B,1567.5809579552151,Correct,sub_007_day_12_data.csv,1,300,125.0,Training at home,,,,,,,,,,,,,
7,14,3149,A,44.83373380116251,65.00771102228099,2.241686690058126,1.0211387368714309,A,1872.4244160111991,Correct,sub_007_day_12_data.csv,1,300,125.0,Training at home,,,,,,,,,,,,,
7,14,3150,B,77.76556659146225,48.990183427223656,3.888278329573112,0.7695360017649114,B,1052.1887500071898,Correct,sub_007_day_12_data.csv,1,300,126.0,Training at home,,,,,,,,,,,,,
7,14,3151,A,11.877165894581587,31.21037873305884,0.5938582947290794,0.4902514827176638,A,955.8626239886509,Correct,sub_007_day_12_data.csv,1,300,126.0,Training at home,,,,,,,,,,,,,
7,14,3152,A,58.949332395734245,79.9116867189291,2.947466619786712,1.2552498396607836,A,1167.53570799483,Correct,sub_007_day_12_data.csv,1,300,126.0,Training at home,,,,,,,,,,,,,
7,14,3153,B,55.36711148297724,44.49175132922391,2.7683555741488624,0.6988747956061687,B,2504.1097910143435,Correct,sub_007_day_12_data.csv,1,300,126.0,Training at home,,,,,,,,,,,,,
7,14,3154,A,45.637860357091874,61.54317637900049,2.281893017854594,0.9667179539542442,B,2689.8630000068806,Incorrect,sub_007_day_12_data.csv,0,300,126.0,Training at home,,,,,,,,,,,,,
7,14,3155,B,60.307002589488874,39.509773451012194,3.015350129474444,0.6206180700934847,B,2350.974957982544,Correct,sub_007_day_12_data.csv,1,300,126.0,Training at home,,,,,,,,,,,,,
7,14,3156,A,38.77773375401019,53.82642150662896,1.9388866877005095,0.8455034518712659,A,1492.9405830334872,Correct,sub_007_day_12_data.csv,1,300,126.0,Training at home,,,,,,,,,,,,,
7,14,3157,B,71.96812492570822,56.38688282020499,3.5984062462854114,0.8857230841339226,B,1978.3214579802009,Correct,sub_007_day_12_data.csv,1,300,126.0,Training at home,,,,,,,,,,,,,
7,14,3158,A,38.99089166535715,68.0307086042193,1.9495445832678573,1.0686238718476164,A,1222.1157909953035,Correct,sub_007_day_12_data.csv,1,300,126.0,Training at home,,,,,,,,,,,,,
7,14,3159,A,21.89032094677547,34.75324618566051,1.0945160473387736,0.5459027145263428,A,1342.2882499871776,Correct,sub_007_day_12_data.csv,1,300,126.0,Training at home,,,,,,,,,,,,,
7,14,3160,B,42.06928335508725,13.942687597586804,2.103464167754362,0.2190112246393811,B,1021.560248977039,Correct,sub_007_day_12_data.csv,1,300,126.0,Training at home,,,,,,,,,,,,,
7,14,3161,B,52.72714676771922,31.11168042206448,2.636357338385961,0.4887011332739558,B,1679.7594579984434,Correct,sub_007_day_12_data.csv,1,300,126.0,Training at home,,,,,,,,,,,,,
7,14,3162,A,34.140873633858234,62.65063836537822,1.7070436816929118,0.9841139261569154,A,2287.279208016116,Correct,sub_007_day_12_data.csv,1,300,126.0,Training at home,,,,,,,,,,,,,
7,14,3163,A,45.6776382165971,73.81230563248312,2.283881910829855,1.1594409855976673,A,2448.2243329985067,Correct,sub_007_day_12_data.csv,1,300,126.0,Training at home,,,,,,,,,,,,,
7,14,3164,A,41.57560633783787,51.931481706734985,2.0787803168918937,0.8157378070995569,A,2219.209373986814,Correct,sub_007_day_12_data.csv,1,300,126.0,Training at home,,,,,,,,,,,,,
7,14,3165,B,36.782412380913954,17.088898058869965,1.839120619045698,0.2684317829984537,B,4332.583249954041,Correct,sub_007_day_12_data.csv,1,300,126.0,Training at home,,,,,,,,,,,,,
7,14,3166,A,50.37943211516384,77.67545942616519,2.518971605758192,1.220123263487263,A,2977.48058300931,Correct,sub_007_day_12_data.csv,1,300,126.0,Training at home,,,,,,,,,,,,,
7,14,3167,A,13.857286656021929,39.40115590797886,0.6928643328010964,0.6189119097172623,A,1942.4911660025828,Correct,sub_007_day_12_data.csv,1,300,126.0,Training at home,,,,,,,,,,,,,
7,14,3168,A,29.705040403886827,38.57320996276184,1.485252020194341,0.6059065652219461,A,2511.172832979355,Correct,sub_007_day_12_data.csv,1,300,126.0,Training at home,,,,,,,,,,,,,
7,14,3169,A,27.66220848609715,53.57637363878064,1.383110424304857,0.8415757091478756,A,639.5198330283165,Correct,sub_007_day_12_data.csv,1,300,126.0,Training at home,,,,,,,,,,,,,
7,14,3170,B,82.58942309768008,55.42674297625463,4.129471154884004,0.8706412427330559,B,2462.53625000827,Correct,sub_007_day_12_data.csv,1,300,126.0,Training at home,,,,,,,,,,,,,
7,14,3171,B,47.44838831596807,39.43941169714843,2.372419415798403,0.6195128302483243,B,2078.408791974653,Correct,sub_007_day_12_data.csv,1,300,126.0,Training at home,,,,,,,,,,,,,
7,14,3172,A,46.798354968780515,76.35406767249349,2.339917748439026,1.1993668903580172,A,3829.746500006877,Correct,sub_007_day_12_data.csv,1,300,126.0,Training at home,,,,,,,,,,,,,
7,14,3173,B,60.628864081699085,31.632605495519776,3.0314432040849546,0.4968838051931453,B,4081.5187499974854,Correct,sub_007_day_12_data.csv,1,300,126.0,Training at home,,,,,,,,,,,,,
7,14,3174,B,53.77800549309883,41.68742442975991,2.6889002746549413,0.654824531678067,B,2398.555082967505,Correct,sub_007_day_12_data.csv,1,300,126.0,Training at home,,,,,,,,,,,,,
7,14,3175,B,67.04739377684866,50.078819253600514,3.3523696888424332,0.7866362533378123,B,2313.897707965225,Correct,sub_007_day_12_data.csv,1,300,127.0,Training at home,,,,,,,,,,,,,
7,14,3176,B,49.25211583429298,29.5987081550212,2.462605791714649,0.4649354204778145,B,2144.85100004822,Correct,sub_007_day_12_data.csv,1,300,127.0,Training at home,,,,,,,,,,,,,
7,14,3177,B,72.54286601965458,53.84663191319345,3.627143300982729,0.8458209161952113,B,2498.382124991622,Correct,sub_007_day_12_data.csv,1,300,127.0,Training at home,,,,,,,,,,,,,
7,14,3178,A,35.01115783159912,65.29846086871044,1.750557891579956,1.0257058247793065,B,2124.7735409997404,Incorrect,sub_007_day_12_data.csv,0,300,127.0,Training at home,,,,,,,,,,,,,
7,14,3179,B,46.03406136597315,35.16295421468289,2.3017030682986577,0.5523383931968101,B,2604.2852079845034,Correct,sub_007_day_12_data.csv,1,300,127.0,Training at home,,,,,,,,,,,,,
7,14,3180,B,43.7883258600001,34.357828625314205,2.189416293000005,0.539691510012921,B,2430.9382080100477,Correct,sub_007_day_12_data.csv,1,300,127.0,Training at home,,,,,,,,,,,,,
7,14,3181,B,59.41618773097742,30.178625743520737,2.970809386548871,0.4740447446564028,B,1618.3976249885743,Correct,sub_007_day_12_data.csv,1,300,127.0,Training at home,,,,,,,,,,,,,
7,14,3182,A,59.28541174751807,82.84868428975699,2.964270587375903,1.3013840896214033,A,3074.4352499605156,Correct,sub_007_day_12_data.csv,1,300,127.0,Training at home,,,,,,,,,,,,,
7,14,3183,A,39.62275794557832,66.14378640928412,1.981137897278916,1.0389841673200968,A,1084.727333043702,Correct,sub_007_day_12_data.csv,1,300,127.0,Training at home,,,,,,,,,,,,,
7,14,3184,B,59.76731956832156,44.880317904475966,2.988365978416078,0.7049783850973809,B,1774.6881670318544,Correct,sub_007_day_12_data.csv,1,300,127.0,Training at home,,,,,,,,,,,,,
7,14,3185,A,57.03517016539723,78.65669844349202,2.8517585082698615,1.2355365299285113,A,3439.2881660023704,Correct,sub_007_day_12_data.csv,1,300,127.0,Training at home,,,,,,,,,,,,,
7,14,3186,B,46.7460161118081,39.511715116603355,2.337300805590405,0.6206485697052694,B,1561.1629580380395,Correct,sub_007_day_12_data.csv,1,300,127.0,Training at home,,,,,,,,,,,,,
7,14,3187,B,74.22389187637823,52.82464441292693,3.7111945938189113,0.8297675740807217,B,2318.050707981456,Correct,sub_007_day_12_data.csv,1,300,127.0,Training at home,,,,,,,,,,,,,
7,14,3188,A,24.17543002115902,56.02468238996133,1.208771501057951,0.8800336530800196,A,1002.0239159930496,Correct,sub_007_day_12_data.csv,1,300,127.0,Training at home,,,,,,,,,,,,,
7,14,3189,A,28.593651267354957,54.72640334809776,1.429682563367748,0.8596403335788789,A,8081.725416996051,Correct,sub_007_day_12_data.csv,1,300,127.0,Training at home,,,,,,,,,,,,,
7,14,3190,B,61.648773078499936,43.96407163647829,3.082438653924997,0.6905860223752779,B,7544.313958031125,Correct,sub_007_day_12_data.csv,1,300,127.0,Training at home,,,,,,,,,,,,,
7,14,3191,B,39.62839327001305,27.388881614013712,1.9814196635006525,0.4302235463431302,B,2189.383083023131,Correct,sub_007_day_12_data.csv,1,300,127.0,Training at home,,,,,,,,,,,,,
7,14,3192,B,41.135819667819646,17.426351372074418,2.0567909833909823,0.273732487246917,B,2952.609541011043,Correct,sub_007_day_12_data.csv,1,300,127.0,Training at home,,,,,,,,,,,,,
7,14,3193,A,48.047274644235,63.854563336004425,2.40236373221175,1.003025135372878,A,2229.0916240308434,Correct,sub_007_day_12_data.csv,1,300,127.0,Training at home,,,,,,,,,,,,,
7,14,3194,B,36.65852609402353,18.05657534589991,1.8329263047011763,0.2836320222783486,B,2858.0695830169134,Correct,sub_007_day_12_data.csv,1,300,127.0,Training at home,,,,,,,,,,,,,
7,14,3195,B,76.15087771778168,55.0966247360784,3.807543885889084,0.865455757542288,B,6691.373791021761,Correct,sub_007_day_12_data.csv,1,300,127.0,Training at home,,,,,,,,,,,,,
7,14,3196,B,80.8581190906818,53.79359401363213,4.042905954534089,0.8449877988170929,B,926.045583037194,Correct,sub_007_day_12_data.csv,1,300,127.0,Training at home,,,,,,,,,,,,,
7,14,3197,A,16.691805297009818,40.400459780292394,0.8345902648504909,0.6346089382370824,A,703.1947910436429,Correct,sub_007_day_12_data.csv,1,300,127.0,Training at home,,,,,,,,,,,,,
7,14,3198,A,21.68094228906989,47.57883528058551,1.0840471144534944,0.7473665969192316,A,707.1975410217419,Correct,sub_007_day_12_data.csv,1,300,127.0,Training at home,,,,,,,,,,,,,
7,14,3199,B,70.25056772872264,38.9343328716963,3.5125283864361325,0.6115790706107035,B,757.1447909576818,Correct,sub_007_day_12_data.csv,1,300,127.0,Training at home,,,,,,,,,,,,,
7,14,3200,A,24.609631501444284,52.01393625584281,1.2304815750722142,0.8170330001282178,A,780.7477490277961,Correct,sub_007_day_12_data.csv,1,300,128.0,Training at home,,,,,,,,,,,,,
7,14,3201,A,16.04307346694938,36.59159596790802,0.802153673347469,0.5747794453795286,A,618.6903750058264,Correct,sub_007_day_12_data.csv,1,300,128.0,Training at home,,,,,,,,,,,,,
7,14,3202,A,28.034353455345467,47.02337982126085,1.401717672767273,0.7386415229671782,A,768.6537500121631,Correct,sub_007_day_12_data.csv,1,300,128.0,Training at home,,,,,,,,,,,,,
7,14,3203,B,57.25630260331475,33.49602455730967,2.862815130165737,0.5261543233685367,B,539.9067500256933,Correct,sub_007_day_12_data.csv,1,300,128.0,Training at home,,,,,,,,,,,,,
7,14,3204,A,21.842988754039755,51.00104011953732,1.0921494377019878,0.8011224648248838,A,395.89154202258214,Correct,sub_007_day_12_data.csv,1,300,128.0,Training at home,,,,,,,,,,,,,
7,14,3205,B,73.35473096645677,52.23836817813957,3.6677365483228384,0.8205583685198103,B,496.6943739564158,Correct,sub_007_day_12_data.csv,1,300,128.0,Training at home,,,,,,,,,,,,,
7,14,3206,A,43.40433729590925,65.19436530678787,2.1702168647954623,1.0240706955162702,A,442.86749995080754,Correct,sub_007_day_12_data.csv,1,300,128.0,Training at home,,,,,,,,,,,,,
7,14,3207,A,27.378484335956948,41.82521523832408,1.3689242167978477,0.656988944637654,A,510.73008304229006,Correct,sub_007_day_12_data.csv,1,300,128.0,Training at home,,,,,,,,,,,,,
7,14,3208,B,62.376152102688415,40.17297403794281,3.1188076051344207,0.631035600552273,B,647.6090410142206,Correct,sub_007_day_12_data.csv,1,300,128.0,Training at home,,,,,,,,,,,,,
7,14,3209,B,72.1263863298598,56.09220615085734,3.6063193164929896,0.8810943138358881,B,720.9681249805726,Correct,sub_007_day_12_data.csv,1,300,128.0,Training at home,,,,,,,,,,,,,
7,14,3210,B,60.31498447145503,50.52806477926781,3.015749223572751,0.7936929855532846,B,1723.43712503789,Correct,sub_007_day_12_data.csv,1,300,128.0,Training at home,,,,,,,,,,,,,
7,14,3211,B,45.20290253550496,32.99103499317521,2.260145126775248,0.5182219658444152,B,745.1848330092616,Correct,sub_007_day_12_data.csv,1,300,128.0,Training at home,,,,,,,,,,,,,
7,14,3212,A,42.58941317494291,69.86430743490001,2.1294706587471457,1.0974259749281032,A,655.6522499886341,Correct,sub_007_day_12_data.csv,1,300,128.0,Training at home,,,,,,,,,,,,,
7,14,3213,A,43.005964710943864,62.60305006812935,2.150298235547193,0.983366410931746,A,831.8921659956686,Correct,sub_007_day_12_data.csv,1,300,128.0,Training at home,,,,,,,,,,,,,
7,14,3214,A,55.275482193131715,81.09790700964246,2.7637741096565858,1.2738829444150046,A,792.446542007383,Correct,sub_007_day_12_data.csv,1,300,128.0,Training at home,,,,,,,,,,,,,
7,14,3215,A,45.47031296865889,66.04574151613078,2.2735156484329444,1.0374440817398345,A,939.6950409864075,Correct,sub_007_day_12_data.csv,1,300,128.0,Training at home,,,,,,,,,,,,,
7,14,3216,A,64.18523728468911,78.1492689015481,3.2092618642344553,1.227565845322584,A,1538.0022910539992,Correct,sub_007_day_12_data.csv,1,300,128.0,Training at home,,,,,,,,,,,,,
7,14,3217,A,28.930808523561048,40.93952145372634,1.4465404261780523,0.643076499202542,B,1091.802207985893,Incorrect,sub_007_day_12_data.csv,0,300,128.0,Training at home,,,,,,,,,,,,,
7,14,3218,A,29.43158631947969,38.87464047960805,1.4715793159739845,0.6106414247084051,A,880.5308329756372,Correct,sub_007_day_12_data.csv,1,300,128.0,Training at home,,,,,,,,,,,,,
7,14,3219,B,34.144231795058104,19.783673680520785,1.707211589752905,0.3107612194787091,B,586.8241669959389,Correct,sub_007_day_12_data.csv,1,300,128.0,Training at home,,,,,,,,,,,,,
7,14,3220,B,53.33427255442745,24.604977692901592,2.6667136277213723,0.3864940858088019,B,648.3195410110056,Correct,sub_007_day_12_data.csv,1,300,128.0,Training at home,,,,,,,,,,,,,
7,14,3221,B,52.80548854874031,39.00663853734777,2.6402744274370153,0.6127148453508213,B,1432.2538330452517,Correct,sub_007_day_12_data.csv,1,300,128.0,Training at home,,,,,,,,,,,,,
7,14,3222,A,52.3990688026837,72.73132898254521,2.619953440134185,1.1424610440869325,A,1511.0504160402345,Correct,sub_007_day_12_data.csv,1,300,128.0,Training at home,,,,,,,,,,,,,
7,14,3223,A,26.8105922325322,56.08018319887668,1.34052961162661,0.8809054577478037,A,677.600540977437,Correct,sub_007_day_12_data.csv,1,300,128.0,Training at home,,,,,,,,,,,,,
7,14,3224,B,66.62703137529562,47.399227653907246,3.3313515687647803,0.7445453269167258,B,703.335290949326,Correct,sub_007_day_12_data.csv,1,300,128.0,Training at home,,,,,,,,,,,,,
7,14,3225,B,74.35275722033138,52.23913251477482,3.7176378610165695,0.8205703746916013,B,769.8717910097912,Correct,sub_007_day_12_data.csv,1,300,129.0,Training at home,,,,,,,,,,,,,
7,14,3226,B,38.47080521276273,20.325640749712697,1.9235402606381364,0.3192744182940137,B,534.5979579724371,Correct,sub_007_day_12_data.csv,1,300,129.0,Training at home,,,,,,,,,,,,,
7,14,3227,B,70.72318005755008,39.209466942336135,3.5361590028775036,0.6159008664860752,B,913.9901660382748,Correct,sub_007_day_12_data.csv,1,300,129.0,Training at home,,,,,,,,,,,,,
7,14,3228,B,67.0837119403712,50.78970070388175,3.35418559701856,0.7978027530466963,B,1248.504667019006,Correct,sub_007_day_12_data.csv,1,300,129.0,Training at home,,,,,,,,,,,,,
7,14,3229,A,27.325539177947743,59.745998256990696,1.366276958897387,0.9384879460277528,A,823.2377500389703,Correct,sub_007_day_12_data.csv,1,300,129.0,Training at home,,,,,,,,,,,,,
7,14,3230,A,29.686199261425212,42.800892064353235,1.4843099630712606,0.672314840382309,A,401.5100419637747,Correct,sub_007_day_12_data.csv,1,300,129.0,Training at home,,,,,,,,,,,,,
7,14,3231,A,41.49738995547701,51.43810891859357,2.0748694977738507,0.8079879254660258,B,1981.8742910283615,Incorrect,sub_007_day_12_data.csv,0,300,129.0,Training at home,,,,,,,,,,,,,
7,14,3232,B,70.51967491596781,42.0408018105687,3.5259837457983907,0.6603753705955355,B,679.451500007417,Correct,sub_007_day_12_data.csv,1,300,129.0,Training at home,,,,,,,,,,,,,
7,14,3233,A,25.99858365839369,37.96239426509414,1.2999291829196846,0.5963118946794952,A,650.0543740112334,Correct,sub_007_day_12_data.csv,1,300,129.0,Training at home,,,,,,,,,,,,,
7,14,3234,A,48.7802012194434,56.46595422730144,2.43901006097217,0.8869651348921386,B,1483.9908739668315,Incorrect,sub_007_day_12_data.csv,0,300,129.0,Training at home,,,,,,,,,,,,,
7,14,3235,B,35.88532247737648,18.920435555620877,1.7942661238688238,0.2972015067212882,B,999.2163329734468,Correct,sub_007_day_12_data.csv,1,300,129.0,Training at home,,,,,,,,,,,,,
7,14,3236,A,45.80134201013939,74.6843076276292,2.2900671005069695,1.173138360907,A,1066.3650410133414,Correct,sub_007_day_12_data.csv,1,300,129.0,Training at home,,,,,,,,,,,,,
7,14,3237,B,82.9543174868604,63.087690998834994,4.14771587434302,0.9909791328694146,B,1519.745416007936,Correct,sub_007_day_12_data.csv,1,300,129.0,Training at home,,,,,,,,,,,,,
7,14,3238,A,57.377419065588185,82.7192954549655,2.8688709532794094,1.299351654557216,A,1255.9767079656012,Correct,sub_007_day_12_data.csv,1,300,129.0,Training at home,,,,,,,,,,,,,
7,14,3239,A,21.14236928276367,42.87104236119309,1.0571184641381834,0.6734167586683052,A,682.2960409917869,Correct,sub_007_day_12_data.csv,1,300,129.0,Training at home,,,,,,,,,,,,,
7,14,3240,A,34.14613857085192,51.506394617139904,1.707306928542596,0.809060554710518,A,876.1367910192348,Correct,sub_007_day_12_data.csv,1,300,129.0,Training at home,,,,,,,,,,,,,
7,14,3241,A,36.59012521170497,60.68526850783229,1.8295062605852488,0.9532419686266498,A,857.8808739548549,Correct,sub_007_day_12_data.csv,1,300,129.0,Training at home,,,,,,,,,,,,,
7,14,3242,B,88.7542807664057,63.23013693383162,4.437714038320285,0.9932166683840103,B,977.5728329550476,Correct,sub_007_day_12_data.csv,1,300,129.0,Training at home,,,,,,,,,,,,,
7,14,3243,A,30.353830181357576,52.637392191223675,1.5176915090678786,0.8268262230603652,A,1243.5644160141237,Correct,sub_007_day_12_data.csv,1,300,129.0,Training at home,,,,,,,,,,,,,
7,14,3244,B,46.49795251182219,31.52357600683403,2.3248976255911096,0.4951711739897462,B,611.4468749728985,Correct,sub_007_day_12_data.csv,1,300,129.0,Training at home,,,,,,,,,,,,,
7,14,3245,A,64.59228560016987,86.9880905686349,3.2296142800084935,1.366405731401135,A,977.389250008855,Correct,sub_007_day_12_data.csv,1,300,129.0,Training at home,,,,,,,,,,,,,
7,14,3246,B,70.68249566514298,44.84835290237599,3.534124783257149,0.7044762800185345,B,843.6419579666108,Correct,sub_007_day_12_data.csv,1,300,129.0,Training at home,,,,,,,,,,,,,
7,14,3247,B,41.11756214432109,29.917548355886687,2.055878107216054,0.4699437506413551,B,1331.8509999662638,Correct,sub_007_day_12_data.csv,1,300,129.0,Training at home,,,,,,,,,,,,,
7,14,3248,A,52.139019481568695,69.80601236670263,2.606950974078435,1.0965102781381562,A,1622.9527500108816,Correct,sub_007_day_12_data.csv,1,300,129.0,Training at home,,,,,,,,,,,,,
7,14,3249,A,38.55713070054474,61.62893909533061,1.927856535027237,0.968065111552117,A,1230.1351660280488,Correct,sub_007_day_12_data.csv,1,300,129.0,Training at home,,,,,,,,,,,,,
7,14,3250,A,48.931522619513984,80.4139775120853,2.4465761309756995,1.2631398049895102,A,739.2011240008287,Correct,sub_007_day_12_data.csv,1,300,130.0,Training at home,,,,,,,,,,,,,
7,14,3251,B,83.31903913030058,59.469085652569625,4.165951956515029,0.9341382130090744,B,641.8941249721684,Correct,sub_007_day_12_data.csv,1,300,130.0,Training at home,,,,,,,,,,,,,
7,14,3252,B,66.95190433959546,45.504785291418486,3.347595216979773,0.7147874958735059,B,598.8273749826476,Correct,sub_007_day_12_data.csv,1,300,130.0,Training at home,,,,,,,,,,,,,
7,14,3253,A,46.06575487785577,72.31768346320747,2.3032877438927883,1.1359635154632233,A,928.7866660160944,Correct,sub_007_day_12_data.csv,1,300,130.0,Training at home,,,,,,,,,,,,,
7,14,3254,B,49.70615798756032,38.75078522714655,2.485307899378016,0.6086959109521975,B,1900.184291007463,Correct,sub_007_day_12_data.csv,1,300,130.0,Training at home,,,,,,,,,,,,,
7,14,3255,A,35.42428460510266,58.13456718086785,1.771214230255133,0.9131756458751836,A,1789.3970829900354,Correct,sub_007_day_12_data.csv,1,300,130.0,Training at home,,,,,,,,,,,,,
7,14,3256,B,83.25541814725976,63.78589844417542,4.162770907362988,1.0019465497742306,B,729.6136239892803,Correct,sub_007_day_12_data.csv,1,300,130.0,Training at home,,,,,,,,,,,,,
7,14,3257,A,13.826567306962207,31.220759708231128,0.6913283653481104,0.4904145466943556,A,969.4321239949204,Correct,sub_007_day_12_data.csv,1,300,130.0,Training at home,,,,,,,,,,,,,
7,14,3258,A,65.58109784279723,88.51435614619925,3.279054892139862,1.3903802550306503,A,783.9447910082527,Correct,sub_007_day_12_data.csv,1,300,130.0,Training at home,,,,,,,,,,,,,
7,14,3259,A,45.616044935948835,54.59285113088409,2.2808022467974416,0.8575425002565336,A,1545.9299169597216,Correct,sub_007_day_12_data.csv,1,300,130.0,Training at home,,,,,,,,,,,,,
7,14,3260,B,54.45569224834733,40.45180807793229,2.7227846124173665,0.6354155154102816,B,2053.7429999676533,Correct,sub_007_day_12_data.csv,1,300,130.0,Training at home,,,,,,,,,,,,,
7,14,3261,A,37.292080580716245,53.75041879953723,1.864604029035812,0.8443096041400042,A,1011.7686239536852,Correct,sub_007_day_12_data.csv,1,300,130.0,Training at home,,,,,,,,,,,,,
7,14,3262,B,32.04425530356773,13.641147470805915,1.6022127651783864,0.2142746434040942,B,573.5335409990512,Correct,sub_007_day_12_data.csv,1,300,130.0,Training at home,,,,,,,,,,,,,
7,14,3263,B,47.024063201347346,27.97494086608333,2.3512031600673673,0.4394293435474813,B,1001.6814170521684,Correct,sub_007_day_12_data.csv,1,300,130.0,Training at home,,,,,,,,,,,,,
7,14,3264,A,48.29247135520224,55.57576174884698,2.4146235677601116,0.8729820241391716,A,1391.845165984705,Correct,sub_007_day_12_data.csv,1,300,130.0,Training at home,,,,,,,,,,,,,
7,14,3265,B,65.41738030496177,38.65715906702782,3.270869015248088,0.6072252346681333,B,1527.1350829862058,Correct,sub_007_day_12_data.csv,1,300,130.0,Training at home,,,,,,,,,,,,,
7,14,3266,B,89.28644578361255,65.31731510067291,4.464322289180627,1.0260019863624184,B,897.6805420243181,Correct,sub_007_day_12_data.csv,1,300,130.0,Training at home,,,,,,,,,,,,,
7,14,3267,A,36.78912207023217,44.984006163794135,1.8394561035116084,0.7066071164660681,A,1306.3446250162087,Correct,sub_007_day_12_data.csv,1,300,130.0,Training at home,,,,,,,,,,,,,
7,14,3268,A,37.10188543925658,46.86282882180625,1.855094271962829,0.7361195937651126,A,1522.0249579870142,Correct,sub_007_day_12_data.csv,1,300,130.0,Training at home,,,,,,,,,,,,,
7,14,3269,B,70.64918612215298,61.111146025444896,3.532459306107649,0.959931637029954,B,1922.6945410482583,Correct,sub_007_day_12_data.csv,1,300,130.0,Training at home,,,,,,,,,,,,,
7,14,3270,A,20.96729398813337,44.67253581422257,1.0483646994066689,0.7017145516559428,A,901.6531250090338,Correct,sub_007_day_12_data.csv,1,300,130.0,Training at home,,,,,,,,,,,,,
7,14,3271,A,52.344172915711994,76.00124595875509,2.6172086457855994,1.1938247798384796,A,879.7165830037557,Correct,sub_007_day_12_data.csv,1,300,130.0,Training at home,,,,,,,,,,,,,
7,14,3272,B,38.36423202368958,23.35768281098806,1.918211601184479,0.3669016236194033,B,647.708208009135,Correct,sub_007_day_12_data.csv,1,300,130.0,Training at home,,,,,,,,,,,,,
7,14,3273,B,74.27360206558438,45.42553267798444,3.713680103279219,0.713542598732795,B,682.9349159961566,Correct,sub_007_day_12_data.csv,1,300,130.0,Training at home,,,,,,,,,,,,,
7,14,3274,B,81.27196277313172,59.012741406003286,4.063598138656586,0.9269699743464708,B,1317.278750007972,Correct,sub_007_day_12_data.csv,1,300,130.0,Training at home,,,,,,,,,,,,,
7,14,3275,A,50.99213128402626,67.38523141801095,2.5496065642013126,1.0584847399163564,A,1316.2949580000711,Correct,sub_007_day_12_data.csv,1,300,131.0,Training at home,,,,,,,,,,,,,
7,14,3276,B,49.53507277567718,28.514506932317,2.476753638783859,0.4479048274965116,B,712.0099989697337,Correct,sub_007_day_12_data.csv,1,300,131.0,Training at home,,,,,,,,,,,,,
7,14,3277,A,14.12636728077021,31.38997931074281,0.7063183640385106,0.493072641994826,A,768.1080830516294,Correct,sub_007_day_12_data.csv,1,300,131.0,Training at home,,,,,,,,,,,,,
7,14,3278,B,81.35982487127298,51.90353752353594,4.0679912435636485,0.8152988608963134,B,656.908790988382,Correct,sub_007_day_12_data.csv,1,300,131.0,Training at home,,,,,,,,,,,,,
7,14,3279,B,35.38666597684697,22.075751862913712,1.7693332988423487,0.3467650993750045,B,795.3594169812277,Correct,sub_007_day_12_data.csv,1,300,131.0,Training at home,,,,,,,,,,,,,
7,14,3280,B,51.655241832531225,24.795476911937932,2.5827620916265612,0.3894864405439976,B,670.9926660405472,Correct,sub_007_day_12_data.csv,1,300,131.0,Training at home,,,,,,,,,,,,,
7,14,3281,B,72.08642388013642,39.1703501957571,3.604321194006821,0.61528642206765,B,548.5100410296582,Correct,sub_007_day_12_data.csv,1,300,131.0,Training at home,,,,,,,,,,,,,
7,14,3282,A,61.67963935137561,82.30201382094138,3.0839819675687807,1.2927970099775754,A,838.0226659937762,Correct,sub_007_day_12_data.csv,1,300,131.0,Training at home,,,,,,,,,,,,,
7,14,3283,A,60.90419228602116,77.90534451066131,3.045209614301058,1.2237342899503774,A,1150.0199580332264,Correct,sub_007_day_12_data.csv,1,300,131.0,Training at home,,,,,,,,,,,,,
7,14,3284,B,39.40978790862159,20.27956295172765,1.9704893954310791,0.3185506299357967,B,514.4107079831883,Correct,sub_007_day_12_data.csv,1,300,131.0,Training at home,,,,,,,,,,,,,
7,14,3285,B,89.56366381980301,66.4572573088135,4.47818319099015,1.043908156695475,B,531.5007919562049,Correct,sub_007_day_12_data.csv,1,300,131.0,Training at home,,,,,,,,,,,,,
7,14,3286,B,62.43517818477976,48.78230235424456,3.121758909238988,0.7662706135064539,B,884.6355829737149,Correct,sub_007_day_12_data.csv,1,300,131.0,Training at home,,,,,,,,,,,,,
7,14,3287,A,22.203006375219093,36.75347339225119,1.1101503187609547,0.5773222100150213,A,676.4325830154121,Correct,sub_007_day_12_data.csv,1,300,131.0,Training at home,,,,,,,,,,,,,
7,14,3288,A,21.2146158848322,48.60777246266585,1.06073079424161,0.7635291043803765,A,1195.6253750249743,Correct,sub_007_day_12_data.csv,1,300,131.0,Training at home,,,,,,,,,,,,,
7,14,3289,A,52.22279743998462,66.50920035970661,2.6111398719992307,1.0447240762309298,A,1257.8373739961537,Correct,sub_007_day_12_data.csv,1,300,131.0,Training at home,,,,,,,,,,,,,
7,14,3290,A,50.79598617798692,57.93613699965984,2.539799308899346,0.9100587118775156,A,4005.5326669826177,Correct,sub_007_day_12_data.csv,1,300,131.0,Training at home,,,,,,,,,,,,,
7,14,3291,A,31.703654957319173,44.61487001156424,1.5851827478659586,0.7008087393459688,A,1182.5179579900578,Correct,sub_007_day_12_data.csv,1,300,131.0,Training at home,,,,,,,,,,,,,
7,14,3292,A,19.926644719815418,40.56973952714427,0.9963322359907708,0.6372679782826394,A,850.8401250001043,Correct,sub_007_day_12_data.csv,1,300,131.0,Training at home,,,,,,,,,,,,,
7,14,3293,A,60.48492705268988,70.14376375951392,3.0242463526344943,1.1018156646101345,A,1221.208998991642,Correct,sub_007_day_12_data.csv,1,300,131.0,Training at home,,,,,,,,,,,,,
7,14,3294,B,30.117949316632775,13.836795558772994,1.5058974658316386,0.2173478763833255,B,563.3262080373242,Correct,sub_007_day_12_data.csv,1,300,131.0,Training at home,,,,,,,,,,,,,
7,14,3295,A,58.320145481752775,82.8917190652125,2.916007274087639,1.302060078293503,A,885.594375024084,Correct,sub_007_day_12_data.csv,1,300,131.0,Training at home,,,,,,,,,,,,,
7,14,3296,A,62.24267797489546,73.3118471107658,3.112133898744773,1.1515798015213998,A,1298.6030830070376,Correct,sub_007_day_12_data.csv,1,300,131.0,Training at home,,,,,,,,,,,,,
7,14,3297,A,36.28915752999406,62.43447812382279,1.8144578764997028,0.9807184890225716,A,1184.5831249956973,Correct,sub_007_day_12_data.csv,1,300,131.0,Training at home,,,,,,,,,,,,,
7,14,3298,B,87.3297336611838,69.6854631070266,4.36648668305919,1.0946166947951868,B,984.2739159939812,Correct,sub_007_day_12_data.csv,1,300,131.0,Training at home,,,,,,,,,,,,,
7,14,3299,A,21.987877226909248,47.68726094419027,1.0993938613454624,0.749069743260438,A,1024.966166995,Correct,sub_007_day_12_data.csv,1,300,131.0,Training at home,,,,,,,,,,,,,
