subject,day,trial,cat,x,y,xt,yt,resp,rt,fb,f_name,acc,n_trials,block,session_type,ns_left_digit,ns_right_digit,ns_left_size,ns_right_size,ns_congruent,ns_cue,ns_correct_side,ns_resp,ns_rt,ns_fb,acc_stroop,acc_stroop_mean,resp_key
7,22,0,B,46.28811688114307,29.186793928081485,2.3144058440571538,0.4584650869314998,B,2394.7179159149528,Correct,sub_007_day_22_data.csv,1,320,,Dual-Task at home,5.0,6.0,big,small,False,Value,right,right,6151.365417055786,Correct,1.0,0.9875,
7,22,1,A,36.88916005835381,63.79925758485542,1.8444580029176905,1.0021563946653234,A,1324.2851659888402,Correct,sub_007_day_22_data.csv,1,320,,Dual-Task at home,8.0,5.0,big,small,True,Size,left,left,1464.737750007771,Correct,1.0,0.9875,
7,22,2,A,58.09533773060625,70.269173550334,2.9047668865303127,1.1037855969977777,A,1797.4002910777926,Correct,sub_007_day_22_data.csv,1,320,,Dual-Task at home,4.0,8.0,big,small,False,Size,left,left,943.0522080510856,Correct,1.0,0.9875,
7,22,3,A,41.55022060254634,52.1742825213904,2.077511030127317,0.8195517133775919,A,1478.0662920093164,Correct,sub_007_day_22_data.csv,1,320,,Dual-Task at home,2.0,6.0,big,small,False,Size,left,left,1404.9167080083862,Correct,1.0,0.9875,
7,22,4,A,30.86973670842332,59.53214176540515,1.5434868354211662,0.9351286961133146,A,1489.8623749613762,Correct,sub_007_day_22_data.csv,1,320,,Dual-Task at home,5.0,3.0,small,big,False,Size,right,right,1708.859041100368,Correct,1.0,0.9875,
7,22,5,B,62.10241524940434,36.03850700649464,3.105120762470217,0.5660915442897393,B,1403.240666957572,Correct,sub_007_day_22_data.csv,1,320,,Dual-Task at home,8.0,2.0,small,big,False,Value,left,left,1164.0802919864657,Correct,1.0,0.9875,
7,22,6,A,29.6951260801305,60.15221072963995,1.484756304006525,0.94486871662711,A,1476.823917008005,Correct,sub_007_day_22_data.csv,1,320,,Dual-Task at home,8.0,2.0,big,small,True,Value,left,left,979.6707089990376,Correct,1.0,0.9875,
7,22,7,B,65.32199271931867,33.66754127771609,3.266099635965934,0.52884850171252,B,994.402915937826,Correct,sub_007_day_22_data.csv,1,320,,Dual-Task at home,8.0,6.0,big,small,True,Value,left,left,1253.6662500351667,Correct,1.0,0.9875,
7,22,8,B,37.443245302332045,22.28917642202311,1.8721622651166023,0.3501175645099731,B,1089.0468750149012,Correct,sub_007_day_22_data.csv,1,320,,Dual-Task at home,5.0,4.0,small,big,False,Value,left,left,915.6040420057252,Correct,1.0,0.9875,
7,22,9,A,32.22504926035518,61.4119723329177,1.611252463017759,0.9646570056177692,A,881.9212090456858,Correct,sub_007_day_22_data.csv,1,320,,Dual-Task at home,2.0,5.0,small,big,True,Value,right,right,860.8175000408664,Correct,1.0,0.9875,
7,22,10,B,53.98756515934931,42.36372311175881,2.6993782579674654,0.665447806533068,B,1472.0372499432417,Correct,sub_007_day_22_data.csv,1,320,,Dual-Task at home,4.0,7.0,big,small,False,Size,left,left,1171.3832080131397,Correct,1.0,0.9875,
7,22,11,B,32.20238247536092,14.25107638513619,1.610119123768046,0.2238553843864542,B,826.6049589728937,Correct,sub_007_day_22_data.csv,1,320,,Dual-Task at home,8.0,3.0,small,big,False,Value,left,left,857.3078339686617,Correct,1.0,0.9875,
7,22,12,A,27.644651897450363,42.48435587946356,1.3822325948725185,0.6673427016170853,A,884.6816249424592,Correct,sub_007_day_22_data.csv,1,320,,Dual-Task at home,5.0,6.0,small,big,True,Size,right,right,925.1173749798908,Correct,1.0,0.9875,
7,22,13,A,56.70538042116691,76.46290500004561,2.8352690210583456,1.201076503101388,A,1094.6731669828296,Correct,sub_007_day_22_data.csv,1,320,,Dual-Task at home,3.0,8.0,big,small,False,Value,right,right,872.229625005275,Correct,1.0,0.9875,
7,22,14,A,23.562441778800643,56.08319252669248,1.178122088940032,0.8809527281585954,A,1193.2062089908868,Correct,sub_007_day_22_data.csv,1,320,,Dual-Task at home,3.0,5.0,big,small,False,Value,right,right,763.3676250698045,Correct,1.0,0.9875,
7,22,15,B,53.15827227873083,42.36386772269464,2.657913613936542,0.665450078076336,B,1306.4536249730736,Correct,sub_007_day_22_data.csv,1,320,,Dual-Task at home,2.0,4.0,big,small,False,Size,left,left,1878.6863749846816,Correct,1.0,0.9875,
7,22,16,B,74.12724397604185,42.28561230683927,3.706362198802093,0.664220844878562,B,1688.396499957889,Correct,sub_007_day_22_data.csv,1,320,,Dual-Task at home,5.0,3.0,small,big,False,Value,left,left,897.7535419398919,Correct,1.0,0.9875,
7,22,17,A,31.94984035972315,46.31918546893629,1.5974920179861576,0.7275800639473667,A,971.8715839553624,Correct,sub_007_day_22_data.csv,1,320,,Dual-Task at home,7.0,2.0,small,big,False,Size,right,right,1533.2226669415832,Correct,1.0,0.9875,
7,22,18,B,82.68860235426612,58.74926356550241,4.134430117713306,0.9228312741059642,B,1845.508624915965,Correct,sub_007_day_22_data.csv,1,320,,Dual-Task at home,8.0,5.0,small,big,False,Size,right,right,1122.7402919903398,Correct,1.0,0.9875,
7,22,19,B,68.27535326082844,40.767256664294784,3.4137676630414218,0.6403705702177902,B,1121.4847499504683,Correct,sub_007_day_22_data.csv,1,320,,Dual-Task at home,4.0,2.0,small,big,False,Size,right,right,1063.6982090072706,Correct,1.0,0.9875,
7,22,20,A,31.64453825294912,57.930408948588536,1.582226912647456,0.9099687358616908,A,911.3972081104292,Correct,sub_007_day_22_data.csv,1,320,,Dual-Task at home,2.0,5.0,small,big,True,Value,right,right,881.3083750428632,Correct,1.0,0.9875,
7,22,21,A,54.16352670658197,72.51250161678209,2.708176335329098,1.1390237118635032,A,931.7024589981884,Correct,sub_007_day_22_data.csv,1,320,,Dual-Task at home,3.0,6.0,big,small,False,Size,left,left,1670.3426250023767,Correct,1.0,0.9875,
7,22,22,B,51.10646751075428,31.929011633217932,2.555323375537714,0.5015397419165025,B,1336.7432079976425,Correct,sub_007_day_22_data.csv,1,320,,Dual-Task at home,7.0,4.0,small,big,False,Value,left,left,873.7853749189526,Correct,1.0,0.9875,
7,22,23,B,32.864287430762204,10.610000792863602,1.6432143715381102,0.1666615027272108,B,777.6451669633389,Correct,sub_007_day_22_data.csv,1,320,,Dual-Task at home,8.0,7.0,small,big,False,Value,left,left,831.6234590020031,Correct,1.0,0.9875,
7,22,24,B,35.877833087476844,13.0157195883254,1.7938916543738423,0.2044504451993391,B,784.5454999478534,Correct,sub_007_day_22_data.csv,1,320,,Dual-Task at home,3.0,4.0,big,small,False,Value,right,right,739.9438340216875,Correct,1.0,0.9875,
7,22,25,B,38.27876390748564,28.9549721499377,1.9139381953742824,0.4548236389557066,B,1072.9040410369637,Correct,sub_007_day_22_data.csv,1,320,,Dual-Task at home,3.0,8.0,big,small,False,Size,left,left,1305.2240420365706,Correct,1.0,0.9875,
7,22,26,A,66.83070806370273,89.53653520202943,3.3415354031851363,1.4064366060928977,A,848.9696669857949,Correct,sub_007_day_22_data.csv,1,320,,Dual-Task at home,6.0,2.0,small,big,False,Size,right,right,1338.9298749389127,Correct,1.0,0.9875,
7,22,27,A,20.86019953765096,48.36968853284519,1.043009976882548,0.7597892907560646,A,810.6489999918267,Correct,sub_007_day_22_data.csv,1,320,,Dual-Task at home,2.0,4.0,big,small,False,Size,left,left,1328.6851660814136,Correct,1.0,0.9875,
7,22,28,B,42.135484964873655,19.7560252344133,2.106774248243682,0.3103269187028369,B,796.5339999645948,Correct,sub_007_day_22_data.csv,1,320,,Dual-Task at home,8.0,2.0,small,big,False,Value,left,left,613.9562919270247,Correct,1.0,0.9875,
7,22,29,A,22.514245398558486,42.5348773811081,1.1257122699279245,0.6681362915091593,A,713.7100839754567,Correct,sub_007_day_22_data.csv,1,320,,Dual-Task at home,5.0,6.0,big,small,False,Value,right,right,746.9886250328273,Correct,1.0,0.9875,
7,22,30,A,16.490274394023395,33.53974013894175,0.8245137197011698,0.5268410061190506,A,1160.1105000590906,Correct,sub_007_day_22_data.csv,1,320,,Dual-Task at home,7.0,3.0,small,big,False,Size,right,right,784.1230829944834,Correct,1.0,0.9875,
7,22,31,A,53.31132604908565,82.57037718282214,2.6655663024542826,1.2970124518084618,A,916.692625032738,Correct,sub_007_day_22_data.csv,1,320,,Dual-Task at home,8.0,6.0,big,small,True,Value,left,left,888.7408330338076,Correct,1.0,0.9875,
7,22,32,A,21.575180145572723,47.20403514169801,1.0787590072786362,0.7414792501047645,A,824.1600840119645,Correct,sub_007_day_22_data.csv,1,320,,Dual-Task at home,7.0,4.0,big,small,True,Size,left,left,1093.1054999819023,Correct,1.0,0.9875,
7,22,33,A,57.66651676007439,82.9004701076735,2.883325838003719,1.3021975393470366,A,780.9390840120614,Correct,sub_007_day_22_data.csv,1,320,,Dual-Task at home,3.0,8.0,big,small,False,Size,left,left,711.3215409917757,Correct,1.0,0.9875,
7,22,34,A,34.45525235214182,56.401787769016224,1.7227626176070912,0.88595721052236,A,751.7727500526235,Correct,sub_007_day_22_data.csv,1,320,,Dual-Task at home,7.0,6.0,small,big,False,Size,right,right,834.0350419748574,Correct,1.0,0.9875,
7,22,35,A,35.66185620356538,60.08925407374712,1.7830928101782688,0.9438797957888726,A,919.3912920309232,Correct,sub_007_day_22_data.csv,1,320,,Dual-Task at home,3.0,5.0,small,big,True,Size,right,right,367.1686250017956,Correct,1.0,0.9875,
7,22,36,B,45.203058070191155,27.687077215381635,2.260152903509558,0.4349075918960814,B,1058.2359170075506,Correct,sub_007_day_22_data.csv,1,320,,Dual-Task at home,7.0,3.0,small,big,False,Size,right,right,723.6945000477135,Correct,1.0,0.9875,
7,22,37,A,57.43905112154133,86.17203425377696,2.8719525560770665,1.3535871487827684,A,954.6088749775664,Correct,sub_007_day_22_data.csv,1,320,,Dual-Task at home,5.0,2.0,small,big,False,Value,left,left,973.095666966401,Correct,1.0,0.9875,
7,22,38,B,69.41432075119529,53.6753679149145,3.4707160375597645,0.8431307076011235,B,1619.4367499556392,Correct,sub_007_day_22_data.csv,1,320,,Dual-Task at home,4.0,5.0,big,small,False,Size,left,left,1068.7566250562668,Correct,1.0,0.9875,
7,22,39,A,66.92601711723826,79.10966854299343,3.3463008558619127,1.2426517676129585,A,802.4562080390751,Correct,sub_007_day_22_data.csv,1,320,,Dual-Task at home,6.0,7.0,big,small,False,Size,left,left,731.4114589244127,Correct,1.0,0.9875,
7,22,40,B,88.37982255091748,66.25835970193347,4.418991127545874,1.040783880392521,B,942.8564159898089,Correct,sub_007_day_22_data.csv,1,320,,Dual-Task at home,3.0,2.0,small,big,False,Value,left,left,1333.3951249951497,Correct,1.0,0.9875,
7,22,41,A,42.21957451361046,61.809642220754746,2.110978725680523,0.970903589608683,A,757.8094159252942,Correct,sub_007_day_22_data.csv,1,320,,Dual-Task at home,3.0,8.0,big,small,False,Value,right,right,1168.987082899548,Correct,1.0,0.9875,
7,22,42,A,28.385391007011783,39.48637745967136,1.419269550350589,0.6202505667208856,A,907.28504199069,Correct,sub_007_day_22_data.csv,1,320,,Dual-Task at home,2.0,3.0,big,small,False,Value,right,right,955.8139579603449,Correct,1.0,0.9875,
7,22,43,A,23.86943277104209,43.480609695317675,1.1934716385521045,0.6829918199620757,A,1386.212999932468,Correct,sub_007_day_22_data.csv,1,320,,Dual-Task at home,6.0,3.0,small,big,False,Size,right,right,834.4684160547331,Correct,1.0,0.9875,
7,22,44,A,17.198058102013487,43.322300366894915,0.8599029051006744,0.6805051028462372,A,619.9517500353977,Correct,sub_007_day_22_data.csv,1,320,,Dual-Task at home,7.0,5.0,big,small,True,Size,left,left,1685.1833750260994,Correct,1.0,0.9875,
7,22,45,B,71.75402063466066,41.67707289331438,3.587701031733033,0.6546619301238138,B,903.1544999452308,Correct,sub_007_day_22_data.csv,1,320,,Dual-Task at home,7.0,6.0,small,big,False,Size,right,right,993.8595830462872,Correct,1.0,0.9875,
7,22,46,B,54.134178096253336,44.257549466913545,2.7067089048126665,0.6951959613557123,B,3217.5079999724403,Correct,sub_007_day_22_data.csv,1,320,,Dual-Task at home,7.0,6.0,small,big,False,Value,left,left,653.9964999537915,Correct,1.0,0.9875,
7,22,47,A,44.20010101517533,59.99742286880872,2.2100050507587663,0.9424373145948486,A,868.9767089672387,Correct,sub_007_day_22_data.csv,1,320,,Dual-Task at home,3.0,5.0,small,big,True,Value,right,right,420.58449995238334,Correct,1.0,0.9875,
7,22,48,A,50.8684973568424,62.402550518664285,2.54342486784212,0.9802169713735084,A,1041.5399170015007,Correct,sub_007_day_22_data.csv,1,320,,Dual-Task at home,5.0,8.0,big,small,False,Size,left,left,949.5565000688656,Correct,1.0,0.9875,
7,22,49,B,31.72052619307564,17.008940676687843,1.586026309653782,0.2671758153761356,B,958.9223340153694,Correct,sub_007_day_22_data.csv,1,320,,Dual-Task at home,6.0,7.0,big,small,False,Value,right,right,715.6880410620943,Correct,1.0,0.9875,
7,22,50,B,67.9308136223403,52.44125780420745,3.3965406811170147,0.8237453513135328,B,1819.4230840308592,Correct,sub_007_day_22_data.csv,1,320,,Dual-Task at home,7.0,5.0,small,big,False,Size,right,right,878.2855829922482,Correct,1.0,0.9875,
7,22,51,A,53.93245015051201,61.064440812295054,2.6966225075256007,0.9591979932573744,B,2435.249041998759,Incorrect,sub_007_day_22_data.csv,0,320,,Dual-Task at home,8.0,6.0,small,big,False,Size,right,right,1330.265666008927,Correct,1.0,0.9875,
7,22,52,B,63.836533826564946,37.32807166721031,3.1918266913282474,0.586347978611906,B,937.0745830237864,Correct,sub_007_day_22_data.csv,1,320,,Dual-Task at home,5.0,4.0,small,big,False,Value,left,left,1050.104333087802,Correct,1.0,0.9875,
7,22,53,B,46.56079295292902,36.304339558838755,2.328039647646451,0.5702672322573856,B,1565.3732500504702,Correct,sub_007_day_22_data.csv,1,320,,Dual-Task at home,8.0,2.0,big,small,True,Size,left,left,449.66879195999354,Correct,1.0,0.9875,
7,22,54,A,53.664826821944814,65.37165763935182,2.683241341097241,1.0268555969638735,A,1323.7050829920918,Correct,sub_007_day_22_data.csv,1,320,,Dual-Task at home,8.0,4.0,small,big,False,Size,right,right,1090.054541011341,Correct,1.0,0.9875,
7,22,55,A,18.392019838158543,45.38404085746489,0.9196009919079272,0.7128908467401536,A,1776.4375420520082,Correct,sub_007_day_22_data.csv,1,320,,Dual-Task at home,5.0,3.0,small,big,False,Size,right,right,1000.3017500275746,Correct,1.0,0.9875,
7,22,56,B,46.774774884816594,17.914951572444124,2.3387387442408296,0.2814074012470369,B,831.9190409965813,Correct,sub_007_day_22_data.csv,1,320,,Dual-Task at home,4.0,8.0,big,small,False,Size,left,left,635.847624973394,Correct,1.0,0.9875,
7,22,57,A,33.589149993744066,43.91741932551288,1.6794574996872031,0.6898532095882683,A,1497.1368339611215,Correct,sub_007_day_22_data.csv,1,320,,Dual-Task at home,7.0,4.0,small,big,False,Size,right,right,374.7193329036236,Correct,1.0,0.9875,
7,22,58,B,38.85052078591481,19.941448233134867,1.9425260392957404,0.3132395363557883,B,989.5471669733524,Correct,sub_007_day_22_data.csv,1,320,,Dual-Task at home,4.0,7.0,small,big,True,Value,right,right,332.4279160005972,Correct,1.0,0.9875,
7,22,59,A,18.44514547447755,40.145503315731155,0.9222572737238776,0.6306040914568283,A,1189.2978330142796,Correct,sub_007_day_22_data.csv,1,320,,Dual-Task at home,7.0,3.0,big,small,True,Value,left,left,2176.8232909962535,Correct,1.0,0.9875,
7,22,60,B,43.42877306284794,29.350025568551175,2.171438653142397,0.4610291235441648,B,1270.501625025645,Correct,sub_007_day_22_data.csv,1,320,,Dual-Task at home,8.0,2.0,small,big,False,Size,right,right,1790.8639999805018,Correct,1.0,0.9875,
7,22,61,B,67.66140078967797,46.68446703360476,3.3830700394838984,0.7333178933476379,B,1228.3502500504255,Correct,sub_007_day_22_data.csv,1,320,,Dual-Task at home,3.0,6.0,big,small,False,Value,right,right,856.7185420542955,Correct,1.0,0.9875,
7,22,62,A,41.84950896171024,69.90397922341892,2.092475448085512,1.0980491379249318,A,693.7529579736292,Correct,sub_007_day_22_data.csv,1,320,,Dual-Task at home,3.0,5.0,small,big,True,Value,right,right,263.7047079624608,Correct,1.0,0.9875,
7,22,63,A,42.2194241587861,63.14789281895764,2.110971207939305,0.9919247808485648,A,727.8213750105351,Correct,sub_007_day_22_data.csv,1,320,,Dual-Task at home,5.0,8.0,big,small,False,Value,right,right,761.0036670230329,Correct,1.0,0.9875,
7,22,64,B,76.3526522377195,64.18785735285783,3.817632611885975,1.0082605055470388,B,2031.267833081074,Correct,sub_007_day_22_data.csv,1,320,,Dual-Task at home,8.0,6.0,small,big,False,Value,left,left,743.9996660687029,Correct,1.0,0.9875,
7,22,65,B,73.55604350483466,44.270484717867824,3.677802175241733,0.6953991478025637,B,1751.4738340396434,Correct,sub_007_day_22_data.csv,1,320,,Dual-Task at home,5.0,2.0,small,big,False,Size,right,right,627.2202079417184,Correct,1.0,0.9875,
7,22,66,B,72.0278711735747,42.48829671046376,3.6013935586787347,0.6674046040456816,B,1416.2228748900816,Correct,sub_007_day_22_data.csv,1,320,,Dual-Task at home,2.0,3.0,big,small,False,Size,left,left,923.677249928005,Correct,1.0,0.9875,
7,22,67,A,31.57284932278564,57.845371314781026,1.578642466139282,0.908632967833449,A,797.9085419792682,Correct,sub_007_day_22_data.csv,1,320,,Dual-Task at home,6.0,3.0,small,big,False,Size,right,right,812.2894170228392,Correct,1.0,0.9875,
7,22,68,B,68.39673563642512,48.71255263525435,3.419836781821256,0.7651749874826058,B,1136.3573330454528,Correct,sub_007_day_22_data.csv,1,320,,Dual-Task at home,5.0,4.0,small,big,False,Size,right,right,545.6614160211757,Correct,1.0,0.9875,
7,22,69,A,54.00258903483826,66.76994353586076,2.700129451741913,1.048819820464327,A,735.7537080533803,Correct,sub_007_day_22_data.csv,1,320,,Dual-Task at home,2.0,5.0,big,small,False,Size,left,left,847.4565419601277,Correct,1.0,0.9875,
7,22,70,B,37.23709426505526,13.322885374792463,1.861854713252763,0.2092753940903345,B,677.1992499707267,Correct,sub_007_day_22_data.csv,1,320,,Dual-Task at home,6.0,7.0,small,big,True,Size,right,right,239.97229197993877,Correct,1.0,0.9875,
7,22,71,A,63.82004026540724,87.27041356082081,3.191002013270362,1.3708404505920886,A,829.3017499381676,Correct,sub_007_day_22_data.csv,1,320,,Dual-Task at home,6.0,3.0,big,small,True,Size,left,left,338.36149994749576,Correct,1.0,0.9875,
7,22,72,B,66.80086453621699,43.150185661359366,3.3400432268108493,0.677801531373811,B,1093.0422079982236,Correct,sub_007_day_22_data.csv,1,320,,Dual-Task at home,7.0,5.0,small,big,False,Value,left,left,914.7277919109912,Correct,1.0,0.9875,
7,22,73,A,39.994123333608776,55.82621949455039,1.9997061666804388,0.8769162052088538,A,1398.9316670922562,Correct,sub_007_day_22_data.csv,1,320,,Dual-Task at home,8.0,6.0,small,big,False,Size,right,right,833.6604170035571,Correct,1.0,0.9875,
7,22,74,A,42.08689182962708,72.45548867940357,2.104344591481354,1.1381281547373634,A,666.5747500956059,Correct,sub_007_day_22_data.csv,1,320,,Dual-Task at home,7.0,3.0,big,small,True,Size,left,left,297.786167007871,Correct,1.0,0.9875,
7,22,75,A,25.22095363454686,43.42450797703326,1.261047681727343,0.6821105762319952,A,870.8865420194343,Correct,sub_007_day_22_data.csv,1,320,,Dual-Task at home,4.0,5.0,big,small,False,Size,left,left,796.3212920585647,Correct,1.0,0.9875,
7,22,76,A,52.30593876916929,66.62204838773702,2.615296938458465,1.0464966889100915,A,875.2118330448866,Correct,sub_007_day_22_data.csv,1,320,,Dual-Task at home,4.0,2.0,big,small,True,Size,left,left,903.5779170226306,Correct,1.0,0.9875,
7,22,77,A,46.222658841762055,62.42895873655004,2.3111329420881024,0.9806317906900296,A,821.8026249669492,Correct,sub_007_day_22_data.csv,1,320,,Dual-Task at home,4.0,7.0,small,big,True,Size,right,right,252.5878750020638,Correct,1.0,0.9875,
7,22,78,B,63.160805634715715,49.506509991854735,3.1580402817357855,0.7776464404764027,B,1495.4848749330267,Correct,sub_007_day_22_data.csv,1,320,,Dual-Task at home,6.0,7.0,small,big,True,Value,right,right,255.84470795001835,Correct,1.0,0.9875,
7,22,79,A,18.82597266851805,36.313262501494506,0.9412986334259026,0.5704073935128643,A,1496.17987498641,Correct,sub_007_day_22_data.csv,1,320,,Dual-Task at home,8.0,2.0,small,big,False,Value,left,left,1237.0845840778202,Correct,1.0,0.9875,
7,22,80,A,58.6620644403792,84.71617506936006,2.9331032220189597,1.3307185661906415,A,1091.8683339841664,Correct,sub_007_day_22_data.csv,1,320,,Dual-Task at home,3.0,5.0,big,small,False,Size,left,left,918.5530829709024,Correct,1.0,0.9875,
7,22,81,A,64.4065954002567,83.8559742123164,3.2203297700128353,1.3172065627251417,A,684.1826249146834,Correct,sub_007_day_22_data.csv,1,320,,Dual-Task at home,5.0,3.0,small,big,False,Value,left,left,1210.2476250147447,Correct,1.0,0.9875,
7,22,82,A,25.484737614792753,35.56863021184047,1.2742368807396376,0.5587107368588499,A,1177.913999999873,Correct,sub_007_day_22_data.csv,1,320,,Dual-Task at home,4.0,2.0,small,big,False,Value,left,left,799.022666993551,Correct,1.0,0.9875,
7,22,83,B,80.55105775817475,51.118261644522285,4.027552887908738,0.8029637762335606,B,799.1197910159826,Correct,sub_007_day_22_data.csv,1,320,,Dual-Task at home,7.0,8.0,small,big,True,Value,right,right,-2.8832919197157025,Correct,1.0,0.9875,
7,22,84,B,69.31033647843894,53.12668127997883,3.465516823921947,0.8345119580939395,B,1062.500249943696,Correct,sub_007_day_22_data.csv,1,320,,Dual-Task at home,7.0,3.0,small,big,False,Size,right,right,559.3022499233484,Correct,1.0,0.9875,
7,22,85,A,31.16885978070839,44.520993619198535,1.5584429890354194,0.6993341324229608,A,740.5657499330118,Correct,sub_007_day_22_data.csv,1,320,,Dual-Task at home,6.0,5.0,small,big,False,Size,right,right,945.1084999600424,Correct,1.0,0.9875,
7,22,86,B,56.52855480754821,33.799522621512125,2.8264277403774103,0.5309216598129226,B,1079.6105420449749,Correct,sub_007_day_22_data.csv,1,320,,Dual-Task at home,5.0,7.0,big,small,False,Size,left,left,815.2146249776706,Correct,1.0,0.9875,
7,22,87,A,37.07954191022711,64.12994334181242,1.8539770955113553,1.007350794388838,A,774.4481659028679,Correct,sub_007_day_22_data.csv,1,320,,Dual-Task at home,8.0,5.0,small,big,False,Size,right,right,811.9510419201106,Correct,1.0,0.9875,
7,22,88,A,26.540548169957617,47.37440792533937,1.3270274084978808,0.7441554595320612,A,791.691750055179,Correct,sub_007_day_22_data.csv,1,320,,Dual-Task at home,7.0,5.0,small,big,False,Size,right,right,1052.084582974203,Correct,1.0,0.9875,
7,22,89,A,33.751557076238335,48.03192699869366,1.6875778538119166,0.7544837449842863,A,1075.8349590469152,Correct,sub_007_day_22_data.csv,1,320,,Dual-Task at home,5.0,4.0,small,big,False,Value,left,left,893.4845830081031,Correct,1.0,0.9875,
7,22,90,B,69.63684697677311,56.00038745023491,3.4818423488386556,0.8796520290592003,B,1261.6715409094468,Correct,sub_007_day_22_data.csv,1,320,,Dual-Task at home,5.0,2.0,small,big,False,Size,right,right,1229.4467920437455,Correct,1.0,0.9875,
7,22,91,A,52.76310389871787,66.86990194373166,2.6381551949358935,1.0503899634634863,A,889.1920000314713,Correct,sub_007_day_22_data.csv,1,320,,Dual-Task at home,4.0,2.0,small,big,False,Size,right,right,865.0785000063479,Correct,1.0,0.9875,
7,22,92,B,70.533835567122,53.97710373730325,3.5266917783560996,0.8478703628158303,B,1046.2985839694738,Correct,sub_007_day_22_data.csv,1,320,,Dual-Task at home,8.0,5.0,small,big,False,Size,right,right,838.1578749977052,Correct,1.0,0.9875,
7,22,93,A,13.223356232561372,30.585238041727568,0.6611678116280686,0.480431795700932,A,917.2019170364364,Correct,sub_007_day_22_data.csv,1,320,,Dual-Task at home,5.0,8.0,big,small,False,Value,right,right,709.8142909817398,Correct,1.0,0.9875,
7,22,94,A,40.33517300252319,55.774629185043814,2.0167586501261594,0.8761058265221426,A,757.6187499798834,Correct,sub_007_day_22_data.csv,1,320,,Dual-Task at home,2.0,6.0,big,small,False,Size,left,left,716.9768339954317,Correct,1.0,0.9875,
7,22,95,B,46.03171587940767,26.474413579487468,2.301585793970383,0.4158591160470785,B,1470.952041912824,Correct,sub_007_day_22_data.csv,1,320,,Dual-Task at home,4.0,7.0,big,small,False,Size,left,left,1116.4646670222282,Correct,1.0,0.9875,
7,22,96,A,22.366226298539814,36.83505992358788,1.1183113149269908,0.5786037682524173,A,1056.7118750186637,Correct,sub_007_day_22_data.csv,1,320,,Dual-Task at home,8.0,7.0,small,big,False,Size,right,right,1222.6217079441994,Correct,1.0,0.9875,
7,22,97,B,38.38581433301944,13.624125876111172,1.919290716650972,0.2140072688198672,B,742.1609169105068,Correct,sub_007_day_22_data.csv,1,320,,Dual-Task at home,4.0,8.0,big,small,False,Value,right,right,790.287374984473,Correct,1.0,0.9875,
7,22,98,B,67.29016184786792,42.54127481320485,3.364508092393396,0.6682367821375443,B,1161.6867079865187,Correct,sub_007_day_22_data.csv,1,320,,Dual-Task at home,2.0,3.0,small,big,True,Value,right,right,267.23295904230326,Correct,1.0,0.9875,
7,22,99,B,74.25664063873965,59.95379133936368,3.712832031936983,0.9417519521330016,B,1988.5880420915785,Correct,sub_007_day_22_data.csv,1,320,,Dual-Task at home,7.0,2.0,small,big,False,Value,left,left,669.0328329568729,Correct,1.0,0.9875,
7,22,100,B,44.251441127615344,20.29140737014779,2.2125720563807674,0.3187366816252704,B,692.5763750914484,Correct,sub_007_day_22_data.csv,1,320,,Dual-Task at home,2.0,4.0,big,small,False,Value,right,right,756.1192499706522,Correct,1.0,0.9875,
7,22,101,A,57.09868198960846,70.57191901821562,2.854934099480423,1.1085411116868,A,906.32274991367,Correct,sub_007_day_22_data.csv,1,320,,Dual-Task at home,8.0,3.0,small,big,False,Size,right,right,730.6007499573752,Correct,1.0,0.9875,
7,22,102,B,39.63968053009624,28.528844241871585,1.9819840265048123,0.4481300374283561,B,1359.3112090602517,Correct,sub_007_day_22_data.csv,1,320,,Dual-Task at home,3.0,4.0,small,big,True,Size,right,right,316.8855829862878,Correct,1.0,0.9875,
7,22,103,B,41.98385097628661,30.0491354239299,2.099192548814331,0.4720107154727149,B,1249.6338750934228,Correct,sub_007_day_22_data.csv,1,320,,Dual-Task at home,6.0,8.0,big,small,False,Size,left,left,549.4472500868142,Correct,1.0,0.9875,
7,22,104,A,34.801032161187294,60.757228464336016,1.7400516080593649,0.9543723129801732,A,928.1460829079152,Correct,sub_007_day_22_data.csv,1,320,,Dual-Task at home,4.0,7.0,big,small,False,Size,left,left,693.4153749607503,Correct,1.0,0.9875,
7,22,105,B,84.71847600444539,58.53410661798904,4.235923800222269,0.9194515966775804,B,870.122459018603,Correct,sub_007_day_22_data.csv,1,320,,Dual-Task at home,7.0,3.0,small,big,False,Size,right,right,781.9438329897821,Correct,1.0,0.9875,
7,22,106,A,42.949788348923335,64.83183259847819,2.1474894174461667,1.0183760450507116,A,703.839624999091,Correct,sub_007_day_22_data.csv,1,320,,Dual-Task at home,2.0,8.0,big,small,False,Value,right,right,952.832542010583,Correct,1.0,0.9875,
7,22,107,A,41.53722441950805,70.23915211725225,2.0768612209754025,1.103314021429678,A,668.1429999880493,Correct,sub_007_day_22_data.csv,1,320,,Dual-Task at home,8.0,3.0,small,big,False,Value,left,left,1172.4756670882923,Correct,1.0,0.9875,
7,22,108,A,23.267474531399657,54.006976135181134,1.1633737265699828,0.8483395973444215,A,971.4724168879912,Correct,sub_007_day_22_data.csv,1,320,,Dual-Task at home,7.0,8.0,big,small,False,Size,left,left,469.4800419965759,Correct,1.0,0.9875,
7,22,109,B,79.06065974172104,58.940742379046895,3.953032987086052,0.9258390162757116,B,933.9492500294,Correct,sub_007_day_22_data.csv,1,320,,Dual-Task at home,3.0,5.0,big,small,False,Value,right,right,516.3444160716608,Correct,1.0,0.9875,
7,22,110,B,53.5446198604695,39.486648418304654,2.6772309930234752,0.6202548229291446,B,1158.556333044544,Correct,sub_007_day_22_data.csv,1,320,,Dual-Task at home,8.0,5.0,big,small,True,Value,left,left,196.21741701848805,Correct,1.0,0.9875,
7,22,111,A,41.816100719293246,67.06273367853973,2.0908050359646624,1.053418957270746,A,744.2348749609664,Correct,sub_007_day_22_data.csv,1,320,,Dual-Task at home,3.0,8.0,big,small,False,Size,left,left,532.4170839739963,Correct,1.0,0.9875,
7,22,112,A,24.376232677917827,38.19682291742947,1.2188116338958914,0.5999942913393334,A,675.5372500047088,Correct,sub_007_day_22_data.csv,1,320,,Dual-Task at home,8.0,4.0,small,big,False,Size,right,right,788.1079170620069,Correct,1.0,0.9875,
7,22,113,A,64.04607146965516,75.45771173776599,3.202303573482758,1.1852869642603097,A,996.1045830277726,Correct,sub_007_day_22_data.csv,1,320,,Dual-Task at home,8.0,4.0,big,small,True,Value,left,left,197.18862499576065,Correct,1.0,0.9875,
7,22,114,A,55.94848369547175,70.5026032525431,2.7974241847735875,1.107452302185726,A,680.4067919729277,Correct,sub_007_day_22_data.csv,1,320,,Dual-Task at home,6.0,2.0,small,big,False,Size,right,right,561.4562920527533,Correct,1.0,0.9875,
7,22,115,B,58.561985683012445,41.28232027103597,2.9280992841506226,0.648461170433138,B,884.7403340041637,Correct,sub_007_day_22_data.csv,1,320,,Dual-Task at home,3.0,8.0,big,small,False,Size,left,left,460.23058297578245,Correct,1.0,0.9875,
7,22,116,B,45.41113861527765,17.392860829198995,2.2705569307638824,0.2732064190296062,B,737.3417080380023,Correct,sub_007_day_22_data.csv,1,320,,Dual-Task at home,6.0,2.0,small,big,False,Size,right,right,1094.243666040711,Correct,1.0,0.9875,
7,22,117,A,26.77456276105728,53.65796086585086,1.338728138052864,0.8428572783138283,A,733.0719589954242,Correct,sub_007_day_22_data.csv,1,320,,Dual-Task at home,8.0,6.0,small,big,False,Value,left,left,1176.2868330115452,Correct,1.0,0.9875,
7,22,118,A,33.85635645996034,45.81671097102011,1.692817822998017,0.7196872129910182,A,756.8300829734653,Correct,sub_007_day_22_data.csv,1,320,,Dual-Task at home,4.0,5.0,big,small,False,Size,left,left,1269.6702090324834,Correct,1.0,0.9875,
7,22,119,B,78.74610311872416,61.690464893675085,3.937305155936208,0.9690315565325436,B,900.6980420090258,Correct,sub_007_day_22_data.csv,1,320,,Dual-Task at home,7.0,8.0,small,big,True,Value,right,right,218.4001669520512,Correct,1.0,0.9875,
7,22,120,A,57.66327579576088,66.39371277917812,2.8831637897880444,1.0429100015580837,A,746.1974169127643,Correct,sub_007_day_22_data.csv,1,320,,Dual-Task at home,3.0,8.0,big,small,False,Value,right,right,895.0631250627339,Correct,1.0,0.9875,
7,22,121,A,47.36004738616551,59.62535424004914,2.3680023693082757,0.936592874241137,A,865.632291068323,Correct,sub_007_day_22_data.csv,1,320,,Dual-Task at home,8.0,7.0,small,big,False,Value,left,left,1033.661958994344,Correct,1.0,0.9875,
7,22,122,B,44.14855837018759,31.42671962793225,2.2074279185093792,0.4936497575476905,B,1053.5789169371128,Correct,sub_007_day_22_data.csv,1,320,,Dual-Task at home,6.0,5.0,small,big,False,Size,right,right,976.5006250236185,Correct,1.0,0.9875,
7,22,123,A,61.03311058329049,69.9980096719557,3.0516555291645244,1.0995261647566164,A,1430.1448329351842,Correct,sub_007_day_22_data.csv,1,320,,Dual-Task at home,2.0,5.0,big,small,False,Size,left,left,619.525833055377,Correct,1.0,0.9875,
7,22,124,B,73.22291176719489,62.54618090089977,3.661145588359744,0.9824731121418246,A,1855.512541020289,Incorrect,sub_007_day_22_data.csv,0,320,,Dual-Task at home,7.0,8.0,big,small,False,Value,right,left,2066.8096248991787,Incorrect,0.0,0.9875,
7,22,125,B,32.67240045770468,14.093197389490827,1.633620022885234,0.2213754269220762,B,1283.8975000195203,Correct,sub_007_day_22_data.csv,1,320,,Dual-Task at home,5.0,8.0,small,big,True,Size,right,right,201.5404999256134,Correct,1.0,0.9875,
7,22,126,A,28.018766140700272,39.51720934682151,1.4009383070350137,0.6207348728717218,A,1589.9837920442224,Correct,sub_007_day_22_data.csv,1,320,,Dual-Task at home,7.0,8.0,big,small,False,Size,left,left,537.1662090765312,Correct,1.0,0.9875,
7,22,127,B,45.239413742299455,32.86973167584639,2.2619706871149727,0.5163165377915337,B,1070.6552079645917,Correct,sub_007_day_22_data.csv,1,320,,Dual-Task at home,2.0,3.0,big,small,False,Size,left,left,631.597625091672,Correct,1.0,0.9875,
7,22,128,B,81.55385376211123,51.66797561655341,4.077692688105561,0.811598663114104,B,676.1501670116559,Correct,sub_007_day_22_data.csv,1,320,,Dual-Task at home,3.0,8.0,small,big,True,Value,right,right,226.49337502662092,Correct,1.0,0.9875,
7,22,129,A,19.52078385821151,44.36316043381244,0.9760391929105754,0.6968548945444528,A,652.7751249959692,Correct,sub_007_day_22_data.csv,1,320,,Dual-Task at home,4.0,3.0,small,big,False,Size,right,right,624.4732500053942,Correct,1.0,0.9875,
7,22,130,B,80.54871019467117,62.83440985700061,4.027435509733559,0.987000601997016,B,1000.1520409714432,Correct,sub_007_day_22_data.csv,1,320,,Dual-Task at home,2.0,8.0,big,small,False,Size,left,left,588.501000078395,Correct,1.0,0.9875,
7,22,131,B,86.81030091168438,60.22310904745808,4.340515045584219,0.9459823847991566,B,1263.807583018206,Correct,sub_007_day_22_data.csv,1,320,,Dual-Task at home,7.0,4.0,small,big,False,Size,right,right,914.4259160384536,Correct,1.0,0.9875,
7,22,132,A,11.205521802590416,33.23736756439716,0.5602760901295207,0.522091348824869,A,600.1007920131087,Correct,sub_007_day_22_data.csv,1,320,,Dual-Task at home,2.0,6.0,big,small,False,Size,left,left,478.8059579441324,Correct,1.0,0.9875,
7,22,133,A,28.48209330447276,38.725069509501616,1.424104665223638,0.6082919694040219,A,1380.7847499847412,Correct,sub_007_day_22_data.csv,1,320,,Dual-Task at home,8.0,2.0,small,big,False,Value,left,left,596.4680420001969,Correct,1.0,0.9875,
7,22,134,A,50.137460322546104,76.894826919164,2.5068730161273054,1.2078611167415214,A,855.5341669125482,Correct,sub_007_day_22_data.csv,1,320,,Dual-Task at home,3.0,6.0,big,small,False,Size,left,left,665.9492090111598,Correct,1.0,0.9875,
7,22,135,A,34.62437312891826,57.43405787642472,1.7312186564459129,0.9021720714521346,A,1145.1232919935137,Correct,sub_007_day_22_data.csv,1,320,,Dual-Task at home,3.0,8.0,big,small,False,Size,left,left,877.3190419888124,Correct,1.0,0.9875,
7,22,136,B,56.065663540809126,25.90546594190132,2.803283177040456,0.4069221074544889,B,893.3742500375956,Correct,sub_007_day_22_data.csv,1,320,,Dual-Task at home,6.0,2.0,small,big,False,Value,left,left,909.1026249807328,Correct,1.0,0.9875,
7,22,137,A,61.20954871835042,77.02809692695082,3.0604774359175213,1.209954517128556,A,636.8260839954019,Correct,sub_007_day_22_data.csv,1,320,,Dual-Task at home,7.0,2.0,small,big,False,Size,right,right,790.456417016685,Correct,1.0,0.9875,
7,22,138,B,49.70907205735201,22.81235308851388,2.4854536028676004,0.3583356043698582,B,1237.8869169624522,Correct,sub_007_day_22_data.csv,1,320,,Dual-Task at home,7.0,5.0,small,big,False,Value,left,left,755.9435000875965,Correct,1.0,0.9875,
7,22,139,A,67.58226583167945,86.77845100418011,3.3791132915839728,1.36311272082317,A,1272.3312920425087,Correct,sub_007_day_22_data.csv,1,320,,Dual-Task at home,2.0,6.0,big,small,False,Value,right,right,734.8337919684127,Correct,1.0,0.9875,
7,22,140,A,56.95629772242466,70.95465210659493,2.847814886121233,1.114553068980491,A,1712.361291050911,Correct,sub_007_day_22_data.csv,1,320,,Dual-Task at home,4.0,6.0,small,big,True,Size,right,right,454.5647499617189,Correct,1.0,0.9875,
7,22,141,B,85.73205130466981,57.79150767526622,4.2866025652334905,0.9077868797624724,B,833.1060420023277,Correct,sub_007_day_22_data.csv,1,320,,Dual-Task at home,6.0,2.0,small,big,False,Value,left,left,768.205082975328,Correct,1.0,0.9875,
7,22,142,B,38.9036301146557,26.060910154346377,1.9451815057327848,0.409363819433791,B,756.3551670173183,Correct,sub_007_day_22_data.csv,1,320,,Dual-Task at home,8.0,3.0,small,big,False,Size,right,right,578.7003749283031,Correct,1.0,0.9875,
7,22,143,A,46.00995859278565,53.55937077267944,2.300497929639283,0.8413086287517081,A,879.2424580315128,Correct,sub_007_day_22_data.csv,1,320,,Dual-Task at home,5.0,8.0,big,small,False,Size,left,left,1187.3059580102563,Correct,1.0,0.9875,
7,22,144,B,64.56743933050032,50.01082020716854,3.2283719665250157,0.7855681268142032,B,1463.0172500619665,Correct,sub_007_day_22_data.csv,1,320,,Dual-Task at home,8.0,3.0,small,big,False,Size,right,right,478.0111660948023,Correct,1.0,0.9875,
7,22,145,A,49.688028641037214,63.476434785748815,2.4844014320518606,0.9970855059949004,A,1339.5922500640154,Correct,sub_007_day_22_data.csv,1,320,,Dual-Task at home,8.0,4.0,small,big,False,Value,left,left,397.00799994170666,Correct,1.0,0.9875,
7,22,146,A,60.02277606578046,72.6970344942068,3.0011388032890234,1.1419223475238194,A,731.395540991798,Correct,sub_007_day_22_data.csv,1,320,,Dual-Task at home,2.0,3.0,big,small,False,Value,right,right,1197.056542034261,Correct,1.0,0.9875,
7,22,147,B,45.72537726149147,28.84200818594694,2.2862688630745733,0.453049205158738,B,941.8869169894606,Correct,sub_007_day_22_data.csv,1,320,,Dual-Task at home,2.0,8.0,small,big,True,Size,right,right,205.02987504005432,Correct,1.0,0.9875,
7,22,148,A,35.2242607220536,62.90285837554631,1.76121303610268,0.9880757888120774,A,923.7792080966756,Correct,sub_007_day_22_data.csv,1,320,,Dual-Task at home,3.0,6.0,small,big,True,Value,right,right,188.94029199145737,Correct,1.0,0.9875,
7,22,149,A,41.77687698895016,55.28495074688535,2.088843849447508,0.8684139756024428,A,854.1954170214012,Correct,sub_007_day_22_data.csv,1,320,,Dual-Task at home,6.0,5.0,small,big,False,Value,left,left,711.0452499473467,Correct,1.0,0.9875,
7,22,150,A,44.82888683789865,64.78763333917883,2.241444341894933,1.0176817647091667,A,685.913790948689,Correct,sub_007_day_22_data.csv,1,320,,Dual-Task at home,4.0,6.0,big,small,False,Value,right,right,534.570625051856,Correct,1.0,0.9875,
7,22,151,B,75.42457096661667,50.89529421189414,3.7712285483308334,0.7994614119918888,B,775.1002920558676,Correct,sub_007_day_22_data.csv,1,320,,Dual-Task at home,5.0,8.0,big,small,False,Size,left,left,741.1527090007439,Correct,1.0,0.9875,
7,22,152,A,22.785870665565305,54.47126411085574,1.1392935332782654,0.8556326158120687,A,900.6845420226455,Correct,sub_007_day_22_data.csv,1,320,,Dual-Task at home,5.0,7.0,small,big,True,Value,right,right,397.0077499980107,Correct,1.0,0.9875,
7,22,153,B,57.50483270845591,49.47722171517023,2.8752416354227956,0.777186381302061,B,963.9147920534016,Correct,sub_007_day_22_data.csv,1,320,,Dual-Task at home,2.0,6.0,big,small,False,Size,left,left,513.0473340395838,Correct,1.0,0.9875,
7,22,154,A,23.8493994107052,54.65256918016389,1.19246997053526,0.858480549181054,A,767.17920799274,Correct,sub_007_day_22_data.csv,1,320,,Dual-Task at home,5.0,2.0,small,big,False,Size,right,right,1343.0422499077397,Correct,1.0,0.9875,
7,22,155,B,56.29191575882019,28.44475582849327,2.8145957879410095,0.4468091797197496,B,778.6358749726787,Correct,sub_007_day_22_data.csv,1,320,,Dual-Task at home,6.0,8.0,big,small,False,Value,right,right,1132.0971669629216,Correct,1.0,0.9875,
7,22,156,A,54.5610534063453,69.01718828619252,2.7280526703172647,1.0841194584566298,A,708.4755419055,Correct,sub_007_day_22_data.csv,1,320,,Dual-Task at home,7.0,6.0,small,big,False,Size,right,right,627.1664999658242,Correct,1.0,0.9875,
7,22,157,A,64.82477013871264,86.74333482863776,3.241238506935632,1.3625611172276402,A,586.3409170415252,Correct,sub_007_day_22_data.csv,1,320,,Dual-Task at home,3.0,7.0,big,small,False,Size,left,left,604.8916670260951,Correct,1.0,0.9875,
7,22,158,B,73.90208786623143,58.7883649424739,3.695104393311571,0.9234454770991588,B,1997.349500074051,Correct,sub_007_day_22_data.csv,1,320,,Dual-Task at home,7.0,5.0,big,small,True,Value,left,left,175.23487494327128,Correct,1.0,0.9875,
7,22,159,A,61.07492868158415,81.69034044919577,3.0537464340792075,1.2831888671222127,A,510.75537502765656,Correct,sub_007_day_22_data.csv,1,320,,Dual-Task at home,4.0,2.0,small,big,False,Value,left,left,1126.4741249615329,Correct,1.0,0.9875,
7,22,160,A,68.83572582172167,84.70584629117542,3.4417862910860832,1.330556322122315,A,792.1172090573236,Correct,sub_007_day_22_data.csv,1,320,,Dual-Task at home,6.0,4.0,big,small,True,Size,left,left,140.94216702505946,Correct,1.0,0.9875,
7,22,161,B,56.544990614562096,34.54053801250686,2.8272495307281047,0.5425615023556527,B,874.0064579760656,Correct,sub_007_day_22_data.csv,1,320,,Dual-Task at home,3.0,5.0,big,small,False,Size,left,left,530.9934170218185,Correct,1.0,0.9875,
7,22,162,B,56.90872003891228,34.34931219899024,2.845436001945614,0.53955773430105,B,1423.2509159483016,Correct,sub_007_day_22_data.csv,1,320,,Dual-Task at home,5.0,6.0,big,small,False,Size,left,left,622.1669169608504,Correct,1.0,0.9875,
7,22,163,A,16.418967217536583,35.071400793841676,0.8209483608768292,0.5509002754251813,A,564.7217920050025,Correct,sub_007_day_22_data.csv,1,320,,Dual-Task at home,8.0,6.0,big,small,True,Value,left,left,34.85554095823318,Correct,1.0,0.9875,
7,22,164,B,53.33205146123201,21.89133793290704,2.666602573061601,0.3438683321363616,B,1306.0479160631076,Correct,sub_007_day_22_data.csv,1,320,,Dual-Task at home,4.0,8.0,big,small,False,Value,right,right,525.9432919556275,Correct,1.0,0.9875,
7,22,165,B,38.47111111229472,29.383874702760153,1.923555555614736,0.4615608245009712,B,1151.104958029464,Correct,sub_007_day_22_data.csv,1,320,,Dual-Task at home,2.0,4.0,big,small,False,Size,left,left,705.7868749834597,Correct,1.0,0.9875,
7,22,166,A,46.4387924921826,69.07193114564569,2.3219396246091297,1.0849793572821027,A,1699.588832911104,Correct,sub_007_day_22_data.csv,1,320,,Dual-Task at home,4.0,3.0,small,big,False,Value,left,left,596.2817079853266,Correct,1.0,0.9875,
7,22,167,A,15.901469615633635,34.29459172115726,0.7950734807816818,0.538698187045245,A,609.2757090227678,Correct,sub_007_day_22_data.csv,1,320,,Dual-Task at home,8.0,2.0,small,big,False,Value,left,left,415.8757920376957,Correct,1.0,0.9875,
7,22,168,B,82.06791486807832,60.97041708067995,4.103395743403916,0.9577210719348488,B,1483.4373330231756,Correct,sub_007_day_22_data.csv,1,320,,Dual-Task at home,3.0,2.0,small,big,False,Value,left,left,583.8427919661626,Correct,1.0,0.9875,
7,22,169,B,83.01594727247966,52.37657043662525,4.150797363623983,0.8227292445196511,B,716.4584170095623,Correct,sub_007_day_22_data.csv,1,320,,Dual-Task at home,4.0,7.0,big,small,False,Value,right,right,671.7401250498369,Correct,1.0,0.9875,
7,22,170,A,54.78987824003011,78.98871896551447,2.7394939120015054,1.2407518960926451,A,526.014416012913,Correct,sub_007_day_22_data.csv,1,320,,Dual-Task at home,3.0,6.0,big,small,False,Value,right,right,795.1462910277769,Correct,1.0,0.9875,
7,22,171,B,61.69675322387483,30.35929295633677,3.084837661193742,0.4768826585990398,B,597.4032080266625,Correct,sub_007_day_22_data.csv,1,320,,Dual-Task at home,4.0,5.0,big,small,False,Size,left,left,618.0227920413017,Correct,1.0,0.9875,
7,22,172,B,35.834805769058114,18.144013705005573,1.7917402884529057,0.2850055008113901,B,588.0720409331843,Correct,sub_007_day_22_data.csv,1,320,,Dual-Task at home,8.0,3.0,small,big,False,Value,left,left,631.175790913403,Correct,1.0,0.9875,
7,22,173,A,25.567931234737465,46.20553812903286,1.278396561736873,0.7257948957066636,A,1568.234167061746,Correct,sub_007_day_22_data.csv,1,320,,Dual-Task at home,6.0,4.0,small,big,False,Size,right,right,820.3372500138357,Correct,1.0,0.9875,
7,22,174,B,66.87819604974538,50.91276757572979,3.343909802487269,0.7997358829491866,B,876.8567920196801,Correct,sub_007_day_22_data.csv,1,320,,Dual-Task at home,6.0,3.0,small,big,False,Size,right,right,449.31037502828985,Correct,1.0,0.9875,
7,22,175,B,82.15645734021493,59.29536287446885,4.107822867010746,0.9314093819918614,B,1147.8012080769986,Correct,sub_007_day_22_data.csv,1,320,,Dual-Task at home,2.0,5.0,big,small,False,Value,right,right,774.4894589995965,Correct,1.0,0.9875,
7,22,176,A,41.87319726143879,48.80565923495647,2.09365986307194,0.7666375025307304,A,1513.751541962847,Correct,sub_007_day_22_data.csv,1,320,,Dual-Task at home,3.0,5.0,big,small,False,Size,left,left,514.8057920159772,Correct,1.0,0.9875,
7,22,177,B,46.93988592844321,22.80748536162214,2.3469942964221606,0.3582591422946443,B,733.545457944274,Correct,sub_007_day_22_data.csv,1,320,,Dual-Task at home,7.0,5.0,big,small,True,Value,left,left,1113.5380000341684,Correct,1.0,0.9875,
7,22,178,B,69.62978333805796,40.55997376175531,3.481489166902898,0.6371145779986263,B,678.6566660739481,Correct,sub_007_day_22_data.csv,1,320,,Dual-Task at home,2.0,5.0,big,small,False,Value,right,right,710.8235830673948,Correct,1.0,0.9875,
7,22,179,A,64.85775693640944,82.95555811959137,3.242887846820472,1.303062859814747,A,749.7098749736324,Correct,sub_007_day_22_data.csv,1,320,,Dual-Task at home,2.0,8.0,big,small,False,Value,right,right,701.9051250535995,Correct,1.0,0.9875,
7,22,180,A,35.00342737342617,43.00154182451046,1.7501713686713083,0.6754666394445815,A,1851.4797498937696,Correct,sub_007_day_22_data.csv,1,320,,Dual-Task at home,5.0,2.0,small,big,False,Value,left,left,594.9792920146137,Correct,1.0,0.9875,
7,22,181,A,52.67330378827293,60.980451736328966,2.6336651894136467,0.95787869593719,A,598.767957999371,Correct,sub_007_day_22_data.csv,1,320,,Dual-Task at home,4.0,2.0,small,big,False,Value,left,left,464.65512504801154,Correct,1.0,0.9875,
7,22,182,A,11.91311305200933,37.725572434420755,0.5956556526004665,0.5925919060622293,A,569.8918330017477,Correct,sub_007_day_22_data.csv,1,320,,Dual-Task at home,8.0,7.0,small,big,False,Size,right,right,659.9772080080584,Correct,1.0,0.9875,
7,22,183,B,33.66135634810922,14.98143527347247,1.6830678174054612,0.2353278349768605,B,687.6387500669807,Correct,sub_007_day_22_data.csv,1,320,,Dual-Task at home,5.0,6.0,big,small,False,Size,left,left,406.5124590415507,Correct,1.0,0.9875,
7,22,184,B,63.271384452426005,31.79788863416576,3.1635692226213,0.4994800666638077,B,868.8008749159053,Correct,sub_007_day_22_data.csv,1,320,,Dual-Task at home,5.0,8.0,big,small,False,Size,left,left,1518.782209022902,Correct,1.0,0.9875,
7,22,185,A,63.00939266574672,82.28200073790511,3.1504696332873356,1.292482645204363,A,615.066249971278,Correct,sub_007_day_22_data.csv,1,320,,Dual-Task at home,8.0,2.0,small,big,False,Size,right,right,1480.1208750577644,Correct,1.0,0.9875,
7,22,186,B,59.2478931959513,28.905155168026937,2.962394659797565,0.4540411156337323,B,1056.3902499852702,Correct,sub_007_day_22_data.csv,1,320,,Dual-Task at home,8.0,6.0,big,small,True,Value,left,left,217.75745903141797,Correct,1.0,0.9875,
7,22,187,B,70.56278176565739,48.445470166891525,3.52813908828287,0.7609796658800494,B,1453.2590000890195,Correct,sub_007_day_22_data.csv,1,320,,Dual-Task at home,6.0,3.0,small,big,False,Size,right,right,1189.131124992855,Correct,1.0,0.9875,
7,22,188,B,41.10553123108856,27.85762221592096,2.055276561554428,0.4375865065000854,B,684.9074159981683,Correct,sub_007_day_22_data.csv,1,320,,Dual-Task at home,5.0,2.0,small,big,False,Value,left,left,682.2972089285031,Correct,1.0,0.9875,
7,22,189,A,46.88922083948792,78.09190622401402,2.344461041974396,1.2266647944909277,A,597.8806250495836,Correct,sub_007_day_22_data.csv,1,320,,Dual-Task at home,3.0,5.0,big,small,False,Size,left,left,575.0040829880163,Correct,1.0,0.9875,
7,22,190,B,72.14546534886311,42.13171731108018,3.607273267443156,0.661803467938057,B,721.7130409553647,Correct,sub_007_day_22_data.csv,1,320,,Dual-Task at home,3.0,5.0,big,small,False,Size,left,left,1321.7365000164136,Correct,1.0,0.9875,
7,22,191,A,43.097857931314905,67.17067514977201,2.1548928965657455,1.055114497935951,A,586.9086669990793,Correct,sub_007_day_22_data.csv,1,320,,Dual-Task at home,4.0,6.0,big,small,False,Size,left,left,474.9143330845982,Correct,1.0,0.9875,
7,22,192,B,71.66493470152575,58.09457954354512,3.5832467350762873,0.912547521536946,B,1634.164624963887,Correct,sub_007_day_22_data.csv,1,320,,Dual-Task at home,3.0,2.0,small,big,False,Value,left,left,803.5878330701962,Correct,1.0,0.9875,
7,22,193,A,42.216828404800545,72.09328918586336,2.110841420240027,1.132438738397164,A,720.792124979198,Correct,sub_007_day_22_data.csv,1,320,,Dual-Task at home,4.0,8.0,small,big,True,Value,right,right,207.28020800743252,Correct,1.0,0.9875,
7,22,194,B,68.44438384019875,53.03412779960162,3.4222191920099374,0.8330581314238533,B,1718.1637090398,Correct,sub_007_day_22_data.csv,1,320,,Dual-Task at home,2.0,4.0,big,small,False,Value,right,right,538.5087499162182,Correct,1.0,0.9875,
7,22,195,B,46.0712077367954,34.358494396058404,2.30356038683977,0.5397019679153158,B,1033.083875081502,Correct,sub_007_day_22_data.csv,1,320,,Dual-Task at home,3.0,5.0,big,small,False,Size,left,left,749.4543339125812,Correct,1.0,0.9875,
7,22,196,B,59.44056374614887,52.315354004986055,2.9720281873074437,0.8217676590600677,B,1731.9277500500905,Correct,sub_007_day_22_data.csv,1,320,,Dual-Task at home,5.0,8.0,big,small,False,Size,left,left,565.070915967226,Correct,1.0,0.9875,
7,22,197,A,35.728248993133825,61.11560828215012,1.786412449656691,0.9600017299943716,A,1856.0610839631408,Correct,sub_007_day_22_data.csv,1,320,,Dual-Task at home,8.0,7.0,small,big,False,Size,right,right,797.9803340276703,Correct,1.0,0.9875,
7,22,198,B,68.89937226623634,35.54560594762657,3.444968613311817,0.5583490725623064,B,654.865000047721,Correct,sub_007_day_22_data.csv,1,320,,Dual-Task at home,3.0,6.0,big,small,False,Value,right,right,696.8105420237407,Correct,1.0,0.9875,
7,22,199,B,47.17693890319657,37.9053064920335,2.3588469451598284,0.5954151620372098,B,874.0474579390138,Correct,sub_007_day_22_data.csv,1,320,,Dual-Task at home,6.0,2.0,small,big,False,Size,right,left,847.0011670142412,Incorrect,0.0,0.9875,
7,22,200,B,76.29958021541592,61.82021288742197,3.814979010770796,0.9710696332524094,B,1272.5984590360897,Correct,sub_007_day_22_data.csv,1,320,,Dual-Task at home,8.0,3.0,small,big,False,Size,right,right,630.181249929592,Correct,1.0,0.9875,
7,22,201,B,88.4752379687865,62.54597547932149,4.4237618984393245,0.9824698853872186,B,1110.4232500074431,Correct,sub_007_day_22_data.csv,1,320,,Dual-Task at home,2.0,8.0,big,small,False,Value,right,right,823.9422080805525,Correct,1.0,0.9875,
7,22,202,B,46.820092590149514,20.626566476063445,2.3410046295074753,0.3240013485499122,B,756.0906669823453,Correct,sub_007_day_22_data.csv,1,320,,Dual-Task at home,3.0,7.0,big,small,False,Value,right,right,571.9041670672596,Correct,1.0,0.9875,
7,22,203,A,24.444944442444207,55.89980626878341,1.2222472221222105,0.878072103555513,A,968.8454589340836,Correct,sub_007_day_22_data.csv,1,320,,Dual-Task at home,4.0,5.0,small,big,True,Value,right,right,105.17516592517497,Correct,1.0,0.9875,
7,22,204,B,72.28920296773099,52.75231549944964,3.6144601483865495,0.8286314341646098,B,1103.4327920060605,Correct,sub_007_day_22_data.csv,1,320,,Dual-Task at home,3.0,7.0,big,small,False,Value,right,right,658.6673749843612,Correct,1.0,0.9875,
7,22,205,B,85.2058443974043,59.464894889866684,4.260292219870215,0.9340723846624722,B,998.785667004995,Correct,sub_007_day_22_data.csv,1,320,,Dual-Task at home,2.0,6.0,big,small,False,Size,left,left,664.7434999467805,Correct,1.0,0.9875,
7,22,206,A,33.72172577483613,51.09041865311012,1.6860862887418064,0.8025264195471885,A,841.7752500390634,Correct,sub_007_day_22_data.csv,1,320,,Dual-Task at home,5.0,4.0,small,big,False,Size,right,right,464.3045420525595,Correct,1.0,0.9875,
7,22,207,B,44.44248135653852,24.536050410988075,2.222124067826926,0.3854113785963449,B,934.3629999784752,Correct,sub_007_day_22_data.csv,1,320,,Dual-Task at home,6.0,5.0,small,big,False,Value,left,left,748.2176669873297,Correct,1.0,0.9875,
7,22,208,B,70.2791280228037,37.72752502463415,3.513956401140186,0.5926225772775786,B,673.7277500797063,Correct,sub_007_day_22_data.csv,1,320,,Dual-Task at home,6.0,3.0,small,big,False,Size,right,right,793.6253329971805,Correct,1.0,0.9875,
7,22,209,B,68.42899041193103,39.871080185757755,3.421449520596551,0.6262934630113307,B,1166.388125042431,Correct,sub_007_day_22_data.csv,1,320,,Dual-Task at home,6.0,2.0,small,big,False,Size,right,right,1129.8255840083584,Correct,1.0,0.9875,
7,22,210,B,68.4156247071872,48.76151207403881,3.4207812353593603,0.7659440405486516,B,1727.917582960799,Correct,sub_007_day_22_data.csv,1,320,,Dual-Task at home,4.0,5.0,big,small,False,Value,right,right,822.7205839939415,Correct,1.0,0.9875,
7,22,211,A,55.06732277310714,83.32544959058475,2.753366138655357,1.3088731014542387,A,730.0784999970347,Correct,sub_007_day_22_data.csv,1,320,,Dual-Task at home,3.0,5.0,big,small,False,Value,right,right,467.52620895858854,Correct,1.0,0.9875,
7,22,212,A,11.438097720988605,35.29085896293394,0.5719048860494302,0.5543475162841338,A,622.7559169055894,Correct,sub_007_day_22_data.csv,1,320,,Dual-Task at home,6.0,7.0,big,small,False,Value,right,right,516.1873750621453,Correct,1.0,0.9875,
7,22,213,B,64.15500148296897,51.69451444687721,3.207750074148448,0.8120155340860044,B,1441.71995902434,Correct,sub_007_day_22_data.csv,1,320,,Dual-Task at home,8.0,4.0,small,big,False,Value,left,left,718.3582920115441,Correct,1.0,0.9875,
7,22,214,B,80.6707822875675,62.29647148350473,4.0335391143783745,0.9785506857857226,A,1781.6768330521882,Incorrect,sub_007_day_22_data.csv,0,320,,Dual-Task at home,6.0,7.0,small,big,True,Value,right,right,234.54745905473828,Correct,1.0,0.9875,
7,22,215,B,40.44091535655536,22.44065192130607,2.022045767827768,0.3524969360887042,B,605.3477500099689,Correct,sub_007_day_22_data.csv,1,320,,Dual-Task at home,6.0,4.0,small,big,False,Size,right,right,451.9914590055123,Correct,1.0,0.9875,
7,22,216,B,85.55819341967482,58.91603179003008,4.277909670983741,0.925450863251106,B,1000.8376670302824,Correct,sub_007_day_22_data.csv,1,320,,Dual-Task at home,7.0,2.0,big,small,True,Value,left,left,118.32700006198138,Correct,1.0,0.9875,
7,22,217,B,47.166177248531525,29.47829013569524,2.3583088624265764,0.4630438986534431,B,580.4160420084372,Correct,sub_007_day_22_data.csv,1,320,,Dual-Task at home,8.0,4.0,small,big,False,Size,right,right,766.6904591023922,Correct,1.0,0.9875,
7,22,218,A,28.492060743850654,49.18369506159637,1.424603037192533,0.7725756754095586,A,658.3546668989584,Correct,sub_007_day_22_data.csv,1,320,,Dual-Task at home,3.0,4.0,big,small,False,Value,right,right,848.1808750657365,Correct,1.0,0.9875,
7,22,219,B,76.92216594097573,61.15259374027889,3.8461082970487865,0.9605826962121063,B,1820.871000061743,Correct,sub_007_day_22_data.csv,1,320,,Dual-Task at home,2.0,7.0,big,small,False,Size,left,left,995.724166976288,Correct,1.0,0.9875,
7,22,220,A,33.26657353044414,50.871434673909334,1.663328676522207,0.7990866272456333,B,769.4512089947239,Incorrect,sub_007_day_22_data.csv,0,320,,Dual-Task at home,6.0,4.0,small,big,False,Size,right,right,654.7122080810368,Correct,1.0,0.9875,
7,22,221,A,60.0544173842206,70.23402045664321,3.00272086921103,1.1032334134933277,A,664.9164579575881,Correct,sub_007_day_22_data.csv,1,320,,Dual-Task at home,2.0,4.0,big,small,False,Size,left,left,481.12979100551456,Correct,1.0,0.9875,
7,22,222,B,53.79408261055732,34.71462290272975,2.6897041305278657,0.5452960214167788,B,829.9262090586126,Correct,sub_007_day_22_data.csv,1,320,,Dual-Task at home,8.0,2.0,small,big,False,Value,left,left,668.9959580544382,Correct,1.0,0.9875,
7,22,223,A,51.017194828864575,69.0225363165536,2.5508597414432286,1.0842034651210974,A,901.3356250943616,Correct,sub_007_day_22_data.csv,1,320,,Dual-Task at home,4.0,8.0,small,big,True,Value,right,right,225.7154999533668,Correct,1.0,0.9875,
7,22,224,B,61.157528689752326,41.21200099208758,3.0578764344876164,0.6473565977823881,B,1044.457707903348,Correct,sub_007_day_22_data.csv,1,320,,Dual-Task at home,2.0,3.0,big,small,False,Value,right,right,743.0080419871956,Correct,1.0,0.9875,
7,22,225,B,56.14523170194886,23.599914548603753,2.8072615850974434,0.3707065908562021,B,1034.8417919594797,Correct,sub_007_day_22_data.csv,1,320,,Dual-Task at home,2.0,7.0,big,small,False,Size,left,left,542.0630839653313,Correct,1.0,0.9875,
7,22,226,B,85.962475485999,69.09817771927831,4.29812377429995,1.0853916374966337,B,1263.513374957256,Correct,sub_007_day_22_data.csv,1,320,,Dual-Task at home,5.0,3.0,small,big,False,Value,left,left,597.7064170874655,Correct,1.0,0.9875,
7,22,227,A,46.05418792196929,77.92027750886382,2.3027093960984644,1.2239688569376228,A,622.7269580122083,Correct,sub_007_day_22_data.csv,1,320,,Dual-Task at home,7.0,8.0,big,small,False,Value,right,right,534.5906250877306,Correct,1.0,0.9875,
7,22,228,A,23.758139929739244,54.87094572758725,1.1879069964869622,0.8619107999665617,A,784.7890839911997,Correct,sub_007_day_22_data.csv,1,320,,Dual-Task at home,7.0,4.0,big,small,True,Value,left,left,228.8364579435438,Correct,1.0,0.9875,
7,22,229,A,26.147242178630993,49.71044377411724,1.3073621089315497,0.7808498248372758,A,707.9028330044821,Correct,sub_007_day_22_data.csv,1,320,,Dual-Task at home,7.0,2.0,big,small,True,Size,left,left,61.705625033937395,Correct,1.0,0.9875,
7,22,230,B,41.87745811082048,24.1906653382727,2.093872905541025,0.3799860825608337,B,1011.1920830095188,Correct,sub_007_day_22_data.csv,1,320,,Dual-Task at home,7.0,5.0,small,big,False,Value,left,left,691.1255409941077,Correct,1.0,0.9875,
7,22,231,A,62.55410191401531,77.60705436047209,3.1277050957007657,1.2190487592280144,A,917.7797079319134,Correct,sub_007_day_22_data.csv,1,320,,Dual-Task at home,2.0,8.0,small,big,True,Size,right,right,190.8055830281228,Correct,1.0,0.9875,
7,22,232,B,64.14770123777565,42.98326611251631,3.2073850618887825,0.6751795652318817,B,757.1077089523897,Correct,sub_007_day_22_data.csv,1,320,,Dual-Task at home,3.0,6.0,big,small,False,Size,left,left,830.6667919969186,Correct,1.0,0.9875,
7,22,233,A,56.18266622052715,76.93636859776593,2.8091333110263577,1.2085136519030897,A,678.3729169983417,Correct,sub_007_day_22_data.csv,1,320,,Dual-Task at home,5.0,6.0,big,small,False,Value,right,right,527.705582906492,Correct,1.0,0.9875,
7,22,234,A,61.74882004067916,81.73709391730611,3.087441002033958,1.283923268881939,A,784.9460829747841,Correct,sub_007_day_22_data.csv,1,320,,Dual-Task at home,3.0,4.0,big,small,False,Size,left,left,1600.9493329329416,Correct,1.0,0.9875,
7,22,235,A,46.21600100471998,72.20298184693752,2.310800050235999,1.1341617866880804,A,938.1203750381246,Correct,sub_007_day_22_data.csv,1,320,,Dual-Task at home,8.0,7.0,small,big,False,Value,left,left,1395.732415956445,Correct,1.0,0.9875,
7,22,236,A,57.2263148603523,73.74880999998591,2.8613157430176153,1.158443598534726,A,1362.614333978854,Correct,sub_007_day_22_data.csv,1,320,,Dual-Task at home,2.0,3.0,big,small,False,Value,right,right,704.7220419626683,Correct,1.0,0.9875,
7,22,237,A,46.13179142120149,61.37859826994324,2.306589571060074,0.9641327670624644,A,1524.4616670534017,Correct,sub_007_day_22_data.csv,1,320,,Dual-Task at home,3.0,8.0,big,small,False,Size,left,left,540.9608749905601,Correct,1.0,0.9875,
7,22,238,A,46.84560250271533,77.61286195276557,2.3422801251357668,1.2191399846744353,A,1076.348999980837,Correct,sub_007_day_22_data.csv,1,320,,Dual-Task at home,2.0,8.0,big,small,False,Size,left,left,789.0670839697123,Correct,1.0,0.9875,
7,22,239,A,46.77936719403019,72.29961122959722,2.3389683597015094,1.1356796374815037,A,1041.153124999255,Correct,sub_007_day_22_data.csv,1,320,,Dual-Task at home,5.0,8.0,big,small,False,Value,right,right,1001.6330829821528,Correct,1.0,0.9875,
7,22,240,B,57.36537703259125,27.752902005486465,2.868268851629562,0.4359415652811685,B,985.4300000006332,Correct,sub_007_day_22_data.csv,1,320,,Dual-Task at home,2.0,7.0,big,small,False,Size,left,left,724.3426670320332,Correct,1.0,0.9875,
7,22,241,B,51.56912192885224,25.21707880512725,2.578456096442612,0.3961089475959132,B,1023.5017499653624,Correct,sub_007_day_22_data.csv,1,320,,Dual-Task at home,4.0,5.0,small,big,True,Value,right,right,349.9593330780044,Correct,1.0,0.9875,
7,22,242,A,38.76401438885928,65.20449318544975,1.938200719442964,1.0242297838622734,A,716.5552080841735,Correct,sub_007_day_22_data.csv,1,320,,Dual-Task at home,5.0,2.0,small,big,False,Value,left,left,458.69020803365856,Correct,1.0,0.9875,
7,22,243,A,34.106399103416784,66.19681628101705,1.7053199551708391,1.039817158597382,A,1111.6750419605523,Correct,sub_007_day_22_data.csv,1,320,,Dual-Task at home,3.0,5.0,big,small,False,Value,right,right,418.5275830095634,Correct,1.0,0.9875,
7,22,244,A,27.35999963754791,38.39794559677875,1.3679999818773956,0.6031535189989033,A,547.1837919903919,Correct,sub_007_day_22_data.csv,1,320,,Dual-Task at home,2.0,8.0,big,small,False,Size,left,left,643.1965419324115,Correct,1.0,0.9875,
7,22,245,A,42.27372252572241,59.04553759481021,2.1136861262861206,0.9274851356755784,A,1015.254917088896,Correct,sub_007_day_22_data.csv,1,320,,Dual-Task at home,3.0,6.0,big,small,False,Size,left,left,478.2730420120061,Correct,1.0,0.9875,
7,22,246,B,36.75856760935133,14.325098639757964,1.8379283804675663,0.2250181232430637,B,665.0418330682442,Correct,sub_007_day_22_data.csv,1,320,,Dual-Task at home,2.0,7.0,big,small,False,Size,left,left,491.6194590041414,Correct,1.0,0.9875,
7,22,247,A,31.68239196569132,55.30135404521421,1.584119598284566,0.8686716380100657,A,829.9342499813065,Correct,sub_007_day_22_data.csv,1,320,,Dual-Task at home,8.0,2.0,big,small,True,Size,left,left,428.893500007689,Correct,1.0,0.9875,
7,22,248,A,48.90881378603461,71.09304930922565,2.4454406893017304,1.1167270071558009,A,765.700833988376,Correct,sub_007_day_22_data.csv,1,320,,Dual-Task at home,2.0,7.0,big,small,False,Size,left,left,800.4187919432297,Correct,1.0,0.9875,
7,22,249,A,36.49747101180731,68.21245715698959,1.8248735505903655,1.071478771438535,A,870.4516249708831,Correct,sub_007_day_22_data.csv,1,320,,Dual-Task at home,4.0,7.0,big,small,False,Value,right,right,714.1654579900205,Correct,1.0,0.9875,
7,22,250,A,19.67563333025552,36.93141109023914,0.983781666512776,0.5801172488389994,A,807.8194160480052,Correct,sub_007_day_22_data.csv,1,320,,Dual-Task at home,4.0,3.0,small,big,False,Size,right,right,715.2169160544872,Correct,1.0,0.9875,
7,22,251,B,86.44780666626703,60.39101634768679,4.3223903333133515,0.9486198665035694,B,874.3145420448855,Correct,sub_007_day_22_data.csv,1,320,,Dual-Task at home,2.0,3.0,big,small,False,Value,right,right,501.3259589904919,Correct,1.0,0.9875,
7,22,252,A,18.328145394356635,41.87516986807627,0.9164072697178318,0.6577736301268653,A,1525.48124990426,Correct,sub_007_day_22_data.csv,1,320,,Dual-Task at home,5.0,7.0,big,small,False,Value,right,right,372.8352920152247,Correct,1.0,0.9875,
7,22,253,B,39.21135433241701,27.794041896201357,1.9605677166208504,0.4365877891733655,B,998.1552499812096,Correct,sub_007_day_22_data.csv,1,320,,Dual-Task at home,2.0,5.0,big,small,False,Value,right,right,883.6067919619381,Correct,1.0,0.9875,
7,22,254,A,18.452487018884057,41.564090518591,0.9226243509442028,0.6528872071317333,A,998.0187920155004,Correct,sub_007_day_22_data.csv,1,320,,Dual-Task at home,3.0,8.0,big,small,False,Value,right,right,962.1237920364364,Correct,1.0,0.9875,
7,22,255,B,77.03155176855442,59.23905210707538,3.8515775884277215,0.9305248545260548,B,1350.8271670434624,Correct,sub_007_day_22_data.csv,1,320,,Dual-Task at home,5.0,4.0,small,big,False,Value,left,left,570.8669580053538,Correct,1.0,0.9875,
7,22,256,A,26.375413846851984,53.87785814045283,1.3187706923425992,0.8463114166259982,A,728.2552090473473,Correct,sub_007_day_22_data.csv,1,320,,Dual-Task at home,7.0,8.0,big,small,False,Value,right,right,459.30550002958626,Correct,1.0,0.9875,
7,22,257,A,48.924818570749025,65.95356711502947,2.4462409285374513,1.03599620963309,A,627.9670420335606,Correct,sub_007_day_22_data.csv,1,320,,Dual-Task at home,2.0,7.0,big,small,False,Size,left,left,816.0440409556031,Correct,1.0,0.9875,
7,22,258,A,61.02847893964895,76.5595867677935,3.0514239469824473,1.202595176757852,A,724.3586250115186,Correct,sub_007_day_22_data.csv,1,320,,Dual-Task at home,4.0,8.0,big,small,False,Size,left,left,775.8813330437988,Correct,1.0,0.9875,
7,22,259,B,49.78634833913577,34.1536404366503,2.4893174169567884,0.5364841294456393,B,784.5396670745686,Correct,sub_007_day_22_data.csv,1,320,,Dual-Task at home,3.0,4.0,big,small,False,Value,right,right,482.172750052996,Correct,1.0,0.9875,
7,22,260,A,66.46494852453404,80.66058372261777,3.323247426226702,1.267013486286202,A,772.4175839684904,Correct,sub_007_day_22_data.csv,1,320,,Dual-Task at home,8.0,4.0,small,big,False,Value,left,left,545.1996249612421,Correct,1.0,0.9875,
7,22,261,A,44.562312440967176,67.06849929612437,2.2281156220483584,1.053509523379983,A,707.8746249899268,Correct,sub_007_day_22_data.csv,1,320,,Dual-Task at home,6.0,5.0,small,big,False,Value,left,left,425.3317079273984,Correct,1.0,0.9875,
7,22,262,A,46.838663654706494,64.58712261748924,2.3419331827353247,1.0145321496580368,A,891.9126660330221,Correct,sub_007_day_22_data.csv,1,320,,Dual-Task at home,4.0,6.0,big,small,False,Size,left,left,581.9429580587894,Correct,1.0,0.9875,
7,22,263,A,20.079992339960405,40.38081065343428,1.00399961699802,0.6343002904741479,A,1097.839458961971,Correct,sub_007_day_22_data.csv,1,320,,Dual-Task at home,3.0,7.0,big,small,False,Size,left,left,616.7773749912158,Correct,1.0,0.9875,
7,22,264,A,21.74989992604531,36.30402374610662,1.0874949963022655,0.5702622714825899,A,567.9064580472186,Correct,sub_007_day_22_data.csv,1,320,,Dual-Task at home,7.0,8.0,big,small,False,Value,right,right,388.25412502046674,Correct,1.0,0.9875,
7,22,265,A,54.29347678304368,64.48497150674446,2.714673839152184,1.0129275637626776,A,895.9634170169011,Correct,sub_007_day_22_data.csv,1,320,,Dual-Task at home,3.0,6.0,big,small,False,Value,right,right,507.06124992575496,Correct,1.0,0.9875,
7,22,266,A,56.97834705329461,84.85387752807691,2.8489173526647305,1.332881591354072,A,833.1744590541348,Correct,sub_007_day_22_data.csv,1,320,,Dual-Task at home,8.0,2.0,small,big,False,Value,left,left,454.7010000096634,Correct,1.0,0.9875,
7,22,267,A,16.215811891506192,34.73296909592962,0.8107905945753096,0.5455842027456691,A,654.5899999327958,Correct,sub_007_day_22_data.csv,1,320,,Dual-Task at home,6.0,2.0,big,small,True,Size,left,left,80.01224999316037,Correct,1.0,0.9875,
7,22,268,A,62.3883604020706,77.75366874995194,3.11941802010353,1.2213517726725165,A,698.6444999929518,Correct,sub_007_day_22_data.csv,1,320,,Dual-Task at home,6.0,3.0,small,big,False,Size,right,right,699.1793330525979,Correct,1.0,0.9875,
7,22,269,B,74.56929789598317,52.999566044874825,3.728464894799158,0.832515236650129,B,1313.11375007499,Correct,sub_007_day_22_data.csv,1,320,,Dual-Task at home,3.0,2.0,big,small,True,Size,left,left,167.47958294581622,Correct,1.0,0.9875,
7,22,270,A,49.28230937720315,68.95084218829871,2.4641154688601574,1.083077296387942,A,769.4623749703169,Correct,sub_007_day_22_data.csv,1,320,,Dual-Task at home,7.0,3.0,big,small,True,Size,left,left,188.96720802877095,Correct,1.0,0.9875,
7,22,271,A,54.4949864164215,65.8281753291542,2.724749320821075,1.0340265600664589,A,749.1453329566866,Correct,sub_007_day_22_data.csv,1,320,,Dual-Task at home,5.0,7.0,big,small,False,Value,right,right,906.1345420777798,Correct,1.0,0.9875,
7,22,272,A,33.69482658435384,42.514013258364145,1.684741329217692,0.6678085586354794,A,943.8469999004157,Correct,sub_007_day_22_data.csv,1,320,,Dual-Task at home,4.0,3.0,big,small,True,Value,left,left,14.408958028070629,Correct,1.0,0.9875,
7,22,273,A,19.487341755271224,32.43397088849379,0.9743670877635612,0.5094716233501866,A,743.9012909308076,Correct,sub_007_day_22_data.csv,1,320,,Dual-Task at home,3.0,8.0,big,small,False,Value,right,right,465.1237500365823,Correct,1.0,0.9875,
7,22,274,B,70.20304734163587,50.22775006294548,3.510152367081793,0.788975653020469,B,878.9510829374194,Correct,sub_007_day_22_data.csv,1,320,,Dual-Task at home,2.0,6.0,big,small,False,Value,right,right,598.909999942407,Correct,1.0,0.9875,
7,22,275,B,73.84905919642344,51.716205141660026,3.692452959821172,0.8123562507229091,B,919.6402920642868,Correct,sub_007_day_22_data.csv,1,320,,Dual-Task at home,4.0,3.0,small,big,False,Size,right,right,889.6647080546245,Correct,1.0,0.9875,
7,22,276,A,41.90546818274417,67.14383338755324,2.0952734091372087,1.0546928685209715,A,1075.2595419762656,Correct,sub_007_day_22_data.csv,1,320,,Dual-Task at home,4.0,6.0,big,small,False,Value,right,right,1184.9119999678803,Correct,1.0,0.9875,
7,22,277,A,31.45505198199044,50.522123698885245,1.572752599099522,0.7935996632808634,A,851.0439590318128,Correct,sub_007_day_22_data.csv,1,320,,Dual-Task at home,3.0,6.0,big,small,False,Value,right,right,492.6508329808712,Correct,1.0,0.9875,
7,22,278,B,57.092157525406336,43.233644845719,2.8546078762703164,0.6791125051761051,B,971.7533340444788,Correct,sub_007_day_22_data.csv,1,320,,Dual-Task at home,6.0,4.0,small,big,False,Size,right,right,580.7831670390442,Correct,1.0,0.9875,
7,22,279,B,68.04677707514276,36.05087965222499,3.4023388537571377,0.5662858933543989,B,692.2053330345079,Correct,sub_007_day_22_data.csv,1,320,,Dual-Task at home,3.0,6.0,big,small,False,Size,left,left,982.353457948193,Correct,1.0,0.9875,
7,22,280,A,16.09813712463177,41.91106799159672,0.8049068562315884,0.6583375165325129,A,523.5138339921832,Correct,sub_007_day_22_data.csv,1,320,,Dual-Task at home,4.0,5.0,big,small,False,Value,right,right,619.6859999326989,Correct,1.0,0.9875,
7,22,281,B,51.92300810395369,41.587076692634454,2.5961504051976845,0.6532482731092786,B,1269.963999977335,Correct,sub_007_day_22_data.csv,1,320,,Dual-Task at home,8.0,2.0,small,big,False,Size,right,right,781.8097909912467,Correct,1.0,0.9875,
7,22,282,B,60.095405754469446,33.648352579166314,3.0047702877234723,0.5285470863405403,B,697.5408339640126,Correct,sub_007_day_22_data.csv,1,320,,Dual-Task at home,5.0,3.0,small,big,False,Size,right,right,651.6571670072153,Correct,1.0,0.9875,
7,22,283,A,32.56359435859053,51.42444969056511,1.6281797179295263,0.8077733668138863,A,779.3073339853436,Correct,sub_007_day_22_data.csv,1,320,,Dual-Task at home,3.0,6.0,big,small,False,Size,left,left,1160.41808295995,Correct,1.0,0.9875,
7,22,284,A,65.65832425589785,78.72275419547381,3.282916212794893,1.236574131254278,A,1863.118875073269,Correct,sub_007_day_22_data.csv,1,320,,Dual-Task at home,8.0,7.0,small,big,False,Size,right,right,516.1291249096394,Correct,1.0,0.9875,
7,22,285,A,35.5067483645211,46.401665130383705,1.7753374182260553,0.7288756514397355,A,544.4129169918597,Correct,sub_007_day_22_data.csv,1,320,,Dual-Task at home,4.0,5.0,big,small,False,Value,right,right,517.1137090073898,Correct,1.0,0.9875,
7,22,286,B,57.92668515219744,37.82137583163246,2.8963342576098716,0.5940967823065755,B,688.8458330649883,Correct,sub_007_day_22_data.csv,1,320,,Dual-Task at home,8.0,5.0,small,big,False,Value,left,left,750.0373749062419,Correct,1.0,0.9875,
7,22,287,B,64.3386046732651,33.89043100381997,3.2169302336632546,0.5323496453429629,B,800.3448330564424,Correct,sub_007_day_22_data.csv,1,320,,Dual-Task at home,6.0,5.0,small,big,False,Size,right,right,1711.4583750953898,Correct,1.0,0.9875,
7,22,288,B,58.92281056950306,34.89464244118946,2.946140528475153,0.548123761714417,B,1308.0691250506788,Correct,sub_007_day_22_data.csv,1,320,,Dual-Task at home,2.0,4.0,small,big,True,Value,right,right,281.4598750555888,Correct,1.0,0.9875,
7,22,289,B,75.80698306271289,52.80505555984266,3.790349153135645,0.8294598730960128,B,811.1166660673916,Correct,sub_007_day_22_data.csv,1,320,,Dual-Task at home,5.0,3.0,small,big,False,Size,right,right,665.4783330159262,Correct,1.0,0.9875,
7,22,290,A,50.83890363082689,64.10352150559787,2.5419451815413447,1.0069357611561078,A,671.4732079999521,Correct,sub_007_day_22_data.csv,1,320,,Dual-Task at home,4.0,3.0,small,big,False,Value,left,left,920.1834578998388,Correct,1.0,0.9875,
7,22,291,A,32.59411328879316,56.92785430626846,1.629705664439658,0.8942206443660153,A,636.7822079919279,Correct,sub_007_day_22_data.csv,1,320,,Dual-Task at home,8.0,3.0,small,big,False,Value,left,left,1119.4160000886768,Correct,1.0,0.9875,
7,22,292,B,35.18955884674348,15.021360831963936,1.7594779423371738,0.2359549841830968,B,852.086832979694,Correct,sub_007_day_22_data.csv,1,320,,Dual-Task at home,8.0,7.0,small,big,False,Size,right,right,639.1719169914722,Correct,1.0,0.9875,
7,22,293,B,60.14117753186772,50.984735196086035,3.007058876593386,0.8008663476862242,B,1219.2805000813678,Correct,sub_007_day_22_data.csv,1,320,,Dual-Task at home,2.0,7.0,big,small,False,Size,left,left,1066.1313749151304,Correct,1.0,0.9875,
7,22,294,B,52.3444917685559,40.41886157017485,2.6172245884277947,0.6348979928766205,B,746.7312500812113,Correct,sub_007_day_22_data.csv,1,320,,Dual-Task at home,8.0,7.0,small,big,False,Value,left,left,1023.8251249538736,Correct,1.0,0.9875,
7,22,295,A,41.689483746312014,74.17342173784947,2.084474187315601,1.165113384116227,A,616.3898329250515,Correct,sub_007_day_22_data.csv,1,320,,Dual-Task at home,3.0,6.0,big,small,False,Size,left,left,1945.8655829075724,Correct,1.0,0.9875,
7,22,296,A,51.39440976361449,78.05607003217088,2.5697204881807245,1.2261018809057922,A,670.0568749802187,Correct,sub_007_day_22_data.csv,1,320,,Dual-Task at home,3.0,7.0,big,small,False,Size,left,left,428.07595804333687,Correct,1.0,0.9875,
7,22,297,A,47.81159389704575,79.30888177720315,2.3905796948522875,1.2457810017784143,A,687.0014170417562,Correct,sub_007_day_22_data.csv,1,320,,Dual-Task at home,8.0,3.0,small,big,False,Size,right,right,1241.9175000395626,Correct,1.0,0.9875,
7,22,298,A,31.87737393789592,46.66312617517771,1.593868696894796,0.7329826719273594,A,2162.7914579585195,Correct,sub_007_day_22_data.csv,1,320,,Dual-Task at home,4.0,6.0,small,big,True,Size,right,right,301.70787509996444,Correct,1.0,0.9875,
7,22,299,B,37.88367096447616,25.55130934086526,1.894183548223808,0.4013590285743128,B,1137.0914169820026,Correct,sub_007_day_22_data.csv,1,320,,Dual-Task at home,2.0,7.0,big,small,False,Value,right,right,938.756583025679,Correct,1.0,0.9875,
7,22,300,B,73.27231488069474,46.47105537743175,3.663615744034737,0.7299656308915202,B,1114.428750006482,Correct,sub_007_day_22_data.csv,1,320,,Dual-Task at home,5.0,4.0,small,big,False,Size,right,right,2084.0412080287933,Correct,1.0,0.9875,
7,22,301,A,55.65574915222514,74.46909925656678,2.7827874576112572,1.1697578757193965,A,820.1724169775844,Correct,sub_007_day_22_data.csv,1,320,,Dual-Task at home,2.0,3.0,big,small,False,Value,right,right,673.1080829631537,Correct,1.0,0.9875,
7,22,302,B,39.87881986500262,29.36340079842089,1.9939409932501309,0.4612392211636587,B,574.1281249793246,Correct,sub_007_day_22_data.csv,1,320,,Dual-Task at home,3.0,7.0,big,small,False,Size,left,right,879.1906250407919,Incorrect,0.0,0.9875,
7,22,303,A,52.09567822676195,71.64514777524654,2.6047839113380973,1.1253993495803485,A,830.2567090140656,Correct,sub_007_day_22_data.csv,1,320,,Dual-Task at home,5.0,7.0,big,small,False,Value,right,right,666.8734169797972,Correct,1.0,0.9875,
7,22,304,B,61.627337478293725,29.204086262574936,3.0813668739146864,0.4587367142865401,B,1520.6530829891562,Correct,sub_007_day_22_data.csv,1,320,,Dual-Task at home,3.0,4.0,small,big,True,Size,right,right,545.3611660050228,Correct,1.0,0.9875,
7,22,305,B,37.954488339520424,27.07883008046955,1.8977244169760212,0.4253532682430472,B,1146.4336659992114,Correct,sub_007_day_22_data.csv,1,320,,Dual-Task at home,6.0,7.0,big,small,False,Value,right,right,773.6345840385184,Correct,1.0,0.9875,
7,22,306,A,25.512387116123328,53.85197383601107,1.2756193558061666,0.8459048269226105,A,784.110208041966,Correct,sub_007_day_22_data.csv,1,320,,Dual-Task at home,8.0,2.0,small,big,False,Size,right,right,340.53704096004367,Correct,1.0,0.9875,
7,22,307,A,21.92543323038538,39.86591018482443,1.096271661519269,0.6262122528265747,A,1180.351332994178,Correct,sub_007_day_22_data.csv,1,320,,Dual-Task at home,5.0,6.0,big,small,False,Size,left,left,576.2282079085708,Correct,1.0,0.9875,
7,22,308,B,66.58728053829745,48.22482724181087,3.3293640269148725,0.7575138149175497,B,931.0507089830936,Correct,sub_007_day_22_data.csv,1,320,,Dual-Task at home,3.0,4.0,big,small,False,Value,right,right,1193.0015840334818,Correct,1.0,0.9875,
7,22,309,B,76.55800670886438,49.99734686987637,3.827900335443219,0.7853564881269212,B,1188.1138749886304,Correct,sub_007_day_22_data.csv,1,320,,Dual-Task at home,7.0,2.0,small,big,False,Size,right,right,577.6838329620659,Correct,1.0,0.9875,
7,22,310,B,73.48698046535647,58.898997950609214,3.674349023267823,0.9251832963271708,B,2227.0540420431644,Correct,sub_007_day_22_data.csv,1,320,,Dual-Task at home,7.0,3.0,small,big,False,Value,left,left,591.5955420350656,Correct,1.0,0.9875,
7,22,311,B,46.96816585822699,21.141763637931316,2.34840829291135,0.3320940466442842,B,668.1387500138953,Correct,sub_007_day_22_data.csv,1,320,,Dual-Task at home,6.0,5.0,small,big,False,Size,right,right,864.7780419560149,Correct,1.0,0.9875,
7,22,312,B,70.55065038979005,56.344912130886534,3.527532519489503,0.8850638100877778,B,1534.7935419995338,Correct,sub_007_day_22_data.csv,1,320,,Dual-Task at home,5.0,8.0,big,small,False,Size,left,left,732.0506250252947,Correct,1.0,0.9875,
7,22,313,A,55.25442380184827,84.40838821120013,2.7627211900924133,1.3258838615283082,A,630.2898750873283,Correct,sub_007_day_22_data.csv,1,320,,Dual-Task at home,5.0,8.0,big,small,False,Value,right,right,692.2074999893084,Correct,1.0,0.9875,
7,22,314,A,35.728101770345276,58.63669110164429,1.786405088517264,0.9210629899786984,A,1001.4901249669492,Correct,sub_007_day_22_data.csv,1,320,,Dual-Task at home,8.0,7.0,small,big,False,Value,left,left,820.0932500185445,Correct,1.0,0.9875,
7,22,315,A,32.50267158947577,42.37020475787803,1.6251335794737884,0.6655496199922245,A,1245.338249951601,Correct,sub_007_day_22_data.csv,1,320,,Dual-Task at home,5.0,4.0,small,big,False,Size,right,right,599.8254999285564,Correct,1.0,0.9875,
7,22,316,A,12.801757160363143,34.8254648706574,0.6400878580181572,0.5470371229775335,A,599.7122919652611,Correct,sub_007_day_22_data.csv,1,320,,Dual-Task at home,4.0,2.0,small,big,False,Size,right,right,825.3990830853581,Correct,1.0,0.9875,
7,22,317,B,64.15645275572108,42.81508993139116,3.207822637786054,0.6725378599562238,B,1310.0144170457495,Correct,sub_007_day_22_data.csv,1,320,,Dual-Task at home,3.0,8.0,big,small,False,Size,left,right,1456.6185000585392,Incorrect,0.0,0.9875,
7,22,318,A,39.86988250164496,50.858143570405446,1.993494125082248,0.7988778510800034,A,847.6246250793338,Correct,sub_007_day_22_data.csv,1,320,,Dual-Task at home,5.0,7.0,big,small,False,Value,right,right,593.6311249388382,Correct,1.0,0.9875,
7,22,319,B,61.15367263513774,44.254109113262594,3.057683631756887,0.6951419204069343,B,1266.3952499860898,Correct,sub_007_day_22_data.csv,1,320,,Dual-Task at home,2.0,7.0,big,small,False,Size,left,left,1353.9922080235556,Correct,1.0,0.9875,
