subject,day,trial,cat,x,y,xt,yt,resp,rt,fb,f_name,acc,n_trials,block,session_type,ns_left_digit,ns_right_digit,ns_left_size,ns_right_size,ns_congruent,ns_cue,ns_correct_side,ns_resp,ns_rt,ns_fb,acc_stroop,acc_stroop_mean,resp_key
7,4,600,B,61.42293964364663,47.74756973254257,3.071146982182331,0.7500170714926105,A,1461.2616659724154,Incorrect,sub_007_day_04_data.csv,0,300,24.0,Training at home,,,,,,,,,,,,,
7,4,601,B,74.80723657113253,48.560136161083065,3.740361828556627,0.7627808351048931,B,1344.241167011205,Correct,sub_007_day_04_data.csv,1,300,24.0,Training at home,,,,,,,,,,,,,
7,4,602,A,34.20203733473547,45.5821673764268,1.7101018667367738,0.7160030108224138,A,589.1940830042586,Correct,sub_007_day_04_data.csv,1,300,24.0,Training at home,,,,,,,,,,,,,
7,4,603,A,23.90825051731209,37.46686117799091,1.1954125258656043,0.5885280791492243,A,588.859333016444,Correct,sub_007_day_04_data.csv,1,300,24.0,Training at home,,,,,,,,,,,,,
7,4,604,A,39.70886206302626,49.92448714578822,1.985443103151313,0.7842120102572315,A,638.0872910376638,Correct,sub_007_day_04_data.csv,1,300,24.0,Training at home,,,,,,,,,,,,,
7,4,605,A,53.5539970268878,82.90918832774926,2.67769985134439,1.3023344848277485,B,698.0034160078503,Incorrect,sub_007_day_04_data.csv,0,300,24.0,Training at home,,,,,,,,,,,,,
7,4,606,A,61.244056037489976,70.02863961574614,3.062202801874499,1.1000072987885765,A,679.8237499897368,Correct,sub_007_day_04_data.csv,1,300,24.0,Training at home,,,,,,,,,,,,,
7,4,607,B,38.87256774028623,24.71306427112072,1.9436283870143112,0.3881919058092263,A,604.5344580197707,Incorrect,sub_007_day_04_data.csv,0,300,24.0,Training at home,,,,,,,,,,,,,
7,4,608,A,15.714058783578489,41.75789624344294,0.7857029391789243,0.6559315003388259,A,577.6503329980187,Correct,sub_007_day_04_data.csv,1,300,24.0,Training at home,,,,,,,,,,,,,
7,4,609,B,77.03043028673372,46.166363780689146,3.8515215143366857,0.7251795464818347,B,990.0697490083984,Correct,sub_007_day_04_data.csv,1,300,24.0,Training at home,,,,,,,,,,,,,
7,4,610,A,45.38793441463457,52.47589252814406,2.2693967207317285,0.8242893922849245,A,1015.5751249985768,Correct,sub_007_day_04_data.csv,1,300,24.0,Training at home,,,,,,,,,,,,,
7,4,611,B,64.68855245261757,32.80393409714477,3.2344276226308786,0.5152829918421686,B,756.1039999709465,Correct,sub_007_day_04_data.csv,1,300,24.0,Training at home,,,,,,,,,,,,,
7,4,612,B,37.17408541573354,21.717547145815523,1.8587042707866772,0.3411384328364201,B,740.557748998981,Correct,sub_007_day_04_data.csv,1,300,24.0,Training at home,,,,,,,,,,,,,
7,4,613,A,29.91540512488187,39.43512841244939,1.4957702562440938,0.6194455485696057,A,804.4997500255704,Correct,sub_007_day_04_data.csv,1,300,24.0,Training at home,,,,,,,,,,,,,
7,4,614,A,56.23482867571043,79.36933091216488,2.8117414337855218,1.2467305345699724,A,1484.499667014461,Correct,sub_007_day_04_data.csv,1,300,24.0,Training at home,,,,,,,,,,,,,
7,4,615,B,57.00837964509539,27.482592362463052,2.8504189822547694,0.4316955513375844,B,656.9475410506129,Correct,sub_007_day_04_data.csv,1,300,24.0,Training at home,,,,,,,,,,,,,
7,4,616,A,42.40599586107189,65.77924138272314,2.1202997930535945,1.0332579074333637,A,1071.5163329732604,Correct,sub_007_day_04_data.csv,1,300,24.0,Training at home,,,,,,,,,,,,,
7,4,617,A,25.941566633521504,56.341012497797315,1.2970783316760752,0.8850025547944539,A,446.6416659997776,Correct,sub_007_day_04_data.csv,1,300,24.0,Training at home,,,,,,,,,,,,,
7,4,618,A,64.28288838829273,80.67218694355495,3.214144419414637,1.2671957492544732,A,1002.7874580118804,Correct,sub_007_day_04_data.csv,1,300,24.0,Training at home,,,,,,,,,,,,,
7,4,619,A,43.96726315846336,69.75825698173134,2.198363157923168,1.09576013830518,A,610.4621670092456,Correct,sub_007_day_04_data.csv,1,300,24.0,Training at home,,,,,,,,,,,,,
7,4,620,B,80.73633892127981,58.43632876508421,4.036816946063991,0.9179157057557324,B,771.2588750291616,Correct,sub_007_day_04_data.csv,1,300,24.0,Training at home,,,,,,,,,,,,,
7,4,621,A,54.46077514478695,62.927218543956606,2.7230387572393475,0.9884584374426674,A,593.2884169742465,Correct,sub_007_day_04_data.csv,1,300,24.0,Training at home,,,,,,,,,,,,,
7,4,622,B,40.28113545078922,16.889976425347253,2.014056772539462,0.2653071292858786,B,673.0178329744376,Correct,sub_007_day_04_data.csv,1,300,24.0,Training at home,,,,,,,,,,,,,
7,4,623,A,66.27392331528785,84.89013047635535,3.313696165764392,1.3334510513339848,B,1134.1389159788378,Incorrect,sub_007_day_04_data.csv,0,300,24.0,Training at home,,,,,,,,,,,,,
7,4,624,B,77.5456882331671,54.73828415126032,3.877284411658355,0.8598269567985501,B,1379.931041970849,Correct,sub_007_day_04_data.csv,1,300,24.0,Training at home,,,,,,,,,,,,,
7,4,625,A,41.44664950318774,60.82743826264882,2.0723324751593872,0.955475165913121,A,630.4119999986142,Correct,sub_007_day_04_data.csv,1,300,25.0,Training at home,,,,,,,,,,,,,
7,4,626,A,15.76599389738671,39.354175715170534,0.7882996948693355,0.618173946574308,A,498.6736659775488,Correct,sub_007_day_04_data.csv,1,300,25.0,Training at home,,,,,,,,,,,,,
7,4,627,B,50.37563332368869,25.146403176447883,2.5187816661844344,0.3949987774166786,B,931.517040997278,Correct,sub_007_day_04_data.csv,1,300,25.0,Training at home,,,,,,,,,,,,,
7,4,628,B,59.078968677803246,28.789100884245872,2.953948433890162,0.4522181392070112,B,647.5910420413129,Correct,sub_007_day_04_data.csv,1,300,25.0,Training at home,,,,,,,,,,,,,
7,4,629,B,40.690386924605896,14.970339829152902,2.034519346230294,0.2351535481450472,B,651.4802079764195,Correct,sub_007_day_04_data.csv,1,300,25.0,Training at home,,,,,,,,,,,,,
7,4,630,B,47.73216378744375,39.81896931730352,2.386608189372188,0.6254749074037906,B,983.1969579681754,Correct,sub_007_day_04_data.csv,1,300,25.0,Training at home,,,,,,,,,,,,,
7,4,631,A,37.1124837895253,51.56590394911419,1.855624189476265,0.8099953251112703,A,687.7684579812922,Correct,sub_007_day_04_data.csv,1,300,25.0,Training at home,,,,,,,,,,,,,
7,4,632,A,60.159350679590375,86.92332735335194,3.0079675339795187,1.3653884331943558,A,1012.1045830310322,Correct,sub_007_day_04_data.csv,1,300,25.0,Training at home,,,,,,,,,,,,,
7,4,633,B,73.01282107677412,46.413194915089406,3.6506410538387057,0.7290567608743801,B,1318.318083009217,Correct,sub_007_day_04_data.csv,1,300,25.0,Training at home,,,,,,,,,,,,,
7,4,634,B,38.773821072619626,29.011920785545392,1.9386910536309816,0.4557181860319922,B,804.4880420202389,Correct,sub_007_day_04_data.csv,1,300,25.0,Training at home,,,,,,,,,,,,,
7,4,635,B,75.68083608841454,60.23628847969192,3.7840418044207262,0.9461894068365782,B,1633.324124966748,Correct,sub_007_day_04_data.csv,1,300,25.0,Training at home,,,,,,,,,,,,,
7,4,636,A,38.87727977158031,49.62230140122904,1.9438639885790152,0.7794652876815982,A,1276.1909579858184,Correct,sub_007_day_04_data.csv,1,300,25.0,Training at home,,,,,,,,,,,,,
7,4,637,A,41.09800805799721,72.85637152109562,2.0549004028998605,1.144425207689413,A,696.8264159513637,Correct,sub_007_day_04_data.csv,1,300,25.0,Training at home,,,,,,,,,,,,,
7,4,638,B,56.703713069669234,25.264071014538153,2.8351856534834616,0.3968470994952194,B,687.5757079687901,Correct,sub_007_day_04_data.csv,1,300,25.0,Training at home,,,,,,,,,,,,,
7,4,639,A,27.096602711488774,56.66719694813339,1.3548301355744388,0.890126248158909,A,719.857707968913,Correct,sub_007_day_04_data.csv,1,300,25.0,Training at home,,,,,,,,,,,,,
7,4,640,A,30.537093186133532,49.535774089218734,1.5268546593066763,0.7781061198428658,A,961.7896240088156,Correct,sub_007_day_04_data.csv,1,300,25.0,Training at home,,,,,,,,,,,,,
7,4,641,A,34.20886066559027,66.19016104122072,1.7104430332795135,1.0397126183351215,A,566.9671660289168,Correct,sub_007_day_04_data.csv,1,300,25.0,Training at home,,,,,,,,,,,,,
7,4,642,A,23.408802785924458,49.58278005625489,1.1704401392962227,0.7788444878464443,A,481.11804196378216,Correct,sub_007_day_04_data.csv,1,300,25.0,Training at home,,,,,,,,,,,,,
7,4,643,B,54.019570055423074,31.420416360269417,2.7009785027711537,0.4935507460507746,B,932.030665979255,Correct,sub_007_day_04_data.csv,1,300,25.0,Training at home,,,,,,,,,,,,,
7,4,644,B,71.95501389756487,61.75008644526176,3.5977506948782434,0.969968089674845,B,1805.7984170154668,Correct,sub_007_day_04_data.csv,1,300,25.0,Training at home,,,,,,,,,,,,,
7,4,645,A,18.20075122597657,36.64457674589016,0.9100375612988286,0.5756116654939796,A,1371.5320829651318,Correct,sub_007_day_04_data.csv,1,300,25.0,Training at home,,,,,,,,,,,,,
7,4,646,B,54.868190416314434,43.888074418216995,2.7434095208157214,0.6893922608623633,A,2044.2876250017432,Incorrect,sub_007_day_04_data.csv,0,300,25.0,Training at home,,,,,,,,,,,,,
7,4,647,A,67.92898529349097,87.17270916712883,3.396449264674549,1.369305713564858,A,984.779707971029,Correct,sub_007_day_04_data.csv,1,300,25.0,Training at home,,,,,,,,,,,,,
7,4,648,A,25.39634614872274,57.48006696168164,1.269817307436137,0.9028947804733422,A,1377.3384990054185,Correct,sub_007_day_04_data.csv,1,300,25.0,Training at home,,,,,,,,,,,,,
7,4,649,A,27.589967230153533,45.30365157225937,1.3794983615076768,0.7116280948010086,A,991.4209989947268,Correct,sub_007_day_04_data.csv,1,300,25.0,Training at home,,,,,,,,,,,,,
7,4,650,A,14.863164950930717,35.12994715473607,0.7431582475465359,0.5518199195115824,A,735.922958003357,Correct,sub_007_day_04_data.csv,1,300,26.0,Training at home,,,,,,,,,,,,,
7,4,651,A,66.04373763351478,78.85219911742612,3.302186881675739,1.2386074473335276,A,1023.6649999860674,Correct,sub_007_day_04_data.csv,1,300,26.0,Training at home,,,,,,,,,,,,,
7,4,652,B,59.32667942039368,38.47525174527625,2.966333971019684,0.6043678411398887,B,929.7040000092238,Correct,sub_007_day_04_data.csv,1,300,26.0,Training at home,,,,,,,,,,,,,
7,4,653,B,66.28754912695554,39.16506869824871,3.314377456347777,0.6152034604987886,B,901.136916014366,Correct,sub_007_day_04_data.csv,1,300,26.0,Training at home,,,,,,,,,,,,,
7,4,654,A,48.92966342292204,60.16215167528545,2.446483171146102,0.9450248686361582,A,863.1202079704963,Correct,sub_007_day_04_data.csv,1,300,26.0,Training at home,,,,,,,,,,,,,
7,4,655,A,44.84455948056911,56.000401319367086,2.2422279740284554,0.879652246915019,A,665.0043740519322,Correct,sub_007_day_04_data.csv,1,300,26.0,Training at home,,,,,,,,,,,,,
7,4,656,B,56.76017967285079,32.96530705484534,2.8380089836425397,0.5178178323341694,B,839.596249978058,Correct,sub_007_day_04_data.csv,1,300,26.0,Training at home,,,,,,,,,,,,,
7,4,657,A,47.79384529539587,69.4234380942165,2.389692264769794,1.0905008155186815,A,749.2542079999112,Correct,sub_007_day_04_data.csv,1,300,26.0,Training at home,,,,,,,,,,,,,
7,4,658,A,31.251438927900686,60.03682365952462,1.5625719463950345,0.9430562207681422,A,578.5348740173504,Correct,sub_007_day_04_data.csv,1,300,26.0,Training at home,,,,,,,,,,,,,
7,4,659,A,26.417233069280677,51.64840295631862,1.3208616534640338,0.8112912164860796,A,587.8642079769634,Correct,sub_007_day_04_data.csv,1,300,26.0,Training at home,,,,,,,,,,,,,
7,4,660,A,36.5527754006136,69.59177362748424,1.82763877003068,1.0931450238919422,A,701.1508750147186,Correct,sub_007_day_04_data.csv,1,300,26.0,Training at home,,,,,,,,,,,,,
7,4,661,A,44.944641581845744,67.9796390135425,2.2472320790922873,1.0678216725931562,A,691.3339580059983,Correct,sub_007_day_04_data.csv,1,300,26.0,Training at home,,,,,,,,,,,,,
7,4,662,B,50.50100919179964,37.199378213488515,2.5250504595899823,0.5843264665680187,B,1511.2135410308838,Correct,sub_007_day_04_data.csv,1,300,26.0,Training at home,,,,,,,,,,,,,
7,4,663,B,56.55844622120769,36.89368695692664,2.8279223110603846,0.5795246795386114,B,645.0809160014614,Correct,sub_007_day_04_data.csv,1,300,26.0,Training at home,,,,,,,,,,,,,
7,4,664,A,35.46599376584332,47.9420611797948,1.7732996882921663,0.7530721360019785,A,567.705333000049,Correct,sub_007_day_04_data.csv,1,300,26.0,Training at home,,,,,,,,,,,,,
7,4,665,B,32.660019920390354,13.555710568680905,1.6330009960195178,0.2129326036837872,B,848.8304580096155,Correct,sub_007_day_04_data.csv,1,300,26.0,Training at home,,,,,,,,,,,,,
7,4,666,B,70.82622835577664,60.38790350702648,3.5413114177888314,0.9485709701168183,B,1205.7498740032315,Correct,sub_007_day_04_data.csv,1,300,26.0,Training at home,,,,,,,,,,,,,
7,4,667,A,21.957234258955612,53.97774367474056,1.0978617129477806,0.8478804149295893,A,511.4083749940619,Correct,sub_007_day_04_data.csv,1,300,26.0,Training at home,,,,,,,,,,,,,
7,4,668,B,65.51542895433258,40.872876426776024,3.2757714477166293,0.642029641567215,B,828.612498997245,Correct,sub_007_day_04_data.csv,1,300,26.0,Training at home,,,,,,,,,,,,,
7,4,669,B,75.03691604039071,52.13309394758656,3.751845802019535,0.8189047247732222,B,1035.9784160391428,Correct,sub_007_day_04_data.csv,1,300,26.0,Training at home,,,,,,,,,,,,,
7,4,670,A,28.755092828266495,44.19645552767881,1.4377546414133249,0.6942363000023187,A,595.6720830290578,Correct,sub_007_day_04_data.csv,1,300,26.0,Training at home,,,,,,,,,,,,,
7,4,671,B,46.77081665559861,18.563099581784716,2.3385408327799304,0.2915884863699531,B,756.4869580091909,Correct,sub_007_day_04_data.csv,1,300,26.0,Training at home,,,,,,,,,,,,,
7,4,672,A,31.543550409343453,50.60782333757583,1.5771775204671727,0.7949458300574916,A,981.8301250343212,Correct,sub_007_day_04_data.csv,1,300,26.0,Training at home,,,,,,,,,,,,,
7,4,673,B,33.36969164715275,20.853242078379385,1.6684845823576375,0.3275619605848311,B,907.66445803456,Correct,sub_007_day_04_data.csv,1,300,26.0,Training at home,,,,,,,,,,,,,
7,4,674,A,41.30530439237585,74.19393984876419,2.0652652196187926,1.165435681848803,A,742.4145829863846,Correct,sub_007_day_04_data.csv,1,300,26.0,Training at home,,,,,,,,,,,,,
7,4,675,A,39.845596304539384,50.98921657478222,1.9922798152269692,0.8009367410181737,A,1105.5517080239952,Correct,sub_007_day_04_data.csv,1,300,27.0,Training at home,,,,,,,,,,,,,
7,4,676,A,12.82017244039572,37.20082081844676,0.641008622019786,0.5843491269537129,A,525.176165974699,Correct,sub_007_day_04_data.csv,1,300,27.0,Training at home,,,,,,,,,,,,,
7,4,677,A,19.85964238866856,32.213266547101355,0.992982119433428,0.5060048076625173,A,585.3560420218855,Correct,sub_007_day_04_data.csv,1,300,27.0,Training at home,,,,,,,,,,,,,
7,4,678,B,63.2974744425113,35.41891545532455,3.164873722125565,0.556359022962828,A,750.7117919740267,Incorrect,sub_007_day_04_data.csv,0,300,27.0,Training at home,,,,,,,,,,,,,
7,4,679,A,58.94766590838078,73.89939298250731,2.947383295419039,1.1608089504929504,A,725.6633329670876,Correct,sub_007_day_04_data.csv,1,300,27.0,Training at home,,,,,,,,,,,,,
7,4,680,A,23.441618545778617,50.93666636502931,1.172080927288931,0.8001112842536521,A,524.2654990288429,Correct,sub_007_day_04_data.csv,1,300,27.0,Training at home,,,,,,,,,,,,,
7,4,681,A,39.475776067374134,59.942403659016065,1.9737888033687068,0.941573074868394,A,898.1567079899833,Correct,sub_007_day_04_data.csv,1,300,27.0,Training at home,,,,,,,,,,,,,
7,4,682,A,53.72734652603371,82.33150768354656,2.686367326301686,1.2932602984880075,A,729.2669999878854,Correct,sub_007_day_04_data.csv,1,300,27.0,Training at home,,,,,,,,,,,,,
7,4,683,B,85.10915993481336,62.20349707768663,4.2554579967406685,0.9770902472342724,B,847.3852500319481,Correct,sub_007_day_04_data.csv,1,300,27.0,Training at home,,,,,,,,,,,,,
7,4,684,A,37.474036354883225,67.25234643996504,1.8737018177441611,1.0563973875623491,A,728.8281249930151,Correct,sub_007_day_04_data.csv,1,300,27.0,Training at home,,,,,,,,,,,,,
7,4,685,B,82.11564520395135,52.17607201138992,4.105782260197567,0.819579822620773,B,1012.2974580153824,Correct,sub_007_day_04_data.csv,1,300,27.0,Training at home,,,,,,,,,,,,,
7,4,686,A,36.690240576918235,59.98054366264012,1.8345120288459116,0.94217217664436,A,545.1368329813704,Correct,sub_007_day_04_data.csv,1,300,27.0,Training at home,,,,,,,,,,,,,
7,4,687,A,41.79545641986067,61.26614147121245,2.0897728209930335,0.96236629979877,A,677.348623983562,Correct,sub_007_day_04_data.csv,1,300,27.0,Training at home,,,,,,,,,,,,,
7,4,688,A,35.18145017501433,64.76534138008923,1.7590725087507164,1.0173316034346167,A,662.1628329739906,Correct,sub_007_day_04_data.csv,1,300,27.0,Training at home,,,,,,,,,,,,,
7,4,689,A,15.129617101172762,32.75801922534957,0.756480855058638,0.5145617627225572,A,559.8421660251915,Correct,sub_007_day_04_data.csv,1,300,27.0,Training at home,,,,,,,,,,,,,
7,4,690,B,52.75462005454609,20.980659045768924,2.6377310027273047,0.3295634216282995,B,638.5901659959927,Correct,sub_007_day_04_data.csv,1,300,27.0,Training at home,,,,,,,,,,,,,
7,4,691,A,55.790597005019514,66.37129167728116,2.789529850250976,1.0425578117130594,A,1218.7649160041474,Correct,sub_007_day_04_data.csv,1,300,27.0,Training at home,,,,,,,,,,,,,
7,4,692,B,66.95160170227072,49.10347902821251,3.3475800851135364,0.7713156449036646,B,1252.8620419907384,Correct,sub_007_day_04_data.csv,1,300,27.0,Training at home,,,,,,,,,,,,,
7,4,693,A,30.586212488603746,46.37453762061256,1.529310624430187,0.7284495335126994,A,811.2874579965137,Correct,sub_007_day_04_data.csv,1,300,27.0,Training at home,,,,,,,,,,,,,
7,4,694,A,31.77292663930799,53.866502698659744,1.5886463319653996,0.846133045763421,A,744.5339580299333,Correct,sub_007_day_04_data.csv,1,300,27.0,Training at home,,,,,,,,,,,,,
7,4,695,B,80.11609191704162,54.378277232133854,4.005804595852081,0.8541719813367041,B,539.3664999864995,Correct,sub_007_day_04_data.csv,1,300,27.0,Training at home,,,,,,,,,,,,,
7,4,696,B,57.23949994329895,30.10876578146908,2.8619749971649475,0.4729473869385949,B,666.606665996369,Correct,sub_007_day_04_data.csv,1,300,27.0,Training at home,,,,,,,,,,,,,
7,4,697,B,68.53224593144566,41.78827989790025,3.426612296572283,0.6564087656669874,B,577.3980829981156,Correct,sub_007_day_04_data.csv,1,300,27.0,Training at home,,,,,,,,,,,,,
7,4,698,B,62.41848376670418,30.289219756041177,3.120924188335209,0.4757819513427289,B,494.03395800618455,Correct,sub_007_day_04_data.csv,1,300,27.0,Training at home,,,,,,,,,,,,,
7,4,699,B,48.15128375245373,35.61272229443019,2.4075641876226865,0.5594033336725767,A,1578.7793330382556,Incorrect,sub_007_day_04_data.csv,0,300,27.0,Training at home,,,,,,,,,,,,,
7,4,700,A,64.17957783191679,85.82696749243499,3.2089788915958395,1.3481668527706188,A,863.2451249868609,Correct,sub_007_day_04_data.csv,1,300,28.0,Training at home,,,,,,,,,,,,,
7,4,701,B,66.32027253298754,53.40875462688723,3.316013626649377,0.838942755866044,B,933.6003750213422,Correct,sub_007_day_04_data.csv,1,300,28.0,Training at home,,,,,,,,,,,,,
7,4,702,A,58.1214612121272,76.66421169167262,2.90607306060636,1.204238621219057,A,673.7105409847572,Correct,sub_007_day_04_data.csv,1,300,28.0,Training at home,,,,,,,,,,,,,
7,4,703,B,51.569439895637736,31.722487135037973,2.5784719947818866,0.4982956626851602,B,661.8142920196988,Correct,sub_007_day_04_data.csv,1,300,28.0,Training at home,,,,,,,,,,,,,
7,4,704,B,67.79549303482051,52.89734907450115,3.3897746517410257,0.8309096162341383,B,1114.0935409930537,Correct,sub_007_day_04_data.csv,1,300,28.0,Training at home,,,,,,,,,,,,,
7,4,705,A,51.402536068318824,73.08892068056784,2.570126803415941,1.148078081344395,A,658.0327500123531,Correct,sub_007_day_04_data.csv,1,300,28.0,Training at home,,,,,,,,,,,,,
7,4,706,B,69.70778218211188,49.538476421956446,3.4853891091055944,0.7781485679862479,B,610.487625002861,Correct,sub_007_day_04_data.csv,1,300,28.0,Training at home,,,,,,,,,,,,,
7,4,707,B,50.03186794247974,31.668575567519724,2.501593397123987,0.4974488217628659,B,801.601541985292,Correct,sub_007_day_04_data.csv,1,300,28.0,Training at home,,,,,,,,,,,,,
7,4,708,B,49.09613970839506,33.42074815592406,2.454806985419753,0.5249718844206281,A,2167.688874003943,Incorrect,sub_007_day_04_data.csv,0,300,28.0,Training at home,,,,,,,,,,,,,
7,4,709,B,81.64791115783149,51.40102787459048,4.082395557891574,0.8074054577888881,B,605.5104580009356,Correct,sub_007_day_04_data.csv,1,300,28.0,Training at home,,,,,,,,,,,,,
7,4,710,B,71.75386473477732,40.30413813260027,3.587693236738866,0.6330959213332263,B,530.8916250360198,Correct,sub_007_day_04_data.csv,1,300,28.0,Training at home,,,,,,,,,,,,,
7,4,711,A,40.61373710510672,53.45900531234678,2.030686855255336,0.839732091787432,A,596.4825830305927,Correct,sub_007_day_04_data.csv,1,300,28.0,Training at home,,,,,,,,,,,,,
7,4,712,A,68.78779549609322,88.84375620406095,3.439389774804661,1.3955544590400026,A,1731.9870000355877,Correct,sub_007_day_04_data.csv,1,300,28.0,Training at home,,,,,,,,,,,,,
7,4,713,A,63.93117172908451,84.21592371486946,3.196558586454225,1.322860636289562,A,788.976082985755,Correct,sub_007_day_04_data.csv,1,300,28.0,Training at home,,,,,,,,,,,,,
7,4,714,B,61.77971361510191,45.42309325883179,3.0889856807550955,0.71350428042635,B,1821.458041027654,Correct,sub_007_day_04_data.csv,1,300,28.0,Training at home,,,,,,,,,,,,,
7,4,715,A,60.57353026843816,83.44017313139173,3.028676513421908,1.3106751746192036,A,1129.6091669937596,Correct,sub_007_day_04_data.csv,1,300,28.0,Training at home,,,,,,,,,,,,,
7,4,716,B,75.97757558423237,49.50231502106936,3.798878779211618,0.7775805460293959,B,718.6181240249425,Correct,sub_007_day_04_data.csv,1,300,28.0,Training at home,,,,,,,,,,,,,
7,4,717,A,39.50509279808581,71.71679235486154,1.9752546399042905,1.1265247400052882,A,604.765290976502,Correct,sub_007_day_04_data.csv,1,300,28.0,Training at home,,,,,,,,,,,,,
7,4,718,A,45.30240765107391,77.54627652481237,2.2651203825536954,1.218094063217966,A,641.0997490165755,Correct,sub_007_day_04_data.csv,1,300,28.0,Training at home,,,,,,,,,,,,,
7,4,719,B,48.235840418208056,31.74037936032842,2.411792020910403,0.4985767131028043,A,609.9937499966472,Incorrect,sub_007_day_04_data.csv,0,300,28.0,Training at home,,,,,,,,,,,,,
7,4,720,B,72.08123183515606,61.30861490281586,3.6040615917578034,0.96303347090226,B,666.6333329631016,Correct,sub_007_day_04_data.csv,1,300,28.0,Training at home,,,,,,,,,,,,,
7,4,721,B,83.95756112551143,68.40492554484376,4.197878056275572,1.0745020578051898,B,686.7315830313601,Correct,sub_007_day_04_data.csv,1,300,28.0,Training at home,,,,,,,,,,,,,
7,4,722,B,69.31358825912086,49.45812721943114,3.4656794129560433,0.7768864456643712,B,679.7069990425371,Correct,sub_007_day_04_data.csv,1,300,28.0,Training at home,,,,,,,,,,,,,
7,4,723,A,54.424820049774965,65.07671544159082,2.721241002488748,1.0222226557552758,A,1215.6427500303837,Correct,sub_007_day_04_data.csv,1,300,28.0,Training at home,,,,,,,,,,,,,
7,4,724,B,50.18887489879269,18.829831061784468,2.5094437449396345,0.2957782946601949,B,651.961957977619,Correct,sub_007_day_04_data.csv,1,300,28.0,Training at home,,,,,,,,,,,,,
7,4,725,B,35.2918209856893,25.06120639851205,1.764591049284465,0.3936605095583148,B,861.9977079797536,Correct,sub_007_day_04_data.csv,1,300,29.0,Training at home,,,,,,,,,,,,,
7,4,726,B,74.29214033801824,43.449281104495824,3.714607016900912,0.6824997116082095,B,1001.1234990088268,Correct,sub_007_day_04_data.csv,1,300,29.0,Training at home,,,,,,,,,,,,,
7,4,727,A,30.542437413774184,54.06983711797345,1.527121870688709,0.8493270153531104,A,661.7454580264166,Correct,sub_007_day_04_data.csv,1,300,29.0,Training at home,,,,,,,,,,,,,
7,4,728,A,39.41540577064057,70.63654745387672,1.9707702885320284,1.1095562927802294,A,1082.3480829712937,Correct,sub_007_day_04_data.csv,1,300,29.0,Training at home,,,,,,,,,,,,,
7,4,729,B,33.72356418558477,20.34060436754548,1.6861782092792383,0.3195094662532867,B,641.6609579464421,Correct,sub_007_day_04_data.csv,1,300,29.0,Training at home,,,,,,,,,,,,,
7,4,730,A,59.33824895813426,82.8305311028944,2.9669124479067133,1.3010989400289694,A,1123.6886660335583,Correct,sub_007_day_04_data.csv,1,300,29.0,Training at home,,,,,,,,,,,,,
7,4,731,A,43.24439345781912,54.05127072091505,2.162219672890956,0.849035375070099,A,1579.60912497947,Correct,sub_007_day_04_data.csv,1,300,29.0,Training at home,,,,,,,,,,,,,
7,4,732,A,47.131294028213624,67.72518825142488,2.356564701410681,1.0638247693683107,A,579.5734989806078,Correct,sub_007_day_04_data.csv,1,300,29.0,Training at home,,,,,,,,,,,,,
7,4,733,A,46.789058694982025,70.65052767345419,2.3394529347491013,1.1097758935558304,A,568.1454159785062,Correct,sub_007_day_04_data.csv,1,300,29.0,Training at home,,,,,,,,,,,,,
7,4,734,B,66.57036499342252,37.79377576380261,3.328518249671126,0.5936632414549113,B,699.543041002471,Correct,sub_007_day_04_data.csv,1,300,29.0,Training at home,,,,,,,,,,,,,
7,4,735,B,57.19625108826327,47.699900071946,2.859812554413163,0.749268278214964,A,2071.8441249919124,Incorrect,sub_007_day_04_data.csv,0,300,29.0,Training at home,,,,,,,,,,,,,
7,4,736,A,38.95679313661991,64.56809691910854,1.9478396568309957,1.014233294686726,A,711.3831659662537,Correct,sub_007_day_04_data.csv,1,300,29.0,Training at home,,,,,,,,,,,,,
7,4,737,B,62.8396814211597,50.9086741088968,3.141984071057985,0.7996715829225356,B,958.151832979638,Correct,sub_007_day_04_data.csv,1,300,29.0,Training at home,,,,,,,,,,,,,
7,4,738,A,15.209453029743903,43.819196855016344,0.7604726514871953,0.6883103346296215,A,560.4688739986159,Correct,sub_007_day_04_data.csv,1,300,29.0,Training at home,,,,,,,,,,,,,
7,4,739,A,59.23607522787307,85.49523480415844,2.9618037613936536,1.3429560078883929,A,1005.0991239841096,Correct,sub_007_day_04_data.csv,1,300,29.0,Training at home,,,,,,,,,,,,,
7,4,740,A,42.313345862749905,52.43800945372531,2.1156672931374954,0.8236943263434777,A,1051.6636240063235,Correct,sub_007_day_04_data.csv,1,300,29.0,Training at home,,,,,,,,,,,,,
7,4,741,A,37.82477002283484,57.19710487351344,1.891238501141742,0.8984500223861739,A,1008.2572079845704,Correct,sub_007_day_04_data.csv,1,300,29.0,Training at home,,,,,,,,,,,,,
7,4,742,A,41.2647799422482,60.24630277235188,2.0632389971124097,0.9463467109778352,A,958.798499952536,Correct,sub_007_day_04_data.csv,1,300,29.0,Training at home,,,,,,,,,,,,,
7,4,743,B,40.29981570533292,25.462476636239423,2.014990785266646,0.3999636477130576,B,774.2981659830548,Correct,sub_007_day_04_data.csv,1,300,29.0,Training at home,,,,,,,,,,,,,
7,4,744,A,17.4939537271779,37.85689813457901,0.8746976863588949,0.5946547653364529,A,569.724083004985,Correct,sub_007_day_04_data.csv,1,300,29.0,Training at home,,,,,,,,,,,,,
7,4,745,A,19.848203905071195,33.700158003182636,0.9924101952535596,0.5293608440380692,A,481.29570798482746,Correct,sub_007_day_04_data.csv,1,300,29.0,Training at home,,,,,,,,,,,,,
7,4,746,A,53.58188553016649,74.39305148985986,2.6790942765083243,1.1685633201933543,A,1157.904916035477,Correct,sub_007_day_04_data.csv,1,300,29.0,Training at home,,,,,,,,,,,,,
7,4,747,A,40.913547878427096,71.2254486809442,2.0456773939213546,1.1188067316234556,A,650.9652499807999,Correct,sub_007_day_04_data.csv,1,300,29.0,Training at home,,,,,,,,,,,,,
7,4,748,B,46.73830942722182,28.91216266198451,2.336915471361091,0.4541511890914183,B,554.224791994784,Correct,sub_007_day_04_data.csv,1,300,29.0,Training at home,,,,,,,,,,,,,
7,4,749,A,36.206408828608936,44.36944114223076,1.8103204414304468,0.6969535516815845,A,897.9456659872085,Correct,sub_007_day_04_data.csv,1,300,29.0,Training at home,,,,,,,,,,,,,
7,4,750,B,43.74804769026683,25.25276313026484,2.1874023845133417,0.396669475664416,B,1193.0170829873532,Correct,sub_007_day_04_data.csv,1,300,30.0,Training at home,,,,,,,,,,,,,
7,4,751,A,44.61928359543065,63.22828039812425,2.2309641797715325,0.9931875059893132,A,728.0491659766994,Correct,sub_007_day_04_data.csv,1,300,30.0,Training at home,,,,,,,,,,,,,
7,4,752,B,30.4693617411813,12.016907113768234,1.523468087059065,0.188761135537426,B,670.5169159686193,Correct,sub_007_day_04_data.csv,1,300,30.0,Training at home,,,,,,,,,,,,,
7,4,753,B,37.54868365253695,24.07198206896333,1.8774341826268477,0.3781218101260021,B,654.8784579499625,Correct,sub_007_day_04_data.csv,1,300,30.0,Training at home,,,,,,,,,,,,,
7,4,754,B,68.36071869070292,37.857117114589414,3.4180359345351463,0.5946582050664128,B,769.552375015337,Correct,sub_007_day_04_data.csv,1,300,30.0,Training at home,,,,,,,,,,,,,
7,4,755,A,42.7969913293274,60.08436459993979,2.1398495664663697,0.9438029921139076,A,634.6659580012783,Correct,sub_007_day_04_data.csv,1,300,30.0,Training at home,,,,,,,,,,,,,
7,4,756,B,67.81418784360122,55.60861245513232,3.3907093921800606,0.8734980418268278,B,662.4945829971693,Correct,sub_007_day_04_data.csv,1,300,30.0,Training at home,,,,,,,,,,,,,
7,4,757,B,64.43601483792294,45.86200860629584,3.2218007418961467,0.7203987465820543,A,1646.916042023804,Incorrect,sub_007_day_04_data.csv,0,300,30.0,Training at home,,,,,,,,,,,,,
7,4,758,B,40.242852219069846,12.789661327083415,2.012142610953492,0.2008995303353337,B,632.121582981199,Correct,sub_007_day_04_data.csv,1,300,30.0,Training at home,,,,,,,,,,,,,
7,4,759,A,39.82354042150179,69.3812024569149,1.9911770210750896,1.08983737967935,A,787.4280830146745,Correct,sub_007_day_04_data.csv,1,300,30.0,Training at home,,,,,,,,,,,,,
7,4,760,A,30.143004150828045,59.330399118551206,1.5071502075414025,0.931959730026954,A,628.7400830187835,Correct,sub_007_day_04_data.csv,1,300,30.0,Training at home,,,,,,,,,,,,,
7,4,761,B,81.65028079054828,52.966157710327984,4.082514039527414,0.8319904597582238,B,725.762665970251,Correct,sub_007_day_04_data.csv,1,300,30.0,Training at home,,,,,,,,,,,,,
7,4,762,B,47.987921623733705,17.808880226654612,2.3993960811866852,0.2797412364435933,B,565.2118750149384,Correct,sub_007_day_04_data.csv,1,300,30.0,Training at home,,,,,,,,,,,,,
7,4,763,A,43.69264158649971,61.20918464627088,2.184632079324986,0.9614716240847287,A,651.9825829891488,Correct,sub_007_day_04_data.csv,1,300,30.0,Training at home,,,,,,,,,,,,,
7,4,764,B,72.8704430669007,61.24914080778498,3.6435221533450353,0.9620992540021204,B,686.1758750164881,Correct,sub_007_day_04_data.csv,1,300,30.0,Training at home,,,,,,,,,,,,,
7,4,765,A,50.97183624918777,64.12890653032849,2.5485918124593883,1.0073345081921323,A,1238.481457985472,Correct,sub_007_day_04_data.csv,1,300,30.0,Training at home,,,,,,,,,,,,,
7,4,766,B,43.1055098443407,33.95781404932035,2.155275492217035,0.5334080957465653,A,1454.9245829693973,Incorrect,sub_007_day_04_data.csv,0,300,30.0,Training at home,,,,,,,,,,,,,
7,4,767,A,14.651937533256994,38.06971663956042,0.7325968766628498,0.5979977105954406,A,594.886833045166,Correct,sub_007_day_04_data.csv,1,300,30.0,Training at home,,,,,,,,,,,,,
7,4,768,B,61.009134355380795,38.47572065630664,3.05045671776904,0.60437520677713,B,741.370125033427,Correct,sub_007_day_04_data.csv,1,300,30.0,Training at home,,,,,,,,,,,,,
7,4,769,B,68.14906365498044,37.60080928726014,3.4074531827490215,0.5906321311294366,B,675.1227500499226,Correct,sub_007_day_04_data.csv,1,300,30.0,Training at home,,,,,,,,,,,,,
7,4,770,B,53.30225448564928,22.311544111488903,2.665112724282464,0.3504689153544907,B,806.9304990349337,Correct,sub_007_day_04_data.csv,1,300,30.0,Training at home,,,,,,,,,,,,,
7,4,771,A,24.31688140825343,46.2538446092064,1.2158440704126716,0.7265536921228335,A,410.34370800480247,Correct,sub_007_day_04_data.csv,1,300,30.0,Training at home,,,,,,,,,,,,,
7,4,772,A,66.21164358373217,80.68476680251044,3.3105821791866084,1.2673933532168622,A,1568.8840830116533,Correct,sub_007_day_04_data.csv,1,300,30.0,Training at home,,,,,,,,,,,,,
7,4,773,A,43.003243316454125,49.948605586901735,2.150162165822706,0.7845908618443229,A,576.2224170030095,Correct,sub_007_day_04_data.csv,1,300,30.0,Training at home,,,,,,,,,,,,,
7,4,774,A,30.23326728575577,53.42879824654221,1.5116633642877884,0.8392576003073411,A,615.3491250006482,Correct,sub_007_day_04_data.csv,1,300,30.0,Training at home,,,,,,,,,,,,,
7,4,775,A,42.234417481463765,71.59892970231769,2.111720874073188,1.1246733577884669,A,601.1176249594428,Correct,sub_007_day_04_data.csv,1,300,31.0,Training at home,,,,,,,,,,,,,
7,4,776,A,27.95432319288833,47.59104356456475,1.3977161596444163,0.7475583641955422,A,539.7499169921502,Correct,sub_007_day_04_data.csv,1,300,31.0,Training at home,,,,,,,,,,,,,
7,4,777,B,60.2514200890718,44.43576030238311,3.0125710044535903,0.6979952906132186,B,968.8985830289312,Correct,sub_007_day_04_data.csv,1,300,31.0,Training at home,,,,,,,,,,,,,
7,4,778,A,20.378311249136544,51.47247677416944,1.0189155624568271,0.8085277744790098,A,498.5391669906676,Correct,sub_007_day_04_data.csv,1,300,31.0,Training at home,,,,,,,,,,,,,
7,4,779,B,70.55055563440125,53.31649729350511,3.527527781720062,0.8374935810620787,B,1507.8067500144243,Correct,sub_007_day_04_data.csv,1,300,31.0,Training at home,,,,,,,,,,,,,
7,4,780,A,27.998089392251774,41.07878497804854,1.399904469612589,0.6452640455271602,A,622.2037909901701,Correct,sub_007_day_04_data.csv,1,300,31.0,Training at home,,,,,,,,,,,,,
7,4,781,A,22.339437286645072,53.759254334394925,1.1169718643322537,0.8444483923970018,A,615.7029999885708,Correct,sub_007_day_04_data.csv,1,300,31.0,Training at home,,,,,,,,,,,,,
7,4,782,B,69.87075553773465,43.70467691379362,3.493537776886733,0.6865114595994474,B,642.8622079547495,Correct,sub_007_day_04_data.csv,1,300,31.0,Training at home,,,,,,,,,,,,,
7,4,783,A,42.52983128376901,71.06184775882461,2.1264915641884503,1.1162368943481986,A,656.5166240325198,Correct,sub_007_day_04_data.csv,1,300,31.0,Training at home,,,,,,,,,,,,,
7,4,784,A,52.68551066014767,70.5720039739584,2.6342755330073833,1.1085424461684872,A,1223.8408739794977,Correct,sub_007_day_04_data.csv,1,300,31.0,Training at home,,,,,,,,,,,,,
7,4,785,B,53.248232773140046,45.0149703531057,2.6624116386570025,0.707093500814396,B,634.0662080328912,Correct,sub_007_day_04_data.csv,1,300,31.0,Training at home,,,,,,,,,,,,,
7,4,786,A,46.06382615843691,70.41391134823643,2.3031913079218453,1.1060591330107126,A,916.6685419622808,Correct,sub_007_day_04_data.csv,1,300,31.0,Training at home,,,,,,,,,,,,,
7,4,787,A,52.37100548287219,81.99572145172374,2.6185502741436095,1.2879857806926511,B,742.6145409699529,Incorrect,sub_007_day_04_data.csv,0,300,31.0,Training at home,,,,,,,,,,,,,
7,4,788,B,85.75693096933824,62.177747606067584,4.287846548466912,0.9766857754799112,B,560.2257489808835,Correct,sub_007_day_04_data.csv,1,300,31.0,Training at home,,,,,,,,,,,,,
7,4,789,B,68.24482947975268,44.31890927486695,3.4122414739876343,0.6961597989651728,B,803.201416041702,Correct,sub_007_day_04_data.csv,1,300,31.0,Training at home,,,,,,,,,,,,,
7,4,790,B,60.712865347845224,36.844245191788275,3.035643267392261,0.5787480501079155,B,1682.224165997468,Correct,sub_007_day_04_data.csv,1,300,31.0,Training at home,,,,,,,,,,,,,
7,4,791,A,34.648670978925466,48.50608163195346,1.7324335489462732,0.761931748546859,A,612.2442079940811,Correct,sub_007_day_04_data.csv,1,300,31.0,Training at home,,,,,,,,,,,,,
7,4,792,B,67.51429949791323,39.05494740043045,3.3757149748956614,0.6134736791976404,B,568.8498329836875,Correct,sub_007_day_04_data.csv,1,300,31.0,Training at home,,,,,,,,,,,,,
7,4,793,A,48.3198402181376,56.85812176161791,2.41599201090688,0.8931252881160637,A,536.041582992766,Correct,sub_007_day_04_data.csv,1,300,31.0,Training at home,,,,,,,,,,,,,
7,4,794,A,12.3498095915873,33.11308556404203,0.617490479579365,0.5201391317284234,A,518.5370830004103,Correct,sub_007_day_04_data.csv,1,300,31.0,Training at home,,,,,,,,,,,,,
7,4,795,A,20.586405295390023,37.44586168334905,1.0293202647695012,0.5881982198587445,A,526.1460829642601,Correct,sub_007_day_04_data.csv,1,300,31.0,Training at home,,,,,,,,,,,,,
7,4,796,B,34.99217742215351,15.65443882603378,1.7496088711076754,0.2458993500596927,B,705.7489990256727,Correct,sub_007_day_04_data.csv,1,300,31.0,Training at home,,,,,,,,,,,,,
7,4,797,A,28.10427310440683,48.066600789194766,1.4052136552203416,0.7550283996118381,A,764.5644990261644,Correct,sub_007_day_04_data.csv,1,300,31.0,Training at home,,,,,,,,,,,,,
7,4,798,B,73.82238388228839,46.58283021343121,3.6911191941144192,0.7317213859096807,B,647.047583013773,Correct,sub_007_day_04_data.csv,1,300,31.0,Training at home,,,,,,,,,,,,,
7,4,799,B,59.64458408768729,52.64095254525135,2.982229204384365,0.8268821489706529,B,1763.4168330114337,Correct,sub_007_day_04_data.csv,1,300,31.0,Training at home,,,,,,,,,,,,,
7,4,800,B,58.00652130376826,40.50381889292035,2.900326065188413,0.6362324993816502,B,828.9544580038637,Correct,sub_007_day_04_data.csv,1,300,32.0,Training at home,,,,,,,,,,,,,
7,4,801,B,56.2430527183548,34.548299606606044,2.8121526359177405,0.5426834211906634,B,693.5087909805588,Correct,sub_007_day_04_data.csv,1,300,32.0,Training at home,,,,,,,,,,,,,
7,4,802,B,59.48912799894313,46.75879328733428,2.9744563999471563,0.7344854074110655,B,1742.3827080056071,Correct,sub_007_day_04_data.csv,1,300,32.0,Training at home,,,,,,,,,,,,,
7,4,803,B,79.23941562351459,48.72230206784523,3.961970781175729,0.7653281312116268,B,753.7249160232022,Correct,sub_007_day_04_data.csv,1,300,32.0,Training at home,,,,,,,,,,,,,
7,4,804,A,35.07164529245988,68.15698026362264,1.753582264622994,1.0706073424353069,A,844.6497499826364,Correct,sub_007_day_04_data.csv,1,300,32.0,Training at home,,,,,,,,,,,,,
7,4,805,B,70.43692421603544,39.90710271125323,3.5218462108017716,0.6268593035186323,B,2137.874708045274,Correct,sub_007_day_04_data.csv,1,300,32.0,Training at home,,,,,,,,,,,,,
7,4,806,B,78.81419381970161,64.48365706455449,3.94070969098508,1.0129069165530398,B,822.9380829725415,Correct,sub_007_day_04_data.csv,1,300,32.0,Training at home,,,,,,,,,,,,,
7,4,807,A,60.518714139366416,87.06880300606855,3.025935706968321,1.3676735594036091,A,1028.3296669949775,Correct,sub_007_day_04_data.csv,1,300,32.0,Training at home,,,,,,,,,,,,,
7,4,808,B,79.94905896186388,48.42335165840524,3.997452948093194,0.7606322291612051,B,1143.0902910069562,Correct,sub_007_day_04_data.csv,1,300,32.0,Training at home,,,,,,,,,,,,,
7,4,809,B,51.34208600261625,32.802278795506425,2.5671043001308123,0.5152569904248362,B,2120.788792031817,Correct,sub_007_day_04_data.csv,1,300,32.0,Training at home,,,,,,,,,,,,,
7,4,810,B,56.79424662800139,47.29962355667276,2.8397123314000696,0.7429807494160292,B,1981.9465409964323,Correct,sub_007_day_04_data.csv,1,300,32.0,Training at home,,,,,,,,,,,,,
7,4,811,A,43.11981671339407,74.33000195092414,2.1559908356697037,1.1675729403516912,A,2009.2621669755315,Correct,sub_007_day_04_data.csv,1,300,32.0,Training at home,,,,,,,,,,,,,
7,4,812,A,55.03183937222464,65.22385861618413,2.7515919686112316,1.0245339753369171,B,2446.0518329869956,Incorrect,sub_007_day_04_data.csv,0,300,32.0,Training at home,,,,,,,,,,,,,
7,4,813,A,36.48685661347879,48.100448932113224,1.8243428306739395,0.7555600849974896,A,1075.3733750316314,Correct,sub_007_day_04_data.csv,1,300,32.0,Training at home,,,,,,,,,,,,,
7,4,814,A,23.423951847006105,53.6105173248627,1.1711975923503053,0.8421120369146848,A,568.7832080293447,Correct,sub_007_day_04_data.csv,1,300,32.0,Training at home,,,,,,,,,,,,,
7,4,815,A,41.17357843934643,53.19850282086209,2.058678921967322,0.835640128219981,A,951.6757500241512,Correct,sub_007_day_04_data.csv,1,300,32.0,Training at home,,,,,,,,,,,,,
7,4,816,B,41.98396968975757,28.250954934765197,2.0991984844878786,0.4437649623997732,B,636.0825830488466,Correct,sub_007_day_04_data.csv,1,300,32.0,Training at home,,,,,,,,,,,,,
7,4,817,B,43.53207199075017,16.17031221785656,2.1766035995375086,0.2540026703493572,B,704.6356669743545,Correct,sub_007_day_04_data.csv,1,300,32.0,Training at home,,,,,,,,,,,,,
7,4,818,B,43.24421710936845,33.5214199853925,2.1622108554684223,0.5265532338200357,B,1391.259333002381,Correct,sub_007_day_04_data.csv,1,300,32.0,Training at home,,,,,,,,,,,,,
7,4,819,B,53.49846900246223,30.52525138933006,2.6749234501231114,0.4794895275685047,B,769.9602910433896,Correct,sub_007_day_04_data.csv,1,300,32.0,Training at home,,,,,,,,,,,,,
7,4,820,A,22.085238570630604,44.51494426881617,1.1042619285315305,0.6992391094493597,A,714.854457997717,Correct,sub_007_day_04_data.csv,1,300,32.0,Training at home,,,,,,,,,,,,,
7,4,821,B,70.02345850874016,44.49365960943238,3.5011729254370083,0.6989047708015883,B,785.0059579941444,Correct,sub_007_day_04_data.csv,1,300,32.0,Training at home,,,,,,,,,,,,,
7,4,822,A,58.79838118004959,68.55882005483494,2.9399190590024795,1.07691942711527,A,1446.118291001767,Correct,sub_007_day_04_data.csv,1,300,32.0,Training at home,,,,,,,,,,,,,
7,4,823,B,33.03719768560512,11.454594336667665,1.651859884280256,0.1799283470896319,B,876.7952919588424,Correct,sub_007_day_04_data.csv,1,300,32.0,Training at home,,,,,,,,,,,,,
7,4,824,A,54.26936263002804,71.10142622970774,2.713468131501402,1.1168585915150324,A,2283.80841598846,Correct,sub_007_day_04_data.csv,1,300,32.0,Training at home,,,,,,,,,,,,,
7,4,825,B,64.11271473446075,34.148300136041684,3.2056357367230373,0.5364002441998394,B,944.2839580005966,Correct,sub_007_day_04_data.csv,1,300,33.0,Training at home,,,,,,,,,,,,,
7,4,826,A,22.177811752012268,44.38862323849484,1.1088905876006134,0.6972548633451028,A,609.610415995121,Correct,sub_007_day_04_data.csv,1,300,33.0,Training at home,,,,,,,,,,,,,
7,4,827,A,23.10921101223096,55.33213781940646,1.155460550611548,0.8691551884043264,A,616.4351250045002,Correct,sub_007_day_04_data.csv,1,300,33.0,Training at home,,,,,,,,,,,,,
7,4,828,A,67.3952865811895,87.21113118553346,3.3697643290594748,1.369909245218638,A,1017.111042048782,Correct,sub_007_day_04_data.csv,1,300,33.0,Training at home,,,,,,,,,,,,,
7,4,829,A,59.46094991814631,83.95370971343077,2.973047495907315,1.3187417883866206,A,941.1795829655604,Correct,sub_007_day_04_data.csv,1,300,33.0,Training at home,,,,,,,,,,,,,
7,4,830,A,69.50542712638816,85.16263137968963,3.475271356319408,1.3377314855140423,B,1097.222167009022,Incorrect,sub_007_day_04_data.csv,0,300,33.0,Training at home,,,,,,,,,,,,,
7,4,831,A,41.904565150254314,73.49057181545552,2.0952282575127157,1.154387202617741,A,556.5863329684362,Correct,sub_007_day_04_data.csv,1,300,33.0,Training at home,,,,,,,,,,,,,
7,4,832,A,42.66521635858486,66.81201099200896,2.133260817929243,1.0494806145202793,A,803.6994159920141,Correct,sub_007_day_04_data.csv,1,300,33.0,Training at home,,,,,,,,,,,,,
7,4,833,A,48.93769547899759,63.560533245198485,2.4468847739498796,0.998406521506827,A,710.9109580051154,Correct,sub_007_day_04_data.csv,1,300,33.0,Training at home,,,,,,,,,,,,,
7,4,834,B,51.62721460789707,36.890280062005594,2.581360730394854,0.579471164158334,B,618.5159159940667,Correct,sub_007_day_04_data.csv,1,300,33.0,Training at home,,,,,,,,,,,,,
7,4,835,B,41.59475301965689,16.120187712665675,2.079737650982844,0.2532153164629946,B,572.1444159862585,Correct,sub_007_day_04_data.csv,1,300,33.0,Training at home,,,,,,,,,,,,,
7,4,836,B,38.30811895126311,24.91707810519887,1.9154059475631555,0.3913965476210792,B,635.7948330114596,Correct,sub_007_day_04_data.csv,1,300,33.0,Training at home,,,,,,,,,,,,,
7,4,837,A,41.29071851436227,58.31832192396103,2.064535925718113,0.9160620586300028,A,1875.8120420388875,Correct,sub_007_day_04_data.csv,1,300,33.0,Training at home,,,,,,,,,,,,,
7,4,838,A,21.81839765157512,49.924621272106975,1.0909198825787558,0.78421411710852,A,742.6637079915963,Correct,sub_007_day_04_data.csv,1,300,33.0,Training at home,,,,,,,,,,,,,
7,4,839,A,29.339091474831253,43.34522009375282,1.4669545737415626,0.6808651250738328,A,393.620666989591,Correct,sub_007_day_04_data.csv,1,300,33.0,Training at home,,,,,,,,,,,,,
7,4,840,A,23.782578153814164,37.68030951425649,1.1891289076907083,0.5918809177748889,A,510.6963330181315,Correct,sub_007_day_04_data.csv,1,300,33.0,Training at home,,,,,,,,,,,,,
7,4,841,B,59.32183908061992,45.6809269297983,2.966091954030996,0.7175543222591325,B,1159.9657500046303,Correct,sub_007_day_04_data.csv,1,300,33.0,Training at home,,,,,,,,,,,,,
7,4,842,A,56.089859336346535,72.64378359613691,2.804492966817327,1.1410858843729523,A,954.2173329973592,Correct,sub_007_day_04_data.csv,1,300,33.0,Training at home,,,,,,,,,,,,,
7,4,843,B,67.14566299118542,38.1179023814009,3.357283149559271,0.5987546104583098,B,833.841957966797,Correct,sub_007_day_04_data.csv,1,300,33.0,Training at home,,,,,,,,,,,,,
7,4,844,B,81.9864587011169,53.90095738508566,4.099322935055845,0.8466742587122081,B,1660.5254579917528,Correct,sub_007_day_04_data.csv,1,300,33.0,Training at home,,,,,,,,,,,,,
7,4,845,B,47.453169537136105,35.24396055469371,2.372658476856805,0.5536108378101711,B,1264.799333002884,Correct,sub_007_day_04_data.csv,1,300,33.0,Training at home,,,,,,,,,,,,,
7,4,846,B,80.31652456397615,55.304070694852776,4.015826228198807,0.8687143110428003,B,795.7792080123909,Correct,sub_007_day_04_data.csv,1,300,33.0,Training at home,,,,,,,,,,,,,
7,4,847,A,56.4677579000076,83.57538540570062,2.82338789500038,1.3127990840574233,A,1201.767040998675,Correct,sub_007_day_04_data.csv,1,300,33.0,Training at home,,,,,,,,,,,,,
7,4,848,B,44.233879530449386,33.72367649749128,2.211693976522469,0.529730271682787,A,1101.6842920216732,Incorrect,sub_007_day_04_data.csv,0,300,33.0,Training at home,,,,,,,,,,,,,
7,4,849,B,33.503961532148516,18.35446076066277,1.6751980766074257,0.2883111954315014,A,554.8782079713419,Incorrect,sub_007_day_04_data.csv,0,300,33.0,Training at home,,,,,,,,,,,,,
7,4,850,B,47.45275921189336,37.20533872081286,2.372637960594668,0.5844200939981277,B,485.02720799297094,Correct,sub_007_day_04_data.csv,1,300,34.0,Training at home,,,,,,,,,,,,,
7,4,851,A,40.56121369929013,48.589028838156885,2.0280606849645064,0.7632346802150812,A,1272.454166028183,Correct,sub_007_day_04_data.csv,1,300,34.0,Training at home,,,,,,,,,,,,,
7,4,852,B,83.6856284123149,65.24698117708746,4.184281420615744,1.0248971836742475,B,933.4528330364265,Correct,sub_007_day_04_data.csv,1,300,34.0,Training at home,,,,,,,,,,,,,
7,4,853,B,68.39669114626966,51.99483924187332,3.4198345573134827,0.8167330249342576,B,702.2369579644874,Correct,sub_007_day_04_data.csv,1,300,34.0,Training at home,,,,,,,,,,,,,
7,4,854,A,40.09613619069625,59.91146958789504,2.0048068095348124,0.941087163615497,A,627.2190829622559,Correct,sub_007_day_04_data.csv,1,300,34.0,Training at home,,,,,,,,,,,,,
7,4,855,B,71.34442960920668,39.44252852854817,3.5672214804603346,0.6195617893214639,B,630.8914580149576,Correct,sub_007_day_04_data.csv,1,300,34.0,Training at home,,,,,,,,,,,,,
7,4,856,B,75.32273544281848,52.85578525681271,3.766136772140925,0.8302567333126125,B,672.8302080300637,Correct,sub_007_day_04_data.csv,1,300,34.0,Training at home,,,,,,,,,,,,,
7,4,857,B,57.21259495589302,34.66687194455979,2.860629747794651,0.5445459511198356,B,1264.2448330298066,Correct,sub_007_day_04_data.csv,1,300,34.0,Training at home,,,,,,,,,,,,,
7,4,858,A,46.16117878269645,70.2762414879052,2.3080589391348227,1.103896619901526,A,648.8397080102004,Correct,sub_007_day_04_data.csv,1,300,34.0,Training at home,,,,,,,,,,,,,
7,4,859,B,69.04000157941796,44.17226155834706,3.452000078970898,0.6938562620207498,B,1053.5885409917682,Correct,sub_007_day_04_data.csv,1,300,34.0,Training at home,,,,,,,,,,,,,
7,4,860,A,50.346652694652725,61.98059742469779,2.5173326347326364,0.9735889476726852,A,863.6697490001097,Correct,sub_007_day_04_data.csv,1,300,34.0,Training at home,,,,,,,,,,,,,
7,4,861,B,41.52533933147011,27.837948946118736,2.076266966573505,0.4372774795006717,B,740.1589580113068,Correct,sub_007_day_04_data.csv,1,300,34.0,Training at home,,,,,,,,,,,,,
7,4,862,B,63.83262512993404,52.781699457481714,3.1916312564967018,0.8290929962980446,A,2081.8622080259956,Incorrect,sub_007_day_04_data.csv,0,300,34.0,Training at home,,,,,,,,,,,,,
7,4,863,B,40.90775030211395,31.134451616228944,2.0453875151056975,0.4890588223554585,B,685.489498951938,Correct,sub_007_day_04_data.csv,1,300,34.0,Training at home,,,,,,,,,,,,,
7,4,864,A,37.48234272208913,46.20660255968003,1.8741171361044564,0.7258116157441706,A,1353.56087499531,Correct,sub_007_day_04_data.csv,1,300,34.0,Training at home,,,,,,,,,,,,,
7,4,865,B,52.23342686753083,36.047520994304755,2.6116713433765413,0.5662331356791582,B,926.0703330510296,Correct,sub_007_day_04_data.csv,1,300,34.0,Training at home,,,,,,,,,,,,,
7,4,866,B,56.97844315124212,33.50843429672731,2.848922157562106,0.5263492550994738,B,844.9093329836614,Correct,sub_007_day_04_data.csv,1,300,34.0,Training at home,,,,,,,,,,,,,
7,4,867,B,58.168756351453425,48.45094371151053,2.9084378175726715,0.7610656441178705,B,1389.1612910083495,Correct,sub_007_day_04_data.csv,1,300,34.0,Training at home,,,,,,,,,,,,,
7,4,868,B,32.344128795337376,11.890572030680676,1.6172064397668688,0.1867766686928334,A,1505.3552919998765,Incorrect,sub_007_day_04_data.csv,0,300,34.0,Training at home,,,,,,,,,,,,,
7,4,869,B,67.55049626318522,55.98469073684399,3.377524813159261,0.8794054656618281,B,1768.5049999854527,Correct,sub_007_day_04_data.csv,1,300,34.0,Training at home,,,,,,,,,,,,,
7,4,870,A,67.19017137934067,88.72204491258202,3.3595085689670334,1.3936426225441567,A,1627.10820796201,Correct,sub_007_day_04_data.csv,1,300,34.0,Training at home,,,,,,,,,,,,,
7,4,871,A,52.30676797322455,73.25583893137625,2.615338398661228,1.1507000270968435,A,627.0274170092307,Correct,sub_007_day_04_data.csv,1,300,34.0,Training at home,,,,,,,,,,,,,
7,4,872,B,78.97277222896403,61.27793721894919,3.9486386114482017,0.9625515869709366,B,756.4959999872372,Correct,sub_007_day_04_data.csv,1,300,34.0,Training at home,,,,,,,,,,,,,
7,4,873,A,15.43706131204888,36.616387897647776,0.771853065602444,0.5751688761012222,A,592.4471659818664,Correct,sub_007_day_04_data.csv,1,300,34.0,Training at home,,,,,,,,,,,,,
7,4,874,B,60.359438270512385,39.84642557863445,3.0179719135256193,0.625906189348252,B,886.1846249783412,Correct,sub_007_day_04_data.csv,1,300,34.0,Training at home,,,,,,,,,,,,,
7,4,875,B,57.8093099670467,34.008734168804516,2.8904654983523352,0.5342079471130222,B,842.8807079908438,Correct,sub_007_day_04_data.csv,1,300,35.0,Training at home,,,,,,,,,,,,,
7,4,876,B,77.30096025560357,46.31067510070195,3.8650480127801785,0.7274463833957451,B,614.6166250109673,Correct,sub_007_day_04_data.csv,1,300,35.0,Training at home,,,,,,,,,,,,,
7,4,877,B,86.87961088118468,59.190441735644086,4.343980544059234,0.9297612845971706,B,560.7413739780895,Correct,sub_007_day_04_data.csv,1,300,35.0,Training at home,,,,,,,,,,,,,
7,4,878,B,37.622002407972936,15.917598981863488,1.8811001203986464,0.2500330601210535,B,734.9102909793146,Correct,sub_007_day_04_data.csv,1,300,35.0,Training at home,,,,,,,,,,,,,
7,4,879,B,57.01630435138688,40.09922709942605,2.850815217569344,0.6298771863509282,B,1555.1077490090393,Correct,sub_007_day_04_data.csv,1,300,35.0,Training at home,,,,,,,,,,,,,
7,4,880,A,58.51611501372652,81.02783009563208,2.925805750686326,1.2727821788237983,A,1304.076166998129,Correct,sub_007_day_04_data.csv,1,300,35.0,Training at home,,,,,,,,,,,,,
7,4,881,A,24.44476941878476,51.71451077109322,1.222238470939238,0.8123296356122834,A,609.6319999778643,Correct,sub_007_day_04_data.csv,1,300,35.0,Training at home,,,,,,,,,,,,,
7,4,882,B,73.63902590494305,46.852164950457336,3.681951295247153,0.7359520860656699,B,987.9492910113186,Correct,sub_007_day_04_data.csv,1,300,35.0,Training at home,,,,,,,,,,,,,
7,4,883,A,36.13771672140168,58.47864618871041,1.806885836070084,0.9185804262916468,A,1203.4068750217557,Correct,sub_007_day_04_data.csv,1,300,35.0,Training at home,,,,,,,,,,,,,
7,4,884,B,65.97280883446595,53.56535219737267,3.2986404417232973,0.8414025847510792,B,1043.6930829891935,Correct,sub_007_day_04_data.csv,1,300,35.0,Training at home,,,,,,,,,,,,,
7,4,885,A,28.048598849103783,51.17445382312368,1.402429942455189,0.803846440910977,A,2249.718874983955,Correct,sub_007_day_04_data.csv,1,300,35.0,Training at home,,,,,,,,,,,,,
7,4,886,B,61.17320557278621,47.92569209853728,3.0586602786393104,0.7528150110748557,B,682.512498984579,Correct,sub_007_day_04_data.csv,1,300,35.0,Training at home,,,,,,,,,,,,,
7,4,887,A,53.091582742941085,72.77628344205571,2.654579137147054,1.143167187085654,A,1287.895290995948,Correct,sub_007_day_04_data.csv,1,300,35.0,Training at home,,,,,,,,,,,,,
7,4,888,A,43.48199661416004,74.7519283177499,2.174099830708002,1.1742005442235697,A,1146.514667023439,Correct,sub_007_day_04_data.csv,1,300,35.0,Training at home,,,,,,,,,,,,,
7,4,889,B,67.41777310801417,52.428864960963615,3.3708886554007087,0.8235506849870731,B,937.0005410164596,Correct,sub_007_day_04_data.csv,1,300,35.0,Training at home,,,,,,,,,,,,,
7,4,890,B,66.84032552485877,51.887947834063745,3.3420162762429384,0.8150539786267255,B,810.4967919643968,Correct,sub_007_day_04_data.csv,1,300,35.0,Training at home,,,,,,,,,,,,,
7,4,891,B,50.756723577435785,32.46039620522954,2.53783617887179,0.5098867112548157,B,819.9282080167904,Correct,sub_007_day_04_data.csv,1,300,35.0,Training at home,,,,,,,,,,,,,
7,4,892,B,55.04528431516913,23.865274655237545,2.7522642157584563,0.3748748576639847,B,590.6793739995919,Correct,sub_007_day_04_data.csv,1,300,35.0,Training at home,,,,,,,,,,,,,
7,4,893,B,50.751362770723446,41.2123765950866,2.5375681385361726,0.6473624977405,B,1024.730249948334,Correct,sub_007_day_04_data.csv,1,300,35.0,Training at home,,,,,,,,,,,,,
7,4,894,A,25.928780856475015,42.992318238189235,1.2964390428237509,0.6753217556894487,A,1024.1099579725417,Correct,sub_007_day_04_data.csv,1,300,35.0,Training at home,,,,,,,,,,,,,
7,4,895,B,68.11942838744912,51.44879853219681,3.4059714193724564,0.8081558375238542,B,1065.303582989145,Correct,sub_007_day_04_data.csv,1,300,35.0,Training at home,,,,,,,,,,,,,
7,4,896,B,60.5359228779036,40.01035367536623,3.0267961438951803,0.6284811658702997,B,623.182374984026,Correct,sub_007_day_04_data.csv,1,300,35.0,Training at home,,,,,,,,,,,,,
7,4,897,B,39.70176804733641,26.50549997333084,1.9850884023668205,0.4163474199797031,B,767.1237500035204,Correct,sub_007_day_04_data.csv,1,300,35.0,Training at home,,,,,,,,,,,,,
7,4,898,B,46.573833742443234,20.479438213793603,2.328691687122162,0.3216902632105003,B,709.5394989592023,Correct,sub_007_day_04_data.csv,1,300,35.0,Training at home,,,,,,,,,,,,,
7,4,899,A,33.79741746622557,64.444376852638,1.6898708733112784,1.0122899044270983,A,810.785332985688,Correct,sub_007_day_04_data.csv,1,300,35.0,Training at home,,,,,,,,,,,,,
