subject,day,trial,cat,x,y,xt,yt,resp,rt,fb,f_name,acc,n_trials,block,session_type,ns_left_digit,ns_right_digit,ns_left_size,ns_right_size,ns_congruent,ns_cue,ns_correct_side,ns_resp,ns_rt,ns_fb,acc_stroop,acc_stroop_mean,resp_key
7,2,0,B,79.9252205,65.32601099,3.996261025,1.026138581,A,3408.777582,Incorrect,sub_007_day_02_data.csv,0,300,0.0,Training at home,,,,,,,,,,,,,
7,2,1,B,54.82945368,42.43896811,2.741472684,0.666629752,A,1073.063291,Incorrect,sub_007_day_02_data.csv,0,300,0.0,Training at home,,,,,,,,,,,,,
7,2,2,B,68.30917697,39.104341,3.415458848,0.614249552,B,717.732874,Correct,sub_007_day_02_data.csv,1,300,0.0,Training at home,,,,,,,,,,,,,
7,2,3,A,19.8958257,41.25029383,0.994791285,0.6479581,A,585.418582,Correct,sub_007_day_02_data.csv,1,300,0.0,Training at home,,,,,,,,,,,,,
7,2,4,B,77.44016442,53.73662093,3.872008221,0.844092868,B,533.717707,Correct,sub_007_day_02_data.csv,1,300,0.0,Training at home,,,,,,,,,,,,,
7,2,5,B,76.75388797,61.08954521,3.837694399,0.959592332,B,1246.172374,Correct,sub_007_day_02_data.csv,1,300,0.0,Training at home,,,,,,,,,,,,,
7,2,6,B,88.72862927,63.59235822,4.436431464,0.998906427,B,781.286374,Correct,sub_007_day_02_data.csv,1,300,0.0,Training at home,,,,,,,,,,,,,
7,2,7,B,79.93372287,56.02376827,3.996686144,0.880019294,B,748.279,Correct,sub_007_day_02_data.csv,1,300,0.0,Training at home,,,,,,,,,,,,,
7,2,8,B,44.70732608,22.9091109,2.235366304,0.359855473,B,1611.268749,Correct,sub_007_day_02_data.csv,1,300,0.0,Training at home,,,,,,,,,,,,,
7,2,9,A,17.82072459,47.60758771,0.89103623,0.747818239,A,452.938791,Correct,sub_007_day_02_data.csv,1,300,0.0,Training at home,,,,,,,,,,,,,
7,2,10,A,14.57738911,43.59135843,0.728869456,0.684731457,A,578.542374,Correct,sub_007_day_02_data.csv,1,300,0.0,Training at home,,,,,,,,,,,,,
7,2,11,B,61.34441586,34.23805808,3.067220793,0.537810159,B,1005.112082,Correct,sub_007_day_02_data.csv,1,300,0.0,Training at home,,,,,,,,,,,,,
7,2,12,A,26.9581552,58.19116818,1.34790776,0.914064732,A,915.163708,Correct,sub_007_day_02_data.csv,1,300,0.0,Training at home,,,,,,,,,,,,,
7,2,13,A,51.88151975,63.05991905,2.594075988,0.990542892,B,967.586791,Incorrect,sub_007_day_02_data.csv,0,300,0.0,Training at home,,,,,,,,,,,,,
7,2,14,A,32.1767971,45.69444315,1.608839855,0.717766635,A,2203.652291,Correct,sub_007_day_02_data.csv,1,300,0.0,Training at home,,,,,,,,,,,,,
7,2,15,B,84.01118941,64.54639612,4.200559471,1.013892419,B,516.047666,Correct,sub_007_day_02_data.csv,1,300,0.0,Training at home,,,,,,,,,,,,,
7,2,16,A,60.04121444,84.9716515,3.002060722,1.334731581,A,1177.170666,Correct,sub_007_day_02_data.csv,1,300,0.0,Training at home,,,,,,,,,,,,,
7,2,17,B,64.04104252,33.76260155,3.202052126,0.530341705,B,1602.524166,Correct,sub_007_day_02_data.csv,1,300,0.0,Training at home,,,,,,,,,,,,,
7,2,18,A,26.6053171,55.35688719,1.330265855,0.869543951,A,633.721625,Correct,sub_007_day_02_data.csv,1,300,0.0,Training at home,,,,,,,,,,,,,
7,2,19,B,72.93150326,40.34756358,3.646575163,0.633778047,B,1187.691166,Correct,sub_007_day_02_data.csv,1,300,0.0,Training at home,,,,,,,,,,,,,
7,2,20,B,84.05602258,68.93584809,4.202801129,1.08284177,B,1202.339083,Correct,sub_007_day_02_data.csv,1,300,0.0,Training at home,,,,,,,,,,,,,
7,2,21,B,57.53460914,43.80579201,2.876730457,0.688099772,B,837.680791,Correct,sub_007_day_02_data.csv,1,300,0.0,Training at home,,,,,,,,,,,,,
7,2,22,B,76.04992802,63.83507107,3.802496401,1.002718952,B,1406.537791,Correct,sub_007_day_02_data.csv,1,300,0.0,Training at home,,,,,,,,,,,,,
7,2,23,B,81.77586392,51.22235433,4.088793196,0.80459886,B,1121.028125,Correct,sub_007_day_02_data.csv,1,300,0.0,Training at home,,,,,,,,,,,,,
7,2,24,A,41.2554008,71.46775025,2.06277004,1.122612796,A,710.923458,Correct,sub_007_day_02_data.csv,1,300,0.0,Training at home,,,,,,,,,,,,,
7,2,25,A,38.44564334,61.14957325,1.922282167,0.96053525,A,651.955416,Correct,sub_007_day_02_data.csv,1,300,1.0,Training at home,,,,,,,,,,,,,
7,2,26,A,26.90447649,42.61340979,1.345223824,0.669369876,A,931.035916,Correct,sub_007_day_02_data.csv,1,300,1.0,Training at home,,,,,,,,,,,,,
7,2,27,B,42.56755083,20.06374045,2.128377542,0.315160498,B,1007.531041,Correct,sub_007_day_02_data.csv,1,300,1.0,Training at home,,,,,,,,,,,,,
7,2,28,B,67.79482183,37.90244193,3.389741091,0.595370166,B,888.4475,Correct,sub_007_day_02_data.csv,1,300,1.0,Training at home,,,,,,,,,,,,,
7,2,29,B,49.00368567,29.41265989,2.450184283,0.462012981,B,1108.711124,Correct,sub_007_day_02_data.csv,1,300,1.0,Training at home,,,,,,,,,,,,,
7,2,30,A,40.15249857,70.1275875,2.007624929,1.101561569,A,819.925583,Correct,sub_007_day_02_data.csv,1,300,1.0,Training at home,,,,,,,,,,,,,
7,2,31,B,62.66221293,37.20717968,3.133110646,0.584449012,B,841.931916,Correct,sub_007_day_02_data.csv,1,300,1.0,Training at home,,,,,,,,,,,,,
7,2,32,A,37.80972009,69.7473997,1.890486005,1.095589592,A,777.019666,Correct,sub_007_day_02_data.csv,1,300,1.0,Training at home,,,,,,,,,,,,,
7,2,33,B,79.81376332,61.3040342,3.990688166,0.962961517,B,797.276374,Correct,sub_007_day_02_data.csv,1,300,1.0,Training at home,,,,,,,,,,,,,
7,2,34,A,59.98358586,77.37515031,2.999179293,1.215406019,A,1496.135041,Correct,sub_007_day_02_data.csv,1,300,1.0,Training at home,,,,,,,,,,,,,
7,2,35,A,17.50684438,37.78812104,0.875342219,0.593574417,A,520.489166,Correct,sub_007_day_02_data.csv,1,300,1.0,Training at home,,,,,,,,,,,,,
7,2,36,B,72.83635945,49.08849189,3.641817972,0.771080227,B,1972.865916,Correct,sub_007_day_02_data.csv,1,300,1.0,Training at home,,,,,,,,,,,,,
7,2,37,A,58.12512012,86.52679255,2.906256006,1.359159679,B,2423.585083,Incorrect,sub_007_day_02_data.csv,0,300,1.0,Training at home,,,,,,,,,,,,,
7,2,38,B,61.59189734,32.31839624,3.079594867,0.507656181,B,1055.692708,Correct,sub_007_day_02_data.csv,1,300,1.0,Training at home,,,,,,,,,,,,,
7,2,39,A,61.08340635,79.46684244,3.054170318,1.248262242,A,642.028207,Correct,sub_007_day_02_data.csv,1,300,1.0,Training at home,,,,,,,,,,,,,
7,2,40,B,55.02992384,38.3584215,2.751496192,0.602532676,B,1351.796291,Correct,sub_007_day_02_data.csv,1,300,1.0,Training at home,,,,,,,,,,,,,
7,2,41,A,41.28136464,67.13747524,2.064068232,1.054592995,A,1147.550291,Correct,sub_007_day_02_data.csv,1,300,1.0,Training at home,,,,,,,,,,,,,
7,2,42,A,37.80567056,45.5416952,1.890283528,0.715367275,A,1331.17225,Correct,sub_007_day_02_data.csv,1,300,1.0,Training at home,,,,,,,,,,,,,
7,2,43,A,51.40826881,62.86397059,2.57041344,0.987464941,A,744.734624,Correct,sub_007_day_02_data.csv,1,300,1.0,Training at home,,,,,,,,,,,,,
7,2,44,A,22.15934077,42.64867373,1.107967039,0.6699238,A,526.370041,Correct,sub_007_day_02_data.csv,1,300,1.0,Training at home,,,,,,,,,,,,,
7,2,45,A,13.57114241,37.69696779,0.67855712,0.592142585,A,697.463333,Correct,sub_007_day_02_data.csv,1,300,1.0,Training at home,,,,,,,,,,,,,
7,2,46,A,42.3669506,62.93026862,2.11834753,0.988506348,A,1204.089166,Correct,sub_007_day_02_data.csv,1,300,1.0,Training at home,,,,,,,,,,,,,
7,2,47,A,58.91446301,79.11414102,2.945723151,1.242722021,B,2598.287374,Incorrect,sub_007_day_02_data.csv,0,300,1.0,Training at home,,,,,,,,,,,,,
7,2,48,B,34.25861586,22.80026889,1.712930793,0.358145786,B,1177.505166,Correct,sub_007_day_02_data.csv,1,300,1.0,Training at home,,,,,,,,,,,,,
7,2,49,A,56.26709925,72.4150574,2.813354962,1.137493062,A,1877.741374,Correct,sub_007_day_02_data.csv,1,300,1.0,Training at home,,,,,,,,,,,,,
7,2,50,B,32.02192686,12.78744109,1.601096343,0.200864655,B,751.823333,Correct,sub_007_day_02_data.csv,1,300,2.0,Training at home,,,,,,,,,,,,,
7,2,51,A,28.944384,42.67073118,1.4472192,0.670270278,A,1724.924166,Correct,sub_007_day_02_data.csv,1,300,2.0,Training at home,,,,,,,,,,,,,
7,2,52,B,52.04736411,26.92639358,2.602368205,0.422958801,B,501.208875,Correct,sub_007_day_02_data.csv,1,300,2.0,Training at home,,,,,,,,,,,,,
7,2,53,A,32.52447483,57.53097844,1.626223741,0.903694496,A,951.705166,Correct,sub_007_day_02_data.csv,1,300,2.0,Training at home,,,,,,,,,,,,,
7,2,54,B,44.6189653,29.51392808,2.230948265,0.463603698,B,805.631416,Correct,sub_007_day_02_data.csv,1,300,2.0,Training at home,,,,,,,,,,,,,
7,2,55,A,14.64703472,34.11676703,0.732351736,0.535904923,A,641.721041,Correct,sub_007_day_02_data.csv,1,300,2.0,Training at home,,,,,,,,,,,,,
7,2,56,A,29.94184917,51.12837933,1.497092458,0.803122705,A,879.964041,Correct,sub_007_day_02_data.csv,1,300,2.0,Training at home,,,,,,,,,,,,,
7,2,57,B,59.3721231,33.74720667,2.968606155,0.530099883,B,647.611291,Correct,sub_007_day_02_data.csv,1,300,2.0,Training at home,,,,,,,,,,,,,
7,2,58,A,50.11901815,81.372013,2.505950908,1.278188591,A,1080.893708,Correct,sub_007_day_02_data.csv,1,300,2.0,Training at home,,,,,,,,,,,,,
7,2,59,B,76.49232948,53.74191958,3.824616474,0.844176099,B,699.459208,Correct,sub_007_day_02_data.csv,1,300,2.0,Training at home,,,,,,,,,,,,,
7,2,60,B,63.90462,47.49400173,3.195231,0.746034035,B,726.771666,Correct,sub_007_day_02_data.csv,1,300,2.0,Training at home,,,,,,,,,,,,,
7,2,61,B,63.58294256,50.22945433,3.179147128,0.789002424,B,639.947125,Correct,sub_007_day_02_data.csv,1,300,2.0,Training at home,,,,,,,,,,,,,
7,2,62,B,31.28535709,17.76497305,1.564267855,0.279051544,B,950.237583,Correct,sub_007_day_02_data.csv,1,300,2.0,Training at home,,,,,,,,,,,,,
7,2,63,B,56.34747783,32.32299266,2.817373891,0.507728381,B,1070.825083,Correct,sub_007_day_02_data.csv,1,300,2.0,Training at home,,,,,,,,,,,,,
7,2,64,A,57.05175992,68.61669623,2.852587996,1.077828544,A,2001.545166,Correct,sub_007_day_02_data.csv,1,300,2.0,Training at home,,,,,,,,,,,,,
7,2,65,B,68.45850238,38.84770812,3.422925119,0.610218372,B,1178.499582,Correct,sub_007_day_02_data.csv,1,300,2.0,Training at home,,,,,,,,,,,,,
7,2,66,B,75.02682069,63.43918896,3.751341034,0.99650045,A,660.289958,Incorrect,sub_007_day_02_data.csv,0,300,2.0,Training at home,,,,,,,,,,,,,
7,2,67,B,56.55740645,35.32497616,2.827870323,0.554883428,B,1999.383541,Correct,sub_007_day_02_data.csv,1,300,2.0,Training at home,,,,,,,,,,,,,
7,2,68,A,47.91598138,69.99339515,2.395799069,1.09945368,A,658.885833,Correct,sub_007_day_02_data.csv,1,300,2.0,Training at home,,,,,,,,,,,,,
7,2,69,A,43.48183091,68.41256395,2.174091545,1.074622042,A,801.39425,Correct,sub_007_day_02_data.csv,1,300,2.0,Training at home,,,,,,,,,,,,,
7,2,70,A,22.23340526,37.31773515,1.111670263,0.586185613,A,567.640499,Correct,sub_007_day_02_data.csv,1,300,2.0,Training at home,,,,,,,,,,,,,
7,2,71,A,24.66737961,56.02108211,1.233368981,0.8799771,A,599.969916,Correct,sub_007_day_02_data.csv,1,300,2.0,Training at home,,,,,,,,,,,,,
7,2,72,B,32.29353655,10.98506702,1.614676827,0.172553029,B,935.400416,Correct,sub_007_day_02_data.csv,1,300,2.0,Training at home,,,,,,,,,,,,,
7,2,73,B,41.78919824,28.85523778,2.089459912,0.453257015,B,1984.269249,Correct,sub_007_day_02_data.csv,1,300,2.0,Training at home,,,,,,,,,,,,,
7,2,74,A,52.41211454,75.62118332,2.620605727,1.18785477,B,1629.875541,Incorrect,sub_007_day_02_data.csv,0,300,2.0,Training at home,,,,,,,,,,,,,
7,2,75,A,61.76941714,72.29088344,3.088470857,1.135542542,B,751.7935,Incorrect,sub_007_day_02_data.csv,0,300,3.0,Training at home,,,,,,,,,,,,,
7,2,76,B,64.04062226,31.06487557,3.202031113,0.487965924,B,588.5656661,Correct,sub_007_day_02_data.csv,1,300,3.0,Training at home,,,,,,,,,,,,,
7,2,77,B,78.0980276,52.45097025,3.90490138,0.823897914,B,834.031708,Correct,sub_007_day_02_data.csv,1,300,3.0,Training at home,,,,,,,,,,,,,
7,2,78,A,29.82519627,61.02483725,1.491259813,0.958575902,A,531.422832,Correct,sub_007_day_02_data.csv,1,300,3.0,Training at home,,,,,,,,,,,,,
7,2,79,B,72.40227969,53.29147152,3.620113985,0.837100477,A,1018.857332,Incorrect,sub_007_day_02_data.csv,0,300,3.0,Training at home,,,,,,,,,,,,,
7,2,80,B,55.85164778,41.78253758,2.792582389,0.656318566,B,1544.225374,Correct,sub_007_day_02_data.csv,1,300,3.0,Training at home,,,,,,,,,,,,,
7,2,81,B,31.18561625,17.37128982,1.559280813,0.272867582,B,1410.134833,Correct,sub_007_day_02_data.csv,1,300,3.0,Training at home,,,,,,,,,,,,,
7,2,82,A,35.49841885,54.33647011,1.774920943,0.853515277,A,1214.451875,Correct,sub_007_day_02_data.csv,1,300,3.0,Training at home,,,,,,,,,,,,,
7,2,83,A,52.54050493,62.00452593,2.627025247,0.973964816,A,840.102041,Correct,sub_007_day_02_data.csv,1,300,3.0,Training at home,,,,,,,,,,,,,
7,2,84,B,64.62132707,49.285876,3.231066353,0.77418073,A,1638.570166,Incorrect,sub_007_day_02_data.csv,0,300,3.0,Training at home,,,,,,,,,,,,,
7,2,85,A,15.06652845,43.14732954,0.753326422,0.677756667,A,572.194916,Correct,sub_007_day_02_data.csv,1,300,3.0,Training at home,,,,,,,,,,,,,
7,2,86,A,30.38196984,44.84308141,1.519098492,0.704393476,A,932.082999,Correct,sub_007_day_02_data.csv,1,300,3.0,Training at home,,,,,,,,,,,,,
7,2,87,B,70.61085986,53.63576132,3.530542993,0.842508569,B,1137.474,Correct,sub_007_day_02_data.csv,1,300,3.0,Training at home,,,,,,,,,,,,,
7,2,88,B,62.02564028,31.89322204,3.101282014,0.50097756,B,837.765624,Correct,sub_007_day_02_data.csv,1,300,3.0,Training at home,,,,,,,,,,,,,
7,2,89,A,28.66515713,57.31621066,1.433257856,0.900320932,A,1027.581833,Correct,sub_007_day_02_data.csv,1,300,3.0,Training at home,,,,,,,,,,,,,
7,2,90,A,46.91617152,65.75364028,2.345808576,1.032855766,A,1392.86025,Correct,sub_007_day_02_data.csv,1,300,3.0,Training at home,,,,,,,,,,,,,
7,2,91,A,28.27325663,52.02929535,1.413662831,0.81727426,A,1002.728583,Correct,sub_007_day_02_data.csv,1,300,3.0,Training at home,,,,,,,,,,,,,
7,2,92,B,67.23520863,53.04689818,3.361760431,0.833258728,B,727.377916,Correct,sub_007_day_02_data.csv,1,300,3.0,Training at home,,,,,,,,,,,,,
7,2,93,B,73.35787546,46.24982101,3.667893773,0.72649049,B,1117.651416,Correct,sub_007_day_02_data.csv,1,300,3.0,Training at home,,,,,,,,,,,,,
7,2,94,A,53.43016095,61.80442417,2.671508047,0.970821625,A,1581.483583,Correct,sub_007_day_02_data.csv,1,300,3.0,Training at home,,,,,,,,,,,,,
7,2,95,A,23.64444634,38.85967057,1.182222317,0.610406278,A,546.955083,Correct,sub_007_day_02_data.csv,1,300,3.0,Training at home,,,,,,,,,,,,,
7,2,96,B,46.38279119,34.90253586,2.319139559,0.548247751,A,1187.723499,Incorrect,sub_007_day_02_data.csv,0,300,3.0,Training at home,,,,,,,,,,,,,
7,2,97,B,49.25991351,37.82132928,2.462995675,0.594096051,A,1003.41475,Incorrect,sub_007_day_02_data.csv,0,300,3.0,Training at home,,,,,,,,,,,,,
7,2,98,A,38.63176998,50.19856511,1.931588499,0.788517217,A,583.212208,Correct,sub_007_day_02_data.csv,1,300,3.0,Training at home,,,,,,,,,,,,,
7,2,99,B,82.34388014,63.02811115,4.117194007,0.990043255,A,1787.826833,Incorrect,sub_007_day_02_data.csv,0,300,3.0,Training at home,,,,,,,,,,,,,
7,2,100,B,71.42053475,43.74601112,3.571026737,0.687160736,B,919.091624,Correct,sub_007_day_02_data.csv,1,300,4.0,Training at home,,,,,,,,,,,,,
7,2,101,A,41.21539552,56.42774787,2.060769776,0.886364991,A,914.4735,Correct,sub_007_day_02_data.csv,1,300,4.0,Training at home,,,,,,,,,,,,,
7,2,102,A,16.62210893,44.26360547,0.831105446,0.695291089,A,533.477416,Correct,sub_007_day_02_data.csv,1,300,4.0,Training at home,,,,,,,,,,,,,
7,2,103,B,85.64528146,69.65943712,4.282264073,1.094207879,B,887.887666,Correct,sub_007_day_02_data.csv,1,300,4.0,Training at home,,,,,,,,,,,,,
7,2,104,A,38.0064817,50.40274027,1.900324085,0.791724393,A,866.583874,Correct,sub_007_day_02_data.csv,1,300,4.0,Training at home,,,,,,,,,,,,,
7,2,105,B,77.40336512,51.56015912,3.870168256,0.809905086,B,1134.279375,Correct,sub_007_day_02_data.csv,1,300,4.0,Training at home,,,,,,,,,,,,,
7,2,106,A,32.01127912,61.5437607,1.600563956,0.966727132,A,700.064083,Correct,sub_007_day_02_data.csv,1,300,4.0,Training at home,,,,,,,,,,,,,
7,2,107,A,36.02713444,45.38408746,1.801356722,0.712891579,A,997.851291,Correct,sub_007_day_02_data.csv,1,300,4.0,Training at home,,,,,,,,,,,,,
7,2,108,B,34.32065646,12.00996107,1.716032823,0.188652027,B,749.931333,Correct,sub_007_day_02_data.csv,1,300,4.0,Training at home,,,,,,,,,,,,,
7,2,109,A,13.60669517,39.86173696,0.680334758,0.6261467,A,551.564708,Correct,sub_007_day_02_data.csv,1,300,4.0,Training at home,,,,,,,,,,,,,
7,2,110,B,82.20527706,54.92882252,4.110263853,0.862819926,B,1118.547124,Correct,sub_007_day_02_data.csv,1,300,4.0,Training at home,,,,,,,,,,,,,
7,2,111,B,41.58932389,14.21153697,2.079466194,0.223234301,B,663.390416,Correct,sub_007_day_02_data.csv,1,300,4.0,Training at home,,,,,,,,,,,,,
7,2,112,A,57.71877967,81.35599593,2.885938984,1.277936996,A,1265.918208,Correct,sub_007_day_02_data.csv,1,300,4.0,Training at home,,,,,,,,,,,,,
7,2,113,B,77.74416267,50.54999541,3.887208134,0.794037471,B,1331.297249,Correct,sub_007_day_02_data.csv,1,300,4.0,Training at home,,,,,,,,,,,,,
7,2,114,B,48.23338836,37.97486057,2.411669418,0.596507715,A,3210.843916,Incorrect,sub_007_day_02_data.csv,0,300,4.0,Training at home,,,,,,,,,,,,,
7,2,115,B,60.7375769,46.44736742,3.036878845,0.729593541,B,789.279499,Correct,sub_007_day_02_data.csv,1,300,4.0,Training at home,,,,,,,,,,,,,
7,2,116,A,26.0713547,55.42966108,1.303567735,0.87068708,A,689.6575411,Correct,sub_007_day_02_data.csv,1,300,4.0,Training at home,,,,,,,,,,,,,
7,2,117,A,49.71299248,62.41357452,2.485649624,0.980390136,A,825.645166,Correct,sub_007_day_02_data.csv,1,300,4.0,Training at home,,,,,,,,,,,,,
7,2,118,B,42.9211463,24.33059157,2.146057315,0.382184039,B,1822.138499,Correct,sub_007_day_02_data.csv,1,300,4.0,Training at home,,,,,,,,,,,,,
7,2,119,A,12.27295206,31.72257284,0.613647603,0.498297009,A,776.643291,Correct,sub_007_day_02_data.csv,1,300,4.0,Training at home,,,,,,,,,,,,,
7,2,120,B,70.78316364,59.22799845,3.539158182,0.930351224,A,1317.853791,Incorrect,sub_007_day_02_data.csv,0,300,4.0,Training at home,,,,,,,,,,,,,
7,2,121,A,35.0011863,58.39830359,1.750059315,0.917318408,A,679.553833,Correct,sub_007_day_02_data.csv,1,300,4.0,Training at home,,,,,,,,,,,,,
7,2,122,B,69.1958382,38.7290887,3.45979191,0.608355103,B,502.937374,Correct,sub_007_day_02_data.csv,1,300,4.0,Training at home,,,,,,,,,,,,,
7,2,123,A,54.40512143,80.68415307,2.720256071,1.267383713,A,1648.971583,Correct,sub_007_day_02_data.csv,1,300,4.0,Training at home,,,,,,,,,,,,,
7,2,124,B,88.13963726,69.71999261,4.406981863,1.095159083,B,1028.591999,Correct,sub_007_day_02_data.csv,1,300,4.0,Training at home,,,,,,,,,,,,,
7,2,125,B,78.77507515,62.92133236,3.938753758,0.988365978,B,1138.835624,Correct,sub_007_day_02_data.csv,1,300,5.0,Training at home,,,,,,,,,,,,,
7,2,126,B,57.14406796,39.59296538,2.857203398,0.621924846,A,1328.058624,Incorrect,sub_007_day_02_data.csv,0,300,5.0,Training at home,,,,,,,,,,,,,
7,2,127,A,51.17380021,66.38252218,2.558690011,1.04273422,B,1290.242207,Incorrect,sub_007_day_02_data.csv,0,300,5.0,Training at home,,,,,,,,,,,,,
7,2,128,B,45.49384603,36.8160412,2.274692301,0.578305023,B,818.287041,Correct,sub_007_day_02_data.csv,1,300,5.0,Training at home,,,,,,,,,,,,,
7,2,129,A,57.69415461,84.05966511,2.884707731,1.320406132,A,983.307916,Correct,sub_007_day_02_data.csv,1,300,5.0,Training at home,,,,,,,,,,,,,
7,2,130,A,45.22734431,53.68744895,2.261367216,0.843320476,A,1036.349499,Correct,sub_007_day_02_data.csv,1,300,5.0,Training at home,,,,,,,,,,,,,
7,2,131,A,33.107557,54.66169484,1.65537785,0.858623895,A,857.97925,Correct,sub_007_day_02_data.csv,1,300,5.0,Training at home,,,,,,,,,,,,,
7,2,132,B,73.01864544,42.1227083,3.650932272,0.661661955,B,706.990707,Correct,sub_007_day_02_data.csv,1,300,5.0,Training at home,,,,,,,,,,,,,
7,2,133,A,34.39284496,42.71560764,1.719642248,0.670975196,A,464.732166,Correct,sub_007_day_02_data.csv,1,300,5.0,Training at home,,,,,,,,,,,,,
7,2,134,B,49.45289909,23.87334779,2.472644954,0.37500167,B,628.610957,Correct,sub_007_day_02_data.csv,1,300,5.0,Training at home,,,,,,,,,,,,,
7,2,135,A,58.53286879,72.83349017,2.92664344,1.144065788,B,1164.016583,Incorrect,sub_007_day_02_data.csv,0,300,5.0,Training at home,,,,,,,,,,,,,
7,2,136,A,65.2959892,76.70475668,3.26479946,1.2048755,A,1058.750708,Correct,sub_007_day_02_data.csv,1,300,5.0,Training at home,,,,,,,,,,,,,
7,2,137,A,25.50111993,58.32644643,1.275055997,0.916189678,A,608.521291,Correct,sub_007_day_02_data.csv,1,300,5.0,Training at home,,,,,,,,,,,,,
7,2,138,B,66.87791151,54.09081163,3.343895575,0.849656482,B,1454.536166,Correct,sub_007_day_02_data.csv,1,300,5.0,Training at home,,,,,,,,,,,,,
7,2,139,B,44.03626849,27.56524999,2.201813425,0.432993934,B,809.765958,Correct,sub_007_day_02_data.csv,1,300,5.0,Training at home,,,,,,,,,,,,,
7,2,140,B,72.41526783,52.13857707,3.620763392,0.818990853,B,886.447708,Correct,sub_007_day_02_data.csv,1,300,5.0,Training at home,,,,,,,,,,,,,
7,2,141,A,28.3262487,39.89642465,1.416312435,0.626691573,A,700.175041,Correct,sub_007_day_02_data.csv,1,300,5.0,Training at home,,,,,,,,,,,,,
7,2,142,B,44.38241734,31.13724491,2.219120867,0.489102699,A,951.903499,Incorrect,sub_007_day_02_data.csv,0,300,5.0,Training at home,,,,,,,,,,,,,
7,2,143,A,47.95578957,64.18819055,2.397789479,1.008265739,A,840.623708,Correct,sub_007_day_02_data.csv,1,300,5.0,Training at home,,,,,,,,,,,,,
7,2,144,B,58.57978292,33.95217848,2.928989146,0.533319572,B,853.246416,Correct,sub_007_day_02_data.csv,1,300,5.0,Training at home,,,,,,,,,,,,,
7,2,145,B,59.66729133,43.3993108,2.983364566,0.68171478,B,742.266666,Correct,sub_007_day_02_data.csv,1,300,5.0,Training at home,,,,,,,,,,,,,
7,2,146,A,50.95591646,65.39885112,2.547795823,1.027282751,A,705.307458,Correct,sub_007_day_02_data.csv,1,300,5.0,Training at home,,,,,,,,,,,,,
7,2,147,B,48.83034145,24.95036579,2.441517072,0.391919429,B,616.084332,Correct,sub_007_day_02_data.csv,1,300,5.0,Training at home,,,,,,,,,,,,,
7,2,148,A,21.96395023,36.83306907,1.098197512,0.578572496,A,666.704624,Correct,sub_007_day_02_data.csv,1,300,5.0,Training at home,,,,,,,,,,,,,
7,2,149,B,74.41013531,48.25191726,3.720506765,0.757939344,B,800.929374,Correct,sub_007_day_02_data.csv,1,300,5.0,Training at home,,,,,,,,,,,,,
7,2,150,A,39.12766343,51.338728,1.956383171,0.806426854,A,1039.790958,Correct,sub_007_day_02_data.csv,1,300,6.0,Training at home,,,,,,,,,,,,,
7,2,151,B,72.83829177,58.39252508,3.641914588,0.917227639,B,679.4420819,Correct,sub_007_day_02_data.csv,1,300,6.0,Training at home,,,,,,,,,,,,,
7,2,152,B,61.87835924,44.16928791,3.093917962,0.693809552,B,851.949291,Correct,sub_007_day_02_data.csv,1,300,6.0,Training at home,,,,,,,,,,,,,
7,2,153,A,55.24289557,82.56373143,2.762144778,1.296908061,A,1367.331625,Correct,sub_007_day_02_data.csv,1,300,6.0,Training at home,,,,,,,,,,,,,
7,2,154,B,71.38371131,58.79423573,3.569185566,0.923537695,B,898.391541,Correct,sub_007_day_02_data.csv,1,300,6.0,Training at home,,,,,,,,,,,,,
7,2,155,B,77.66273606,57.71433702,3.883136803,0.906574686,B,975.5745,Correct,sub_007_day_02_data.csv,1,300,6.0,Training at home,,,,,,,,,,,,,
7,2,156,A,31.75229698,58.14031614,1.587614849,0.91326595,A,958.685582,Correct,sub_007_day_02_data.csv,1,300,6.0,Training at home,,,,,,,,,,,,,
7,2,157,B,59.81488566,46.68691944,2.990744283,0.733356416,B,2009.641874,Correct,sub_007_day_02_data.csv,1,300,6.0,Training at home,,,,,,,,,,,,,
7,2,158,A,18.74196659,34.54577315,0.93709833,0.542643736,A,532.353833,Correct,sub_007_day_02_data.csv,1,300,6.0,Training at home,,,,,,,,,,,,,
7,2,159,B,64.9813172,48.12064096,3.24906586,0.755877261,B,1532.674332,Correct,sub_007_day_02_data.csv,1,300,6.0,Training at home,,,,,,,,,,,,,
7,2,160,A,28.06131121,54.53515424,1.403065561,0.8566362,A,742.897291,Correct,sub_007_day_02_data.csv,1,300,6.0,Training at home,,,,,,,,,,,,,
7,2,161,B,60.4939473,45.94592362,3.024697365,0.721716881,A,665.369041,Incorrect,sub_007_day_02_data.csv,0,300,6.0,Training at home,,,,,,,,,,,,,
7,2,162,A,16.84583129,34.42116795,0.842291564,0.540686442,A,534.029582,Correct,sub_007_day_02_data.csv,1,300,6.0,Training at home,,,,,,,,,,,,,
7,2,163,A,13.00481438,31.32906503,0.650240719,0.492115803,A,692.457291,Correct,sub_007_day_02_data.csv,1,300,6.0,Training at home,,,,,,,,,,,,,
7,2,164,A,41.30300035,54.03086375,2.065150018,0.848714823,A,1050.690749,Correct,sub_007_day_02_data.csv,1,300,6.0,Training at home,,,,,,,,,,,,,
7,2,165,A,59.02557033,74.38277506,2.951278516,1.168401898,B,2119.839916,Incorrect,sub_007_day_02_data.csv,0,300,6.0,Training at home,,,,,,,,,,,,,
7,2,166,B,62.50645787,42.62833863,3.125322893,0.669604377,B,1146.856541,Correct,sub_007_day_02_data.csv,1,300,6.0,Training at home,,,,,,,,,,,,,
7,2,167,B,54.08749402,44.41659688,2.704374701,0.697694272,B,892.141999,Correct,sub_007_day_02_data.csv,1,300,6.0,Training at home,,,,,,,,,,,,,
7,2,168,A,32.39455399,48.38917952,1.619727699,0.760095454,A,715.796249,Correct,sub_007_day_02_data.csv,1,300,6.0,Training at home,,,,,,,,,,,,,
7,2,169,A,58.41798389,66.82014369,2.920899195,1.049608363,A,2031.802333,Correct,sub_007_day_02_data.csv,1,300,6.0,Training at home,,,,,,,,,,,,,
7,2,170,A,37.00422133,56.67167365,1.850211067,0.890196568,A,1004.867583,Correct,sub_007_day_02_data.csv,1,300,6.0,Training at home,,,,,,,,,,,,,
7,2,171,B,38.23271817,27.87896037,1.911635908,0.437921685,B,802.730916,Correct,sub_007_day_02_data.csv,1,300,6.0,Training at home,,,,,,,,,,,,,
7,2,172,A,17.61661439,34.48968673,0.880830719,0.541762732,A,504.840457,Correct,sub_007_day_02_data.csv,1,300,6.0,Training at home,,,,,,,,,,,,,
7,2,173,B,55.64065389,39.64811493,2.782032694,0.622791133,B,791.760541,Correct,sub_007_day_02_data.csv,1,300,6.0,Training at home,,,,,,,,,,,,,
7,2,174,B,70.59756171,60.16553726,3.529878085,0.945078049,B,643.745832,Correct,sub_007_day_02_data.csv,1,300,6.0,Training at home,,,,,,,,,,,,,
7,2,175,B,72.47812892,43.78615183,3.623906446,0.687791265,B,731.994499,Correct,sub_007_day_02_data.csv,1,300,7.0,Training at home,,,,,,,,,,,,,
7,2,176,B,59.82691002,48.85843196,2.991345501,0.767466455,B,777.430833,Correct,sub_007_day_02_data.csv,1,300,7.0,Training at home,,,,,,,,,,,,,
7,2,177,A,25.66786818,44.51375965,1.283393409,0.699220501,A,944.785999,Correct,sub_007_day_02_data.csv,1,300,7.0,Training at home,,,,,,,,,,,,,
7,2,178,B,47.44314817,26.7183073,2.372157408,0.41969019,B,1346.969208,Correct,sub_007_day_02_data.csv,1,300,7.0,Training at home,,,,,,,,,,,,,
7,2,179,A,58.45744916,78.95425065,2.922872458,1.240210469,A,2566.318958,Correct,sub_007_day_02_data.csv,1,300,7.0,Training at home,,,,,,,,,,,,,
7,2,180,A,44.8637227,73.85768441,2.243186135,1.160153794,A,1373.703875,Correct,sub_007_day_02_data.csv,1,300,7.0,Training at home,,,,,,,,,,,,,
7,2,181,A,41.9528532,62.67830873,2.09764266,0.984548571,B,1243.567207,Incorrect,sub_007_day_02_data.csv,0,300,7.0,Training at home,,,,,,,,,,,,,
7,2,182,B,70.31553979,47.97565258,3.515776989,0.753599789,B,670.721125,Correct,sub_007_day_02_data.csv,1,300,7.0,Training at home,,,,,,,,,,,,,
7,2,183,A,49.30859949,56.06345457,2.465429975,0.880642685,A,1513.205458,Correct,sub_007_day_02_data.csv,1,300,7.0,Training at home,,,,,,,,,,,,,
7,2,184,B,55.40839665,48.14244337,2.770419833,0.756219732,A,1401.307666,Incorrect,sub_007_day_02_data.csv,0,300,7.0,Training at home,,,,,,,,,,,,,
7,2,185,B,54.82094457,35.1644434,2.741047229,0.552361785,B,745.078916,Correct,sub_007_day_02_data.csv,1,300,7.0,Training at home,,,,,,,,,,,,,
7,2,186,A,15.9826676,41.98554695,0.79913338,0.659507429,A,585.217374,Correct,sub_007_day_02_data.csv,1,300,7.0,Training at home,,,,,,,,,,,,,
7,2,187,B,51.9688518,28.89593562,2.59844259,0.453896295,B,721.712249,Correct,sub_007_day_02_data.csv,1,300,7.0,Training at home,,,,,,,,,,,,,
7,2,188,B,68.57482756,45.79401634,3.428741378,0.719330726,B,685.960749,Correct,sub_007_day_02_data.csv,1,300,7.0,Training at home,,,,,,,,,,,,,
7,2,189,B,79.99159432,53.40224173,3.999579716,0.838840452,B,647.418624,Correct,sub_007_day_02_data.csv,1,300,7.0,Training at home,,,,,,,,,,,,,
7,2,190,B,77.34398121,66.10923666,3.867199061,1.038441461,B,610.885582,Correct,sub_007_day_02_data.csv,1,300,7.0,Training at home,,,,,,,,,,,,,
7,2,191,B,70.44939399,38.16875333,3.5224697,0.599553375,B,805.370416,Correct,sub_007_day_02_data.csv,1,300,7.0,Training at home,,,,,,,,,,,,,
7,2,192,B,73.11467601,56.93507809,3.655733801,0.894334115,B,1841.923583,Correct,sub_007_day_02_data.csv,1,300,7.0,Training at home,,,,,,,,,,,,,
7,2,193,A,24.3150681,38.59035295,1.215753405,0.606175847,A,736.581041,Correct,sub_007_day_02_data.csv,1,300,7.0,Training at home,,,,,,,,,,,,,
7,2,194,A,54.27714318,61.85915347,2.713857159,0.97168131,A,809.825749,Correct,sub_007_day_02_data.csv,1,300,7.0,Training at home,,,,,,,,,,,,,
7,2,195,A,36.16123525,59.01558946,1.808061763,0.927014712,A,992.294041,Correct,sub_007_day_02_data.csv,1,300,7.0,Training at home,,,,,,,,,,,,,
7,2,196,B,85.43905259,60.80422712,4.271952629,0.955110566,B,896.739625,Correct,sub_007_day_02_data.csv,1,300,7.0,Training at home,,,,,,,,,,,,,
7,2,197,B,74.50620268,57.75027121,3.725310134,0.907139139,B,553.088332,Correct,sub_007_day_02_data.csv,1,300,7.0,Training at home,,,,,,,,,,,,,
7,2,198,A,57.62901453,68.73251533,2.881450727,1.079647826,A,602.777541,Correct,sub_007_day_02_data.csv,1,300,7.0,Training at home,,,,,,,,,,,,,
7,2,199,B,37.77113647,21.18233632,1.888556823,0.332731361,B,996.18025,Correct,sub_007_day_02_data.csv,1,300,7.0,Training at home,,,,,,,,,,,,,
7,2,200,B,60.07598,42.61243062,3.003799,0.669354495,B,1662.459291,Correct,sub_007_day_02_data.csv,1,300,8.0,Training at home,,,,,,,,,,,,,
7,2,201,A,18.22995085,36.14320246,0.911497543,0.567736097,A,574.283333,Correct,sub_007_day_02_data.csv,1,300,8.0,Training at home,,,,,,,,,,,,,
7,2,202,B,51.92359634,23.56539861,2.596179817,0.370164416,B,855.999791,Correct,sub_007_day_02_data.csv,1,300,8.0,Training at home,,,,,,,,,,,,,
7,2,203,A,36.13555666,50.71124987,1.806777833,0.79657045,A,992.663749,Correct,sub_007_day_02_data.csv,1,300,8.0,Training at home,,,,,,,,,,,,,
7,2,204,B,40.74918499,17.01016551,2.03745925,0.267195055,B,855.464874,Correct,sub_007_day_02_data.csv,1,300,8.0,Training at home,,,,,,,,,,,,,
7,2,205,B,73.3079293,63.55681071,3.665396465,0.998348048,A,1750.230666,Incorrect,sub_007_day_02_data.csv,0,300,8.0,Training at home,,,,,,,,,,,,,
7,2,206,A,40.14737805,63.5484613,2.007368902,0.998216896,A,1082.121749,Correct,sub_007_day_02_data.csv,1,300,8.0,Training at home,,,,,,,,,,,,,
7,2,207,A,39.82873121,63.94834431,1.99143656,1.004498243,A,1419.687832,Correct,sub_007_day_02_data.csv,1,300,8.0,Training at home,,,,,,,,,,,,,
7,2,208,A,62.16710394,71.31821525,3.108355197,1.120263905,B,1090.187375,Incorrect,sub_007_day_02_data.csv,0,300,8.0,Training at home,,,,,,,,,,,,,
7,2,209,A,27.59837563,49.88371554,1.379918781,0.783571571,A,926.167082,Correct,sub_007_day_02_data.csv,1,300,8.0,Training at home,,,,,,,,,,,,,
7,2,210,A,20.69659775,34.99869295,1.034829888,0.549758183,A,499.093916,Correct,sub_007_day_02_data.csv,1,300,8.0,Training at home,,,,,,,,,,,,,
7,2,211,A,61.38831228,85.59438467,3.069415614,1.34451345,B,803.986708,Incorrect,sub_007_day_02_data.csv,0,300,8.0,Training at home,,,,,,,,,,,,,
7,2,212,A,48.9781999,80.23231331,2.448909995,1.26028623,A,556.704166,Correct,sub_007_day_02_data.csv,1,300,8.0,Training at home,,,,,,,,,,,,,
7,2,213,A,63.17158951,81.73910004,3.158579476,1.283954781,A,1435.409916,Correct,sub_007_day_02_data.csv,1,300,8.0,Training at home,,,,,,,,,,,,,
7,2,214,A,32.08999754,44.41433818,1.604499877,0.697658793,A,878.549041,Correct,sub_007_day_02_data.csv,1,300,8.0,Training at home,,,,,,,,,,,,,
7,2,215,B,59.88768864,40.54192651,2.994384432,0.636831092,B,1206.549291,Correct,sub_007_day_02_data.csv,1,300,8.0,Training at home,,,,,,,,,,,,,
7,2,216,B,59.89908963,29.14339932,2.994954482,0.457783446,B,685.856124,Correct,sub_007_day_02_data.csv,1,300,8.0,Training at home,,,,,,,,,,,,,
7,2,217,B,43.19990841,34.15815428,2.15999542,0.536555033,B,1684.113166,Correct,sub_007_day_02_data.csv,1,300,8.0,Training at home,,,,,,,,,,,,,
7,2,218,B,58.20897379,31.96266282,2.910448689,0.502068333,B,1278.296791,Correct,sub_007_day_02_data.csv,1,300,8.0,Training at home,,,,,,,,,,,,,
7,2,219,A,62.93529646,74.2694008,3.146764823,1.16662102,A,1204.713041,Correct,sub_007_day_02_data.csv,1,300,8.0,Training at home,,,,,,,,,,,,,
7,2,220,B,87.85250692,60.49387089,4.392625346,0.950235502,B,917.668833,Correct,sub_007_day_02_data.csv,1,300,8.0,Training at home,,,,,,,,,,,,,
7,2,221,B,69.76873745,42.63172796,3.488436873,0.669657617,B,1064.447416,Correct,sub_007_day_02_data.csv,1,300,8.0,Training at home,,,,,,,,,,,,,
7,2,222,A,59.72948561,69.08260407,2.986474281,1.085147007,B,1347.811957,Incorrect,sub_007_day_02_data.csv,0,300,8.0,Training at home,,,,,,,,,,,,,
7,2,223,A,53.97954247,82.32928961,2.698977124,1.293225457,A,882.130833,Correct,sub_007_day_02_data.csv,1,300,8.0,Training at home,,,,,,,,,,,,,
7,2,224,B,73.32704542,49.24285077,3.666352271,0.773504891,B,820.521666,Correct,sub_007_day_02_data.csv,1,300,8.0,Training at home,,,,,,,,,,,,,
7,2,225,B,73.65188201,56.03167738,3.6825941,0.88014353,B,741.822833,Correct,sub_007_day_02_data.csv,1,300,9.0,Training at home,,,,,,,,,,,,,
7,2,226,A,11.1203788,37.31165043,0.55601894,0.586090034,A,917.140291,Correct,sub_007_day_02_data.csv,1,300,9.0,Training at home,,,,,,,,,,,,,
7,2,227,A,42.52626022,71.40238217,2.126313011,1.121585996,A,677.494749,Correct,sub_007_day_02_data.csv,1,300,9.0,Training at home,,,,,,,,,,,,,
7,2,228,B,66.86461264,57.45284601,3.343230632,0.902467195,A,1411.111916,Incorrect,sub_007_day_02_data.csv,0,300,9.0,Training at home,,,,,,,,,,,,,
7,2,229,B,65.97439598,49.93491188,3.298719799,0.784375762,B,831.987166,Correct,sub_007_day_02_data.csv,1,300,9.0,Training at home,,,,,,,,,,,,,
7,2,230,A,57.03291797,79.04227116,2.851645899,1.241593092,A,889.221708,Correct,sub_007_day_02_data.csv,1,300,9.0,Training at home,,,,,,,,,,,,,
7,2,231,B,37.74424576,24.02551016,1.887212288,0.377391831,B,1135.258249,Correct,sub_007_day_02_data.csv,1,300,9.0,Training at home,,,,,,,,,,,,,
7,2,232,A,31.29730648,45.73251399,1.564865324,0.71836465,A,1816.560208,Correct,sub_007_day_02_data.csv,1,300,9.0,Training at home,,,,,,,,,,,,,
7,2,233,B,39.16102618,15.10223864,1.958051309,0.23722541,B,663.226374,Correct,sub_007_day_02_data.csv,1,300,9.0,Training at home,,,,,,,,,,,,,
7,2,234,A,34.25857752,55.99203933,1.712928876,0.879520897,A,1041.096249,Correct,sub_007_day_02_data.csv,1,300,9.0,Training at home,,,,,,,,,,,,,
7,2,235,A,45.32919724,73.7422155,2.266459862,1.158340012,A,786.869458,Correct,sub_007_day_02_data.csv,1,300,9.0,Training at home,,,,,,,,,,,,,
7,2,236,A,15.00049445,38.94844509,0.750024722,0.611800745,A,667.224791,Correct,sub_007_day_02_data.csv,1,300,9.0,Training at home,,,,,,,,,,,,,
7,2,237,B,47.4343448,21.45671109,2.37171724,0.33704123,B,964.743708,Correct,sub_007_day_02_data.csv,1,300,9.0,Training at home,,,,,,,,,,,,,
7,2,238,A,45.2716128,61.44038037,2.26358064,0.965103238,A,753.293416,Correct,sub_007_day_02_data.csv,1,300,9.0,Training at home,,,,,,,,,,,,,
7,2,239,A,15.73165414,34.13639991,0.786582707,0.536213316,A,521.597166,Correct,sub_007_day_02_data.csv,1,300,9.0,Training at home,,,,,,,,,,,,,
7,2,240,B,45.85660664,19.78361974,2.292830332,0.310760372,B,737.45575,Correct,sub_007_day_02_data.csv,1,300,9.0,Training at home,,,,,,,,,,,,,
7,2,241,A,42.86929126,54.31533607,2.143464563,0.853183304,A,730.885958,Correct,sub_007_day_02_data.csv,1,300,9.0,Training at home,,,,,,,,,,,,,
7,2,242,A,53.94269957,71.24177065,2.697134979,1.119063117,A,684.677458,Correct,sub_007_day_02_data.csv,1,300,9.0,Training at home,,,,,,,,,,,,,
7,2,243,B,81.6644892,54.58545582,4.08322446,0.857426335,B,946.628166,Correct,sub_007_day_02_data.csv,1,300,9.0,Training at home,,,,,,,,,,,,,
7,2,244,B,68.24259061,49.15259619,3.41212953,0.772087175,B,961.702707,Correct,sub_007_day_02_data.csv,1,300,9.0,Training at home,,,,,,,,,,,,,
7,2,245,B,36.65770439,23.59184511,1.832885219,0.370579836,B,797.558624,Correct,sub_007_day_02_data.csv,1,300,9.0,Training at home,,,,,,,,,,,,,
7,2,246,B,50.88353971,22.8581974,2.544176985,0.359055725,B,697.533124,Correct,sub_007_day_02_data.csv,1,300,9.0,Training at home,,,,,,,,,,,,,
7,2,247,B,65.61239153,35.06167221,3.280619577,0.550747459,B,700.916791,Correct,sub_007_day_02_data.csv,1,300,9.0,Training at home,,,,,,,,,,,,,
7,2,248,B,59.77581114,34.64287819,2.988790557,0.544169058,B,660.079041,Correct,sub_007_day_02_data.csv,1,300,9.0,Training at home,,,,,,,,,,,,,
7,2,249,B,34.39839493,13.69639661,1.719919747,0.215142495,B,872.970625,Correct,sub_007_day_02_data.csv,1,300,9.0,Training at home,,,,,,,,,,,,,
7,2,250,A,42.56699174,52.22475532,2.128349587,0.820344538,A,2513.450791,Correct,sub_007_day_02_data.csv,1,300,10.0,Training at home,,,,,,,,,,,,,
7,2,251,A,59.6571502,85.13003938,2.98285751,1.337219532,A,1905.588791,Correct,sub_007_day_02_data.csv,1,300,10.0,Training at home,,,,,,,,,,,,,
7,2,252,A,53.37592989,67.25061399,2.668796494,1.056370174,A,2151.537416,Correct,sub_007_day_02_data.csv,1,300,10.0,Training at home,,,,,,,,,,,,,
7,2,253,A,65.49481018,77.15993329,3.274740509,1.212025398,B,1126.532124,Incorrect,sub_007_day_02_data.csv,0,300,10.0,Training at home,,,,,,,,,,,,,
7,2,254,A,16.63503249,32.52396195,0.831751624,0.5108852,A,504.161791,Correct,sub_007_day_02_data.csv,1,300,10.0,Training at home,,,,,,,,,,,,,
7,2,255,B,62.70294982,40.34120195,3.135147491,0.633678118,B,1153.292083,Correct,sub_007_day_02_data.csv,1,300,10.0,Training at home,,,,,,,,,,,,,
7,2,256,A,53.1563993,76.58254848,2.657819965,1.202955859,A,868.635916,Correct,sub_007_day_02_data.csv,1,300,10.0,Training at home,,,,,,,,,,,,,
7,2,257,B,81.97571517,64.84981654,4.098785759,1.018658536,B,930.7265,Correct,sub_007_day_02_data.csv,1,300,10.0,Training at home,,,,,,,,,,,,,
7,2,258,A,46.10298629,78.08454986,2.305149314,1.226549241,A,938.444791,Correct,sub_007_day_02_data.csv,1,300,10.0,Training at home,,,,,,,,,,,,,
7,2,259,A,31.51016777,40.43426947,1.575508389,0.63514002,A,594.097041,Correct,sub_007_day_02_data.csv,1,300,10.0,Training at home,,,,,,,,,,,,,
7,2,260,B,42.89006244,27.60403074,2.144503122,0.433603101,A,1538.703291,Incorrect,sub_007_day_02_data.csv,0,300,10.0,Training at home,,,,,,,,,,,,,
7,2,261,A,41.23048959,55.4900024,2.06152448,0.871634919,A,916.232457,Correct,sub_007_day_02_data.csv,1,300,10.0,Training at home,,,,,,,,,,,,,
7,2,262,B,64.56189033,49.59336403,3.228094516,0.77901074,B,1397.977124,Correct,sub_007_day_02_data.csv,1,300,10.0,Training at home,,,,,,,,,,,,,
7,2,263,B,71.52133063,60.59637879,3.576066531,0.951845692,B,469.724666,Correct,sub_007_day_02_data.csv,1,300,10.0,Training at home,,,,,,,,,,,,,
7,2,264,A,26.92969678,58.69184878,1.346484839,0.921929405,A,432.326875,Correct,sub_007_day_02_data.csv,1,300,10.0,Training at home,,,,,,,,,,,,,
7,2,265,B,47.76661132,25.27837742,2.388330566,0.397071824,B,655.382332,Correct,sub_007_day_02_data.csv,1,300,10.0,Training at home,,,,,,,,,,,,,
7,2,266,A,37.97615405,50.04965309,1.898807702,0.786178112,A,728.925958,Correct,sub_007_day_02_data.csv,1,300,10.0,Training at home,,,,,,,,,,,,,
7,2,267,B,57.21977951,41.74708043,2.860988975,0.655761606,B,1185.745875,Correct,sub_007_day_02_data.csv,1,300,10.0,Training at home,,,,,,,,,,,,,
7,2,268,B,54.06326155,25.85396868,2.703163078,0.40611319,B,599.516124,Correct,sub_007_day_02_data.csv,1,300,10.0,Training at home,,,,,,,,,,,,,
7,2,269,A,33.68023831,50.9863306,1.684011916,0.800891408,A,648.379916,Correct,sub_007_day_02_data.csv,1,300,10.0,Training at home,,,,,,,,,,,,,
7,2,270,A,20.93352671,47.60536114,1.046676336,0.747783264,A,495.404124,Correct,sub_007_day_02_data.csv,1,300,10.0,Training at home,,,,,,,,,,,,,
7,2,271,B,68.6684295,56.36407417,3.433421475,0.885364807,B,782.647582,Correct,sub_007_day_02_data.csv,1,300,10.0,Training at home,,,,,,,,,,,,,
7,2,272,B,33.94465841,19.22040896,1.69723292,0.301913478,B,802.866208,Correct,sub_007_day_02_data.csv,1,300,10.0,Training at home,,,,,,,,,,,,,
7,2,273,A,40.18522033,49.28238799,2.009261017,0.77412594,A,1122.130083,Correct,sub_007_day_02_data.csv,1,300,10.0,Training at home,,,,,,,,,,,,,
7,2,274,B,65.34066053,47.38136862,3.267033026,0.744264798,B,641.422125,Correct,sub_007_day_02_data.csv,1,300,10.0,Training at home,,,,,,,,,,,,,
7,2,275,A,58.07797262,83.927308,2.903898631,1.318327071,A,1099.197833,Correct,sub_007_day_02_data.csv,1,300,11.0,Training at home,,,,,,,,,,,,,
7,2,276,B,73.14737662,54.26814297,3.657368831,0.852441996,B,863.371291,Correct,sub_007_day_02_data.csv,1,300,11.0,Training at home,,,,,,,,,,,,,
7,2,277,B,58.03632104,28.17745711,2.901816052,0.442610461,B,587.005833,Correct,sub_007_day_02_data.csv,1,300,11.0,Training at home,,,,,,,,,,,,,
7,2,278,A,64.58812338,84.18091679,3.229406169,1.322310749,A,1556.922291,Correct,sub_007_day_02_data.csv,1,300,11.0,Training at home,,,,,,,,,,,,,
7,2,279,A,48.75966923,73.74900033,2.437983462,1.158446588,A,633.059416,Correct,sub_007_day_02_data.csv,1,300,11.0,Training at home,,,,,,,,,,,,,
7,2,280,A,39.84101071,59.51654287,1.992050535,0.934883669,B,827.121207,Incorrect,sub_007_day_02_data.csv,0,300,11.0,Training at home,,,,,,,,,,,,,
7,2,281,B,41.77076504,23.06361558,2.088538252,0.362282426,B,584.6815,Correct,sub_007_day_02_data.csv,1,300,11.0,Training at home,,,,,,,,,,,,,
7,2,282,A,12.73998819,35.21035242,0.63699941,0.553082922,A,828.79575,Correct,sub_007_day_02_data.csv,1,300,11.0,Training at home,,,,,,,,,,,,,
7,2,283,A,39.32885427,63.67326105,1.966442714,1.000177246,A,937.331083,Correct,sub_007_day_02_data.csv,1,300,11.0,Training at home,,,,,,,,,,,,,
7,2,284,A,33.53936625,58.45326422,1.676968312,0.918181727,A,861.644083,Correct,sub_007_day_02_data.csv,1,300,11.0,Training at home,,,,,,,,,,,,,
7,2,285,A,12.78080221,31.4001613,0.63904011,0.49323258,A,564.915916,Correct,sub_007_day_02_data.csv,1,300,11.0,Training at home,,,,,,,,,,,,,
7,2,286,B,53.87932212,31.4039417,2.693966106,0.493291963,B,915.157291,Correct,sub_007_day_02_data.csv,1,300,11.0,Training at home,,,,,,,,,,,,,
7,2,287,A,63.7935838,79.77419472,3.18967919,1.25309012,B,688.633124,Incorrect,sub_007_day_02_data.csv,0,300,11.0,Training at home,,,,,,,,,,,,,
7,2,288,A,53.49200877,83.02136236,2.674600438,1.30409651,A,673.62775,Correct,sub_007_day_02_data.csv,1,300,11.0,Training at home,,,,,,,,,,,,,
7,2,289,B,74.30915032,62.32602592,3.715457516,0.979014926,B,596.633166,Correct,sub_007_day_02_data.csv,1,300,11.0,Training at home,,,,,,,,,,,,,
7,2,290,A,25.14714945,40.90538928,1.257357472,0.642540352,A,657.204291,Correct,sub_007_day_02_data.csv,1,300,11.0,Training at home,,,,,,,,,,,,,
7,2,291,A,18.62106929,46.82456888,0.931053465,0.735518608,A,604.682874,Correct,sub_007_day_02_data.csv,1,300,11.0,Training at home,,,,,,,,,,,,,
7,2,292,B,57.16232394,25.85772608,2.858116197,0.406172212,B,596.761999,Correct,sub_007_day_02_data.csv,1,300,11.0,Training at home,,,,,,,,,,,,,
7,2,293,A,30.77650704,44.85139041,1.538825352,0.704523993,A,1163.858208,Correct,sub_007_day_02_data.csv,1,300,11.0,Training at home,,,,,,,,,,,,,
7,2,294,A,18.05960029,38.173287,0.902980015,0.59962459,A,625.103875,Correct,sub_007_day_02_data.csv,1,300,11.0,Training at home,,,,,,,,,,,,,
7,2,295,A,36.40172192,44.99189364,1.820086096,0.706731013,A,945.430416,Correct,sub_007_day_02_data.csv,1,300,11.0,Training at home,,,,,,,,,,,,,
7,2,296,B,60.3652488,37.93106653,3.01826244,0.5958198,B,727.309916,Correct,sub_007_day_02_data.csv,1,300,11.0,Training at home,,,,,,,,,,,,,
7,2,297,A,61.80229475,85.31925394,3.090114737,1.340191707,A,1137.746625,Correct,sub_007_day_02_data.csv,1,300,11.0,Training at home,,,,,,,,,,,,,
7,2,298,B,47.83655097,40.21313953,2.391827548,0.631666519,A,1141.928957,Incorrect,sub_007_day_02_data.csv,0,300,11.0,Training at home,,,,,,,,,,,,,
7,2,299,B,60.35980614,49.66414015,3.017990307,0.780122489,A,774.191374,Incorrect,sub_007_day_02_data.csv,0,300,11.0,Training at home,,,,,,,,,,,,,
