subject,day,trial,cat,x,y,xt,yt,resp,rt,fb,f_name,acc,n_trials,block,session_type,ns_left_digit,ns_right_digit,ns_left_size,ns_right_size,ns_congruent,ns_cue,ns_correct_side,ns_resp,ns_rt,ns_fb,acc_stroop,acc_stroop_mean,resp_key
7,12,2400,B,80.53492307616987,59.41220852909679,4.026746153808494,0.9332447892427764,B,1442.8881659987385,Correct,sub_007_day_10_data.csv,1,300,96.0,Training at home,,,,,,,,,,,,,
7,12,2401,B,49.33884165411375,32.95841162963786,2.4669420827056876,0.5177095192482936,A,565.6897079898044,Incorrect,sub_007_day_10_data.csv,0,300,96.0,Training at home,,,,,,,,,,,,,
7,12,2402,B,49.92089181488598,42.92856131800219,2.4960445907442987,0.6743202643290733,A,796.6559999622405,Incorrect,sub_007_day_10_data.csv,0,300,96.0,Training at home,,,,,,,,,,,,,
7,12,2403,A,19.693353134276276,32.54489589346627,0.9846676567138138,0.5112140292537912,A,608.8596250046976,Correct,sub_007_day_10_data.csv,1,300,96.0,Training at home,,,,,,,,,,,,,
7,12,2404,A,21.288863832687635,48.15567992727978,1.0644431916343815,0.7564276514408181,A,498.4539580182173,Correct,sub_007_day_10_data.csv,1,300,96.0,Training at home,,,,,,,,,,,,,
7,12,2405,B,88.43884808375581,63.642781247747976,4.421942404187791,0.9996984701097364,B,674.6412079664879,Correct,sub_007_day_10_data.csv,1,300,96.0,Training at home,,,,,,,,,,,,,
7,12,2406,B,76.6313136874688,53.10194800683356,3.831565684373441,0.8341234487478774,A,1970.3100000042468,Incorrect,sub_007_day_10_data.csv,0,300,96.0,Training at home,,,,,,,,,,,,,
7,12,2407,A,28.414765287320535,51.14013931513024,1.420738264366027,0.8033074298798586,A,625.8303750073537,Correct,sub_007_day_10_data.csv,1,300,96.0,Training at home,,,,,,,,,,,,,
7,12,2408,B,63.217803295835616,55.351152373005824,3.160890164791781,0.8694538683138218,B,1180.0004160031676,Correct,sub_007_day_10_data.csv,1,300,96.0,Training at home,,,,,,,,,,,,,
7,12,2409,A,21.84612377864078,52.782305928264115,1.0923061889320391,0.8291025227188177,A,878.973999992013,Correct,sub_007_day_10_data.csv,1,300,96.0,Training at home,,,,,,,,,,,,,
7,12,2410,A,34.05690169566853,57.74449901133798,1.7028450847834264,0.9070484693962124,A,826.6887080390006,Correct,sub_007_day_10_data.csv,1,300,96.0,Training at home,,,,,,,,,,,,,
7,12,2411,B,38.842550687232915,22.29978799313313,1.9421275343616455,0.3502842506791846,B,557.3524999781512,Correct,sub_007_day_10_data.csv,1,300,96.0,Training at home,,,,,,,,,,,,,
7,12,2412,B,74.96501066492314,55.33697256586348,3.7482505332461575,0.8692311324240832,B,1522.9065419989638,Correct,sub_007_day_10_data.csv,1,300,96.0,Training at home,,,,,,,,,,,,,
7,12,2413,B,50.19828475800049,38.37736795042336,2.5099142379000243,0.602830286085812,B,1359.925624972675,Correct,sub_007_day_10_data.csv,1,300,96.0,Training at home,,,,,,,,,,,,,
7,12,2414,A,34.59525683335605,53.39719138851741,1.7297628416678026,0.8387611209424723,A,615.6377909937873,Correct,sub_007_day_10_data.csv,1,300,96.0,Training at home,,,,,,,,,,,,,
7,12,2415,B,68.25350379179822,45.67688598247866,3.412675189589911,0.7174908472070677,B,1230.1073330454528,Correct,sub_007_day_10_data.csv,1,300,96.0,Training at home,,,,,,,,,,,,,
7,12,2416,A,38.91509110113659,47.472422387593504,1.9457545550568296,0.7456950671048769,A,1228.1729590031318,Correct,sub_007_day_10_data.csv,1,300,96.0,Training at home,,,,,,,,,,,,,
7,12,2417,A,25.601101583377513,52.03079841839161,1.2800550791688756,0.8172978703581525,A,1164.2377079697326,Correct,sub_007_day_10_data.csv,1,300,96.0,Training at home,,,,,,,,,,,,,
7,12,2418,B,63.53095422594664,46.71794905604691,3.176547711297332,0.733843827726296,B,1937.7787499688568,Correct,sub_007_day_10_data.csv,1,300,96.0,Training at home,,,,,,,,,,,,,
7,12,2419,B,45.517778274707766,30.3575007649978,2.2758889137353884,0.4768545069233181,B,1044.6347079705447,Correct,sub_007_day_10_data.csv,1,300,96.0,Training at home,,,,,,,,,,,,,
7,12,2420,A,46.954748643966575,67.64068200214147,2.3477374321983286,1.0624973483086548,A,719.1056670271792,Correct,sub_007_day_10_data.csv,1,300,96.0,Training at home,,,,,,,,,,,,,
7,12,2421,B,63.29549394009389,53.52445751362461,3.1647746970046944,0.8407602125609104,B,1739.0598749625497,Correct,sub_007_day_10_data.csv,1,300,96.0,Training at home,,,,,,,,,,,,,
7,12,2422,A,42.03456963911848,68.05689235527481,2.101728481955924,1.0690351652474137,A,1582.8017499879934,Correct,sub_007_day_10_data.csv,1,300,96.0,Training at home,,,,,,,,,,,,,
7,12,2423,A,64.18610174700189,87.3699084041525,3.2093050873500943,1.3724033119364931,A,1017.1607920201496,Correct,sub_007_day_10_data.csv,1,300,96.0,Training at home,,,,,,,,,,,,,
7,12,2424,B,68.31905565404405,53.525220618805605,3.4159527827022025,0.8407721993890629,B,760.4227499687113,Correct,sub_007_day_10_data.csv,1,300,96.0,Training at home,,,,,,,,,,,,,
7,12,2425,B,76.39338297484994,53.18929020305123,3.819669148742497,0.8354954167578066,B,1500.6025840411894,Correct,sub_007_day_10_data.csv,1,300,97.0,Training at home,,,,,,,,,,,,,
7,12,2426,A,57.85358071059551,66.43494091593097,2.8926790355297753,1.0435576116158034,A,1538.4580420213751,Correct,sub_007_day_10_data.csv,1,300,97.0,Training at home,,,,,,,,,,,,,
7,12,2427,A,38.29914085779704,53.46609829048162,1.914957042889852,0.8398435080274342,A,644.3126669619232,Correct,sub_007_day_10_data.csv,1,300,97.0,Training at home,,,,,,,,,,,,,
7,12,2428,B,66.55369966222631,49.33769373097743,3.3276849831113156,0.7749946808515094,B,869.4070000201464,Correct,sub_007_day_10_data.csv,1,300,97.0,Training at home,,,,,,,,,,,,,
7,12,2429,A,20.098030540068144,33.87145416118925,1.0049015270034074,0.5320515577959779,A,964.4937079865484,Correct,sub_007_day_10_data.csv,1,300,97.0,Training at home,,,,,,,,,,,,,
7,12,2430,A,25.104663606565392,37.004235423012446,1.2552331803282697,0.5812611707832154,A,1552.95533395838,Correct,sub_007_day_10_data.csv,1,300,97.0,Training at home,,,,,,,,,,,,,
7,12,2431,A,42.88100308871939,62.572145992782914,2.14405015443597,0.982880970851374,A,1049.3525409838185,Correct,sub_007_day_10_data.csv,1,300,97.0,Training at home,,,,,,,,,,,,,
7,12,2432,A,32.825861783847856,62.38786384643146,1.641293089192393,0.9799862736655466,A,560.0765419658273,Correct,sub_007_day_10_data.csv,1,300,97.0,Training at home,,,,,,,,,,,,,
7,12,2433,A,30.629162721537636,57.45457947464608,1.5314581360768815,0.9024944239631952,A,609.9642080371268,Correct,sub_007_day_10_data.csv,1,300,97.0,Training at home,,,,,,,,,,,,,
7,12,2434,A,46.88235931120778,56.17747950877861,2.3441179655603888,0.8824337846098501,A,719.9387499713339,Correct,sub_007_day_10_data.csv,1,300,97.0,Training at home,,,,,,,,,,,,,
7,12,2435,B,58.5643780768644,37.36961020143368,2.92821890384322,0.5870004643816912,B,1850.2188750426285,Correct,sub_007_day_10_data.csv,1,300,97.0,Training at home,,,,,,,,,,,,,
7,12,2436,A,25.56229369950176,49.76632393477384,1.2781146849750882,0.781727588348277,A,938.3975840173662,Correct,sub_007_day_10_data.csv,1,300,97.0,Training at home,,,,,,,,,,,,,
7,12,2437,A,29.031703659335697,57.626144413427866,1.451585182966785,0.9051893597196474,A,1196.6461660340428,Correct,sub_007_day_10_data.csv,1,300,97.0,Training at home,,,,,,,,,,,,,
7,12,2438,A,53.44819975325691,71.01561530231338,2.6724099876628453,1.115510676619533,A,2137.002375035081,Correct,sub_007_day_10_data.csv,1,300,97.0,Training at home,,,,,,,,,,,,,
7,12,2439,B,44.17010399874708,32.36768022309056,2.2085051999373544,0.5084303320130247,B,2232.1627500350587,Correct,sub_007_day_10_data.csv,1,300,97.0,Training at home,,,,,,,,,,,,,
7,12,2440,A,57.29832835664897,72.34365043589979,2.8649164178324487,1.136371403716454,A,2005.4303749930111,Correct,sub_007_day_10_data.csv,1,300,97.0,Training at home,,,,,,,,,,,,,
7,12,2441,A,34.118677581627665,43.91204998928075,1.7059338790813832,0.6897688682519608,A,840.8222090220079,Correct,sub_007_day_10_data.csv,1,300,97.0,Training at home,,,,,,,,,,,,,
7,12,2442,A,20.774779427151884,49.41291832963586,1.0387389713575943,0.7761763060840822,A,600.8747920277528,Correct,sub_007_day_10_data.csv,1,300,97.0,Training at home,,,,,,,,,,,,,
7,12,2443,B,40.651043294170144,23.40696587360735,2.032552164708507,0.3676757601567593,B,597.3708330420777,Correct,sub_007_day_10_data.csv,1,300,97.0,Training at home,,,,,,,,,,,,,
7,12,2444,B,56.40004635790999,47.00791289536178,2.8200023178954994,0.7383985690632873,B,3817.6790840225294,Correct,sub_007_day_10_data.csv,1,300,97.0,Training at home,,,,,,,,,,,,,
7,12,2445,B,52.637535681636,33.86519488496947,2.6318767840818005,0.5319532373150336,B,1070.1349590090103,Correct,sub_007_day_10_data.csv,1,300,97.0,Training at home,,,,,,,,,,,,,
7,12,2446,A,34.784844525634924,52.15010920084416,1.7392422262817462,0.8191719997463873,A,911.7672499851324,Correct,sub_007_day_10_data.csv,1,300,97.0,Training at home,,,,,,,,,,,,,
7,12,2447,B,43.368059181739866,14.712009147845908,2.1684029590869933,0.2310956992920927,B,762.8939590067603,Correct,sub_007_day_10_data.csv,1,300,97.0,Training at home,,,,,,,,,,,,,
7,12,2448,B,76.59754516631257,59.558700520435686,3.829877258315628,0.9355458800617767,B,1662.8407909884118,Correct,sub_007_day_10_data.csv,1,300,97.0,Training at home,,,,,,,,,,,,,
7,12,2449,B,45.19881952227696,21.065799172873895,2.259940976113848,0.3309007996174928,B,609.0629999525845,Correct,sub_007_day_10_data.csv,1,300,97.0,Training at home,,,,,,,,,,,,,
7,12,2450,B,77.96594800971918,58.852428249971766,3.898297400485959,0.9244517811801584,B,950.86766598979,Correct,sub_007_day_10_data.csv,1,300,98.0,Training at home,,,,,,,,,,,,,
7,12,2451,B,54.07934698700981,25.855193553965908,2.7039673493504903,0.4061324306314074,B,1452.2777079837397,Correct,sub_007_day_10_data.csv,1,300,98.0,Training at home,,,,,,,,,,,,,
7,12,2452,A,51.09029820076219,70.41846633735226,2.5545149100381095,1.10613068261243,A,775.7706670090556,Correct,sub_007_day_10_data.csv,1,300,98.0,Training at home,,,,,,,,,,,,,
7,12,2453,A,23.79604759530526,42.26993044839368,1.189802379765263,0.6639745148221254,A,1291.5179160190746,Correct,sub_007_day_10_data.csv,1,300,98.0,Training at home,,,,,,,,,,,,,
7,12,2454,A,46.65972799330385,62.1700486187137,2.3329863996651925,0.976564840069356,A,2096.7913339845836,Correct,sub_007_day_10_data.csv,1,300,98.0,Training at home,,,,,,,,,,,,,
7,12,2455,B,55.796538625877965,47.742703900126834,2.789826931293898,0.7499406391757562,A,3719.801333034411,Incorrect,sub_007_day_10_data.csv,0,300,98.0,Training at home,,,,,,,,,,,,,
7,12,2456,B,53.942573152425354,26.059216994555513,2.6971286576212674,0.4093372233419894,B,1268.230457964819,Correct,sub_007_day_10_data.csv,1,300,98.0,Training at home,,,,,,,,,,,,,
7,12,2457,B,46.56726638011469,32.33743564443991,2.3283633190057342,0.5079552512825256,B,2147.70554198185,Correct,sub_007_day_10_data.csv,1,300,98.0,Training at home,,,,,,,,,,,,,
7,12,2458,A,31.795154049297203,64.5637213007567,1.58975770246486,1.0141645626343805,A,3909.622166014742,Correct,sub_007_day_10_data.csv,1,300,98.0,Training at home,,,,,,,,,,,,,
7,12,2459,A,19.9899636149865,48.91668677826729,0.999498180749325,0.7683815191027875,A,970.3664160333574,Correct,sub_007_day_10_data.csv,1,300,98.0,Training at home,,,,,,,,,,,,,
7,12,2460,B,47.414735832644325,28.39988210874972,2.3707367916322166,0.4461043049783215,B,1809.0685419738293,Correct,sub_007_day_10_data.csv,1,300,98.0,Training at home,,,,,,,,,,,,,
7,12,2461,B,59.462581226679944,26.997283893761868,2.9731290613339976,0.4240723437376016,B,2051.9897080375813,Correct,sub_007_day_10_data.csv,1,300,98.0,Training at home,,,,,,,,,,,,,
7,12,2462,A,23.144042092642596,43.70458022292309,1.1572021046321297,0.6865099407828047,A,786.0314999707043,Correct,sub_007_day_10_data.csv,1,300,98.0,Training at home,,,,,,,,,,,,,
7,12,2463,A,39.20188702041235,71.8926918411934,1.9600943510206177,1.1292877626754405,A,1113.1667920271866,Correct,sub_007_day_10_data.csv,1,300,98.0,Training at home,,,,,,,,,,,,,
7,12,2464,A,35.20050750661573,61.55784547138361,1.7600253753307866,0.9669483755185722,A,1094.3147499929182,Correct,sub_007_day_10_data.csv,1,300,98.0,Training at home,,,,,,,,,,,,,
7,12,2465,B,36.35087927320053,10.93929177376777,1.8175439636600264,0.1718339933597204,B,535.4444159893319,Correct,sub_007_day_10_data.csv,1,300,98.0,Training at home,,,,,,,,,,,,,
7,12,2466,A,20.850662840024206,41.816739663504734,1.0425331420012105,0.6568558106197169,A,656.9577499758452,Correct,sub_007_day_10_data.csv,1,300,98.0,Training at home,,,,,,,,,,,,,
7,12,2467,B,54.34233283243812,25.926541893278348,2.7171166416219057,0.4072531677245563,B,621.4827919611707,Correct,sub_007_day_10_data.csv,1,300,98.0,Training at home,,,,,,,,,,,,,
7,12,2468,A,21.44279670186441,43.40935984633229,1.0721398350932203,0.6818726299513664,A,654.6562919975258,Correct,sub_007_day_10_data.csv,1,300,98.0,Training at home,,,,,,,,,,,,,
7,12,2469,A,65.37878434325012,83.1826625922014,3.268939217162506,1.306630208528492,A,1867.0573339913972,Correct,sub_007_day_10_data.csv,1,300,98.0,Training at home,,,,,,,,,,,,,
7,12,2470,B,83.1663672443508,62.58372531235801,4.15831836221754,0.9830628583779276,B,1070.4803749686107,Correct,sub_007_day_10_data.csv,1,300,98.0,Training at home,,,,,,,,,,,,,
7,12,2471,A,45.132723260009016,65.34824430164423,2.256636163000451,1.0264878211151829,A,2054.4512089691125,Correct,sub_007_day_10_data.csv,1,300,98.0,Training at home,,,,,,,,,,,,,
7,12,2472,B,68.64857318271173,48.15031662553953,3.432428659135587,0.7563434048940874,B,624.9361250083894,Correct,sub_007_day_10_data.csv,1,300,98.0,Training at home,,,,,,,,,,,,,
7,12,2473,B,48.73081600679487,38.28265838379081,2.4365408003397433,0.6013425916920245,B,1274.6045420062728,Correct,sub_007_day_10_data.csv,1,300,98.0,Training at home,,,,,,,,,,,,,
7,12,2474,A,27.35074961936709,54.84324722232944,1.3675374809683545,0.861475712863395,A,503.6257499596104,Correct,sub_007_day_10_data.csv,1,300,98.0,Training at home,,,,,,,,,,,,,
7,12,2475,A,23.653228504989592,42.45306973253419,1.1826614252494796,0.666851259970323,A,526.4706659945659,Correct,sub_007_day_10_data.csv,1,300,99.0,Training at home,,,,,,,,,,,,,
7,12,2476,A,55.46177802791695,62.92986283669981,2.7730889013958473,0.9884999738959476,A,1752.5179999647662,Correct,sub_007_day_10_data.csv,1,300,99.0,Training at home,,,,,,,,,,,,,
7,12,2477,A,57.06419225439193,84.7624366227181,2.853209612719597,1.331445240971508,A,728.3954169834033,Correct,sub_007_day_10_data.csv,1,300,99.0,Training at home,,,,,,,,,,,,,
7,12,2478,B,47.14113275057699,16.88252632113295,2.3570566375288498,0.2651901033225379,B,639.3439159728587,Correct,sub_007_day_10_data.csv,1,300,99.0,Training at home,,,,,,,,,,,,,
7,12,2479,A,62.486564755848875,79.79288450507528,3.1243282377924437,1.2533836988494167,A,740.9482910297811,Correct,sub_007_day_10_data.csv,1,300,99.0,Training at home,,,,,,,,,,,,,
7,12,2480,B,33.59368149788708,21.35570790940503,1.679684074894354,0.3354546754019814,B,1599.1687920177355,Correct,sub_007_day_10_data.csv,1,300,99.0,Training at home,,,,,,,,,,,,,
7,12,2481,B,75.85627209523045,55.90427975619229,3.7928136047615224,0.8781423729314115,B,1482.7872920432128,Correct,sub_007_day_10_data.csv,1,300,99.0,Training at home,,,,,,,,,,,,,
7,12,2482,B,50.88054656666316,31.009356174296546,2.5440273283331583,0.4870938277485965,B,1463.4901250246912,Correct,sub_007_day_10_data.csv,1,300,99.0,Training at home,,,,,,,,,,,,,
7,12,2483,A,39.275138569674525,46.80125424223753,1.9637569284837264,0.7351523825310077,A,1933.425833005458,Correct,sub_007_day_10_data.csv,1,300,99.0,Training at home,,,,,,,,,,,,,
7,12,2484,A,31.79295950379695,49.11437436019167,1.5896479751898476,0.7714867883781851,A,3122.278625029139,Correct,sub_007_day_10_data.csv,1,300,99.0,Training at home,,,,,,,,,,,,,
7,12,2485,A,63.67658207270168,86.23017326198618,3.183829103635083,1.354500394188154,A,2945.848042028956,Correct,sub_007_day_10_data.csv,1,300,99.0,Training at home,,,,,,,,,,,,,
7,12,2486,B,69.62326438408532,38.31809454975873,3.481163219204266,0.6018992216854055,B,1271.213333006017,Correct,sub_007_day_10_data.csv,1,300,99.0,Training at home,,,,,,,,,,,,,
7,12,2487,B,52.42814169867428,31.911801762705036,2.621407084933714,0.5012694099026398,B,706.5079999738373,Correct,sub_007_day_10_data.csv,1,300,99.0,Training at home,,,,,,,,,,,,,
7,12,2488,A,29.08203190108697,46.38305456684625,1.4541015950543486,0.7285833173912935,A,2709.292292012833,Correct,sub_007_day_10_data.csv,1,300,99.0,Training at home,,,,,,,,,,,,,
7,12,2489,A,62.96826623674272,78.0919745350377,3.148413311837136,1.2266658675179785,A,1452.3254999658093,Correct,sub_007_day_10_data.csv,1,300,99.0,Training at home,,,,,,,,,,,,,
7,12,2490,A,39.94551754438174,64.89237625949399,1.9972758772190868,1.019327062654055,A,710.861333005596,Correct,sub_007_day_10_data.csv,1,300,99.0,Training at home,,,,,,,,,,,,,
7,12,2491,A,26.551462038558704,47.86330029058409,1.327573101927935,0.7518349628473061,A,938.0699169705622,Correct,sub_007_day_10_data.csv,1,300,99.0,Training at home,,,,,,,,,,,,,
7,12,2492,B,49.72788688189671,20.205230860789555,2.4863943440948355,0.3173830241817111,B,1876.15825003013,Correct,sub_007_day_10_data.csv,1,300,99.0,Training at home,,,,,,,,,,,,,
7,12,2493,B,50.20453983607167,32.65317033520997,2.510226991803583,0.512914800207559,B,1369.0827079699377,Correct,sub_007_day_10_data.csv,1,300,99.0,Training at home,,,,,,,,,,,,,
7,12,2494,A,36.67368134746337,51.26169078816707,1.8336840673731687,0.8052167559534864,A,916.9068339979276,Correct,sub_007_day_10_data.csv,1,300,99.0,Training at home,,,,,,,,,,,,,
7,12,2495,B,86.05445462026216,57.94429190244484,4.302722731013108,0.9101868087909164,B,1926.044624997303,Correct,sub_007_day_10_data.csv,1,300,99.0,Training at home,,,,,,,,,,,,,
7,12,2496,A,57.265811987302435,72.87733560687138,2.8632905993651216,1.1447545107787247,A,2182.785208977293,Correct,sub_007_day_10_data.csv,1,300,99.0,Training at home,,,,,,,,,,,,,
7,12,2497,A,11.552966597844891,34.052687509862444,0.5776483298922447,0.5348983645798638,A,711.0521660069935,Correct,sub_007_day_10_data.csv,1,300,99.0,Training at home,,,,,,,,,,,,,
7,12,2498,B,40.28577229036214,24.524627070772674,2.0142886145181067,0.385231941187844,B,710.1517909904942,Correct,sub_007_day_10_data.csv,1,300,99.0,Training at home,,,,,,,,,,,,,
7,12,2499,A,30.64457466879142,47.51895240804506,1.532228733439571,0.7464259589569868,A,745.7946249633096,Correct,sub_007_day_10_data.csv,1,300,99.0,Training at home,,,,,,,,,,,,,
7,12,2500,A,51.13257052874011,70.99396818092376,2.5566285264370054,1.115170644431888,A,2918.250665999949,Correct,sub_007_day_10_data.csv,1,300,100.0,Training at home,,,,,,,,,,,,,
7,12,2501,B,51.83120254307269,44.74028606838077,2.591560127153634,0.702778770159654,A,4936.171791981906,Incorrect,sub_007_day_10_data.csv,0,300,100.0,Training at home,,,,,,,,,,,,,
7,12,2502,B,48.80194180752659,33.15057659532323,2.4400970903763293,0.5207280394706659,B,860.5434579658322,Correct,sub_007_day_10_data.csv,1,300,100.0,Training at home,,,,,,,,,,,,,
7,12,2503,B,52.96599282120402,31.08967576114109,2.648299641060201,0.4883554848684476,B,1749.5684580062516,Correct,sub_007_day_10_data.csv,1,300,100.0,Training at home,,,,,,,,,,,,,
7,12,2504,B,85.63731299920951,65.83055972522024,4.2818656499604755,1.03406401407228,B,2378.014999965671,Correct,sub_007_day_10_data.csv,1,300,100.0,Training at home,,,,,,,,,,,,,
7,12,2505,A,43.523118493337655,73.29197743238656,2.1761559246668827,1.1512676893432727,A,585.2078750031069,Correct,sub_007_day_10_data.csv,1,300,100.0,Training at home,,,,,,,,,,,,,
7,12,2506,B,73.52441009972799,60.92526150097504,3.6762205049864,0.9570117697475012,B,827.2631669533439,Correct,sub_007_day_10_data.csv,1,300,100.0,Training at home,,,,,,,,,,,,,
7,12,2507,B,65.3345922966899,47.92392243562891,3.266729614834495,0.7527872132748943,B,1400.8051250129938,Correct,sub_007_day_10_data.csv,1,300,100.0,Training at home,,,,,,,,,,,,,
7,12,2508,B,60.003842954109935,46.18406850399769,3.000192147705497,0.7254576516252346,B,844.9894160148688,Correct,sub_007_day_10_data.csv,1,300,100.0,Training at home,,,,,,,,,,,,,
7,12,2509,A,40.57603400956922,56.806966820366526,2.028801700478461,0.892321748177913,A,543.9814160345122,Correct,sub_007_day_10_data.csv,1,300,100.0,Training at home,,,,,,,,,,,,,
7,12,2510,B,73.47921250084089,60.32189362297501,3.673960625042045,0.9475340892828162,B,727.6216250029393,Correct,sub_007_day_10_data.csv,1,300,100.0,Training at home,,,,,,,,,,,,,
7,12,2511,A,48.22066816832313,55.04372738354017,2.4110334084161567,0.8646248478716457,A,1298.145457985811,Correct,sub_007_day_10_data.csv,1,300,100.0,Training at home,,,,,,,,,,,,,
7,12,2512,A,22.368080512541216,37.33527067630007,1.1184040256270606,0.5864610603822537,A,1303.2798750209622,Correct,sub_007_day_10_data.csv,1,300,100.0,Training at home,,,,,,,,,,,,,
7,12,2513,B,49.60138169973136,37.55115394415698,2.480069084986568,0.5898521468239148,B,2017.7635409636423,Correct,sub_007_day_10_data.csv,1,300,100.0,Training at home,,,,,,,,,,,,,
7,12,2514,A,30.52974245886582,45.29882225469305,1.526487122943291,0.7115522360580676,A,1268.216832948383,Correct,sub_007_day_10_data.csv,1,300,100.0,Training at home,,,,,,,,,,,,,
7,12,2515,B,76.66342576174272,57.71334958380317,3.833171288087136,0.906559175332678,B,5298.4850000357255,Correct,sub_007_day_10_data.csv,1,300,100.0,Training at home,,,,,,,,,,,,,
7,12,2516,A,23.551577790421717,34.30656735164752,1.177578889521086,0.5388862998090965,A,1627.6692500105128,Correct,sub_007_day_10_data.csv,1,300,100.0,Training at home,,,,,,,,,,,,,
7,12,2517,B,59.62005808582601,44.95114823761117,2.9810029042913,0.7060909853685252,B,812.0215419912711,Correct,sub_007_day_10_data.csv,1,300,100.0,Training at home,,,,,,,,,,,,,
7,12,2518,B,66.59035034939174,45.46227733672346,3.3295175174695872,0.7141197824825609,B,1681.973708036821,Correct,sub_007_day_10_data.csv,1,300,100.0,Training at home,,,,,,,,,,,,,
7,12,2519,B,71.99431147707476,39.68529200434933,3.5997155738537376,0.623375109082148,B,1048.345374991186,Correct,sub_007_day_10_data.csv,1,300,100.0,Training at home,,,,,,,,,,,,,
7,12,2520,A,13.871530931717608,30.77568422073212,0.6935765465858804,0.4834233172852568,A,722.6280419854447,Correct,sub_007_day_10_data.csv,1,300,100.0,Training at home,,,,,,,,,,,,,
7,12,2521,B,81.79176420676728,51.60065214364975,4.0895882103383645,0.8105411484746622,B,679.2415830423124,Correct,sub_007_day_10_data.csv,1,300,100.0,Training at home,,,,,,,,,,,,,
7,12,2522,A,13.21434570459058,32.080381957707175,0.6607172852295291,0.5039174614134371,A,529.8162919934839,Correct,sub_007_day_10_data.csv,1,300,100.0,Training at home,,,,,,,,,,,,,
7,12,2523,B,82.20352871714891,68.22021807522387,4.110176435857445,1.0716006796570845,B,668.6209170147777,Correct,sub_007_day_10_data.csv,1,300,100.0,Training at home,,,,,,,,,,,,,
7,12,2524,A,11.81195131435952,37.3534820282182,0.590597565717976,0.5867471236292433,A,722.7850410272367,Correct,sub_007_day_10_data.csv,1,300,100.0,Training at home,,,,,,,,,,,,,
7,12,2525,B,37.41207450264454,23.893637458995755,1.8706037251322272,0.3753203795435949,B,1131.2626670114696,Correct,sub_007_day_10_data.csv,1,300,101.0,Training at home,,,,,,,,,,,,,
7,12,2526,B,86.5583873247363,60.27487401842743,4.327919366236816,0.9467955070617096,B,2288.449249987025,Correct,sub_007_day_10_data.csv,1,300,101.0,Training at home,,,,,,,,,,,,,
7,12,2527,B,77.03143406417612,63.822680323625725,3.851571703208806,1.0025243181855623,B,1588.7429169961251,Correct,sub_007_day_10_data.csv,1,300,101.0,Training at home,,,,,,,,,,,,,
7,12,2528,B,74.86494392192998,59.895382630772815,3.743247196096499,0.940834470283928,B,3554.142833047081,Correct,sub_007_day_10_data.csv,1,300,101.0,Training at home,,,,,,,,,,,,,
7,12,2529,B,43.82722101019617,27.772805001754534,2.1913610505098085,0.4362542008154695,B,892.1388749731705,Correct,sub_007_day_10_data.csv,1,300,101.0,Training at home,,,,,,,,,,,,,
7,12,2530,B,44.38191686757377,23.053000221141257,2.2190958433786885,0.3621156806897061,B,1037.1409580111504,Correct,sub_007_day_10_data.csv,1,300,101.0,Training at home,,,,,,,,,,,,,
7,12,2531,B,38.84399353937215,29.84923421415759,1.9421996769686072,0.468870674612393,B,1314.684291020967,Correct,sub_007_day_10_data.csv,1,300,101.0,Training at home,,,,,,,,,,,,,
7,12,2532,A,35.224229702566745,49.92076083568158,1.7612114851283371,0.7841534775149515,A,1263.5672920150682,Correct,sub_007_day_10_data.csv,1,300,101.0,Training at home,,,,,,,,,,,,,
7,12,2533,A,20.112996875750845,41.50195409943179,1.005649843787542,0.6519111705419786,A,832.5920000206679,Correct,sub_007_day_10_data.csv,1,300,101.0,Training at home,,,,,,,,,,,,,
7,12,2534,B,76.74014486469662,50.24104363568589,3.8370072432348303,0.789184467972775,B,1699.2520000203513,Correct,sub_007_day_10_data.csv,1,300,101.0,Training at home,,,,,,,,,,,,,
7,12,2535,A,65.36969994209062,76.75388356099458,3.268484997104531,1.2056471836485347,A,1641.9492920394987,Correct,sub_007_day_10_data.csv,1,300,101.0,Training at home,,,,,,,,,,,,,
7,12,2536,B,43.32198423405616,21.275088568901182,2.166099211702808,0.3341883097626607,B,940.0792499654926,Correct,sub_007_day_10_data.csv,1,300,101.0,Training at home,,,,,,,,,,,,,
7,12,2537,B,38.752211392728235,16.744541538661554,1.937610569636412,0.2630226434279414,B,690.376374986954,Correct,sub_007_day_10_data.csv,1,300,101.0,Training at home,,,,,,,,,,,,,
7,12,2538,A,32.343410328853395,52.375025128617594,1.6171705164426695,0.8227049708782292,A,1125.8732920396142,Correct,sub_007_day_10_data.csv,1,300,101.0,Training at home,,,,,,,,,,,,,
7,12,2539,A,65.39168584182795,84.79253838322455,3.2695842920913973,1.331918078319844,A,1988.102125003934,Correct,sub_007_day_10_data.csv,1,300,101.0,Training at home,,,,,,,,,,,,,
7,12,2540,A,59.43239188195663,79.07076250329001,2.9716195940978314,1.242040632970396,A,1236.7312500136904,Correct,sub_007_day_10_data.csv,1,300,101.0,Training at home,,,,,,,,,,,,,
7,12,2541,A,31.281078731023577,55.61760819966067,1.5640539365511787,0.8736393466514469,A,3552.867416990921,Correct,sub_007_day_10_data.csv,1,300,101.0,Training at home,,,,,,,,,,,,,
7,12,2542,B,42.322914210601525,32.221008365803485,2.1161457105300765,0.5061264158663175,B,1937.0948749710808,Correct,sub_007_day_10_data.csv,1,300,101.0,Training at home,,,,,,,,,,,,,
7,12,2543,B,56.57794724563333,40.34514762456871,2.828897362281667,0.6337400969267037,B,3174.0402919822372,Correct,sub_007_day_10_data.csv,1,300,101.0,Training at home,,,,,,,,,,,,,
7,12,2544,B,72.53262551112029,56.93548100078127,3.626631275556014,0.8943404442032785,B,2617.81341599999,Correct,sub_007_day_10_data.csv,1,300,101.0,Training at home,,,,,,,,,,,,,
7,12,2545,B,74.3540670083197,54.62068656685464,3.7177033504159858,0.8579797382623062,B,2085.096125025302,Correct,sub_007_day_10_data.csv,1,300,101.0,Training at home,,,,,,,,,,,,,
7,12,2546,B,67.91413843878495,47.23718717417681,3.3957069219392473,0.7420000010131994,B,2955.9970420086756,Correct,sub_007_day_10_data.csv,1,300,101.0,Training at home,,,,,,,,,,,,,
7,12,2547,A,25.999677273981227,49.797411654389464,1.2999838636990615,0.7822159131060835,A,1052.1409169887193,Correct,sub_007_day_10_data.csv,1,300,101.0,Training at home,,,,,,,,,,,,,
7,12,2548,B,55.75089207517904,43.759910149945405,2.7875446037589517,0.6873790612440895,B,1464.0873750322498,Correct,sub_007_day_10_data.csv,1,300,101.0,Training at home,,,,,,,,,,,,,
7,12,2549,A,48.23470040158556,60.49341727753459,2.4117350200792784,0.9502283765482228,A,1655.2303340286016,Correct,sub_007_day_10_data.csv,1,300,101.0,Training at home,,,,,,,,,,,,,
7,12,2550,B,67.28669598797588,42.16877542719999,3.3643347993987938,0.6623855754648464,B,4811.042457993608,Correct,sub_007_day_10_data.csv,1,300,102.0,Training at home,,,,,,,,,,,,,
7,12,2551,A,25.879564853730663,41.836893535906185,1.2939782426865332,0.6571723869071059,A,2272.2723750048317,Correct,sub_007_day_10_data.csv,1,300,102.0,Training at home,,,,,,,,,,,,,
7,12,2552,A,35.010372397604414,66.833815912551,1.7505186198802207,1.0498231254112145,A,817.7825000020675,Correct,sub_007_day_10_data.csv,1,300,102.0,Training at home,,,,,,,,,,,,,
7,12,2553,B,56.99408069592427,24.344989462052133,2.849704034796213,0.3824102002285195,B,1488.4144170209763,Correct,sub_007_day_10_data.csv,1,300,102.0,Training at home,,,,,,,,,,,,,
7,12,2554,B,36.48759034031349,19.93895414225223,1.8243795170156745,0.3132003592678169,B,730.8602909906767,Correct,sub_007_day_10_data.csv,1,300,102.0,Training at home,,,,,,,,,,,,,
7,12,2555,B,55.481587497975454,28.406650023001653,2.774079374898773,0.4462106151267916,B,1634.3382500344887,Correct,sub_007_day_10_data.csv,1,300,102.0,Training at home,,,,,,,,,,,,,
7,12,2556,A,36.84998259465464,48.17995930657832,1.842499129732732,0.7568090310390082,A,863.7390839867294,Correct,sub_007_day_10_data.csv,1,300,102.0,Training at home,,,,,,,,,,,,,
7,12,2557,B,47.12827309999938,33.053748573193715,2.3564136549999692,0.5192070684557475,B,647.262624988798,Correct,sub_007_day_10_data.csv,1,300,102.0,Training at home,,,,,,,,,,,,,
7,12,2558,A,64.45658673192669,88.51582123938059,3.2228293365963343,1.3904032686605272,A,1097.8904999792576,Correct,sub_007_day_10_data.csv,1,300,102.0,Training at home,,,,,,,,,,,,,
7,12,2559,B,58.24872348070877,43.814965316937545,2.9124361740354385,0.6882438657849128,B,1963.868167018518,Correct,sub_007_day_10_data.csv,1,300,102.0,Training at home,,,,,,,,,,,,,
7,12,2560,B,79.94809343155023,52.93507550346705,3.9974046715775113,0.8315022215945654,B,827.5655830511823,Correct,sub_007_day_10_data.csv,1,300,102.0,Training at home,,,,,,,,,,,,,
7,12,2561,B,48.383441224165736,29.84592117115592,2.4191720612082865,0.4688186334546176,B,1177.69258399494,Correct,sub_007_day_10_data.csv,1,300,102.0,Training at home,,,,,,,,,,,,,
7,12,2562,A,31.736233118501787,45.28792673251101,1.586811655925089,0.7113810895958469,A,1091.1290420335715,Correct,sub_007_day_10_data.csv,1,300,102.0,Training at home,,,,,,,,,,,,,
7,12,2563,B,52.907871653292496,26.893302876376374,2.645393582664625,0.4224390137359464,B,1974.7377919848077,Correct,sub_007_day_10_data.csv,1,300,102.0,Training at home,,,,,,,,,,,,,
7,12,2564,B,43.20951897275574,25.711266281217576,2.160475948637787,0.4038716263178204,B,1000.7212919881568,Correct,sub_007_day_10_data.csv,1,300,102.0,Training at home,,,,,,,,,,,,,
7,12,2565,B,66.38568098306996,41.97989759525836,3.319284049153498,0.6594186894185775,B,2650.7116249995306,Correct,sub_007_day_10_data.csv,1,300,102.0,Training at home,,,,,,,,,,,,,
7,12,2566,A,30.08474869836148,50.07621535361835,1.5042374349180738,0.7865953513725391,A,516.2463749875315,Correct,sub_007_day_10_data.csv,1,300,102.0,Training at home,,,,,,,,,,,,,
7,12,2567,A,31.678174902505475,50.194362545787754,1.5839087451252738,0.7884512031273474,A,2265.75820799917,Correct,sub_007_day_10_data.csv,1,300,102.0,Training at home,,,,,,,,,,,,,
7,12,2568,A,42.7637229771562,49.941783285848786,2.1381861488578098,0.7844836973899804,A,4229.048541979864,Correct,sub_007_day_10_data.csv,1,300,102.0,Training at home,,,,,,,,,,,,,
7,12,2569,B,71.33938004960866,50.63040092575486,3.5669690024804335,0.7953004779832866,B,3211.736082972493,Correct,sub_007_day_10_data.csv,1,300,102.0,Training at home,,,,,,,,,,,,,
7,12,2570,B,49.52726711470318,27.314678919728223,2.476363355735159,0.4290579731469108,B,1366.113999974914,Correct,sub_007_day_10_data.csv,1,300,102.0,Training at home,,,,,,,,,,,,,
7,12,2571,B,74.69988976387539,61.62377748921736,3.73499448819377,0.9679840332328868,B,2719.8102499824017,Correct,sub_007_day_10_data.csv,1,300,102.0,Training at home,,,,,,,,,,,,,
7,12,2572,A,23.420809384318773,39.99546469174197,1.1710404692159386,0.6282472902624326,A,2622.5884170271456,Correct,sub_007_day_10_data.csv,1,300,102.0,Training at home,,,,,,,,,,,,,
7,12,2573,A,27.690278740135053,52.34044557574339,1.3845139370067523,0.8221617965318591,A,6105.644624971319,Correct,sub_007_day_10_data.csv,1,300,102.0,Training at home,,,,,,,,,,,,,
7,12,2574,A,49.850273004708406,80.23430678772151,2.4925136502354204,1.2603175438508778,A,4489.025874994695,Correct,sub_007_day_10_data.csv,1,300,102.0,Training at home,,,,,,,,,,,,,
7,12,2575,B,83.20503923540495,65.85776514983,4.160251961770248,1.034491355882739,B,2707.585500029382,Correct,sub_007_day_10_data.csv,1,300,103.0,Training at home,,,,,,,,,,,,,
7,12,2576,B,72.32793111102792,61.73570005786444,3.616396555551396,0.9697421088300496,B,3572.6027920027263,Correct,sub_007_day_10_data.csv,1,300,103.0,Training at home,,,,,,,,,,,,,
7,12,2577,A,32.342885520199424,63.26914931715468,1.617144276009971,0.993829473468244,A,1364.0341670252385,Correct,sub_007_day_10_data.csv,1,300,103.0,Training at home,,,,,,,,,,,,,
7,12,2578,A,34.918524189044234,57.00826960005471,1.7459262094522117,0.8954838048469911,A,992.4202090478502,Correct,sub_007_day_10_data.csv,1,300,103.0,Training at home,,,,,,,,,,,,,
7,12,2579,B,36.88995180401707,13.56516152158959,1.8444975902008536,0.213081058904924,B,2349.1576249944046,Correct,sub_007_day_10_data.csv,1,300,103.0,Training at home,,,,,,,,,,,,,
7,12,2580,B,71.24171199117391,59.273292269989504,3.5620855995586957,0.9310626977473986,A,4793.064416968264,Incorrect,sub_007_day_10_data.csv,0,300,103.0,Training at home,,,,,,,,,,,,,
7,12,2581,B,42.286605337617246,29.79802720926263,2.114330266880862,0.4680663168604413,B,992.3873340012506,Correct,sub_007_day_10_data.csv,1,300,103.0,Training at home,,,,,,,,,,,,,
7,12,2582,B,43.82073153019982,34.7443691689465,2.1910365765099913,0.5457632746738702,B,1421.9289159518669,Correct,sub_007_day_10_data.csv,1,300,103.0,Training at home,,,,,,,,,,,,,
7,12,2583,B,72.86536675529474,53.55475279794873,3.6432683377647375,0.8412360897742657,B,551.6047499841079,Correct,sub_007_day_10_data.csv,1,300,103.0,Training at home,,,,,,,,,,,,,
7,12,2584,A,29.53468738286244,48.32917649477465,1.4767343691431218,0.7591529291501429,A,588.8352500041947,Correct,sub_007_day_10_data.csv,1,300,103.0,Training at home,,,,,,,,,,,,,
7,12,2585,B,75.66980174393004,60.07275310875109,3.783490087196502,0.943620599236829,B,984.3276250176132,Correct,sub_007_day_10_data.csv,1,300,103.0,Training at home,,,,,,,,,,,,,
7,12,2586,B,48.28557488392545,26.86884192646136,2.4142787441962725,0.4220547820331822,B,2743.9196659834124,Correct,sub_007_day_10_data.csv,1,300,103.0,Training at home,,,,,,,,,,,,,
7,12,2587,B,48.86739896084166,31.933024246490778,2.443369948042083,0.5016027718984007,B,1209.6834169933572,Correct,sub_007_day_10_data.csv,1,300,103.0,Training at home,,,,,,,,,,,,,
7,12,2588,A,41.88538140308076,61.79551997760396,2.094269070154038,0.9706817579320094,A,1322.0995419542303,Correct,sub_007_day_10_data.csv,1,300,103.0,Training at home,,,,,,,,,,,,,
7,12,2589,B,56.524876906477665,36.934676703939246,2.826243845323883,0.580168544979048,B,1521.1049579665996,Correct,sub_007_day_10_data.csv,1,300,103.0,Training at home,,,,,,,,,,,,,
7,12,2590,B,46.41092222918458,16.575207398144855,2.3205461114592287,0.2603627489686953,B,737.0487499865703,Correct,sub_007_day_10_data.csv,1,300,103.0,Training at home,,,,,,,,,,,,,
7,12,2591,A,42.473990403295765,57.985275852744344,2.1236995201647884,0.9108305831767964,A,1414.0630410402082,Correct,sub_007_day_10_data.csv,1,300,103.0,Training at home,,,,,,,,,,,,,
7,12,2592,B,61.989877697591794,30.928214205767304,3.09949388487959,0.4858192526874502,B,1514.5200000260957,Correct,sub_007_day_10_data.csv,1,300,103.0,Training at home,,,,,,,,,,,,,
7,12,2593,A,58.68663932979386,68.53964220067984,2.9343319664896934,1.0766181820866438,A,1752.2667919984087,Correct,sub_007_day_10_data.csv,1,300,103.0,Training at home,,,,,,,,,,,,,
7,12,2594,B,71.54515855114846,43.30382975118808,3.5772579275574232,0.6802149670931779,B,3123.9409169647843,Correct,sub_007_day_10_data.csv,1,300,103.0,Training at home,,,,,,,,,,,,,
7,12,2595,A,22.12296140683181,47.35976239546301,1.1061480703415902,0.7439254080867236,A,3747.606084041763,Correct,sub_007_day_10_data.csv,1,300,103.0,Training at home,,,,,,,,,,,,,
7,12,2596,B,80.53231040880428,56.18779299225056,4.026615520440214,0.8825957884293921,B,1275.3244999912567,Correct,sub_007_day_10_data.csv,1,300,103.0,Training at home,,,,,,,,,,,,,
7,12,2597,A,19.617940342150145,46.12141405044184,0.9808970171075072,0.7244734777702058,A,1054.7482080291957,Correct,sub_007_day_10_data.csv,1,300,103.0,Training at home,,,,,,,,,,,,,
7,12,2598,A,21.52429220249942,38.282867094272646,1.076214610124971,0.6013458701086069,A,1754.2028750176542,Correct,sub_007_day_10_data.csv,1,300,103.0,Training at home,,,,,,,,,,,,,
7,12,2599,B,58.238207575364854,30.156037230992418,2.9119103787682428,0.4736899251313303,B,3642.534916987642,Correct,sub_007_day_10_data.csv,1,300,103.0,Training at home,,,,,,,,,,,,,
7,12,2600,B,64.34717787665457,47.824959235745645,3.217358893832728,0.7512327029662493,B,2739.7532500326633,Correct,sub_007_day_10_data.csv,1,300,104.0,Training at home,,,,,,,,,,,,,
7,12,2601,A,20.89444801553147,33.836382755125705,1.0447224007765734,0.5315006574377764,A,3140.6077920109965,Correct,sub_007_day_10_data.csv,1,300,104.0,Training at home,,,,,,,,,,,,,
7,12,2602,B,34.27251496665569,17.592655457326384,1.7136257483327848,0.2763447857093647,B,1702.3535409825854,Correct,sub_007_day_10_data.csv,1,300,104.0,Training at home,,,,,,,,,,,,,
7,12,2603,B,62.324215036449736,48.757657517338146,3.116210751822486,0.7658834933135833,B,1096.493249991909,Correct,sub_007_day_10_data.csv,1,300,104.0,Training at home,,,,,,,,,,,,,
7,12,2604,A,28.331597123840343,41.45319416258122,1.416579856192017,0.6511452512449822,A,2329.657291993499,Correct,sub_007_day_10_data.csv,1,300,104.0,Training at home,,,,,,,,,,,,,
7,12,2605,A,60.68242475332062,80.52735949488488,3.0341212376660307,1.264920805010573,A,836.9011670001782,Correct,sub_007_day_10_data.csv,1,300,104.0,Training at home,,,,,,,,,,,,,
7,12,2606,B,67.60279122755465,35.81142990897237,3.380139561377732,0.562524625582867,B,817.0980000286363,Correct,sub_007_day_10_data.csv,1,300,104.0,Training at home,,,,,,,,,,,,,
7,12,2607,B,38.61101916255075,15.989948055465137,1.9305509581275373,0.2511695167116583,B,816.8025830527768,Correct,sub_007_day_10_data.csv,1,300,104.0,Training at home,,,,,,,,,,,,,
7,12,2608,B,77.92461689427694,61.82636434638711,3.896230844713847,0.9711662601438784,B,4598.049958993215,Correct,sub_007_day_10_data.csv,1,300,104.0,Training at home,,,,,,,,,,,,,
7,12,2609,A,37.828787517254725,56.0045942971047,1.8914393758627364,0.8797181100553049,A,3265.7089169952087,Correct,sub_007_day_10_data.csv,1,300,104.0,Training at home,,,,,,,,,,,,,
7,12,2610,A,25.061452983976523,48.69964259932054,1.2530726491988262,0.7649721971123699,A,1030.4484160151333,Correct,sub_007_day_10_data.csv,1,300,104.0,Training at home,,,,,,,,,,,,,
7,12,2611,A,47.21774359715009,60.28387506945827,2.360887179857505,0.9469368952406748,A,3547.56679199636,Correct,sub_007_day_10_data.csv,1,300,104.0,Training at home,,,,,,,,,,,,,
7,12,2612,A,69.40934695710354,86.98801912886785,3.470467347855177,1.366404609227898,A,2049.270582967438,Correct,sub_007_day_10_data.csv,1,300,104.0,Training at home,,,,,,,,,,,,,
7,12,2613,A,19.395413229711195,39.50455163822228,0.9697706614855598,0.6205360460499887,A,634.7819580114447,Correct,sub_007_day_10_data.csv,1,300,104.0,Training at home,,,,,,,,,,,,,
7,12,2614,B,57.895445132326834,32.69468824571063,2.8947722566163416,0.5135669620206654,B,2331.265417044051,Correct,sub_007_day_10_data.csv,1,300,104.0,Training at home,,,,,,,,,,,,,
7,12,2615,A,54.0116853963309,72.47411304991465,2.7005842698165448,1.1384207056652402,A,1126.977625011932,Correct,sub_007_day_10_data.csv,1,300,104.0,Training at home,,,,,,,,,,,,,
7,12,2616,A,16.079833349291828,43.87554245574696,0.8039916674645915,0.6891954092562086,A,669.5037090103142,Correct,sub_007_day_10_data.csv,1,300,104.0,Training at home,,,,,,,,,,,,,
7,12,2617,B,63.81036263804813,46.19074231580103,3.1905181319024063,0.7255624836158987,B,1199.0543749998324,Correct,sub_007_day_10_data.csv,1,300,104.0,Training at home,,,,,,,,,,,,,
7,12,2618,A,48.56707944677527,79.42199136405115,2.4283539723387633,1.2475577230138757,B,1514.2968330183066,Incorrect,sub_007_day_10_data.csv,0,300,104.0,Training at home,,,,,,,,,,,,,
7,12,2619,A,56.30855972908486,64.49137079485021,2.8154279864542433,1.013028083545184,A,2413.065667031333,Correct,sub_007_day_10_data.csv,1,300,104.0,Training at home,,,,,,,,,,,,,
7,12,2620,B,48.08095360488067,39.911965594597106,2.404047680244034,0.6269356895115743,B,1242.1267500030808,Correct,sub_007_day_10_data.csv,1,300,104.0,Training at home,,,,,,,,,,,,,
7,12,2621,A,60.61713944814576,83.30480241418527,3.030856972407288,1.3085487763657686,A,1019.659541954752,Correct,sub_007_day_10_data.csv,1,300,104.0,Training at home,,,,,,,,,,,,,
7,12,2622,B,69.29921205675225,53.59633733201878,3.4649606028376128,0.8418892981079529,B,1697.7848340175117,Correct,sub_007_day_10_data.csv,1,300,104.0,Training at home,,,,,,,,,,,,,
7,12,2623,A,38.78100526143025,56.987113402877235,1.9390502630715127,0.8951514840788378,A,1301.4878329704516,Correct,sub_007_day_10_data.csv,1,300,104.0,Training at home,,,,,,,,,,,,,
7,12,2624,B,72.5226417469887,58.33547168847291,3.626132087349435,0.9163314465010092,B,791.79191600997,Correct,sub_007_day_10_data.csv,1,300,104.0,Training at home,,,,,,,,,,,,,
7,12,2625,B,87.26395805232039,59.894381438048455,4.36319790261602,0.9408187435853896,B,1694.6019579772835,Correct,sub_007_day_10_data.csv,1,300,105.0,Training at home,,,,,,,,,,,,,
7,12,2626,B,44.40751924234808,17.57523605876801,2.220375962117404,0.27607116243666,B,657.6936249621212,Correct,sub_007_day_10_data.csv,1,300,105.0,Training at home,,,,,,,,,,,,,
7,12,2627,B,50.303561029126385,23.636604752558956,2.5151780514563193,0.371282919232224,B,696.8700420111418,Correct,sub_007_day_10_data.csv,1,300,105.0,Training at home,,,,,,,,,,,,,
7,12,2628,A,39.54444702510014,48.28473970479305,1.9772223512550071,0.7584549176853661,A,1362.7484170137905,Correct,sub_007_day_10_data.csv,1,300,105.0,Training at home,,,,,,,,,,,,,
7,12,2629,A,47.60453302194577,75.38134380041052,2.3802266510972885,1.1840873795054807,A,828.4764169948176,Correct,sub_007_day_10_data.csv,1,300,105.0,Training at home,,,,,,,,,,,,,
7,12,2630,A,26.77656964334482,54.69806050258898,1.3388284821672412,0.8591951252027179,A,661.2583329551853,Correct,sub_007_day_10_data.csv,1,300,105.0,Training at home,,,,,,,,,,,,,
7,12,2631,A,42.27782613319059,58.46201883862136,2.1138913066595295,0.9183192444872048,A,1157.961958029773,Correct,sub_007_day_10_data.csv,1,300,105.0,Training at home,,,,,,,,,,,,,
7,12,2632,A,18.837404938192556,37.9552344817235,0.9418702469096276,0.5961994290653028,A,663.4549999726005,Correct,sub_007_day_10_data.csv,1,300,105.0,Training at home,,,,,,,,,,,,,
7,12,2633,A,47.20897160154432,58.924042250384915,2.360448580077216,0.9255766912681191,A,1986.671040998772,Correct,sub_007_day_10_data.csv,1,300,105.0,Training at home,,,,,,,,,,,,,
7,12,2634,A,46.56855098200437,69.31463318376386,2.328427549100218,1.088791711981919,A,1293.2363750296645,Correct,sub_007_day_10_data.csv,1,300,105.0,Training at home,,,,,,,,,,,,,
7,12,2635,B,60.80532238521514,44.239071254400486,3.040266119260757,0.6949057062722999,B,745.5142919789068,Correct,sub_007_day_10_data.csv,1,300,105.0,Training at home,,,,,,,,,,,,,
7,12,2636,B,67.18735012877647,41.39361513697741,3.3593675064388235,0.6502093860992575,B,875.3944169729948,Correct,sub_007_day_10_data.csv,1,300,105.0,Training at home,,,,,,,,,,,,,
7,12,2637,A,41.73226871014394,61.48091649972477,2.0866134355071972,0.9657399780575144,A,2323.1948749744333,Correct,sub_007_day_10_data.csv,1,300,105.0,Training at home,,,,,,,,,,,,,
7,12,2638,B,84.9455338577835,61.725625524561266,4.247276692889176,0.9695838584309816,B,620.9340839996003,Correct,sub_007_day_10_data.csv,1,300,105.0,Training at home,,,,,,,,,,,,,
7,12,2639,A,56.156427782825574,76.46385071436083,2.807821389141279,1.2010913583471132,A,1195.0650829821825,Correct,sub_007_day_10_data.csv,1,300,105.0,Training at home,,,,,,,,,,,,,
7,12,2640,A,43.46420670546483,67.44526422637993,2.1732103352732417,1.0594277330650883,A,1118.0401250021532,Correct,sub_007_day_10_data.csv,1,300,105.0,Training at home,,,,,,,,,,,,,
7,12,2641,A,27.63202828359255,47.843131455275454,1.3816014141796276,0.7515181515231207,A,1153.6886250250973,Correct,sub_007_day_10_data.csv,1,300,105.0,Training at home,,,,,,,,,,,,,
7,12,2642,B,37.997753042370576,13.349000858674527,1.8998876521185288,0.2096856151518787,B,697.379874996841,Correct,sub_007_day_10_data.csv,1,300,105.0,Training at home,,,,,,,,,,,,,
7,12,2643,A,15.267840879663677,43.86533473660128,0.7633920439831838,0.6890350667788188,A,707.1430830401368,Correct,sub_007_day_10_data.csv,1,300,105.0,Training at home,,,,,,,,,,,,,
7,12,2644,A,25.606919874777624,43.53463191775302,1.280345993738881,0.683840399047743,A,653.9708750206046,Correct,sub_007_day_10_data.csv,1,300,105.0,Training at home,,,,,,,,,,,,,
7,12,2645,B,53.85500333872584,32.14917825449091,2.692750166936292,0.5049981111162869,B,1782.1886250167154,Correct,sub_007_day_10_data.csv,1,300,105.0,Training at home,,,,,,,,,,,,,
7,12,2646,A,46.42500846545427,70.76103303415633,2.321250423272714,1.1115117077026508,A,1176.491458027158,Correct,sub_007_day_10_data.csv,1,300,105.0,Training at home,,,,,,,,,,,,,
7,12,2647,A,64.9759117876986,88.96248138706406,3.24879558938493,1.397419389853596,A,1228.2893329975195,Correct,sub_007_day_10_data.csv,1,300,105.0,Training at home,,,,,,,,,,,,,
7,12,2648,B,31.09495221723865,16.391109234129075,1.5547476108619325,0.2574709417706386,B,811.2334169563837,Correct,sub_007_day_10_data.csv,1,300,105.0,Training at home,,,,,,,,,,,,,
7,12,2649,A,45.74990830074665,57.55083461636119,2.2874954150373323,0.9040063961936076,A,1531.979457999114,Correct,sub_007_day_10_data.csv,1,300,105.0,Training at home,,,,,,,,,,,,,
7,12,2650,B,42.76312644644901,25.181725711784186,2.1381563223224505,0.3955536225042719,B,561.1043330281973,Correct,sub_007_day_10_data.csv,1,300,106.0,Training at home,,,,,,,,,,,,,
7,12,2651,A,46.00270746555815,73.90747385163911,2.3001353732779077,1.160935884488446,A,835.3472080198117,Correct,sub_007_day_10_data.csv,1,300,106.0,Training at home,,,,,,,,,,,,,
7,12,2652,B,62.63182028893576,49.81419032381936,3.1315910144467876,0.7824794718291732,B,635.2685000165366,Correct,sub_007_day_10_data.csv,1,300,106.0,Training at home,,,,,,,,,,,,,
7,12,2653,A,63.30365617502136,76.50612302973789,3.165182808751068,1.2017553703243071,A,1661.0107499873266,Correct,sub_007_day_10_data.csv,1,300,106.0,Training at home,,,,,,,,,,,,,
7,12,2654,A,14.37118946011028,41.47195967443415,0.718559473005514,0.6514400192158724,A,697.4118750076741,Correct,sub_007_day_10_data.csv,1,300,106.0,Training at home,,,,,,,,,,,,,
7,12,2655,A,36.54208358399595,57.460517396587456,1.8271041791997973,0.9025876966229384,A,663.9274999615736,Correct,sub_007_day_10_data.csv,1,300,106.0,Training at home,,,,,,,,,,,,,
7,12,2656,A,61.293272960982506,83.28174129623996,3.0646636480491254,1.3081865331721656,A,912.849832966458,Correct,sub_007_day_10_data.csv,1,300,106.0,Training at home,,,,,,,,,,,,,
7,12,2657,A,55.60623618115328,65.8241797405109,2.780311809057664,1.0339637975068157,A,892.7397919469513,Correct,sub_007_day_10_data.csv,1,300,106.0,Training at home,,,,,,,,,,,,,
7,12,2658,A,46.86695499946882,69.13207690606629,2.3433477499734408,1.0859241246775122,A,1110.956541961059,Correct,sub_007_day_10_data.csv,1,300,106.0,Training at home,,,,,,,,,,,,,
7,12,2659,B,63.96778433895093,40.558199592080165,3.1983892169475463,0.6370867094065379,B,2186.4804169745184,Correct,sub_007_day_10_data.csv,1,300,106.0,Training at home,,,,,,,,,,,,,
7,12,2660,B,70.96763486878544,40.827222260941255,3.5483817434392724,0.6413125076072536,B,2759.250792034436,Correct,sub_007_day_10_data.csv,1,300,106.0,Training at home,,,,,,,,,,,,,
7,12,2661,B,85.70099675552791,61.888577269545216,4.285049837776396,0.9721434984556376,B,2427.10079200333,Correct,sub_007_day_10_data.csv,1,300,106.0,Training at home,,,,,,,,,,,,,
7,12,2662,B,43.719113506091595,35.437107751833274,2.1859556753045797,0.5566447868881466,A,2146.6857499908656,Incorrect,sub_007_day_10_data.csv,0,300,106.0,Training at home,,,,,,,,,,,,,
7,12,2663,A,49.167235004149866,63.63853246425108,2.458361750207493,0.9996317303746336,A,894.3912080139853,Correct,sub_007_day_10_data.csv,1,300,106.0,Training at home,,,,,,,,,,,,,
7,12,2664,B,44.13252293926903,27.576127519315385,2.2066261469634516,0.4331647981456827,B,2245.065666968003,Correct,sub_007_day_10_data.csv,1,300,106.0,Training at home,,,,,,,,,,,,,
7,12,2665,A,55.43246271911122,65.34689473273214,2.771623135955561,1.026466622136284,A,2440.7624579616822,Correct,sub_007_day_10_data.csv,1,300,106.0,Training at home,,,,,,,,,,,,,
7,12,2666,A,29.4287356044712,46.972237683517136,1.47143678022356,0.7378381841460554,A,1110.6895419652574,Correct,sub_007_day_10_data.csv,1,300,106.0,Training at home,,,,,,,,,,,,,
7,12,2667,B,51.625815957751634,43.504967300210126,2.581290797887582,0.6833744283250215,B,1294.2562919924967,Correct,sub_007_day_10_data.csv,1,300,106.0,Training at home,,,,,,,,,,,,,
7,12,2668,A,28.528419522527557,54.48282352991042,1.4264209761263775,0.8558141907419784,A,1714.97787500266,Correct,sub_007_day_10_data.csv,1,300,106.0,Training at home,,,,,,,,,,,,,
7,12,2669,B,68.61812134004849,46.71369915811537,3.4309060670024247,0.7337770704856947,B,3780.3948749788105,Correct,sub_007_day_10_data.csv,1,300,106.0,Training at home,,,,,,,,,,,,,
7,12,2670,B,61.91826845917383,45.52702600217714,3.0959134229586915,0.7151368521411559,B,1185.9659579931758,Correct,sub_007_day_10_data.csv,1,300,106.0,Training at home,,,,,,,,,,,,,
7,12,2671,A,25.4577003027316,48.582613414665666,1.2728850151365805,0.763133906978533,A,639.1002499731258,Correct,sub_007_day_10_data.csv,1,300,106.0,Training at home,,,,,,,,,,,,,
7,12,2672,A,58.21145809486157,68.36975985555083,2.9105729047430784,1.0739496764494842,A,1551.14237498492,Correct,sub_007_day_10_data.csv,1,300,106.0,Training at home,,,,,,,,,,,,,
7,12,2673,A,37.204884822197336,61.50941272126123,1.8602442411098667,0.9661875956586842,A,558.407791017089,Correct,sub_007_day_10_data.csv,1,300,106.0,Training at home,,,,,,,,,,,,,
7,12,2674,B,76.99678424102116,63.12112664661442,3.849839212051058,0.9915043387965738,B,588.3189580054022,Correct,sub_007_day_10_data.csv,1,300,106.0,Training at home,,,,,,,,,,,,,
7,12,2675,B,86.0284051088384,60.63526243000096,4.30142025544192,0.9524564749929012,B,591.6984580107965,Correct,sub_007_day_10_data.csv,1,300,107.0,Training at home,,,,,,,,,,,,,
7,12,2676,B,80.03329275373923,59.22108909954339,4.001664637686962,0.9302426922635606,B,738.8002090156078,Correct,sub_007_day_10_data.csv,1,300,107.0,Training at home,,,,,,,,,,,,,
7,12,2677,A,28.07121028726683,56.425103356318346,1.4035605143633416,0.8863234509112724,A,566.1883330321871,Correct,sub_007_day_10_data.csv,1,300,107.0,Training at home,,,,,,,,,,,,,
7,12,2678,B,48.4266315878542,21.60994666865042,2.42133157939271,0.3394482484934969,B,548.5357909929007,Correct,sub_007_day_10_data.csv,1,300,107.0,Training at home,,,,,,,,,,,,,
7,12,2679,A,18.41220496052994,40.954863987653646,0.9206102480264972,0.6433174991619095,A,668.7778749619611,Correct,sub_007_day_10_data.csv,1,300,107.0,Training at home,,,,,,,,,,,,,
7,12,2680,B,55.01503938647715,43.88932904863724,2.7507519693238573,0.6894119685509192,B,712.6568339881487,Correct,sub_007_day_10_data.csv,1,300,107.0,Training at home,,,,,,,,,,,,,
7,12,2681,A,48.09916476412873,59.75882240668293,2.4049582382064365,0.9386893873000612,A,1439.3097080173902,Correct,sub_007_day_10_data.csv,1,300,107.0,Training at home,,,,,,,,,,,,,
7,12,2682,B,89.77099716856107,67.2637009100736,4.488549858428053,1.0565757431617413,B,547.6022500079125,Correct,sub_007_day_10_data.csv,1,300,107.0,Training at home,,,,,,,,,,,,,
7,12,2683,B,79.90329071648573,54.8757726631291,3.995164535824286,0.86198662129275,B,548.7738330266438,Correct,sub_007_day_10_data.csv,1,300,107.0,Training at home,,,,,,,,,,,,,
7,12,2684,B,53.6307998913662,27.76231945990842,2.68153999456831,0.4360894943093062,B,561.0007080249488,Correct,sub_007_day_10_data.csv,1,300,107.0,Training at home,,,,,,,,,,,,,
7,12,2685,A,62.76440271868616,83.63959047472277,3.1382201359343083,1.3138076149232394,A,870.1470000087284,Correct,sub_007_day_10_data.csv,1,300,107.0,Training at home,,,,,,,,,,,,,
7,12,2686,B,77.60039420379275,49.8301264841205,3.880019710189637,0.7827297964498158,B,792.7106670103967,Correct,sub_007_day_10_data.csv,1,300,107.0,Training at home,,,,,,,,,,,,,
7,12,2687,A,61.876350336876015,82.5435684370766,3.093817516843801,1.296591341015031,A,776.2594589730725,Correct,sub_007_day_10_data.csv,1,300,107.0,Training at home,,,,,,,,,,,,,
7,12,2688,B,74.40697192835825,45.03910867666616,3.720348596417912,0.7074726647142336,B,943.0802089627832,Correct,sub_007_day_10_data.csv,1,300,107.0,Training at home,,,,,,,,,,,,,
7,12,2689,A,41.49808016203616,70.06646216475461,2.074904008101808,1.1006014139991012,A,1100.9384579956532,Correct,sub_007_day_10_data.csv,1,300,107.0,Training at home,,,,,,,,,,,,,
7,12,2690,A,45.4387793056822,61.90675690587352,2.27193896528411,0.9724290635153072,A,851.8506669788621,Correct,sub_007_day_10_data.csv,1,300,107.0,Training at home,,,,,,,,,,,,,
7,12,2691,A,49.33321664473473,79.78758133340276,2.4666608322367365,1.253300396823581,A,1112.605958012864,Correct,sub_007_day_10_data.csv,1,300,107.0,Training at home,,,,,,,,,,,,,
7,12,2692,B,89.362065412877,66.19906113864081,4.46810327064385,1.0398524207384778,B,635.6641249731183,Correct,sub_007_day_10_data.csv,1,300,107.0,Training at home,,,,,,,,,,,,,
7,12,2693,A,21.450636670999163,36.91709990827735,1.072531833549958,0.5798924493184228,B,2402.0960420020856,Incorrect,sub_007_day_10_data.csv,0,300,107.0,Training at home,,,,,,,,,,,,,
7,12,2694,A,41.07498801090118,50.16728385110446,2.0537494005450587,0.7880258519859181,A,2165.32750002807,Correct,sub_007_day_10_data.csv,1,300,107.0,Training at home,,,,,,,,,,,,,
7,12,2695,A,32.81565978558083,54.53628221718988,1.6407829892790415,0.8566539178381171,A,836.1214160104282,Correct,sub_007_day_10_data.csv,1,300,107.0,Training at home,,,,,,,,,,,,,
7,12,2696,A,41.45183565348905,55.89338770597689,2.0725917826744524,0.8779712810067154,A,1052.2056670160964,Correct,sub_007_day_10_data.csv,1,300,107.0,Training at home,,,,,,,,,,,,,
7,12,2697,B,43.43127078841676,14.201064818533036,2.171563539420838,0.2230698045352793,B,669.1015000105835,Correct,sub_007_day_10_data.csv,1,300,107.0,Training at home,,,,,,,,,,,,,
7,12,2698,B,42.074546137155195,19.14613338139405,2.10372730685776,0.3007467598781892,B,1197.4998750374652,Correct,sub_007_day_10_data.csv,1,300,107.0,Training at home,,,,,,,,,,,,,
7,12,2699,A,43.19046261788411,75.63313920928582,2.159523130894206,1.188042572539132,A,1100.8372909855098,Correct,sub_007_day_10_data.csv,1,300,107.0,Training at home,,,,,,,,,,,,,
