subject,day,trial,cat,x,y,xt,yt,resp,rt,fb,f_name,acc,n_trials,block,session_type,ns_left_digit,ns_right_digit,ns_left_size,ns_right_size,ns_congruent,ns_cue,ns_correct_side,ns_resp,ns_rt,ns_fb,acc_stroop,acc_stroop_mean,resp_key
7,13,2700,B,59.333785063123145,38.50511681446232,2.9666892531561575,0.6048369605496583,B,1027.0992500009015,Correct,sub_007_day_11_data.csv,1,300,108.0,Training at home,,,,,,,,,,,,,
7,13,2701,A,34.34167589030785,43.45456889695526,1.7170837945153925,0.6825827720579308,A,1124.7415830148384,Correct,sub_007_day_11_data.csv,1,300,108.0,Training at home,,,,,,,,,,,,,
7,13,2702,B,74.7328983475737,62.922902402452394,3.736644917378685,0.9883906396504598,B,1313.045748975128,Correct,sub_007_day_11_data.csv,1,300,108.0,Training at home,,,,,,,,,,,,,
7,13,2703,A,37.58792347380593,45.76683521262867,1.8793961736902964,0.7189037664102443,A,1340.360125002917,Correct,sub_007_day_11_data.csv,1,300,108.0,Training at home,,,,,,,,,,,,,
7,13,2704,A,47.380416377994834,60.6187108142944,2.3690208188997417,0.952196482821357,A,482.8017490217462,Correct,sub_007_day_11_data.csv,1,300,108.0,Training at home,,,,,,,,,,,,,
7,13,2705,A,66.26074692044966,87.1746265740547,3.313037346022483,1.3693358321224192,A,748.8454580307007,Correct,sub_007_day_11_data.csv,1,300,108.0,Training at home,,,,,,,,,,,,,
7,13,2706,B,43.867904964937566,31.497439279337257,2.1933952482468784,0.4947606192342825,B,724.0063329809345,Correct,sub_007_day_11_data.csv,1,300,108.0,Training at home,,,,,,,,,,,,,
7,13,2707,B,42.6667753670953,31.166483905465427,2.133338768354765,0.4895619843781735,A,1529.8471660353243,Incorrect,sub_007_day_11_data.csv,0,300,108.0,Training at home,,,,,,,,,,,,,
7,13,2708,B,80.51887968316326,59.076706724603035,4.025943984158164,0.927974739221458,A,1118.3867910294794,Incorrect,sub_007_day_11_data.csv,0,300,108.0,Training at home,,,,,,,,,,,,,
7,13,2709,A,32.90653668463225,53.57055735220669,1.6453268342316123,0.841484347132016,A,576.9806670141406,Correct,sub_007_day_11_data.csv,1,300,108.0,Training at home,,,,,,,,,,,,,
7,13,2710,B,72.10504290719881,61.11589218670739,3.6052521453599407,0.9600061895567288,B,1522.1327079925686,Correct,sub_007_day_11_data.csv,1,300,108.0,Training at home,,,,,,,,,,,,,
7,13,2711,A,51.85928550123626,75.34060161697762,2.592964275061813,1.1834474027846609,A,800.8143329643644,Correct,sub_007_day_11_data.csv,1,300,108.0,Training at home,,,,,,,,,,,,,
7,13,2712,B,84.72204928123332,56.847603227492336,4.236102464061666,0.8929600633683866,B,652.9699999955483,Correct,sub_007_day_11_data.csv,1,300,108.0,Training at home,,,,,,,,,,,,,
7,13,2713,B,68.56316186838328,55.72158065226292,3.428158093419164,0.8752725421178018,B,1117.6709160208702,Correct,sub_007_day_11_data.csv,1,300,108.0,Training at home,,,,,,,,,,,,,
7,13,2714,A,28.98908947274914,52.19831903321257,1.449454473637457,0.8199292780223842,A,626.6705419984646,Correct,sub_007_day_11_data.csv,1,300,108.0,Training at home,,,,,,,,,,,,,
7,13,2715,A,40.292700689203855,56.2445221497532,2.0146350344601927,0.8834868879516654,A,636.9627080275677,Correct,sub_007_day_11_data.csv,1,300,108.0,Training at home,,,,,,,,,,,,,
7,13,2716,A,28.7499162305817,53.14363831368878,1.437495811529085,0.8347783185565886,A,693.2603329769336,Correct,sub_007_day_11_data.csv,1,300,108.0,Training at home,,,,,,,,,,,,,
7,13,2717,A,41.038574141977506,70.27730926518609,2.051928707098875,1.1039133925078326,A,603.8984580081888,Correct,sub_007_day_11_data.csv,1,300,108.0,Training at home,,,,,,,,,,,,,
7,13,2718,B,55.55709120937232,35.607562341508675,2.777854560468616,0.5593222813216212,B,766.9311659992673,Correct,sub_007_day_11_data.csv,1,300,108.0,Training at home,,,,,,,,,,,,,
7,13,2719,B,32.08542261908019,18.02914643733301,1.6042711309540096,0.2832011699900999,B,1046.940999047365,Correct,sub_007_day_11_data.csv,1,300,108.0,Training at home,,,,,,,,,,,,,
7,13,2720,A,45.77643010756557,54.25636111261784,2.2888215053782783,0.8522569274095757,A,1768.935208034236,Correct,sub_007_day_11_data.csv,1,300,108.0,Training at home,,,,,,,,,,,,,
7,13,2721,A,56.1433835290901,81.6029556235515,2.8071691764545053,1.2818162294908164,A,1608.90895803459,Correct,sub_007_day_11_data.csv,1,300,108.0,Training at home,,,,,,,,,,,,,
7,13,2722,A,41.61547065375193,66.92721496103225,2.080773532687596,1.0512902342340191,A,771.1094160331413,Correct,sub_007_day_11_data.csv,1,300,108.0,Training at home,,,,,,,,,,,,,
7,13,2723,B,70.01205268448663,41.73032752129059,3.500602634224332,0.6554984518639124,B,558.1334580201656,Correct,sub_007_day_11_data.csv,1,300,108.0,Training at home,,,,,,,,,,,,,
7,13,2724,A,53.036441204210064,79.49539673272962,2.6518220602105034,1.248710771848747,A,711.6390410228632,Correct,sub_007_day_11_data.csv,1,300,108.0,Training at home,,,,,,,,,,,,,
7,13,2725,A,51.955350245760904,63.58616099105141,2.5977675122880455,0.9988090811973248,A,1317.333040991798,Correct,sub_007_day_11_data.csv,1,300,109.0,Training at home,,,,,,,,,,,,,
7,13,2726,A,59.387581018126895,74.37038299523388,2.9693790509063445,1.16820724431243,A,1474.5206250227056,Correct,sub_007_day_11_data.csv,1,300,109.0,Training at home,,,,,,,,,,,,,
7,13,2727,B,53.819337673288906,45.63885314874344,2.6909668836644456,0.716893428851779,B,606.8286249646917,Correct,sub_007_day_11_data.csv,1,300,109.0,Training at home,,,,,,,,,,,,,
7,13,2728,B,78.20626010923506,58.68923458464671,3.910313005461753,0.9218883410796708,B,760.8698750264011,Correct,sub_007_day_11_data.csv,1,300,109.0,Training at home,,,,,,,,,,,,,
7,13,2729,B,42.00569095459566,19.73014775166309,2.1002845477297827,0.3099204361543296,B,1937.2414170065897,Correct,sub_007_day_11_data.csv,1,300,109.0,Training at home,,,,,,,,,,,,,
7,13,2730,B,57.414498898216635,34.67517902762297,2.8707249449108314,0.5446764384754559,B,2087.9485420300625,Correct,sub_007_day_11_data.csv,1,300,109.0,Training at home,,,,,,,,,,,,,
7,13,2731,A,41.19628704951666,50.54264463607024,2.059814352475833,0.793922005408389,A,1403.312666981947,Correct,sub_007_day_11_data.csv,1,300,109.0,Training at home,,,,,,,,,,,,,
7,13,2732,A,51.940040831684385,61.36491342375109,2.597002041584219,0.9639178060011506,A,651.2755420408212,Correct,sub_007_day_11_data.csv,1,300,109.0,Training at home,,,,,,,,,,,,,
7,13,2733,A,35.900412245810855,52.542254313009494,1.7950206122905428,0.8253318007639863,A,765.5238740262575,Correct,sub_007_day_11_data.csv,1,300,109.0,Training at home,,,,,,,,,,,,,
7,13,2734,A,46.88488780294771,64.9515658253202,2.3442443901473853,1.0202568101798992,A,626.3952080043964,Correct,sub_007_day_11_data.csv,1,300,109.0,Training at home,,,,,,,,,,,,,
7,13,2735,B,42.127525117409235,24.167085768596444,2.1063762558704617,0.3796156955464851,B,707.6806249679066,Correct,sub_007_day_11_data.csv,1,300,109.0,Training at home,,,,,,,,,,,,,
7,13,2736,B,70.92754821230868,39.905264528707875,3.546377410615434,0.6268304294147301,B,1005.1771239959636,Correct,sub_007_day_11_data.csv,1,300,109.0,Training at home,,,,,,,,,,,,,
7,13,2737,B,41.559671166284645,17.46564791950609,2.0779835583142323,0.2743497559705309,B,763.6081249802373,Correct,sub_007_day_11_data.csv,1,300,109.0,Training at home,,,,,,,,,,,,,
7,13,2738,A,56.95263545905934,72.70489147619983,2.847631772952967,1.1420457647083628,A,2644.610040995758,Correct,sub_007_day_11_data.csv,1,300,109.0,Training at home,,,,,,,,,,,,,
7,13,2739,B,61.0893034596135,45.20576217503975,3.0544651729806747,0.7100904517451612,B,666.05812497437,Correct,sub_007_day_11_data.csv,1,300,109.0,Training at home,,,,,,,,,,,,,
7,13,2740,B,84.20811793226324,66.92444236115779,4.210405896613162,1.0512466823370343,B,462.7888749819249,Correct,sub_007_day_11_data.csv,1,300,109.0,Training at home,,,,,,,,,,,,,
7,13,2741,A,22.05147230180016,34.22176929528557,1.102573615090008,0.5375542950545694,A,406.011542014312,Correct,sub_007_day_11_data.csv,1,300,109.0,Training at home,,,,,,,,,,,,,
7,13,2742,A,44.921721642563696,73.31073065063981,2.2460860821281847,1.151562264206751,A,655.756082967855,Correct,sub_007_day_11_data.csv,1,300,109.0,Training at home,,,,,,,,,,,,,
7,13,2743,A,34.16593890507114,66.57728673866616,1.7082969452535568,1.045793574570674,A,731.9914580439217,Correct,sub_007_day_11_data.csv,1,300,109.0,Training at home,,,,,,,,,,,,,
7,13,2744,A,40.73350618491371,72.34468870804166,2.0366753092456857,1.1363877128571207,A,722.2952079609968,Correct,sub_007_day_11_data.csv,1,300,109.0,Training at home,,,,,,,,,,,,,
7,13,2745,A,13.313496710016462,39.76890271124795,0.6656748355008232,0.6246884629949188,A,555.5999159696512,Correct,sub_007_day_11_data.csv,1,300,109.0,Training at home,,,,,,,,,,,,,
7,13,2746,B,72.9101430815515,54.272434997732944,3.645507154077575,0.852509415406537,B,1682.8295000013895,Correct,sub_007_day_11_data.csv,1,300,109.0,Training at home,,,,,,,,,,,,,
7,13,2747,A,20.449684603091928,32.86900912937358,1.0224842301545964,0.5163051880580793,A,702.9212079942226,Correct,sub_007_day_11_data.csv,1,300,109.0,Training at home,,,,,,,,,,,,,
7,13,2748,B,67.77903043732006,47.022523189803294,3.388951521866003,0.7386280670317086,B,891.634083003737,Correct,sub_007_day_11_data.csv,1,300,109.0,Training at home,,,,,,,,,,,,,
7,13,2749,B,71.6446303478522,40.46749099467245,3.58223151739261,0.6356618620903703,B,520.0177910155617,Correct,sub_007_day_11_data.csv,1,300,109.0,Training at home,,,,,,,,,,,,,
7,13,2750,B,67.77298916136058,49.807431426855665,3.388649458068029,0.7823733033239356,B,699.372208036948,Correct,sub_007_day_11_data.csv,1,300,110.0,Training at home,,,,,,,,,,,,,
7,13,2751,B,47.69075277446782,33.94442653560468,2.384537638723391,0.5331978051728703,B,1115.4418750084003,Correct,sub_007_day_11_data.csv,1,300,110.0,Training at home,,,,,,,,,,,,,
7,13,2752,A,34.82367486770087,66.4393714424521,1.7411837433850437,1.0436272061636551,A,1624.3809580337256,Correct,sub_007_day_11_data.csv,1,300,110.0,Training at home,,,,,,,,,,,,,
7,13,2753,B,61.33855297956079,32.98642433414522,3.0669276489780395,0.518149541781731,B,627.0685420022346,Correct,sub_007_day_11_data.csv,1,300,110.0,Training at home,,,,,,,,,,,,,
7,13,2754,B,49.28834384219456,22.28533292749692,2.464417192109728,0.3500571910391352,B,538.5340829961933,Correct,sub_007_day_11_data.csv,1,300,110.0,Training at home,,,,,,,,,,,,,
7,13,2755,B,37.9778844086096,13.365475909278086,1.8988942204304804,0.2099444046415969,B,639.7896250127815,Correct,sub_007_day_11_data.csv,1,300,110.0,Training at home,,,,,,,,,,,,,
7,13,2756,A,11.47695252170925,37.892607227642614,0.5738476260854626,0.5952156824586277,A,699.2702909628861,Correct,sub_007_day_11_data.csv,1,300,110.0,Training at home,,,,,,,,,,,,,
7,13,2757,B,43.68909309154502,26.332547849365973,2.184454654577251,0.4136306943693492,B,591.0578750190325,Correct,sub_007_day_11_data.csv,1,300,110.0,Training at home,,,,,,,,,,,,,
7,13,2758,A,34.183067757975756,57.42960504244489,1.7091533878987877,0.902102126499541,A,978.3625830314122,Correct,sub_007_day_11_data.csv,1,300,110.0,Training at home,,,,,,,,,,,,,
7,13,2759,A,56.68343741576753,85.50444322163989,2.834171870788376,1.3431006533719474,A,709.3772079679184,Correct,sub_007_day_11_data.csv,1,300,110.0,Training at home,,,,,,,,,,,,,
7,13,2760,B,77.10246619053494,59.915703515991666,3.855123309526747,0.9411536700025176,B,897.4286250304431,Correct,sub_007_day_11_data.csv,1,300,110.0,Training at home,,,,,,,,,,,,,
7,13,2761,B,64.57247288998592,49.919347911913846,3.228623644499296,0.7841312833603075,B,2884.396166016814,Correct,sub_007_day_11_data.csv,1,300,110.0,Training at home,,,,,,,,,,,,,
7,13,2762,B,36.98473429286247,27.254494900037532,1.8492367146431232,0.4281126047762919,B,823.8389170146547,Correct,sub_007_day_11_data.csv,1,300,110.0,Training at home,,,,,,,,,,,,,
7,13,2763,B,39.667464896408816,27.79089174174046,1.9833732448204409,0.4365383066628054,B,654.8469160334207,Correct,sub_007_day_11_data.csv,1,300,110.0,Training at home,,,,,,,,,,,,,
7,13,2764,B,74.197823993859,60.718111242701134,3.70989119969295,0.9537578610995884,B,625.5405829870142,Correct,sub_007_day_11_data.csv,1,300,110.0,Training at home,,,,,,,,,,,,,
7,13,2765,B,64.02020063075365,32.06516819514543,3.201010031537683,0.5036784841899499,B,786.2411250243895,Correct,sub_007_day_11_data.csv,1,300,110.0,Training at home,,,,,,,,,,,,,
7,13,2766,A,49.764250707921704,77.85281264059216,2.488212535396085,1.2229091212649346,A,1081.593958020676,Correct,sub_007_day_11_data.csv,1,300,110.0,Training at home,,,,,,,,,,,,,
7,13,2767,B,43.103789610889606,33.61020865370668,2.15518948054448,0.527947922960525,B,583.7002909975126,Correct,sub_007_day_11_data.csv,1,300,110.0,Training at home,,,,,,,,,,,,,
7,13,2768,A,33.96803870177904,55.27184150862011,1.698401935088952,0.8682080561693017,A,895.1777080073953,Correct,sub_007_day_11_data.csv,1,300,110.0,Training at home,,,,,,,,,,,,,
7,13,2769,B,69.2811385175291,49.61864428036307,3.464056925876455,0.7794078417613691,B,795.5267910147086,Correct,sub_007_day_11_data.csv,1,300,110.0,Training at home,,,,,,,,,,,,,
7,13,2770,A,21.472670175868146,48.314805144137146,1.0736335087934072,0.7589271845022179,A,789.2885410110466,Correct,sub_007_day_11_data.csv,1,300,110.0,Training at home,,,,,,,,,,,,,
7,13,2771,B,56.291749137962526,49.599667378677864,2.8145874568981264,0.7791097532867585,B,1659.5205420162529,Correct,sub_007_day_11_data.csv,1,300,110.0,Training at home,,,,,,,,,,,,,
7,13,2772,B,47.909654848486795,36.62862175174439,2.39548274242434,0.5753610450319974,B,1928.1217500101775,Correct,sub_007_day_11_data.csv,1,300,110.0,Training at home,,,,,,,,,,,,,
7,13,2773,A,43.53656178547578,55.12300293276143,2.1768280892737892,0.8658701052868597,A,1471.8744580168277,Correct,sub_007_day_11_data.csv,1,300,110.0,Training at home,,,,,,,,,,,,,
7,13,2774,A,49.00079460438306,69.7112652895034,2.450039730219153,1.0950219945297652,A,1731.199291010853,Correct,sub_007_day_11_data.csv,1,300,110.0,Training at home,,,,,,,,,,,,,
7,13,2775,B,47.977353250213106,27.99643530936055,2.3988676625106553,0.4397669774729449,B,700.7915830472484,Correct,sub_007_day_11_data.csv,1,300,111.0,Training at home,,,,,,,,,,,,,
7,13,2776,B,87.23767999974453,61.8343280716542,4.361883999987226,0.9712913540478496,B,606.7147909780033,Correct,sub_007_day_11_data.csv,1,300,111.0,Training at home,,,,,,,,,,,,,
7,13,2777,B,47.87488330961287,20.84828744871039,2.3937441654806433,0.3274841334439843,B,753.2774579594843,Correct,sub_007_day_11_data.csv,1,300,111.0,Training at home,,,,,,,,,,,,,
7,13,2778,A,36.28443732510779,53.79362813174493,1.8142218662553893,0.8449883347431555,A,874.5935409679078,Correct,sub_007_day_11_data.csv,1,300,111.0,Training at home,,,,,,,,,,,,,
7,13,2779,B,40.83855422422946,20.421747281797327,2.041927711211473,0.3207840561698091,B,1104.5228330185637,Correct,sub_007_day_11_data.csv,1,300,111.0,Training at home,,,,,,,,,,,,,
7,13,2780,A,22.165915025608427,40.27224661583148,1.1082957512804217,0.632594970559263,A,1818.2801250368357,Correct,sub_007_day_11_data.csv,1,300,111.0,Training at home,,,,,,,,,,,,,
7,13,2781,A,30.26967046650944,50.716680487891864,1.5134835233254722,0.7966557541761092,A,928.548707976006,Correct,sub_007_day_11_data.csv,1,300,111.0,Training at home,,,,,,,,,,,,,
7,13,2782,B,52.088464739034364,28.47296837967965,2.604423236951718,0.4472523414374803,B,1277.043665992096,Correct,sub_007_day_11_data.csv,1,300,111.0,Training at home,,,,,,,,,,,,,
7,13,2783,A,42.34379954967152,65.33981499855976,2.117189977483576,1.0263554139319575,A,588.153291027993,Correct,sub_007_day_11_data.csv,1,300,111.0,Training at home,,,,,,,,,,,,,
7,13,2784,A,43.48771715033307,74.68150927611505,2.1743858575166537,1.173094404504205,A,655.8424580143765,Correct,sub_007_day_11_data.csv,1,300,111.0,Training at home,,,,,,,,,,,,,
7,13,2785,A,25.255768976904054,49.66330371950187,1.2627884488452028,0.7801093505909287,A,560.2118739625439,Correct,sub_007_day_11_data.csv,1,300,111.0,Training at home,,,,,,,,,,,,,
7,13,2786,A,38.05317091011725,53.13432076711848,1.9026585455058624,0.834631958877315,A,461.363332986366,Correct,sub_007_day_11_data.csv,1,300,111.0,Training at home,,,,,,,,,,,,,
7,13,2787,A,44.74922159169533,76.79934937569348,2.237461079584767,1.2063613589957725,A,560.1965410169214,Correct,sub_007_day_11_data.csv,1,300,111.0,Training at home,,,,,,,,,,,,,
7,13,2788,A,23.073966123852397,50.785596838202,1.1536983061926198,0.7977382896753422,A,785.6235830113292,Correct,sub_007_day_11_data.csv,1,300,111.0,Training at home,,,,,,,,,,,,,
7,13,2789,A,38.13239616625996,69.55673913705436,1.906619808312998,1.0925947034031582,A,636.229416995775,Correct,sub_007_day_11_data.csv,1,300,111.0,Training at home,,,,,,,,,,,,,
7,13,2790,A,37.57812411494409,53.848064587720835,1.8789062057472048,0.8458434205940623,A,1319.6093330043368,Correct,sub_007_day_11_data.csv,1,300,111.0,Training at home,,,,,,,,,,,,,
7,13,2791,B,53.57437372500567,31.01269111255718,2.6787186862502836,0.4871462128362954,B,656.2144989729859,Correct,sub_007_day_11_data.csv,1,300,111.0,Training at home,,,,,,,,,,,,,
7,13,2792,B,62.771969857943134,47.47983774474306,3.138598492897157,0.7458115472626008,B,1532.5212080497297,Correct,sub_007_day_11_data.csv,1,300,111.0,Training at home,,,,,,,,,,,,,
7,13,2793,B,47.98100597255814,26.943851133105177,2.3990502986279068,0.4232330238959011,B,1025.355165998917,Correct,sub_007_day_11_data.csv,1,300,111.0,Training at home,,,,,,,,,,,,,
7,13,2794,A,27.82871014231047,41.474025934477126,1.391435507115523,0.6514724759527294,A,782.6782920164987,Correct,sub_007_day_11_data.csv,1,300,111.0,Training at home,,,,,,,,,,,,,
7,13,2795,B,50.03995723118449,41.77562011264017,2.501997861559224,0.6562099062251419,B,1501.1844580294564,Correct,sub_007_day_11_data.csv,1,300,111.0,Training at home,,,,,,,,,,,,,
7,13,2796,B,78.47808098600882,64.04982917257277,3.923904049300441,1.0060923639611792,B,1079.812332987785,Correct,sub_007_day_11_data.csv,1,300,111.0,Training at home,,,,,,,,,,,,,
7,13,2797,A,55.98588792497716,75.46292233690836,2.7992943962488583,1.185368812160242,A,728.1279159942642,Correct,sub_007_day_11_data.csv,1,300,111.0,Training at home,,,,,,,,,,,,,
7,13,2798,B,34.102594857955566,14.3848329553112,1.7051297428977783,0.2259564276776101,B,885.9938750392757,Correct,sub_007_day_11_data.csv,1,300,111.0,Training at home,,,,,,,,,,,,,
7,13,2799,B,85.04289521544943,62.844257274517666,4.252144760772472,0.987155284869658,B,877.7386660221964,Correct,sub_007_day_11_data.csv,1,300,111.0,Training at home,,,,,,,,,,,,,
7,13,2800,A,54.00928757260169,74.18875499031279,2.700464378630085,1.165354238282699,A,1585.700708033983,Correct,sub_007_day_11_data.csv,1,300,112.0,Training at home,,,,,,,,,,,,,
7,13,2801,B,44.49058516709063,22.455611174256756,2.224529258354531,0.3527319154845694,B,760.1627919939347,Correct,sub_007_day_11_data.csv,1,300,112.0,Training at home,,,,,,,,,,,,,
7,13,2802,B,45.082585422959866,36.722361065739264,2.2541292711479937,0.5768334987329916,B,1151.423708011862,Correct,sub_007_day_11_data.csv,1,300,112.0,Training at home,,,,,,,,,,,,,
7,13,2803,B,43.84827818454704,24.527629782076353,2.192413909227352,0.3852791076667064,B,1043.3315410045907,Correct,sub_007_day_11_data.csv,1,300,112.0,Training at home,,,,,,,,,,,,,
7,13,2804,B,62.51285726668071,54.75514021940374,3.125642863334036,0.860091731297789,B,1592.1537080430426,Correct,sub_007_day_11_data.csv,1,300,112.0,Training at home,,,,,,,,,,,,,
7,13,2805,A,57.442587835219285,77.96502843257508,2.8721293917609643,1.2246718028034862,A,1393.3005830040202,Correct,sub_007_day_11_data.csv,1,300,112.0,Training at home,,,,,,,,,,,,,
7,13,2806,A,54.61554803256773,67.98854562820209,2.730777401628387,1.0679615773690707,A,843.9736239961348,Correct,sub_007_day_11_data.csv,1,300,112.0,Training at home,,,,,,,,,,,,,
7,13,2807,A,45.881368711362306,61.91111991561862,2.2940684355681156,0.9724975975121208,A,1055.6681669550017,Correct,sub_007_day_11_data.csv,1,300,112.0,Training at home,,,,,,,,,,,,,
7,13,2808,B,74.42777750965955,63.37847587246976,3.721388875482978,0.9955467709833448,B,1114.0052489936352,Correct,sub_007_day_11_data.csv,1,300,112.0,Training at home,,,,,,,,,,,,,
7,13,2809,A,37.68830512664637,49.7262975618663,1.8844152563323184,0.781098855552896,A,1293.3864159858786,Correct,sub_007_day_11_data.csv,1,300,112.0,Training at home,,,,,,,,,,,,,
7,13,2810,A,48.033103812674355,74.47218902943682,2.401655190633718,1.169806409758145,A,903.5054169944488,Correct,sub_007_day_11_data.csv,1,300,112.0,Training at home,,,,,,,,,,,,,
7,13,2811,A,52.2011264001994,80.17831084676723,2.6100563200099702,1.2594379616672136,A,1006.7391660413704,Correct,sub_007_day_11_data.csv,1,300,112.0,Training at home,,,,,,,,,,,,,
7,13,2812,B,73.40864012294291,45.482137981515365,3.670432006147146,0.7144317527614299,B,1006.0307909734548,Correct,sub_007_day_11_data.csv,1,300,112.0,Training at home,,,,,,,,,,,,,
7,13,2813,B,72.39968337280482,53.00204876326893,3.619984168640241,0.8325542350994682,B,1240.161416993942,Correct,sub_007_day_11_data.csv,1,300,112.0,Training at home,,,,,,,,,,,,,
7,13,2814,B,76.6908525926271,58.62816658730134,3.834542629631355,0.9209290872205222,A,1236.572541994974,Incorrect,sub_007_day_11_data.csv,0,300,112.0,Training at home,,,,,,,,,,,,,
7,13,2815,A,45.89461838768343,76.84692205647076,2.2947309193841714,1.20710862891798,A,692.3543330049142,Correct,sub_007_day_11_data.csv,1,300,112.0,Training at home,,,,,,,,,,,,,
7,13,2816,A,26.262387100469407,40.45778305717247,1.3131193550234703,0.6355093701647131,A,1308.8572080014274,Correct,sub_007_day_11_data.csv,1,300,112.0,Training at home,,,,,,,,,,,,,
7,13,2817,B,44.55160750991516,19.35629839378482,2.2275803754957577,0.3040480241730315,B,837.1124159893952,Correct,sub_007_day_11_data.csv,1,300,112.0,Training at home,,,,,,,,,,,,,
7,13,2818,B,65.46181891755391,53.79243730557115,3.2730909458776956,0.8449696292893591,B,1369.7153750108555,Correct,sub_007_day_11_data.csv,1,300,112.0,Training at home,,,,,,,,,,,,,
7,13,2819,A,33.44230871569387,46.44256900831765,1.6721154357846932,0.7295181680518387,A,1026.397125038784,Correct,sub_007_day_11_data.csv,1,300,112.0,Training at home,,,,,,,,,,,,,
7,13,2820,A,19.442678652829812,49.427607315626666,0.9721339326414906,0.7764070401364692,A,588.4572489885613,Correct,sub_007_day_11_data.csv,1,300,112.0,Training at home,,,,,,,,,,,,,
7,13,2821,A,34.8171761076014,64.1123566650844,1.74085880538007,1.007074543516789,A,578.9672079845332,Correct,sub_007_day_11_data.csv,1,300,112.0,Training at home,,,,,,,,,,,,,
7,13,2822,B,49.36764621900619,34.545982482496775,2.4683823109503096,0.5426470238902678,B,902.828290942125,Correct,sub_007_day_11_data.csv,1,300,112.0,Training at home,,,,,,,,,,,,,
7,13,2823,B,40.54558130546933,16.28955616294357,2.0272790652734667,0.2558757498587092,B,821.6755000175908,Correct,sub_007_day_11_data.csv,1,300,112.0,Training at home,,,,,,,,,,,,,
7,13,2824,A,41.03538219234824,71.35620682299076,2.051769109617412,1.1208606757157082,A,1193.2231659884565,Correct,sub_007_day_11_data.csv,1,300,112.0,Training at home,,,,,,,,,,,,,
7,13,2825,B,49.131601304697256,33.72350487448807,2.4565800652348626,0.5297275758349566,B,874.2154999636114,Correct,sub_007_day_11_data.csv,1,300,113.0,Training at home,,,,,,,,,,,,,
7,13,2826,A,33.44490247803198,48.74508016124014,1.6722451239015987,0.7656859286659881,A,762.3443749616854,Correct,sub_007_day_11_data.csv,1,300,113.0,Training at home,,,,,,,,,,,,,
7,13,2827,B,76.0316887022523,51.366010794469105,3.8015844351126145,0.8068554107805908,B,831.7651250399649,Correct,sub_007_day_11_data.csv,1,300,113.0,Training at home,,,,,,,,,,,,,
7,13,2828,A,60.83260203415872,80.36170780600116,3.041630101707936,1.262318754366314,A,1237.2253740322776,Correct,sub_007_day_11_data.csv,1,300,113.0,Training at home,,,,,,,,,,,,,
7,13,2829,B,58.83108894017166,43.491410723399575,2.941554447008583,0.6831614821144423,B,1019.2674580030144,Correct,sub_007_day_11_data.csv,1,300,113.0,Training at home,,,,,,,,,,,,,
7,13,2830,A,66.83938672389439,87.72340808242238,3.34196933619472,1.3779560718979882,A,606.5626670024358,Correct,sub_007_day_11_data.csv,1,300,113.0,Training at home,,,,,,,,,,,,,
7,13,2831,B,69.90460338731128,51.021360446210025,3.495230169365564,0.8014416557698514,B,955.7794169522822,Correct,sub_007_day_11_data.csv,1,300,113.0,Training at home,,,,,,,,,,,,,
7,13,2832,A,36.10591236280427,60.46738677013931,1.8052956181402136,0.9498194902942116,A,624.3582499446347,Correct,sub_007_day_11_data.csv,1,300,113.0,Training at home,,,,,,,,,,,,,
7,13,2833,A,61.89412585858625,79.58136454716761,3.0947062929293123,1.250061151120165,A,1310.713874991052,Correct,sub_007_day_11_data.csv,1,300,113.0,Training at home,,,,,,,,,,,,,
7,13,2834,A,53.37030547159888,75.40104577905674,2.668515273579944,1.1843968574623618,A,1320.133583038114,Correct,sub_007_day_11_data.csv,1,300,113.0,Training at home,,,,,,,,,,,,,
7,13,2835,A,30.27415377650774,40.13893001514903,1.513707688825387,0.6305008382927352,A,1091.4224999723956,Correct,sub_007_day_11_data.csv,1,300,113.0,Training at home,,,,,,,,,,,,,
7,13,2836,B,71.28970287178421,52.08533403661758,3.564485143589211,0.8181545138460409,B,1482.2859580162913,Correct,sub_007_day_11_data.csv,1,300,113.0,Training at home,,,,,,,,,,,,,
7,13,2837,B,86.74180311631385,58.96683166770459,4.337090155815693,0.9262488258636336,B,1174.9607080128044,Correct,sub_007_day_11_data.csv,1,300,113.0,Training at home,,,,,,,,,,,,,
7,13,2838,A,58.92381608841116,72.81452193030793,2.9461908044205583,1.1437678358545411,A,1125.068082998041,Correct,sub_007_day_11_data.csv,1,300,113.0,Training at home,,,,,,,,,,,,,
7,13,2839,B,78.1016126553875,61.75866953686429,3.905080632769375,0.9701029125624632,B,755.0422500353307,Correct,sub_007_day_11_data.csv,1,300,113.0,Training at home,,,,,,,,,,,,,
7,13,2840,A,32.72183153429174,45.0073638559444,1.636091576714587,0.7069740182363885,A,1527.782290999312,Correct,sub_007_day_11_data.csv,1,300,113.0,Training at home,,,,,,,,,,,,,
7,13,2841,A,43.02556492300264,72.77587131907347,2.151278246150132,1.1431607134729866,A,667.5822919933125,Correct,sub_007_day_11_data.csv,1,300,113.0,Training at home,,,,,,,,,,,,,
7,13,2842,B,82.83867122895988,58.4549136765164,4.141933561447994,0.9182076368618473,B,1545.8901659585536,Correct,sub_007_day_11_data.csv,1,300,113.0,Training at home,,,,,,,,,,,,,
7,13,2843,B,62.69959674897247,42.942382596367814,3.1349798374486233,0.6745373684619567,B,1311.9175829924643,Correct,sub_007_day_11_data.csv,1,300,113.0,Training at home,,,,,,,,,,,,,
7,13,2844,A,36.82045323895531,44.278917650375625,1.8410226619477656,0.6955316119966374,A,693.9403330325149,Correct,sub_007_day_11_data.csv,1,300,113.0,Training at home,,,,,,,,,,,,,
7,13,2845,B,55.75308508271209,33.64500753793003,2.787654254135605,0.528494542555671,B,1313.9413330354728,Correct,sub_007_day_11_data.csv,1,300,113.0,Training at home,,,,,,,,,,,,,
7,13,2846,B,63.56344959448131,53.50296270769352,3.178172479724066,0.8404225729388931,B,2116.434332972858,Correct,sub_007_day_11_data.csv,1,300,113.0,Training at home,,,,,,,,,,,,,
7,13,2847,B,75.40772495406136,50.35272253443672,3.770386247703068,0.7909387160121583,B,2339.821208035574,Correct,sub_007_day_11_data.csv,1,300,113.0,Training at home,,,,,,,,,,,,,
7,13,2848,A,15.915637657677216,42.2012688087524,0.7957818828838609,0.6628959803087231,A,2284.6570829860866,Correct,sub_007_day_11_data.csv,1,300,113.0,Training at home,,,,,,,,,,,,,
7,13,2849,B,37.86500957613407,17.74144009389174,1.8932504788067035,0.2786818893153685,B,2942.6801670342684,Correct,sub_007_day_11_data.csv,1,300,113.0,Training at home,,,,,,,,,,,,,
7,13,2850,A,30.585792680400733,58.45847652453569,1.5292896340200366,0.9182636019476637,A,687.6068750279956,Correct,sub_007_day_11_data.csv,1,300,114.0,Training at home,,,,,,,,,,,,,
7,13,2851,B,53.43307757121573,36.86853487019317,2.671653878560787,0.5791295914840899,B,1391.7390830465592,Correct,sub_007_day_11_data.csv,1,300,114.0,Training at home,,,,,,,,,,,,,
7,13,2852,B,34.459123148727315,15.48128647070364,1.7229561574363657,0.243179479222408,B,652.8476250241511,Correct,sub_007_day_11_data.csv,1,300,114.0,Training at home,,,,,,,,,,,,,
7,13,2853,B,62.52360384502847,52.785233609974384,3.1261801922514234,0.8291485106355828,B,800.050999969244,Correct,sub_007_day_11_data.csv,1,300,114.0,Training at home,,,,,,,,,,,,,
7,13,2854,B,60.40236343026969,48.76242915554022,3.0201181715134844,0.7659584460311896,B,1422.0043329987675,Correct,sub_007_day_11_data.csv,1,300,114.0,Training at home,,,,,,,,,,,,,
7,13,2855,A,48.73321838824128,78.20198604500256,2.436660919412064,1.228393924275558,A,749.4167489930987,Correct,sub_007_day_11_data.csv,1,300,114.0,Training at home,,,,,,,,,,,,,
7,13,2856,A,55.37317569199617,70.96401048159476,2.768658784599808,1.114700069991236,A,868.4887909912504,Correct,sub_007_day_11_data.csv,1,300,114.0,Training at home,,,,,,,,,,,,,
7,13,2857,A,21.836366900410997,46.63950096551005,1.09181834502055,0.7326115680017022,A,936.8432500050404,Correct,sub_007_day_11_data.csv,1,300,114.0,Training at home,,,,,,,,,,,,,
7,13,2858,B,44.59293647794693,24.62242130627091,2.229646823897346,0.3867680894468673,B,971.582374011632,Correct,sub_007_day_11_data.csv,1,300,114.0,Training at home,,,,,,,,,,,,,
7,13,2859,A,22.49119825843396,52.604369796094666,1.124559912921698,0.826307508490659,A,1124.4017080171034,Correct,sub_007_day_11_data.csv,1,300,114.0,Training at home,,,,,,,,,,,,,
7,13,2860,A,30.57716063663752,55.48317032419956,1.528858031831876,0.8715276014418829,A,617.9099580040202,Correct,sub_007_day_11_data.csv,1,300,114.0,Training at home,,,,,,,,,,,,,
7,13,2861,B,84.55062395474064,59.80600499433585,4.227531197737033,0.9394305296538,B,1103.1059160013683,Correct,sub_007_day_11_data.csv,1,300,114.0,Training at home,,,,,,,,,,,,,
7,13,2862,B,66.262757986075,53.1825550090269,3.3131378993037504,0.8353896205774698,A,1581.1449169996197,Incorrect,sub_007_day_11_data.csv,0,300,114.0,Training at home,,,,,,,,,,,,,
7,13,2863,A,48.999655583541184,58.42374143734493,2.449982779177059,0.917717984473962,B,753.8441240321845,Incorrect,sub_007_day_11_data.csv,0,300,114.0,Training at home,,,,,,,,,,,,,
7,13,2864,A,49.217161700063315,62.31468857868221,2.460858085003166,0.978836839247619,A,911.178208014462,Correct,sub_007_day_11_data.csv,1,300,114.0,Training at home,,,,,,,,,,,,,
7,13,2865,A,32.41000508828903,60.41796282149853,1.6205002544144518,0.9490431407244052,A,627.7917490224354,Correct,sub_007_day_11_data.csv,1,300,114.0,Training at home,,,,,,,,,,,,,
7,13,2866,B,37.244400956730615,12.66918420674928,1.8622200478365307,0.1990070801544968,B,611.2875409889966,Correct,sub_007_day_11_data.csv,1,300,114.0,Training at home,,,,,,,,,,,,,
7,13,2867,A,45.79730820323492,56.03749490598203,2.289865410161746,0.880234911611043,A,2290.827958029695,Correct,sub_007_day_11_data.csv,1,300,114.0,Training at home,,,,,,,,,,,,,
7,13,2868,B,83.70081849147853,57.38214433512622,4.185040924573927,0.9013566154523086,B,699.6191670186818,Correct,sub_007_day_11_data.csv,1,300,114.0,Training at home,,,,,,,,,,,,,
7,13,2869,B,50.60395667505497,23.507400419364178,2.5301978337527484,0.3692533823123406,B,595.6975420122035,Correct,sub_007_day_11_data.csv,1,300,114.0,Training at home,,,,,,,,,,,,,
7,13,2870,B,67.10973054395288,40.79521104551336,3.3554865271976437,0.6408096766111497,B,566.9102080282755,Correct,sub_007_day_11_data.csv,1,300,114.0,Training at home,,,,,,,,,,,,,
7,13,2871,B,72.92815660446448,59.62002486449212,3.646407830223223,0.9365091606056464,B,823.2909999787807,Correct,sub_007_day_11_data.csv,1,300,114.0,Training at home,,,,,,,,,,,,,
7,13,2872,A,29.491168297856717,40.59608920342748,1.474558414892836,0.6376818780298185,A,1030.4104169481434,Correct,sub_007_day_11_data.csv,1,300,114.0,Training at home,,,,,,,,,,,,,
7,13,2873,A,31.99190045839848,41.25799804560777,1.599595022919924,0.6480791178095171,A,1243.3057500165887,Correct,sub_007_day_11_data.csv,1,300,114.0,Training at home,,,,,,,,,,,,,
7,13,2874,B,77.394460999898,62.88251731152853,3.8697230499949,0.9877562721256552,B,590.6687499955297,Correct,sub_007_day_11_data.csv,1,300,114.0,Training at home,,,,,,,,,,,,,
7,13,2875,A,56.50265632666766,85.12306925683353,2.825132816333383,1.337110045141417,A,728.4137080423534,Correct,sub_007_day_11_data.csv,1,300,115.0,Training at home,,,,,,,,,,,,,
7,13,2876,A,44.992845751530744,54.22816333472217,2.2496422875765374,0.8518139977501528,A,1002.7653749566524,Correct,sub_007_day_11_data.csv,1,300,115.0,Training at home,,,,,,,,,,,,,
7,13,2877,A,23.338123643149338,49.22136462528237,1.1669061821574669,0.773167387532258,A,572.951957990881,Correct,sub_007_day_11_data.csv,1,300,115.0,Training at home,,,,,,,,,,,,,
7,13,2878,A,42.77755483472744,61.92769580412861,2.138877741736372,0.9727579709599696,A,770.8293329924345,Correct,sub_007_day_11_data.csv,1,300,115.0,Training at home,,,,,,,,,,,,,
7,13,2879,A,61.43599614747769,70.25296132012137,3.0717998073738846,1.1035309358811058,A,3564.023707993329,Correct,sub_007_day_11_data.csv,1,300,115.0,Training at home,,,,,,,,,,,,,
7,13,2880,A,58.98499935512001,73.25516849573569,2.9492499677560007,1.1506894959184284,A,728.6121659562923,Correct,sub_007_day_11_data.csv,1,300,115.0,Training at home,,,,,,,,,,,,,
7,13,2881,A,38.26110429266083,54.5266131205147,1.9130552146330415,0.8565020360227091,A,737.4345000134781,Correct,sub_007_day_11_data.csv,1,300,115.0,Training at home,,,,,,,,,,,,,
7,13,2882,A,52.29530641213867,75.89930306750854,2.6147653206069332,1.1922234646473504,A,834.818915987853,Correct,sub_007_day_11_data.csv,1,300,115.0,Training at home,,,,,,,,,,,,,
7,13,2883,B,50.87390198545983,33.92566548602712,2.5436950992729916,0.532903107295238,B,888.3747080108151,Correct,sub_007_day_11_data.csv,1,300,115.0,Training at home,,,,,,,,,,,,,
7,13,2884,A,56.28316868458495,78.97021397316054,2.8141584342292476,1.240461220352476,A,699.1174170398153,Correct,sub_007_day_11_data.csv,1,300,115.0,Training at home,,,,,,,,,,,,,
7,13,2885,B,64.1732427394133,44.62629508282237,3.208662136970665,0.7009882039456252,B,647.2229579812847,Correct,sub_007_day_11_data.csv,1,300,115.0,Training at home,,,,,,,,,,,,,
7,13,2886,B,48.1628104386168,31.277827803543396,2.4081405219308403,0.4913109702392925,B,554.5455410028808,Correct,sub_007_day_11_data.csv,1,300,115.0,Training at home,,,,,,,,,,,,,
7,13,2887,A,28.566889210820666,58.08447009930149,1.4283444605410331,0.9123887227581078,A,606.5306660020724,Correct,sub_007_day_11_data.csv,1,300,115.0,Training at home,,,,,,,,,,,,,
7,13,2888,B,33.45246550049048,19.38315210347017,1.6726232750245242,0.3044698412583771,B,556.2160409754142,Correct,sub_007_day_11_data.csv,1,300,115.0,Training at home,,,,,,,,,,,,,
7,13,2889,A,36.81134595312591,58.03676077092549,1.8405672976562957,0.9116393063804392,A,597.9484159615822,Correct,sub_007_day_11_data.csv,1,300,115.0,Training at home,,,,,,,,,,,,,
7,13,2890,B,33.56822074056865,17.27020632421965,1.6784110370284324,0.2712797665707422,B,536.5289579494856,Correct,sub_007_day_11_data.csv,1,300,115.0,Training at home,,,,,,,,,,,,,
7,13,2891,B,55.39259249484584,46.31704935424601,2.769629624742292,0.7275465099362758,A,2331.580708036199,Incorrect,sub_007_day_11_data.csv,0,300,115.0,Training at home,,,,,,,,,,,,,
7,13,2892,A,24.84505675936112,51.90146681716967,1.242252837968056,0.8152663343167734,A,460.3707909700461,Correct,sub_007_day_11_data.csv,1,300,115.0,Training at home,,,,,,,,,,,,,
7,13,2893,B,57.96175079702514,37.46802579123588,2.898087539851257,0.5885463728512977,B,1534.5830000005662,Correct,sub_007_day_11_data.csv,1,300,115.0,Training at home,,,,,,,,,,,,,
7,13,2894,B,41.75074352847767,26.548068298267168,2.0875371764238837,0.417016081664181,B,1539.0839579631574,Correct,sub_007_day_11_data.csv,1,300,115.0,Training at home,,,,,,,,,,,,,
7,13,2895,A,30.193951081009462,42.06858735982442,1.5096975540504731,0.6608118249826241,A,2082.4611239950173,Correct,sub_007_day_11_data.csv,1,300,115.0,Training at home,,,,,,,,,,,,,
7,13,2896,A,60.41806269360848,78.04439707154789,3.020903134680424,1.225918522469098,A,795.195083017461,Correct,sub_007_day_11_data.csv,1,300,115.0,Training at home,,,,,,,,,,,,,
7,13,2897,A,68.29698702382721,86.22836575423729,3.4148493511913607,1.3544720019228278,A,1628.7074579740874,Correct,sub_007_day_11_data.csv,1,300,115.0,Training at home,,,,,,,,,,,,,
7,13,2898,A,64.44124299814503,84.71326544286865,3.2220621499072513,1.330672861884591,A,823.7550829653628,Correct,sub_007_day_11_data.csv,1,300,115.0,Training at home,,,,,,,,,,,,,
7,13,2899,A,21.25859758861884,36.65610363681775,1.062929879430942,0.5757927294732635,A,617.233041964937,Correct,sub_007_day_11_data.csv,1,300,115.0,Training at home,,,,,,,,,,,,,
7,13,2900,B,60.61060888602023,33.607843373704654,3.0305304443010117,0.5279107692291347,B,941.4773750468156,Correct,sub_007_day_11_data.csv,1,300,116.0,Training at home,,,,,,,,,,,,,
7,13,2901,B,44.136486992572486,17.524254954472053,2.2068243496286244,0.2752703531230197,B,762.9908329690807,Correct,sub_007_day_11_data.csv,1,300,116.0,Training at home,,,,,,,,,,,,,
7,13,2902,B,72.86166594984847,42.30105142607298,3.643083297492424,0.6644633619963746,B,2310.691750026308,Correct,sub_007_day_11_data.csv,1,300,116.0,Training at home,,,,,,,,,,,,,
7,13,2903,A,45.619707756442544,63.56325195368571,2.280985387822127,0.9984492268798804,A,1687.591333000455,Correct,sub_007_day_11_data.csv,1,300,116.0,Training at home,,,,,,,,,,,,,
7,13,2904,A,35.90862744832948,44.74250782339548,1.795431372416474,0.7028136694058154,A,1109.7069160314277,Correct,sub_007_day_11_data.csv,1,300,116.0,Training at home,,,,,,,,,,,,,
7,13,2905,B,45.49058271415973,16.21810639459951,2.2745291357079864,0.2547534195220573,B,1238.473249017261,Correct,sub_007_day_11_data.csv,1,300,116.0,Training at home,,,,,,,,,,,,,
7,13,2906,A,35.31288239358611,44.59914824894753,1.7656441196793051,0.7005617824762782,A,549.2960409610532,Correct,sub_007_day_11_data.csv,1,300,116.0,Training at home,,,,,,,,,,,,,
7,13,2907,B,77.24429203702313,53.50408647671605,3.862214601851156,0.8404402250614208,B,754.6378750121221,Correct,sub_007_day_11_data.csv,1,300,116.0,Training at home,,,,,,,,,,,,,
7,13,2908,B,74.62242530638736,55.03417276454552,3.731121265319368,0.8644747642674383,B,1081.0042489902116,Correct,sub_007_day_11_data.csv,1,300,116.0,Training at home,,,,,,,,,,,,,
7,13,2909,A,34.95327654550742,56.45315497608141,1.7476638272753713,0.8867640847241172,A,1910.675041959621,Correct,sub_007_day_11_data.csv,1,300,116.0,Training at home,,,,,,,,,,,,,
7,13,2910,A,41.32886725581334,55.252025873541086,2.0664433627906673,0.8678967929013494,A,587.657249008771,Correct,sub_007_day_11_data.csv,1,300,116.0,Training at home,,,,,,,,,,,,,
7,13,2911,B,49.79871721751746,20.86884757577905,2.4899358608758733,0.3278070911647631,B,489.6237500361167,Correct,sub_007_day_11_data.csv,1,300,116.0,Training at home,,,,,,,,,,,,,
7,13,2912,B,63.3243330422551,36.3666241820841,3.1662166521127553,0.5712455968314817,B,799.0785830188543,Correct,sub_007_day_11_data.csv,1,300,116.0,Training at home,,,,,,,,,,,,,
7,13,2913,A,47.381608509389096,72.63059500568056,2.369080425469454,1.1408787184785076,A,752.0037080394104,Correct,sub_007_day_11_data.csv,1,300,116.0,Training at home,,,,,,,,,,,,,
7,13,2914,A,30.38450681142028,42.2177737586705,1.519225340571014,0.663155239455776,A,907.6825830270536,Correct,sub_007_day_11_data.csv,1,300,116.0,Training at home,,,,,,,,,,,,,
7,13,2915,B,50.52620399763813,41.756890066359176,2.526310199881906,0.6559156953461529,A,2051.4638750464655,Incorrect,sub_007_day_11_data.csv,0,300,116.0,Training at home,,,,,,,,,,,,,
7,13,2916,B,76.31954186603616,65.364780898276,3.815977093301808,1.0267475773676515,B,1202.0567909930833,Correct,sub_007_day_11_data.csv,1,300,116.0,Training at home,,,,,,,,,,,,,
7,13,2917,A,45.07451400271282,52.75564352798217,2.2537257001356408,0.8286837107145535,A,1673.508749983739,Correct,sub_007_day_11_data.csv,1,300,116.0,Training at home,,,,,,,,,,,,,
7,13,2918,B,47.09485944502791,22.82093770519888,2.3547429722513953,0.3584704512134156,B,675.6897910381667,Correct,sub_007_day_11_data.csv,1,300,116.0,Training at home,,,,,,,,,,,,,
7,13,2919,B,78.36621597088127,49.5449004381112,3.918310798544064,0.7782494761960393,B,662.3679159674793,Correct,sub_007_day_11_data.csv,1,300,116.0,Training at home,,,,,,,,,,,,,
7,13,2920,B,81.16994755460627,64.3571478812379,4.058497377730314,1.0109197149484446,B,1023.2419579988346,Correct,sub_007_day_11_data.csv,1,300,116.0,Training at home,,,,,,,,,,,,,
7,13,2921,A,11.537526465522888,33.688596536981926,0.5768763232761444,0.5291792369516648,A,802.6669159880839,Correct,sub_007_day_11_data.csv,1,300,116.0,Training at home,,,,,,,,,,,,,
7,13,2922,B,34.8982898067283,16.591984276557255,1.744914490336415,0.2606262795585481,B,664.9911670247093,Correct,sub_007_day_11_data.csv,1,300,116.0,Training at home,,,,,,,,,,,,,
7,13,2923,B,62.59275778911512,33.86596309226904,3.129637889455756,0.5319653042870776,B,1043.7871660105884,Correct,sub_007_day_11_data.csv,1,300,116.0,Training at home,,,,,,,,,,,,,
7,13,2924,B,49.8146753810766,34.47962151367128,2.49073376905383,0.5416046282295315,B,2013.4265830274671,Correct,sub_007_day_11_data.csv,1,300,116.0,Training at home,,,,,,,,,,,,,
7,13,2925,A,30.010314416476277,47.539791354896806,1.5005157208238138,0.7467532963686769,A,831.4853750052862,Correct,sub_007_day_11_data.csv,1,300,117.0,Training at home,,,,,,,,,,,,,
7,13,2926,A,23.022445709738538,43.195082588764365,1.1511222854869267,0.6785067706603325,A,1159.356998978183,Correct,sub_007_day_11_data.csv,1,300,117.0,Training at home,,,,,,,,,,,,,
7,13,2927,B,73.55043736297648,42.35402055340653,3.677521868148824,0.6652953991028653,B,925.5687079858036,Correct,sub_007_day_11_data.csv,1,300,117.0,Training at home,,,,,,,,,,,,,
7,13,2928,A,48.649636558038935,73.56881238349823,2.4324818279019467,1.155616202586619,A,1042.432041023858,Correct,sub_007_day_11_data.csv,1,300,117.0,Training at home,,,,,,,,,,,,,
7,13,2929,B,53.07296240956384,35.26042865780143,2.6536481204781923,0.5538695181688799,B,787.5141249969602,Correct,sub_007_day_11_data.csv,1,300,117.0,Training at home,,,,,,,,,,,,,
7,13,2930,A,50.779889955992914,73.19734747509514,2.5389944977996457,1.1497812454500915,A,1937.2497909935191,Correct,sub_007_day_11_data.csv,1,300,117.0,Training at home,,,,,,,,,,,,,
7,13,2931,B,62.928095768234265,50.47190438999408,3.1464047884117132,0.7928108202214591,B,1713.8908329652622,Correct,sub_007_day_11_data.csv,1,300,117.0,Training at home,,,,,,,,,,,,,
7,13,2932,B,36.47032861783818,21.83354724655061,1.8235164308919087,0.3429605581578452,B,1107.1416669874452,Correct,sub_007_day_11_data.csv,1,300,117.0,Training at home,,,,,,,,,,,,,
7,13,2933,B,67.77765769919043,52.75023778069135,3.388882884959521,0.8285987974346736,B,1178.5434989724308,Correct,sub_007_day_11_data.csv,1,300,117.0,Training at home,,,,,,,,,,,,,
7,13,2934,B,48.33978368051099,30.45646695651196,2.4169891840255495,0.4784090642243913,B,1069.6681669796817,Correct,sub_007_day_11_data.csv,1,300,117.0,Training at home,,,,,,,,,,,,,
7,13,2935,A,18.89260541201184,48.675601076844735,0.944630270600592,0.7645945537604143,A,556.6625419887714,Correct,sub_007_day_11_data.csv,1,300,117.0,Training at home,,,,,,,,,,,,,
7,13,2936,A,26.129852887482823,52.30720782890769,1.3064926443741414,0.8216396992254547,A,1248.3014999888835,Correct,sub_007_day_11_data.csv,1,300,117.0,Training at home,,,,,,,,,,,,,
7,13,2937,B,49.080347081606774,37.68524030438166,2.4540173540803387,0.591958370445057,B,741.1404990125448,Correct,sub_007_day_11_data.csv,1,300,117.0,Training at home,,,,,,,,,,,,,
7,13,2938,A,25.072629908650967,48.72475162449399,1.2536314954325485,0.7653666087574883,A,1027.9617920168675,Correct,sub_007_day_11_data.csv,1,300,117.0,Training at home,,,,,,,,,,,,,
7,13,2939,B,47.26520852545757,32.79475321613561,2.3632604262728787,0.5151387789005094,B,842.3132500029169,Correct,sub_007_day_11_data.csv,1,300,117.0,Training at home,,,,,,,,,,,,,
7,13,2940,A,43.54475641844186,60.51333179328908,2.177237820922093,0.9505411930301932,A,3006.704957981128,Correct,sub_007_day_11_data.csv,1,300,117.0,Training at home,,,,,,,,,,,,,
7,13,2941,A,58.35177867266568,78.18077288758714,2.9175889336332843,1.228060708778079,B,757.3494579992257,Incorrect,sub_007_day_11_data.csv,0,300,117.0,Training at home,,,,,,,,,,,,,
7,13,2942,A,47.12750276184325,76.9491328714797,2.356375138092163,1.2087141526457277,A,1497.6989999995567,Correct,sub_007_day_11_data.csv,1,300,117.0,Training at home,,,,,,,,,,,,,
7,13,2943,A,42.283447515489215,51.264177938427224,2.114172375774461,0.8052558240184146,B,779.555041983258,Incorrect,sub_007_day_11_data.csv,0,300,117.0,Training at home,,,,,,,,,,,,,
7,13,2944,A,40.67953770097662,58.170703150398346,2.033976885048831,0.9137432683572204,A,2454.157748958096,Correct,sub_007_day_11_data.csv,1,300,117.0,Training at home,,,,,,,,,,,,,
7,13,2945,A,50.82594645703176,79.90021531278184,2.5412973228515883,1.2550696472343907,A,1013.8707080041058,Correct,sub_007_day_11_data.csv,1,300,117.0,Training at home,,,,,,,,,,,,,
7,13,2946,A,60.21323087919109,82.21617718090778,3.0106615439595545,1.2914486911888832,B,1436.9350830093026,Incorrect,sub_007_day_11_data.csv,0,300,117.0,Training at home,,,,,,,,,,,,,
7,13,2947,A,33.079894240862544,51.71255484666301,1.653994712043127,0.8122989120231788,A,2257.411708007566,Correct,sub_007_day_11_data.csv,1,300,117.0,Training at home,,,,,,,,,,,,,
7,13,2948,A,32.98270739259091,62.132418709672734,1.6491353696295454,0.9759737508403644,A,918.2077500154264,Correct,sub_007_day_11_data.csv,1,300,117.0,Training at home,,,,,,,,,,,,,
7,13,2949,A,44.836061410035875,60.622125286908954,2.2418030705017937,0.952250117231766,B,2644.5147920167074,Incorrect,sub_007_day_11_data.csv,0,300,117.0,Training at home,,,,,,,,,,,,,
7,13,2950,B,61.74070540244262,34.11649229929395,3.087035270122131,0.5359006078685732,B,1276.1755409883335,Correct,sub_007_day_11_data.csv,1,300,118.0,Training at home,,,,,,,,,,,,,
7,13,2951,B,56.20052972469111,31.31362060151112,2.810026486234556,0.4918732021950266,B,954.7380000003614,Correct,sub_007_day_11_data.csv,1,300,118.0,Training at home,,,,,,,,,,,,,
7,13,2952,A,19.547250411848083,50.016971380737566,0.977362520592404,0.7856647492226804,A,506.3967080204747,Correct,sub_007_day_11_data.csv,1,300,118.0,Training at home,,,,,,,,,,,,,
7,13,2953,B,61.99071611623291,47.26024933789417,3.0995358058116453,0.7423622606337511,B,1866.0540830460377,Correct,sub_007_day_11_data.csv,1,300,118.0,Training at home,,,,,,,,,,,,,
7,13,2954,B,30.74610942897214,11.622449558041392,1.5373054714486072,0.1825650107413038,B,648.062166001182,Correct,sub_007_day_11_data.csv,1,300,118.0,Training at home,,,,,,,,,,,,,
7,13,2955,B,56.84077015217989,30.29162804217526,2.8420385076089945,0.4758197806128618,B,844.7749990154989,Correct,sub_007_day_11_data.csv,1,300,118.0,Training at home,,,,,,,,,,,,,
7,13,2956,B,42.99552150128278,19.427216159570065,2.149776075064139,0.3051619978330312,B,540.4488740023226,Correct,sub_007_day_11_data.csv,1,300,118.0,Training at home,,,,,,,,,,,,,
7,13,2957,A,25.881145733596153,47.493392625481555,1.2940572866798077,0.7460244668313425,A,901.2629989883862,Correct,sub_007_day_11_data.csv,1,300,118.0,Training at home,,,,,,,,,,,,,
7,13,2958,B,42.244161992070886,25.48198566198296,2.112208099603544,0.4002700947728306,B,828.9824579842389,Correct,sub_007_day_11_data.csv,1,300,118.0,Training at home,,,,,,,,,,,,,
7,13,2959,B,37.25806713229101,23.588788881944172,1.8629033566145503,0.370531829292982,B,756.9007080164738,Correct,sub_007_day_11_data.csv,1,300,118.0,Training at home,,,,,,,,,,,,,
7,13,2960,B,73.33845732919406,46.704959061293415,3.6669228664597022,0.7336397813658573,B,930.8955000014976,Correct,sub_007_day_11_data.csv,1,300,118.0,Training at home,,,,,,,,,,,,,
7,13,2961,A,35.27706229732036,52.654403191823235,1.763853114866018,0.8270934312329342,A,841.8939579860307,Correct,sub_007_day_11_data.csv,1,300,118.0,Training at home,,,,,,,,,,,,,
7,13,2962,A,51.30831336712954,75.59968133935972,2.565415668356477,1.187517017547309,A,688.1167909596115,Correct,sub_007_day_11_data.csv,1,300,118.0,Training at home,,,,,,,,,,,,,
7,13,2963,B,69.55143949730127,55.37070829848684,3.4775719748650635,0.8697610520729482,B,1488.963000010699,Correct,sub_007_day_11_data.csv,1,300,118.0,Training at home,,,,,,,,,,,,,
7,13,2964,A,38.90237605288498,50.292682872585225,1.9451188026442492,0.7899956152091747,A,767.8315829834901,Correct,sub_007_day_11_data.csv,1,300,118.0,Training at home,,,,,,,,,,,,,
7,13,2965,A,31.673784119266053,63.844626728039024,1.5836892059633028,1.0028690514999496,A,820.4234580043703,Correct,sub_007_day_11_data.csv,1,300,118.0,Training at home,,,,,,,,,,,,,
7,13,2966,B,54.72335485829027,40.88058362423471,2.7361677429145135,0.6421507059417947,B,983.1427080207504,Correct,sub_007_day_11_data.csv,1,300,118.0,Training at home,,,,,,,,,,,,,
7,13,2967,B,42.45319879042696,18.07465884057954,2.122659939521348,0.2839160771485324,B,695.138166018296,Correct,sub_007_day_11_data.csv,1,300,118.0,Training at home,,,,,,,,,,,,,
7,13,2968,A,65.72764295313199,85.49229938694441,3.2863821476565995,1.3429098984626189,A,774.5422080042772,Correct,sub_007_day_11_data.csv,1,300,118.0,Training at home,,,,,,,,,,,,,
7,13,2969,B,57.23110281487889,38.269900854827306,2.861555140743944,0.6011421968956762,B,738.8417499605566,Correct,sub_007_day_11_data.csv,1,300,118.0,Training at home,,,,,,,,,,,,,
7,13,2970,A,39.663577354155706,71.04842876993928,1.9831788677077853,1.1160261093636947,A,738.818124984391,Correct,sub_007_day_11_data.csv,1,300,118.0,Training at home,,,,,,,,,,,,,
7,13,2971,A,68.36937417296967,85.23664452788589,3.4184687086484837,1.3388940813272543,A,866.4738329825923,Correct,sub_007_day_11_data.csv,1,300,118.0,Training at home,,,,,,,,,,,,,
7,13,2972,A,34.766791189136605,52.7825383787704,1.73833955945683,0.829106174042832,A,1020.1954579679297,Correct,sub_007_day_11_data.csv,1,300,118.0,Training at home,,,,,,,,,,,,,
7,13,2973,A,63.34206688274621,76.18371796359035,3.16710334413731,1.1966910433878613,A,691.0177490208298,Correct,sub_007_day_11_data.csv,1,300,118.0,Training at home,,,,,,,,,,,,,
7,13,2974,B,54.050917097794965,42.07540571441387,2.7025458548897485,0.6609189274460631,A,1602.1822079783306,Incorrect,sub_007_day_11_data.csv,0,300,118.0,Training at home,,,,,,,,,,,,,
7,13,2975,B,31.21405506659422,17.176063284710256,1.560702753329711,0.2698009711641956,B,653.6384999635629,Correct,sub_007_day_11_data.csv,1,300,119.0,Training at home,,,,,,,,,,,,,
7,13,2976,A,58.59972245538056,66.72027736544311,2.9299861227690283,1.0480396660837472,A,1774.8697489732876,Correct,sub_007_day_11_data.csv,1,300,119.0,Training at home,,,,,,,,,,,,,
7,13,2977,A,22.334137577404,51.403683134492795,1.1167068788702,0.8074471665139006,A,578.24616599828,Correct,sub_007_day_11_data.csv,1,300,119.0,Training at home,,,,,,,,,,,,,
7,13,2978,A,31.792135785688657,58.74525857750659,1.5896067892844326,0.9227683639016376,A,657.6137489755638,Correct,sub_007_day_11_data.csv,1,300,119.0,Training at home,,,,,,,,,,,,,
7,13,2979,B,34.19019439159677,13.18703891660434,1.7095097195798383,0.2071415229150345,B,573.4583740122616,Correct,sub_007_day_11_data.csv,1,300,119.0,Training at home,,,,,,,,,,,,,
7,13,2980,B,84.03370573926495,58.87895936687927,4.201685286963247,0.9248685309899992,B,638.8857910060324,Correct,sub_007_day_11_data.csv,1,300,119.0,Training at home,,,,,,,,,,,,,
7,13,2981,B,32.356238036901395,13.26901083482269,1.6178119018450698,0.2084291347954116,B,660.4436669731513,Correct,sub_007_day_11_data.csv,1,300,119.0,Training at home,,,,,,,,,,,,,
7,13,2982,B,80.33813612704844,56.280718876752815,4.016906806352422,0.8840554648097951,B,1349.7470829752274,Correct,sub_007_day_11_data.csv,1,300,119.0,Training at home,,,,,,,,,,,,,
7,13,2983,B,37.97628523399803,21.307782014468412,1.8988142616999013,0.3347018572047334,B,628.0265409732237,Correct,sub_007_day_11_data.csv,1,300,119.0,Training at home,,,,,,,,,,,,,
7,13,2984,A,49.633670479825085,73.45400637453194,2.4816835239912542,1.153812834014837,A,650.3568749758415,Correct,sub_007_day_11_data.csv,1,300,119.0,Training at home,,,,,,,,,,,,,
7,13,2985,A,22.36970386104293,48.08032334195446,1.1184851930521464,0.7552439529665299,A,525.0647910288535,Correct,sub_007_day_11_data.csv,1,300,119.0,Training at home,,,,,,,,,,,,,
7,13,2986,A,12.201774908369064,37.76575350722982,0.6100887454184531,0.5932230688779808,A,534.2947079916485,Correct,sub_007_day_11_data.csv,1,300,119.0,Training at home,,,,,,,,,,,,,
7,13,2987,B,70.06802272094272,38.727839301786055,3.5034011360471364,0.6083354771994857,B,1085.589791997336,Correct,sub_007_day_11_data.csv,1,300,119.0,Training at home,,,,,,,,,,,,,
7,13,2988,B,45.66480487140539,31.652980846826697,2.2832402435702694,0.4972038604630457,B,789.3730409559794,Correct,sub_007_day_11_data.csv,1,300,119.0,Training at home,,,,,,,,,,,,,
7,13,2989,B,78.8590048022481,47.39934658225927,3.942950240112405,0.7445471950389109,B,617.3313329927623,Correct,sub_007_day_11_data.csv,1,300,119.0,Training at home,,,,,,,,,,,,,
7,13,2990,B,75.83012998039986,58.06478635855275,3.791506499019994,0.9120795312814508,B,751.078833010979,Correct,sub_007_day_11_data.csv,1,300,119.0,Training at home,,,,,,,,,,,,,
7,13,2991,A,32.076578310749376,64.61191372195128,1.6038289155374688,1.0149215674162984,A,1192.958666011691,Correct,sub_007_day_11_data.csv,1,300,119.0,Training at home,,,,,,,,,,,,,
7,13,2992,B,69.25084869654988,58.498713349338416,3.462542434827494,0.9188956405136836,B,863.4283739957027,Correct,sub_007_day_11_data.csv,1,300,119.0,Training at home,,,,,,,,,,,,,
7,13,2993,B,86.58607205967657,64.97114514074411,4.3293036029838285,1.0205643613473894,B,586.8702079751529,Correct,sub_007_day_11_data.csv,1,300,119.0,Training at home,,,,,,,,,,,,,
7,13,2994,A,51.757157119375336,62.608715416014846,2.5878578559687666,0.9834554020082314,A,1875.9270830196328,Correct,sub_007_day_11_data.csv,1,300,119.0,Training at home,,,,,,,,,,,,,
7,13,2995,B,41.14921716604391,16.16308999378744,2.0574608583021954,0.2538892239189666,B,589.3420409993269,Correct,sub_007_day_11_data.csv,1,300,119.0,Training at home,,,,,,,,,,,,,
7,13,2996,A,41.95595137137022,66.20877072575786,2.097797568568511,1.040004938576259,A,1189.0104160411283,Correct,sub_007_day_11_data.csv,1,300,119.0,Training at home,,,,,,,,,,,,,
7,13,2997,B,46.522032716648646,23.580858551668907,2.3261016358324325,0.3704072599563154,B,672.3253329982981,Correct,sub_007_day_11_data.csv,1,300,119.0,Training at home,,,,,,,,,,,,,
7,13,2998,B,54.76087861875757,40.94667650118262,2.738043930937879,0.6431888904251657,A,1571.3261250057258,Incorrect,sub_007_day_11_data.csv,0,300,119.0,Training at home,,,,,,,,,,,,,
7,13,2999,A,35.62748139126553,57.73831694039888,1.7813740695632765,0.906951361652981,A,978.3699989784508,Correct,sub_007_day_11_data.csv,1,300,119.0,Training at home,,,,,,,,,,,,,
