subject,day,trial,cat,x,y,xt,yt,resp,rt,fb,f_name,acc,n_trials,block,session_type,ns_left_digit,ns_right_digit,ns_left_size,ns_right_size,ns_congruent,ns_cue,ns_correct_side,ns_resp,ns_rt,ns_fb,acc_stroop,acc_stroop_mean,resp_key
7,24,600,B,45.575369295665034,29.15330994578066,2.278768464783252,0.4579391217674539,B,2343.6362920328975,Correct,sub_007_day_24_data.csv,1,600,,Button-Switch at home,,,,,,,,,,,,,d
7,24,601,B,45.97306445317392,16.646938509015673,2.298653222658696,0.2614894986234233,B,712.9885419271886,Correct,sub_007_day_24_data.csv,1,600,,Button-Switch at home,,,,,,,,,,,,,d
7,24,602,A,57.517998775118045,77.03148213315441,2.875899938755902,1.2100076918232563,A,662.1799169806764,Correct,sub_007_day_24_data.csv,1,600,,Button-Switch at home,,,,,,,,,,,,,k
7,24,603,B,78.18311233253472,52.897801109983746,3.909155616626736,0.8309167167908948,B,1582.1323749842122,Correct,sub_007_day_24_data.csv,1,600,,Button-Switch at home,,,,,,,,,,,,,d
7,24,604,B,34.55446216545623,12.799290682539713,1.7277231082728115,0.2010507878971352,B,993.563084048219,Correct,sub_007_day_24_data.csv,1,600,,Button-Switch at home,,,,,,,,,,,,,d
7,24,605,B,39.39491473687616,12.160032948051992,1.969745736843808,0.1910093508850498,B,1395.7965419394895,Correct,sub_007_day_24_data.csv,1,600,,Button-Switch at home,,,,,,,,,,,,,d
7,24,606,B,42.24320883510828,15.182091897446732,2.112160441755414,0.2384797418557189,B,598.3553329715505,Correct,sub_007_day_24_data.csv,1,600,,Button-Switch at home,,,,,,,,,,,,,d
7,24,607,A,43.522519600168174,69.02271313743917,2.176125980008409,1.0842062426170729,A,980.3025419823824,Correct,sub_007_day_24_data.csv,1,600,,Button-Switch at home,,,,,,,,,,,,,k
7,24,608,A,45.73107147980235,52.81278009592244,2.2865535739901177,0.829581209825016,A,1157.03283296898,Correct,sub_007_day_24_data.csv,1,600,,Button-Switch at home,,,,,,,,,,,,,k
7,24,609,B,68.02472695661172,56.17657681626495,3.401236347830586,0.8824196051490033,B,2063.341874978505,Correct,sub_007_day_24_data.csv,1,600,,Button-Switch at home,,,,,,,,,,,,,d
7,24,610,B,45.20096049577798,15.334549837483362,2.2600480247888988,0.2408745455777214,B,698.996250052005,Correct,sub_007_day_24_data.csv,1,600,,Button-Switch at home,,,,,,,,,,,,,d
7,24,611,A,24.19609206507675,46.49525542296645,1.2098046032538377,0.7303457643178619,A,1658.9478749083355,Correct,sub_007_day_24_data.csv,1,600,,Button-Switch at home,,,,,,,,,,,,,k
7,24,612,B,54.21422303761823,26.819818711145228,2.7107111518809113,0.4212847271677196,B,1480.4572920547798,Correct,sub_007_day_24_data.csv,1,600,,Button-Switch at home,,,,,,,,,,,,,d
7,24,613,A,26.283681749922607,37.18741328624672,1.3141840874961304,0.5841385219304007,A,1401.6936670523137,Correct,sub_007_day_24_data.csv,1,600,,Button-Switch at home,,,,,,,,,,,,,k
7,24,614,A,67.61183331547414,85.12934775948051,3.380591665773707,1.3372086676303734,A,1179.8720420338211,Correct,sub_007_day_24_data.csv,1,600,,Button-Switch at home,,,,,,,,,,,,,k
7,24,615,B,42.21230087125844,15.750940777343873,2.110615043562922,0.247415199166157,B,880.4384589893743,Correct,sub_007_day_24_data.csv,1,600,,Button-Switch at home,,,,,,,,,,,,,d
7,24,616,B,57.45666040766939,32.06063731518495,2.8728330203834695,0.503607313293959,B,1807.0270409807565,Correct,sub_007_day_24_data.csv,1,600,,Button-Switch at home,,,,,,,,,,,,,d
7,24,617,B,75.56168659676729,53.577508958871526,3.778084329838365,0.8415935427141606,B,1517.7802089601755,Correct,sub_007_day_24_data.csv,1,600,,Button-Switch at home,,,,,,,,,,,,,d
7,24,618,B,73.99833189162324,63.40816047256262,3.699916594581162,0.9960130555912272,B,1119.2291249753907,Correct,sub_007_day_24_data.csv,1,600,,Button-Switch at home,,,,,,,,,,,,,d
7,24,619,A,52.28985998694463,69.02814901968785,2.614492999347231,1.084291629255764,A,953.4117500297724,Correct,sub_007_day_24_data.csv,1,600,,Button-Switch at home,,,,,,,,,,,,,k
7,24,620,A,14.234334139703094,42.91874743571587,0.7117167069851547,0.6741661082266037,A,2764.6626660134643,Correct,sub_007_day_24_data.csv,1,600,,Button-Switch at home,,,,,,,,,,,,,k
7,24,621,A,37.58259014751276,67.0337386851169,1.879129507375638,1.052963504979106,A,1127.0900829695163,Correct,sub_007_day_24_data.csv,1,600,,Button-Switch at home,,,,,,,,,,,,,k
7,24,622,A,42.74183152843563,74.03147635109195,2.1370915764217817,1.162883711194985,A,836.2461249344051,Correct,sub_007_day_24_data.csv,1,600,,Button-Switch at home,,,,,,,,,,,,,k
7,24,623,A,29.783963401416027,41.13319405241999,1.4891981700708012,0.6461187012688301,A,1186.6218339418992,Correct,sub_007_day_24_data.csv,1,600,,Button-Switch at home,,,,,,,,,,,,,k
7,24,624,B,61.94776035650827,53.034614818932184,3.0973880178254136,0.8330657815056087,B,1460.5007499922067,Correct,sub_007_day_24_data.csv,1,600,,Button-Switch at home,,,,,,,,,,,,,d
7,24,625,B,79.64016175131567,63.35180638886965,3.982008087565783,0.9951278477145792,B,1077.9511670116335,Correct,sub_007_day_24_data.csv,1,600,,Button-Switch at home,,,,,,,,,,,,,d
7,24,626,B,39.93089379897735,17.225623159301982,1.9965446899488677,0.2705794558538466,B,722.4163329228759,Correct,sub_007_day_24_data.csv,1,600,,Button-Switch at home,,,,,,,,,,,,,d
7,24,627,A,15.44682989530591,43.074178011486666,0.7723414947652956,0.6766076060015276,A,656.9974580779672,Correct,sub_007_day_24_data.csv,1,600,,Button-Switch at home,,,,,,,,,,,,,k
7,24,628,A,16.489377152196933,37.7328844623704,0.8244688576098467,0.5927067631286765,A,2362.4332500621676,Correct,sub_007_day_24_data.csv,1,600,,Button-Switch at home,,,,,,,,,,,,,k
7,24,629,B,81.93274973446964,54.540573818239345,4.096637486723482,0.8567213301497628,B,831.3227499602363,Correct,sub_007_day_24_data.csv,1,600,,Button-Switch at home,,,,,,,,,,,,,d
7,24,630,B,46.3785364686126,37.25539567616504,2.31892682343063,0.5852063868141052,A,986.9631250621752,Incorrect,sub_007_day_24_data.csv,0,600,,Button-Switch at home,,,,,,,,,,,,,k
7,24,631,B,83.59387810538756,62.729880141706545,4.179693905269378,0.9853586530687676,B,782.5644160620868,Correct,sub_007_day_24_data.csv,1,600,,Button-Switch at home,,,,,,,,,,,,,d
7,24,632,A,37.67430338571403,51.11197052382285,1.8837151692857017,0.8028649555406996,A,1108.7632500566542,Correct,sub_007_day_24_data.csv,1,600,,Button-Switch at home,,,,,,,,,,,,,k
7,24,633,A,64.71930957052521,83.25168720432694,3.23596547852626,1.3077144446003446,A,1131.2822080217302,Correct,sub_007_day_24_data.csv,1,600,,Button-Switch at home,,,,,,,,,,,,,k
7,24,634,A,62.878759136154954,84.6423288109568,3.1439379568077475,1.3295585918761677,A,1043.903541052714,Correct,sub_007_day_24_data.csv,1,600,,Button-Switch at home,,,,,,,,,,,,,k
7,24,635,A,61.19785624167887,75.95150774512202,3.0598928120839433,1.193043493805718,A,771.095540956594,Correct,sub_007_day_24_data.csv,1,600,,Button-Switch at home,,,,,,,,,,,,,k
7,24,636,A,38.40205031369224,61.601376249292855,1.9201025156846123,0.967632155378996,A,793.5509160161018,Correct,sub_007_day_24_data.csv,1,600,,Button-Switch at home,,,,,,,,,,,,,k
7,24,637,A,36.33520604560387,44.60787857452557,1.816760302280194,0.7006989181097751,B,3590.1691659819335,Incorrect,sub_007_day_24_data.csv,0,600,,Button-Switch at home,,,,,,,,,,,,,d
7,24,638,A,18.12169214566732,33.89434191140066,0.9060846072833658,0.5324110777355847,A,671.1917499778792,Correct,sub_007_day_24_data.csv,1,600,,Button-Switch at home,,,,,,,,,,,,,k
7,24,639,A,60.8898314369693,80.18609946307518,3.0444915718484653,1.259560304966087,A,1070.615665987134,Correct,sub_007_day_24_data.csv,1,600,,Button-Switch at home,,,,,,,,,,,,,k
7,24,640,B,79.15658864890366,59.42355894712554,3.957829432445183,0.933423081192248,B,3374.7102909255773,Correct,sub_007_day_24_data.csv,1,600,,Button-Switch at home,,,,,,,,,,,,,d
7,24,641,B,45.180492040531576,29.66478101086225,2.259024602026579,0.4659732904703742,B,1465.3409579768777,Correct,sub_007_day_24_data.csv,1,600,,Button-Switch at home,,,,,,,,,,,,,d
7,24,642,A,60.602982290451486,79.76720697989073,3.0301491145225743,1.2529803572270062,A,699.476582929492,Correct,sub_007_day_24_data.csv,1,600,,Button-Switch at home,,,,,,,,,,,,,k
7,24,643,B,73.55678052914234,51.38547132691234,3.677839026457117,0.8071610961093837,B,1036.4924159366635,Correct,sub_007_day_24_data.csv,1,600,,Button-Switch at home,,,,,,,,,,,,,d
7,24,644,A,44.18577486988961,68.6165212278187,2.209288743494481,1.0778257950210164,A,844.2193330265582,Correct,sub_007_day_24_data.csv,1,600,,Button-Switch at home,,,,,,,,,,,,,k
7,24,645,B,76.40052884171047,48.223559584358846,3.820026442085523,0.7574939026008569,B,888.016915996559,Correct,sub_007_day_24_data.csv,1,600,,Button-Switch at home,,,,,,,,,,,,,d
7,24,646,A,40.440991736490545,67.74835229730978,2.0220495868245276,1.064188629350208,A,1068.6156249139458,Correct,sub_007_day_24_data.csv,1,600,,Button-Switch at home,,,,,,,,,,,,,k
7,24,647,B,80.56365867028853,59.11908760239138,4.028182933514427,0.928640456493021,B,939.3080830341204,Correct,sub_007_day_24_data.csv,1,600,,Button-Switch at home,,,,,,,,,,,,,d
7,24,648,A,39.03030320426273,69.24761526831546,1.9515151602131369,1.0877389970277611,A,911.0896249767392,Correct,sub_007_day_24_data.csv,1,600,,Button-Switch at home,,,,,,,,,,,,,k
7,24,649,B,77.64398437373113,59.12235272778776,3.882199218686557,0.9286917449628124,B,675.7490419549868,Correct,sub_007_day_24_data.csv,1,600,,Button-Switch at home,,,,,,,,,,,,,d
7,24,650,A,25.32446491674178,58.17933972424626,1.2662232458370888,0.9138789313419844,A,740.3837079182267,Correct,sub_007_day_24_data.csv,1,600,,Button-Switch at home,,,,,,,,,,,,,k
7,24,651,A,20.56428631389347,45.3700389710569,1.0282143156946733,0.7126709056227748,A,617.6834580255672,Correct,sub_007_day_24_data.csv,1,600,,Button-Switch at home,,,,,,,,,,,,,k
7,24,652,B,36.770301136878594,17.77823642078916,1.8385150568439297,0.2792598846666686,B,788.243459071964,Correct,sub_007_day_24_data.csv,1,600,,Button-Switch at home,,,,,,,,,,,,,d
7,24,653,A,37.641837121798126,45.17390476110844,1.8820918560899065,0.7095900366573161,A,1267.3727090004832,Correct,sub_007_day_24_data.csv,1,600,,Button-Switch at home,,,,,,,,,,,,,k
7,24,654,B,50.64090881351579,20.192722803152808,2.5320454406757897,0.3171865480717998,B,1082.913791993633,Correct,sub_007_day_24_data.csv,1,600,,Button-Switch at home,,,,,,,,,,,,,d
7,24,655,B,37.098018826326594,15.641879077252788,1.8549009413163295,0.2457020619871862,B,794.3533749785274,Correct,sub_007_day_24_data.csv,1,600,,Button-Switch at home,,,,,,,,,,,,,d
7,24,656,B,85.83883280972437,64.73183064463497,4.291941640486218,1.0168052180330194,B,2446.911166072823,Correct,sub_007_day_24_data.csv,1,600,,Button-Switch at home,,,,,,,,,,,,,d
7,24,657,A,45.920157153185826,53.300123540265794,2.296007857659291,0.8372363827476372,B,1072.4459580378607,Incorrect,sub_007_day_24_data.csv,0,600,,Button-Switch at home,,,,,,,,,,,,,d
7,24,658,A,26.56682767213875,38.15402473463068,1.328341383606937,0.599322019055995,A,984.6057910472156,Correct,sub_007_day_24_data.csv,1,600,,Button-Switch at home,,,,,,,,,,,,,k
7,24,659,A,56.438065115475105,71.06603366939108,2.8219032557737553,1.1163026464776191,A,2577.413459075615,Correct,sub_007_day_24_data.csv,1,600,,Button-Switch at home,,,,,,,,,,,,,k
7,24,660,B,74.69515832076323,51.90897828288006,3.734757916038161,0.8153843241442406,B,744.452791986987,Correct,sub_007_day_24_data.csv,1,600,,Button-Switch at home,,,,,,,,,,,,,d
7,24,661,A,56.596056864797994,75.54255606811412,2.8298028432398996,1.186619695884912,A,741.0674999700859,Correct,sub_007_day_24_data.csv,1,600,,Button-Switch at home,,,,,,,,,,,,,k
7,24,662,B,58.88213377742176,51.22404442558142,2.944106688871088,0.8046254082728189,B,810.9920000424609,Correct,sub_007_day_24_data.csv,1,600,,Button-Switch at home,,,,,,,,,,,,,d
7,24,663,B,54.447391418088095,46.83127594298534,2.7223695709044047,0.7356239623035958,B,1823.7659169826657,Correct,sub_007_day_24_data.csv,1,600,,Button-Switch at home,,,,,,,,,,,,,d
7,24,664,B,45.71026518246774,17.005366461739555,2.2855132591233867,0.2671196717390162,B,777.4891669396311,Correct,sub_007_day_24_data.csv,1,600,,Button-Switch at home,,,,,,,,,,,,,d
7,24,665,A,57.66848922287568,71.23368861993512,2.883424461143784,1.1189361642824551,A,2607.861040974967,Correct,sub_007_day_24_data.csv,1,600,,Button-Switch at home,,,,,,,,,,,,,k
7,24,666,B,83.16344803268177,60.22281854504229,4.158172401634089,0.94597782159788,B,2236.045541940257,Correct,sub_007_day_24_data.csv,1,600,,Button-Switch at home,,,,,,,,,,,,,d
7,24,667,B,33.262377388404246,12.21399155750299,1.6631188694202124,0.1918569307402957,B,1756.0694999992847,Correct,sub_007_day_24_data.csv,1,600,,Button-Switch at home,,,,,,,,,,,,,d
7,24,668,B,52.60618743112553,35.44422187698714,2.630309371556276,0.5567565353047472,B,968.3365419041364,Correct,sub_007_day_24_data.csv,1,600,,Button-Switch at home,,,,,,,,,,,,,d
7,24,669,B,58.11710068635493,35.96015862747072,2.9058550343177467,0.5648608508299281,B,829.4485419755802,Correct,sub_007_day_24_data.csv,1,600,,Button-Switch at home,,,,,,,,,,,,,d
7,24,670,A,41.48287076245104,58.38528884077016,2.074143538122552,0.9171139724994082,A,1155.8235420379788,Correct,sub_007_day_24_data.csv,1,600,,Button-Switch at home,,,,,,,,,,,,,k
7,24,671,A,41.53100947901792,69.43207759388699,2.076550473950896,1.0906365244621592,A,646.3848339626566,Correct,sub_007_day_24_data.csv,1,600,,Button-Switch at home,,,,,,,,,,,,,k
7,24,672,B,65.41647168241798,46.420478646477726,3.270823584120899,0.7291711734594815,B,1306.7516250303015,Correct,sub_007_day_24_data.csv,1,600,,Button-Switch at home,,,,,,,,,,,,,d
7,24,673,A,35.68999773026343,52.38324288804338,1.7844998865131714,0.8228340551414342,A,1847.8320420254024,Correct,sub_007_day_24_data.csv,1,600,,Button-Switch at home,,,,,,,,,,,,,k
7,24,674,A,47.85107393391656,78.43202783323963,2.392553696695828,1.232007412235279,A,879.4255410321057,Correct,sub_007_day_24_data.csv,1,600,,Button-Switch at home,,,,,,,,,,,,,k
7,24,675,A,21.57528775136008,34.3037905920342,1.078764387568004,0.5388426825710865,A,1179.614583030343,Correct,sub_007_day_24_data.csv,1,600,,Button-Switch at home,,,,,,,,,,,,,k
7,24,676,A,36.92911671724344,67.58028493128798,1.846455835862172,1.0615486333381967,A,762.419749982655,Correct,sub_007_day_24_data.csv,1,600,,Button-Switch at home,,,,,,,,,,,,,k
7,24,677,B,51.21204656982268,40.838893950803154,2.560602328491134,0.6414958460828792,B,1530.2258749725297,Correct,sub_007_day_24_data.csv,1,600,,Button-Switch at home,,,,,,,,,,,,,d
7,24,678,B,68.89077485742744,45.17837652382157,3.4445387428713725,0.7096602789417571,B,616.1024160683155,Correct,sub_007_day_24_data.csv,1,600,,Button-Switch at home,,,,,,,,,,,,,d
7,24,679,B,53.028441821854955,42.31865615278939,2.6514220910927473,0.6647398963969782,B,1491.9686670182273,Correct,sub_007_day_24_data.csv,1,600,,Button-Switch at home,,,,,,,,,,,,,d
7,24,680,B,76.28973946520499,64.47178045496395,3.8144869732602498,1.0127203592058438,B,858.6035000625998,Correct,sub_007_day_24_data.csv,1,600,,Button-Switch at home,,,,,,,,,,,,,d
7,24,681,A,57.04730333533161,68.36698624959926,2.852365166766581,1.073906108749077,A,1538.306999951601,Correct,sub_007_day_24_data.csv,1,600,,Button-Switch at home,,,,,,,,,,,,,k
7,24,682,A,41.33900708723856,50.15954849514315,2.0669503543619276,0.7879043452986134,A,1081.81100001093,Correct,sub_007_day_24_data.csv,1,600,,Button-Switch at home,,,,,,,,,,,,,k
7,24,683,A,28.600648107382227,57.04940274417648,1.4300324053691114,0.8961299227639512,A,865.5045829946175,Correct,sub_007_day_24_data.csv,1,600,,Button-Switch at home,,,,,,,,,,,,,k
7,24,684,B,53.43049273137041,43.12759075740262,2.6715246365685204,0.6774466114524156,B,1464.8657910292968,Correct,sub_007_day_24_data.csv,1,600,,Button-Switch at home,,,,,,,,,,,,,d
7,24,685,B,36.839187961687344,18.06926220258744,1.8419593980843671,0.2838313069571822,B,678.8766670506448,Correct,sub_007_day_24_data.csv,1,600,,Button-Switch at home,,,,,,,,,,,,,d
7,24,686,A,24.980001926443524,54.720423661527384,1.249000096322176,0.8595464048818777,A,1139.4876670092344,Correct,sub_007_day_24_data.csv,1,600,,Button-Switch at home,,,,,,,,,,,,,k
7,24,687,A,28.472201948707784,53.419789378951656,1.4236100974353891,0.8391160893461429,A,608.0191669752821,Correct,sub_007_day_24_data.csv,1,600,,Button-Switch at home,,,,,,,,,,,,,k
7,24,688,B,63.33492289408454,43.15985061174267,3.1667461447042276,0.6779533480594185,B,1270.2176669845358,Correct,sub_007_day_24_data.csv,1,600,,Button-Switch at home,,,,,,,,,,,,,d
7,24,689,B,67.92788863519812,56.21254644510695,3.3963944317599055,0.8829846147576151,B,1610.2707920363173,Correct,sub_007_day_24_data.csv,1,600,,Button-Switch at home,,,,,,,,,,,,,d
7,24,690,B,49.63918052317727,35.00803088695377,2.4819590261588633,0.5499048632554927,B,1069.162167026661,Correct,sub_007_day_24_data.csv,1,600,,Button-Switch at home,,,,,,,,,,,,,d
7,24,691,B,38.749025119218615,13.92345783024914,1.937451255960931,0.2187091641603899,B,961.1996670719236,Correct,sub_007_day_24_data.csv,1,600,,Button-Switch at home,,,,,,,,,,,,,d
7,24,692,A,31.412697266877856,55.771515882491215,1.570634863343893,0.8760569228800044,A,1693.7623340636492,Correct,sub_007_day_24_data.csv,1,600,,Button-Switch at home,,,,,,,,,,,,,k
7,24,693,B,31.602065312446147,13.23503219177126,1.5801032656223075,0.207895399518465,B,894.9466249905527,Correct,sub_007_day_24_data.csv,1,600,,Button-Switch at home,,,,,,,,,,,,,d
7,24,694,A,24.737870183602276,39.774833982372435,1.2368935091801136,0.6247816311838745,A,1381.2819169834256,Correct,sub_007_day_24_data.csv,1,600,,Button-Switch at home,,,,,,,,,,,,,k
7,24,695,B,52.8317228795805,32.80241072374436,2.641586143979025,0.5152590627487516,B,1196.496417047456,Correct,sub_007_day_24_data.csv,1,600,,Button-Switch at home,,,,,,,,,,,,,d
7,24,696,B,48.38698373948495,31.505139837462167,2.419349186974247,0.4948815793184513,B,1073.2575840083882,Correct,sub_007_day_24_data.csv,1,600,,Button-Switch at home,,,,,,,,,,,,,d
7,24,697,B,82.21400670197767,64.11039291320807,4.110700335098883,1.007043696974448,B,728.2194580184296,Correct,sub_007_day_24_data.csv,1,600,,Button-Switch at home,,,,,,,,,,,,,d
7,24,698,A,21.891248122810325,35.83680115143902,1.094562406140516,0.5629231561275952,A,1473.697041044943,Correct,sub_007_day_24_data.csv,1,600,,Button-Switch at home,,,,,,,,,,,,,k
7,24,699,A,35.66022022434933,56.70439599990213,1.7830110112174666,0.890710569497695,A,747.2924999892712,Correct,sub_007_day_24_data.csv,1,600,,Button-Switch at home,,,,,,,,,,,,,k
7,24,700,B,65.78437290757466,36.786188684213634,3.289218645378733,0.5778361006194678,B,4065.1702500181273,Correct,sub_007_day_24_data.csv,1,600,,Button-Switch at home,,,,,,,,,,,,,d
7,24,701,B,60.40031025602841,34.64977241757937,3.0200155128014203,0.5442773523781279,B,1055.634165997617,Correct,sub_007_day_24_data.csv,1,600,,Button-Switch at home,,,,,,,,,,,,,d
7,24,702,A,24.44664221939334,39.94113494942371,1.222332110969667,0.6273938806657404,A,788.2140410365537,Correct,sub_007_day_24_data.csv,1,600,,Button-Switch at home,,,,,,,,,,,,,k
7,24,703,A,45.11343594444495,52.98839964500465,2.2556717972222473,0.832339835251133,A,1084.9365000613034,Correct,sub_007_day_24_data.csv,1,600,,Button-Switch at home,,,,,,,,,,,,,k
7,24,704,A,14.73564793682782,41.67142920506551,0.736782396841391,0.6545732792761048,A,580.973583040759,Correct,sub_007_day_24_data.csv,1,600,,Button-Switch at home,,,,,,,,,,,,,k
7,24,705,A,12.816006166609224,35.613010683247246,0.6408003083304612,0.5594078636735219,A,1331.2598339980468,Correct,sub_007_day_24_data.csv,1,600,,Button-Switch at home,,,,,,,,,,,,,k
7,24,706,A,46.51378624762115,71.10693167264395,2.325689312381057,1.116945070810448,A,1345.6462080357596,Correct,sub_007_day_24_data.csv,1,600,,Button-Switch at home,,,,,,,,,,,,,k
7,24,707,B,61.70936555121112,35.19179449630288,3.0854682775605564,0.5527914152811342,B,1207.8897920437155,Correct,sub_007_day_24_data.csv,1,600,,Button-Switch at home,,,,,,,,,,,,,d
7,24,708,B,63.909740271518395,35.22149806754801,3.19548701357592,0.5532579978871797,B,1273.097499972209,Correct,sub_007_day_24_data.csv,1,600,,Button-Switch at home,,,,,,,,,,,,,d
7,24,709,A,31.107476958639715,48.90938622018792,1.555373847931986,0.768266842204641,A,1237.4102910980582,Correct,sub_007_day_24_data.csv,1,600,,Button-Switch at home,,,,,,,,,,,,,k
7,24,710,A,61.51066484172141,79.71084038977364,3.0755332420860704,1.252094952899907,A,1194.1087499726564,Correct,sub_007_day_24_data.csv,1,600,,Button-Switch at home,,,,,,,,,,,,,k
7,24,711,B,55.157780307711995,45.39947790365767,2.7578890153855995,0.7131333312947153,B,1510.63720905222,Correct,sub_007_day_24_data.csv,1,600,,Button-Switch at home,,,,,,,,,,,,,d
7,24,712,B,63.15704420867796,35.22974241153933,3.157852210433898,0.5533874997397636,B,1126.3495410094038,Correct,sub_007_day_24_data.csv,1,600,,Button-Switch at home,,,,,,,,,,,,,d
7,24,713,A,56.371352095399835,72.62037928489555,2.8185676047699917,1.140718250311661,A,796.2289170827717,Correct,sub_007_day_24_data.csv,1,600,,Button-Switch at home,,,,,,,,,,,,,k
7,24,714,A,23.023339020308192,35.45564224747679,1.1511669510154094,0.5569359260649048,A,686.6102910134941,Correct,sub_007_day_24_data.csv,1,600,,Button-Switch at home,,,,,,,,,,,,,k
7,24,715,B,76.77879991958108,63.70326851106942,3.8389399959790538,1.0006486018201683,B,1133.67000001017,Correct,sub_007_day_24_data.csv,1,600,,Button-Switch at home,,,,,,,,,,,,,d
7,24,716,B,56.73815162013957,47.747070677677065,2.8369075810069786,0.7500092323571146,B,1717.4155839020386,Correct,sub_007_day_24_data.csv,1,600,,Button-Switch at home,,,,,,,,,,,,,d
7,24,717,A,15.596565183626245,43.52299630423445,0.7798282591813122,0.6836576272579933,A,658.689791103825,Correct,sub_007_day_24_data.csv,1,600,,Button-Switch at home,,,,,,,,,,,,,k
7,24,718,B,37.38819554761116,24.48505214053456,1.869409777380558,0.384610299637332,B,1445.1856670202687,Correct,sub_007_day_24_data.csv,1,600,,Button-Switch at home,,,,,,,,,,,,,d
7,24,719,A,66.07027690985312,89.11884673959113,3.303513845492656,1.399875571067471,A,852.0211250288412,Correct,sub_007_day_24_data.csv,1,600,,Button-Switch at home,,,,,,,,,,,,,k
7,24,720,B,80.08769628779055,63.51721104813914,4.004384814389527,0.997726018026732,B,600.2636250341311,Correct,sub_007_day_24_data.csv,1,600,,Button-Switch at home,,,,,,,,,,,,,d
7,24,721,A,36.451144408291704,56.149331809418115,1.822557220414585,0.8819916415822182,A,809.3173330416903,Correct,sub_007_day_24_data.csv,1,600,,Button-Switch at home,,,,,,,,,,,,,k
7,24,722,A,41.90820365815984,55.07689076070929,2.095410182907992,0.8651457769820594,A,754.4923339737579,Correct,sub_007_day_24_data.csv,1,600,,Button-Switch at home,,,,,,,,,,,,,k
7,24,723,A,65.66403059764082,77.70218407000674,3.283201529882041,1.2205430532110753,A,1079.1261669946834,Correct,sub_007_day_24_data.csv,1,600,,Button-Switch at home,,,,,,,,,,,,,k
7,24,724,B,72.14984444089866,45.91787995946141,3.607492222044933,0.7212763717453097,B,1203.290875069797,Correct,sub_007_day_24_data.csv,1,600,,Button-Switch at home,,,,,,,,,,,,,d
7,24,725,A,28.818010508691067,39.83074413554548,1.4409005254345533,0.6256598658162221,A,947.929457994178,Correct,sub_007_day_24_data.csv,1,600,,Button-Switch at home,,,,,,,,,,,,,k
7,24,726,A,31.753360883710677,45.44800913428987,1.587668044185534,0.7138956580828345,A,711.3863750128075,Correct,sub_007_day_24_data.csv,1,600,,Button-Switch at home,,,,,,,,,,,,,k
7,24,727,A,63.65625214896816,80.35240442174877,3.182812607448408,1.2621726171482095,A,896.6559579130262,Correct,sub_007_day_24_data.csv,1,600,,Button-Switch at home,,,,,,,,,,,,,k
7,24,728,B,37.52863594247741,13.495162012085746,1.8764317971238704,0.2119815091808631,B,682.2826670249924,Correct,sub_007_day_24_data.csv,1,600,,Button-Switch at home,,,,,,,,,,,,,d
7,24,729,B,45.98907649652663,31.441040916417062,2.299453824826331,0.4938747158211597,B,1180.8355409884823,Correct,sub_007_day_24_data.csv,1,600,,Button-Switch at home,,,,,,,,,,,,,d
7,24,730,B,78.49335879707846,54.57280481287844,3.924667939853923,0.857227613429643,B,2829.0188329992816,Correct,sub_007_day_24_data.csv,1,600,,Button-Switch at home,,,,,,,,,,,,,d
7,24,731,A,24.48873809752134,40.65989551053136,1.2244369048760668,0.6386841451580696,A,882.1580840740353,Correct,sub_007_day_24_data.csv,1,600,,Button-Switch at home,,,,,,,,,,,,,k
7,24,732,A,35.12131091052244,67.10438302591336,1.7560655455261218,1.0540731836894253,A,745.993125019595,Correct,sub_007_day_24_data.csv,1,600,,Button-Switch at home,,,,,,,,,,,,,k
7,24,733,A,47.35502277016037,69.80410935554289,2.367751138508018,1.0964803857087604,A,940.6982079381124,Correct,sub_007_day_24_data.csv,1,600,,Button-Switch at home,,,,,,,,,,,,,k
7,24,734,B,61.714312560489866,39.219139209721675,3.0857156280244933,0.616052798106885,B,1049.1498329211026,Correct,sub_007_day_24_data.csv,1,600,,Button-Switch at home,,,,,,,,,,,,,d
7,24,735,A,57.5254509626485,68.08123513474229,2.876272548132425,1.069417540733128,A,3076.7144999699667,Correct,sub_007_day_24_data.csv,1,600,,Button-Switch at home,,,,,,,,,,,,,k
7,24,736,B,64.03308143718577,51.47995496402964,3.2016540718592887,0.8086452416106445,B,1336.9536669924855,Correct,sub_007_day_24_data.csv,1,600,,Button-Switch at home,,,,,,,,,,,,,d
7,24,737,B,57.36468801487244,42.62598895917445,2.8682344007436225,0.6695674688307105,B,1616.4810410700738,Correct,sub_007_day_24_data.csv,1,600,,Button-Switch at home,,,,,,,,,,,,,d
7,24,738,B,35.799529554197,20.980349234186036,1.78997647770985,0.3295585551193355,B,1370.3162089223042,Correct,sub_007_day_24_data.csv,1,600,,Button-Switch at home,,,,,,,,,,,,,d
7,24,739,B,57.49915073485678,25.03627680540528,2.874957536742839,0.3932689164255087,B,1023.9412499358878,Correct,sub_007_day_24_data.csv,1,600,,Button-Switch at home,,,,,,,,,,,,,d
7,24,740,B,52.16267629762056,37.31131216185825,2.6081338148810285,0.5860847209174469,B,888.0445839604363,Correct,sub_007_day_24_data.csv,1,600,,Button-Switch at home,,,,,,,,,,,,,d
7,24,741,A,44.52610117422673,56.729381503279015,2.2263050587113367,0.8911030408669701,A,1390.9843339351935,Correct,sub_007_day_24_data.csv,1,600,,Button-Switch at home,,,,,,,,,,,,,k
7,24,742,B,33.67665241208201,20.214201750213228,1.6838326206041003,0.317523938583259,B,1303.5812499001622,Correct,sub_007_day_24_data.csv,1,600,,Button-Switch at home,,,,,,,,,,,,,d
7,24,743,A,28.974404216295667,48.87242708183082,1.4487202108147834,0.7676862894169127,A,1008.4174579242244,Correct,sub_007_day_24_data.csv,1,600,,Button-Switch at home,,,,,,,,,,,,,k
7,24,744,A,44.012515065983585,54.48287258094574,2.2006257532991795,0.8558149612338396,A,1927.7972090058029,Correct,sub_007_day_24_data.csv,1,600,,Button-Switch at home,,,,,,,,,,,,,k
7,24,745,A,19.38667359564587,50.258224430200336,0.9693336797822936,0.7894543432619222,A,1079.1424170602113,Correct,sub_007_day_24_data.csv,1,600,,Button-Switch at home,,,,,,,,,,,,,k
7,24,746,A,24.924341048415165,42.857748084827584,1.246217052420758,0.6732079326634819,A,664.8111670510843,Correct,sub_007_day_24_data.csv,1,600,,Button-Switch at home,,,,,,,,,,,,,k
7,24,747,B,85.11556739139459,59.57169353714599,4.25577836956973,0.935749973891002,B,660.6182500254363,Correct,sub_007_day_24_data.csv,1,600,,Button-Switch at home,,,,,,,,,,,,,d
7,24,748,B,77.58670977980353,54.40053465098944,3.879335488990177,0.854521600054527,B,1015.521000023,Correct,sub_007_day_24_data.csv,1,600,,Button-Switch at home,,,,,,,,,,,,,d
7,24,749,A,61.59949658468777,74.31066484831123,3.0799748292343883,1.1672691938541393,A,1287.3272920260206,Correct,sub_007_day_24_data.csv,1,600,,Button-Switch at home,,,,,,,,,,,,,k
7,24,750,A,52.997076036379994,76.13378266120301,2.649853801819,1.195906661492187,A,1401.854707975872,Correct,sub_007_day_24_data.csv,1,600,,Button-Switch at home,,,,,,,,,,,,,k
7,24,751,B,42.80964999727447,20.222725726856044,2.1404824998637237,0.3176578328952613,B,817.3045410076156,Correct,sub_007_day_24_data.csv,1,600,,Button-Switch at home,,,,,,,,,,,,,d
7,24,752,A,18.699565989037243,41.61238128659538,0.934978299451862,0.6536457567417271,A,678.8562500150874,Correct,sub_007_day_24_data.csv,1,600,,Button-Switch at home,,,,,,,,,,,,,k
7,24,753,A,59.6451873792046,86.31627004266083,2.98225936896023,1.35585279925648,A,1603.898165980354,Correct,sub_007_day_24_data.csv,1,600,,Button-Switch at home,,,,,,,,,,,,,k
7,24,754,A,21.33075488911702,40.49877985530503,1.066537744455851,0.6361533463638829,A,776.7008329974487,Correct,sub_007_day_24_data.csv,1,600,,Button-Switch at home,,,,,,,,,,,,,k
7,24,755,B,44.230536433239834,28.415816989664187,2.211526821661991,0.4463546095024051,B,1116.329750046134,Correct,sub_007_day_24_data.csv,1,600,,Button-Switch at home,,,,,,,,,,,,,d
7,24,756,B,76.96770192165593,55.61833418891135,3.848385096082796,0.8736507504639296,B,837.7714999951422,Correct,sub_007_day_24_data.csv,1,600,,Button-Switch at home,,,,,,,,,,,,,d
7,24,757,B,33.04713231593159,18.264375538916298,1.6523566157965797,0.2868961400773228,B,924.78491703514,Correct,sub_007_day_24_data.csv,1,600,,Button-Switch at home,,,,,,,,,,,,,d
7,24,758,A,48.31609568063707,75.90272421853668,2.415804784031854,1.1922772039620344,A,1209.6245409920812,Correct,sub_007_day_24_data.csv,1,600,,Button-Switch at home,,,,,,,,,,,,,k
7,24,759,A,49.003241570153165,64.83457181679438,2.4501620785076583,1.0184190725914055,A,693.6611660057679,Correct,sub_007_day_24_data.csv,1,600,,Button-Switch at home,,,,,,,,,,,,,k
7,24,760,B,44.13141201793276,30.835984702770787,2.206570600896638,0.4843705150421597,B,887.6734588993713,Correct,sub_007_day_24_data.csv,1,600,,Button-Switch at home,,,,,,,,,,,,,d
7,24,761,B,80.83019971251746,67.95749444239358,4.041509985625873,1.0674738264829644,B,1352.560832980089,Correct,sub_007_day_24_data.csv,1,600,,Button-Switch at home,,,,,,,,,,,,,d
7,24,762,B,35.43301907875734,14.781718256883543,1.771650953937867,0.2321906874162973,B,1378.4937920281664,Correct,sub_007_day_24_data.csv,1,600,,Button-Switch at home,,,,,,,,,,,,,d
7,24,763,B,78.394695925992,51.51098604207242,3.9197347962996,0.8091326766447053,B,608.9938340010121,Correct,sub_007_day_24_data.csv,1,600,,Button-Switch at home,,,,,,,,,,,,,d
7,24,764,A,54.613073269175075,75.22948259639635,2.7306536634587535,1.181701949291,A,835.7381250243634,Correct,sub_007_day_24_data.csv,1,600,,Button-Switch at home,,,,,,,,,,,,,k
7,24,765,A,32.96672823153787,46.72325672439863,1.6483364115768937,0.7339272003858033,A,909.6056249691172,Correct,sub_007_day_24_data.csv,1,600,,Button-Switch at home,,,,,,,,,,,,,k
7,24,766,B,44.42003299499346,32.796382848565074,2.221001649749673,0.5151643771068516,B,1253.607916063629,Correct,sub_007_day_24_data.csv,1,600,,Button-Switch at home,,,,,,,,,,,,,d
7,24,767,A,13.684705526470548,34.97606023915809,0.6842352763235274,0.5494026694942655,A,1841.1465419922024,Correct,sub_007_day_24_data.csv,1,600,,Button-Switch at home,,,,,,,,,,,,,k
7,24,768,A,43.81060498310111,51.45666836697033,2.1905302491550556,0.8082794565994014,A,1405.5509590543809,Correct,sub_007_day_24_data.csv,1,600,,Button-Switch at home,,,,,,,,,,,,,k
7,24,769,A,41.81841024924326,70.32838759740847,2.0909205124621626,1.1047157290741698,A,1224.3036249419674,Correct,sub_007_day_24_data.csv,1,600,,Button-Switch at home,,,,,,,,,,,,,k
7,24,770,A,33.396246093632584,53.953155829071704,1.6698123046816291,0.847494189952985,A,843.1267910636961,Correct,sub_007_day_24_data.csv,1,600,,Button-Switch at home,,,,,,,,,,,,,k
7,24,771,B,57.0356983521898,46.35438574792658,2.85178491760949,0.7281329886367677,B,1587.5370419817043,Correct,sub_007_day_24_data.csv,1,600,,Button-Switch at home,,,,,,,,,,,,,d
7,24,772,B,44.51970996134873,31.381147512689143,2.2259854980674363,0.492933912435409,B,1232.3064170777798,Correct,sub_007_day_24_data.csv,1,600,,Button-Switch at home,,,,,,,,,,,,,d
7,24,773,A,17.408156811887267,41.93820087960444,0.8704078405943634,0.6587637189406915,A,1129.403083003126,Correct,sub_007_day_24_data.csv,1,600,,Button-Switch at home,,,,,,,,,,,,,k
7,24,774,A,20.021865530293667,42.046008148275064,1.0010932765146834,0.6604571515569877,A,828.139916062355,Correct,sub_007_day_24_data.csv,1,600,,Button-Switch at home,,,,,,,,,,,,,k
7,24,775,A,26.171649543123937,48.70836022276912,1.3085824771561965,0.7651091332212838,A,871.3723330292851,Correct,sub_007_day_24_data.csv,1,600,,Button-Switch at home,,,,,,,,,,,,,k
7,24,776,A,45.17223705403767,65.55530942058708,2.258611852701884,1.0297403923976105,A,1651.2343750800935,Correct,sub_007_day_24_data.csv,1,600,,Button-Switch at home,,,,,,,,,,,,,k
7,24,777,B,40.18651545843919,19.08165783861304,2.00932577292196,0.2997339804205041,B,848.7555420724675,Correct,sub_007_day_24_data.csv,1,600,,Button-Switch at home,,,,,,,,,,,,,d
7,24,778,A,36.907531879675886,69.71999459213325,1.8453765939837945,1.0951591140948298,A,2199.6817080071196,Correct,sub_007_day_24_data.csv,1,600,,Button-Switch at home,,,,,,,,,,,,,k
7,24,779,B,59.64426331327845,51.99388156872136,2.982213165663923,0.8167179818395637,B,1130.946792080067,Correct,sub_007_day_24_data.csv,1,600,,Button-Switch at home,,,,,,,,,,,,,d
7,24,780,A,60.26604227365027,84.40392048897397,3.0133021136825135,1.3258136827116882,A,1367.085332982242,Correct,sub_007_day_24_data.csv,1,600,,Button-Switch at home,,,,,,,,,,,,,k
7,24,781,B,44.587958919196296,25.482919291290656,2.229397945959815,0.4002847601877017,B,2149.132207967341,Correct,sub_007_day_24_data.csv,1,600,,Button-Switch at home,,,,,,,,,,,,,d
7,24,782,B,62.960514056056105,34.598648458464126,3.148025702802806,0.5434742991062336,A,1399.2316250223666,Incorrect,sub_007_day_24_data.csv,0,600,,Button-Switch at home,,,,,,,,,,,,,k
7,24,783,A,57.28772743652115,65.39520928231943,2.8643863718260576,1.027225545306509,A,1755.6470419513062,Correct,sub_007_day_24_data.csv,1,600,,Button-Switch at home,,,,,,,,,,,,,k
7,24,784,A,48.73958411285358,74.70752836962072,2.436979205642679,1.1735031114692576,A,744.5149580016732,Correct,sub_007_day_24_data.csv,1,600,,Button-Switch at home,,,,,,,,,,,,,k
7,24,785,A,37.14888966072148,47.531298669721366,1.857444483036074,0.7466198935818948,B,2244.5669999578968,Incorrect,sub_007_day_24_data.csv,0,600,,Button-Switch at home,,,,,,,,,,,,,d
7,24,786,A,48.95069761870169,58.83295028046203,2.4475348809350845,0.9241458219505654,A,1791.071583982557,Correct,sub_007_day_24_data.csv,1,600,,Button-Switch at home,,,,,,,,,,,,,k
7,24,787,A,63.1422914232961,82.59984294954961,3.157114571164805,1.2974752989898786,A,855.6531670037657,Correct,sub_007_day_24_data.csv,1,600,,Button-Switch at home,,,,,,,,,,,,,k
7,24,788,B,54.57152894279645,41.79694817373215,2.728576447139823,0.6565449266253511,B,1545.0780000537634,Correct,sub_007_day_24_data.csv,1,600,,Button-Switch at home,,,,,,,,,,,,,d
7,24,789,A,44.30649535748711,71.75717492053062,2.2153247678743555,1.1271590678634835,A,1580.6191669544205,Correct,sub_007_day_24_data.csv,1,600,,Button-Switch at home,,,,,,,,,,,,,k
7,24,790,B,38.640865825617055,19.52843047855904,1.9320432912808527,0.3067518686379004,B,829.1766669135541,Correct,sub_007_day_24_data.csv,1,600,,Button-Switch at home,,,,,,,,,,,,,d
7,24,791,B,57.08859050122517,31.16398119516337,2.854429525061258,0.4895226718966785,B,1647.7658330695704,Correct,sub_007_day_24_data.csv,1,600,,Button-Switch at home,,,,,,,,,,,,,d
7,24,792,B,75.08970644138863,45.36518571453217,3.7544853220694314,0.7125946708475545,B,813.7471249792725,Correct,sub_007_day_24_data.csv,1,600,,Button-Switch at home,,,,,,,,,,,,,d
7,24,793,A,58.19090075283884,71.3760607697975,2.909545037641942,1.1211725407828723,A,1907.712124986574,Correct,sub_007_day_24_data.csv,1,600,,Button-Switch at home,,,,,,,,,,,,,k
7,24,794,A,35.23072362453824,63.429923274274074,1.7615361812269124,0.9963549048811184,A,1383.3800409920514,Correct,sub_007_day_24_data.csv,1,600,,Button-Switch at home,,,,,,,,,,,,,k
7,24,795,B,74.27497529965696,53.17414919826348,3.713748764982848,0.8352575824107606,B,841.0897499416023,Correct,sub_007_day_24_data.csv,1,600,,Button-Switch at home,,,,,,,,,,,,,d
7,24,796,A,55.5652542523581,83.7758843619154,2.778262712617905,1.3159485142969072,A,912.065416923724,Correct,sub_007_day_24_data.csv,1,600,,Button-Switch at home,,,,,,,,,,,,,k
7,24,797,B,81.81212464600051,62.91963767458154,4.090606232300026,0.9883393574249848,B,1498.9017919870091,Correct,sub_007_day_24_data.csv,1,600,,Button-Switch at home,,,,,,,,,,,,,d
7,24,798,B,41.867506119570606,22.621835044961717,2.0933753059785305,0.3553429539398592,B,2804.6771249501035,Correct,sub_007_day_24_data.csv,1,600,,Button-Switch at home,,,,,,,,,,,,,d
7,24,799,A,24.186040387649467,46.29388004389978,1.2093020193824733,0.7271825672604134,A,1193.323666928336,Correct,sub_007_day_24_data.csv,1,600,,Button-Switch at home,,,,,,,,,,,,,k
7,24,800,B,62.43110370853801,38.26208574007666,3.121555185426901,0.601019437360238,B,1234.842709032819,Correct,sub_007_day_24_data.csv,1,600,,Button-Switch at home,,,,,,,,,,,,,d
7,24,801,B,45.429510110161054,24.515886629134584,2.271475505508053,0.3850946466516473,B,1680.675582960248,Correct,sub_007_day_24_data.csv,1,600,,Button-Switch at home,,,,,,,,,,,,,d
7,24,802,B,74.84672201955365,53.33957187019831,3.742336100977683,0.8378560356651992,B,1550.6222910480574,Correct,sub_007_day_24_data.csv,1,600,,Button-Switch at home,,,,,,,,,,,,,d
7,24,803,B,40.54610595823698,29.557314543801112,2.027305297911849,0.4642852111532416,B,1522.4990419810638,Correct,sub_007_day_24_data.csv,1,600,,Button-Switch at home,,,,,,,,,,,,,d
7,24,804,A,27.548799041601217,57.85683775001531,1.3774399520800609,0.9088130821769238,A,1289.039875031449,Correct,sub_007_day_24_data.csv,1,600,,Button-Switch at home,,,,,,,,,,,,,k
7,24,805,B,59.23537976433532,39.34270833525166,2.9617689882167664,0.6179938173917627,B,1923.634291975759,Correct,sub_007_day_24_data.csv,1,600,,Button-Switch at home,,,,,,,,,,,,,d
7,24,806,B,83.47454199579448,59.955370713616006,4.1737270997897244,0.9417767608857436,B,2217.984791030176,Correct,sub_007_day_24_data.csv,1,600,,Button-Switch at home,,,,,,,,,,,,,d
7,24,807,A,61.488640820745225,70.98634255270181,3.0744320410372614,1.1150508613438828,A,2603.6497079767287,Correct,sub_007_day_24_data.csv,1,600,,Button-Switch at home,,,,,,,,,,,,,k
7,24,808,A,49.7294656570215,76.17382607771727,2.486473282851075,1.196535662007916,A,835.1559579605237,Correct,sub_007_day_24_data.csv,1,600,,Button-Switch at home,,,,,,,,,,,,,k
7,24,809,A,22.061575254398196,40.98720681062687,1.1030787627199097,0.6438255390371547,A,799.3127909721807,Correct,sub_007_day_24_data.csv,1,600,,Button-Switch at home,,,,,,,,,,,,,k
7,24,810,B,61.16697467142451,52.23551889202973,3.0583487335712256,0.8205136120382573,B,831.6719169961289,Correct,sub_007_day_24_data.csv,1,600,,Button-Switch at home,,,,,,,,,,,,,d
7,24,811,B,85.66759792594453,57.21098591679333,4.283379896297227,0.8986680653041351,B,679.3808330548927,Correct,sub_007_day_24_data.csv,1,600,,Button-Switch at home,,,,,,,,,,,,,d
7,24,812,A,31.194663771127708,40.530921229150195,1.5597331885563852,0.6366582218836243,B,1648.5251660924405,Incorrect,sub_007_day_24_data.csv,0,600,,Button-Switch at home,,,,,,,,,,,,,d
7,24,813,A,26.01255685795729,36.22788227723806,1.3006278428978644,0.5690662440864348,A,812.7215839922428,Correct,sub_007_day_24_data.csv,1,600,,Button-Switch at home,,,,,,,,,,,,,k
7,24,814,A,13.810791792315673,31.050050274096208,0.6905395896157835,0.4877330491734719,A,675.7778329774737,Correct,sub_007_day_24_data.csv,1,600,,Button-Switch at home,,,,,,,,,,,,,k
7,24,815,A,33.99441250000036,45.82403135684625,1.699720625000018,0.7198022013426826,A,791.9337500352412,Correct,sub_007_day_24_data.csv,1,600,,Button-Switch at home,,,,,,,,,,,,,k
7,24,816,A,64.13693215294133,86.31586915048277,3.206846607647066,1.3558465020568726,A,1514.3986250041053,Correct,sub_007_day_24_data.csv,1,600,,Button-Switch at home,,,,,,,,,,,,,k
7,24,817,B,60.94340371686452,40.40645339929922,3.047170185843226,0.6347030857842838,B,812.11141590029,Correct,sub_007_day_24_data.csv,1,600,,Button-Switch at home,,,,,,,,,,,,,d
7,24,818,B,54.45439514105847,45.91362408491472,2.722719757052923,0.7212095206242574,B,1699.3302080081776,Correct,sub_007_day_24_data.csv,1,600,,Button-Switch at home,,,,,,,,,,,,,d
7,24,819,A,37.4176661042818,68.81557169681825,1.87088330521409,1.0809524724765296,A,1261.6220409981906,Correct,sub_007_day_24_data.csv,1,600,,Button-Switch at home,,,,,,,,,,,,,k
7,24,820,B,70.94136026360644,53.90775110440674,3.547068013180322,0.8467809742057565,B,2842.5937079591677,Correct,sub_007_day_24_data.csv,1,600,,Button-Switch at home,,,,,,,,,,,,,d
7,24,821,A,38.56391430892109,53.66485639402569,1.9281957154460545,0.8429655930171118,A,1759.567999979481,Correct,sub_007_day_24_data.csv,1,600,,Button-Switch at home,,,,,,,,,,,,,k
7,24,822,B,47.99619350779152,33.03507155063745,2.399809675389576,0.5189136904714788,B,2977.846374968067,Correct,sub_007_day_24_data.csv,1,600,,Button-Switch at home,,,,,,,,,,,,,d
7,24,823,B,37.08409731461117,20.95155097156513,1.8542048657305583,0.3291061930679055,B,1378.9338750066236,Correct,sub_007_day_24_data.csv,1,600,,Button-Switch at home,,,,,,,,,,,,,d
7,24,824,B,89.55593753160034,64.55864824299107,4.477796876580016,1.0140848752293417,B,1370.51216699183,Correct,sub_007_day_24_data.csv,1,600,,Button-Switch at home,,,,,,,,,,,,,d
7,24,825,B,35.95125669058882,15.35726617076838,1.797562834529441,0.2412313729065449,B,716.9280420057476,Correct,sub_007_day_24_data.csv,1,600,,Button-Switch at home,,,,,,,,,,,,,d
7,24,826,A,60.69084564400808,81.75015567526148,3.0345422822004036,1.284128442496117,A,1834.3309999909252,Correct,sub_007_day_24_data.csv,1,600,,Button-Switch at home,,,,,,,,,,,,,k
7,24,827,B,65.10520776320374,46.84695960642554,3.255260388160187,0.7358703207128213,B,1472.3559159319848,Correct,sub_007_day_24_data.csv,1,600,,Button-Switch at home,,,,,,,,,,,,,d
7,24,828,B,40.996868371061026,21.849238184247294,2.0498434185530514,0.3432070308308245,B,716.5038749808446,Correct,sub_007_day_24_data.csv,1,600,,Button-Switch at home,,,,,,,,,,,,,d
7,24,829,A,26.131874090984923,50.27739437136209,1.3065937045492462,0.7897554639935398,A,1475.608958047815,Correct,sub_007_day_24_data.csv,1,600,,Button-Switch at home,,,,,,,,,,,,,k
7,24,830,B,53.266025644765136,43.11702923879826,2.663301282238257,0.6772807115061246,B,2119.0931670134887,Correct,sub_007_day_24_data.csv,1,600,,Button-Switch at home,,,,,,,,,,,,,d
7,24,831,B,57.14879985967076,35.00942655641532,2.857439992983538,0.5499267863801289,B,1436.72208301723,Correct,sub_007_day_24_data.csv,1,600,,Button-Switch at home,,,,,,,,,,,,,d
7,24,832,A,16.124087142807547,42.06062501551189,0.8062043571403774,0.6606867527706362,A,937.3787910444662,Correct,sub_007_day_24_data.csv,1,600,,Button-Switch at home,,,,,,,,,,,,,k
7,24,833,B,71.58609609797097,40.5938509701235,3.5793048048985487,0.6376467199432944,B,759.4548329943791,Correct,sub_007_day_24_data.csv,1,600,,Button-Switch at home,,,,,,,,,,,,,d
7,24,834,A,31.182007489905523,44.73098305491969,1.559100374495276,0.7026326387659262,A,1385.7824580045417,Correct,sub_007_day_24_data.csv,1,600,,Button-Switch at home,,,,,,,,,,,,,k
7,24,835,A,51.99272097799018,75.95147953103464,2.5996360488995087,1.1930430506198697,A,1377.7074579847977,Correct,sub_007_day_24_data.csv,1,600,,Button-Switch at home,,,,,,,,,,,,,k
7,24,836,B,60.106121085830736,44.07354204792926,3.005306054291537,0.6923055795772769,B,1036.4749999716878,Correct,sub_007_day_24_data.csv,1,600,,Button-Switch at home,,,,,,,,,,,,,d
7,24,837,A,46.235137073489184,68.59327798726645,2.311756853674459,1.0774606910521938,A,1681.146166054532,Correct,sub_007_day_24_data.csv,1,600,,Button-Switch at home,,,,,,,,,,,,,k
7,24,838,B,37.22003929938344,15.903652847461371,1.861001964969172,0.2498139947541352,B,1181.1396670527756,Correct,sub_007_day_24_data.csv,1,600,,Button-Switch at home,,,,,,,,,,,,,d
7,24,839,A,37.72906667539595,52.00181498728202,1.8864533337697975,0.8168425996869041,A,935.1903749629856,Correct,sub_007_day_24_data.csv,1,600,,Button-Switch at home,,,,,,,,,,,,,k
7,24,840,A,41.60138131058013,57.42541617989251,2.0800690655290066,0.9020363280004337,A,768.5636250535026,Correct,sub_007_day_24_data.csv,1,600,,Button-Switch at home,,,,,,,,,,,,,k
7,24,841,A,14.12512500949718,33.607247993684766,0.706256250474859,0.5279014170216517,A,841.5396249620244,Correct,sub_007_day_24_data.csv,1,600,,Button-Switch at home,,,,,,,,,,,,,k
7,24,842,A,37.04212770209733,47.42841735236194,1.8521063851048667,0.7450038376278546,A,1539.6908749826252,Correct,sub_007_day_24_data.csv,1,600,,Button-Switch at home,,,,,,,,,,,,,k
7,24,843,B,73.4358319602915,48.65128657411262,3.6717915980145746,0.7642126224446196,B,523.3299171086401,Correct,sub_007_day_24_data.csv,1,600,,Button-Switch at home,,,,,,,,,,,,,d
7,24,844,B,49.00312304494095,35.35194951177743,2.450156152247047,0.5553071243813862,B,1125.5369579885155,Correct,sub_007_day_24_data.csv,1,600,,Button-Switch at home,,,,,,,,,,,,,d
7,24,845,A,41.79393019841355,68.7889751088854,2.0896965099206772,1.0805346942502276,A,1334.115375066176,Correct,sub_007_day_24_data.csv,1,600,,Button-Switch at home,,,,,,,,,,,,,k
7,24,846,A,68.35502951192167,89.02778188569174,3.4177514755960834,1.398445127687418,A,1102.5311660487205,Correct,sub_007_day_24_data.csv,1,600,,Button-Switch at home,,,,,,,,,,,,,k
7,24,847,B,56.60362701136224,28.478148330350457,2.8301813505681124,0.447333707912347,B,1050.5877919495106,Correct,sub_007_day_24_data.csv,1,600,,Button-Switch at home,,,,,,,,,,,,,d
7,24,848,B,41.33966148420047,29.905056259054692,2.0669830742100235,0.4697475252431785,B,1316.9823329662904,Correct,sub_007_day_24_data.csv,1,600,,Button-Switch at home,,,,,,,,,,,,,d
7,24,849,B,40.73585653414665,21.497004208941355,2.0367928267073325,0.3376741524849951,B,1093.3326670201495,Correct,sub_007_day_24_data.csv,1,600,,Button-Switch at home,,,,,,,,,,,,,d
7,24,850,A,57.25004071554024,77.2050001447768,2.862502035777012,1.2127333063761487,A,815.2877909597009,Correct,sub_007_day_24_data.csv,1,600,,Button-Switch at home,,,,,,,,,,,,,k
7,24,851,B,37.61613969139139,24.359651424271263,1.88080698456957,0.3826405097924937,B,1126.3374590780586,Correct,sub_007_day_24_data.csv,1,600,,Button-Switch at home,,,,,,,,,,,,,d
7,24,852,A,19.303493852879516,46.50575698876193,0.9651746926439756,0.7305107225276334,A,1507.4959999183193,Correct,sub_007_day_24_data.csv,1,600,,Button-Switch at home,,,,,,,,,,,,,k
7,24,853,A,29.953343689473343,41.896768352170014,1.497667184473667,0.6581128983216533,A,1542.6842080196366,Correct,sub_007_day_24_data.csv,1,600,,Button-Switch at home,,,,,,,,,,,,,k
7,24,854,A,52.11673807388802,67.81397062403605,2.605836903694401,1.0652193596161283,A,780.5613339878619,Correct,sub_007_day_24_data.csv,1,600,,Button-Switch at home,,,,,,,,,,,,,k
7,24,855,A,28.7624266817864,52.11937121186618,1.43812133408932,0.8186891685445908,A,662.9573330283165,Correct,sub_007_day_24_data.csv,1,600,,Button-Switch at home,,,,,,,,,,,,,k
7,24,856,A,41.59322018514948,65.52500783943043,2.0796610092574737,1.0292644162738411,A,671.7102919938043,Correct,sub_007_day_24_data.csv,1,600,,Button-Switch at home,,,,,,,,,,,,,k
7,24,857,B,58.468291717512415,34.253493447182564,2.923414585875621,0.5380526168672743,B,1044.68354198616,Correct,sub_007_day_24_data.csv,1,600,,Button-Switch at home,,,,,,,,,,,,,d
7,24,858,B,81.98933487930336,60.20839489087963,4.099466743965167,0.9457512553681032,B,1324.702832964249,Correct,sub_007_day_24_data.csv,1,600,,Button-Switch at home,,,,,,,,,,,,,d
7,24,859,B,78.43559321612771,61.782874138597954,3.9217796608063855,0.9704831175574108,B,2468.3810410788283,Correct,sub_007_day_24_data.csv,1,600,,Button-Switch at home,,,,,,,,,,,,,d
7,24,860,B,66.70882550985395,57.61894903656712,3.335441275492698,0.9050763350042196,B,2815.4667080380023,Correct,sub_007_day_24_data.csv,1,600,,Button-Switch at home,,,,,,,,,,,,,d
7,24,861,B,83.22319339059948,54.69986615869986,4.161159669529974,0.8592234883825821,B,2615.3030829736963,Correct,sub_007_day_24_data.csv,1,600,,Button-Switch at home,,,,,,,,,,,,,d
7,24,862,A,44.55006884969325,62.6456196280193,2.2275034424846623,0.98403509201483,A,2428.9233329473063,Correct,sub_007_day_24_data.csv,1,600,,Button-Switch at home,,,,,,,,,,,,,k
7,24,863,A,50.49744457801769,61.01971943363768,2.5248722289008843,0.9584955114841324,A,783.8497500633821,Correct,sub_007_day_24_data.csv,1,600,,Button-Switch at home,,,,,,,,,,,,,k
7,24,864,B,67.82935353834776,49.40170840102402,3.391467676917388,0.776000220937211,B,900.8292499929668,Correct,sub_007_day_24_data.csv,1,600,,Button-Switch at home,,,,,,,,,,,,,d
7,24,865,B,62.08520382870106,37.8851461595973,3.104260191435053,0.5950984842758322,B,574.0259579615667,Correct,sub_007_day_24_data.csv,1,600,,Button-Switch at home,,,,,,,,,,,,,d
7,24,866,B,60.7304600309519,31.48456331503731,3.0365230015475952,0.4945583640600196,B,612.1714169858024,Correct,sub_007_day_24_data.csv,1,600,,Button-Switch at home,,,,,,,,,,,,,d
7,24,867,B,72.49286804502144,41.17897036893084,3.624643402251072,0.6468377539671246,B,1135.7834589434788,Correct,sub_007_day_24_data.csv,1,600,,Button-Switch at home,,,,,,,,,,,,,d
7,24,868,A,41.12710871146111,65.16710304969138,2.056355435573056,1.0236424609831971,A,1428.604666958563,Correct,sub_007_day_24_data.csv,1,600,,Button-Switch at home,,,,,,,,,,,,,k
7,24,869,B,37.15304622729228,11.396268501205476,1.8576523113646144,0.1790121670086194,B,1091.1569580202922,Correct,sub_007_day_24_data.csv,1,600,,Button-Switch at home,,,,,,,,,,,,,d
7,24,870,A,27.267849447968196,53.59156884530518,1.3633924723984097,0.8418143948938118,A,1260.882374946959,Correct,sub_007_day_24_data.csv,1,600,,Button-Switch at home,,,,,,,,,,,,,k
7,24,871,A,43.650776409341546,67.65952656654474,2.1825388204670775,1.0627933580341018,A,1137.1226250194013,Correct,sub_007_day_24_data.csv,1,600,,Button-Switch at home,,,,,,,,,,,,,k
7,24,872,B,54.414317487782306,28.40777582750103,2.7207158743891156,0.4462282992225148,B,803.2689579995349,Correct,sub_007_day_24_data.csv,1,600,,Button-Switch at home,,,,,,,,,,,,,d
7,24,873,A,16.287885256801655,31.003609528725505,0.8143942628400828,0.4870035596510527,A,1206.8255000049248,Correct,sub_007_day_24_data.csv,1,600,,Button-Switch at home,,,,,,,,,,,,,k
7,24,874,A,55.35899658339077,83.47472457261514,2.7679498291695386,1.3112179073887955,A,3047.410083003342,Correct,sub_007_day_24_data.csv,1,600,,Button-Switch at home,,,,,,,,,,,,,k
7,24,875,A,21.638144211966928,42.14862719352109,1.0819072105983465,0.6620690877503042,A,685.071666026488,Correct,sub_007_day_24_data.csv,1,600,,Button-Switch at home,,,,,,,,,,,,,k
7,24,876,A,17.590576334896976,36.37193527282634,0.8795288167448488,0.5713290232497735,A,538.4767500218004,Correct,sub_007_day_24_data.csv,1,600,,Button-Switch at home,,,,,,,,,,,,,k
7,24,877,B,80.44291789650353,59.986936760354794,4.022145894825177,0.9422725991884304,B,1094.278333010152,Correct,sub_007_day_24_data.csv,1,600,,Button-Switch at home,,,,,,,,,,,,,d
7,24,878,B,66.95713483602731,46.67301740849373,3.3478567418013654,0.7331380430569621,B,948.1184999458492,Correct,sub_007_day_24_data.csv,1,600,,Button-Switch at home,,,,,,,,,,,,,d
7,24,879,A,57.39656630905236,77.59126607975278,2.869828315452618,1.2188007574944113,A,1117.1176659408957,Correct,sub_007_day_24_data.csv,1,600,,Button-Switch at home,,,,,,,,,,,,,k
7,24,880,B,81.0188755395186,53.16573604935245,4.05094377697593,0.8351254289766983,B,870.484207989648,Correct,sub_007_day_24_data.csv,1,600,,Button-Switch at home,,,,,,,,,,,,,d
7,24,881,B,56.65430327446083,36.700878139479904,2.8327151637230417,0.5764960457164215,B,1043.331583030522,Correct,sub_007_day_24_data.csv,1,600,,Button-Switch at home,,,,,,,,,,,,,d
7,24,882,B,57.93391527960949,49.61509963114922,2.8966957639804742,0.7793521625417202,B,2614.678708021529,Correct,sub_007_day_24_data.csv,1,600,,Button-Switch at home,,,,,,,,,,,,,d
7,24,883,A,24.503504770495045,38.38039523702978,1.2251752385247523,0.6028778385926271,A,1938.645542017184,Correct,sub_007_day_24_data.csv,1,600,,Button-Switch at home,,,,,,,,,,,,,k
7,24,884,B,77.1492382210653,47.71323081386177,3.857461911053265,0.7494776770193115,B,3112.1086250059307,Correct,sub_007_day_24_data.csv,1,600,,Button-Switch at home,,,,,,,,,,,,,d
7,24,885,A,35.42790751768982,67.22673915011039,1.771395375884491,1.0559951491939208,A,1368.567708064802,Correct,sub_007_day_24_data.csv,1,600,,Button-Switch at home,,,,,,,,,,,,,k
7,24,886,A,11.48646182623084,37.579500437823846,0.574323091311542,0.590297412505209,A,974.0711669437588,Correct,sub_007_day_24_data.csv,1,600,,Button-Switch at home,,,,,,,,,,,,,k
7,24,887,B,61.335144002918305,28.65110505276043,3.0667572001459154,0.4500505057549078,B,1334.9298329558223,Correct,sub_007_day_24_data.csv,1,600,,Button-Switch at home,,,,,,,,,,,,,d
7,24,888,B,84.44364300516523,68.64783934091663,4.222182150258261,1.0783177387911804,B,1565.5721250222996,Correct,sub_007_day_24_data.csv,1,600,,Button-Switch at home,,,,,,,,,,,,,d
7,24,889,A,59.18172316410622,68.06604428544743,2.9590861582053107,1.069178923430396,A,3526.2237500865012,Correct,sub_007_day_24_data.csv,1,600,,Button-Switch at home,,,,,,,,,,,,,k
7,24,890,A,28.253260269007622,56.021492751562675,1.4126630134503813,0.8799835503572158,A,845.3260420355946,Correct,sub_007_day_24_data.csv,1,600,,Button-Switch at home,,,,,,,,,,,,,k
7,24,891,B,55.902851769825155,35.53912176677892,2.7951425884912577,0.5582472192877288,B,635.6409169966355,Correct,sub_007_day_24_data.csv,1,600,,Button-Switch at home,,,,,,,,,,,,,d
7,24,892,B,70.90853238904229,40.79779288423238,3.545426619452115,0.6408502320389119,B,654.3223339831457,Correct,sub_007_day_24_data.csv,1,600,,Button-Switch at home,,,,,,,,,,,,,d
7,24,893,B,74.04345849525696,51.88802143010618,3.702172924762848,0.8150551346706566,B,1067.280000075698,Correct,sub_007_day_24_data.csv,1,600,,Button-Switch at home,,,,,,,,,,,,,d
7,24,894,B,78.17734148507073,53.83598341764092,3.908867074253536,0.8456536500182131,B,720.6867500208318,Correct,sub_007_day_24_data.csv,1,600,,Button-Switch at home,,,,,,,,,,,,,d
7,24,895,B,54.36791794095974,39.015646191940974,2.718395897047987,0.6128563372583018,B,1097.022208967246,Correct,sub_007_day_24_data.csv,1,600,,Button-Switch at home,,,,,,,,,,,,,d
7,24,896,A,23.38155285248108,48.73292428907733,1.169077642624054,0.7654949846725646,A,991.4130000397564,Correct,sub_007_day_24_data.csv,1,600,,Button-Switch at home,,,,,,,,,,,,,k
7,24,897,B,50.68739998906808,28.739106358137484,2.534369999453404,0.4514328270273021,B,1062.314916984178,Correct,sub_007_day_24_data.csv,1,600,,Button-Switch at home,,,,,,,,,,,,,d
7,24,898,A,52.7091203173561,62.17911641549991,2.635456015867805,0.9767072766881952,A,1208.1883329665288,Correct,sub_007_day_24_data.csv,1,600,,Button-Switch at home,,,,,,,,,,,,,k
7,24,899,A,32.008462217377925,54.40833660271642,1.6004231108688964,0.8546441528256726,A,765.6347920419648,Correct,sub_007_day_24_data.csv,1,600,,Button-Switch at home,,,,,,,,,,,,,k
7,24,900,A,35.36492032941365,63.85421167275311,1.7682460164706826,1.003019611459444,A,1147.544709034264,Correct,sub_007_day_24_data.csv,1,600,,Button-Switch at home,,,,,,,,,,,,,k
7,24,901,A,27.940125053793395,50.94754283717431,1.3970062526896698,0.8002821314785905,A,651.7862079199404,Correct,sub_007_day_24_data.csv,1,600,,Button-Switch at home,,,,,,,,,,,,,k
7,24,902,B,52.749734949527735,40.34408060561255,2.637486747476387,0.6337233362321342,B,974.9982500215992,Correct,sub_007_day_24_data.csv,1,600,,Button-Switch at home,,,,,,,,,,,,,d
7,24,903,B,50.17875225815855,42.678852166630975,2.508937612907928,0.6703978421516634,B,1211.6121250437573,Correct,sub_007_day_24_data.csv,1,600,,Button-Switch at home,,,,,,,,,,,,,d
7,24,904,B,83.27915329507883,55.652785921695745,4.163957664753941,0.874191917017024,B,884.3692089430988,Correct,sub_007_day_24_data.csv,1,600,,Button-Switch at home,,,,,,,,,,,,,d
7,24,905,B,66.51263833176272,41.19830067881268,3.325631916588136,0.6471413937647065,B,1229.266416048631,Correct,sub_007_day_24_data.csv,1,600,,Button-Switch at home,,,,,,,,,,,,,d
7,24,906,B,40.459169662971874,22.059116333870904,2.0229584831485936,0.3465037890958573,B,588.579791947268,Correct,sub_007_day_24_data.csv,1,600,,Button-Switch at home,,,,,,,,,,,,,d
7,24,907,A,31.721086670184945,43.48877773215918,1.586054333509247,0.6831201231847532,A,1246.6122079640627,Correct,sub_007_day_24_data.csv,1,600,,Button-Switch at home,,,,,,,,,,,,,k
7,24,908,A,21.99576045964884,48.54018833238572,1.099788022982442,0.7624674953444398,A,972.3622919991612,Correct,sub_007_day_24_data.csv,1,600,,Button-Switch at home,,,,,,,,,,,,,k
7,24,909,A,51.93846039502712,66.26953016397384,2.596923019751356,1.040959345599937,A,2846.666416968219,Correct,sub_007_day_24_data.csv,1,600,,Button-Switch at home,,,,,,,,,,,,,k
7,24,910,A,63.68431769734566,84.54330396163806,3.184215884867283,1.3280031131804548,A,1572.0014170510694,Correct,sub_007_day_24_data.csv,1,600,,Button-Switch at home,,,,,,,,,,,,,k
7,24,911,A,42.350863913178294,55.8054266970111,2.117543195658915,0.8765895927088689,A,1268.915333901532,Correct,sub_007_day_24_data.csv,1,600,,Button-Switch at home,,,,,,,,,,,,,k
7,24,912,A,39.62138308685052,48.355305037882346,1.981069154342526,0.7595633553455234,A,2108.8140410138294,Correct,sub_007_day_24_data.csv,1,600,,Button-Switch at home,,,,,,,,,,,,,k
7,24,913,A,46.6353781142572,64.15120591530398,2.33176890571286,1.0076847861122251,A,1946.1915000574663,Correct,sub_007_day_24_data.csv,1,600,,Button-Switch at home,,,,,,,,,,,,,k
7,24,914,B,56.89303992156686,35.860670971501335,2.8446519960783427,0.5632981023843467,B,1063.3926669834182,Correct,sub_007_day_24_data.csv,1,600,,Button-Switch at home,,,,,,,,,,,,,d
7,24,915,B,53.34038904852534,42.30727023104994,2.6670194524262674,0.6645610467565232,B,2048.432832933031,Correct,sub_007_day_24_data.csv,1,600,,Button-Switch at home,,,,,,,,,,,,,d
7,24,916,B,74.71757067409605,49.03457587584283,3.7358785337048026,0.7702333167171957,B,680.8509170077741,Correct,sub_007_day_24_data.csv,1,600,,Button-Switch at home,,,,,,,,,,,,,d
7,24,917,A,65.70942976740824,82.17609685430622,3.2854714883704115,1.2908191108908584,A,955.1587499445304,Correct,sub_007_day_24_data.csv,1,600,,Button-Switch at home,,,,,,,,,,,,,k
7,24,918,A,55.91497312373218,66.84716910739395,2.795748656186609,1.050032876905317,A,1425.776083022356,Correct,sub_007_day_24_data.csv,1,600,,Button-Switch at home,,,,,,,,,,,,,k
7,24,919,A,49.32574580038776,74.82307586169017,2.466287290019388,1.175318127230388,A,1734.660041052848,Correct,sub_007_day_24_data.csv,1,600,,Button-Switch at home,,,,,,,,,,,,,k
7,24,920,A,41.49462377000648,57.790699239171595,2.074731188500324,0.9077741808779936,A,683.4668329684064,Correct,sub_007_day_24_data.csv,1,600,,Button-Switch at home,,,,,,,,,,,,,k
7,24,921,B,86.56727995095451,58.649481981776454,4.328363997547726,0.9212639086539792,B,1568.1408749660477,Correct,sub_007_day_24_data.csv,1,600,,Button-Switch at home,,,,,,,,,,,,,d
7,24,922,B,60.78964235117443,46.93513381719387,3.0394821175587214,0.7372553579767508,B,1544.611542019993,Correct,sub_007_day_24_data.csv,1,600,,Button-Switch at home,,,,,,,,,,,,,d
7,24,923,A,45.917215072476424,56.81822144514209,2.295860753623822,0.8924985354104821,A,1358.7083329912275,Correct,sub_007_day_24_data.csv,1,600,,Button-Switch at home,,,,,,,,,,,,,k
7,24,924,B,73.4374608752449,57.77336733382147,3.6718730437622447,0.9075019319453904,B,2096.008500084281,Correct,sub_007_day_24_data.csv,1,600,,Button-Switch at home,,,,,,,,,,,,,d
7,24,925,B,46.52771879810377,34.97025353069149,2.3263859399051885,0.5493114579309645,B,2071.49975001812,Correct,sub_007_day_24_data.csv,1,600,,Button-Switch at home,,,,,,,,,,,,,d
7,24,926,B,53.24056751708669,43.24434899962437,2.662028375854334,0.6792806456324652,B,3428.881832980551,Correct,sub_007_day_24_data.csv,1,600,,Button-Switch at home,,,,,,,,,,,,,d
7,24,927,B,68.00186296899061,50.20015713574348,3.4000931484495305,0.7885422243335248,B,1018.9479159889744,Correct,sub_007_day_24_data.csv,1,600,,Button-Switch at home,,,,,,,,,,,,,d
7,24,928,A,20.335214501937507,50.55697357531143,1.0167607250968755,0.7941470838596585,A,1144.2757910117507,Correct,sub_007_day_24_data.csv,1,600,,Button-Switch at home,,,,,,,,,,,,,k
7,24,929,A,66.21789070120974,79.40939885977029,3.310894535060487,1.24735992041918,A,1020.7352909492328,Correct,sub_007_day_24_data.csv,1,600,,Button-Switch at home,,,,,,,,,,,,,k
7,24,930,B,74.75929810460072,49.72258933628618,3.737964905230036,0.7810406068816941,B,1112.534458981827,Correct,sub_007_day_24_data.csv,1,600,,Button-Switch at home,,,,,,,,,,,,,d
7,24,931,A,33.28035962130567,64.46131931492664,1.6640179810652835,1.0125560360023969,A,710.6178749818355,Correct,sub_007_day_24_data.csv,1,600,,Button-Switch at home,,,,,,,,,,,,,k
7,24,932,A,57.735881395802934,66.78152433794303,2.886794069790147,1.0490017312780489,A,648.2857499504462,Correct,sub_007_day_24_data.csv,1,600,,Button-Switch at home,,,,,,,,,,,,,k
7,24,933,B,79.25910229320937,66.02540061017227,3.962955114660468,1.0371245675362013,B,791.2797080352902,Correct,sub_007_day_24_data.csv,1,600,,Button-Switch at home,,,,,,,,,,,,,d
7,24,934,B,42.56324005001861,32.74538923120247,2.1281620025009302,0.5143633712384201,B,1615.744458977133,Correct,sub_007_day_24_data.csv,1,600,,Button-Switch at home,,,,,,,,,,,,,d
7,24,935,A,32.51444354599522,63.25459065264082,1.625722177299761,0.99360078650083,A,903.0470419675112,Correct,sub_007_day_24_data.csv,1,600,,Button-Switch at home,,,,,,,,,,,,,k
7,24,936,B,73.06069372128765,47.92963642817561,3.653034686064382,0.7528769684599311,B,1085.0168749457223,Correct,sub_007_day_24_data.csv,1,600,,Button-Switch at home,,,,,,,,,,,,,d
7,24,937,A,68.71271387736509,85.01448799399431,3.435635693868255,1.335404454653151,A,1019.5703339995816,Correct,sub_007_day_24_data.csv,1,600,,Button-Switch at home,,,,,,,,,,,,,k
7,24,938,A,15.563573189163376,30.48651544021165,0.7781786594581688,0.4788810647026036,A,642.6738339941949,Correct,sub_007_day_24_data.csv,1,600,,Button-Switch at home,,,,,,,,,,,,,k
7,24,939,B,78.07398290111885,62.92058447895255,3.9036991450559424,0.9883542297932664,B,1094.585874932818,Correct,sub_007_day_24_data.csv,1,600,,Button-Switch at home,,,,,,,,,,,,,d
7,24,940,B,74.18878171378908,46.53678220553509,3.709439085689454,0.7309980654930862,B,1258.4062920650467,Correct,sub_007_day_24_data.csv,1,600,,Button-Switch at home,,,,,,,,,,,,,d
7,24,941,B,67.0396609468553,44.301554005187306,3.351983047342765,0.6958871830265396,B,948.0210419278592,Correct,sub_007_day_24_data.csv,1,600,,Button-Switch at home,,,,,,,,,,,,,d
7,24,942,B,69.23789564099876,58.64807710461069,3.461894782049938,0.9212418408950632,B,797.645082930103,Correct,sub_007_day_24_data.csv,1,600,,Button-Switch at home,,,,,,,,,,,,,d
7,24,943,B,66.5832116917555,51.910491800743394,3.3291605845877745,0.815408098427243,B,1130.0664999289438,Correct,sub_007_day_24_data.csv,1,600,,Button-Switch at home,,,,,,,,,,,,,d
7,24,944,B,59.36152531287396,39.473490608217496,2.968076265643698,0.620048140531609,B,2265.947874984704,Correct,sub_007_day_24_data.csv,1,600,,Button-Switch at home,,,,,,,,,,,,,d
7,24,945,A,58.553325524816074,77.88187441879751,2.927666276240803,1.2233656226094856,A,993.3368749916552,Correct,sub_007_day_24_data.csv,1,600,,Button-Switch at home,,,,,,,,,,,,,k
7,24,946,B,74.57104822484004,52.40869240689536,3.7285524112420023,0.8232338152487483,B,1378.216624958441,Correct,sub_007_day_24_data.csv,1,600,,Button-Switch at home,,,,,,,,,,,,,d
7,24,947,B,49.234053669997685,31.497671715363317,2.461702683499884,0.4947642703308421,B,1674.1153750335798,Correct,sub_007_day_24_data.csv,1,600,,Button-Switch at home,,,,,,,,,,,,,d
7,24,948,B,59.90800866444562,52.44021191632239,2.995400433222281,0.8237289225450517,B,1880.5975000141189,Correct,sub_007_day_24_data.csv,1,600,,Button-Switch at home,,,,,,,,,,,,,d
7,24,949,B,74.642988462241,47.26606875505164,3.7321494231120496,0.7424536718247015,B,855.56712502148,Correct,sub_007_day_24_data.csv,1,600,,Button-Switch at home,,,,,,,,,,,,,d
7,24,950,B,55.948346369834354,41.04137694808732,2.7974173184917173,0.644676441566603,B,1173.106334055774,Correct,sub_007_day_24_data.csv,1,600,,Button-Switch at home,,,,,,,,,,,,,d
7,24,951,A,39.9998759134812,57.93863770618256,1.99999379567406,0.9100979928837186,A,2181.3105839537457,Correct,sub_007_day_24_data.csv,1,600,,Button-Switch at home,,,,,,,,,,,,,k
7,24,952,A,40.65510394741347,65.20897110931847,2.0327551973706735,1.02430012292592,A,1170.2432919992134,Correct,sub_007_day_24_data.csv,1,600,,Button-Switch at home,,,,,,,,,,,,,k
7,24,953,B,73.89833663070027,62.99378386673657,3.6949168315350134,0.989504043087814,B,1460.990541963838,Correct,sub_007_day_24_data.csv,1,600,,Button-Switch at home,,,,,,,,,,,,,d
7,24,954,B,70.04892002199246,51.231609533189285,3.5024460010996226,0.8047442407052413,B,1483.2269579637796,Correct,sub_007_day_24_data.csv,1,600,,Button-Switch at home,,,,,,,,,,,,,d
7,24,955,B,32.982753788283375,14.545617113416348,1.649137689414169,0.2284820193271938,B,848.9304169779643,Correct,sub_007_day_24_data.csv,1,600,,Button-Switch at home,,,,,,,,,,,,,d
7,24,956,A,28.943472451669507,45.351294571324566,1.4471736225834753,0.7123764692802996,A,1453.4457080299037,Correct,sub_007_day_24_data.csv,1,600,,Button-Switch at home,,,,,,,,,,,,,k
7,24,957,A,45.900777795408175,56.446138886395,2.295038889770409,0.8866538762450383,A,1338.3962919469925,Correct,sub_007_day_24_data.csv,1,600,,Button-Switch at home,,,,,,,,,,,,,k
7,24,958,A,27.047009674940817,48.253191179877646,1.3523504837470406,0.7579593546148372,A,779.1055410634726,Correct,sub_007_day_24_data.csv,1,600,,Button-Switch at home,,,,,,,,,,,,,k
7,24,959,B,67.32083407781101,41.78316168470798,3.366041703890551,0.6563283689621654,B,766.7110420297831,Correct,sub_007_day_24_data.csv,1,600,,Button-Switch at home,,,,,,,,,,,,,d
7,24,960,A,41.23810820619633,67.97705679545818,2.0619054103098167,1.0677811112063378,A,1371.0488330107182,Correct,sub_007_day_24_data.csv,1,600,,Button-Switch at home,,,,,,,,,,,,,k
7,24,961,A,34.06890476884897,64.35022104385749,1.7034452384424483,1.01081090844131,A,791.3440000265837,Correct,sub_007_day_24_data.csv,1,600,,Button-Switch at home,,,,,,,,,,,,,k
7,24,962,A,51.48848105369827,82.10211986609706,2.574424052684914,1.2896570830773957,A,1164.365250035189,Correct,sub_007_day_24_data.csv,1,600,,Button-Switch at home,,,,,,,,,,,,,k
7,24,963,B,51.22661507055714,34.071441721285986,2.561330753527857,0.5351929550440241,B,1810.561541002244,Correct,sub_007_day_24_data.csv,1,600,,Button-Switch at home,,,,,,,,,,,,,d
7,24,964,B,52.80697558040407,38.184178433664094,2.6403487790202034,0.5997956722528047,B,967.3396250000224,Correct,sub_007_day_24_data.csv,1,600,,Button-Switch at home,,,,,,,,,,,,,d
7,24,965,B,48.33451477358429,27.37444838645235,2.4167257386792143,0.4299968297347583,B,1720.3425000188872,Correct,sub_007_day_24_data.csv,1,600,,Button-Switch at home,,,,,,,,,,,,,d
7,24,966,A,58.478145254679006,82.0546610677238,2.9239072627339504,1.2889116020158076,A,1292.7593329222873,Correct,sub_007_day_24_data.csv,1,600,,Button-Switch at home,,,,,,,,,,,,,k
7,24,967,B,33.17070297861314,16.870216639357633,1.6585351489306572,0.2649967432933711,B,1151.7549169948325,Correct,sub_007_day_24_data.csv,1,600,,Button-Switch at home,,,,,,,,,,,,,d
7,24,968,B,61.30209556998945,47.97670931039004,3.0651047784994723,0.753616387564672,B,1889.1154170269149,Correct,sub_007_day_24_data.csv,1,600,,Button-Switch at home,,,,,,,,,,,,,d
7,24,969,A,27.20480613554557,59.38136539074042,1.3602403067772786,0.9327603063584066,A,1520.1812500599772,Correct,sub_007_day_24_data.csv,1,600,,Button-Switch at home,,,,,,,,,,,,,k
7,24,970,B,77.42930846735217,56.64056242691404,3.871465423367608,0.8897078740779361,B,1502.1558329463005,Correct,sub_007_day_24_data.csv,1,600,,Button-Switch at home,,,,,,,,,,,,,d
7,24,971,B,72.70771154083447,41.35874205356004,3.635385577041723,0.6496616009858973,B,1925.1465420238671,Correct,sub_007_day_24_data.csv,1,600,,Button-Switch at home,,,,,,,,,,,,,d
7,24,972,A,11.443991955525394,34.34389319849653,0.5721995977762697,0.5394726128403458,A,578.651792020537,Correct,sub_007_day_24_data.csv,1,600,,Button-Switch at home,,,,,,,,,,,,,k
7,24,973,B,57.57769935284843,33.76008420961041,2.878884967642421,0.5303021626874243,B,1050.338874920271,Correct,sub_007_day_24_data.csv,1,600,,Button-Switch at home,,,,,,,,,,,,,d
7,24,974,B,72.20415119129622,52.08567301772002,3.610207559564811,0.8181598385487466,B,1224.8206250369549,Correct,sub_007_day_24_data.csv,1,600,,Button-Switch at home,,,,,,,,,,,,,d
7,24,975,A,21.666907967851053,42.88988305114291,1.0833453983925525,0.6737127075339798,A,735.3970829863101,Correct,sub_007_day_24_data.csv,1,600,,Button-Switch at home,,,,,,,,,,,,,k
7,24,976,A,44.306618589474816,58.55777686389527,2.215330929473741,0.9198234080308184,A,2436.3277920056134,Correct,sub_007_day_24_data.csv,1,600,,Button-Switch at home,,,,,,,,,,,,,k
7,24,977,B,58.35863659315692,37.81231490926341,2.9179318296578463,0.5939544536708287,B,599.1350410040468,Correct,sub_007_day_24_data.csv,1,600,,Button-Switch at home,,,,,,,,,,,,,d
7,24,978,B,53.262274366329926,40.87041634521235,2.663113718316497,0.6419909986963765,B,633.8317920453846,Correct,sub_007_day_24_data.csv,1,600,,Button-Switch at home,,,,,,,,,,,,,d
7,24,979,A,60.26463280175254,82.7664339905452,3.013231640087627,1.3000921049426066,A,1258.4856249159202,Correct,sub_007_day_24_data.csv,1,600,,Button-Switch at home,,,,,,,,,,,,,k
7,24,980,A,40.31147556101122,52.639133785777055,2.0155737780505607,0.8268535799636374,A,1529.9329169793054,Correct,sub_007_day_24_data.csv,1,600,,Button-Switch at home,,,,,,,,,,,,,k
7,24,981,A,36.379109750549546,45.407256152661205,1.8189554875274776,0.713255511744352,A,1448.5867499606684,Correct,sub_007_day_24_data.csv,1,600,,Button-Switch at home,,,,,,,,,,,,,k
7,24,982,A,12.686811630244195,30.60497938377755,0.6343405815122098,0.4807418919767132,A,894.8463749838993,Correct,sub_007_day_24_data.csv,1,600,,Button-Switch at home,,,,,,,,,,,,,k
7,24,983,B,47.05760672081445,26.088529898994235,2.352880336040722,0.4097976693681897,B,1405.0140409963203,Correct,sub_007_day_24_data.csv,1,600,,Button-Switch at home,,,,,,,,,,,,,d
7,24,984,B,58.97286810383165,28.929298058762264,2.9486434051915817,0.4544203512745849,B,1611.1792080337182,Correct,sub_007_day_24_data.csv,1,600,,Button-Switch at home,,,,,,,,,,,,,d
7,24,985,A,13.238741243151004,33.47541185781584,0.6619370621575501,0.5258305398420345,A,926.2919999891892,Correct,sub_007_day_24_data.csv,1,600,,Button-Switch at home,,,,,,,,,,,,,k
7,24,986,A,55.59239853637827,68.7218208033478,2.7796199268189135,1.0794798368855585,A,2570.670833927579,Correct,sub_007_day_24_data.csv,1,600,,Button-Switch at home,,,,,,,,,,,,,k
7,24,987,B,68.23954375187449,47.15587017830558,3.411977187593725,0.740722676628994,B,880.9976249467582,Correct,sub_007_day_24_data.csv,1,600,,Button-Switch at home,,,,,,,,,,,,,d
7,24,988,B,67.94215792415491,42.85070632625377,3.3971078962077454,0.6730973209784626,B,1511.4663750864563,Correct,sub_007_day_24_data.csv,1,600,,Button-Switch at home,,,,,,,,,,,,,d
7,24,989,B,71.02861494055546,55.583675694080426,3.5514307470277733,0.873106336100203,B,887.0925420196727,Correct,sub_007_day_24_data.csv,1,600,,Button-Switch at home,,,,,,,,,,,,,d
7,24,990,A,24.38049491934184,43.342405285200314,1.2190247459670922,0.6808209101644837,A,961.2436250317842,Correct,sub_007_day_24_data.csv,1,600,,Button-Switch at home,,,,,,,,,,,,,k
7,24,991,B,68.6105016444474,36.467465274567346,3.4305250822223696,0.5728296050081083,B,1213.5832080384716,Correct,sub_007_day_24_data.csv,1,600,,Button-Switch at home,,,,,,,,,,,,,d
7,24,992,A,68.91555889740775,86.99950699437127,3.445777944870388,1.3665850601972531,A,1120.6081659765914,Correct,sub_007_day_24_data.csv,1,600,,Button-Switch at home,,,,,,,,,,,,,k
7,24,993,A,25.92799660029402,37.68275624470747,1.2963998300147008,0.5919193509269394,A,781.9174999604002,Correct,sub_007_day_24_data.csv,1,600,,Button-Switch at home,,,,,,,,,,,,,k
7,24,994,B,69.34851944461741,37.447825004330234,3.4674259722308705,0.5882290596326001,B,1126.5816659433767,Correct,sub_007_day_24_data.csv,1,600,,Button-Switch at home,,,,,,,,,,,,,d
7,24,995,B,81.00644103848342,55.95932883831619,4.050322051924171,0.879007081891348,B,1591.8044589925555,Correct,sub_007_day_24_data.csv,1,600,,Button-Switch at home,,,,,,,,,,,,,d
7,24,996,B,77.87078435193192,66.17017861329957,3.893539217596595,1.0393987350913318,B,1426.0403329972178,Correct,sub_007_day_24_data.csv,1,600,,Button-Switch at home,,,,,,,,,,,,,d
7,24,997,B,70.44640538293814,47.60204683145287,3.5223202691469067,0.747731203107648,B,706.1722920043394,Correct,sub_007_day_24_data.csv,1,600,,Button-Switch at home,,,,,,,,,,,,,d
7,24,998,A,25.628111970621223,56.09443875276463,1.281405598531061,0.8811293834646399,A,1336.5366249345243,Correct,sub_007_day_24_data.csv,1,600,,Button-Switch at home,,,,,,,,,,,,,k
7,24,999,B,66.86756288647243,58.89515869336694,3.3433781443236215,0.925122989415433,B,1737.4664170201868,Correct,sub_007_day_24_data.csv,1,600,,Button-Switch at home,,,,,,,,,,,,,d
7,24,1000,A,51.432887001783705,61.26220639763723,2.5716443500891852,0.9623044878075936,A,1648.8927499158308,Correct,sub_007_day_24_data.csv,1,600,,Button-Switch at home,,,,,,,,,,,,,k
7,24,1001,B,79.08669237160811,59.98333193308521,3.954334618580406,0.9422159746940928,B,768.8594579230994,Correct,sub_007_day_24_data.csv,1,600,,Button-Switch at home,,,,,,,,,,,,,d
7,24,1002,A,27.73664495061315,55.92790253200297,1.3868322475306576,0.8785134386261325,A,675.5816249642521,Correct,sub_007_day_24_data.csv,1,600,,Button-Switch at home,,,,,,,,,,,,,k
7,24,1003,B,45.99660175592724,26.3024874455591,2.2998300877963618,0.4131585066505311,B,938.3786250837148,Correct,sub_007_day_24_data.csv,1,600,,Button-Switch at home,,,,,,,,,,,,,d
7,24,1004,A,36.55265686325857,54.10542195928146,1.8276328431629285,0.8498859807332726,A,1801.588459056802,Correct,sub_007_day_24_data.csv,1,600,,Button-Switch at home,,,,,,,,,,,,,k
7,24,1005,B,73.28568143355491,47.766054561522616,3.664284071677746,0.7503074305072432,B,875.6229589926079,Correct,sub_007_day_24_data.csv,1,600,,Button-Switch at home,,,,,,,,,,,,,d
7,24,1006,B,52.37535246267784,24.602366055150675,2.6187676231338917,0.3864530622989413,B,690.7840420026332,Correct,sub_007_day_24_data.csv,1,600,,Button-Switch at home,,,,,,,,,,,,,d
7,24,1007,B,62.286919956212984,41.42327347952809,3.114345997810649,0.6506752582546318,B,686.4488329738379,Correct,sub_007_day_24_data.csv,1,600,,Button-Switch at home,,,,,,,,,,,,,d
7,24,1008,A,63.05054856543316,83.75834897266515,3.1525274282716578,1.3156730690466751,A,1209.0920410118997,Correct,sub_007_day_24_data.csv,1,600,,Button-Switch at home,,,,,,,,,,,,,k
7,24,1009,B,73.54070910671729,47.34206911279526,3.677035455335864,0.7436474826524893,B,1060.1491669658571,Correct,sub_007_day_24_data.csv,1,600,,Button-Switch at home,,,,,,,,,,,,,d
7,24,1010,B,53.96704646007612,39.65586112950534,2.698352323003806,0.6229128099811551,B,2931.4240000676364,Correct,sub_007_day_24_data.csv,1,600,,Button-Switch at home,,,,,,,,,,,,,d
7,24,1011,A,37.7126948316453,49.871504745598074,1.8856347415822652,0.783379764661197,A,1025.3680830355734,Correct,sub_007_day_24_data.csv,1,600,,Button-Switch at home,,,,,,,,,,,,,k
7,24,1012,B,57.84403823238002,42.00375559869081,2.892201911619001,0.659793450060141,B,1149.1242919582874,Correct,sub_007_day_24_data.csv,1,600,,Button-Switch at home,,,,,,,,,,,,,d
7,24,1013,A,42.8852167204422,59.009875130451576,2.1442608360221103,0.9269249509953884,A,782.1190840331838,Correct,sub_007_day_24_data.csv,1,600,,Button-Switch at home,,,,,,,,,,,,,k
7,24,1014,B,79.10198734021222,50.74511007234947,3.9550993670106105,0.7971023250444925,B,711.5839169127867,Correct,sub_007_day_24_data.csv,1,600,,Button-Switch at home,,,,,,,,,,,,,d
7,24,1015,B,52.73959008402716,23.840011647438494,2.6369795042013577,0.3744780272654394,B,886.3307500723749,Correct,sub_007_day_24_data.csv,1,600,,Button-Switch at home,,,,,,,,,,,,,d
7,24,1016,B,72.00447547274251,55.573719966479736,3.6002237736371256,0.8729499518967456,B,778.6056250333786,Correct,sub_007_day_24_data.csv,1,600,,Button-Switch at home,,,,,,,,,,,,,d
7,24,1017,A,36.10357614922828,67.73127089513333,1.805178807461414,1.0639203153122554,A,1234.8397080786526,Correct,sub_007_day_24_data.csv,1,600,,Button-Switch at home,,,,,,,,,,,,,k
7,24,1018,B,86.59308699793716,67.70995735677353,4.329654349896859,1.0635855230345894,B,734.8175840452313,Correct,sub_007_day_24_data.csv,1,600,,Button-Switch at home,,,,,,,,,,,,,d
7,24,1019,A,37.14266481911384,45.52353349645283,1.857133240955692,0.7150819919895254,A,1500.2069580368698,Correct,sub_007_day_24_data.csv,1,600,,Button-Switch at home,,,,,,,,,,,,,k
7,24,1020,A,42.570532013905265,72.98522735764136,2.1285266006952632,1.1464492704367344,A,1400.1270839944482,Correct,sub_007_day_24_data.csv,1,600,,Button-Switch at home,,,,,,,,,,,,,k
7,24,1021,A,66.3398852383101,86.97409357526685,3.316994261915505,1.366185867143448,A,881.6962910350412,Correct,sub_007_day_24_data.csv,1,600,,Button-Switch at home,,,,,,,,,,,,,k
7,24,1022,A,37.295760416702045,61.06330269133747,1.8647880208351024,0.9591801156951782,A,782.3839170159772,Correct,sub_007_day_24_data.csv,1,600,,Button-Switch at home,,,,,,,,,,,,,k
7,24,1023,B,42.05450727148507,23.07406098753452,2.1027253635742538,0.3624465024346064,B,606.3725419808179,Correct,sub_007_day_24_data.csv,1,600,,Button-Switch at home,,,,,,,,,,,,,d
7,24,1024,A,57.511711762710654,80.19194721056222,2.8755855881355323,1.2596521611688138,A,927.1494169952348,Correct,sub_007_day_24_data.csv,1,600,,Button-Switch at home,,,,,,,,,,,,,k
7,24,1025,B,59.26698467626594,52.3015210384858,2.963349233813297,0.821550371330395,B,1045.7953750155866,Correct,sub_007_day_24_data.csv,1,600,,Button-Switch at home,,,,,,,,,,,,,d
7,24,1026,B,49.488618334489814,35.16760961680382,2.474430916724491,0.5524115200823233,B,1379.4381669722495,Correct,sub_007_day_24_data.csv,1,600,,Button-Switch at home,,,,,,,,,,,,,d
7,24,1027,B,77.8062535660394,59.30463218591317,3.89031267830197,0.931554983995548,B,1790.7614160794765,Correct,sub_007_day_24_data.csv,1,600,,Button-Switch at home,,,,,,,,,,,,,d
7,24,1028,B,65.09183448699669,42.60959375690593,3.2545917243498343,0.6693099335957059,B,780.3236249601468,Correct,sub_007_day_24_data.csv,1,600,,Button-Switch at home,,,,,,,,,,,,,d
7,24,1029,B,72.60866311461598,52.79602753674618,3.630433155730799,0.8293180612408312,B,834.0247500455007,Correct,sub_007_day_24_data.csv,1,600,,Button-Switch at home,,,,,,,,,,,,,d
7,24,1030,B,78.03118458991338,66.63986318053885,3.901559229495669,1.046776523021049,B,762.9974170122296,Correct,sub_007_day_24_data.csv,1,600,,Button-Switch at home,,,,,,,,,,,,,d
7,24,1031,B,64.22197886003346,50.77354680240936,3.211098943001673,0.7975490081557338,B,1165.8365840557965,Correct,sub_007_day_24_data.csv,1,600,,Button-Switch at home,,,,,,,,,,,,,d
7,24,1032,B,64.2229591004908,34.91122815555075,3.21114795502454,0.5483842895063769,B,761.8300409521908,Correct,sub_007_day_24_data.csv,1,600,,Button-Switch at home,,,,,,,,,,,,,d
7,24,1033,B,66.01942175165433,57.01471897798427,3.300971087582717,0.8955851114386097,B,1146.5761250583455,Correct,sub_007_day_24_data.csv,1,600,,Button-Switch at home,,,,,,,,,,,,,d
7,24,1034,B,39.426786439955066,27.992445419658942,1.9713393219977533,0.4397043044320689,B,882.3049169732258,Correct,sub_007_day_24_data.csv,1,600,,Button-Switch at home,,,,,,,,,,,,,d
7,24,1035,A,32.12066381351971,62.08980412540887,1.6060331906759855,0.9753043625160686,A,2693.606124958023,Correct,sub_007_day_24_data.csv,1,600,,Button-Switch at home,,,,,,,,,,,,,k
7,24,1036,A,58.84872152665193,73.17524543005837,2.9424360763325965,1.149434067338507,A,1360.4540409287438,Correct,sub_007_day_24_data.csv,1,600,,Button-Switch at home,,,,,,,,,,,,,k
7,24,1037,A,37.676927516775685,50.73291705203577,1.883846375838784,0.7969107975292797,A,1173.1896250275895,Correct,sub_007_day_24_data.csv,1,600,,Button-Switch at home,,,,,,,,,,,,,k
7,24,1038,B,44.481030436098024,29.054085100425898,2.2240515218049013,0.4563805015413533,B,986.4270000252872,Correct,sub_007_day_24_data.csv,1,600,,Button-Switch at home,,,,,,,,,,,,,d
7,24,1039,A,32.326208843950525,51.382545764472255,1.6163104421975265,0.8071151414820368,A,1952.2163749206811,Correct,sub_007_day_24_data.csv,1,600,,Button-Switch at home,,,,,,,,,,,,,k
7,24,1040,A,50.32229353524322,63.96684004330634,2.516114676762161,1.0047887737670231,A,2891.5084580658004,Correct,sub_007_day_24_data.csv,1,600,,Button-Switch at home,,,,,,,,,,,,,k
7,24,1041,A,19.46686220825034,41.49630434682395,0.9733431104125172,0.6518224244355416,A,684.6376670291647,Correct,sub_007_day_24_data.csv,1,600,,Button-Switch at home,,,,,,,,,,,,,k
7,24,1042,A,59.64616719643955,68.63093916583283,2.9823083598219773,1.078052271461742,A,888.3314579725266,Correct,sub_007_day_24_data.csv,1,600,,Button-Switch at home,,,,,,,,,,,,,k
7,24,1043,A,59.80679180031463,73.43794278554941,2.990339590015731,1.153560507749148,A,874.1691670147702,Correct,sub_007_day_24_data.csv,1,600,,Button-Switch at home,,,,,,,,,,,,,k
7,24,1044,A,62.53300439164829,74.59106311978115,3.126650219582414,1.1716736796027851,A,662.1422080788761,Correct,sub_007_day_24_data.csv,1,600,,Button-Switch at home,,,,,,,,,,,,,k
7,24,1045,B,74.87650270396703,45.2827099586666,3.743825135198352,0.7112991447039217,B,667.4136660294607,Correct,sub_007_day_24_data.csv,1,600,,Button-Switch at home,,,,,,,,,,,,,d
7,24,1046,A,36.96953928257973,58.495098678178984,1.8484769641289864,0.9188388613918858,A,682.8884590649977,Correct,sub_007_day_24_data.csv,1,600,,Button-Switch at home,,,,,,,,,,,,,k
7,24,1047,A,36.62774131989923,57.988385202541615,1.8313870659949616,0.9108794247291992,A,594.00079108309,Correct,sub_007_day_24_data.csv,1,600,,Button-Switch at home,,,,,,,,,,,,,k
7,24,1048,A,37.43606687263932,52.188961800290045,1.871803343631966,0.8197822949513477,A,1089.864833978936,Correct,sub_007_day_24_data.csv,1,600,,Button-Switch at home,,,,,,,,,,,,,k
7,24,1049,A,64.34891164614939,76.97016532932156,3.21744558230747,1.2090445297209422,A,1258.7887089466676,Correct,sub_007_day_24_data.csv,1,600,,Button-Switch at home,,,,,,,,,,,,,k
7,24,1050,B,46.23749087439931,30.48502575098197,2.311874543719966,0.478857664718903,B,1475.2236669883132,Correct,sub_007_day_24_data.csv,1,600,,Button-Switch at home,,,,,,,,,,,,,d
7,24,1051,B,71.28587728252529,59.98727229615663,3.5642938641262645,0.9422778697724812,B,2199.282832909375,Correct,sub_007_day_24_data.csv,1,600,,Button-Switch at home,,,,,,,,,,,,,d
7,24,1052,B,35.58233910542332,20.386949374723063,1.7791169552711663,0.320237451923685,B,1290.2181249810385,Correct,sub_007_day_24_data.csv,1,600,,Button-Switch at home,,,,,,,,,,,,,d
7,24,1053,B,44.9237140582546,37.724957801868285,2.2461857029127303,0.5925822514366718,B,1255.635124980472,Correct,sub_007_day_24_data.csv,1,600,,Button-Switch at home,,,,,,,,,,,,,d
7,24,1054,A,39.24204919914147,71.67516317859985,1.962102459957074,1.1258708304336944,A,1082.0926249725744,Correct,sub_007_day_24_data.csv,1,600,,Button-Switch at home,,,,,,,,,,,,,k
7,24,1055,B,69.44237454141926,57.93098623667254,3.472118727070963,0.9099778038817092,B,754.9742090050131,Correct,sub_007_day_24_data.csv,1,600,,Button-Switch at home,,,,,,,,,,,,,d
7,24,1056,A,17.542178808518234,45.141873466038184,0.8771089404259116,0.7090868902509279,A,2042.787958052941,Correct,sub_007_day_24_data.csv,1,600,,Button-Switch at home,,,,,,,,,,,,,k
7,24,1057,A,46.187717785114096,63.00263054713746,2.309385889255705,0.9896430064185946,A,1924.2866659769788,Correct,sub_007_day_24_data.csv,1,600,,Button-Switch at home,,,,,,,,,,,,,k
7,24,1058,A,14.916943154827344,35.16888663870938,0.7458471577413672,0.552431579495508,A,583.8398330379277,Correct,sub_007_day_24_data.csv,1,600,,Button-Switch at home,,,,,,,,,,,,,k
7,24,1059,A,56.934395045292696,85.20525347909808,2.846719752264635,1.3384009918859534,A,825.4952499410138,Correct,sub_007_day_24_data.csv,1,600,,Button-Switch at home,,,,,,,,,,,,,k
7,24,1060,A,54.93170358606952,69.27743626012668,2.7465851793034757,1.0882074240717456,A,1377.7099169092253,Correct,sub_007_day_24_data.csv,1,600,,Button-Switch at home,,,,,,,,,,,,,k
7,24,1061,B,57.84493536039685,30.738705249859027,2.892246768019843,0.4828424529690956,B,1279.0257080923766,Correct,sub_007_day_24_data.csv,1,600,,Button-Switch at home,,,,,,,,,,,,,d
7,24,1062,A,31.13840965559992,64.46442065249312,1.5569204827799965,1.012604751698973,A,2911.1657919129357,Correct,sub_007_day_24_data.csv,1,600,,Button-Switch at home,,,,,,,,,,,,,k
7,24,1063,A,27.652152853522416,38.06758800852212,1.382607642676121,0.5979642741372799,B,1202.7312919963151,Incorrect,sub_007_day_24_data.csv,0,600,,Button-Switch at home,,,,,,,,,,,,,d
7,24,1064,A,22.427142137537754,41.300599981564545,1.1213571068768875,0.6487483074546696,A,1250.8202919270843,Correct,sub_007_day_24_data.csv,1,600,,Button-Switch at home,,,,,,,,,,,,,k
7,24,1065,B,84.21210361247049,61.7640334329258,4.210605180623524,0.9701871684447704,B,980.2144169807434,Correct,sub_007_day_24_data.csv,1,600,,Button-Switch at home,,,,,,,,,,,,,d
7,24,1066,A,45.543001651846936,67.906691435225,2.277150082592347,1.0666758147124589,A,1556.125291972421,Correct,sub_007_day_24_data.csv,1,600,,Button-Switch at home,,,,,,,,,,,,,k
7,24,1067,A,49.61659718865287,75.49749190398323,2.4808298594326432,1.185911829650043,A,888.3565409341827,Correct,sub_007_day_24_data.csv,1,600,,Button-Switch at home,,,,,,,,,,,,,k
7,24,1068,A,48.88079586652293,78.06607847104581,2.444039793326146,1.2262590930960091,A,595.1010839780793,Correct,sub_007_day_24_data.csv,1,600,,Button-Switch at home,,,,,,,,,,,,,k
7,24,1069,A,27.481768977647477,43.64886990094156,1.374088448882374,0.6856348450914732,A,547.0769579987973,Correct,sub_007_day_24_data.csv,1,600,,Button-Switch at home,,,,,,,,,,,,,k
7,24,1070,A,47.21372852117411,69.52032226201867,2.3606864260587055,1.092022668467764,A,765.958167030476,Correct,sub_007_day_24_data.csv,1,600,,Button-Switch at home,,,,,,,,,,,,,k
7,24,1071,A,33.97828999917,56.88170205878069,1.6989144999585,0.8934956865577441,A,1121.300375089049,Correct,sub_007_day_24_data.csv,1,600,,Button-Switch at home,,,,,,,,,,,,,k
7,24,1072,A,63.54089227967086,75.825317041605,3.1770446139835427,1.191061294870116,A,1795.125083066523,Correct,sub_007_day_24_data.csv,1,600,,Button-Switch at home,,,,,,,,,,,,,k
7,24,1073,B,80.37863512356759,52.67913554750091,4.01893175617838,0.827481926167449,B,663.6149169644341,Correct,sub_007_day_24_data.csv,1,600,,Button-Switch at home,,,,,,,,,,,,,d
7,24,1074,B,55.982416172531295,48.92955134355141,2.7991208086265646,0.7685835952217285,B,811.9637080235407,Correct,sub_007_day_24_data.csv,1,600,,Button-Switch at home,,,,,,,,,,,,,d
7,24,1075,B,80.89268693782337,67.48160789309355,4.0446343468911685,1.0599986180468486,B,651.1570001021028,Correct,sub_007_day_24_data.csv,1,600,,Button-Switch at home,,,,,,,,,,,,,d
7,24,1076,A,39.377903555010214,47.651635671738454,1.9688951777505108,0.7485101427893542,A,1311.596916988492,Correct,sub_007_day_24_data.csv,1,600,,Button-Switch at home,,,,,,,,,,,,,k
7,24,1077,A,34.021249767903306,55.98128362646283,1.7010624883951653,0.879351946897111,A,581.3264580210671,Correct,sub_007_day_24_data.csv,1,600,,Button-Switch at home,,,,,,,,,,,,,k
7,24,1078,B,64.5199382530357,45.49373237975487,3.2259969126517856,0.71461387714309,B,1309.402707964182,Correct,sub_007_day_24_data.csv,1,600,,Button-Switch at home,,,,,,,,,,,,,d
7,24,1079,A,47.93709090204361,62.398001203720874,2.3968545451021805,0.9801455109014828,A,1138.952000066638,Correct,sub_007_day_24_data.csv,1,600,,Button-Switch at home,,,,,,,,,,,,,k
7,24,1080,A,31.861456369650178,48.25719496881153,1.5930728184825087,0.7580222459843433,A,1585.831416072324,Correct,sub_007_day_24_data.csv,1,600,,Button-Switch at home,,,,,,,,,,,,,k
7,24,1081,B,84.17247789162566,60.34059140226197,4.208623894581283,0.9478277933130482,B,651.0117079596967,Correct,sub_007_day_24_data.csv,1,600,,Button-Switch at home,,,,,,,,,,,,,d
7,24,1082,A,24.048833267599655,36.445282901034346,1.2024416633799828,0.5724811650994559,A,724.1998329991475,Correct,sub_007_day_24_data.csv,1,600,,Button-Switch at home,,,,,,,,,,,,,k
7,24,1083,A,41.29583296226636,61.5412598818342,2.064791648113318,0.9666878496871528,A,1049.6399590047076,Correct,sub_007_day_24_data.csv,1,600,,Button-Switch at home,,,,,,,,,,,,,k
7,24,1084,A,21.98743772639467,44.44785678965704,1.0993718863197337,0.6981853017909888,A,928.5179590806364,Correct,sub_007_day_24_data.csv,1,600,,Button-Switch at home,,,,,,,,,,,,,k
7,24,1085,B,46.5142017303653,33.78487579704384,2.325710086518265,0.5306915880321826,B,824.2316250689328,Correct,sub_007_day_24_data.csv,1,600,,Button-Switch at home,,,,,,,,,,,,,d
7,24,1086,A,34.41756458477192,47.52228040481744,1.720878229238596,0.7464782350080432,A,1049.463165923953,Correct,sub_007_day_24_data.csv,1,600,,Button-Switch at home,,,,,,,,,,,,,k
7,24,1087,B,73.12320281909761,44.541841518543315,3.656160140954881,0.6996616104600826,B,630.1024170825258,Correct,sub_007_day_24_data.csv,1,600,,Button-Switch at home,,,,,,,,,,,,,d
7,24,1088,A,33.29817797923198,61.31860479356046,1.664908898961599,0.9631903917391272,A,1085.366916959174,Correct,sub_007_day_24_data.csv,1,600,,Button-Switch at home,,,,,,,,,,,,,k
7,24,1089,A,28.452491669438903,54.94969970284691,1.422624583471945,0.8631478645171455,A,741.3504578871652,Correct,sub_007_day_24_data.csv,1,600,,Button-Switch at home,,,,,,,,,,,,,k
7,24,1090,B,78.51689062531763,51.944482523635585,3.925844531265881,0.8159420234538847,B,644.5648749358952,Correct,sub_007_day_24_data.csv,1,600,,Button-Switch at home,,,,,,,,,,,,,d
7,24,1091,B,73.7772041527897,46.122425154020405,3.6888602076394847,0.7244893601480779,B,610.4654159862548,Correct,sub_007_day_24_data.csv,1,600,,Button-Switch at home,,,,,,,,,,,,,d
7,24,1092,B,51.69640309032757,35.3936393224714,2.5848201545163785,0.5559619863964148,B,835.0171250058338,Correct,sub_007_day_24_data.csv,1,600,,Button-Switch at home,,,,,,,,,,,,,d
7,24,1093,B,63.14956306323458,33.49679358259944,3.1574781531617293,0.5261664031895406,B,478.14650007057935,Correct,sub_007_day_24_data.csv,1,600,,Button-Switch at home,,,,,,,,,,,,,d
7,24,1094,A,28.625583153348547,57.03590423682759,1.4312791576674275,0.8959178887063426,A,838.600791990757,Correct,sub_007_day_24_data.csv,1,600,,Button-Switch at home,,,,,,,,,,,,,k
7,24,1095,A,42.34865761277137,71.76745426234379,2.1174328806385687,1.1273205353871034,A,739.8965420434251,Correct,sub_007_day_24_data.csv,1,600,,Button-Switch at home,,,,,,,,,,,,,k
7,24,1096,A,22.282208118701465,35.728374931021165,1.114110405935073,0.561220001039989,A,617.195124970749,Correct,sub_007_day_24_data.csv,1,600,,Button-Switch at home,,,,,,,,,,,,,k
7,24,1097,B,46.23841716107633,32.15010132025196,2.311920858053816,0.5050126105993553,B,1392.2262500273064,Correct,sub_007_day_24_data.csv,1,600,,Button-Switch at home,,,,,,,,,,,,,d
7,24,1098,A,59.59311247801621,80.84257513520811,2.9796556239008107,1.2698722007102534,A,1110.2707920363173,Correct,sub_007_day_24_data.csv,1,600,,Button-Switch at home,,,,,,,,,,,,,k
7,24,1099,A,23.247139371952414,49.98378373750483,1.1623569685976207,0.7851434389418308,A,1004.225332988426,Correct,sub_007_day_24_data.csv,1,600,,Button-Switch at home,,,,,,,,,,,,,k
7,24,1100,A,26.25207310378117,50.397642672651685,1.3126036551890587,0.7916443198932299,A,622.6492499699816,Correct,sub_007_day_24_data.csv,1,600,,Button-Switch at home,,,,,,,,,,,,,k
7,24,1101,A,29.88207052259686,41.397753409078305,1.494103526129843,0.6502743899254111,A,780.3306250134483,Correct,sub_007_day_24_data.csv,1,600,,Button-Switch at home,,,,,,,,,,,,,k
7,24,1102,A,46.419739244633135,71.73785334625181,2.320986962231657,1.1268555652844332,A,932.2359579382464,Correct,sub_007_day_24_data.csv,1,600,,Button-Switch at home,,,,,,,,,,,,,k
7,24,1103,A,33.51788246696009,63.31369934228343,1.6758941233480045,0.9945292636265528,A,643.5032919980586,Correct,sub_007_day_24_data.csv,1,600,,Button-Switch at home,,,,,,,,,,,,,k
7,24,1104,B,42.82821591449665,13.872133285409063,2.1414107957248323,0.2179029600952977,B,785.8057499397546,Correct,sub_007_day_24_data.csv,1,600,,Button-Switch at home,,,,,,,,,,,,,d
7,24,1105,A,16.51089740675137,35.85818894075804,0.8255448703375684,0.5632591147366011,A,1710.3630839847028,Correct,sub_007_day_24_data.csv,1,600,,Button-Switch at home,,,,,,,,,,,,,k
7,24,1106,B,72.18474193548626,44.28011906042736,3.6092370967743137,0.6955504837015999,B,846.2547499220818,Correct,sub_007_day_24_data.csv,1,600,,Button-Switch at home,,,,,,,,,,,,,d
7,24,1107,A,56.44287062052321,82.1866221584406,2.8221435310261604,1.2909844419815857,A,1331.5511660184711,Correct,sub_007_day_24_data.csv,1,600,,Button-Switch at home,,,,,,,,,,,,,k
7,24,1108,A,46.064236133687146,66.26284797352434,2.303211806684357,1.040854381997807,A,843.9104580320418,Correct,sub_007_day_24_data.csv,1,600,,Button-Switch at home,,,,,,,,,,,,,k
7,24,1109,B,63.36858585433716,36.840543115833455,3.168429292716858,0.5786898980348021,B,2616.539334063418,Correct,sub_007_day_24_data.csv,1,600,,Button-Switch at home,,,,,,,,,,,,,d
7,24,1110,B,63.63229495815215,38.255973801883925,3.1816147479076076,0.6009234312596107,B,1478.5705000394955,Correct,sub_007_day_24_data.csv,1,600,,Button-Switch at home,,,,,,,,,,,,,d
7,24,1111,A,32.875410239552025,62.245298624053845,1.6437705119776012,0.977746864389152,A,873.5912080155686,Correct,sub_007_day_24_data.csv,1,600,,Button-Switch at home,,,,,,,,,,,,,k
7,24,1112,A,54.220407069320075,62.5732605482328,2.7110203534660036,0.982898478247441,B,1245.803999947384,Incorrect,sub_007_day_24_data.csv,0,600,,Button-Switch at home,,,,,,,,,,,,,d
7,24,1113,A,25.35599974686676,41.757395116498984,1.267799987343338,0.6559236286551975,A,753.8952920585871,Correct,sub_007_day_24_data.csv,1,600,,Button-Switch at home,,,,,,,,,,,,,k
7,24,1114,B,81.99803719973214,66.81007716463085,4.099901859986607,1.0494502380308577,B,597.1917499555275,Correct,sub_007_day_24_data.csv,1,600,,Button-Switch at home,,,,,,,,,,,,,d
7,24,1115,B,63.17014908297581,51.928179650801845,3.1585074541487903,0.8156859385262504,B,1454.8936249921098,Correct,sub_007_day_24_data.csv,1,600,,Button-Switch at home,,,,,,,,,,,,,d
7,24,1116,A,55.04066052013485,64.05743581976579,2.7520330260067425,1.0062118488958791,B,1240.4164579929784,Incorrect,sub_007_day_24_data.csv,0,600,,Button-Switch at home,,,,,,,,,,,,,d
7,24,1117,B,37.914481719572095,15.6529624234711,1.8957240859786049,0.2458761587824694,B,839.850208023563,Correct,sub_007_day_24_data.csv,1,600,,Button-Switch at home,,,,,,,,,,,,,d
7,24,1118,A,32.5265868159744,63.714046614631215,1.6263293407987198,1.0008179038750151,A,1466.9727500295269,Correct,sub_007_day_24_data.csv,1,600,,Button-Switch at home,,,,,,,,,,,,,k
7,24,1119,A,35.279893734640126,54.39361178049417,1.7639946867320062,0.8544128558590784,A,840.1250840397552,Correct,sub_007_day_24_data.csv,1,600,,Button-Switch at home,,,,,,,,,,,,,k
7,24,1120,B,88.82116165918254,68.76909503647519,4.441058082959127,1.0802224188030438,B,1102.76141599752,Correct,sub_007_day_24_data.csv,1,600,,Button-Switch at home,,,,,,,,,,,,,d
7,24,1121,A,60.51676954478371,80.980157203748,3.0258384772391853,1.2720333347892063,A,703.4323749830946,Correct,sub_007_day_24_data.csv,1,600,,Button-Switch at home,,,,,,,,,,,,,k
7,24,1122,B,54.12202579993466,27.59227034585252,2.7061012899967327,0.4334183690719688,B,815.2579170418903,Correct,sub_007_day_24_data.csv,1,600,,Button-Switch at home,,,,,,,,,,,,,d
7,24,1123,A,59.64347104796149,82.28135138918088,2.9821735523980744,1.2924724452584548,A,1085.4194579878822,Correct,sub_007_day_24_data.csv,1,600,,Button-Switch at home,,,,,,,,,,,,,k
7,24,1124,A,32.474015921963186,57.86326802123817,1.6237007960981595,0.9089140886410952,A,846.2887089699507,Correct,sub_007_day_24_data.csv,1,600,,Button-Switch at home,,,,,,,,,,,,,k
7,24,1125,A,54.62162133727624,75.52791090444641,2.731081066863812,1.1863896501919664,A,795.733124949038,Correct,sub_007_day_24_data.csv,1,600,,Button-Switch at home,,,,,,,,,,,,,k
7,24,1126,A,30.494978788553105,49.73845483205967,1.5247489394276554,0.7812898215065321,A,1260.950708063319,Correct,sub_007_day_24_data.csv,1,600,,Button-Switch at home,,,,,,,,,,,,,k
7,24,1127,A,62.58890231762658,85.66187942122738,3.129445115881329,1.3455736554121132,A,784.043249906972,Correct,sub_007_day_24_data.csv,1,600,,Button-Switch at home,,,,,,,,,,,,,k
7,24,1128,A,53.53763937855953,61.65831266128214,2.676881968927977,0.9685265104471326,A,1076.6836670227349,Correct,sub_007_day_24_data.csv,1,600,,Button-Switch at home,,,,,,,,,,,,,k
7,24,1129,B,82.16302129683123,58.07517657004128,4.108151064841562,0.9122427403418588,B,1701.9715000642464,Correct,sub_007_day_24_data.csv,1,600,,Button-Switch at home,,,,,,,,,,,,,d
7,24,1130,B,52.82956356012879,33.59875603731487,2.6414781780064396,0.5277680256829206,B,923.8907500403002,Correct,sub_007_day_24_data.csv,1,600,,Button-Switch at home,,,,,,,,,,,,,d
7,24,1131,B,64.41068677581113,36.048421519570994,3.2205343387905567,0.5662472810969622,B,1745.398583007045,Correct,sub_007_day_24_data.csv,1,600,,Button-Switch at home,,,,,,,,,,,,,d
7,24,1132,B,80.4955480411053,50.54405623218901,4.024777402055265,0.7939441787083719,B,612.1783750131726,Correct,sub_007_day_24_data.csv,1,600,,Button-Switch at home,,,,,,,,,,,,,d
7,24,1133,B,89.24653775345229,63.659061699631394,4.4623268876726145,0.9999542028499068,B,1472.5613750051707,Correct,sub_007_day_24_data.csv,1,600,,Button-Switch at home,,,,,,,,,,,,,d
7,24,1134,B,58.10274063150066,34.88778628843163,2.905137031575033,0.5480160655187375,B,2152.5424169376493,Correct,sub_007_day_24_data.csv,1,600,,Button-Switch at home,,,,,,,,,,,,,d
7,24,1135,A,42.22869450753615,51.82325480030816,2.1114347253768075,0.8140377828288003,A,1619.2235829075798,Correct,sub_007_day_24_data.csv,1,600,,Button-Switch at home,,,,,,,,,,,,,k
7,24,1136,B,71.02284638487652,59.97075019848354,3.5511423192438256,0.9420183412691224,B,1124.5144170243293,Correct,sub_007_day_24_data.csv,1,600,,Button-Switch at home,,,,,,,,,,,,,d
7,24,1137,B,47.80581567550598,25.256729551678703,2.390290783775299,0.3967317800662903,B,935.9362090472132,Correct,sub_007_day_24_data.csv,1,600,,Button-Switch at home,,,,,,,,,,,,,d
7,24,1138,B,47.685315679037224,27.11284447763137,2.3842657839518613,0.4258875651442465,B,925.2216250170022,Correct,sub_007_day_24_data.csv,1,600,,Button-Switch at home,,,,,,,,,,,,,d
7,24,1139,B,65.60832224683158,39.60070063043652,3.2804161123415785,0.6220463508879404,B,1560.2056669304147,Correct,sub_007_day_24_data.csv,1,600,,Button-Switch at home,,,,,,,,,,,,,d
7,24,1140,B,64.27652773004641,37.22728960646509,3.2138263865023204,0.584764897703652,B,712.1367499930784,Correct,sub_007_day_24_data.csv,1,600,,Button-Switch at home,,,,,,,,,,,,,d
7,24,1141,A,37.75258603181821,55.9231301627814,1.88762930159091,0.878438474425699,A,2339.017417049035,Correct,sub_007_day_24_data.csv,1,600,,Button-Switch at home,,,,,,,,,,,,,k
7,24,1142,B,66.22175929591246,50.964881813310726,3.3110879647956235,0.800554491478845,B,1925.2306669950483,Correct,sub_007_day_24_data.csv,1,600,,Button-Switch at home,,,,,,,,,,,,,d
7,24,1143,A,62.42116289140483,81.07928575528136,3.1210581445702417,1.2735904424354976,A,837.7200000686571,Correct,sub_007_day_24_data.csv,1,600,,Button-Switch at home,,,,,,,,,,,,,k
7,24,1144,B,57.73725665559312,32.517618512520365,2.886862832779656,0.5107855571558472,B,2754.510707920417,Correct,sub_007_day_24_data.csv,1,600,,Button-Switch at home,,,,,,,,,,,,,d
7,24,1145,A,12.44185300402368,33.58112009085508,0.6220926502011841,0.5274910008837346,A,821.2927500717342,Correct,sub_007_day_24_data.csv,1,600,,Button-Switch at home,,,,,,,,,,,,,k
7,24,1146,A,42.35183165831024,65.37142194068579,2.117591582915512,1.0268518946178855,A,1559.5883330097422,Correct,sub_007_day_24_data.csv,1,600,,Button-Switch at home,,,,,,,,,,,,,k
7,24,1147,B,60.82427547839081,47.044335332519466,3.041213773919541,0.7389706913682894,B,2119.7679999750108,Correct,sub_007_day_24_data.csv,1,600,,Button-Switch at home,,,,,,,,,,,,,d
7,24,1148,B,85.91692650654639,61.83746126189364,4.295846325327319,0.9713405700850422,B,975.8889590157196,Correct,sub_007_day_24_data.csv,1,600,,Button-Switch at home,,,,,,,,,,,,,d
7,24,1149,B,70.67782878120653,39.17064318969108,3.5338914390603264,0.6152910244056027,B,913.916249992326,Correct,sub_007_day_24_data.csv,1,600,,Button-Switch at home,,,,,,,,,,,,,d
7,24,1150,B,72.89662544292356,63.19227044384721,3.644831272146178,0.9926218629502492,A,2991.350083029829,Incorrect,sub_007_day_24_data.csv,0,600,,Button-Switch at home,,,,,,,,,,,,,k
7,24,1151,A,50.97092829971354,61.87349855247673,2.548546414985677,0.971906642521798,A,1494.768084026873,Correct,sub_007_day_24_data.csv,1,600,,Button-Switch at home,,,,,,,,,,,,,k
7,24,1152,B,36.89341596624746,23.54647497092604,1.844670798312373,0.3698671639329858,B,1661.9260410079733,Correct,sub_007_day_24_data.csv,1,600,,Button-Switch at home,,,,,,,,,,,,,d
