subject,day,trial,cat,x,y,xt,yt,resp,rt,fb,f_name,acc,n_trials,block,session_type,ns_left_digit,ns_right_digit,ns_left_size,ns_right_size,ns_congruent,ns_cue,ns_correct_side,ns_resp,ns_rt,ns_fb,acc_stroop,acc_stroop_mean,resp_key
7,18,3900,B,51.02829902314831,23.772504385826053,2.5514149511574153,0.3734176256797114,B,840.185290959198,Correct,sub_007_day_15_data.csv,1,300,156.0,Training at home,,,,,,,,,,,,,
7,18,3901,A,36.32332481731909,58.72162547097326,1.8161662408659545,0.9223971359323044,A,862.2582069947384,Correct,sub_007_day_15_data.csv,1,300,156.0,Training at home,,,,,,,,,,,,,
7,18,3902,B,63.9401509658513,46.16184968307989,3.1970075482925653,0.7251086392024005,B,1195.6000000354834,Correct,sub_007_day_15_data.csv,1,300,156.0,Training at home,,,,,,,,,,,,,
7,18,3903,B,58.3445914667367,51.44846007466671,2.9172295733368347,0.8081505210454036,B,804.3590410379693,Correct,sub_007_day_15_data.csv,1,300,156.0,Training at home,,,,,,,,,,,,,
7,18,3904,B,64.99128232754124,39.96660111803932,3.249564116377062,0.6277939023069297,B,587.6074159750715,Correct,sub_007_day_15_data.csv,1,300,156.0,Training at home,,,,,,,,,,,,,
7,18,3905,A,40.54918741005057,58.986761996429244,2.027459370502529,0.9265618907351584,A,2565.387124021072,Correct,sub_007_day_15_data.csv,1,300,156.0,Training at home,,,,,,,,,,,,,
7,18,3906,A,49.024879176722926,60.740445123220475,2.4512439588361463,0.9541086808744172,B,2303.0379159608856,Incorrect,sub_007_day_15_data.csv,0,300,156.0,Training at home,,,,,,,,,,,,,
7,18,3907,B,71.33535530663745,61.552968230971814,3.566767765331873,0.9668717640053348,B,492.79779102653265,Correct,sub_007_day_15_data.csv,1,300,156.0,Training at home,,,,,,,,,,,,,
7,18,3908,A,13.220194744465186,36.35187890975488,0.6610097372232593,0.5710139786353583,A,589.8593749734573,Correct,sub_007_day_15_data.csv,1,300,156.0,Training at home,,,,,,,,,,,,,
7,18,3909,B,54.65628725010752,22.580446839845735,2.732814362505376,0.3546928295341711,B,562.84999899799,Correct,sub_007_day_15_data.csv,1,300,156.0,Training at home,,,,,,,,,,,,,
7,18,3910,A,43.33918691394489,67.85249885999433,2.166959345697245,1.0658245597313398,A,1551.794915983919,Correct,sub_007_day_15_data.csv,1,300,156.0,Training at home,,,,,,,,,,,,,
7,18,3911,B,85.68720829846112,67.11065830015981,4.284360414923055,1.0541717554667849,B,597.6784999947995,Correct,sub_007_day_15_data.csv,1,300,156.0,Training at home,,,,,,,,,,,,,
7,18,3912,B,36.41293911535117,19.27944133714284,1.8206469557675584,0.3028407563504166,B,630.9706660103984,Correct,sub_007_day_15_data.csv,1,300,156.0,Training at home,,,,,,,,,,,,,
7,18,3913,A,37.3336074793391,65.10920663677831,1.8666803739669549,1.0227330262558127,A,1147.1470829565078,Correct,sub_007_day_15_data.csv,1,300,156.0,Training at home,,,,,,,,,,,,,
7,18,3914,A,58.00645099373844,84.90698198196432,2.900322549686922,1.3337157541651,A,782.1186660439707,Correct,sub_007_day_15_data.csv,1,300,156.0,Training at home,,,,,,,,,,,,,
7,18,3915,A,28.091873741969977,39.81017886120772,1.4045936870984987,0.6253368272423293,B,1385.4027910274451,Incorrect,sub_007_day_15_data.csv,0,300,156.0,Training at home,,,,,,,,,,,,,
7,18,3916,A,21.051065032602686,38.97566242767084,1.052553251630134,0.6122282737578322,A,488.4152910090051,Correct,sub_007_day_15_data.csv,1,300,156.0,Training at home,,,,,,,,,,,,,
7,18,3917,A,39.27938549345467,71.08890088511791,1.9639692746727335,1.116661843862297,A,2608.942124992609,Correct,sub_007_day_15_data.csv,1,300,156.0,Training at home,,,,,,,,,,,,,
7,18,3918,B,59.18720808611671,37.06991245636344,2.9593604043058352,0.5822928232106407,B,2047.6107079884969,Correct,sub_007_day_15_data.csv,1,300,156.0,Training at home,,,,,,,,,,,,,
7,18,3919,B,50.75841836614303,30.13725548117178,2.5379209183071514,0.4733949020950399,B,1154.5640410040503,Correct,sub_007_day_15_data.csv,1,300,156.0,Training at home,,,,,,,,,,,,,
7,18,3920,A,26.063248762817672,58.00384481169015,1.3031624381408835,0.9111222637018412,A,729.5480830362067,Correct,sub_007_day_15_data.csv,1,300,156.0,Training at home,,,,,,,,,,,,,
7,18,3921,A,25.655587529238264,47.433634282131656,1.282779376461913,0.7450857849690489,A,954.0192909771577,Correct,sub_007_day_15_data.csv,1,300,156.0,Training at home,,,,,,,,,,,,,
7,18,3922,A,58.60313513581632,79.63255249645921,2.930156756790816,1.250865209547399,A,2545.09849997703,Correct,sub_007_day_15_data.csv,1,300,156.0,Training at home,,,,,,,,,,,,,
7,18,3923,A,57.94617971348343,80.53313460189982,2.897308985674172,1.265011520179432,A,1588.5193739668466,Correct,sub_007_day_15_data.csv,1,300,156.0,Training at home,,,,,,,,,,,,,
7,18,3924,A,31.949246997224275,40.18690031325581,1.5974623498612135,0.6312543539733492,A,2478.630541008897,Correct,sub_007_day_15_data.csv,1,300,156.0,Training at home,,,,,,,,,,,,,
7,18,3925,A,17.101183566155893,46.648941370117136,0.8550591783077947,0.7327598575305048,A,843.3520830003545,Correct,sub_007_day_15_data.csv,1,300,157.0,Training at home,,,,,,,,,,,,,
7,18,3926,B,35.86852804631234,18.59272542916785,1.7934264023156172,0.2920538480924292,B,1003.6030409974046,Correct,sub_007_day_15_data.csv,1,300,157.0,Training at home,,,,,,,,,,,,,
7,18,3927,B,76.71949985609217,56.5787635903127,3.835974992804609,0.8887371402226003,B,2874.1000409936532,Correct,sub_007_day_15_data.csv,1,300,157.0,Training at home,,,,,,,,,,,,,
7,18,3928,A,15.363002973412144,32.009718822321545,0.7681501486706072,0.5028074874784014,A,890.9702909877524,Correct,sub_007_day_15_data.csv,1,300,157.0,Training at home,,,,,,,,,,,,,
7,18,3929,B,63.21592055679893,47.04784586654469,3.1607960278399463,0.7390258347078087,B,852.7815410052426,Correct,sub_007_day_15_data.csv,1,300,157.0,Training at home,,,,,,,,,,,,,
7,18,3930,A,39.43618295090212,71.7779857519392,1.971809147545106,1.1274859636388253,A,788.4773319819942,Correct,sub_007_day_15_data.csv,1,300,157.0,Training at home,,,,,,,,,,,,,
7,18,3931,A,39.01901372838197,71.84061381830696,1.9509506864190984,1.1284697230048726,A,810.6460829731077,Correct,sub_007_day_15_data.csv,1,300,157.0,Training at home,,,,,,,,,,,,,
7,18,3932,B,61.794817643183826,40.43959495410448,3.0897408821591914,0.6352236721098075,B,1315.8170410315506,Correct,sub_007_day_15_data.csv,1,300,157.0,Training at home,,,,,,,,,,,,,
7,18,3933,B,69.19911059288378,56.27366015137493,3.4599555296441893,0.8839445866108407,B,906.8319990183228,Correct,sub_007_day_15_data.csv,1,300,157.0,Training at home,,,,,,,,,,,,,
7,18,3934,A,49.43042506094728,74.45529410670696,2.471521253047364,1.1695410249324898,A,877.1170409745537,Correct,sub_007_day_15_data.csv,1,300,157.0,Training at home,,,,,,,,,,,,,
7,18,3935,B,56.5639764573332,47.70727175661821,2.8281988228666597,0.749384072367018,B,1693.5022489633411,Correct,sub_007_day_15_data.csv,1,300,157.0,Training at home,,,,,,,,,,,,,
7,18,3936,A,31.09818243299672,60.517389224982765,1.554909121649836,0.9506049270182,A,1412.9247079836205,Correct,sub_007_day_15_data.csv,1,300,157.0,Training at home,,,,,,,,,,,,,
7,18,3937,A,14.747992410370358,39.7594833210903,0.7373996205185179,0.6245405035603159,A,849.2927080369554,Correct,sub_007_day_15_data.csv,1,300,157.0,Training at home,,,,,,,,,,,,,
7,18,3938,B,80.17255501436932,61.0127459121869,4.008627750718466,0.9583859716653352,B,867.7197080105543,Correct,sub_007_day_15_data.csv,1,300,157.0,Training at home,,,,,,,,,,,,,
7,18,3939,B,66.51511487878554,34.34285955895037,3.325755743939277,0.5394563764683225,B,598.8513749907725,Correct,sub_007_day_15_data.csv,1,300,157.0,Training at home,,,,,,,,,,,,,
7,18,3940,A,61.92543891091446,81.98688156761482,3.096271945545723,1.2878469241177757,A,482.0093750022352,Correct,sub_007_day_15_data.csv,1,300,157.0,Training at home,,,,,,,,,,,,,
7,18,3941,B,62.243828952308625,29.890694673724298,3.1121914476154315,0.4695219339883389,B,577.9542489908636,Correct,sub_007_day_15_data.csv,1,300,157.0,Training at home,,,,,,,,,,,,,
7,18,3942,A,54.04654961766949,81.61988038761616,2.7023274808834747,1.2820820830630628,A,651.6587079968303,Correct,sub_007_day_15_data.csv,1,300,157.0,Training at home,,,,,,,,,,,,,
7,18,3943,B,88.06601319099877,61.98426176121153,4.403300659549939,0.9736465069360444,B,715.9364569815807,Correct,sub_007_day_15_data.csv,1,300,157.0,Training at home,,,,,,,,,,,,,
7,18,3944,B,54.25753137409301,44.42663079556281,2.7128765687046505,0.6978518846554309,B,2008.8472079951316,Correct,sub_007_day_15_data.csv,1,300,157.0,Training at home,,,,,,,,,,,,,
7,18,3945,A,63.846539815217355,86.27198208734879,3.1923269907608676,1.3551571256812258,A,650.4023330053315,Correct,sub_007_day_15_data.csv,1,300,157.0,Training at home,,,,,,,,,,,,,
7,18,3946,B,84.7905130408858,60.50154649981338,4.23952565204429,0.9503560700731748,B,769.8597079725005,Correct,sub_007_day_15_data.csv,1,300,157.0,Training at home,,,,,,,,,,,,,
7,18,3947,B,47.13761885461113,38.16524582997725,2.3568809427305566,0.5994982796095251,B,1218.431416025851,Correct,sub_007_day_15_data.csv,1,300,157.0,Training at home,,,,,,,,,,,,,
7,18,3948,B,71.14449145775136,39.02822404819723,3.557224572887568,0.6130539097623646,B,1120.337957981974,Correct,sub_007_day_15_data.csv,1,300,157.0,Training at home,,,,,,,,,,,,,
7,18,3949,B,41.21326409995726,29.72121325724639,2.060663204997863,0.4668597261237041,B,842.7864990080707,Correct,sub_007_day_15_data.csv,1,300,157.0,Training at home,,,,,,,,,,,,,
7,18,3950,A,64.85498600679905,88.94006845854979,3.2427493003399523,1.3970673283957666,A,866.7391249909997,Correct,sub_007_day_15_data.csv,1,300,158.0,Training at home,,,,,,,,,,,,,
7,18,3951,A,59.693796388429064,72.21862597967277,2.9846898194214533,1.1344075241504448,A,1030.0322080147453,Correct,sub_007_day_15_data.csv,1,300,158.0,Training at home,,,,,,,,,,,,,
7,18,3952,A,18.437990719500608,37.778492381325904,0.9218995359750304,0.5934231706443571,A,648.9502489566803,Correct,sub_007_day_15_data.csv,1,300,158.0,Training at home,,,,,,,,,,,,,
7,18,3953,A,42.2929099872384,56.2513087663565,2.11464549936192,0.8835934918759836,A,1184.8053330322728,Correct,sub_007_day_15_data.csv,1,300,158.0,Training at home,,,,,,,,,,,,,
7,18,3954,B,84.98201556527104,61.21452008030595,4.249100778263552,0.9615554328865704,B,662.5264160102233,Correct,sub_007_day_15_data.csv,1,300,158.0,Training at home,,,,,,,,,,,,,
7,18,3955,B,80.61973079666046,67.61377887671688,4.030986539833023,1.0620747550026923,B,1952.165791008156,Correct,sub_007_day_15_data.csv,1,300,158.0,Training at home,,,,,,,,,,,,,
7,18,3956,B,77.91808168019976,58.55282777658216,3.895904084009988,0.9197456679490944,B,1142.1889580087736,Correct,sub_007_day_15_data.csv,1,300,158.0,Training at home,,,,,,,,,,,,,
7,18,3957,B,33.589141617406774,13.993306425090356,1.6794570808703386,0.2198063433224736,B,747.1172080258839,Correct,sub_007_day_15_data.csv,1,300,158.0,Training at home,,,,,,,,,,,,,
7,18,3958,B,71.41484341994484,40.53202001048077,3.5707421709972427,0.6366754815004044,B,782.2762909927405,Correct,sub_007_day_15_data.csv,1,300,158.0,Training at home,,,,,,,,,,,,,
7,18,3959,B,72.63517343299323,43.12210692548546,3.6317586716496617,0.6773604716220933,B,2302.198583027348,Correct,sub_007_day_15_data.csv,1,300,158.0,Training at home,,,,,,,,,,,,,
7,18,3960,A,29.50999969627518,47.56097813265575,1.4754999848137589,0.7470860974954806,A,1026.7127489787526,Correct,sub_007_day_15_data.csv,1,300,158.0,Training at home,,,,,,,,,,,,,
7,18,3961,B,40.475211616205726,22.0131159636174,2.0237605808102863,0.345781216969603,B,932.3637910420076,Correct,sub_007_day_15_data.csv,1,300,158.0,Training at home,,,,,,,,,,,,,
7,18,3962,A,28.884260396425898,41.433028897084114,1.4442130198212948,0.6508284959952653,A,1298.7341660191305,Correct,sub_007_day_15_data.csv,1,300,158.0,Training at home,,,,,,,,,,,,,
7,18,3963,A,27.406567131197175,54.764341581276206,1.3703283565598587,0.8602362659520968,A,877.6840409846045,Correct,sub_007_day_15_data.csv,1,300,158.0,Training at home,,,,,,,,,,,,,
7,18,3964,A,25.852206514930497,45.968080311406666,1.292610325746525,0.722064917029704,A,927.8223739820533,Correct,sub_007_day_15_data.csv,1,300,158.0,Training at home,,,,,,,,,,,,,
7,18,3965,A,43.13990627702226,73.6084984166144,2.156995313851113,1.1562395893370585,A,715.5867079854943,Correct,sub_007_day_15_data.csv,1,300,158.0,Training at home,,,,,,,,,,,,,
7,18,3966,A,33.997977199512846,65.32659586365311,1.6998988599756422,1.02614776824641,A,594.6322070085444,Correct,sub_007_day_15_data.csv,1,300,158.0,Training at home,,,,,,,,,,,,,
7,18,3967,B,87.36089051798191,67.36862874472317,4.368044525899096,1.0582239457342022,B,636.4644580171444,Correct,sub_007_day_15_data.csv,1,300,158.0,Training at home,,,,,,,,,,,,,
7,18,3968,A,65.89779436722989,83.22626965622786,3.2948897183614947,1.3073151866884427,A,1351.8688750336878,Correct,sub_007_day_15_data.csv,1,300,158.0,Training at home,,,,,,,,,,,,,
7,18,3969,A,27.20613954607881,45.80237930057805,1.3603069773039405,0.7194620916381461,A,2135.677957034204,Correct,sub_007_day_15_data.csv,1,300,158.0,Training at home,,,,,,,,,,,,,
7,18,3970,B,41.974127699856744,28.205292374656192,2.098706384992837,0.4430476965828605,B,1890.4129159636796,Correct,sub_007_day_15_data.csv,1,300,158.0,Training at home,,,,,,,,,,,,,
7,18,3971,A,30.293918809964097,58.5657933711752,1.514695940498205,0.9199493310327091,A,1898.2916660024785,Correct,sub_007_day_15_data.csv,1,300,158.0,Training at home,,,,,,,,,,,,,
7,18,3972,B,60.83326147101593,52.042350464576465,3.0416630735507963,0.817479329475294,B,1392.833873978816,Correct,sub_007_day_15_data.csv,1,300,158.0,Training at home,,,,,,,,,,,,,
7,18,3973,B,76.14863050279715,60.6458314198302,3.807431525139857,0.952622492296918,B,1201.766290992964,Correct,sub_007_day_15_data.csv,1,300,158.0,Training at home,,,,,,,,,,,,,
7,18,3974,B,59.78265286407236,31.307171470551797,2.989132643203618,0.4917718994828074,B,1297.1588319633156,Correct,sub_007_day_15_data.csv,1,300,158.0,Training at home,,,,,,,,,,,,,
7,18,3975,A,44.66476542791453,54.33146646152771,2.233238271395726,0.8534366794714785,A,1711.911708000116,Correct,sub_007_day_15_data.csv,1,300,159.0,Training at home,,,,,,,,,,,,,
7,18,3976,B,40.89642780348058,21.671195434750643,2.044821390174029,0.3404103418616064,B,1060.283956991043,Correct,sub_007_day_15_data.csv,1,300,159.0,Training at home,,,,,,,,,,,,,
7,18,3977,A,64.52704789620992,78.22936258622016,3.226352394810496,1.2288239539794077,A,827.3417489835992,Correct,sub_007_day_15_data.csv,1,300,159.0,Training at home,,,,,,,,,,,,,
7,18,3978,A,17.58886904208114,42.553700577265545,0.879443452104057,0.6684319655829859,A,790.9362490172498,Correct,sub_007_day_15_data.csv,1,300,159.0,Training at home,,,,,,,,,,,,,
7,18,3979,A,25.151089540895143,50.136789124786176,1.257554477044757,0.7875468419450443,A,949.9422909575514,Correct,sub_007_day_15_data.csv,1,300,159.0,Training at home,,,,,,,,,,,,,
7,18,3980,A,37.47466192589925,59.252749218535634,1.8737330962949623,0.9307400082497496,A,1099.9106240342371,Correct,sub_007_day_15_data.csv,1,300,159.0,Training at home,,,,,,,,,,,,,
7,18,3981,B,89.0196050493281,62.827632815462515,4.4509802524664055,0.9868941484774704,B,761.2061660038307,Correct,sub_007_day_15_data.csv,1,300,159.0,Training at home,,,,,,,,,,,,,
7,18,3982,A,37.406377297722344,48.43210724713701,1.870318864886117,0.7607697616273928,A,3390.2740830089897,Correct,sub_007_day_15_data.csv,1,300,159.0,Training at home,,,,,,,,,,,,,
7,18,3983,B,46.63856865726719,21.9283365360049,2.33192843286336,0.3444495048347882,B,982.8780409879982,Correct,sub_007_day_15_data.csv,1,300,159.0,Training at home,,,,,,,,,,,,,
7,18,3984,A,44.73188771175851,70.95526757141157,2.2365943855879253,1.1145627366792232,A,1174.3261250085195,Correct,sub_007_day_15_data.csv,1,300,159.0,Training at home,,,,,,,,,,,,,
7,18,3985,A,50.60550997204562,62.40080331231723,2.530275498602281,0.9801895263203874,A,1187.125248950906,Correct,sub_007_day_15_data.csv,1,300,159.0,Training at home,,,,,,,,,,,,,
7,18,3986,B,52.79927378911262,43.99624807663274,2.63996368945563,0.6910914487153175,B,835.6684989994392,Correct,sub_007_day_15_data.csv,1,300,159.0,Training at home,,,,,,,,,,,,,
7,18,3987,B,45.385630696417614,28.507346732358823,2.269281534820881,0.4477923553385775,B,597.8094160091132,Correct,sub_007_day_15_data.csv,1,300,159.0,Training at home,,,,,,,,,,,,,
7,18,3988,B,88.35957430192983,63.082135210646,4.417978715096491,0.9908918627526176,B,938.3136249962264,Correct,sub_007_day_15_data.csv,1,300,159.0,Training at home,,,,,,,,,,,,,
7,18,3989,A,28.44396263992747,58.82577452770349,1.4221981319963737,0.9240331054898144,A,656.3905829680152,Correct,sub_007_day_15_data.csv,1,300,159.0,Training at home,,,,,,,,,,,,,
7,18,3990,B,62.1559658556786,42.5814998740573,3.10779829278393,0.6688686359158655,B,834.4678329885937,Correct,sub_007_day_15_data.csv,1,300,159.0,Training at home,,,,,,,,,,,,,
7,18,3991,A,65.08274811188065,77.65788208159238,3.254137405594032,1.2198471592043652,A,1427.7118750032969,Correct,sub_007_day_15_data.csv,1,300,159.0,Training at home,,,,,,,,,,,,,
7,18,3992,A,45.17853213057056,54.6125810831499,2.2589266065285276,0.8578524176220031,A,1035.979999054689,Correct,sub_007_day_15_data.csv,1,300,159.0,Training at home,,,,,,,,,,,,,
7,18,3993,A,42.26006009554267,59.70782982490952,2.1130030047771333,0.9378883976986264,A,731.3697910285555,Correct,sub_007_day_15_data.csv,1,300,159.0,Training at home,,,,,,,,,,,,,
7,18,3994,A,19.84273447720425,32.9208234543587,0.9921367238602125,0.5171190855716992,A,671.0364570026286,Correct,sub_007_day_15_data.csv,1,300,159.0,Training at home,,,,,,,,,,,,,
7,18,3995,A,30.330714058414884,49.88997448520489,1.5165357029207442,0.7836698866525094,A,615.1743740192614,Correct,sub_007_day_15_data.csv,1,300,159.0,Training at home,,,,,,,,,,,,,
7,18,3996,B,74.42843464900228,48.31891197764516,3.721421732450114,0.7589916944921093,B,1281.787999032531,Correct,sub_007_day_15_data.csv,1,300,159.0,Training at home,,,,,,,,,,,,,
7,18,3997,A,46.19094900602329,71.98582916854008,2.3095474503011646,1.1307507603922768,A,906.3932069693692,Correct,sub_007_day_15_data.csv,1,300,159.0,Training at home,,,,,,,,,,,,,
7,18,3998,A,53.43928069755591,63.26907966311315,2.6719640348777953,0.9938283793451184,A,928.3962499466724,Correct,sub_007_day_15_data.csv,1,300,159.0,Training at home,,,,,,,,,,,,,
7,18,3999,A,30.942728019193805,48.29804296547902,1.5471364009596902,0.7586638848155653,A,1444.4369580014609,Correct,sub_007_day_15_data.csv,1,300,159.0,Training at home,,,,,,,,,,,,,
7,18,4000,B,83.16614953121712,57.95599074630149,4.158307476560855,0.910370573800494,B,1067.2182069974951,Correct,sub_007_day_15_data.csv,1,300,160.0,Training at home,,,,,,,,,,,,,
7,18,4001,A,28.95773422881148,41.48669650379017,1.4478867114405742,0.6516715047900827,A,1019.8917069938034,Correct,sub_007_day_15_data.csv,1,300,160.0,Training at home,,,,,,,,,,,,,
7,18,4002,A,40.221116045763075,52.34874883621668,2.0110558022881535,0.8222922238423779,A,1584.8000000114553,Correct,sub_007_day_15_data.csv,1,300,160.0,Training at home,,,,,,,,,,,,,
7,18,4003,B,38.513572323602105,25.428212945964383,1.9256786161801052,0.399425434924793,B,951.8382489914076,Correct,sub_007_day_15_data.csv,1,300,160.0,Training at home,,,,,,,,,,,,,
7,18,4004,A,61.212540485533296,74.59634643093894,3.0606270242766644,1.1717566696603847,A,1184.9915830534885,Correct,sub_007_day_15_data.csv,1,300,160.0,Training at home,,,,,,,,,,,,,
7,18,4005,B,59.684829507522075,51.08416727146353,2.9842414753761037,0.8024282230739099,B,1226.1488740332425,Correct,sub_007_day_15_data.csv,1,300,160.0,Training at home,,,,,,,,,,,,,
7,18,4006,A,57.397430929457585,70.67121138515601,2.8698715464728792,1.1101007925394877,A,786.0546239535324,Correct,sub_007_day_15_data.csv,1,300,160.0,Training at home,,,,,,,,,,,,,
7,18,4007,B,40.72905437900248,30.71044839381512,2.0364527189501245,0.4823985953122902,B,826.8352909944952,Correct,sub_007_day_15_data.csv,1,300,160.0,Training at home,,,,,,,,,,,,,
7,18,4008,B,52.67190463180595,24.883188142081792,2.6335952315902977,0.390864205325284,B,1037.6855409704149,Correct,sub_007_day_15_data.csv,1,300,160.0,Training at home,,,,,,,,,,,,,
7,18,4009,A,25.39082822581996,56.57940623220826,1.269541411290998,0.88874723481789,A,948.0512080481276,Correct,sub_007_day_15_data.csv,1,300,160.0,Training at home,,,,,,,,,,,,,
7,18,4010,A,45.344581338891835,68.86984165772857,2.2672290669445916,1.081804943029062,A,632.1852069813758,Correct,sub_007_day_15_data.csv,1,300,160.0,Training at home,,,,,,,,,,,,,
7,18,4011,B,64.46750692558344,51.759092730817144,3.223375346279172,0.81302992739804,B,1921.0211239987984,Correct,sub_007_day_15_data.csv,1,300,160.0,Training at home,,,,,,,,,,,,,
7,18,4012,B,85.62999672607022,66.29722150302693,4.281499836303511,1.0413943201366231,B,975.7689989637583,Correct,sub_007_day_15_data.csv,1,300,160.0,Training at home,,,,,,,,,,,,,
7,18,4013,B,84.89008118192194,59.355572402098986,4.244504059096097,0.9323551510402563,B,1774.0043330122717,Correct,sub_007_day_15_data.csv,1,300,160.0,Training at home,,,,,,,,,,,,,
7,18,4014,A,24.66898867191504,48.95072256442757,1.2334494335957518,0.7689161519815888,A,1513.4701250353828,Correct,sub_007_day_15_data.csv,1,300,160.0,Training at home,,,,,,,,,,,,,
7,18,4015,B,81.1276889196372,53.4891738387531,4.05638444598186,0.8402059778920705,B,1606.4773329999298,Correct,sub_007_day_15_data.csv,1,300,160.0,Training at home,,,,,,,,,,,,,
7,18,4016,B,73.25667191897922,45.184378020555336,3.6628335959489617,0.709754550232004,B,1297.2660409868697,Correct,sub_007_day_15_data.csv,1,300,160.0,Training at home,,,,,,,,,,,,,
7,18,4017,B,59.50776135677301,43.42360277043088,2.9753880678386504,0.6820963572799353,B,2220.730333006941,Correct,sub_007_day_15_data.csv,1,300,160.0,Training at home,,,,,,,,,,,,,
7,18,4018,B,45.7146842529556,17.826607614566385,2.28573421264778,0.2800196976017481,B,812.9436239833012,Correct,sub_007_day_15_data.csv,1,300,160.0,Training at home,,,,,,,,,,,,,
7,18,4019,A,13.51283834187608,34.1497256000451,0.675641917093804,0.536422635336045,A,806.1169570428319,Correct,sub_007_day_15_data.csv,1,300,160.0,Training at home,,,,,,,,,,,,,
7,18,4020,A,66.12120962255295,85.63815718497307,3.3060604811276475,1.3452010273963968,A,1934.3705410137773,Correct,sub_007_day_15_data.csv,1,300,160.0,Training at home,,,,,,,,,,,,,
7,18,4021,B,73.74653380018962,43.3426230046164,3.687326690009481,0.6808243300930742,B,1000.716958020348,Correct,sub_007_day_15_data.csv,1,300,160.0,Training at home,,,,,,,,,,,,,
7,18,4022,A,46.999170552400784,68.20917384465817,2.349958527620039,1.071427197289036,A,804.4046239810996,Correct,sub_007_day_15_data.csv,1,300,160.0,Training at home,,,,,,,,,,,,,
7,18,4023,A,21.614452744995067,38.17075068129973,1.0807226372497534,0.5995847496118941,A,1068.7422910123132,Correct,sub_007_day_15_data.csv,1,300,160.0,Training at home,,,,,,,,,,,,,
7,18,4024,B,36.62317363435877,13.42559417225933,1.8311586817179384,0.2108887401082392,B,777.8269569971599,Correct,sub_007_day_15_data.csv,1,300,160.0,Training at home,,,,,,,,,,,,,
7,18,4025,A,17.618814057629937,34.11937122079611,0.8809407028814968,0.5359458298617803,A,667.1343739726581,Correct,sub_007_day_15_data.csv,1,300,161.0,Training at home,,,,,,,,,,,,,
7,18,4026,B,68.15670374033849,55.50653213680033,3.407835187016924,0.8718945679360885,B,2309.6943739801645,Correct,sub_007_day_15_data.csv,1,300,161.0,Training at home,,,,,,,,,,,,,
7,18,4027,B,75.92002845418706,57.82562027436309,3.796001422709353,0.9083227192160604,B,1045.548124006018,Correct,sub_007_day_15_data.csv,1,300,161.0,Training at home,,,,,,,,,,,,,
7,18,4028,B,34.10122215175214,10.294868086486083,1.7050611075876072,0.1617114097509034,B,680.0288750091568,Correct,sub_007_day_15_data.csv,1,300,161.0,Training at home,,,,,,,,,,,,,
7,18,4029,A,47.63837960561751,64.82311519913424,2.3819189802808753,1.0182391124620247,A,1978.0970410211012,Correct,sub_007_day_15_data.csv,1,300,161.0,Training at home,,,,,,,,,,,,,
7,18,4030,A,45.17167426991318,62.70654115573865,2.2585837134956592,0.9849920451344728,A,1503.4373329835944,Correct,sub_007_day_15_data.csv,1,300,161.0,Training at home,,,,,,,,,,,,,
7,18,4031,A,50.01882411552344,79.98319940198729,2.500941205776172,1.256373158259454,A,778.2513329875655,Correct,sub_007_day_15_data.csv,1,300,161.0,Training at home,,,,,,,,,,,,,
7,18,4032,B,72.4645375082329,47.00769893763513,3.623226875411644,0.7383952082231764,B,1248.5180819639936,Correct,sub_007_day_15_data.csv,1,300,161.0,Training at home,,,,,,,,,,,,,
7,18,4033,A,62.88116558354829,75.83712095704338,3.1440582791774143,1.1912467103402402,A,2353.730831993744,Correct,sub_007_day_15_data.csv,1,300,161.0,Training at home,,,,,,,,,,,,,
7,18,4034,B,54.172848842616595,39.469630998218214,2.70864244213083,0.6199875139195116,B,1093.143041012809,Correct,sub_007_day_15_data.csv,1,300,161.0,Training at home,,,,,,,,,,,,,
7,18,4035,A,14.847732367471082,30.74553026241881,0.7423866183735541,0.482949660015688,A,1068.7252909992822,Correct,sub_007_day_15_data.csv,1,300,161.0,Training at home,,,,,,,,,,,,,
7,18,4036,B,37.86520049737032,23.4590138871924,1.8932600248685163,0.3684933284423229,B,1098.03158295108,Correct,sub_007_day_15_data.csv,1,300,161.0,Training at home,,,,,,,,,,,,,
7,18,4037,A,40.69548186981864,73.16813425198765,2.034774093490932,1.1493223652145808,A,2126.7802490037866,Correct,sub_007_day_15_data.csv,1,300,161.0,Training at home,,,,,,,,,,,,,
7,18,4038,B,40.51376427359391,20.550833493906588,2.025688213679695,0.3228117376480199,B,727.9520409647375,Correct,sub_007_day_15_data.csv,1,300,161.0,Training at home,,,,,,,,,,,,,
7,18,4039,B,51.5448343877664,32.94630006548671,2.57724171938832,0.5175192712434898,B,1207.607624004595,Correct,sub_007_day_15_data.csv,1,300,161.0,Training at home,,,,,,,,,,,,,
7,18,4040,B,46.367913333028085,30.904253584819607,2.318395666651404,0.4854428801337265,B,2059.719998971559,Correct,sub_007_day_15_data.csv,1,300,161.0,Training at home,,,,,,,,,,,,,
7,18,4041,B,74.60939404058688,52.465993039502166,3.730469702029344,0.8241338914809662,B,926.7670410335996,Correct,sub_007_day_15_data.csv,1,300,161.0,Training at home,,,,,,,,,,,,,
7,18,4042,A,62.00230426198095,75.34454352564387,3.1001152130990475,1.183509322141196,A,2296.64229095215,Correct,sub_007_day_15_data.csv,1,300,161.0,Training at home,,,,,,,,,,,,,
7,18,4043,A,60.91266309222159,85.84085536762677,3.0456331546110795,1.3483850030040012,A,757.0823749992996,Correct,sub_007_day_15_data.csv,1,300,161.0,Training at home,,,,,,,,,,,,,
7,18,4044,B,30.467893850197036,14.226476401298516,1.5233946925098518,0.2234689687439398,B,831.9564159610309,Correct,sub_007_day_15_data.csv,1,300,161.0,Training at home,,,,,,,,,,,,,
7,18,4045,A,29.40741248146523,53.231094738039275,1.4703706240732617,0.8361520808578324,A,535.7271660468541,Correct,sub_007_day_15_data.csv,1,300,161.0,Training at home,,,,,,,,,,,,,
7,18,4046,A,51.65463019213536,59.23448211375012,2.582731509606768,0.9304530692387668,A,1725.6067499984056,Correct,sub_007_day_15_data.csv,1,300,161.0,Training at home,,,,,,,,,,,,,
7,18,4047,A,10.567982456444383,33.57362253359068,0.5283991228222191,0.5273732295296262,A,622.9130410356447,Correct,sub_007_day_15_data.csv,1,300,161.0,Training at home,,,,,,,,,,,,,
7,18,4048,A,19.694960823466204,38.164089682140286,0.9847480411733102,0.5994801188817698,A,1039.8207079852,Correct,sub_007_day_15_data.csv,1,300,161.0,Training at home,,,,,,,,,,,,,
7,18,4049,A,24.41687485356101,56.56046169451583,1.2208437426780503,0.8884496547156892,A,766.046250006184,Correct,sub_007_day_15_data.csv,1,300,161.0,Training at home,,,,,,,,,,,,,
7,18,4050,B,49.53472489240877,31.042148392373303,2.4767362446204384,0.4876089267056208,B,946.5804579667748,Correct,sub_007_day_15_data.csv,1,300,162.0,Training at home,,,,,,,,,,,,,
7,18,4051,A,28.19060782342654,44.30750857515929,1.409530391171327,0.6959807171929359,A,1127.071249007713,Correct,sub_007_day_15_data.csv,1,300,162.0,Training at home,,,,,,,,,,,,,
7,18,4052,B,53.55523937526492,27.59425210285709,2.677761968763246,0.4334494984382027,B,1107.8987490036525,Correct,sub_007_day_15_data.csv,1,300,162.0,Training at home,,,,,,,,,,,,,
7,18,4053,B,44.5783902637638,15.613294202171607,2.22891951318819,0.2452530518193921,B,1012.4848750419916,Correct,sub_007_day_15_data.csv,1,300,162.0,Training at home,,,,,,,,,,,,,
7,18,4054,A,23.78783882072605,34.647869582127186,1.1893919410363023,0.5442474627087401,A,1053.3951239776798,Correct,sub_007_day_15_data.csv,1,300,162.0,Training at home,,,,,,,,,,,,,
7,18,4055,A,45.2069657909624,74.91660415937409,2.2603482895481197,1.176787266294921,A,1483.3184580202214,Correct,sub_007_day_15_data.csv,1,300,162.0,Training at home,,,,,,,,,,,,,
7,18,4056,A,36.499731529137335,44.285209688909354,1.824986576456867,0.6956304471068058,A,2808.3124160184525,Correct,sub_007_day_15_data.csv,1,300,162.0,Training at home,,,,,,,,,,,,,
7,18,4057,A,43.46093475841953,67.86616047671444,2.1730467379209766,1.0660391559049602,A,1657.3949579615146,Correct,sub_007_day_15_data.csv,1,300,162.0,Training at home,,,,,,,,,,,,,
7,18,4058,B,50.654213588825144,29.16603832074656,2.5327106794412573,0.4581390586138789,B,806.2539579696022,Correct,sub_007_day_15_data.csv,1,300,162.0,Training at home,,,,,,,,,,,,,
7,18,4059,A,55.33639851467383,78.11700833990858,2.7668199257336914,1.2270590976053468,A,836.0833330079913,Correct,sub_007_day_15_data.csv,1,300,162.0,Training at home,,,,,,,,,,,,,
7,18,4060,B,78.19530795536309,53.55317163500672,3.9097653977681546,0.8412112529248521,B,837.9499570000917,Correct,sub_007_day_15_data.csv,1,300,162.0,Training at home,,,,,,,,,,,,,
7,18,4061,A,54.49252146913698,73.89560234765014,2.724626073456849,1.160749407339852,A,716.4267910411581,Correct,sub_007_day_15_data.csv,1,300,162.0,Training at home,,,,,,,,,,,,,
7,18,4062,A,54.17817306074189,76.04539471268733,2.708908653037094,1.194518266843573,A,886.1649579484947,Correct,sub_007_day_15_data.csv,1,300,162.0,Training at home,,,,,,,,,,,,,
7,18,4063,A,61.375316227557875,87.35672216529076,3.0687658113778933,1.3721961829808105,A,1048.966415983159,Correct,sub_007_day_15_data.csv,1,300,162.0,Training at home,,,,,,,,,,,,,
7,18,4064,A,14.390376020597412,43.194490974482726,0.7195188010298706,0.6784974776049277,A,927.9998319689184,Correct,sub_007_day_15_data.csv,1,300,162.0,Training at home,,,,,,,,,,,,,
7,18,4065,A,66.52576355409337,80.27091266561979,3.3262881777046687,1.260892547636295,A,676.9034580211155,Correct,sub_007_day_15_data.csv,1,300,162.0,Training at home,,,,,,,,,,,,,
7,18,4066,B,55.09127831154106,40.929851387486806,2.754563915577053,0.6429246021572528,B,1530.4040409973825,Correct,sub_007_day_15_data.csv,1,300,162.0,Training at home,,,,,,,,,,,,,
7,18,4067,B,67.65603165354077,57.10841259526957,3.3828015826770383,0.8970568473373685,B,1690.9007910289802,Correct,sub_007_day_15_data.csv,1,300,162.0,Training at home,,,,,,,,,,,,,
7,18,4068,B,45.71317762814123,20.10698605902789,2.2856588814070617,0.3158397984443719,B,899.1019580280408,Correct,sub_007_day_15_data.csv,1,300,162.0,Training at home,,,,,,,,,,,,,
7,18,4069,B,81.30049806182242,66.52993257534214,4.065024903091121,1.0450497371125955,B,874.0686240489595,Correct,sub_007_day_15_data.csv,1,300,162.0,Training at home,,,,,,,,,,,,,
7,18,4070,B,72.80795559039805,44.31224676152522,3.6403977795199025,0.6960551444503287,B,763.2769579649903,Correct,sub_007_day_15_data.csv,1,300,162.0,Training at home,,,,,,,,,,,,,
7,18,4071,A,25.657907116803557,43.79439057832274,1.282895355840178,0.687920678546504,A,711.4638739731163,Correct,sub_007_day_15_data.csv,1,300,162.0,Training at home,,,,,,,,,,,,,
7,18,4072,B,64.87325004600143,39.273657297994056,3.2436625023000714,0.6169091662349064,B,1135.86708199,Correct,sub_007_day_15_data.csv,1,300,162.0,Training at home,,,,,,,,,,,,,
7,18,4073,A,37.955806927296045,64.63692739662817,1.8977903463648025,1.0153144812993191,A,794.701290957164,Correct,sub_007_day_15_data.csv,1,300,162.0,Training at home,,,,,,,,,,,,,
7,18,4074,B,77.53733663362934,64.95657613933652,3.876866831681467,1.0203355120084283,B,1565.5193739803508,Correct,sub_007_day_15_data.csv,1,300,162.0,Training at home,,,,,,,,,,,,,
7,18,4075,B,64.09904060369212,44.43320102814201,3.204952030184606,0.6979550896274469,B,1674.010457994882,Correct,sub_007_day_15_data.csv,1,300,163.0,Training at home,,,,,,,,,,,,,
7,18,4076,B,39.57378901938465,27.64106888690289,1.9786894509692323,0.4341848947623176,B,876.8374160281383,Correct,sub_007_day_15_data.csv,1,300,163.0,Training at home,,,,,,,,,,,,,
7,18,4077,B,54.18909920826015,46.96306050896036,2.709454960413008,0.737694029425214,B,1373.1317489873618,Correct,sub_007_day_15_data.csv,1,300,163.0,Training at home,,,,,,,,,,,,,
7,18,4078,B,86.29037163492922,59.63134307066604,4.31451858174646,0.9366869465724852,B,865.5122080235742,Correct,sub_007_day_15_data.csv,1,300,163.0,Training at home,,,,,,,,,,,,,
7,18,4079,B,80.04509013638346,54.19941485185075,4.002254506819173,0.8513624176371991,B,572.6374990190379,Correct,sub_007_day_15_data.csv,1,300,163.0,Training at home,,,,,,,,,,,,,
7,18,4080,B,81.4325174018797,58.176623406940685,4.0716258700939845,0.9138362635295244,B,1020.7177490228788,Correct,sub_007_day_15_data.csv,1,300,163.0,Training at home,,,,,,,,,,,,,
7,18,4081,B,35.463295280361365,24.72449369868739,1.7731647640180683,0.3883714388376172,B,903.7497069803068,Correct,sub_007_day_15_data.csv,1,300,163.0,Training at home,,,,,,,,,,,,,
7,18,4082,B,35.72160961764844,18.358456200035256,1.7860804808824218,0.2883739556464038,B,1047.4959580460563,Correct,sub_007_day_15_data.csv,1,300,163.0,Training at home,,,,,,,,,,,,,
7,18,4083,A,22.546035425996468,42.53691022327615,1.1273017712998237,0.6681682233192646,A,860.6264580157585,Correct,sub_007_day_15_data.csv,1,300,163.0,Training at home,,,,,,,,,,,,,
7,18,4084,A,31.893086357354456,41.274125608379464,1.5946543178677228,0.6483324489731364,A,1765.6167080276646,Correct,sub_007_day_15_data.csv,1,300,163.0,Training at home,,,,,,,,,,,,,
7,18,4085,A,43.022228410053046,73.88164025384586,2.1511114205026525,1.1605300912832306,A,1015.986457990948,Correct,sub_007_day_15_data.csv,1,300,163.0,Training at home,,,,,,,,,,,,,
7,18,4086,A,62.654276892884695,83.89462431613813,3.132713844644235,1.317813677136276,A,1607.8823319985531,Correct,sub_007_day_15_data.csv,1,300,163.0,Training at home,,,,,,,,,,,,,
7,18,4087,A,20.909852311001902,46.06353307245454,1.045492615550095,0.7235642854940681,A,808.6885410011746,Correct,sub_007_day_15_data.csv,1,300,163.0,Training at home,,,,,,,,,,,,,
7,18,4088,B,68.08118684533657,51.303550330689134,3.4040593422668284,0.805874284109836,B,1673.229748965241,Correct,sub_007_day_15_data.csv,1,300,163.0,Training at home,,,,,,,,,,,,,
7,18,4089,B,59.95318392684373,40.73780413842098,2.997659196342186,0.639907931023216,B,1030.1553750177843,Correct,sub_007_day_15_data.csv,1,300,163.0,Training at home,,,,,,,,,,,,,
7,18,4090,A,41.13444053472723,62.244002132844976,2.0567220267363613,0.977726499152866,A,1407.5550409615971,Correct,sub_007_day_15_data.csv,1,300,163.0,Training at home,,,,,,,,,,,,,
7,18,4091,A,62.81752686524813,73.48462426049382,3.140876343262406,1.1542937786428684,A,1131.9369159755297,Correct,sub_007_day_15_data.csv,1,300,163.0,Training at home,,,,,,,,,,,,,
7,18,4092,B,41.70808342390214,32.96243592313143,2.085404171195107,0.5177727327026699,B,2192.890540987719,Correct,sub_007_day_15_data.csv,1,300,163.0,Training at home,,,,,,,,,,,,,
7,18,4093,A,31.617576590326017,48.72615662144534,1.580878829516301,0.7653886783979917,A,1982.387290976476,Correct,sub_007_day_15_data.csv,1,300,163.0,Training at home,,,,,,,,,,,,,
7,18,4094,B,42.14333876327807,19.78803104887578,2.1071669381639033,0.3108296648607744,B,884.7197910072282,Correct,sub_007_day_15_data.csv,1,300,163.0,Training at home,,,,,,,,,,,,,
7,18,4095,B,40.162348899344984,21.53802396098422,2.008117444967249,0.3383184892433448,B,664.3420829786919,Correct,sub_007_day_15_data.csv,1,300,163.0,Training at home,,,,,,,,,,,,,
7,18,4096,A,49.35166681322213,70.39303663624356,2.4675833406611063,1.1057312338014995,A,1435.1226660073737,Correct,sub_007_day_15_data.csv,1,300,163.0,Training at home,,,,,,,,,,,,,
7,18,4097,A,33.20801877762559,44.47921298175367,1.6604009388812797,0.6986778437046653,A,1684.273832011968,Correct,sub_007_day_15_data.csv,1,300,163.0,Training at home,,,,,,,,,,,,,
7,18,4098,B,33.554692143977235,11.662928353102064,1.6777346071988617,0.1832008501672477,B,595.1430829591118,Correct,sub_007_day_15_data.csv,1,300,163.0,Training at home,,,,,,,,,,,,,
7,18,4099,B,62.98660175223099,31.22529351649768,3.1493300876115495,0.4904857635880705,B,1390.3412909712642,Correct,sub_007_day_15_data.csv,1,300,163.0,Training at home,,,,,,,,,,,,,
7,18,4100,B,52.42146003174379,45.39152666339274,2.6210730015871895,0.7130084335046992,B,2797.446956974454,Correct,sub_007_day_15_data.csv,1,300,164.0,Training at home,,,,,,,,,,,,,
7,18,4101,B,47.431238561820166,33.93694871093194,2.3715619280910083,0.5330803437775868,B,1592.8234579623677,Correct,sub_007_day_15_data.csv,1,300,164.0,Training at home,,,,,,,,,,,,,
7,18,4102,B,87.24141105007313,67.9933796157978,4.362070552503656,1.0680375094686618,B,1220.1471659936942,Correct,sub_007_day_15_data.csv,1,300,164.0,Training at home,,,,,,,,,,,,,
7,18,4103,B,36.33657843537502,15.030198516004027,1.816828921768751,0.2360938061993723,B,814.5858329953626,Correct,sub_007_day_15_data.csv,1,300,164.0,Training at home,,,,,,,,,,,,,
7,18,4104,B,81.16561956052348,67.5302798017422,4.058280978026175,1.0607631546000824,B,734.070623992011,Correct,sub_007_day_15_data.csv,1,300,164.0,Training at home,,,,,,,,,,,,,
7,18,4105,A,57.84591834850606,74.30727973491679,2.892295917425303,1.1672160206172817,A,1756.1617500032298,Correct,sub_007_day_15_data.csv,1,300,164.0,Training at home,,,,,,,,,,,,,
7,18,4106,B,48.05006887574592,19.64551411009925,2.402503443787296,0.3085910140214121,B,2487.509041035082,Correct,sub_007_day_15_data.csv,1,300,164.0,Training at home,,,,,,,,,,,,,
7,18,4107,B,85.26441957284062,64.75989300839018,4.263220978642031,1.017246020612098,B,906.06091596419,Correct,sub_007_day_15_data.csv,1,300,164.0,Training at home,,,,,,,,,,,,,
7,18,4108,B,74.64940728176349,53.944422551287225,3.7324703640881745,0.8473570079463375,B,775.0817909836769,Correct,sub_007_day_15_data.csv,1,300,164.0,Training at home,,,,,,,,,,,,,
7,18,4109,B,77.52781363961812,61.345938233360066,3.8763906819809058,0.963619744407486,B,1028.022000042256,Correct,sub_007_day_15_data.csv,1,300,164.0,Training at home,,,,,,,,,,,,,
7,18,4110,B,76.72895624428651,47.113769469215235,3.8364478122143257,0.7400613602370483,B,907.3727910290472,Correct,sub_007_day_15_data.csv,1,300,164.0,Training at home,,,,,,,,,,,,,
7,18,4111,B,36.985332615891025,18.902448265581405,1.8492666307945511,0.2969189630300583,B,1171.3620410300791,Correct,sub_007_day_15_data.csv,1,300,164.0,Training at home,,,,,,,,,,,,,
7,18,4112,A,35.37026540895171,64.11499388685093,1.7685132704475854,1.007115968899427,A,1657.9391660052352,Correct,sub_007_day_15_data.csv,1,300,164.0,Training at home,,,,,,,,,,,,,
7,18,4113,A,40.003239989923905,57.48505757512477,2.000161999496195,0.9029731728459912,A,1156.839624978602,Correct,sub_007_day_15_data.csv,1,300,164.0,Training at home,,,,,,,,,,,,,
7,18,4114,A,64.71589655809848,79.72540357846256,3.235794827904924,1.2523237109328968,A,2811.1557490192354,Correct,sub_007_day_15_data.csv,1,300,164.0,Training at home,,,,,,,,,,,,,
7,18,4115,A,38.37783728348309,59.034033718529095,1.9188918641741544,0.9273044332095158,A,915.5240830150432,Correct,sub_007_day_15_data.csv,1,300,164.0,Training at home,,,,,,,,,,,,,
7,18,4116,A,12.263826604047049,32.0006239051727,0.6131913302023524,0.5026646248539024,A,614.1307490179315,Correct,sub_007_day_15_data.csv,1,300,164.0,Training at home,,,,,,,,,,,,,
7,18,4117,B,34.888055002908104,23.844675239726257,1.7444027501454054,0.3745512828017922,B,1852.6369159808385,Correct,sub_007_day_15_data.csv,1,300,164.0,Training at home,,,,,,,,,,,,,
7,18,4118,A,26.67279741818496,50.12631909971402,1.333639870909248,0.7873823791757965,A,1308.0731250229292,Correct,sub_007_day_15_data.csv,1,300,164.0,Training at home,,,,,,,,,,,,,
7,18,4119,A,16.85671589478438,33.26206858348591,0.8428357947392189,0.5224793515253959,A,833.1272909999825,Correct,sub_007_day_15_data.csv,1,300,164.0,Training at home,,,,,,,,,,,,,
7,18,4120,B,45.85205585330814,34.74009353075734,2.292602792665407,0.5456961131062479,B,1632.5173740042374,Correct,sub_007_day_15_data.csv,1,300,164.0,Training at home,,,,,,,,,,,,,
7,18,4121,B,48.823290980409865,40.10508924530048,2.441164549020493,0.629969268722995,B,1542.3169159912504,Correct,sub_007_day_15_data.csv,1,300,164.0,Training at home,,,,,,,,,,,,,
7,18,4122,A,22.4894771601416,40.515403713956104,1.12447385800708,0.6364144733249456,A,1128.89787403401,Correct,sub_007_day_15_data.csv,1,300,164.0,Training at home,,,,,,,,,,,,,
7,18,4123,B,86.48233856931441,67.30330892552439,4.32411692846572,1.057197904413559,B,1748.5016249702312,Correct,sub_007_day_15_data.csv,1,300,164.0,Training at home,,,,,,,,,,,,,
7,18,4124,B,81.77879596831312,60.01654805173929,4.088939798415656,0.9427377322658148,B,1915.0019160006195,Correct,sub_007_day_15_data.csv,1,300,164.0,Training at home,,,,,,,,,,,,,
7,18,4125,B,61.60324792193663,44.16549152521652,3.080162396096831,0.6937499185890124,B,3381.9751240080222,Correct,sub_007_day_15_data.csv,1,300,165.0,Training at home,,,,,,,,,,,,,
7,18,4126,A,38.91765046904114,70.46752782948647,1.9458825234520571,1.106901338728745,A,1407.0117070223205,Correct,sub_007_day_15_data.csv,1,300,165.0,Training at home,,,,,,,,,,,,,
7,18,4127,B,75.62362750361847,53.53833154082549,3.7811813751809233,0.8409781452705605,B,849.603540962562,Correct,sub_007_day_15_data.csv,1,300,165.0,Training at home,,,,,,,,,,,,,
7,18,4128,A,41.161101892056,53.47251715514854,2.0580550946028,0.8399443353178443,A,1025.2231659833342,Correct,sub_007_day_15_data.csv,1,300,165.0,Training at home,,,,,,,,,,,,,
7,18,4129,B,38.50905902179655,14.062618949800758,1.9254529510898275,0.2208951019146333,B,721.9807909568772,Correct,sub_007_day_15_data.csv,1,300,165.0,Training at home,,,,,,,,,,,,,
7,18,4130,B,55.40937301447158,27.827150823616368,2.7704686507235796,0.4371078629890417,B,866.186416009441,Correct,sub_007_day_15_data.csv,1,300,165.0,Training at home,,,,,,,,,,,,,
7,18,4131,B,48.4373245491665,27.714098607181505,2.421866227458325,0.4353320429259226,B,948.7564580049366,Correct,sub_007_day_15_data.csv,1,300,165.0,Training at home,,,,,,,,,,,,,
7,18,4132,A,38.57942949003062,60.87491717968354,1.9289714745015312,0.9562209629979048,A,1868.9101240015589,Correct,sub_007_day_15_data.csv,1,300,165.0,Training at home,,,,,,,,,,,,,
7,18,4133,B,81.4980273231263,63.70514211721471,4.074901366156315,1.0006780323566773,B,1493.5037069953978,Correct,sub_007_day_15_data.csv,1,300,165.0,Training at home,,,,,,,,,,,,,
7,18,4134,A,57.90687793421363,68.22979329127486,2.8953438967106813,1.0717510867990965,A,2339.8121659993194,Correct,sub_007_day_15_data.csv,1,300,165.0,Training at home,,,,,,,,,,,,,
7,18,4135,A,58.30119372349361,73.18434417412632,2.9150596861746805,1.1495769900761112,A,1077.5569989928044,Correct,sub_007_day_15_data.csv,1,300,165.0,Training at home,,,,,,,,,,,,,
7,18,4136,A,25.905893972230334,36.86371596657731,1.2952946986115168,0.5790538963231002,A,765.599874954205,Correct,sub_007_day_15_data.csv,1,300,165.0,Training at home,,,,,,,,,,,,,
7,18,4137,B,88.0551626040728,64.7896614548831,4.40275813020364,1.0177136222761527,B,1317.8816660074517,Correct,sub_007_day_15_data.csv,1,300,165.0,Training at home,,,,,,,,,,,,,
7,18,4138,B,70.43263873062995,43.47187610776964,3.5216319365314974,0.6828546330896738,B,1706.9059999776073,Correct,sub_007_day_15_data.csv,1,300,165.0,Training at home,,,,,,,,,,,,,
7,18,4139,B,36.82726911903831,11.51501477663282,1.8413634559519156,0.1808774291412379,B,1143.2028739945963,Correct,sub_007_day_15_data.csv,1,300,165.0,Training at home,,,,,,,,,,,,,
7,18,4140,B,56.985123812071976,46.821746941970574,2.8492561906035987,0.7354742811056756,B,1985.5825830018148,Correct,sub_007_day_15_data.csv,1,300,165.0,Training at home,,,,,,,,,,,,,
7,18,4141,B,53.76419682833862,25.16174938699526,2.688209841416931,0.3952398351282589,B,643.1398739805445,Correct,sub_007_day_15_data.csv,1,300,165.0,Training at home,,,,,,,,,,,,,
7,18,4142,B,42.35092499413181,30.689718589528123,2.1175462497065904,0.4820729723079983,B,735.1848329999484,Correct,sub_007_day_15_data.csv,1,300,165.0,Training at home,,,,,,,,,,,,,
7,18,4143,A,25.52347209975501,48.62407074495322,1.2761736049877506,0.7637851171998771,A,1170.6980409799144,Correct,sub_007_day_15_data.csv,1,300,165.0,Training at home,,,,,,,,,,,,,
7,18,4144,A,33.506131499904996,65.70619652627008,1.6753065749952498,1.0321105215112862,A,956.9444579537958,Correct,sub_007_day_15_data.csv,1,300,165.0,Training at home,,,,,,,,,,,,,
7,18,4145,A,59.2358073754015,79.0164738901973,2.961790368770075,1.2411878694300678,A,2514.4901659805328,Correct,sub_007_day_15_data.csv,1,300,165.0,Training at home,,,,,,,,,,,,,
7,18,4146,B,49.43674011628133,19.927402483494937,2.4718370058140664,0.3130189062363734,B,1770.1647490030157,Correct,sub_007_day_15_data.csv,1,300,165.0,Training at home,,,,,,,,,,,,,
7,18,4147,A,29.91764208464224,59.89748270408834,1.495882104232112,0.9408674581584282,A,721.6985410195775,Correct,sub_007_day_15_data.csv,1,300,165.0,Training at home,,,,,,,,,,,,,
7,18,4148,B,64.08012536420023,35.33208568992652,3.204006268210011,0.5549951041973911,B,1101.7120409524068,Correct,sub_007_day_15_data.csv,1,300,165.0,Training at home,,,,,,,,,,,,,
7,18,4149,A,41.41762670117115,51.91341855372019,2.0708813350585573,0.8154540717554972,A,2880.94150001416,Correct,sub_007_day_15_data.csv,1,300,165.0,Training at home,,,,,,,,,,,,,
7,18,4150,B,56.62454879850889,44.02508367458232,2.831227439925444,0.6915443972287187,B,1058.156625018455,Correct,sub_007_day_15_data.csv,1,300,166.0,Training at home,,,,,,,,,,,,,
7,18,4151,B,61.892817574520066,28.942093344682444,3.094640878726003,0.454621339155822,B,1421.9687499571592,Correct,sub_007_day_15_data.csv,1,300,166.0,Training at home,,,,,,,,,,,,,
7,18,4152,A,35.076251094645706,62.045380472894706,1.7538125547322851,0.974606557414148,A,2206.691874016542,Correct,sub_007_day_15_data.csv,1,300,166.0,Training at home,,,,,,,,,,,,,
7,18,4153,A,44.44141156620794,55.44097641778464,2.222070578310397,0.870864821109786,A,779.4964159838855,Correct,sub_007_day_15_data.csv,1,300,166.0,Training at home,,,,,,,,,,,,,
7,18,4154,B,78.96223937217387,62.67514734795316,3.9481119686086936,0.9844989123549373,B,1719.3039989797398,Correct,sub_007_day_15_data.csv,1,300,166.0,Training at home,,,,,,,,,,,,,
7,18,4155,A,50.86466326780009,69.75942228874099,2.5432331633900045,1.095778442904884,A,2460.2207490243018,Correct,sub_007_day_15_data.csv,1,300,166.0,Training at home,,,,,,,,,,,,,
7,18,4156,A,23.619005763987136,41.781155677656514,1.1809502881993568,0.6562968586770859,A,724.9932080158032,Correct,sub_007_day_15_data.csv,1,300,166.0,Training at home,,,,,,,,,,,,,
7,18,4157,A,65.35118857791525,88.39963603887001,3.267559428895763,1.3885782357986278,A,926.3359990436584,Correct,sub_007_day_15_data.csv,1,300,166.0,Training at home,,,,,,,,,,,,,
7,18,4158,B,50.72112281538775,41.51750280424025,2.5360561407693876,0.652155409025974,B,2061.689790978562,Correct,sub_007_day_15_data.csv,1,300,166.0,Training at home,,,,,,,,,,,,,
7,18,4159,A,27.930223943873862,45.57900735041134,1.3965111971936932,0.7159533732498373,A,632.6740410295315,Correct,sub_007_day_15_data.csv,1,300,166.0,Training at home,,,,,,,,,,,,,
7,18,4160,A,36.21065808879306,52.187234283226886,1.810532904439653,0.8197551591767749,A,578.9606249891222,Correct,sub_007_day_15_data.csv,1,300,166.0,Training at home,,,,,,,,,,,,,
7,18,4161,A,36.37956195122864,48.6326085852666,1.818978097561432,0.7639192292819074,A,727.7914579608478,Correct,sub_007_day_15_data.csv,1,300,166.0,Training at home,,,,,,,,,,,,,
7,18,4162,A,35.638156640178615,46.06258295408308,1.7819078320089303,0.7235493610695891,A,1145.0602079858072,Correct,sub_007_day_15_data.csv,1,300,166.0,Training at home,,,,,,,,,,,,,
7,18,4163,A,53.37626776225877,60.61383887609357,2.668813388112939,0.9521199545950548,B,2008.5987070342528,Incorrect,sub_007_day_15_data.csv,0,300,166.0,Training at home,,,,,,,,,,,,,
7,18,4164,B,42.95540686225183,24.83288125667889,2.1477703431125916,0.3900739866172503,B,804.1444580303505,Correct,sub_007_day_15_data.csv,1,300,166.0,Training at home,,,,,,,,,,,,,
7,18,4165,B,75.38435941579894,47.1172936625772,3.769217970789947,0.7401167181369273,B,1508.8000409887172,Correct,sub_007_day_15_data.csv,1,300,166.0,Training at home,,,,,,,,,,,,,
7,18,4166,B,53.92278145173174,31.945867114581645,2.696139072586587,0.5018045071986273,B,1670.073333021719,Correct,sub_007_day_15_data.csv,1,300,166.0,Training at home,,,,,,,,,,,,,
7,18,4167,A,59.225105993341245,73.73238650292451,2.9612552996670622,1.1581856188461543,A,1305.222875031177,Correct,sub_007_day_15_data.csv,1,300,166.0,Training at home,,,,,,,,,,,,,
7,18,4168,B,54.38778431703725,33.09968193215989,2.719389215851862,0.5199285879711616,B,1484.8930410225876,Correct,sub_007_day_15_data.csv,1,300,166.0,Training at home,,,,,,,,,,,,,
7,18,4169,A,28.269618919308694,51.30084564232425,1.413480945965435,0.8058317989643491,A,746.3925409829244,Correct,sub_007_day_15_data.csv,1,300,166.0,Training at home,,,,,,,,,,,,,
7,18,4170,A,39.58412804257221,58.83242466040434,1.9792064021286109,0.9241375655300064,A,1217.6732500083745,Correct,sub_007_day_15_data.csv,1,300,166.0,Training at home,,,,,,,,,,,,,
7,18,4171,A,64.144443665469,85.95743135604141,3.20722218327345,1.3502161743479433,A,741.0624990006909,Correct,sub_007_day_15_data.csv,1,300,166.0,Training at home,,,,,,,,,,,,,
7,18,4172,B,67.25916328278016,49.968674227690215,3.362958164139008,0.7849060993166661,B,1396.5009160456248,Correct,sub_007_day_15_data.csv,1,300,166.0,Training at home,,,,,,,,,,,,,
7,18,4173,A,53.68037908632411,72.56337650097788,2.6840189543162056,1.1398228526757117,A,1140.3070819796994,Correct,sub_007_day_15_data.csv,1,300,166.0,Training at home,,,,,,,,,,,,,
7,18,4174,B,55.87253651369835,23.889174237289183,2.793626825684918,0.3752502714209712,B,1051.9542070105672,Correct,sub_007_day_15_data.csv,1,300,166.0,Training at home,,,,,,,,,,,,,
7,18,4175,A,24.135542585204774,55.953084874578096,1.206777129260239,0.8789090019383036,A,608.8778740377165,Correct,sub_007_day_15_data.csv,1,300,167.0,Training at home,,,,,,,,,,,,,
7,18,4176,A,17.909947597587554,46.42490315549179,0.8954973798793776,0.729240673484553,A,1104.6296249842271,Correct,sub_007_day_15_data.csv,1,300,167.0,Training at home,,,,,,,,,,,,,
7,18,4177,A,60.188605581459726,77.92360315613755,3.0094302790729865,1.2240210960828408,A,1288.74316602014,Correct,sub_007_day_15_data.csv,1,300,167.0,Training at home,,,,,,,,,,,,,
7,18,4178,B,50.17304834337273,41.63522012516255,2.508652417168636,0.6540045083790229,B,1401.1448320234194,Correct,sub_007_day_15_data.csv,1,300,167.0,Training at home,,,,,,,,,,,,,
7,18,4179,B,35.92729452279123,22.549399167101654,1.7963647261395612,0.3542051338311518,B,1605.9124160092324,Correct,sub_007_day_15_data.csv,1,300,167.0,Training at home,,,,,,,,,,,,,
7,18,4180,B,49.178794134582525,19.841499612218293,2.4589397067291263,0.3116695470897486,B,1422.0791250118054,Correct,sub_007_day_15_data.csv,1,300,167.0,Training at home,,,,,,,,,,,,,
7,18,4181,B,35.942237391423056,10.885546557176523,1.7971118695711528,0.1709897654716772,B,1081.78833295824,Correct,sub_007_day_15_data.csv,1,300,167.0,Training at home,,,,,,,,,,,,,
7,18,4182,B,52.74689006300391,33.39808605112772,2.6373445031501954,0.5246159089109129,B,1297.0406250096858,Correct,sub_007_day_15_data.csv,1,300,167.0,Training at home,,,,,,,,,,,,,
7,18,4183,A,42.52307662878924,74.2895564719765,2.1261538314394617,1.1669376242540273,A,853.6179990042001,Correct,sub_007_day_15_data.csv,1,300,167.0,Training at home,,,,,,,,,,,,,
7,18,4184,A,48.56030604682475,61.322071885591775,2.428015302341237,0.9632448526934017,A,1102.4537080083974,Correct,sub_007_day_15_data.csv,1,300,167.0,Training at home,,,,,,,,,,,,,
7,18,4185,B,60.84726162683082,38.03856967020438,3.042363081341541,0.597508455144888,B,750.8025409770198,Correct,sub_007_day_15_data.csv,1,300,167.0,Training at home,,,,,,,,,,,,,
7,18,4186,A,28.451270710386847,61.22336830417075,1.4225635355193424,0.961694420462025,A,924.286832974758,Correct,sub_007_day_15_data.csv,1,300,167.0,Training at home,,,,,,,,,,,,,
7,18,4187,A,55.17471265846624,72.55568393510556,2.758735632923312,1.1397020181335529,A,948.4812080045232,Correct,sub_007_day_15_data.csv,1,300,167.0,Training at home,,,,,,,,,,,,,
7,18,4188,B,78.38290996498525,47.47666823945865,3.919145498249262,0.7457617607900158,B,2778.291416005231,Correct,sub_007_day_15_data.csv,1,300,167.0,Training at home,,,,,,,,,,,,,
7,18,4189,B,46.398578869595354,30.117961578635132,2.3199289434797676,0.4730918341826988,B,1070.4040820128284,Correct,sub_007_day_15_data.csv,1,300,167.0,Training at home,,,,,,,,,,,,,
7,18,4190,B,72.92179411178537,60.30738177542419,3.646089705589269,0.9473061377145382,B,1391.4578320109283,Correct,sub_007_day_15_data.csv,1,300,167.0,Training at home,,,,,,,,,,,,,
7,18,4191,A,27.26358221633149,55.56233760489383,1.3631791108165745,0.8727711581790517,A,574.3502080440521,Correct,sub_007_day_15_data.csv,1,300,167.0,Training at home,,,,,,,,,,,,,
7,18,4192,A,68.20144163649434,81.15282760380387,3.4100720818247168,1.2747456350907462,A,854.6890409779735,Correct,sub_007_day_15_data.csv,1,300,167.0,Training at home,,,,,,,,,,,,,
7,18,4193,A,52.3411388569613,63.605929459547035,2.617056942848065,0.9991196035743176,A,1017.2325410530902,Correct,sub_007_day_15_data.csv,1,300,167.0,Training at home,,,,,,,,,,,,,
7,18,4194,A,30.84667282359229,51.72503071820719,1.5423336411796142,0.8124948825551305,A,548.7271240563132,Correct,sub_007_day_15_data.csv,1,300,167.0,Training at home,,,,,,,,,,,,,
7,18,4195,A,45.9585895299019,67.03173703633762,2.297929476495095,1.0529320631536054,A,536.1287080449983,Correct,sub_007_day_15_data.csv,1,300,167.0,Training at home,,,,,,,,,,,,,
7,18,4196,B,68.88980935767597,42.79751290925595,3.4444904678837984,0.6722617607381641,B,994.1832069889642,Correct,sub_007_day_15_data.csv,1,300,167.0,Training at home,,,,,,,,,,,,,
7,18,4197,B,54.02542738437688,45.94227667822414,2.7012713692188437,0.7216595945074933,B,1401.7011660034768,Correct,sub_007_day_15_data.csv,1,300,167.0,Training at home,,,,,,,,,,,,,
7,18,4198,B,69.87492950886217,48.45354166226024,3.4937464754431087,0.7611064526328187,B,745.2962069655769,Correct,sub_007_day_15_data.csv,1,300,167.0,Training at home,,,,,,,,,,,,,
7,18,4199,B,57.39937710050366,50.43905988287506,2.869968855025183,0.7922948999100795,B,2694.506125000771,Correct,sub_007_day_15_data.csv,1,300,167.0,Training at home,,,,,,,,,,,,,
