subject,day,trial,cat,x,y,xt,yt,resp,rt,fb,f_name,acc,n_trials,block,session_type,ns_left_digit,ns_right_digit,ns_left_size,ns_right_size,ns_congruent,ns_cue,ns_correct_side,ns_resp,ns_rt,ns_fb,acc_stroop,acc_stroop_mean,resp_key
7,10,2100,A,42.30212190907446,66.58857036762592,2.115106095453723,1.0459708173999027,A,677.0351239829324,Correct,sub_007_day_09_data.csv,1,300,84.0,Training at home,,,,,,,,,,,,,
7,10,2101,B,70.47843089503971,37.82980809960404,3.5239215447519854,0.5942292360621384,B,1035.041957977228,Correct,sub_007_day_09_data.csv,1,300,84.0,Training at home,,,,,,,,,,,,,
7,10,2102,B,59.71951037236724,40.79437859390462,2.9859755186183623,0.6407966004918574,B,988.9777909847908,Correct,sub_007_day_09_data.csv,1,300,84.0,Training at home,,,,,,,,,,,,,
7,10,2103,B,39.84023937282905,12.971568025652378,1.9920119686414528,0.2037569140746488,B,752.0909570157528,Correct,sub_007_day_09_data.csv,1,300,84.0,Training at home,,,,,,,,,,,,,
7,10,2104,A,39.39097683988317,67.72087659155773,1.9695488419941585,1.0637570419734936,A,786.3856239710003,Correct,sub_007_day_09_data.csv,1,300,84.0,Training at home,,,,,,,,,,,,,
7,10,2105,B,43.12368336492378,19.677751567870587,2.156184168246189,0.3090973988239363,B,590.6497489777394,Correct,sub_007_day_09_data.csv,1,300,84.0,Training at home,,,,,,,,,,,,,
7,10,2106,A,23.847175842848024,53.06606750962852,1.1923587921424013,0.8335598392157447,A,694.4683740148321,Correct,sub_007_day_09_data.csv,1,300,84.0,Training at home,,,,,,,,,,,,,
7,10,2107,B,60.531839161138606,36.264616588933784,3.02659195805693,0.5696432653052246,B,759.8752490011975,Correct,sub_007_day_09_data.csv,1,300,84.0,Training at home,,,,,,,,,,,,,
7,10,2108,A,44.601910788689445,74.71900381589478,2.230095539434472,1.1736833673578138,A,514.5788749796338,Correct,sub_007_day_09_data.csv,1,300,84.0,Training at home,,,,,,,,,,,,,
7,10,2109,B,61.62562345491035,33.546270888726326,3.0812811727455176,0.5269435908967788,B,423.8642500131391,Correct,sub_007_day_09_data.csv,1,300,84.0,Training at home,,,,,,,,,,,,,
7,10,2110,A,40.13599405795833,48.23452470683783,2.0067997028979163,0.7576661423419855,A,540.6710830284283,Correct,sub_007_day_09_data.csv,1,300,84.0,Training at home,,,,,,,,,,,,,
7,10,2111,A,29.485624533805854,49.279053067630635,1.4742812266902927,0.7740735554656497,A,507.051998982206,Correct,sub_007_day_09_data.csv,1,300,84.0,Training at home,,,,,,,,,,,,,
7,10,2112,A,32.75465781711136,48.17229061888287,1.637732890855568,0.7566885715743745,A,1049.3176659801975,Correct,sub_007_day_09_data.csv,1,300,84.0,Training at home,,,,,,,,,,,,,
7,10,2113,A,36.96892830360349,52.32852643666114,1.8484464151801745,0.8219745711329697,A,561.8512079818174,Correct,sub_007_day_09_data.csv,1,300,84.0,Training at home,,,,,,,,,,,,,
7,10,2114,A,59.172969005167566,81.6234542115566,2.9586484502583783,1.2821382205582454,A,866.2845410290174,Correct,sub_007_day_09_data.csv,1,300,84.0,Training at home,,,,,,,,,,,,,
7,10,2115,A,51.93135695629218,76.33243662416447,2.596567847814609,1.1990271106454178,A,520.5497079878114,Correct,sub_007_day_09_data.csv,1,300,84.0,Training at home,,,,,,,,,,,,,
7,10,2116,B,42.38984389958,15.599979913725656,2.119492194979,0.2450439114655442,B,592.174373974558,Correct,sub_007_day_09_data.csv,1,300,84.0,Training at home,,,,,,,,,,,,,
7,10,2117,A,68.76980279978665,88.5155925913606,3.4384901399893324,1.390399677065828,A,708.4684570436366,Correct,sub_007_day_09_data.csv,1,300,84.0,Training at home,,,,,,,,,,,,,
7,10,2118,B,48.33393498702167,32.50639928456641,2.416696749351084,0.5106093259352517,B,1642.420166055672,Correct,sub_007_day_09_data.csv,1,300,84.0,Training at home,,,,,,,,,,,,,
7,10,2119,A,22.221092827113516,42.52178730360457,1.111054641355676,0.6679306730525593,A,717.5724160042591,Correct,sub_007_day_09_data.csv,1,300,84.0,Training at home,,,,,,,,,,,,,
7,10,2120,A,61.122385881912976,86.70215239946833,3.056119294095649,1.3619142251429617,A,673.6610410152934,Correct,sub_007_day_09_data.csv,1,300,84.0,Training at home,,,,,,,,,,,,,
7,10,2121,A,48.48315489332504,57.63667550275809,2.424157744666252,0.905354781684018,A,788.6885409825481,Correct,sub_007_day_09_data.csv,1,300,84.0,Training at home,,,,,,,,,,,,,
7,10,2122,A,13.485109047134753,36.34554472142743,0.6742554523567377,0.5709144814377785,A,552.7222080272622,Correct,sub_007_day_09_data.csv,1,300,84.0,Training at home,,,,,,,,,,,,,
7,10,2123,B,73.89067588694981,63.935677159483646,3.6945337943474903,1.0042992683326126,B,2441.7027079616673,Correct,sub_007_day_09_data.csv,1,300,84.0,Training at home,,,,,,,,,,,,,
7,10,2124,A,26.37351600283472,37.9559916185788,1.318675800141736,0.5962113221432146,A,459.2443330329843,Correct,sub_007_day_09_data.csv,1,300,84.0,Training at home,,,,,,,,,,,,,
7,10,2125,A,36.09877922216066,46.20801853316595,1.8049389611080329,0.7258338578036758,A,515.8643329632469,Correct,sub_007_day_09_data.csv,1,300,85.0,Training at home,,,,,,,,,,,,,
7,10,2126,A,26.948886553030647,50.43439527820597,1.3474443276515324,0.7922216284712781,A,589.2454570275731,Correct,sub_007_day_09_data.csv,1,300,85.0,Training at home,,,,,,,,,,,,,
7,10,2127,B,69.3970694131863,39.26743690248865,3.4698534706593147,0.6168114564907954,B,736.5275410120375,Correct,sub_007_day_09_data.csv,1,300,85.0,Training at home,,,,,,,,,,,,,
7,10,2128,A,52.831088290115986,63.8339141788035,2.641554414505799,1.002700779170052,A,955.6678739609196,Correct,sub_007_day_09_data.csv,1,300,85.0,Training at home,,,,,,,,,,,,,
7,10,2129,B,72.80391923596386,50.94233572347416,3.640195961798193,0.8002003383278564,B,1868.4314159909263,Correct,sub_007_day_09_data.csv,1,300,85.0,Training at home,,,,,,,,,,,,,
7,10,2130,A,43.42343811304646,72.21888809562107,2.171171905652323,1.134411641458133,A,457.26350002223626,Correct,sub_007_day_09_data.csv,1,300,85.0,Training at home,,,,,,,,,,,,,
7,10,2131,A,44.48252047379071,60.51504758448649,2.2241260236895353,0.9505681446152976,A,523.5720829805359,Correct,sub_007_day_09_data.csv,1,300,85.0,Training at home,,,,,,,,,,,,,
7,10,2132,A,63.91069296712993,79.18280065537144,3.195534648356497,1.2438005241478998,B,908.8663320289924,Incorrect,sub_007_day_09_data.csv,0,300,85.0,Training at home,,,,,,,,,,,,,
7,10,2133,B,55.35779851094616,31.256136501026266,2.767889925547308,0.4909702440561194,B,647.1873329719529,Correct,sub_007_day_09_data.csv,1,300,85.0,Training at home,,,,,,,,,,,,,
7,10,2134,B,85.92319871936523,58.36711260185345,4.296159935968261,0.9168284608061552,B,1038.8791660079733,Correct,sub_007_day_09_data.csv,1,300,85.0,Training at home,,,,,,,,,,,,,
7,10,2135,B,40.948672369602384,17.92876463074882,2.047433618480119,0.2816243762595051,B,652.3867910145782,Correct,sub_007_day_09_data.csv,1,300,85.0,Training at home,,,,,,,,,,,,,
7,10,2136,A,32.10810809342004,55.42564817765224,1.6054054046710022,0.8706240456768239,A,704.7035830328241,Correct,sub_007_day_09_data.csv,1,300,85.0,Training at home,,,,,,,,,,,,,
7,10,2137,B,66.26647292168333,45.64315251686914,3.313323646084166,0.7169609631683727,B,679.5927489874884,Correct,sub_007_day_09_data.csv,1,300,85.0,Training at home,,,,,,,,,,,,,
7,10,2138,B,85.90263682829482,66.44861564124818,4.295131841414741,1.0437724136987856,B,1082.09091599565,Correct,sub_007_day_09_data.csv,1,300,85.0,Training at home,,,,,,,,,,,,,
7,10,2139,A,60.92815037820281,71.76149893126922,3.04640751891014,1.127226989265336,B,1057.569416007027,Incorrect,sub_007_day_09_data.csv,0,300,85.0,Training at home,,,,,,,,,,,,,
7,10,2140,B,78.68490063749763,61.38479086305135,3.934245031874882,0.96423004008754,B,659.8558750119992,Correct,sub_007_day_09_data.csv,1,300,85.0,Training at home,,,,,,,,,,,,,
7,10,2141,B,69.9320412906379,60.63336248915763,3.496602064531895,0.9524266307919228,A,1992.5867909914816,Incorrect,sub_007_day_09_data.csv,0,300,85.0,Training at home,,,,,,,,,,,,,
7,10,2142,A,61.79691250959806,86.19702744793071,3.0898456254799034,1.3539797409584844,A,501.61433301400393,Correct,sub_007_day_09_data.csv,1,300,85.0,Training at home,,,,,,,,,,,,,
7,10,2143,B,58.07053247345144,28.41338434851729,2.903526623672572,0.4463163976646257,B,681.0912910150364,Correct,sub_007_day_09_data.csv,1,300,85.0,Training at home,,,,,,,,,,,,,
7,10,2144,B,64.85656290673016,44.11080407575312,3.2428281453365084,0.6928908901416235,A,1231.6168749821372,Incorrect,sub_007_day_09_data.csv,0,300,85.0,Training at home,,,,,,,,,,,,,
7,10,2145,A,23.71744962314439,51.737874805568374,1.1858724811572194,0.8126966370076103,A,505.3931660368107,Correct,sub_007_day_09_data.csv,1,300,85.0,Training at home,,,,,,,,,,,,,
7,10,2146,B,57.71504021406694,40.53418025249668,2.8857520107033467,0.6367094145026402,A,532.7903329744004,Incorrect,sub_007_day_09_data.csv,0,300,85.0,Training at home,,,,,,,,,,,,,
7,10,2147,B,57.21069226104404,41.29597269023467,2.860534613052202,0.6486756221324299,B,1570.0144580332562,Correct,sub_007_day_09_data.csv,1,300,85.0,Training at home,,,,,,,,,,,,,
7,10,2148,A,52.2301044307608,61.30497476176768,2.61150522153804,0.9629762917003852,B,1350.344665988814,Incorrect,sub_007_day_09_data.csv,0,300,85.0,Training at home,,,,,,,,,,,,,
7,10,2149,A,24.973747334211804,54.57020617515832,1.2486873667105902,0.8571867941237886,A,729.854165983852,Correct,sub_007_day_09_data.csv,1,300,85.0,Training at home,,,,,,,,,,,,,
7,10,2150,A,25.873268281735953,46.1310192923934,1.2936634140867975,0.7246243565579605,A,545.4875829746015,Correct,sub_007_day_09_data.csv,1,300,86.0,Training at home,,,,,,,,,,,,,
7,10,2151,B,69.31058255594608,38.86010170053753,3.4655291277973044,0.6104130501008046,B,889.8125410196371,Correct,sub_007_day_09_data.csv,1,300,86.0,Training at home,,,,,,,,,,,,,
7,10,2152,B,35.12995584597388,18.49344943634575,1.7564977922986942,0.2904944244437905,B,819.2254159948789,Correct,sub_007_day_09_data.csv,1,300,86.0,Training at home,,,,,,,,,,,,,
7,10,2153,B,44.23607000318608,32.71022915930691,2.211803500159304,0.5138110781205861,B,1909.4551660236905,Correct,sub_007_day_09_data.csv,1,300,86.0,Training at home,,,,,,,,,,,,,
7,10,2154,B,56.97009780372144,27.798627551720248,2.8485048901860717,0.4366598204818157,B,663.8166659977287,Correct,sub_007_day_09_data.csv,1,300,86.0,Training at home,,,,,,,,,,,,,
7,10,2155,B,43.69343031085623,24.10102165686586,2.1846715155428114,0.3785779629060914,B,1060.8160820556805,Correct,sub_007_day_09_data.csv,1,300,86.0,Training at home,,,,,,,,,,,,,
7,10,2156,B,75.57444356879208,56.966568155966904,3.778722178439604,0.8948287600950394,B,2343.674499017652,Correct,sub_007_day_09_data.csv,1,300,86.0,Training at home,,,,,,,,,,,,,
7,10,2157,B,34.78370890427262,15.668540423515918,1.7391854452136313,0.2461208574349615,B,783.9146660408005,Correct,sub_007_day_09_data.csv,1,300,86.0,Training at home,,,,,,,,,,,,,
7,10,2158,A,60.803458342459024,83.83237888585663,3.040172917122951,1.3168359282038162,A,948.7892070319504,Correct,sub_007_day_09_data.csv,1,300,86.0,Training at home,,,,,,,,,,,,,
7,10,2159,B,77.9074247229807,58.487170916814534,3.8953712361490354,0.9187143324075758,B,980.7927079964428,Correct,sub_007_day_09_data.csv,1,300,86.0,Training at home,,,,,,,,,,,,,
7,10,2160,B,54.92076440313773,47.53181550279184,2.746038220156886,0.7466280119767815,B,2078.4862079890445,Correct,sub_007_day_09_data.csv,1,300,86.0,Training at home,,,,,,,,,,,,,
7,10,2161,A,55.68432985577821,70.44796867579188,2.7842164927889104,1.1065941042609582,B,1121.4264160371386,Incorrect,sub_007_day_09_data.csv,0,300,86.0,Training at home,,,,,,,,,,,,,
7,10,2162,A,46.12832925851176,55.35598754767023,2.306416462925588,0.8695298190598442,A,775.4198329639621,Correct,sub_007_day_09_data.csv,1,300,86.0,Training at home,,,,,,,,,,,,,
7,10,2163,A,46.60458307689776,74.66970618181384,2.330229153844888,1.1729090019324735,A,545.3928330098279,Correct,sub_007_day_09_data.csv,1,300,86.0,Training at home,,,,,,,,,,,,,
7,10,2164,B,87.95457588411927,67.01236014568798,4.397728794205963,1.0526276916670338,B,805.0390830030665,Correct,sub_007_day_09_data.csv,1,300,86.0,Training at home,,,,,,,,,,,,,
7,10,2165,A,49.70042501789875,77.12782478629506,2.4850212508949374,1.2115210386799269,A,1274.749041011091,Correct,sub_007_day_09_data.csv,1,300,86.0,Training at home,,,,,,,,,,,,,
7,10,2166,A,30.449806043949888,59.05956656953006,1.5224903021974945,0.9277055022951648,A,706.8973749992438,Correct,sub_007_day_09_data.csv,1,300,86.0,Training at home,,,,,,,,,,,,,
7,10,2167,B,60.77470986339806,42.08768887743765,3.038735493169903,0.6611118709196548,B,865.1990829966962,Correct,sub_007_day_09_data.csv,1,300,86.0,Training at home,,,,,,,,,,,,,
7,10,2168,A,45.55014713936238,67.7896226904611,2.277507356968119,1.0648369031698828,A,1011.5277489530854,Correct,sub_007_day_09_data.csv,1,300,86.0,Training at home,,,,,,,,,,,,,
7,10,2169,B,40.43557241981741,13.959157850459423,2.0217786209908706,0.219269938766518,B,684.3469989835285,Correct,sub_007_day_09_data.csv,1,300,86.0,Training at home,,,,,,,,,,,,,
7,10,2170,B,68.30895232845273,54.11204497489332,3.415447616422637,0.8499900148192268,B,988.7853740365244,Correct,sub_007_day_09_data.csv,1,300,86.0,Training at home,,,,,,,,,,,,,
7,10,2171,B,71.31500938736725,48.662557971539826,3.5657504693683624,0.7643896731413846,B,905.0379999680443,Correct,sub_007_day_09_data.csv,1,300,86.0,Training at home,,,,,,,,,,,,,
7,10,2172,B,35.32961827674043,22.043295396921984,1.7664809138370217,0.346255274399399,B,1195.8347500185482,Correct,sub_007_day_09_data.csv,1,300,86.0,Training at home,,,,,,,,,,,,,
7,10,2173,B,77.59903615760803,48.45538338588115,3.879951807880401,0.7611353823598056,B,798.6394159961492,Correct,sub_007_day_09_data.csv,1,300,86.0,Training at home,,,,,,,,,,,,,
7,10,2174,A,27.651636055570513,56.67117391955037,1.3825818027785255,0.8901887182798446,A,643.0378329823725,Correct,sub_007_day_09_data.csv,1,300,86.0,Training at home,,,,,,,,,,,,,
7,10,2175,A,15.565860220146366,30.866220387174632,0.7782930110073183,0.4848454560621567,A,765.6772080226801,Correct,sub_007_day_09_data.csv,1,300,87.0,Training at home,,,,,,,,,,,,,
7,10,2176,A,54.36467083324372,79.1929245617061,2.7182335416621863,1.243959550096733,A,1515.0446239858866,Correct,sub_007_day_09_data.csv,1,300,87.0,Training at home,,,,,,,,,,,,,
7,10,2177,A,27.67465647352683,40.61860657045704,1.3837328236763418,0.6380355800040096,A,675.6239989772439,Correct,sub_007_day_09_data.csv,1,300,87.0,Training at home,,,,,,,,,,,,,
7,10,2178,B,43.25076489003832,34.66302050096491,2.1625382445019157,0.5444854527853188,B,1178.383832972031,Correct,sub_007_day_09_data.csv,1,300,87.0,Training at home,,,,,,,,,,,,,
7,10,2179,A,54.383352456245504,76.10436554997948,2.719167622812275,1.1954445785896384,A,2462.021124025341,Correct,sub_007_day_09_data.csv,1,300,87.0,Training at home,,,,,,,,,,,,,
7,10,2180,B,69.40538412066677,52.51779626972121,3.4702692060333384,0.824947614718408,B,680.5167910060845,Correct,sub_007_day_09_data.csv,1,300,87.0,Training at home,,,,,,,,,,,,,
7,10,2181,B,73.03010222539689,52.839385984069374,3.651505111269844,0.8299991341387393,B,1324.7143320040775,Correct,sub_007_day_09_data.csv,1,300,87.0,Training at home,,,,,,,,,,,,,
7,10,2182,B,75.442386902116,56.719876588215385,3.7721193451058,0.8909537380102859,B,840.8411249984056,Correct,sub_007_day_09_data.csv,1,300,87.0,Training at home,,,,,,,,,,,,,
7,10,2183,A,26.628069024210564,50.13907042536573,1.3314034512105284,0.7875826765307513,A,547.2195830079727,Correct,sub_007_day_09_data.csv,1,300,87.0,Training at home,,,,,,,,,,,,,
7,10,2184,A,65.1944476632728,83.0733276787812,3.25972238316364,1.3049127797245834,A,936.8129569920712,Correct,sub_007_day_09_data.csv,1,300,87.0,Training at home,,,,,,,,,,,,,
7,10,2185,A,31.351305347230568,56.98618860079472,1.5675652673615283,0.8951369573216954,A,882.9361660173163,Correct,sub_007_day_09_data.csv,1,300,87.0,Training at home,,,,,,,,,,,,,
7,10,2186,B,60.96013637486401,34.96107583668089,3.0480068187432003,0.5491672950505616,B,1292.181666009128,Correct,sub_007_day_09_data.csv,1,300,87.0,Training at home,,,,,,,,,,,,,
7,10,2187,B,53.16728660233513,33.32649625050078,2.6583643301167563,0.5234913789523052,B,1635.2504569804296,Correct,sub_007_day_09_data.csv,1,300,87.0,Training at home,,,,,,,,,,,,,
7,10,2188,B,52.33673686844992,29.534169125153603,2.616836843422496,0.4639216437673053,B,968.2933739968576,Correct,sub_007_day_09_data.csv,1,300,87.0,Training at home,,,,,,,,,,,,,
7,10,2189,A,44.60716599166754,73.53035839499057,2.2303582995833775,1.155012168747635,A,1566.5213739848696,Correct,sub_007_day_09_data.csv,1,300,87.0,Training at home,,,,,,,,,,,,,
7,10,2190,B,56.961906044746016,38.70521453126214,2.848095302237301,0.6079800881351503,B,1330.7125410065055,Correct,sub_007_day_09_data.csv,1,300,87.0,Training at home,,,,,,,,,,,,,
7,10,2191,B,73.60494159110017,42.36884144232816,3.680247079555008,0.6655282050816446,B,1018.8722080201842,Correct,sub_007_day_09_data.csv,1,300,87.0,Training at home,,,,,,,,,,,,,
7,10,2192,A,52.31868370100318,64.84739034609007,2.615934185050159,1.018620425578731,A,1258.39591602562,Correct,sub_007_day_09_data.csv,1,300,87.0,Training at home,,,,,,,,,,,,,
7,10,2193,A,40.25906531826307,56.61565377477634,2.0129532659131537,0.8893166098851031,A,1310.7435409910977,Correct,sub_007_day_09_data.csv,1,300,87.0,Training at home,,,,,,,,,,,,,
7,10,2194,B,55.46106214246173,30.21944909292922,2.7730531071230864,0.4746859963293858,B,1582.791624998208,Correct,sub_007_day_09_data.csv,1,300,87.0,Training at home,,,,,,,,,,,,,
7,10,2195,A,16.357761022463773,35.868537747042666,0.8178880511231887,0.5634216734055871,A,1344.784624001477,Correct,sub_007_day_09_data.csv,1,300,87.0,Training at home,,,,,,,,,,,,,
7,10,2196,B,30.68540979629493,15.744412626456864,1.5342704898147466,0.2473126552118163,B,1131.736000010278,Correct,sub_007_day_09_data.csv,1,300,87.0,Training at home,,,,,,,,,,,,,
7,10,2197,B,63.64230150966457,40.66545076273224,3.1821150754832286,0.6387714068555852,B,1939.5402490044944,Correct,sub_007_day_09_data.csv,1,300,87.0,Training at home,,,,,,,,,,,,,
7,10,2198,B,60.060468771447745,50.423254143878246,3.003023438572387,0.7920466239424949,B,1594.2221239674836,Correct,sub_007_day_09_data.csv,1,300,87.0,Training at home,,,,,,,,,,,,,
7,10,2199,A,58.0014079385723,68.35207607496024,2.900070396928615,1.0736719002735289,A,2035.5158320162443,Correct,sub_007_day_09_data.csv,1,300,87.0,Training at home,,,,,,,,,,,,,
7,10,2200,A,62.92867714794511,77.44566737536044,3.1464338573972555,1.2165136983939553,B,1189.4695410155691,Incorrect,sub_007_day_09_data.csv,0,300,88.0,Training at home,,,,,,,,,,,,,
7,10,2201,A,54.51351113261562,69.99306130538169,2.7256755566307813,1.0994484359962358,A,804.6000819886103,Correct,sub_007_day_09_data.csv,1,300,88.0,Training at home,,,,,,,,,,,,,
7,10,2202,A,33.337601374996844,57.36927302645018,1.6668800687498422,0.901154433408415,A,1039.597624039743,Correct,sub_007_day_09_data.csv,1,300,88.0,Training at home,,,,,,,,,,,,,
7,10,2203,B,47.690249703861426,38.16569171092123,2.384512485193071,0.5995052834910151,B,722.3632909590378,Correct,sub_007_day_09_data.csv,1,300,88.0,Training at home,,,,,,,,,,,,,
7,10,2204,A,51.41275033754859,77.82098685272409,2.57063751687743,1.2224092029581293,A,719.4967910181731,Correct,sub_007_day_09_data.csv,1,300,88.0,Training at home,,,,,,,,,,,,,
7,10,2205,A,65.79792380540194,84.38413962480496,3.2898961902700967,1.325502965623913,A,913.7582500115968,Correct,sub_007_day_09_data.csv,1,300,88.0,Training at home,,,,,,,,,,,,,
7,10,2206,A,37.64539344396626,64.19596015183504,1.8822696721983132,1.0083877840157405,A,767.6519990200177,Correct,sub_007_day_09_data.csv,1,300,88.0,Training at home,,,,,,,,,,,,,
7,10,2207,A,17.86326608351326,48.77239580817864,0.8931633041756629,0.7661150018447382,A,735.7581249671057,Correct,sub_007_day_09_data.csv,1,300,88.0,Training at home,,,,,,,,,,,,,
7,10,2208,A,22.75514112784866,34.79505871790026,1.137757056392433,0.5465595042469047,A,542.9416249971837,Correct,sub_007_day_09_data.csv,1,300,88.0,Training at home,,,,,,,,,,,,,
7,10,2209,A,39.358239380383296,71.06810434825547,1.9679119690191649,1.1163351726251611,A,953.2863330096006,Correct,sub_007_day_09_data.csv,1,300,88.0,Training at home,,,,,,,,,,,,,
7,10,2210,A,34.47626822827537,67.77766510558675,1.7238134114137689,1.0646490738659031,A,584.2640409828164,Correct,sub_007_day_09_data.csv,1,300,88.0,Training at home,,,,,,,,,,,,,
7,10,2211,B,71.19635892325152,40.45873565235749,3.559817946162576,0.6355243334948887,B,892.9041239898652,Correct,sub_007_day_09_data.csv,1,300,88.0,Training at home,,,,,,,,,,,,,
7,10,2212,B,72.77340404312403,44.920200230594,3.638670202156202,0.7056048552110832,B,1039.5000000135042,Correct,sub_007_day_09_data.csv,1,300,88.0,Training at home,,,,,,,,,,,,,
7,10,2213,A,37.8016509776558,54.36414886895329,1.89008254888279,0.8539500535268276,A,831.0151239857078,Correct,sub_007_day_09_data.csv,1,300,88.0,Training at home,,,,,,,,,,,,,
7,10,2214,B,65.7902353769515,44.021451276908,3.289511768847575,0.6914873396594758,B,1330.9484580531716,Correct,sub_007_day_09_data.csv,1,300,88.0,Training at home,,,,,,,,,,,,,
7,10,2215,B,78.92421499182214,57.9637010099168,3.946210749591107,0.9104916863381496,B,911.0508320154622,Correct,sub_007_day_09_data.csv,1,300,88.0,Training at home,,,,,,,,,,,,,
7,10,2216,B,55.278963887572615,48.47000183360413,2.7639481943786306,0.7613650083996727,A,2014.8610409814864,Incorrect,sub_007_day_09_data.csv,0,300,88.0,Training at home,,,,,,,,,,,,,
7,10,2217,A,24.775057824916185,51.094418961475554,1.2387528912458092,0.8025892562440532,A,650.174040987622,Correct,sub_007_day_09_data.csv,1,300,88.0,Training at home,,,,,,,,,,,,,
7,10,2218,A,17.319026209039798,45.35028743103412,0.8659513104519899,0.7123606491576117,A,517.9690409568138,Correct,sub_007_day_09_data.csv,1,300,88.0,Training at home,,,,,,,,,,,,,
7,10,2219,B,40.91691045334731,15.391919374932698,2.0458455226673657,0.2417757041646748,B,640.843291010242,Correct,sub_007_day_09_data.csv,1,300,88.0,Training at home,,,,,,,,,,,,,
7,10,2220,B,74.66117892496405,61.36986519045165,3.7330589462482022,0.9639955881705944,B,876.3868740061298,Correct,sub_007_day_09_data.csv,1,300,88.0,Training at home,,,,,,,,,,,,,
7,10,2221,B,67.70398841815252,34.3369954180477,3.3851994209076257,0.5393642627584252,B,617.8959999815561,Correct,sub_007_day_09_data.csv,1,300,88.0,Training at home,,,,,,,,,,,,,
7,10,2222,B,75.64028498467346,44.182738589444675,3.782014249233673,0.6940208348403882,B,686.5364160039462,Correct,sub_007_day_09_data.csv,1,300,88.0,Training at home,,,,,,,,,,,,,
7,10,2223,A,59.497001388762456,68.74124863321427,2.974850069438123,1.0797850085234768,A,797.6870409911498,Correct,sub_007_day_09_data.csv,1,300,88.0,Training at home,,,,,,,,,,,,,
7,10,2224,B,48.46898285155104,40.390225749208675,2.4234491425775517,0.6344481824527363,A,675.0699580297805,Incorrect,sub_007_day_09_data.csv,0,300,88.0,Training at home,,,,,,,,,,,,,
7,10,2225,B,76.34142777567023,53.07112321870794,3.817071388783511,0.8336392541082578,B,598.8752080011182,Correct,sub_007_day_09_data.csv,1,300,89.0,Training at home,,,,,,,,,,,,,
7,10,2226,A,28.79262452042493,43.54874262522152,1.4396312260212465,0.6840620495223431,A,594.8145409929566,Correct,sub_007_day_09_data.csv,1,300,89.0,Training at home,,,,,,,,,,,,,
7,10,2227,B,59.57421432348296,42.248316344370565,2.9787107161741475,0.6636350012700608,B,1774.2009990033694,Correct,sub_007_day_09_data.csv,1,300,89.0,Training at home,,,,,,,,,,,,,
7,10,2228,B,55.28229811298244,41.53597755355632,2.7641149056491217,0.6524456097096154,B,2326.681956998073,Correct,sub_007_day_09_data.csv,1,300,89.0,Training at home,,,,,,,,,,,,,
7,10,2229,A,57.98796395677401,71.11073924370223,2.8993981978387007,1.1170048799967716,A,1066.3177500246093,Correct,sub_007_day_09_data.csv,1,300,89.0,Training at home,,,,,,,,,,,,,
7,10,2230,A,26.793441202619697,57.9796743804477,1.3396720601309848,0.910742595455714,A,648.6170410062186,Correct,sub_007_day_09_data.csv,1,300,89.0,Training at home,,,,,,,,,,,,,
7,10,2231,B,59.5124384462805,40.03807306973234,2.975621922314025,0.6289165810988122,B,840.5338329612277,Correct,sub_007_day_09_data.csv,1,300,89.0,Training at home,,,,,,,,,,,,,
7,10,2232,A,54.24749926640218,74.66403452716435,2.712374963320109,1.1728199117895708,A,807.1783740306273,Correct,sub_007_day_09_data.csv,1,300,89.0,Training at home,,,,,,,,,,,,,
7,10,2233,A,41.23861707364821,51.272409513139415,2.0619308536824104,0.8053851252916311,A,1606.7238740506582,Correct,sub_007_day_09_data.csv,1,300,89.0,Training at home,,,,,,,,,,,,,
7,10,2234,B,53.507102235662515,44.07189700120397,2.6753551117831256,0.6922797392437422,B,1075.51308197435,Correct,sub_007_day_09_data.csv,1,300,89.0,Training at home,,,,,,,,,,,,,
7,10,2235,B,57.07482274920576,27.772698668688967,2.853741137460288,0.4362525305395814,B,637.6426659990102,Correct,sub_007_day_09_data.csv,1,300,89.0,Training at home,,,,,,,,,,,,,
7,10,2236,B,32.760442400192176,11.382521805891049,1.6380221200096088,0.1787962344235647,B,671.3071240228601,Correct,sub_007_day_09_data.csv,1,300,89.0,Training at home,,,,,,,,,,,,,
7,10,2237,A,44.29282497730528,72.72100893308883,2.2146412488652643,1.142298937129148,A,804.4780819909647,Correct,sub_007_day_09_data.csv,1,300,89.0,Training at home,,,,,,,,,,,,,
7,10,2238,A,60.928791244818456,80.607011043758,3.0464395622409226,1.2661719686145074,A,1230.9966659522615,Correct,sub_007_day_09_data.csv,1,300,89.0,Training at home,,,,,,,,,,,,,
7,10,2239,B,53.548588626818706,43.0879692394668,2.6774294313409355,0.6768242381040595,B,627.8887079679407,Correct,sub_007_day_09_data.csv,1,300,89.0,Training at home,,,,,,,,,,,,,
7,10,2240,B,63.78610525725194,44.243427500334235,3.189305262862597,0.6949741340234132,B,839.9395409505814,Correct,sub_007_day_09_data.csv,1,300,89.0,Training at home,,,,,,,,,,,,,
7,10,2241,B,52.979628155182,37.883374583832016,2.6489814077591003,0.5950706564287848,B,730.2985829883255,Correct,sub_007_day_09_data.csv,1,300,89.0,Training at home,,,,,,,,,,,,,
7,10,2242,A,64.08008886444017,83.6433570177841,3.2040044432220087,1.313866779643294,A,717.9409160162322,Correct,sub_007_day_09_data.csv,1,300,89.0,Training at home,,,,,,,,,,,,,
7,10,2243,B,52.5044116755889,26.193013111047296,2.6252205837794453,0.4114388878252366,B,615.9674570080824,Correct,sub_007_day_09_data.csv,1,300,89.0,Training at home,,,,,,,,,,,,,
7,10,2244,A,57.14314828606345,85.68821229865091,2.8571574143031726,1.3459872912834212,A,801.2025409843773,Correct,sub_007_day_09_data.csv,1,300,89.0,Training at home,,,,,,,,,,,,,
7,10,2245,B,72.29901530750024,48.19482537937933,3.614950765375012,0.757042546764505,B,739.0140410279855,Correct,sub_007_day_09_data.csv,1,300,89.0,Training at home,,,,,,,,,,,,,
7,10,2246,B,74.37646808651083,56.21337213105617,3.7188234043255415,0.8829975846021763,B,730.622790986672,Correct,sub_007_day_09_data.csv,1,300,89.0,Training at home,,,,,,,,,,,,,
7,10,2247,A,36.37777856217504,52.558126074417146,1.8188889281087517,0.8255811138091752,A,536.035166005604,Correct,sub_007_day_09_data.csv,1,300,89.0,Training at home,,,,,,,,,,,,,
7,10,2248,A,34.65339471613843,68.0053074421655,1.7326697358069214,1.068224871327112,A,518.9387910068035,Correct,sub_007_day_09_data.csv,1,300,89.0,Training at home,,,,,,,,,,,,,
7,10,2249,A,55.926985202089305,79.43377380649859,2.7963492601044653,1.2477428011870464,A,1047.237665974535,Correct,sub_007_day_09_data.csv,1,300,89.0,Training at home,,,,,,,,,,,,,
7,10,2250,B,45.10253326471705,30.94177566931943,2.2551266632358526,0.4860322756587866,B,572.9000410065055,Correct,sub_007_day_09_data.csv,1,300,90.0,Training at home,,,,,,,,,,,,,
7,10,2251,B,56.933614880060965,46.51454037371804,2.846680744003048,0.7306486916158922,B,1718.417541007511,Correct,sub_007_day_09_data.csv,1,300,90.0,Training at home,,,,,,,,,,,,,
7,10,2252,A,18.904823002626927,49.29277275607784,0.9452411501313464,0.7742890638278263,A,598.0542499455623,Correct,sub_007_day_09_data.csv,1,300,90.0,Training at home,,,,,,,,,,,,,
7,10,2253,B,70.15812227640268,46.30757913660298,3.5079061138201335,0.7273977521053995,B,1394.9467909988016,Correct,sub_007_day_09_data.csv,1,300,90.0,Training at home,,,,,,,,,,,,,
7,10,2254,A,20.280712567866157,49.51592204536764,1.014035628393308,0.7777942846672594,A,624.2928329738788,Correct,sub_007_day_09_data.csv,1,300,90.0,Training at home,,,,,,,,,,,,,
7,10,2255,A,57.12305665346992,67.3138463831359,2.856152832673496,1.057363426410658,A,1989.6237080101855,Correct,sub_007_day_09_data.csv,1,300,90.0,Training at home,,,,,,,,,,,,,
7,10,2256,A,22.397707174839017,43.97390950641553,1.1198853587419508,0.6907405552748871,A,711.530541011598,Correct,sub_007_day_09_data.csv,1,300,90.0,Training at home,,,,,,,,,,,,,
7,10,2257,A,50.72959818712524,59.49237844905859,2.536479909356262,0.9345040954007312,A,1338.7263329932466,Correct,sub_007_day_09_data.csv,1,300,90.0,Training at home,,,,,,,,,,,,,
7,10,2258,B,53.50187167706389,31.904325505761673,2.675093583853194,0.5011519731331917,B,742.2926659928635,Correct,sub_007_day_09_data.csv,1,300,90.0,Training at home,,,,,,,,,,,,,
7,10,2259,B,42.32931349139312,14.251590334781651,2.116465674569656,0.2238634574886067,B,820.9292499814183,Correct,sub_007_day_09_data.csv,1,300,90.0,Training at home,,,,,,,,,,,,,
7,10,2260,B,48.397345252736656,35.4215927922715,2.419867262636833,0.5564010784732465,B,1411.521875008475,Correct,sub_007_day_09_data.csv,1,300,90.0,Training at home,,,,,,,,,,,,,
7,10,2261,A,66.33947927839722,82.6596478914149,3.316973963919861,1.2984147128199406,A,1092.0628319727257,Correct,sub_007_day_09_data.csv,1,300,90.0,Training at home,,,,,,,,,,,,,
7,10,2262,A,58.89968716255745,82.80794068892604,2.9449843581278725,1.300744090636147,A,1559.227623976767,Correct,sub_007_day_09_data.csv,1,300,90.0,Training at home,,,,,,,,,,,,,
7,10,2263,A,45.161189681640955,56.05432132990572,2.258059484082048,0.8804992204599671,A,1366.5674580261111,Correct,sub_007_day_09_data.csv,1,300,90.0,Training at home,,,,,,,,,,,,,
7,10,2264,B,67.98769353548016,38.57378075651736,3.399384676774008,0.6059155312292913,B,502.2395830019377,Correct,sub_007_day_09_data.csv,1,300,90.0,Training at home,,,,,,,,,,,,,
7,10,2265,A,55.382806427633014,70.9008785572026,2.7691403213816503,1.113708396041849,A,1392.1959580038674,Correct,sub_007_day_09_data.csv,1,300,90.0,Training at home,,,,,,,,,,,,,
7,10,2266,B,50.32396537132395,31.8376030017455,2.5161982685661974,0.50010389849096,B,589.419582975097,Correct,sub_007_day_09_data.csv,1,300,90.0,Training at home,,,,,,,,,,,,,
7,10,2267,A,60.69245986266212,78.5905832633093,3.034622993133106,1.234497995106747,A,869.3603330175392,Correct,sub_007_day_09_data.csv,1,300,90.0,Training at home,,,,,,,,,,,,,
7,10,2268,A,37.972844192668994,59.91188219166055,1.8986422096334497,0.9410936447802896,A,791.6940409922972,Correct,sub_007_day_09_data.csv,1,300,90.0,Training at home,,,,,,,,,,,,,
7,10,2269,B,54.15658286705344,28.51222920683141,2.707829143352672,0.4478690490682494,B,1043.046623992268,Correct,sub_007_day_09_data.csv,1,300,90.0,Training at home,,,,,,,,,,,,,
7,10,2270,A,45.31683391105127,70.14445789698584,2.2658416955525635,1.1018265680960464,A,934.9337489693426,Correct,sub_007_day_09_data.csv,1,300,90.0,Training at home,,,,,,,,,,,,,
7,10,2271,B,71.3053979902727,61.96934048263996,3.565269899513635,0.9734121240403312,B,752.9036659980193,Correct,sub_007_day_09_data.csv,1,300,90.0,Training at home,,,,,,,,,,,,,
7,10,2272,A,52.912216181757955,76.59533158562806,2.645610809087898,1.2031566550434167,A,711.119708023034,Correct,sub_007_day_09_data.csv,1,300,90.0,Training at home,,,,,,,,,,,,,
7,10,2273,B,78.54798502620422,64.78447213224372,3.927399251310211,1.0176321085867477,B,740.4592910315841,Correct,sub_007_day_09_data.csv,1,300,90.0,Training at home,,,,,,,,,,,,,
7,10,2274,B,70.14349630139503,51.541163048101794,3.5071748150697517,0.8096066959469516,B,3225.551958021242,Correct,sub_007_day_09_data.csv,1,300,90.0,Training at home,,,,,,,,,,,,,
7,10,2275,B,66.51266694644677,35.715585575918944,3.3256333473223383,0.5610191063198227,B,2285.185123968404,Correct,sub_007_day_09_data.csv,1,300,91.0,Training at home,,,,,,,,,,,,,
7,10,2276,B,56.11709781407577,48.947719413558374,2.805854890703789,0.7688689785980475,A,1461.5624580183066,Incorrect,sub_007_day_09_data.csv,0,300,91.0,Training at home,,,,,,,,,,,,,
7,10,2277,B,51.02076634562152,44.042567848694254,2.551038317281076,0.6918190379934395,B,1860.323666012846,Correct,sub_007_day_09_data.csv,1,300,91.0,Training at home,,,,,,,,,,,,,
7,10,2278,A,43.44992029698613,62.555717681668725,2.1724960148493064,0.982622915543838,A,1577.507706999313,Correct,sub_007_day_09_data.csv,1,300,91.0,Training at home,,,,,,,,,,,,,
7,10,2279,B,35.91699704941089,24.01236135467567,1.7958498524705444,0.3771852901359626,B,1488.464040972758,Correct,sub_007_day_09_data.csv,1,300,91.0,Training at home,,,,,,,,,,,,,
7,10,2280,A,37.11259507257043,44.9892104729371,1.8556297536285216,0.7066888655629209,B,1943.9832490170377,Incorrect,sub_007_day_09_data.csv,0,300,91.0,Training at home,,,,,,,,,,,,,
7,10,2281,B,67.75671074618444,43.360965105257435,3.3878355373092224,0.6811124471362007,B,629.2750830180012,Correct,sub_007_day_09_data.csv,1,300,91.0,Training at home,,,,,,,,,,,,,
7,10,2282,B,58.1683347497522,38.421218886036854,2.9084167374876095,0.603519094971694,B,1354.2437910218723,Correct,sub_007_day_09_data.csv,1,300,91.0,Training at home,,,,,,,,,,,,,
7,10,2283,A,28.35616047802503,47.63561630370307,1.4178080239012514,0.7482585111446787,A,552.94258199865,Correct,sub_007_day_09_data.csv,1,300,91.0,Training at home,,,,,,,,,,,,,
7,10,2284,A,44.305564703923906,56.49174157576878,2.215278235196195,0.8873702016146415,A,1004.5224159839564,Correct,sub_007_day_09_data.csv,1,300,91.0,Training at home,,,,,,,,,,,,,
7,10,2285,A,24.50521863480686,55.14166109277888,1.225260931740343,0.8661631869790613,A,532.9131240141578,Correct,sub_007_day_09_data.csv,1,300,91.0,Training at home,,,,,,,,,,,,,
7,10,2286,B,65.61155283278237,55.790048512344995,3.2805776416391184,0.876348032749006,B,1375.3069990198128,Correct,sub_007_day_09_data.csv,1,300,91.0,Training at home,,,,,,,,,,,,,
7,10,2287,A,44.20497656376651,62.80041961926522,2.2102488281883255,0.9864666845911996,A,1180.4849579930303,Correct,sub_007_day_09_data.csv,1,300,91.0,Training at home,,,,,,,,,,,,,
7,10,2288,A,33.08836850887805,64.63440961213816,1.6544184254439025,1.0152749320330337,A,718.1212490540929,Correct,sub_007_day_09_data.csv,1,300,91.0,Training at home,,,,,,,,,,,,,
7,10,2289,B,68.82757026204061,58.53571957262943,3.44137851310203,0.9194769329098244,B,1556.0917499824427,Correct,sub_007_day_09_data.csv,1,300,91.0,Training at home,,,,,,,,,,,,,
7,10,2290,B,53.697580608373194,41.533820265940285,2.68487903041866,0.6524117231149844,B,1102.6052499655634,Correct,sub_007_day_09_data.csv,1,300,91.0,Training at home,,,,,,,,,,,,,
7,10,2291,A,50.38991709082291,73.92355703025895,2.5194958545411454,1.1611885184674382,A,1338.2785829599015,Correct,sub_007_day_09_data.csv,1,300,91.0,Training at home,,,,,,,,,,,,,
7,10,2292,B,83.57757729353376,53.7364176353711,4.178878864676688,0.8440896743675743,B,875.2640410093591,Correct,sub_007_day_09_data.csv,1,300,91.0,Training at home,,,,,,,,,,,,,
7,10,2293,A,51.883162563925055,58.95415680197857,2.594158128196253,0.926049729538383,A,1330.4430830175988,Correct,sub_007_day_09_data.csv,1,300,91.0,Training at home,,,,,,,,,,,,,
7,10,2294,B,63.45004165696204,54.30298438232983,3.1725020828481023,0.8529892840176433,B,1943.106874008663,Correct,sub_007_day_09_data.csv,1,300,91.0,Training at home,,,,,,,,,,,,,
7,10,2295,A,31.609472133164296,57.16365515837259,1.5804736066582148,0.897924595489418,A,850.2003320027143,Correct,sub_007_day_09_data.csv,1,300,91.0,Training at home,,,,,,,,,,,,,
7,10,2296,B,83.41651111478423,67.182569969522,4.170825555739211,1.0553013413276628,B,856.2030409811996,Correct,sub_007_day_09_data.csv,1,300,91.0,Training at home,,,,,,,,,,,,,
7,10,2297,B,77.62034811907755,48.489415381608545,3.8810174059538776,0.7616699556986265,B,1714.224332012236,Correct,sub_007_day_09_data.csv,1,300,91.0,Training at home,,,,,,,,,,,,,
7,10,2298,A,49.69744974447359,58.37222800919128,2.4848724872236794,0.9169088134367184,A,850.3501240047626,Correct,sub_007_day_09_data.csv,1,300,91.0,Training at home,,,,,,,,,,,,,
7,10,2299,B,78.2362197092256,62.38859130459103,3.9118109854612793,0.9799977005515962,B,790.2245830046013,Correct,sub_007_day_09_data.csv,1,300,91.0,Training at home,,,,,,,,,,,,,
7,10,2300,A,65.52928139618534,85.14229541954921,3.276464069809267,1.3374120489991386,A,1367.9332499741577,Correct,sub_007_day_09_data.csv,1,300,92.0,Training at home,,,,,,,,,,,,,
7,10,2301,A,60.92861077793165,84.99999436376004,3.046430538896583,1.3351767892418118,A,676.8199570360593,Correct,sub_007_day_09_data.csv,1,300,92.0,Training at home,,,,,,,,,,,,,
7,10,2302,B,80.16676810617021,61.61211126973126,4.0083384053085105,0.967800780685723,B,803.2231240067631,Correct,sub_007_day_09_data.csv,1,300,92.0,Training at home,,,,,,,,,,,,,
7,10,2303,A,47.64667264323946,71.07569920070932,2.382333632161973,1.1164544722885317,A,664.831624017097,Correct,sub_007_day_09_data.csv,1,300,92.0,Training at home,,,,,,,,,,,,,
7,10,2304,A,50.9920756664804,67.37924208445891,2.5496037833240197,1.0583906596849215,A,1205.440457968507,Correct,sub_007_day_09_data.csv,1,300,92.0,Training at home,,,,,,,,,,,,,
7,10,2305,B,62.002281942679105,38.95913377926553,3.1001140971339556,0.6119686423558126,B,694.7478330112062,Correct,sub_007_day_09_data.csv,1,300,92.0,Training at home,,,,,,,,,,,,,
7,10,2306,B,89.38864668518349,68.39588944264091,4.469432334259174,1.0743601190437018,B,735.632165975403,Correct,sub_007_day_09_data.csv,1,300,92.0,Training at home,,,,,,,,,,,,,
7,10,2307,B,58.372989580779475,50.297013251494626,2.9186494790389736,0.79006363664202,A,1059.5255409716628,Incorrect,sub_007_day_09_data.csv,0,300,92.0,Training at home,,,,,,,,,,,,,
7,10,2308,A,17.12689661469863,33.48548046776784,0.8563448307349316,0.5259886971973199,A,571.0417910013348,Correct,sub_007_day_09_data.csv,1,300,92.0,Training at home,,,,,,,,,,,,,
7,10,2309,B,32.11399115497281,14.335384690535118,1.6056995577486404,0.2251796961508435,B,710.1081250002608,Correct,sub_007_day_09_data.csv,1,300,92.0,Training at home,,,,,,,,,,,,,
7,10,2310,A,55.60816587006751,68.36931623950252,2.780408293503376,1.0739427081448922,A,1741.4868740015663,Correct,sub_007_day_09_data.csv,1,300,92.0,Training at home,,,,,,,,,,,,,
7,10,2311,A,48.59787593175132,69.77487808146498,2.429893796587566,1.096021221929269,A,1252.2896240116097,Correct,sub_007_day_09_data.csv,1,300,92.0,Training at home,,,,,,,,,,,,,
7,10,2312,A,62.40434426656014,78.89606380040426,3.1202172133280066,1.2392964721625084,A,984.6193739795126,Correct,sub_007_day_09_data.csv,1,300,92.0,Training at home,,,,,,,,,,,,,
7,10,2313,A,32.0997157314212,41.30320773898194,1.6049857865710602,0.6487892700123937,A,2297.8192909504287,Correct,sub_007_day_09_data.csv,1,300,92.0,Training at home,,,,,,,,,,,,,
7,10,2314,A,39.72256778901267,53.21709964682413,1.9861283894506336,0.8359322464790933,A,1255.092166014947,Correct,sub_007_day_09_data.csv,1,300,92.0,Training at home,,,,,,,,,,,,,
7,10,2315,B,58.7856074359617,47.010238743013055,2.939280371798085,0.7384351033927604,B,1752.387665968854,Correct,sub_007_day_09_data.csv,1,300,92.0,Training at home,,,,,,,,,,,,,
7,10,2316,A,56.48520085279651,82.6271466582298,2.8242600426398257,1.2979041846429058,A,1022.090248996392,Correct,sub_007_day_09_data.csv,1,300,92.0,Training at home,,,,,,,,,,,,,
7,10,2317,B,35.7354981350331,12.426973157004989,1.7867749067516547,0.1952024378820221,B,843.6355000012554,Correct,sub_007_day_09_data.csv,1,300,92.0,Training at home,,,,,,,,,,,,,
7,10,2318,A,31.33543426077696,43.479633044296776,1.566771713038848,0.6829764787637138,A,794.4728329894133,Correct,sub_007_day_09_data.csv,1,300,92.0,Training at home,,,,,,,,,,,,,
7,10,2319,B,51.39160011088291,23.66313164482683,2.569580005544146,0.3716996026815806,B,705.0809159991331,Correct,sub_007_day_09_data.csv,1,300,92.0,Training at home,,,,,,,,,,,,,
7,10,2320,A,29.993087806675145,39.91029285997172,1.4996543903337574,0.6269094142575216,A,1518.7510830000974,Correct,sub_007_day_09_data.csv,1,300,92.0,Training at home,,,,,,,,,,,,,
7,10,2321,B,58.96893061002024,28.19754207636365,2.948446530501012,0.4429259551819656,B,667.9212489980273,Correct,sub_007_day_09_data.csv,1,300,92.0,Training at home,,,,,,,,,,,,,
7,10,2322,B,67.71201939463863,40.99607957433341,3.3856009697319314,0.643964912083542,B,1912.0852909982204,Correct,sub_007_day_09_data.csv,1,300,92.0,Training at home,,,,,,,,,,,,,
7,10,2323,B,39.20833183112039,25.6667839519468,1.9604165915560197,0.4031728995235623,B,1383.4361659828571,Correct,sub_007_day_09_data.csv,1,300,92.0,Training at home,,,,,,,,,,,,,
7,10,2324,B,80.83023474065793,64.11134785839756,4.041511737032897,1.0070586972184077,B,963.1394569878466,Correct,sub_007_day_09_data.csv,1,300,92.0,Training at home,,,,,,,,,,,,,
7,10,2325,B,42.16758352669285,30.689921358495347,2.1083791763346427,0.4820761573954873,B,1305.3169579943642,Correct,sub_007_day_09_data.csv,1,300,93.0,Training at home,,,,,,,,,,,,,
7,10,2326,B,37.37324902883917,21.23490736202703,1.8686624514419583,0.3335571448410196,B,759.8359570256434,Correct,sub_007_day_09_data.csv,1,300,93.0,Training at home,,,,,,,,,,,,,
7,10,2327,A,55.61720303095696,69.44948803315309,2.7808601515478477,1.09091000700263,A,1809.5007080119103,Correct,sub_007_day_09_data.csv,1,300,93.0,Training at home,,,,,,,,,,,,,
7,10,2328,A,24.89927030556045,41.42381155539404,1.2449635152780223,0.6506837103305695,A,597.9321249760687,Correct,sub_007_day_09_data.csv,1,300,93.0,Training at home,,,,,,,,,,,,,
7,10,2329,A,52.06925655826188,73.36424780292732,2.6034628279130936,1.152402909669088,A,903.1860000104645,Correct,sub_007_day_09_data.csv,1,300,93.0,Training at home,,,,,,,,,,,,,
7,10,2330,B,44.08855183906652,33.01052217198152,2.204427591953326,0.5185280697333006,B,826.3412910164334,Correct,sub_007_day_09_data.csv,1,300,93.0,Training at home,,,,,,,,,,,,,
7,10,2331,B,83.01300148664147,55.43569156712377,4.150650074332074,0.8707818068697285,B,762.8197490121238,Correct,sub_007_day_09_data.csv,1,300,93.0,Training at home,,,,,,,,,,,,,
7,10,2332,A,40.75123452981525,56.06254380102464,2.0375617264907624,0.880628378734275,A,762.5797489890829,Correct,sub_007_day_09_data.csv,1,300,93.0,Training at home,,,,,,,,,,,,,
7,10,2333,B,74.14032292910917,60.321869915850385,3.7070161464554583,0.9475337168921736,B,1024.4291240232997,Correct,sub_007_day_09_data.csv,1,300,93.0,Training at home,,,,,,,,,,,,,
7,10,2334,B,39.26445605264157,21.78434768961719,1.9632228026320784,0.3421877333247357,B,585.9000409836881,Correct,sub_007_day_09_data.csv,1,300,93.0,Training at home,,,,,,,,,,,,,
7,10,2335,A,45.30490891878885,55.692727012027895,2.2652454459394424,0.8748193101968434,A,2080.3622910170816,Correct,sub_007_day_09_data.csv,1,300,93.0,Training at home,,,,,,,,,,,,,
7,10,2336,A,45.56936571085595,62.84772432224354,2.2784682855427976,0.9872097451279844,A,1543.0880410131067,Correct,sub_007_day_09_data.csv,1,300,93.0,Training at home,,,,,,,,,,,,,
7,10,2337,B,74.97618176091844,53.591433065421846,3.748809088045922,0.841812262068392,B,1215.925625001546,Correct,sub_007_day_09_data.csv,1,300,93.0,Training at home,,,,,,,,,,,,,
7,10,2338,B,78.20255280538647,50.97140678067582,3.910127640269323,0.8006569854265404,B,601.7325820284896,Correct,sub_007_day_09_data.csv,1,300,93.0,Training at home,,,,,,,,,,,,,
7,10,2339,A,67.43505029060141,80.85560201238438,3.3717525145300704,1.2700768264184343,A,1171.4509990415536,Correct,sub_007_day_09_data.csv,1,300,93.0,Training at home,,,,,,,,,,,,,
7,10,2340,B,47.57869877891088,17.900001141614915,2.3789349389455436,0.2811725604287316,B,584.0706239687279,Correct,sub_007_day_09_data.csv,1,300,93.0,Training at home,,,,,,,,,,,,,
7,10,2341,A,44.83442327255942,75.45011259241936,2.2417211636279712,1.1851675971643372,A,1277.9725409927778,Correct,sub_007_day_09_data.csv,1,300,93.0,Training at home,,,,,,,,,,,,,
7,10,2342,A,32.67927357041732,43.16603600843166,1.633963678520866,0.6780505080434069,A,1501.6763330204412,Correct,sub_007_day_09_data.csv,1,300,93.0,Training at home,,,,,,,,,,,,,
7,10,2343,B,49.24256287571404,23.863469097425565,2.4621281437857023,0.374846496028196,B,652.1721240133047,Correct,sub_007_day_09_data.csv,1,300,93.0,Training at home,,,,,,,,,,,,,
7,10,2344,B,66.23575045238411,47.659495922012574,3.311787522619205,0.7486336113119371,B,2048.132791009266,Correct,sub_007_day_09_data.csv,1,300,93.0,Training at home,,,,,,,,,,,,,
7,10,2345,A,62.71065102167435,77.69011668308188,3.1355325510837178,1.2203534991405192,A,1024.9388329684734,Correct,sub_007_day_09_data.csv,1,300,93.0,Training at home,,,,,,,,,,,,,
7,10,2346,B,75.54806545915945,49.15552584298952,3.777403272957972,0.7721331943583954,B,832.57962501375,Correct,sub_007_day_09_data.csv,1,300,93.0,Training at home,,,,,,,,,,,,,
7,10,2347,A,32.880103972355414,45.18923047151962,1.6440051986177706,0.7098307723535104,A,781.5192080452107,Correct,sub_007_day_09_data.csv,1,300,93.0,Training at home,,,,,,,,,,,,,
7,10,2348,A,49.184142007704615,62.72060945858345,2.459207100385231,0.9852130295188014,A,1317.5184989813715,Correct,sub_007_day_09_data.csv,1,300,93.0,Training at home,,,,,,,,,,,,,
7,10,2349,B,53.4126769993756,31.766308944646777,2.67063384996878,0.4989840140608302,B,1064.3108320073225,Correct,sub_007_day_09_data.csv,1,300,93.0,Training at home,,,,,,,,,,,,,
7,10,2350,A,30.00098820230054,46.54843965963012,1.500049410115027,0.7311811803538089,A,2643.3419159729965,Correct,sub_007_day_09_data.csv,1,300,94.0,Training at home,,,,,,,,,,,,,
7,10,2351,A,65.52601657994691,77.91031929103877,3.276300828997346,1.223812433617813,A,1095.034082012717,Correct,sub_007_day_09_data.csv,1,300,94.0,Training at home,,,,,,,,,,,,,
7,10,2352,B,49.293400643274936,22.760545632119452,2.4646700321637467,0.3575218147478086,B,631.2728329794481,Correct,sub_007_day_09_data.csv,1,300,94.0,Training at home,,,,,,,,,,,,,
7,10,2353,A,56.16080132815258,74.1293880210648,2.8080400664076293,1.164421704110422,A,1010.2985830162652,Correct,sub_007_day_09_data.csv,1,300,94.0,Training at home,,,,,,,,,,,,,
7,10,2354,A,34.59322608625928,67.58054525640422,1.7296613043129638,1.0615527225155603,A,915.5637490330264,Correct,sub_007_day_09_data.csv,1,300,94.0,Training at home,,,,,,,,,,,,,
7,10,2355,B,30.176475182717244,13.324695046932057,1.5088237591358622,0.2093038203538302,B,1441.976041009184,Correct,sub_007_day_09_data.csv,1,300,94.0,Training at home,,,,,,,,,,,,,
7,10,2356,A,35.37073947966697,61.86440425604766,1.7685369739833487,0.9717637896475424,A,2026.34283201769,Correct,sub_007_day_09_data.csv,1,300,94.0,Training at home,,,,,,,,,,,,,
7,10,2357,B,72.81296036606439,48.217014650240095,3.640648018303219,0.7573910950161286,B,588.49774900591,Correct,sub_007_day_09_data.csv,1,300,94.0,Training at home,,,,,,,,,,,,,
7,10,2358,B,45.86279381146531,24.57318261004974,2.2931396905732653,0.3859946498152636,B,1115.4169990331866,Correct,sub_007_day_09_data.csv,1,300,94.0,Training at home,,,,,,,,,,,,,
7,10,2359,A,33.58765030368573,65.35906795589669,1.6793825151842865,1.0266578386786054,A,652.0324160228483,Correct,sub_007_day_09_data.csv,1,300,94.0,Training at home,,,,,,,,,,,,,
7,10,2360,A,30.362831712983336,61.42668561648671,1.518141585649167,0.9648881213356222,A,996.8604570021852,Correct,sub_007_day_09_data.csv,1,300,94.0,Training at home,,,,,,,,,,,,,
7,10,2361,B,33.19336284342055,18.195325974619944,1.6596681421710275,0.2858115120576878,B,738.3275409811176,Correct,sub_007_day_09_data.csv,1,300,94.0,Training at home,,,,,,,,,,,,,
7,10,2362,B,62.995311139245814,42.99716395400516,3.149765556962291,0.6753978720154924,B,827.9684570152313,Correct,sub_007_day_09_data.csv,1,300,94.0,Training at home,,,,,,,,,,,,,
7,10,2363,B,41.59799059027015,22.22740053444086,2.079899529513507,0.3491471911369863,B,821.4862080058083,Correct,sub_007_day_09_data.csv,1,300,94.0,Training at home,,,,,,,,,,,,,
7,10,2364,B,70.51467853898822,61.59838805875,3.5257339269494112,0.9675852169917112,B,739.500041003339,Correct,sub_007_day_09_data.csv,1,300,94.0,Training at home,,,,,,,,,,,,,
7,10,2365,B,69.76705367128278,46.35932181193501,3.488352683564139,0.7282105241489003,B,829.3966240016744,Correct,sub_007_day_09_data.csv,1,300,94.0,Training at home,,,,,,,,,,,,,
7,10,2366,B,59.603613489182386,29.08855562676223,2.980180674459119,0.4569219633028712,B,574.885957990773,Correct,sub_007_day_09_data.csv,1,300,94.0,Training at home,,,,,,,,,,,,,
7,10,2367,A,54.491901096170096,80.60596813344235,2.7245950548085047,1.266155586617577,A,1982.7535829972476,Correct,sub_007_day_09_data.csv,1,300,94.0,Training at home,,,,,,,,,,,,,
7,10,2368,A,38.41273669044778,63.55679266283436,1.920636834522389,0.9983477645764506,A,746.6733329929411,Correct,sub_007_day_09_data.csv,1,300,94.0,Training at home,,,,,,,,,,,,,
7,10,2369,A,34.251993622550906,43.18619297868449,1.7125996811275457,0.6783671329917315,A,1341.8131659855137,Correct,sub_007_day_09_data.csv,1,300,94.0,Training at home,,,,,,,,,,,,,
7,10,2370,A,64.34723246147719,78.8772721822111,3.2173616230738595,1.239001294114185,A,1023.6695830244572,Correct,sub_007_day_09_data.csv,1,300,94.0,Training at home,,,,,,,,,,,,,
7,10,2371,A,29.282093620084215,46.194459980695434,1.4641046810042109,0.7256208805595025,A,1118.5049579944462,Correct,sub_007_day_09_data.csv,1,300,94.0,Training at home,,,,,,,,,,,,,
7,10,2372,A,39.79262859171744,69.818551511805,1.989631429585872,1.0967072425688358,A,931.1475409776904,Correct,sub_007_day_09_data.csv,1,300,94.0,Training at home,,,,,,,,,,,,,
7,10,2373,A,29.032543383666585,51.76437889532441,1.4516271691833291,0.8131129622759486,A,804.9511249992065,Correct,sub_007_day_09_data.csv,1,300,94.0,Training at home,,,,,,,,,,,,,
7,10,2374,A,55.012243406964544,73.93268976904938,2.7506121703482274,1.161331975192894,A,1724.7994999634102,Correct,sub_007_day_09_data.csv,1,300,94.0,Training at home,,,,,,,,,,,,,
7,10,2375,B,31.62229270986553,15.033179201699692,1.581114635493276,0.2361406267007931,B,618.6606240225956,Correct,sub_007_day_09_data.csv,1,300,95.0,Training at home,,,,,,,,,,,,,
7,10,2376,A,25.970996635743603,37.17964048393897,1.2985498317871802,0.5840164270372616,A,667.5004999851808,Correct,sub_007_day_09_data.csv,1,300,95.0,Training at home,,,,,,,,,,,,,
7,10,2377,B,34.237070932370656,10.14011524747874,1.711853546618533,0.1592805578401653,B,798.178083030507,Correct,sub_007_day_09_data.csv,1,300,95.0,Training at home,,,,,,,,,,,,,
7,10,2378,A,57.75661663351811,73.81420092404446,2.887830831675905,1.159470756767895,A,969.6150830131955,Correct,sub_007_day_09_data.csv,1,300,95.0,Training at home,,,,,,,,,,,,,
7,10,2379,A,59.00013467345391,83.21209953196167,2.9500067336726956,1.3070926028969672,A,1169.1134580178186,Correct,sub_007_day_09_data.csv,1,300,95.0,Training at home,,,,,,,,,,,,,
7,10,2380,B,72.43514277473216,56.710151671869205,3.621757138736608,0.8908009793815361,B,1104.763041017577,Correct,sub_007_day_09_data.csv,1,300,95.0,Training at home,,,,,,,,,,,,,
7,10,2381,A,30.55873897534517,52.39991778815036,1.5279369487672585,0.8230959838598113,A,725.7158330176026,Correct,sub_007_day_09_data.csv,1,300,95.0,Training at home,,,,,,,,,,,,,
7,10,2382,A,10.876693883283329,31.79957095723566,0.5438346941641663,0.4995064925327944,A,600.0915000331588,Correct,sub_007_day_09_data.csv,1,300,95.0,Training at home,,,,,,,,,,,,,
7,10,2383,B,86.13480242753253,57.97448665003549,4.3067401213766265,0.9106611067769552,B,674.2462500114925,Correct,sub_007_day_09_data.csv,1,300,95.0,Training at home,,,,,,,,,,,,,
7,10,2384,B,37.80798346763525,18.33121827640985,1.8903991733817629,0.2879461033426006,B,699.2052500136197,Correct,sub_007_day_09_data.csv,1,300,95.0,Training at home,,,,,,,,,,,,,
7,10,2385,B,47.45073776561919,18.38384153471147,2.372536888280959,0.2887727075510423,B,644.1530830343254,Correct,sub_007_day_09_data.csv,1,300,95.0,Training at home,,,,,,,,,,,,,
7,10,2386,B,55.07464015619707,41.58994186858265,2.7537320078098535,0.6532932791878291,B,1621.0162909701469,Correct,sub_007_day_09_data.csv,1,300,95.0,Training at home,,,,,,,,,,,,,
7,10,2387,B,56.59413499568363,49.26475050259644,2.8297067497841817,0.7738488912994553,A,1685.0088330102153,Incorrect,sub_007_day_09_data.csv,0,300,95.0,Training at home,,,,,,,,,,,,,
7,10,2388,A,33.26866256331465,58.99369444026544,1.6634331281657324,0.9266707853082948,A,804.7536250087433,Correct,sub_007_day_09_data.csv,1,300,95.0,Training at home,,,,,,,,,,,,,
7,10,2389,A,69.5804467602876,84.98845555463788,3.47902233801438,1.3349955380519651,A,1514.5237499964423,Correct,sub_007_day_09_data.csv,1,300,95.0,Training at home,,,,,,,,,,,,,
7,10,2390,A,32.66227150075229,55.27664867968715,1.633113575037615,0.8682835670358454,A,1359.400874003768,Correct,sub_007_day_09_data.csv,1,300,95.0,Training at home,,,,,,,,,,,,,
7,10,2391,B,72.80185547792853,58.556097760956575,3.6400927738964266,0.9197970327435344,B,981.5556239918806,Correct,sub_007_day_09_data.csv,1,300,95.0,Training at home,,,,,,,,,,,,,
7,10,2392,B,42.35604871675909,28.825690859800567,2.1178024358379544,0.4527928931989995,B,752.7636659797281,Correct,sub_007_day_09_data.csv,1,300,95.0,Training at home,,,,,,,,,,,,,
7,10,2393,B,41.6305632422046,26.102698611398015,2.08152816211023,0.4100202309821824,B,987.4383750138804,Correct,sub_007_day_09_data.csv,1,300,95.0,Training at home,,,,,,,,,,,,,
7,10,2394,A,38.91560411849672,64.76027151835422,1.9457802059248364,1.0172519662327095,A,1177.0008329767734,Correct,sub_007_day_09_data.csv,1,300,95.0,Training at home,,,,,,,,,,,,,
7,10,2395,B,48.30069978310867,29.01330297624122,2.415034989155434,0.4557398974326715,B,742.4812910030596,Correct,sub_007_day_09_data.csv,1,300,95.0,Training at home,,,,,,,,,,,,,
7,10,2396,B,64.39306963703203,54.91704228926508,3.219653481851601,0.8626348830641758,B,1854.906374006532,Correct,sub_007_day_09_data.csv,1,300,95.0,Training at home,,,,,,,,,,,,,
7,10,2397,A,31.351740505141088,48.77268772116694,1.5675870252570543,0.7661195872032358,A,1091.3831240031868,Correct,sub_007_day_09_data.csv,1,300,95.0,Training at home,,,,,,,,,,,,,
7,10,2398,B,57.10003451606421,46.09141257672123,2.855001725803211,0.7240022157230179,B,2172.382166027091,Correct,sub_007_day_09_data.csv,1,300,95.0,Training at home,,,,,,,,,,,,,
7,10,2399,A,19.053248478815625,46.75149440527356,0.9526624239407812,0.7343707568397587,A,538.8025830034167,Correct,sub_007_day_09_data.csv,1,300,95.0,Training at home,,,,,,,,,,,,,
