subject,day,trial,cat,x,y,xt,yt,resp,rt,fb,f_name,acc,n_trials,block,session_type,ns_left_digit,ns_right_digit,ns_left_size,ns_right_size,ns_congruent,ns_cue,ns_correct_side,ns_resp,ns_rt,ns_fb,acc_stroop,acc_stroop_mean,resp_key
1,19,4200,B,80.94290319611551,50.40280457483204,4.047145159805775,0.7917254028630718,A,1219.8557000083383,Incorrect,sub_001_day_19_data.csv,0,300,168.0,Training at home,,,,,,,,,,,,,
1,19,4201,A,60.210688091026654,83.34752651101977,3.0105344045513327,1.309219884909501,A,608.3125000004657,Correct,sub_001_day_19_data.csv,1,300,168.0,Training at home,,,,,,,,,,,,,
1,19,4202,B,48.89010394001041,31.133090103202505,2.4445051970005207,0.4890374357588504,B,1628.2475000189152,Correct,sub_001_day_19_data.csv,1,300,168.0,Training at home,,,,,,,,,,,,,
1,19,4203,B,50.8196641655284,24.89340981442841,2.54098320827642,0.3910247669790416,B,510.9571999928448,Correct,sub_001_day_19_data.csv,1,300,168.0,Training at home,,,,,,,,,,,,,
1,19,4204,B,73.0654572099715,45.22842747880631,3.653272860498575,0.7104464775041832,B,657.5674999912735,Correct,sub_001_day_19_data.csv,1,300,168.0,Training at home,,,,,,,,,,,,,
1,19,4205,A,35.10164272535715,48.44891066626717,1.7550821362678577,0.7610337091178655,B,570.0998000102118,Incorrect,sub_001_day_19_data.csv,0,300,168.0,Training at home,,,,,,,,,,,,,
1,19,4206,B,50.13294144014291,19.822179756453966,2.506647072007145,0.3113660715050604,B,747.9598999780137,Correct,sub_001_day_19_data.csv,1,300,168.0,Training at home,,,,,,,,,,,,,
1,19,4207,A,55.909688897567435,73.24307098714232,2.7954844448783716,1.1504994686978105,A,795.4001999751199,Correct,sub_001_day_19_data.csv,1,300,168.0,Training at home,,,,,,,,,,,,,
1,19,4208,B,67.07215672495298,57.195134023947986,3.3536078362476487,0.8984190643535931,B,1049.504700000398,Correct,sub_001_day_19_data.csv,1,300,168.0,Training at home,,,,,,,,,,,,,
1,19,4209,A,37.388220514958505,45.33741974951266,1.8694110257479253,0.712158524088929,A,711.1073000123724,Correct,sub_001_day_19_data.csv,1,300,168.0,Training at home,,,,,,,,,,,,,
1,19,4210,B,77.94979818292109,59.379068312399816,3.897489909146054,0.9327242239362088,B,645.5108000081964,Correct,sub_001_day_19_data.csv,1,300,168.0,Training at home,,,,,,,,,,,,,
1,19,4211,B,71.64243064164839,54.10547329937432,3.5821215320824193,0.8498867871815653,B,1292.2894000075758,Correct,sub_001_day_19_data.csv,1,300,168.0,Training at home,,,,,,,,,,,,,
1,19,4212,B,52.107459873988006,30.75263619638025,2.6053729936994,0.4830612797653388,A,1036.5133000013884,Incorrect,sub_001_day_19_data.csv,0,300,168.0,Training at home,,,,,,,,,,,,,
1,19,4213,A,50.65685112869954,64.67377999852084,2.5328425564349772,1.015893360616178,A,1189.959200011799,Correct,sub_001_day_19_data.csv,1,300,168.0,Training at home,,,,,,,,,,,,,
1,19,4214,B,62.50701386293019,48.99422269334217,3.125350693146509,0.7695994504087305,A,890.3992999985348,Incorrect,sub_001_day_19_data.csv,0,300,168.0,Training at home,,,,,,,,,,,,,
1,19,4215,B,75.11944887489373,62.01700680429913,3.755972443744687,0.9741608648700718,B,3739.65230002068,Correct,sub_001_day_19_data.csv,1,300,168.0,Training at home,,,,,,,,,,,,,
1,19,4216,A,40.45608327396064,66.96717523383568,2.022804163698032,1.051917928731393,B,1777.4940000090282,Incorrect,sub_001_day_19_data.csv,0,300,168.0,Training at home,,,,,,,,,,,,,
1,19,4217,A,49.70964686394736,78.42835700800545,2.4854823431973676,1.2319497510473376,A,1480.9401000093203,Correct,sub_001_day_19_data.csv,1,300,168.0,Training at home,,,,,,,,,,,,,
1,19,4218,A,61.360474960656376,74.99011205483203,3.0680237480328185,1.1779419256166783,B,6623.3916000055615,Incorrect,sub_001_day_19_data.csv,0,300,168.0,Training at home,,,,,,,,,,,,,
1,19,4219,B,80.82592102015158,49.454123699958224,4.041296051007579,0.776823558527548,B,743.5669999977108,Correct,sub_001_day_19_data.csv,1,300,168.0,Training at home,,,,,,,,,,,,,
1,19,4220,A,52.91438686293923,71.76374262144923,2.6457193431469612,1.1272622330682682,A,1619.274199998472,Correct,sub_001_day_19_data.csv,1,300,168.0,Training at home,,,,,,,,,,,,,
1,19,4221,A,42.504359935669115,67.2254002635639,2.125217996783456,1.0559741180132285,A,1110.2499999979043,Correct,sub_001_day_19_data.csv,1,300,168.0,Training at home,,,,,,,,,,,,,
1,19,4222,A,19.93825931983982,33.63850001668716,0.9969129659919908,0.5283923226510227,A,711.0954000090715,Correct,sub_001_day_19_data.csv,1,300,168.0,Training at home,,,,,,,,,,,,,
1,19,4223,A,43.364618887656704,53.95219460742749,2.1682309443828354,0.8474790911187052,A,4891.896499990253,Correct,sub_001_day_19_data.csv,1,300,168.0,Training at home,,,,,,,,,,,,,
1,19,4224,B,66.37516192800513,40.80370562597449,3.3187580964002565,0.6409431091690099,B,6597.710400004871,Correct,sub_001_day_19_data.csv,1,300,168.0,Training at home,,,,,,,,,,,,,
1,19,4225,A,54.71801348737502,68.54971034006553,2.7359006743687506,1.0767763320502908,B,6500.182900024811,Incorrect,sub_001_day_19_data.csv,0,300,169.0,Training at home,,,,,,,,,,,,,
1,19,4226,B,67.41250166705939,51.24228475827492,3.370625083352969,0.8049119267487636,B,587.2921000118367,Correct,sub_001_day_19_data.csv,1,300,169.0,Training at home,,,,,,,,,,,,,
1,19,4227,A,39.47241970053736,61.67330607865683,1.973620985026868,0.9687620264965152,A,526.5610000060406,Correct,sub_001_day_19_data.csv,1,300,169.0,Training at home,,,,,,,,,,,,,
1,19,4228,B,75.49059736167104,54.21454900134715,3.774529868083551,0.8516001443015804,A,742.3765000130516,Incorrect,sub_001_day_19_data.csv,0,300,169.0,Training at home,,,,,,,,,,,,,
1,19,4229,A,34.34480356364303,59.20027559481367,1.7172401781821518,0.9299157544957888,B,418.4338999912143,Incorrect,sub_001_day_19_data.csv,0,300,169.0,Training at home,,,,,,,,,,,,,
1,19,4230,B,71.7153858876834,46.187392190434274,3.58576929438417,0.7255098599696945,B,524.9535999901127,Correct,sub_001_day_19_data.csv,1,300,169.0,Training at home,,,,,,,,,,,,,
1,19,4231,A,36.88380848680493,60.162271484772326,1.8441904243402465,0.9450267505991772,B,383.9654000184965,Incorrect,sub_001_day_19_data.csv,0,300,169.0,Training at home,,,,,,,,,,,,,
1,19,4232,A,35.174609730635936,53.98506183802598,1.758730486531797,0.8479953683696654,A,581.0763000044972,Correct,sub_001_day_19_data.csv,1,300,169.0,Training at home,,,,,,,,,,,,,
1,19,4233,A,35.699774650540085,48.09770011922606,1.7849887325270044,0.7555169067456274,A,937.5541000044904,Correct,sub_001_day_19_data.csv,1,300,169.0,Training at home,,,,,,,,,,,,,
1,19,4234,A,19.752966515249113,33.80678181580449,0.9876483257624556,0.531035686970222,A,561.340200016275,Correct,sub_001_day_19_data.csv,1,300,169.0,Training at home,,,,,,,,,,,,,
1,19,4235,A,62.70951399154636,72.75612534379826,3.1354756995773183,1.1428505444186736,A,735.9020999865606,Correct,sub_001_day_19_data.csv,1,300,169.0,Training at home,,,,,,,,,,,,,
1,19,4236,B,63.59374655693979,34.97142002878719,3.1796873278469895,0.549329781240204,B,1128.765800007386,Correct,sub_001_day_19_data.csv,1,300,169.0,Training at home,,,,,,,,,,,,,
1,19,4237,B,65.88269358201222,38.60647540715178,3.294134679100611,0.6064290976005152,B,528.3549999876413,Correct,sub_001_day_19_data.csv,1,300,169.0,Training at home,,,,,,,,,,,,,
1,19,4238,A,30.541211670123086,55.84203414027627,1.527060583506154,0.8771646210830117,A,845.5145999905653,Correct,sub_001_day_19_data.csv,1,300,169.0,Training at home,,,,,,,,,,,,,
1,19,4239,B,69.26543903536083,49.77568257759367,3.4632719517680415,0.7818745935659288,B,648.3706000144593,Correct,sub_001_day_19_data.csv,1,300,169.0,Training at home,,,,,,,,,,,,,
1,19,4240,B,45.89901159406485,23.335002353534723,2.294950579703243,0.366545359826826,B,697.3737000080291,Correct,sub_001_day_19_data.csv,1,300,169.0,Training at home,,,,,,,,,,,,,
1,19,4241,A,27.520741173879063,50.6404567609964,1.3760370586939532,0.7954584346738893,A,653.5722999833524,Correct,sub_001_day_19_data.csv,1,300,169.0,Training at home,,,,,,,,,,,,,
1,19,4242,B,60.002582810218705,33.93644531711158,3.000129140510935,0.5330724364859473,B,1236.6344000038223,Correct,sub_001_day_19_data.csv,1,300,169.0,Training at home,,,,,,,,,,,,,
1,19,4243,B,44.30847631820349,29.148299288231335,2.2154238159101745,0.4578604145427207,B,333.82450000499375,Correct,sub_001_day_19_data.csv,1,300,169.0,Training at home,,,,,,,,,,,,,
1,19,4244,A,61.770978247392634,87.57858473001902,3.0885489123696317,1.375681191998095,B,2747.6279999827966,Incorrect,sub_001_day_19_data.csv,0,300,169.0,Training at home,,,,,,,,,,,,,
1,19,4245,B,60.6505672920476,27.98822316309352,3.0325283646023804,0.4396379813810314,A,1114.1898999921978,Incorrect,sub_001_day_19_data.csv,0,300,169.0,Training at home,,,,,,,,,,,,,
1,19,4246,B,77.10236532344942,57.0122760231076,3.8551182661724703,0.8955467375931419,A,741.1857999977656,Incorrect,sub_001_day_19_data.csv,0,300,169.0,Training at home,,,,,,,,,,,,,
1,19,4247,A,47.28479623196194,66.24420506885326,2.364239811598097,1.0405615399360255,A,576.123099977849,Correct,sub_001_day_19_data.csv,1,300,169.0,Training at home,,,,,,,,,,,,,
1,19,4248,B,59.65666243043059,48.487967486808465,2.9828331215215296,0.7616472122202912,A,1459.0273999783676,Incorrect,sub_001_day_19_data.csv,0,300,169.0,Training at home,,,,,,,,,,,,,
1,19,4249,A,40.57702125707534,62.66724695541295,2.0288510628537666,0.9843748132791132,B,709.5495999965351,Incorrect,sub_001_day_19_data.csv,0,300,169.0,Training at home,,,,,,,,,,,,,
1,19,4250,A,31.444640505736412,58.19932404901667,1.5722320252868207,0.9141928443814128,B,751.4748999965377,Incorrect,sub_001_day_19_data.csv,0,300,170.0,Training at home,,,,,,,,,,,,,
1,19,4251,A,57.5303276283735,83.27681198077454,2.8765163814186745,1.3081091036658987,A,482.8383999993094,Correct,sub_001_day_19_data.csv,1,300,170.0,Training at home,,,,,,,,,,,,,
1,19,4252,B,40.47143001097162,31.016691798331497,2.0235715005485813,0.4872090554614851,B,460.6615999946371,Correct,sub_001_day_19_data.csv,1,300,170.0,Training at home,,,,,,,,,,,,,
1,19,4253,A,65.98395026232517,82.1085856060781,3.2991975131162583,1.2897586466835178,A,522.7308999747038,Correct,sub_001_day_19_data.csv,1,300,170.0,Training at home,,,,,,,,,,,,,
1,19,4254,B,40.85363552017033,24.557029371347184,2.042681776008516,0.3857409153350654,A,464.73759997752495,Incorrect,sub_001_day_19_data.csv,0,300,170.0,Training at home,,,,,,,,,,,,,
1,19,4255,A,42.74319894443433,75.07890161807813,2.1371599472217166,1.1793366288147251,A,635.8344999898691,Correct,sub_001_day_19_data.csv,1,300,170.0,Training at home,,,,,,,,,,,,,
1,19,4256,B,33.45494770310396,16.635096629522465,1.672747385155198,0.2613034868153205,B,1528.1122000014875,Correct,sub_001_day_19_data.csv,1,300,170.0,Training at home,,,,,,,,,,,,,
1,19,4257,A,35.079544803227535,43.03927914191109,1.753977240161377,0.6760594158401415,B,9219.972199993208,Incorrect,sub_001_day_19_data.csv,0,300,170.0,Training at home,,,,,,,,,,,,,
1,19,4258,B,71.42442372668576,49.007481468903386,3.571221186334288,0.769807718768224,B,910.489600006258,Correct,sub_001_day_19_data.csv,1,300,170.0,Training at home,,,,,,,,,,,,,
1,19,4259,B,74.836358621106,46.51899000412571,3.7418179310553,0.7307185862468918,B,1548.672900011297,Correct,sub_001_day_19_data.csv,1,300,170.0,Training at home,,,,,,,,,,,,,
1,19,4260,B,77.66970620073656,61.041039574409226,3.883485310036827,0.9588304074722394,A,1441.41159998253,Incorrect,sub_001_day_19_data.csv,0,300,170.0,Training at home,,,,,,,,,,,,,
1,19,4261,B,44.92184476274782,16.892405642945498,2.2460922381373907,0.2653452873466817,B,1879.1488999850117,Correct,sub_001_day_19_data.csv,1,300,170.0,Training at home,,,,,,,,,,,,,
1,19,4262,A,44.0865701070795,72.46482782496979,2.204328505353975,1.1382748536928715,A,930.7444999867585,Correct,sub_001_day_19_data.csv,1,300,170.0,Training at home,,,,,,,,,,,,,
1,19,4263,B,47.59945281704961,21.082411552344507,2.3799726408524804,0.3311617462640104,B,647.5558999809437,Correct,sub_001_day_19_data.csv,1,300,170.0,Training at home,,,,,,,,,,,,,
1,19,4264,A,17.81010062460485,34.49287715605973,0.8905050312302424,0.5418128473732621,A,730.5148000014015,Correct,sub_001_day_19_data.csv,1,300,170.0,Training at home,,,,,,,,,,,,,
1,19,4265,A,30.974859310494757,62.42536632309968,1.548742965524738,0.980575361191508,B,532.7095999964513,Incorrect,sub_001_day_19_data.csv,0,300,170.0,Training at home,,,,,,,,,,,,,
1,19,4266,B,80.97428075495787,56.76380239349508,4.048714037747894,0.8916437229461344,B,1103.9081999915652,Correct,sub_001_day_19_data.csv,1,300,170.0,Training at home,,,,,,,,,,,,,
1,19,4267,B,61.39380064828051,42.31579867065436,3.0696900324140257,0.6646950111725624,B,604.3920000083745,Correct,sub_001_day_19_data.csv,1,300,170.0,Training at home,,,,,,,,,,,,,
1,19,4268,A,59.795027775827016,86.41029224126623,2.989751388791351,1.3573296964985455,A,1198.0999000079464,Correct,sub_001_day_19_data.csv,1,300,170.0,Training at home,,,,,,,,,,,,,
1,19,4269,B,64.08062790242425,41.3356975701844,3.2040313951212123,0.6492996190875039,B,688.5994000185747,Correct,sub_001_day_19_data.csv,1,300,170.0,Training at home,,,,,,,,,,,,,
1,19,4270,A,28.628390562391857,40.0065671209567,1.4314195281195927,0.6284216868127227,B,2096.293400012655,Incorrect,sub_001_day_19_data.csv,0,300,170.0,Training at home,,,,,,,,,,,,,
1,19,4271,A,37.73837748594481,63.93786388403296,1.8869188742972405,1.0043336173215107,B,554.8193999857176,Incorrect,sub_001_day_19_data.csv,0,300,170.0,Training at home,,,,,,,,,,,,,
1,19,4272,A,19.350418493864034,46.34585739013565,0.9675209246932016,0.727999025505852,A,840.5326000065543,Correct,sub_001_day_19_data.csv,1,300,170.0,Training at home,,,,,,,,,,,,,
1,19,4273,A,38.03395811110806,69.09759953980084,1.901697905555403,1.0853825554746388,A,1465.506799984723,Correct,sub_001_day_19_data.csv,1,300,170.0,Training at home,,,,,,,,,,,,,
1,19,4274,A,24.22123152716202,56.88000086812364,1.211061576358101,0.8934689643173913,B,1147.9120000149123,Incorrect,sub_001_day_19_data.csv,0,300,170.0,Training at home,,,,,,,,,,,,,
1,19,4275,A,48.90264192411425,72.20247449296411,2.4451320962057124,1.1341538171905023,B,5024.204999994254,Incorrect,sub_001_day_19_data.csv,0,300,171.0,Training at home,,,,,,,,,,,,,
1,19,4276,A,49.02898056305595,57.181110949224866,2.4514490281527976,0.8981987904109386,A,4303.338199999416,Correct,sub_001_day_19_data.csv,1,300,171.0,Training at home,,,,,,,,,,,,,
1,19,4277,B,40.27937023857402,22.122029509587477,2.013968511928701,0.3474920269490831,B,1538.427599996794,Correct,sub_001_day_19_data.csv,1,300,171.0,Training at home,,,,,,,,,,,,,
1,19,4278,B,41.08170272285719,13.639439634966902,2.0540851361428594,0.2142478167814673,B,1006.3956999802032,Correct,sub_001_day_19_data.csv,1,300,171.0,Training at home,,,,,,,,,,,,,
1,19,4279,B,60.40619186890763,31.13336117465733,3.0203095934453814,0.4890416937393058,B,854.8737000091933,Correct,sub_001_day_19_data.csv,1,300,171.0,Training at home,,,,,,,,,,,,,
1,19,4280,B,53.26390547993341,30.905743878817017,2.663195273996671,0.4854662896170962,B,1774.6782999893185,Correct,sub_001_day_19_data.csv,1,300,171.0,Training at home,,,,,,,,,,,,,
1,19,4281,B,48.39763463986038,26.93534641915181,2.419881731993019,0.4230994321615174,B,2308.841999998549,Correct,sub_001_day_19_data.csv,1,300,171.0,Training at home,,,,,,,,,,,,,
1,19,4282,A,55.701902861243944,73.7582987652815,2.7850951430621973,1.1585926477114474,A,709.3170000007376,Correct,sub_001_day_19_data.csv,1,300,171.0,Training at home,,,,,,,,,,,,,
1,19,4283,B,51.30830163200019,30.33016253799598,2.5654150816000096,0.4764250790577626,B,621.3683999958448,Correct,sub_001_day_19_data.csv,1,300,171.0,Training at home,,,,,,,,,,,,,
1,19,4284,A,36.00718098630112,53.60448419235803,1.8003590493150563,0.842017268690911,B,2784.227700001793,Incorrect,sub_001_day_19_data.csv,0,300,171.0,Training at home,,,,,,,,,,,,,
1,19,4285,B,73.49466520793092,56.487505431806795,3.674733260396546,0.8873036604208888,A,1127.6216999976896,Incorrect,sub_001_day_19_data.csv,0,300,171.0,Training at home,,,,,,,,,,,,,
1,19,4286,B,47.51756490411665,19.44375785169804,2.375878245205832,0.305421834125367,A,383.683199994266,Incorrect,sub_001_day_19_data.csv,0,300,171.0,Training at home,,,,,,,,,,,,,
1,19,4287,B,75.33643398780887,49.77534604937152,3.766821699390443,0.7818693073929766,A,580.954799981555,Incorrect,sub_001_day_19_data.csv,0,300,171.0,Training at home,,,,,,,,,,,,,
1,19,4288,A,32.727544321260126,62.98666038020752,1.6363772160630063,0.989392147623076,B,1684.957099991152,Incorrect,sub_001_day_19_data.csv,0,300,171.0,Training at home,,,,,,,,,,,,,
1,19,4289,B,52.708888011097386,41.1457189491491,2.635444400554869,0.6463154418865857,A,474.9743999855127,Incorrect,sub_001_day_19_data.csv,0,300,171.0,Training at home,,,,,,,,,,,,,
1,19,4290,A,59.11709833694123,80.07248856575218,2.955854916847062,1.2577757091640989,A,459.8605000064708,Correct,sub_001_day_19_data.csv,1,300,171.0,Training at home,,,,,,,,,,,,,
1,19,4291,A,28.74039020053691,47.63998675689338,1.4370195100268457,0.7483271620628563,B,2098.388500016881,Incorrect,sub_001_day_19_data.csv,0,300,171.0,Training at home,,,,,,,,,,,,,
1,19,4292,A,14.191114207350768,37.88497600930717,0.7095557103675384,0.5950958115613247,A,536.4951000083238,Correct,sub_001_day_19_data.csv,1,300,171.0,Training at home,,,,,,,,,,,,,
1,19,4293,A,33.772685139611355,60.70015026997432,1.6886342569805677,0.9534757307997392,A,1111.414600018179,Correct,sub_001_day_19_data.csv,1,300,171.0,Training at home,,,,,,,,,,,,,
1,19,4294,B,48.8797822634763,29.585423382850745,2.443989113173815,0.4647267437645379,B,1361.2633000011556,Correct,sub_001_day_19_data.csv,1,300,171.0,Training at home,,,,,,,,,,,,,
1,19,4295,B,37.77229721311153,17.682040630983934,1.8886148606555764,0.2777488447338768,B,1454.6379999956116,Correct,sub_001_day_19_data.csv,1,300,171.0,Training at home,,,,,,,,,,,,,
1,19,4296,A,30.13221613067089,50.672614863660904,1.5066108065335444,0.7959635729693102,A,2641.291400010232,Correct,sub_001_day_19_data.csv,1,300,171.0,Training at home,,,,,,,,,,,,,
1,19,4297,B,38.654268032919106,13.492561782826552,1.9327134016459553,0.2119406648751715,B,1094.9923000007402,Correct,sub_001_day_19_data.csv,1,300,171.0,Training at home,,,,,,,,,,,,,
1,19,4298,B,48.01409085145616,28.90325346089935,2.400704542572808,0.4540112436880257,A,7780.370200023754,Incorrect,sub_001_day_19_data.csv,0,300,171.0,Training at home,,,,,,,,,,,,,
1,19,4299,A,62.877858803726674,83.36939526445542,3.143892940186334,1.309563398485184,A,934.0778999903704,Correct,sub_001_day_19_data.csv,1,300,171.0,Training at home,,,,,,,,,,,,,
1,19,4300,A,40.224062675954755,52.82764206248456,2.011203133797738,0.8298146610498631,A,403.61209999537095,Correct,sub_001_day_19_data.csv,1,300,172.0,Training at home,,,,,,,,,,,,,
1,19,4301,B,56.63621361144209,43.41502615502277,2.8318106805721044,0.6819616361201414,A,685.3573999833316,Incorrect,sub_001_day_19_data.csv,0,300,172.0,Training at home,,,,,,,,,,,,,
1,19,4302,B,81.25691104835876,66.11345899777236,4.062845552417937,1.038507785454058,B,665.5523999943398,Correct,sub_001_day_19_data.csv,1,300,172.0,Training at home,,,,,,,,,,,,,
1,19,4303,A,58.95927035463538,73.56626347120601,2.9479635177317687,1.15557616436596,A,1034.569999988889,Correct,sub_001_day_19_data.csv,1,300,172.0,Training at home,,,,,,,,,,,,,
1,19,4304,B,36.08517151098735,22.424440949058525,1.8042585755493676,0.3522422947321019,A,760.9145999886096,Incorrect,sub_001_day_19_data.csv,0,300,172.0,Training at home,,,,,,,,,,,,,
1,19,4305,A,62.764043756721726,78.33148366130006,3.1382021878360864,1.230428068075646,B,983.9112999907228,Incorrect,sub_001_day_19_data.csv,0,300,172.0,Training at home,,,,,,,,,,,,,
1,19,4306,A,42.27405291537861,54.48716212917814,2.1137026457689303,0.85588234129991,B,630.4768999980297,Incorrect,sub_001_day_19_data.csv,0,300,172.0,Training at home,,,,,,,,,,,,,
1,19,4307,B,42.03749460316796,28.28422693766032,2.1018747301583978,0.444287597799101,B,496.9676000182517,Correct,sub_001_day_19_data.csv,1,300,172.0,Training at home,,,,,,,,,,,,,
1,19,4308,A,26.24428050726283,49.28047720573574,1.3122140253631414,0.7740959257746932,B,909.029600006761,Incorrect,sub_001_day_19_data.csv,0,300,172.0,Training at home,,,,,,,,,,,,,
1,19,4309,A,45.81582054844435,53.33531812751565,2.2907910274222174,0.8377892180313883,A,1457.709900016198,Correct,sub_001_day_19_data.csv,1,300,172.0,Training at home,,,,,,,,,,,,,
1,19,4310,B,53.77323214946165,46.86216747019831,2.6886616074730822,0.7361092052783478,A,107225.02640000312,Incorrect,sub_001_day_19_data.csv,0,300,172.0,Training at home,,,,,,,,,,,,,
1,19,4311,A,20.899780662779516,48.34494599407487,1.044989033138976,0.7594006358659044,A,96802.96429997544,Correct,sub_001_day_19_data.csv,1,300,172.0,Training at home,,,,,,,,,,,,,
1,19,4312,A,60.073873202630395,79.73624827759691,3.00369366013152,1.2524940590685512,A,656.3101000210736,Correct,sub_001_day_19_data.csv,1,300,172.0,Training at home,,,,,,,,,,,,,
1,19,4313,B,79.33585623890139,60.02568625367156,3.9667928119450697,0.9428812748061018,A,430.3440999938175,Incorrect,sub_001_day_19_data.csv,0,300,172.0,Training at home,,,,,,,,,,,,,
1,19,4314,A,47.71373297667666,59.700813661163195,2.385686648833833,0.9377781880562172,B,787.9175999842118,Incorrect,sub_001_day_19_data.csv,0,300,172.0,Training at home,,,,,,,,,,,,,
1,19,4315,A,23.884907343987013,54.27186990209601,1.1942453671993507,0.852500538905029,A,574.0155999956187,Correct,sub_001_day_19_data.csv,1,300,172.0,Training at home,,,,,,,,,,,,,
1,19,4316,B,51.58369112411198,33.613939112005006,2.5791845562055986,0.5280065208624477,A,683.9201000111643,Incorrect,sub_001_day_19_data.csv,0,300,172.0,Training at home,,,,,,,,,,,,,
1,19,4317,A,48.83358738425496,74.1612908975975,2.441679369212748,1.1649228333231394,A,470.42339999461547,Correct,sub_001_day_19_data.csv,1,300,172.0,Training at home,,,,,,,,,,,,,
1,19,4318,B,85.3839557009878,67.89432414688099,4.26919778504939,1.066481549801427,B,785.8545999915805,Correct,sub_001_day_19_data.csv,1,300,172.0,Training at home,,,,,,,,,,,,,
1,19,4319,B,38.331268704329545,25.178082921564815,1.916563435216477,0.3954964016893132,B,1677.94719999074,Correct,sub_001_day_19_data.csv,1,300,172.0,Training at home,,,,,,,,,,,,,
1,19,4320,B,64.85247067192013,49.17992362481574,3.2426235335960065,0.7725164338191411,B,13334.715700009838,Correct,sub_001_day_19_data.csv,1,300,172.0,Training at home,,,,,,,,,,,,,
1,19,4321,B,79.40902467764062,55.21187162799133,3.970451233882031,0.8672660514872015,B,1122.6342000009026,Correct,sub_001_day_19_data.csv,1,300,172.0,Training at home,,,,,,,,,,,,,
1,19,4322,A,44.182136282761626,59.2435298541202,2.209106814138081,0.930595190812158,B,1345.152699999744,Incorrect,sub_001_day_19_data.csv,0,300,172.0,Training at home,,,,,,,,,,,,,
1,19,4323,A,53.93618493212911,69.05735018331998,2.6968092466064553,1.084750320061479,A,496.3601999916136,Correct,sub_001_day_19_data.csv,1,300,172.0,Training at home,,,,,,,,,,,,,
1,19,4324,B,72.74234163657684,42.88991993347656,3.637117081828842,0.6737132868803218,A,144.62110001477413,Incorrect,sub_001_day_19_data.csv,0,300,172.0,Training at home,,,,,,,,,,,,,
1,19,4325,B,65.73569474976571,41.20293452585956,3.2867847374882855,0.6472141820639082,B,772.1332000219263,Correct,sub_001_day_19_data.csv,1,300,173.0,Training at home,,,,,,,,,,,,,
1,19,4326,B,36.73489946031802,17.72450742954268,1.836744973015901,0.278415911645745,B,776.6094999969937,Correct,sub_001_day_19_data.csv,1,300,173.0,Training at home,,,,,,,,,,,,,
1,19,4327,A,62.50869895871199,87.2498241056291,3.1254349479355996,1.37051703218623,A,1068.1716999970376,Correct,sub_001_day_19_data.csv,1,300,173.0,Training at home,,,,,,,,,,,,,
1,19,4328,A,41.65439837959355,53.71351209164031,2.0827199189796777,0.8437298749280187,A,459.3849999946542,Correct,sub_001_day_19_data.csv,1,300,173.0,Training at home,,,,,,,,,,,,,
1,19,4329,A,23.546071910365693,48.80645380268949,1.177303595518285,0.7666499835714947,A,494.7073000075761,Correct,sub_001_day_19_data.csv,1,300,173.0,Training at home,,,,,,,,,,,,,
1,19,4330,A,55.083165538968096,70.5984686591411,2.7541582769484045,1.1089581524712346,A,517.3956999788061,Correct,sub_001_day_19_data.csv,1,300,173.0,Training at home,,,,,,,,,,,,,
1,19,4331,A,61.80285237185886,80.24683595289028,3.0901426185929433,1.260514351517127,A,685.2358999894932,Correct,sub_001_day_19_data.csv,1,300,173.0,Training at home,,,,,,,,,,,,,
1,19,4332,A,66.05581728040927,79.66617262160297,3.3027908640204635,1.251393313238221,A,357.38930001389235,Correct,sub_001_day_19_data.csv,1,300,173.0,Training at home,,,,,,,,,,,,,
1,19,4333,A,25.22591095252343,56.30632885625598,1.2612955476261716,0.884457745427124,A,863.1144999817479,Correct,sub_001_day_19_data.csv,1,300,173.0,Training at home,,,,,,,,,,,,,
1,19,4334,B,43.56638588443903,26.422722292108077,2.1783192942219514,0.4150471512036499,A,967.383700015489,Incorrect,sub_001_day_19_data.csv,0,300,173.0,Training at home,,,,,,,,,,,,,
1,19,4335,A,63.78783108297229,85.78143961851463,3.189391554148614,1.3474517025994095,A,470.3719000099227,Correct,sub_001_day_19_data.csv,1,300,173.0,Training at home,,,,,,,,,,,,,
1,19,4336,B,74.75049481977507,46.98852389571753,3.737524740988754,0.7380940073690733,A,994.9675000098068,Incorrect,sub_001_day_19_data.csv,0,300,173.0,Training at home,,,,,,,,,,,,,
1,19,4337,A,60.94361857100967,71.39810112201943,3.0471809285504836,1.121518749825987,B,2487.4925000185613,Incorrect,sub_001_day_19_data.csv,0,300,173.0,Training at home,,,,,,,,,,,,,
1,19,4338,B,44.177640422705416,16.255120354202155,2.208882021135271,0.255334833439897,A,743.7285000050906,Incorrect,sub_001_day_19_data.csv,0,300,173.0,Training at home,,,,,,,,,,,,,
1,19,4339,A,27.403907767540534,41.73401296773287,1.3701953883770266,0.6555563427212537,A,474.571200000355,Correct,sub_001_day_19_data.csv,1,300,173.0,Training at home,,,,,,,,,,,,,
1,19,4340,A,14.89349380065554,42.976452508655186,0.744674690032777,0.6750725373927088,A,1594.395300024189,Correct,sub_001_day_19_data.csv,1,300,173.0,Training at home,,,,,,,,,,,,,
1,19,4341,B,54.8109278928324,23.95659298301972,2.74054639464162,0.3763092826024776,A,557.2494000080042,Incorrect,sub_001_day_19_data.csv,0,300,173.0,Training at home,,,,,,,,,,,,,
1,19,4342,B,70.47085310447716,60.708129513607744,3.523542655223858,0.953601068465639,A,1812.3548000003211,Incorrect,sub_001_day_19_data.csv,0,300,173.0,Training at home,,,,,,,,,,,,,
1,19,4343,B,37.11416663847381,17.444889594762763,1.855708331923691,0.2740236849679586,B,1430.2821999881417,Correct,sub_001_day_19_data.csv,1,300,173.0,Training at home,,,,,,,,,,,,,
1,19,4344,B,48.11531983379524,39.560702961390184,2.405765991689762,0.6214180689717569,B,865.2910999953747,Correct,sub_001_day_19_data.csv,1,300,173.0,Training at home,,,,,,,,,,,,,
1,19,4345,A,42.42509432377257,51.50488821272126,2.1212547161886284,0.8090368921652432,A,2133.7028999987524,Correct,sub_001_day_19_data.csv,1,300,173.0,Training at home,,,,,,,,,,,,,
1,19,4346,A,46.59484529384525,78.16962329629418,2.3297422646922628,1.2278855714075965,A,679.7315000148956,Correct,sub_001_day_19_data.csv,1,300,173.0,Training at home,,,,,,,,,,,,,
1,19,4347,B,84.72750782032936,58.75310073705998,4.236375391016469,0.9228915482558432,A,2252.2708000033163,Incorrect,sub_001_day_19_data.csv,0,300,173.0,Training at home,,,,,,,,,,,,,
1,19,4348,B,65.5952059024986,49.64979849899931,3.2797602951249303,0.7798972110833488,B,568.8291999977082,Correct,sub_001_day_19_data.csv,1,300,173.0,Training at home,,,,,,,,,,,,,
1,19,4349,A,18.059726075382756,40.594827626001894,0.9029863037691378,0.6376620612179577,A,1007.5910999730696,Correct,sub_001_day_19_data.csv,1,300,173.0,Training at home,,,,,,,,,,,,,
1,19,4350,A,46.37094457684819,57.60727414582451,2.3185472288424096,0.9048929462492776,A,1234.4976000022143,Correct,sub_001_day_19_data.csv,1,300,174.0,Training at home,,,,,,,,,,,,,
1,19,4351,B,54.11294483783091,36.36273132239476,2.705647241891546,0.5711844479344742,B,464.2654999915976,Correct,sub_001_day_19_data.csv,1,300,174.0,Training at home,,,,,,,,,,,,,
1,19,4352,B,35.773458634120765,12.26215427593597,1.7886729317060384,0.1926134689523255,A,1774.5327000156976,Incorrect,sub_001_day_19_data.csv,0,300,174.0,Training at home,,,,,,,,,,,,,
1,19,4353,A,54.66850473954681,66.74071099279489,2.733425236977341,1.0483606367516198,A,1080.8679000183474,Correct,sub_001_day_19_data.csv,1,300,174.0,Training at home,,,,,,,,,,,,,
1,19,4354,A,35.70661554232081,66.99613527068618,1.7853307771160405,1.052372831926479,A,1498.031600000104,Correct,sub_001_day_19_data.csv,1,300,174.0,Training at home,,,,,,,,,,,,,
1,19,4355,A,53.01555635796029,71.95644046083535,2.650777817898015,1.1302891236511583,A,443.7023000209592,Correct,sub_001_day_19_data.csv,1,300,174.0,Training at home,,,,,,,,,,,,,
1,19,4356,B,55.397853439223105,24.23153823566846,2.769892671961155,0.380628112531781,A,490.70449999999255,Incorrect,sub_001_day_19_data.csv,0,300,174.0,Training at home,,,,,,,,,,,,,
1,19,4357,B,71.14167980875403,61.16435924394437,3.5570839904377016,0.9607675083115128,A,2246.1999999941327,Incorrect,sub_001_day_19_data.csv,0,300,174.0,Training at home,,,,,,,,,,,,,
1,19,4358,A,36.824258375836465,65.92913230167757,1.8412129187918231,1.035612388482499,A,974.1988000168932,Correct,sub_001_day_19_data.csv,1,300,174.0,Training at home,,,,,,,,,,,,,
1,19,4359,B,58.133075046122705,26.275928935008295,2.906653752306135,0.4127413265423476,B,495.0167000060901,Correct,sub_001_day_19_data.csv,1,300,174.0,Training at home,,,,,,,,,,,,,
1,19,4360,B,61.96336843432195,36.44881687044822,3.098168421716098,0.5725366765611992,B,1937.421100010397,Correct,sub_001_day_19_data.csv,1,300,174.0,Training at home,,,,,,,,,,,,,
1,19,4361,A,62.0372393099546,76.65862936044198,3.10186196549773,1.2041509341651366,B,557.1659000124782,Incorrect,sub_001_day_19_data.csv,0,300,174.0,Training at home,,,,,,,,,,,,,
1,19,4362,A,30.455577119150806,49.5194848557919,1.5227788559575404,0.7778502491625342,B,686.9476000138093,Incorrect,sub_001_day_19_data.csv,0,300,174.0,Training at home,,,,,,,,,,,,,
1,19,4363,A,59.70133811322981,67.93323246168616,2.98506690566149,1.0670927201812046,A,623.1649999972433,Correct,sub_001_day_19_data.csv,1,300,174.0,Training at home,,,,,,,,,,,,,
1,19,4364,B,38.74377754195487,19.311681293468578,1.9371888770977437,0.3033471804001416,B,615.0678999838419,Correct,sub_001_day_19_data.csv,1,300,174.0,Training at home,,,,,,,,,,,,,
1,19,4365,A,34.3255285770011,47.44396413692984,1.7162764288500552,0.7452480459487821,B,2238.044500001706,Incorrect,sub_001_day_19_data.csv,0,300,174.0,Training at home,,,,,,,,,,,,,
1,19,4366,B,74.96149522481701,60.998062794111775,3.7480747612408503,0.9581553297859522,A,742.0343000267167,Incorrect,sub_001_day_19_data.csv,0,300,174.0,Training at home,,,,,,,,,,,,,
1,19,4367,B,45.507217733572375,34.391455608500536,2.2753608866786186,0.5402197214296238,B,401.5430000144988,Correct,sub_001_day_19_data.csv,1,300,174.0,Training at home,,,,,,,,,,,,,
1,19,4368,A,11.863217312486611,39.21299029010996,0.5931608656243306,0.6159562111034866,A,867.8517999942414,Correct,sub_001_day_19_data.csv,1,300,174.0,Training at home,,,,,,,,,,,,,
1,19,4369,A,61.54261362236305,84.8698396039699,3.0771306811181525,1.3331323230558794,A,1662.1908999804873,Correct,sub_001_day_19_data.csv,1,300,174.0,Training at home,,,,,,,,,,,,,
1,19,4370,A,59.162568790348786,73.45676193675463,2.9581284395174396,1.1538561182850136,A,1348.1997000053525,Correct,sub_001_day_19_data.csv,1,300,174.0,Training at home,,,,,,,,,,,,,
1,19,4371,B,70.51815274016099,59.97713298841332,3.525907637008049,0.9421186018988864,A,713.9313999796286,Incorrect,sub_001_day_19_data.csv,0,300,174.0,Training at home,,,,,,,,,,,,,
1,19,4372,B,46.280734814148985,27.611374901991113,2.31403674070745,0.4337184627380444,B,3822.192099993117,Correct,sub_001_day_19_data.csv,1,300,174.0,Training at home,,,,,,,,,,,,,
1,19,4373,A,29.11996639434913,52.948801202278645,1.4559983197174566,0.8317178243673251,A,583.59890000429,Correct,sub_001_day_19_data.csv,1,300,174.0,Training at home,,,,,,,,,,,,,
1,19,4374,A,39.90097870710517,67.45563969207143,1.9950489353552583,1.0595907104990585,A,693.3256999764126,Correct,sub_001_day_19_data.csv,1,300,174.0,Training at home,,,,,,,,,,,,,
1,19,4375,A,35.66360038647633,47.1877354337814,1.7831800193238163,0.7412232148915322,A,560.1543000084348,Correct,sub_001_day_19_data.csv,1,300,175.0,Training at home,,,,,,,,,,,,,
1,19,4376,A,26.00791662002522,47.32429407583224,1.3003958310012609,0.7433682730247876,B,1118.438299978152,Incorrect,sub_001_day_19_data.csv,0,300,175.0,Training at home,,,,,,,,,,,,,
1,19,4377,B,58.20322376738635,42.12368788885247,2.9101611883693175,0.6616773420686414,B,998.0836000177078,Correct,sub_001_day_19_data.csv,1,300,175.0,Training at home,,,,,,,,,,,,,
1,19,4378,B,53.3352600398905,42.56397524476241,2.666763001994525,0.668593359682617,B,1434.0079999819864,Correct,sub_001_day_19_data.csv,1,300,175.0,Training at home,,,,,,,,,,,,,
1,19,4379,A,44.373176563603394,70.81965171946192,2.21865882818017,1.1124324878582466,A,424.9114999838639,Correct,sub_001_day_19_data.csv,1,300,175.0,Training at home,,,,,,,,,,,,,
1,19,4380,B,56.61851762207018,34.796407169590175,2.830925881103509,0.5465806856765185,A,853.8571000099182,Incorrect,sub_001_day_19_data.csv,0,300,175.0,Training at home,,,,,,,,,,,,,
1,19,4381,A,22.433411414551223,44.06535823179292,1.1216705707275612,0.6921770284940159,B,1531.3025999930687,Incorrect,sub_001_day_19_data.csv,0,300,175.0,Training at home,,,,,,,,,,,,,
1,19,4382,A,63.25939100311963,79.13225594181984,3.1629695501559816,1.2430065696440422,A,1003.9537000120616,Correct,sub_001_day_19_data.csv,1,300,175.0,Training at home,,,,,,,,,,,,,
1,19,4383,B,58.32110040590672,42.5575492848548,2.9160550202953357,0.6684924209404269,B,1065.198899974348,Correct,sub_001_day_19_data.csv,1,300,175.0,Training at home,,,,,,,,,,,,,
1,19,4384,A,18.164507218731583,45.77080272507051,0.9082253609365792,0.7189660879499461,A,1298.2425999944098,Correct,sub_001_day_19_data.csv,1,300,175.0,Training at home,,,,,,,,,,,,,
1,19,4385,A,63.01165830632011,77.98807001987004,3.1505829153160056,1.2250337392103503,A,3577.175400016131,Correct,sub_001_day_19_data.csv,1,300,175.0,Training at home,,,,,,,,,,,,,
1,19,4386,B,71.5014980904777,57.72273029897701,3.575074904523885,0.9067065272620556,B,1805.1884999731556,Correct,sub_001_day_19_data.csv,1,300,175.0,Training at home,,,,,,,,,,,,,
1,19,4387,B,45.971785959740785,29.134459151558513,2.2985892979870393,0.4576430141842407,A,4124.614400003338,Incorrect,sub_001_day_19_data.csv,0,300,175.0,Training at home,,,,,,,,,,,,,
1,19,4388,B,79.29197849354875,63.02844850746868,3.964598924677438,0.9900485539911308,A,467.5453999952879,Incorrect,sub_001_day_19_data.csv,0,300,175.0,Training at home,,,,,,,,,,,,,
1,19,4389,A,28.34624994946821,40.62313516040754,1.41731249747341,0.6381067149286078,A,2132.2936000069603,Correct,sub_001_day_19_data.csv,1,300,175.0,Training at home,,,,,,,,,,,,,
1,19,4390,B,65.70022981096265,33.385710985171634,3.2850114905481327,0.5244215218294364,B,700.9803999972064,Correct,sub_001_day_19_data.csv,1,300,175.0,Training at home,,,,,,,,,,,,,
1,19,4391,A,64.13422642970917,76.24930765536314,3.206711321485459,1.197721323856984,A,2732.312499982072,Correct,sub_001_day_19_data.csv,1,300,175.0,Training at home,,,,,,,,,,,,,
1,19,4392,B,59.204287811900144,36.29049121876986,2.960214390595007,0.5700497030402615,B,765.1326000050176,Correct,sub_001_day_19_data.csv,1,300,175.0,Training at home,,,,,,,,,,,,,
1,19,4393,A,18.13320285536027,35.905176151339326,0.9066601427680138,0.5639971881144754,A,1379.5821999956388,Correct,sub_001_day_19_data.csv,1,300,175.0,Training at home,,,,,,,,,,,,,
1,19,4394,B,32.83836179590487,11.598388734034472,1.6419180897952437,0.1821870642016065,B,36157.233200006885,Correct,sub_001_day_19_data.csv,1,300,175.0,Training at home,,,,,,,,,,,,,
1,19,4395,A,34.873886447308685,64.23945912422423,1.7436943223654342,1.009071064276223,A,346.9725000031758,Correct,sub_001_day_19_data.csv,1,300,175.0,Training at home,,,,,,,,,,,,,
1,19,4396,B,79.45091099401645,65.98382758011218,3.972545549700823,1.03647153990708,B,1042.0783000008669,Correct,sub_001_day_19_data.csv,1,300,175.0,Training at home,,,,,,,,,,,,,
1,19,4397,A,55.4764962000212,64.87168071198575,2.77382481000106,1.0190019777539854,B,825.5571000045165,Incorrect,sub_001_day_19_data.csv,0,300,175.0,Training at home,,,,,,,,,,,,,
1,19,4398,A,14.257088334015506,43.40928132392558,0.7128544167007753,0.681871396524286,A,552.0103000162635,Correct,sub_001_day_19_data.csv,1,300,175.0,Training at home,,,,,,,,,,,,,
1,19,4399,B,73.59246857927343,48.00725601872549,3.679623428963672,0.7540962141371621,B,393.05110002169386,Correct,sub_001_day_19_data.csv,1,300,175.0,Training at home,,,,,,,,,,,,,
1,19,4400,A,67.82680361932353,84.45760576149816,3.3913401809661763,1.326656969000528,A,598.8376000022981,Correct,sub_001_day_19_data.csv,1,300,176.0,Training at home,,,,,,,,,,,,,
1,19,4401,B,87.29021504595693,69.50312893124449,4.364510752297846,1.0917525962595094,A,385.635699989507,Incorrect,sub_001_day_19_data.csv,0,300,176.0,Training at home,,,,,,,,,,,,,
1,19,4402,A,46.6787268987223,66.63022737807168,2.333936344936115,1.0466251641898374,B,1397.0421999983955,Incorrect,sub_001_day_19_data.csv,0,300,176.0,Training at home,,,,,,,,,,,,,
1,19,4403,B,49.16342448042187,19.87896981524625,2.4581712240210933,0.3122581276625543,B,464.47010000701994,Correct,sub_001_day_19_data.csv,1,300,176.0,Training at home,,,,,,,,,,,,,
1,19,4404,B,53.71337016895315,35.167109524864706,2.685668508447657,0.552403664656513,B,13105.629700003192,Correct,sub_001_day_19_data.csv,1,300,176.0,Training at home,,,,,,,,,,,,,
1,19,4405,A,20.994837981301895,38.51865322380311,1.0497418990650949,0.6050495899703633,A,497.1297000010963,Correct,sub_001_day_19_data.csv,1,300,176.0,Training at home,,,,,,,,,,,,,
1,19,4406,A,53.14530007895666,60.69989719831512,2.657265003947833,0.9534717555594124,B,569.9272000056226,Incorrect,sub_001_day_19_data.csv,0,300,176.0,Training at home,,,,,,,,,,,,,
1,19,4407,A,14.014228035770806,40.840764959492574,0.7007114017885402,0.6415252358186466,A,320.62369998311624,Correct,sub_001_day_19_data.csv,1,300,176.0,Training at home,,,,,,,,,,,,,
1,19,4408,A,41.62513201681642,60.341228886791875,2.0812566008408213,0.9478378068966278,B,1389.3558999989182,Incorrect,sub_001_day_19_data.csv,0,300,176.0,Training at home,,,,,,,,,,,,,
1,19,4409,A,24.118710598702418,48.5787305869673,1.2059355299351209,0.7630729156636712,A,378.4631000016816,Correct,sub_001_day_19_data.csv,1,300,176.0,Training at home,,,,,,,,,,,,,
1,19,4410,A,46.62611520893215,78.11921196231752,2.331305760446607,1.227093712025203,A,456.8552000273485,Correct,sub_001_day_19_data.csv,1,300,176.0,Training at home,,,,,,,,,,,,,
1,19,4411,B,42.88776357264497,23.702775944713284,2.1443881786322487,0.3723223338879806,B,566.5647000132594,Correct,sub_001_day_19_data.csv,1,300,176.0,Training at home,,,,,,,,,,,,,
1,19,4412,A,60.967367847007665,85.70963767711764,3.0483683923503833,1.3463238403413786,A,710.5215000046883,Correct,sub_001_day_19_data.csv,1,300,176.0,Training at home,,,,,,,,,,,,,
1,19,4413,A,62.837112662678805,77.19625747269964,3.1418556331339405,1.2125959768042969,A,6094.616699992912,Correct,sub_001_day_19_data.csv,1,300,176.0,Training at home,,,,,,,,,,,,,
1,19,4414,A,64.10556496294765,86.87630638876483,3.2052782481473825,1.364649829609798,A,482.4975999945309,Correct,sub_001_day_19_data.csv,1,300,176.0,Training at home,,,,,,,,,,,,,
1,19,4415,B,55.030914152166126,31.822579741645104,2.7515457076083063,0.4998679136731382,A,400.6524999858811,Incorrect,sub_001_day_19_data.csv,0,300,176.0,Training at home,,,,,,,,,,,,,
1,19,4416,B,31.109819853886297,11.376923537042646,1.5554909926943148,0.1787082970221299,B,2168.009700020775,Correct,sub_001_day_19_data.csv,1,300,176.0,Training at home,,,,,,,,,,,,,
1,19,4417,A,15.326153687592583,43.58991815879524,0.7663076843796292,0.6847088332912572,A,827.0136000064667,Correct,sub_001_day_19_data.csv,1,300,176.0,Training at home,,,,,,,,,,,,,
1,19,4418,B,58.912420585377035,43.68834514959879,2.945621029268852,0.6862549208473742,A,533.1118000030983,Incorrect,sub_001_day_19_data.csv,0,300,176.0,Training at home,,,,,,,,,,,,,
1,19,4419,B,56.88567592248656,42.1483004592327,2.8442837961243277,0.6620639554201039,B,501.74259999766946,Correct,sub_001_day_19_data.csv,1,300,176.0,Training at home,,,,,,,,,,,,,
1,19,4420,B,78.93658429671845,64.85440271277626,3.946829214835923,1.0187305755770593,A,418.7257000012323,Incorrect,sub_001_day_19_data.csv,0,300,176.0,Training at home,,,,,,,,,,,,,
1,19,4421,A,66.7607664738035,84.81060648289447,3.338038323690175,1.3322018913657807,B,542.0124000229407,Incorrect,sub_001_day_19_data.csv,0,300,176.0,Training at home,,,,,,,,,,,,,
1,19,4422,A,57.07102683940229,72.4484526669446,2.853551341970115,1.1380176333121053,A,507.83159999991767,Correct,sub_001_day_19_data.csv,1,300,176.0,Training at home,,,,,,,,,,,,,
1,19,4423,A,38.26556572591294,48.475664976987616,1.9132782862956472,0.7614539648479217,A,494.44390001008287,Correct,sub_001_day_19_data.csv,1,300,176.0,Training at home,,,,,,,,,,,,,
1,19,4424,A,13.405248982245926,38.797755400186546,0.6702624491122963,0.6094337167049989,A,646.9198999984656,Correct,sub_001_day_19_data.csv,1,300,176.0,Training at home,,,,,,,,,,,,,
1,19,4425,A,39.8396727329788,52.24923367977618,1.99198363664894,0.8207290434204062,B,8605.881200026488,Incorrect,sub_001_day_19_data.csv,0,300,177.0,Training at home,,,,,,,,,,,,,
1,19,4426,A,65.4265563543151,79.61836343572291,3.271327817715755,1.2506423283025463,A,713.7284000054933,Correct,sub_001_day_19_data.csv,1,300,177.0,Training at home,,,,,,,,,,,,,
1,19,4427,A,40.03353599792083,48.16397306848344,2.0016767998960416,0.7565579197982211,A,1939.598800003296,Correct,sub_001_day_19_data.csv,1,300,177.0,Training at home,,,,,,,,,,,,,
1,19,4428,A,14.775994217530323,39.077855843061705,0.7387997108765163,0.6138335241730182,A,335.3188000037335,Correct,sub_001_day_19_data.csv,1,300,177.0,Training at home,,,,,,,,,,,,,
1,19,4429,A,69.06083511801806,84.85623530324295,3.4530417559009035,1.3329186271997744,A,3251.483800006099,Correct,sub_001_day_19_data.csv,1,300,177.0,Training at home,,,,,,,,,,,,,
1,19,4430,A,49.79310432477058,78.1181154291637,2.4896552162385293,1.2270764877227005,A,534.9474000104237,Correct,sub_001_day_19_data.csv,1,300,177.0,Training at home,,,,,,,,,,,,,
1,19,4431,B,41.92200716113868,20.92366195631175,2.096100358056934,0.3286681134407262,A,1331.0804000066128,Incorrect,sub_001_day_19_data.csv,0,300,177.0,Training at home,,,,,,,,,,,,,
1,19,4432,B,51.62502818337053,39.92199182451137,2.5812514091685266,0.6270931811627836,B,831.8193000159226,Correct,sub_001_day_19_data.csv,1,300,177.0,Training at home,,,,,,,,,,,,,
1,19,4433,A,45.29964309481674,64.80351843420564,2.264982154740837,1.017931287198356,A,591.940499987686,Correct,sub_001_day_19_data.csv,1,300,177.0,Training at home,,,,,,,,,,,,,
1,19,4434,A,28.74062211965069,58.55836009299824,1.4370311059825347,0.919832569372145,A,2042.2549000068104,Correct,sub_001_day_19_data.csv,1,300,177.0,Training at home,,,,,,,,,,,,,
1,19,4435,B,58.14961293619142,35.731601274222264,2.907480646809571,0.5612706803204818,A,586.3994999963325,Incorrect,sub_001_day_19_data.csv,0,300,177.0,Training at home,,,,,,,,,,,,,
1,19,4436,B,69.84273572151545,42.97115982372478,3.492136786075773,0.6749894000922332,A,452.0265000173822,Incorrect,sub_001_day_19_data.csv,0,300,177.0,Training at home,,,,,,,,,,,,,
1,19,4437,A,41.54103058072605,55.603590720802934,2.0770515290363023,0.8734191606084404,A,866.4934000116773,Correct,sub_001_day_19_data.csv,1,300,177.0,Training at home,,,,,,,,,,,,,
1,19,4438,B,49.6952236973395,24.21262940081655,2.484761184866975,0.3803310932484875,A,558.6426999943797,Incorrect,sub_001_day_19_data.csv,0,300,177.0,Training at home,,,,,,,,,,,,,
1,19,4439,A,30.29570301836175,55.70117741602568,1.5147851509180874,0.8749520488324399,A,1087.7892000135034,Correct,sub_001_day_19_data.csv,1,300,177.0,Training at home,,,,,,,,,,,,,
1,19,4440,B,63.537371792971626,49.06362063776558,3.1768685896485813,0.7706895507706044,A,887.4316999863368,Incorrect,sub_001_day_19_data.csv,0,300,177.0,Training at home,,,,,,,,,,,,,
1,19,4441,B,77.58477625964814,47.58192613973068,3.879238812982407,0.7474151480211504,B,404.4008000055328,Correct,sub_001_day_19_data.csv,1,300,177.0,Training at home,,,,,,,,,,,,,
1,19,4442,B,51.42355636896464,41.6559472326105,2.571177818448232,0.6543300890214662,A,971.9024999940302,Incorrect,sub_001_day_19_data.csv,0,300,177.0,Training at home,,,,,,,,,,,,,
1,19,4443,B,39.13229413020325,25.52379796836484,1.956614706510163,0.4009268809456253,B,542.2760000219569,Correct,sub_001_day_19_data.csv,1,300,177.0,Training at home,,,,,,,,,,,,,
1,19,4444,B,68.820825738515,39.80622627782588,3.44104128692575,0.6252747402077538,A,464.9115999927744,Incorrect,sub_001_day_19_data.csv,0,300,177.0,Training at home,,,,,,,,,,,,,
1,19,4445,B,81.68418975248886,53.81045667474399,4.0842094876244435,0.845252676878438,A,524.9927999975625,Incorrect,sub_001_day_19_data.csv,0,300,177.0,Training at home,,,,,,,,,,,,,
1,19,4446,B,78.43728686962304,59.599679530238085,3.921864343481152,0.9361895768425096,A,400.0088000029791,Incorrect,sub_001_day_19_data.csv,0,300,177.0,Training at home,,,,,,,,,,,,,
1,19,4447,B,67.14019853827978,35.36878310944062,3.357009926913989,0.555571545915147,A,466.9445999898017,Incorrect,sub_001_day_19_data.csv,0,300,177.0,Training at home,,,,,,,,,,,,,
1,19,4448,B,71.321149745138,40.870359503854715,3.5660574872569,0.6419901058344188,B,685.3861999989022,Correct,sub_001_day_19_data.csv,1,300,177.0,Training at home,,,,,,,,,,,,,
1,19,4449,B,58.434652422597544,43.303785329577885,2.9217326211298773,0.6802142693201567,B,677.8714999963995,Correct,sub_001_day_19_data.csv,1,300,177.0,Training at home,,,,,,,,,,,,,
1,19,4450,B,30.88225328299806,16.324207621321573,1.544112664149903,0.2564200536940918,B,623.5944000072777,Correct,sub_001_day_19_data.csv,1,300,178.0,Training at home,,,,,,,,,,,,,
1,19,4451,A,46.19169543945986,76.36805164160533,2.309584771972993,1.1995865500311662,A,2159.811199991964,Correct,sub_001_day_19_data.csv,1,300,178.0,Training at home,,,,,,,,,,,,,
1,19,4452,B,44.968135508391995,35.44425431440271,2.2484067754196,0.5567570448304795,A,577.3348000075202,Incorrect,sub_001_day_19_data.csv,0,300,178.0,Training at home,,,,,,,,,,,,,
1,19,4453,B,42.320938945939545,15.028945845413157,2.116046947296977,0.236074129295744,B,776.4691000047605,Correct,sub_001_day_19_data.csv,1,300,178.0,Training at home,,,,,,,,,,,,,
1,19,4454,A,41.24704035868273,48.90719596644895,2.0623520179341366,0.768232437779362,A,436.5821999963373,Correct,sub_001_day_19_data.csv,1,300,178.0,Training at home,,,,,,,,,,,,,
1,19,4455,B,58.769363723731225,27.140032943538664,2.938468186186561,0.4263146405680302,B,4812.070000014501,Correct,sub_001_day_19_data.csv,1,300,178.0,Training at home,,,,,,,,,,,,,
1,19,4456,A,68.17390190104011,83.104867475452,3.408695095052005,1.3054082056921668,A,3740.0797000154857,Correct,sub_001_day_19_data.csv,1,300,178.0,Training at home,,,,,,,,,,,,,
1,19,4457,A,26.90000632358327,37.590491075687154,1.3450003161791635,0.5904700530410573,B,566.5009999938775,Incorrect,sub_001_day_19_data.csv,0,300,178.0,Training at home,,,,,,,,,,,,,
1,19,4458,B,72.01482779116333,54.62802216888939,3.6007413895581664,0.8580949656296164,A,492.9662000213284,Incorrect,sub_001_day_19_data.csv,0,300,178.0,Training at home,,,,,,,,,,,,,
1,19,4459,A,25.959541549990544,43.69888345669423,1.2979770774995272,0.6864204561881357,A,673.0725000088569,Correct,sub_001_day_19_data.csv,1,300,178.0,Training at home,,,,,,,,,,,,,
1,19,4460,A,60.78398969109708,71.39981467388553,3.039199484554854,1.1215456662357577,A,631.1737000069115,Correct,sub_001_day_19_data.csv,1,300,178.0,Training at home,,,,,,,,,,,,,
1,19,4461,B,52.64147720313177,32.81961181401615,2.6320738601565887,0.5155292568429095,A,695.7035000086762,Incorrect,sub_001_day_19_data.csv,0,300,178.0,Training at home,,,,,,,,,,,,,
1,19,4462,A,25.146636387481593,52.255604901039575,1.2573318193740797,0.8208291223299835,A,489.1219999990426,Correct,sub_001_day_19_data.csv,1,300,178.0,Training at home,,,,,,,,,,,,,
1,19,4463,A,25.252248971308596,45.2407825071911,1.26261244856543,0.7106405498362259,A,920.0357999943662,Correct,sub_001_day_19_data.csv,1,300,178.0,Training at home,,,,,,,,,,,,,
1,19,4464,A,51.561149921031216,69.6181602774148,2.5780574960515605,1.0935595044198154,A,587.6138999883551,Correct,sub_001_day_19_data.csv,1,300,178.0,Training at home,,,,,,,,,,,,,
1,19,4465,B,32.75472811219946,20.061857576318573,1.637736405609973,0.3151309218956358,A,951.7507999844383,Incorrect,sub_001_day_19_data.csv,0,300,178.0,Training at home,,,,,,,,,,,,,
1,19,4466,B,59.13911565875908,34.04799578781849,2.956955782937954,0.534824667182334,B,954.6272000006866,Correct,sub_001_day_19_data.csv,1,300,178.0,Training at home,,,,,,,,,,,,,
1,19,4467,A,50.86708019208024,63.500536779598654,2.5433540096040117,0.997464099228978,A,871.8158000265248,Correct,sub_001_day_19_data.csv,1,300,178.0,Training at home,,,,,,,,,,,,,
1,19,4468,A,60.51283912798688,73.12712243980161,3.025641956399344,1.1486781531752102,A,527.925000002142,Correct,sub_001_day_19_data.csv,1,300,178.0,Training at home,,,,,,,,,,,,,
1,19,4469,B,56.906420453545934,34.123287329466976,2.8453210226772967,0.5360073439529356,B,2455.543399992166,Correct,sub_001_day_19_data.csv,1,300,178.0,Training at home,,,,,,,,,,,,,
1,19,4470,B,47.73582092586726,30.791581307455477,2.3867910462933626,0.4836730281395746,A,367.1716000244487,Incorrect,sub_001_day_19_data.csv,0,300,178.0,Training at home,,,,,,,,,,,,,
1,19,4471,B,63.63290637958713,32.04960078166789,3.1816453189793568,0.5034339518308676,B,1032.0178999972995,Correct,sub_001_day_19_data.csv,1,300,178.0,Training at home,,,,,,,,,,,,,
1,19,4472,B,71.55668608568989,60.3572549913447,3.5778343042844942,0.948089544358272,A,358.8228999869898,Incorrect,sub_001_day_19_data.csv,0,300,178.0,Training at home,,,,,,,,,,,,,
1,19,4473,A,40.807910212948805,61.84774523962933,2.04039551064744,0.971502110429563,A,440.0123999803327,Correct,sub_001_day_19_data.csv,1,300,178.0,Training at home,,,,,,,,,,,,,
1,19,4474,B,59.13238907157606,38.26709941488125,2.9566194535788033,0.6010981919799061,B,930.849299998954,Correct,sub_001_day_19_data.csv,1,300,178.0,Training at home,,,,,,,,,,,,,
1,19,4475,A,68.04125092967408,85.89498303701072,3.402062546483704,1.349235238446464,A,509.68650000868365,Correct,sub_001_day_19_data.csv,1,300,179.0,Training at home,,,,,,,,,,,,,
1,19,4476,B,58.384594426550365,38.583505956795456,2.9192297213275187,0.6060682943180331,A,586.6777999908663,Incorrect,sub_001_day_19_data.csv,0,300,179.0,Training at home,,,,,,,,,,,,,
1,19,4477,B,67.18836121737179,52.02486316697462,3.3594180608685895,0.8172046396469085,A,458.6393999925349,Incorrect,sub_001_day_19_data.csv,0,300,179.0,Training at home,,,,,,,,,,,,,
1,19,4478,A,60.92817028175395,85.53701432987265,3.0464085140876977,1.3436122791436638,A,724.6220000088215,Correct,sub_001_day_19_data.csv,1,300,179.0,Training at home,,,,,,,,,,,,,
1,19,4479,B,42.76258174431008,26.782852064139153,2.138129087215504,0.4207040564344089,B,1345.2040999836754,Correct,sub_001_day_19_data.csv,1,300,179.0,Training at home,,,,,,,,,,,,,
1,19,4480,B,30.74199829955422,12.528405503276533,1.537099914977711,0.1967957334514374,B,614.3365000025369,Correct,sub_001_day_19_data.csv,1,300,179.0,Training at home,,,,,,,,,,,,,
1,19,4481,B,41.36819947643728,32.24515201510117,2.0684099738218635,0.5065056634226397,B,1033.4828000050038,Correct,sub_001_day_19_data.csv,1,300,179.0,Training at home,,,,,,,,,,,,,
1,19,4482,A,60.003243768192775,84.20128012328016,3.0001621884096386,1.322630615290766,A,949.8415999987628,Correct,sub_001_day_19_data.csv,1,300,179.0,Training at home,,,,,,,,,,,,,
1,19,4483,B,85.40320174034466,65.34453366178442,4.270160087017233,1.0264295345205643,A,1790.8046999946237,Incorrect,sub_001_day_19_data.csv,0,300,179.0,Training at home,,,,,,,,,,,,,
1,19,4484,A,50.991946095564025,62.49939754987043,2.5495973047782012,0.9817382409823044,A,555.3382000070997,Correct,sub_001_day_19_data.csv,1,300,179.0,Training at home,,,,,,,,,,,,,
1,19,4485,B,86.34436197284955,58.66769376195426,4.317218098642478,0.9215499786280562,A,805.0800999917556,Incorrect,sub_001_day_19_data.csv,0,300,179.0,Training at home,,,,,,,,,,,,,
1,19,4486,B,53.22007449620445,42.80931385501188,2.6610037248102225,0.6724471295606254,B,692.5772999820765,Correct,sub_001_day_19_data.csv,1,300,179.0,Training at home,,,,,,,,,,,,,
1,19,4487,B,69.28876119541732,50.653592260999496,3.4644380597708664,0.7956647666254442,B,593.6498999944888,Correct,sub_001_day_19_data.csv,1,300,179.0,Training at home,,,,,,,,,,,,,
1,19,4488,B,63.41128067354233,48.9748248482226,3.1705640336771164,0.7692947497701149,A,1280.030199995963,Incorrect,sub_001_day_19_data.csv,0,300,179.0,Training at home,,,,,,,,,,,,,
1,19,4489,A,44.26927669937496,59.41559272654944,2.213463834968748,0.9332979480920544,B,341.33359999395907,Incorrect,sub_001_day_19_data.csv,0,300,179.0,Training at home,,,,,,,,,,,,,
1,19,4490,B,62.40839538538626,29.73766666873532,3.1204197692693127,0.4671181757070047,A,909.7283000010066,Incorrect,sub_001_day_19_data.csv,0,300,179.0,Training at home,,,,,,,,,,,,,
1,19,4491,B,79.48715575920171,48.43169767105228,3.9743577879600855,0.7607633280212988,A,538.9391999924555,Incorrect,sub_001_day_19_data.csv,0,300,179.0,Training at home,,,,,,,,,,,,,
1,19,4492,B,61.98214066875948,48.31319729561173,3.099107033437974,0.7589019284766402,B,618.0457999871578,Correct,sub_001_day_19_data.csv,1,300,179.0,Training at home,,,,,,,,,,,,,
1,19,4493,B,70.24567857248884,38.10033405724064,3.512283928624442,0.598478647867721,B,2977.029300003778,Correct,sub_001_day_19_data.csv,1,300,179.0,Training at home,,,,,,,,,,,,,
1,19,4494,A,26.066670223188225,47.38123444517902,1.303333511159411,0.7442626902549504,A,1516.4293000125326,Correct,sub_001_day_19_data.csv,1,300,179.0,Training at home,,,,,,,,,,,,,
1,19,4495,A,17.5209021055596,34.237887475415896,0.87604510527798,0.5378074788360028,A,1634.026100015035,Correct,sub_001_day_19_data.csv,1,300,179.0,Training at home,,,,,,,,,,,,,
1,19,4496,B,36.79721245451818,19.826961988101964,1.8398606227259091,0.311441190624126,A,1071.540200005984,Incorrect,sub_001_day_19_data.csv,0,300,179.0,Training at home,,,,,,,,,,,,,
1,19,4497,A,36.1149197301259,50.44496848324091,1.805745986506295,0.7923877119875914,B,1682.0372000220232,Incorrect,sub_001_day_19_data.csv,0,300,179.0,Training at home,,,,,,,,,,,,,
1,19,4498,B,41.32080792334014,25.627387684661876,2.066040396167007,0.4025540644041564,B,2005.1325999957044,Correct,sub_001_day_19_data.csv,1,300,179.0,Training at home,,,,,,,,,,,,,
1,19,4499,B,38.84402444271388,19.373150481290992,1.942201222135694,0.3043127361445666,A,1662.7852999954484,Incorrect,sub_001_day_19_data.csv,0,300,179.0,Training at home,,,,,,,,,,,,,
