subject,day,trial,cat,x,y,xt,yt,resp,rt,fb,f_name,acc,n_trials,block,session_type,ns_left_digit,ns_right_digit,ns_left_size,ns_right_size,ns_congruent,ns_cue,ns_correct_side,ns_resp,ns_rt,ns_fb,acc_stroop,acc_stroop_mean,resp_key
1,10,2100,A,30.24267525821874,62.48212475182877,1.512133762910937,0.9814669205051312,A,1081.0696999542415,Correct,sub_001_day_11_data.csv,1,300,84.0,Training at home,,,,,,,,,,,,,
1,10,2101,B,71.86147412753182,52.79134701883011,3.5930737063765914,0.8292445398373305,B,544.4420999847353,Correct,sub_001_day_11_data.csv,1,300,84.0,Training at home,,,,,,,,,,,,,
1,10,2102,A,51.916433066939376,61.30037052074649,2.5958216533469685,0.9629039684515476,B,783.9196999557316,Incorrect,sub_001_day_11_data.csv,0,300,84.0,Training at home,,,,,,,,,,,,,
1,10,2103,B,59.45617447707909,43.67829002269385,2.9728087238539547,0.6860969752832967,B,579.1529002599418,Correct,sub_001_day_11_data.csv,1,300,84.0,Training at home,,,,,,,,,,,,,
1,10,2104,A,50.63905642952782,80.7996077762046,2.531952821476391,1.2691972710133057,A,480.2627000026405,Correct,sub_001_day_11_data.csv,1,300,84.0,Training at home,,,,,,,,,,,,,
1,10,2105,B,76.2802214637493,64.57684277447504,3.814011073187465,1.0143706742615697,B,595.3151001594961,Correct,sub_001_day_11_data.csv,1,300,84.0,Training at home,,,,,,,,,,,,,
1,10,2106,A,46.521186953098265,56.95602585501245,2.326059347654913,0.8946631620188871,B,569.9666002765298,Incorrect,sub_001_day_11_data.csv,0,300,84.0,Training at home,,,,,,,,,,,,,
1,10,2107,B,41.670955989279534,31.61715938950027,2.083547799463977,0.4966411783271579,B,769.8523001745343,Correct,sub_001_day_11_data.csv,1,300,84.0,Training at home,,,,,,,,,,,,,
1,10,2108,A,58.743056400390714,79.05115359486969,2.937152820019536,1.2417326169572047,A,569.1735995933414,Correct,sub_001_day_11_data.csv,1,300,84.0,Training at home,,,,,,,,,,,,,
1,10,2109,B,60.06070723675646,27.08798960728216,3.003035361837823,0.4254971457537715,B,470.8571000955999,Correct,sub_001_day_11_data.csv,1,300,84.0,Training at home,,,,,,,,,,,,,
1,10,2110,B,70.62292980614681,60.589105451617726,3.531146490307341,0.9517314428718976,B,730.2061002701521,Correct,sub_001_day_11_data.csv,1,300,84.0,Training at home,,,,,,,,,,,,,
1,10,2111,B,57.10333628400482,30.919735822259348,2.855166814200241,0.4856860745507356,B,948.040199931711,Correct,sub_001_day_11_data.csv,1,300,84.0,Training at home,,,,,,,,,,,,,
1,10,2112,B,52.10332463051366,26.312814964474015,2.6051662315256827,0.4133207309382957,B,753.0209999531507,Correct,sub_001_day_11_data.csv,1,300,84.0,Training at home,,,,,,,,,,,,,
1,10,2113,A,44.35171601449448,59.78458828452484,2.217585800724724,0.939094116762768,B,892.5148998387158,Incorrect,sub_001_day_11_data.csv,0,300,84.0,Training at home,,,,,,,,,,,,,
1,10,2114,A,24.988081013019396,55.061844252565315,1.2494040506509698,0.8649094269848228,B,463.1517003290355,Incorrect,sub_001_day_11_data.csv,0,300,84.0,Training at home,,,,,,,,,,,,,
1,10,2115,A,27.675334066622952,40.2387378179736,1.3837667033311476,0.6320686155933581,A,861.2730000168085,Correct,sub_001_day_11_data.csv,1,300,84.0,Training at home,,,,,,,,,,,,,
1,10,2116,A,48.573688684338315,65.43589367664363,2.428684434216916,1.027864614278132,A,1381.3046999275684,Correct,sub_001_day_11_data.csv,1,300,84.0,Training at home,,,,,,,,,,,,,
1,10,2117,B,65.03602176288744,52.03719477852209,3.251801088144372,0.8173983441481307,B,612.2289998456836,Correct,sub_001_day_11_data.csv,1,300,84.0,Training at home,,,,,,,,,,,,,
1,10,2118,B,82.22179059823517,56.10848695542265,4.111089529911759,0.8813500521159727,B,692.4131996929646,Correct,sub_001_day_11_data.csv,1,300,84.0,Training at home,,,,,,,,,,,,,
1,10,2119,A,36.22693442669481,65.19527097244752,1.8113467213347405,1.024084921679185,A,612.3039997182786,Correct,sub_001_day_11_data.csv,1,300,84.0,Training at home,,,,,,,,,,,,,
1,10,2120,B,30.332276680916664,11.527669343263028,1.5166138340458333,0.181076206609037,B,826.4238997362554,Correct,sub_001_day_11_data.csv,1,300,84.0,Training at home,,,,,,,,,,,,,
1,10,2121,A,13.968741248042242,39.92759161340857,0.6984370624021122,0.627181142441089,A,595.8015997894108,Correct,sub_001_day_11_data.csv,1,300,84.0,Training at home,,,,,,,,,,,,,
1,10,2122,A,19.28687989037712,44.653978366908056,0.964343994518856,0.7014230519551795,B,1326.7747000791132,Incorrect,sub_001_day_11_data.csv,0,300,84.0,Training at home,,,,,,,,,,,,,
1,10,2123,B,73.55406011120247,46.372741847786536,3.677703005560124,0.7284213255791108,B,599.8125001788139,Correct,sub_001_day_11_data.csv,1,300,84.0,Training at home,,,,,,,,,,,,,
1,10,2124,A,25.344189259400956,35.68417198368392,1.267209462970048,0.5605256627668805,A,1867.9929003119469,Correct,sub_001_day_11_data.csv,1,300,84.0,Training at home,,,,,,,,,,,,,
1,10,2125,B,43.76157148064741,27.4573414124546,2.1880785740323705,0.4312989103423708,B,1817.888699937612,Correct,sub_001_day_11_data.csv,1,300,85.0,Training at home,,,,,,,,,,,,,
1,10,2126,B,84.9809078503692,57.52516399125176,4.24904539251846,0.9036031629573232,B,1934.954300057143,Correct,sub_001_day_11_data.csv,1,300,85.0,Training at home,,,,,,,,,,,,,
1,10,2127,B,44.61764482867879,33.84738407998665,2.23088224143394,0.5316734658445909,A,1079.0107999928296,Incorrect,sub_001_day_11_data.csv,0,300,85.0,Training at home,,,,,,,,,,,,,
1,10,2128,B,34.256539496754,15.476864210564916,1.7128269748377,0.2431100145225876,A,3243.9812999218702,Incorrect,sub_001_day_11_data.csv,0,300,85.0,Training at home,,,,,,,,,,,,,
1,10,2129,A,48.90745649062191,66.53278495165722,2.4453728245310957,1.045094542134979,A,1013.7958000414072,Correct,sub_001_day_11_data.csv,1,300,85.0,Training at home,,,,,,,,,,,,,
1,10,2130,B,52.11877749288036,44.64168729430283,2.605938874644018,0.7012299842381728,B,778.241999913007,Correct,sub_001_day_11_data.csv,1,300,85.0,Training at home,,,,,,,,,,,,,
1,10,2131,B,67.19141967292036,49.51489346912717,3.3595709836460177,0.7777781278294557,B,1206.6219002008438,Correct,sub_001_day_11_data.csv,1,300,85.0,Training at home,,,,,,,,,,,,,
1,10,2132,A,49.41541176943315,56.36675749541556,2.4707705884716575,0.8854069562713747,B,711.0187001526356,Incorrect,sub_001_day_11_data.csv,0,300,85.0,Training at home,,,,,,,,,,,,,
1,10,2133,A,55.16498271210664,83.04900125548974,2.758249135605332,1.3045306611610803,A,647.5119004026055,Correct,sub_001_day_11_data.csv,1,300,85.0,Training at home,,,,,,,,,,,,,
1,10,2134,B,39.40904207351002,15.787313041940797,1.9704521036755012,0.2479865333624177,B,577.3682002909482,Correct,sub_001_day_11_data.csv,1,300,85.0,Training at home,,,,,,,,,,,,,
1,10,2135,B,51.51316990960895,44.277594691995105,2.5756584954804476,0.6955108310149912,B,1096.874499693513,Correct,sub_001_day_11_data.csv,1,300,85.0,Training at home,,,,,,,,,,,,,
1,10,2136,B,61.604572033430095,40.81816678120877,3.080228601671505,0.641170264464242,B,605.1926002837718,Correct,sub_001_day_11_data.csv,1,300,85.0,Training at home,,,,,,,,,,,,,
1,10,2137,B,59.46601699079933,49.95783170726732,2.973300849539967,0.7847357854041312,B,729.0174998342991,Correct,sub_001_day_11_data.csv,1,300,85.0,Training at home,,,,,,,,,,,,,
1,10,2138,A,55.440718014668676,68.91590863050773,2.772035900733434,1.0825285613453426,A,728.7215003743768,Correct,sub_001_day_11_data.csv,1,300,85.0,Training at home,,,,,,,,,,,,,
1,10,2139,A,45.815630802604886,78.05495804232653,2.2907815401302445,1.226084413810163,A,680.2062001079321,Correct,sub_001_day_11_data.csv,1,300,85.0,Training at home,,,,,,,,,,,,,
1,10,2140,A,30.43276012594241,57.11024497764659,1.5216380062971206,0.8970856303324396,B,660.3498002514243,Incorrect,sub_001_day_11_data.csv,0,300,85.0,Training at home,,,,,,,,,,,,,
1,10,2141,B,67.45796796113243,47.52360026712202,3.3728983980566216,0.7464989673566423,B,522.7583996020257,Correct,sub_001_day_11_data.csv,1,300,85.0,Training at home,,,,,,,,,,,,,
1,10,2142,A,34.82373248951508,54.38563022087909,1.741186624475754,0.8542874818138239,B,1490.2503001503646,Incorrect,sub_001_day_11_data.csv,0,300,85.0,Training at home,,,,,,,,,,,,,
1,10,2143,B,86.71277439716201,61.86368742771496,4.3356387198581,0.9717525297344228,B,519.1981000825763,Correct,sub_001_day_11_data.csv,1,300,85.0,Training at home,,,,,,,,,,,,,
1,10,2144,B,37.78113778423591,12.801236314853067,1.8890568892117952,0.2010813498180463,A,1120.2450999990106,Incorrect,sub_001_day_11_data.csv,0,300,85.0,Training at home,,,,,,,,,,,,,
1,10,2145,A,49.46770704758104,66.59661358066299,2.473385352379052,1.0460971598948454,A,653.3541996032,Correct,sub_001_day_11_data.csv,1,300,85.0,Training at home,,,,,,,,,,,,,
1,10,2146,B,41.40053567018256,19.18686635096771,2.070026783509128,0.3013865918680468,B,1231.7067999392748,Correct,sub_001_day_11_data.csv,1,300,85.0,Training at home,,,,,,,,,,,,,
1,10,2147,B,47.98918934947021,26.45439929238094,2.399459467473511,0.4155447323603749,B,594.2249000072479,Correct,sub_001_day_11_data.csv,1,300,85.0,Training at home,,,,,,,,,,,,,
1,10,2148,B,56.915451766131234,47.599895568425275,2.8457725883065614,0.7476974111470309,B,720.0706000439823,Correct,sub_001_day_11_data.csv,1,300,85.0,Training at home,,,,,,,,,,,,,
1,10,2149,A,24.06601220446324,41.55935229883726,1.2033006102231625,0.6528127793498861,A,712.5137997791171,Correct,sub_001_day_11_data.csv,1,300,85.0,Training at home,,,,,,,,,,,,,
1,10,2150,B,49.18534689412023,26.44707833173196,2.459267344706012,0.4154297349794146,B,563.7391996569932,Correct,sub_001_day_11_data.csv,1,300,86.0,Training at home,,,,,,,,,,,,,
1,10,2151,B,62.63270585674967,49.62793995276952,3.1316352928374833,0.7795538578420805,B,629.8565999604762,Correct,sub_001_day_11_data.csv,1,300,86.0,Training at home,,,,,,,,,,,,,
1,10,2152,A,40.76557674818328,49.64703064938405,2.038278837409164,0.7798537338032612,B,4349.989699665457,Incorrect,sub_001_day_11_data.csv,0,300,86.0,Training at home,,,,,,,,,,,,,
1,10,2153,A,48.02794339089667,79.10218296635713,2.4013971695448335,1.242534184450116,A,617.1879000030458,Correct,sub_001_day_11_data.csv,1,300,86.0,Training at home,,,,,,,,,,,,,
1,10,2154,B,38.251907283494205,21.085062264123128,1.9125953641747104,0.3312033835472629,B,647.5577997043729,Correct,sub_001_day_11_data.csv,1,300,86.0,Training at home,,,,,,,,,,,,,
1,10,2155,A,18.053061811512613,48.64367229291707,0.9026530905756306,0.764093017595288,A,574.7257000766695,Correct,sub_001_day_11_data.csv,1,300,86.0,Training at home,,,,,,,,,,,,,
1,10,2156,B,48.00207445646862,21.55640567117231,2.400103722823431,0.3386072284717814,B,469.3197002634406,Correct,sub_001_day_11_data.csv,1,300,86.0,Training at home,,,,,,,,,,,,,
1,10,2157,B,68.94843517578416,56.49462864393007,3.447421758789208,0.887415551575271,B,751.168199814856,Correct,sub_001_day_11_data.csv,1,300,86.0,Training at home,,,,,,,,,,,,,
1,10,2158,A,18.474065611518377,31.84420761441621,0.9237032805759188,0.5002076435041904,A,1245.863300282508,Correct,sub_001_day_11_data.csv,1,300,86.0,Training at home,,,,,,,,,,,,,
1,10,2159,B,62.47846421458912,53.48113839700723,3.123923210729456,0.8400797574682846,A,696.305800229311,Incorrect,sub_001_day_11_data.csv,0,300,86.0,Training at home,,,,,,,,,,,,,
1,10,2160,B,47.17872874086132,25.489363259579584,2.3589364370430657,0.4003859818048839,B,1274.7765998356044,Correct,sub_001_day_11_data.csv,1,300,86.0,Training at home,,,,,,,,,,,,,
1,10,2161,A,14.675361761988302,36.12968985757029,0.7337680880994151,0.5675238411651022,A,640.7069000415504,Correct,sub_001_day_11_data.csv,1,300,86.0,Training at home,,,,,,,,,,,,,
1,10,2162,B,55.341595066394994,38.79362078157889,2.76707975331975,0.6093687702677828,B,890.0496000424027,Correct,sub_001_day_11_data.csv,1,300,86.0,Training at home,,,,,,,,,,,,,
1,10,2163,B,64.57149685291161,43.414562691664266,3.22857484264558,0.6819543560547299,B,526.4636999927461,Correct,sub_001_day_11_data.csv,1,300,86.0,Training at home,,,,,,,,,,,,,
1,10,2164,A,47.52156813247652,68.17513481799944,2.376078406623826,1.0708925135086036,A,956.9057999178768,Correct,sub_001_day_11_data.csv,1,300,86.0,Training at home,,,,,,,,,,,,,
1,10,2165,B,59.527853708638105,39.06864510955247,2.976392685431905,0.6136888423093843,B,487.7808000892401,Correct,sub_001_day_11_data.csv,1,300,86.0,Training at home,,,,,,,,,,,,,
1,10,2166,A,34.52590129632545,57.12336579132743,1.7262950648162727,0.8972917315917839,B,938.25909961015,Incorrect,sub_001_day_11_data.csv,0,300,86.0,Training at home,,,,,,,,,,,,,
1,10,2167,A,60.712989543611,82.70393506802203,3.03564947718055,1.2991103741633263,A,567.5065000541508,Correct,sub_001_day_11_data.csv,1,300,86.0,Training at home,,,,,,,,,,,,,
1,10,2168,B,74.5546622817958,49.8911677705035,3.72773311408979,0.7836886307341483,A,477.7009999379515,Incorrect,sub_001_day_11_data.csv,0,300,86.0,Training at home,,,,,,,,,,,,,
1,10,2169,B,39.385480310851506,16.81641889910333,1.9692740155425752,0.2641516903655579,B,652.5697000324726,Correct,sub_001_day_11_data.csv,1,300,86.0,Training at home,,,,,,,,,,,,,
1,10,2170,A,42.52494912157023,63.784723125906154,2.126247456078511,1.0019280879180288,A,886.2441000528634,Correct,sub_001_day_11_data.csv,1,300,86.0,Training at home,,,,,,,,,,,,,
1,10,2171,B,71.56552260909542,38.426546989061286,3.578276130454771,0.6036027886182895,B,552.341400180012,Correct,sub_001_day_11_data.csv,1,300,86.0,Training at home,,,,,,,,,,,,,
1,10,2172,B,84.32635733116842,66.19556508369868,4.216317866558422,1.039797504835864,A,614.2946998588741,Incorrect,sub_001_day_11_data.csv,0,300,86.0,Training at home,,,,,,,,,,,,,
1,10,2173,B,57.79017835270509,25.74205300050366,2.889508917635254,0.4043552229735069,B,1171.8982998281715,Correct,sub_001_day_11_data.csv,1,300,86.0,Training at home,,,,,,,,,,,,,
1,10,2174,A,35.72076770138898,50.470762547966615,1.786038385069449,0.792792884208834,B,1325.8990999311209,Incorrect,sub_001_day_11_data.csv,0,300,86.0,Training at home,,,,,,,,,,,,,
1,10,2175,B,61.04109064040081,51.25172864115259,3.0520545320200405,0.8050602709141129,B,1035.9477996826172,Correct,sub_001_day_11_data.csv,1,300,87.0,Training at home,,,,,,,,,,,,,
1,10,2176,B,31.64772314402996,11.14573939308989,1.582386157201498,0.1750768649807877,B,721.4811001904309,Correct,sub_001_day_11_data.csv,1,300,87.0,Training at home,,,,,,,,,,,,,
1,10,2177,B,42.68389397277503,22.034191043301412,2.1341946986387517,0.3461122635471486,B,747.6558000780642,Correct,sub_001_day_11_data.csv,1,300,87.0,Training at home,,,,,,,,,,,,,
1,10,2178,B,48.47273545435485,22.35696284253331,2.4236367727177424,0.351182351113413,B,1448.19049956277,Correct,sub_001_day_11_data.csv,1,300,87.0,Training at home,,,,,,,,,,,,,
1,10,2179,A,62.223855686402445,88.47148028390754,3.111192784320122,1.3897067625606905,A,510.3941997513175,Correct,sub_001_day_11_data.csv,1,300,87.0,Training at home,,,,,,,,,,,,,
1,10,2180,B,68.96350368781302,45.17165545612536,3.448175184390651,0.7095547046572636,B,474.8859000392258,Correct,sub_001_day_11_data.csv,1,300,87.0,Training at home,,,,,,,,,,,,,
1,10,2181,A,50.62252322346561,69.22328292900708,2.5311261611732805,1.0873567855356818,A,563.2274001836777,Correct,sub_001_day_11_data.csv,1,300,87.0,Training at home,,,,,,,,,,,,,
1,10,2182,B,46.90437404005892,20.818174186610307,2.345218702002946,0.327011115429038,B,635.941400192678,Correct,sub_001_day_11_data.csv,1,300,87.0,Training at home,,,,,,,,,,,,,
1,10,2183,B,64.13190547177612,54.20758634669149,3.206595273588806,0.8514907751780019,A,635.0190998055041,Incorrect,sub_001_day_11_data.csv,0,300,87.0,Training at home,,,,,,,,,,,,,
1,10,2184,A,26.132093013731193,44.72448410024748,1.3066046506865598,0.702530553424655,A,549.0888999775052,Correct,sub_001_day_11_data.csv,1,300,87.0,Training at home,,,,,,,,,,,,,
1,10,2185,A,61.10512602625403,79.8216718303589,3.0552563013127014,1.253835889097554,A,3473.9574999548495,Correct,sub_001_day_11_data.csv,1,300,87.0,Training at home,,,,,,,,,,,,,
1,10,2186,B,59.02568016280884,39.50839894241142,2.951284008140442,0.6205964793628723,B,749.3149996735156,Correct,sub_001_day_11_data.csv,1,300,87.0,Training at home,,,,,,,,,,,,,
1,10,2187,A,43.23995261384993,64.80940115194232,2.1619976306924964,1.0180236927124793,B,800.295100081712,Incorrect,sub_001_day_11_data.csv,0,300,87.0,Training at home,,,,,,,,,,,,,
1,10,2188,A,57.25985835464779,73.62004080790209,2.86299291773239,1.1564208967954297,A,1311.474499758333,Correct,sub_001_day_11_data.csv,1,300,87.0,Training at home,,,,,,,,,,,,,
1,10,2189,B,36.09971151593658,25.943478960215536,1.8049855757968292,0.4075192145498724,B,683.6664001457393,Correct,sub_001_day_11_data.csv,1,300,87.0,Training at home,,,,,,,,,,,,,
1,10,2190,B,70.46402484421029,58.29735149546889,3.523201242210514,0.9157326559095348,A,679.6136000193655,Incorrect,sub_001_day_11_data.csv,0,300,87.0,Training at home,,,,,,,,,,,,,
1,10,2191,A,12.05855303466172,31.31290181940844,0.602927651733086,0.4918619115921601,A,509.9005997180939,Correct,sub_001_day_11_data.csv,1,300,87.0,Training at home,,,,,,,,,,,,,
1,10,2192,B,42.980649684756585,20.642630629904676,2.1490324842378294,0.3242536836883809,B,1477.0688000135124,Correct,sub_001_day_11_data.csv,1,300,87.0,Training at home,,,,,,,,,,,,,
1,10,2193,A,39.838979574715374,61.76499376946845,1.9919489787357687,0.9702022533759072,A,879.8742000944912,Correct,sub_001_day_11_data.csv,1,300,87.0,Training at home,,,,,,,,,,,,,
1,10,2194,A,10.179805718853132,34.470223722197034,0.5089902859426566,0.5414570080662541,A,563.5047000832856,Correct,sub_001_day_11_data.csv,1,300,87.0,Training at home,,,,,,,,,,,,,
1,10,2195,B,45.00902357283843,16.914342683684893,2.2504511786419217,0.2656898735768236,B,2838.008599821478,Correct,sub_001_day_11_data.csv,1,300,87.0,Training at home,,,,,,,,,,,,,
1,10,2196,B,62.64011382169669,39.81042683658405,3.132005691084834,0.625340722430432,B,606.2401002272964,Correct,sub_001_day_11_data.csv,1,300,87.0,Training at home,,,,,,,,,,,,,
1,10,2197,A,51.918261711164064,63.0138429608927,2.595913085558203,0.9898191306020072,B,2456.609000451863,Incorrect,sub_001_day_11_data.csv,0,300,87.0,Training at home,,,,,,,,,,,,,
1,10,2198,B,37.80209071621895,19.681684144997263,1.8901045358109472,0.3091591716009905,B,626.0220999829471,Correct,sub_001_day_11_data.csv,1,300,87.0,Training at home,,,,,,,,,,,,,
1,10,2199,A,63.4820967972842,79.0889004210083,3.17410483986421,1.242325542715672,A,700.0297997146845,Correct,sub_001_day_11_data.csv,1,300,87.0,Training at home,,,,,,,,,,,,,
1,10,2200,A,25.14604413203605,35.6580247734422,1.2573022066018025,0.5601149433488443,B,3145.6565000116825,Incorrect,sub_001_day_11_data.csv,0,300,88.0,Training at home,,,,,,,,,,,,,
1,10,2201,B,86.04909995178741,62.27105460317523,4.30245499758937,0.9781514383631208,B,547.8836996480823,Correct,sub_001_day_11_data.csv,1,300,88.0,Training at home,,,,,,,,,,,,,
1,10,2202,B,43.52203348933984,17.173868488976154,2.176101674466992,0.2697664953934237,B,1328.7458000704646,Correct,sub_001_day_11_data.csv,1,300,88.0,Training at home,,,,,,,,,,,,,
1,10,2203,B,54.39273933374692,33.24235234913322,2.719636966687346,0.5221696496404017,B,842.6730995997787,Correct,sub_001_day_11_data.csv,1,300,88.0,Training at home,,,,,,,,,,,,,
1,10,2204,A,42.60978673760659,70.77546625264779,2.1304893368803293,1.111738424168553,A,875.8354000747204,Correct,sub_001_day_11_data.csv,1,300,88.0,Training at home,,,,,,,,,,,,,
1,10,2205,A,28.533364411265104,56.34904465175782,1.426668220563255,0.885128723573828,A,1246.27329967916,Correct,sub_001_day_11_data.csv,1,300,88.0,Training at home,,,,,,,,,,,,,
1,10,2206,B,59.60439052429605,28.14494126681062,2.9802195262148024,0.4420997035976422,B,593.2670002803206,Correct,sub_001_day_11_data.csv,1,300,88.0,Training at home,,,,,,,,,,,,,
1,10,2207,B,49.51667836688066,23.920257624182835,2.475833918344033,0.3757385281205402,B,529.3689002282917,Correct,sub_001_day_11_data.csv,1,300,88.0,Training at home,,,,,,,,,,,,,
1,10,2208,A,36.9167019240243,64.25657187541222,1.845835096201215,1.0093398707432977,A,1154.814699664712,Correct,sub_001_day_11_data.csv,1,300,88.0,Training at home,,,,,,,,,,,,,
1,10,2209,A,59.77754719314488,80.3782914881528,2.988877359657244,1.262579250236399,A,716.3579999469221,Correct,sub_001_day_11_data.csv,1,300,88.0,Training at home,,,,,,,,,,,,,
1,10,2210,A,68.36737665626386,86.06066292339706,3.4183688328131927,1.3518377320160584,A,620.161599945277,Correct,sub_001_day_11_data.csv,1,300,88.0,Training at home,,,,,,,,,,,,,
1,10,2211,B,55.4288138801558,37.087189970216045,2.77144069400779,0.5825642177635989,A,2541.046599857509,Incorrect,sub_001_day_11_data.csv,0,300,88.0,Training at home,,,,,,,,,,,,,
1,10,2212,B,68.09696053290894,36.81342618599105,3.404848026645447,0.578263946296898,B,960.2707996964456,Correct,sub_001_day_11_data.csv,1,300,88.0,Training at home,,,,,,,,,,,,,
1,10,2213,A,46.6316717345763,71.62334414664684,2.331583586728815,1.1250568589831962,A,794.6239998564124,Correct,sub_001_day_11_data.csv,1,300,88.0,Training at home,,,,,,,,,,,,,
1,10,2214,A,42.593342665242055,58.63598658920879,2.1296671332621027,0.9210519235232398,B,684.6015998162329,Incorrect,sub_001_day_11_data.csv,0,300,88.0,Training at home,,,,,,,,,,,,,
1,10,2215,A,22.368165583962117,38.05432727978479,1.1184082791981058,0.5977559750973679,A,664.6896000020206,Correct,sub_001_day_11_data.csv,1,300,88.0,Training at home,,,,,,,,,,,,,
1,10,2216,B,82.82573141026222,56.694133043197766,4.141286570513111,0.8905493593507623,B,804.3243996798992,Correct,sub_001_day_11_data.csv,1,300,88.0,Training at home,,,,,,,,,,,,,
1,10,2217,B,63.838180299677525,30.799966424465616,3.191909014983876,0.4838047412495673,B,527.3510999977589,Correct,sub_001_day_11_data.csv,1,300,88.0,Training at home,,,,,,,,,,,,,
1,10,2218,B,65.0390828053518,40.48961649167952,3.2519541402675896,0.6360094085846426,B,678.4842000342906,Correct,sub_001_day_11_data.csv,1,300,88.0,Training at home,,,,,,,,,,,,,
1,10,2219,B,67.46783747554028,51.58427652422368,3.3733918737770137,0.8102839208462279,B,751.1658002622426,Correct,sub_001_day_11_data.csv,1,300,88.0,Training at home,,,,,,,,,,,,,
1,10,2220,B,47.68746749206346,38.26139401610757,2.384373374603173,0.60100857178554,B,1333.0530999228358,Correct,sub_001_day_11_data.csv,1,300,88.0,Training at home,,,,,,,,,,,,,
1,10,2221,A,39.64336672964347,56.904141267823974,1.9821683364821736,0.8938481608291579,B,841.8252002447844,Incorrect,sub_001_day_11_data.csv,0,300,88.0,Training at home,,,,,,,,,,,,,
1,10,2222,B,72.14251271874639,40.99747607730394,3.60712563593732,0.6439868483009068,B,1149.7734999284148,Correct,sub_001_day_11_data.csv,1,300,88.0,Training at home,,,,,,,,,,,,,
1,10,2223,B,33.99178397182271,22.06422219537029,1.6995891985911356,0.3465839917807408,A,1339.523599948734,Incorrect,sub_001_day_11_data.csv,0,300,88.0,Training at home,,,,,,,,,,,,,
1,10,2224,B,66.7336997521209,45.83324424257804,3.336684987606045,0.7199469170133491,B,1158.9268003590405,Correct,sub_001_day_11_data.csv,1,300,88.0,Training at home,,,,,,,,,,,,,
1,10,2225,A,23.18190195640055,36.76777090225059,1.1590950978200276,0.5775467947769151,B,706.8332000635564,Incorrect,sub_001_day_11_data.csv,0,300,89.0,Training at home,,,,,,,,,,,,,
1,10,2226,A,34.01292934271885,56.81447586150474,1.7006464671359425,0.8924396999202896,B,1169.859599787742,Incorrect,sub_001_day_11_data.csv,0,300,89.0,Training at home,,,,,,,,,,,,,
1,10,2227,A,68.0995990637908,85.71548081135481,3.4049799531895406,1.346415624079346,A,845.3720998950303,Correct,sub_001_day_11_data.csv,1,300,89.0,Training at home,,,,,,,,,,,,,
1,10,2228,B,78.07669860124595,57.36045816781173,3.903834930062297,0.9010159699327098,B,933.884299825877,Correct,sub_001_day_11_data.csv,1,300,89.0,Training at home,,,,,,,,,,,,,
1,10,2229,A,15.874803245487666,40.51770642567959,0.7937401622743834,0.6364506442361149,A,599.1826998069882,Correct,sub_001_day_11_data.csv,1,300,89.0,Training at home,,,,,,,,,,,,,
1,10,2230,B,60.1083283269849,41.49627087476251,3.005416416349245,0.6518218986576302,B,434.1831002384424,Correct,sub_001_day_11_data.csv,1,300,89.0,Training at home,,,,,,,,,,,,,
1,10,2231,A,52.84632698167215,66.74939850000385,2.642316349083608,1.048497099795748,B,568.5320999473333,Incorrect,sub_001_day_11_data.csv,0,300,89.0,Training at home,,,,,,,,,,,,,
1,10,2232,B,37.273596197796536,25.413093972144253,1.8636798098898268,0.3991879466393772,B,2193.504100199789,Correct,sub_001_day_11_data.csv,1,300,89.0,Training at home,,,,,,,,,,,,,
1,10,2233,B,77.74178407862637,57.03598663150558,3.8870892039313185,0.8959191829589179,B,697.4599999375641,Correct,sub_001_day_11_data.csv,1,300,89.0,Training at home,,,,,,,,,,,,,
1,10,2234,A,22.939490596359008,50.565427910738315,1.1469745298179503,0.7942798842499988,A,5483.658500015736,Correct,sub_001_day_11_data.csv,1,300,89.0,Training at home,,,,,,,,,,,,,
1,10,2235,A,44.19269749260898,65.1925535754607,2.209634874630449,1.0240422369071318,A,909.7402999177576,Correct,sub_001_day_11_data.csv,1,300,89.0,Training at home,,,,,,,,,,,,,
1,10,2236,B,41.03596523674059,13.115542064570803,2.0517982618370296,0.2060184529895177,B,644.0110998228192,Correct,sub_001_day_11_data.csv,1,300,89.0,Training at home,,,,,,,,,,,,,
1,10,2237,A,21.449339901417176,45.36106640497928,1.0724669950708587,0.7125299648844083,A,619.9403996579349,Correct,sub_001_day_11_data.csv,1,300,89.0,Training at home,,,,,,,,,,,,,
1,10,2238,A,18.40469994274884,39.03429645315021,0.920234997137442,0.6131492948763141,B,1796.8799001537263,Incorrect,sub_001_day_11_data.csv,0,300,89.0,Training at home,,,,,,,,,,,,,
1,10,2239,A,39.469263692363555,67.80610448498133,1.9734631846181776,1.0650957985927962,B,680.3334001451731,Incorrect,sub_001_day_11_data.csv,0,300,89.0,Training at home,,,,,,,,,,,,,
1,10,2240,B,66.34222957445397,53.51585535998862,3.3171114787226985,0.8406250902475711,B,945.4315002076328,Correct,sub_001_day_11_data.csv,1,300,89.0,Training at home,,,,,,,,,,,,,
1,10,2241,A,12.302424690157704,37.37242964009267,0.6151212345078853,0.5870447520205829,A,514.741700142622,Correct,sub_001_day_11_data.csv,1,300,89.0,Training at home,,,,,,,,,,,,,
1,10,2242,A,26.436343129630128,42.80533302752059,1.3218171564815062,0.6723845988686161,B,790.4428001493216,Incorrect,sub_001_day_11_data.csv,0,300,89.0,Training at home,,,,,,,,,,,,,
1,10,2243,A,36.11425785689428,62.233807942409314,1.805712892844714,0.977566369183956,A,851.6524997539818,Correct,sub_001_day_11_data.csv,1,300,89.0,Training at home,,,,,,,,,,,,,
1,10,2244,B,61.25020790480849,31.843761149684163,3.0625103952404245,0.5002006304525792,B,1643.8875999301672,Correct,sub_001_day_11_data.csv,1,300,89.0,Training at home,,,,,,,,,,,,,
1,10,2245,A,66.84526576195489,86.99613487908348,3.3422632880977448,1.3665320911341772,A,796.3708001188934,Correct,sub_001_day_11_data.csv,1,300,89.0,Training at home,,,,,,,,,,,,,
1,10,2246,A,54.57577381126536,76.56293876991963,2.7287886905632677,1.2026478298841232,A,682.9189001582563,Correct,sub_001_day_11_data.csv,1,300,89.0,Training at home,,,,,,,,,,,,,
1,10,2247,A,35.71082005521532,55.2912787304578,1.785541002760766,0.868513375335959,B,805.774999782443,Incorrect,sub_001_day_11_data.csv,0,300,89.0,Training at home,,,,,,,,,,,,,
1,10,2248,B,38.16111770017173,13.157796177853571,1.9080558850085865,0.2066821790488832,B,1857.3543997481463,Correct,sub_001_day_11_data.csv,1,300,89.0,Training at home,,,,,,,,,,,,,
1,10,2249,A,37.062899608471874,61.182786358635305,1.8531449804235935,0.9610569607522124,A,701.7969996668398,Correct,sub_001_day_11_data.csv,1,300,89.0,Training at home,,,,,,,,,,,,,
1,10,2250,A,21.080524983612527,39.863235255025224,1.0540262491806265,0.6261702351275444,B,780.6898998096585,Incorrect,sub_001_day_11_data.csv,0,300,90.0,Training at home,,,,,,,,,,,,,
1,10,2251,A,34.99118229484141,50.335072828511734,1.7495591147420704,0.7906614750797983,B,905.148200225085,Incorrect,sub_001_day_11_data.csv,0,300,90.0,Training at home,,,,,,,,,,,,,
1,10,2252,B,60.179291456213456,29.191600769629012,3.008964572810673,0.4585405926219633,B,1531.023600138724,Correct,sub_001_day_11_data.csv,1,300,90.0,Training at home,,,,,,,,,,,,,
1,10,2253,B,46.57778589731264,31.80474194988318,2.328889294865632,0.4995877182953605,B,1551.6929998993874,Correct,sub_001_day_11_data.csv,1,300,90.0,Training at home,,,,,,,,,,,,,
1,10,2254,A,59.36551893511509,83.19653411386571,2.9682759467557545,1.3068481018812657,A,469.2258001305163,Correct,sub_001_day_11_data.csv,1,300,90.0,Training at home,,,,,,,,,,,,,
1,10,2255,B,68.3930354222403,36.74211932364983,3.419651771112015,0.5771438607224895,B,3483.720500022173,Correct,sub_001_day_11_data.csv,1,300,90.0,Training at home,,,,,,,,,,,,,
1,10,2256,B,65.50998817775438,40.93555749171534,3.275499408887719,0.6430142334328777,B,2091.032600030303,Correct,sub_001_day_11_data.csv,1,300,90.0,Training at home,,,,,,,,,,,,,
1,10,2257,A,44.826268097486086,59.1430840936517,2.241313404874304,0.9290173924962976,B,784.4827002845705,Incorrect,sub_001_day_11_data.csv,0,300,90.0,Training at home,,,,,,,,,,,,,
1,10,2258,A,22.294389996968626,46.171711016149416,1.114719499848431,0.7252635406600295,A,2589.200099930167,Correct,sub_001_day_11_data.csv,1,300,90.0,Training at home,,,,,,,,,,,,,
1,10,2259,A,57.172707094864464,81.50311923133225,2.858635354743223,1.2802480031090322,A,702.2728999145329,Correct,sub_001_day_11_data.csv,1,300,90.0,Training at home,,,,,,,,,,,,,
1,10,2260,A,24.99462064220146,41.46754227344523,1.249731032110073,0.6513706308433986,B,838.2550999522209,Incorrect,sub_001_day_11_data.csv,0,300,90.0,Training at home,,,,,,,,,,,,,
1,10,2261,A,41.679345471627656,58.70211073639357,2.083967273581383,0.9220905991983428,B,9837.1269996278,Incorrect,sub_001_day_11_data.csv,0,300,90.0,Training at home,,,,,,,,,,,,,
1,10,2262,A,16.330685522507572,42.08519008385074,0.8165342761253785,0.6610726199617775,A,2284.0857999399304,Correct,sub_001_day_11_data.csv,1,300,90.0,Training at home,,,,,,,,,,,,,
1,10,2263,A,65.97008922356059,79.79721748387308,3.2985044611780294,1.2534517611212137,A,20458.479799795896,Correct,sub_001_day_11_data.csv,1,300,90.0,Training at home,,,,,,,,,,,,,
1,10,2264,B,59.5052810857985,46.96876940152675,2.975264054289925,0.7377837044999475,B,4813.223899807781,Correct,sub_001_day_11_data.csv,1,300,90.0,Training at home,,,,,,,,,,,,,
1,10,2265,A,47.600395641508705,70.35751721779839,2.380019782075435,1.105173296081264,A,2688.025100156665,Correct,sub_001_day_11_data.csv,1,300,90.0,Training at home,,,,,,,,,,,,,
1,10,2266,B,62.17163436778397,38.785523649733456,3.108581718389199,0.609241580818179,B,1040.315399877727,Correct,sub_001_day_11_data.csv,1,300,90.0,Training at home,,,,,,,,,,,,,
1,10,2267,B,59.23673914062767,43.9588024874035,2.961836957031384,0.6905032547751578,B,6920.149100013077,Correct,sub_001_day_11_data.csv,1,300,90.0,Training at home,,,,,,,,,,,,,
1,10,2268,A,58.74851593371212,83.35577834935805,2.937425796685606,1.309349504483012,A,712.3534004203975,Correct,sub_001_day_11_data.csv,1,300,90.0,Training at home,,,,,,,,,,,,,
1,10,2269,B,72.82691549436142,44.52466168967008,3.6413457747180704,0.6993917503391922,B,769.1387999802828,Correct,sub_001_day_11_data.csv,1,300,90.0,Training at home,,,,,,,,,,,,,
1,10,2270,B,41.31124840531065,23.30936308199429,2.0655624202655325,0.366142619091252,B,17187.469399999827,Correct,sub_001_day_11_data.csv,1,300,90.0,Training at home,,,,,,,,,,,,,
1,10,2271,A,50.09888051098594,74.53472983510346,2.504944025549297,1.170788798436305,A,651.9193998537958,Correct,sub_001_day_11_data.csv,1,300,90.0,Training at home,,,,,,,,,,,,,
1,10,2272,B,62.95480271345007,40.06682792024225,3.147740135672503,0.6293682612343973,B,866.4372996427119,Correct,sub_001_day_11_data.csv,1,300,90.0,Training at home,,,,,,,,,,,,,
1,10,2273,B,59.46115313980915,48.23366473638688,2.9730576569904574,0.7576526339577304,B,677.6105999015272,Correct,sub_001_day_11_data.csv,1,300,90.0,Training at home,,,,,,,,,,,,,
1,10,2274,B,54.76797086124957,30.89988273738145,2.7383985430624787,0.4853742230227181,B,1070.744900032878,Correct,sub_001_day_11_data.csv,1,300,90.0,Training at home,,,,,,,,,,,,,
1,10,2275,B,87.9452300423778,69.63085863354493,4.397261502118891,1.093758969731471,B,1735.6771999038756,Correct,sub_001_day_11_data.csv,1,300,91.0,Training at home,,,,,,,,,,,,,
1,10,2276,B,70.61743784123408,54.44697726911654,3.5308718920617035,0.855251118994135,B,979.3426003307104,Correct,sub_001_day_11_data.csv,1,300,91.0,Training at home,,,,,,,,,,,,,
1,10,2277,A,46.513832193734586,56.81421229822623,2.325691609686729,0.892435559877992,B,2201.2824998237193,Incorrect,sub_001_day_11_data.csv,0,300,91.0,Training at home,,,,,,,,,,,,,
1,10,2278,A,26.748378628587016,52.551942684943896,1.3374189314293508,0.8254839853544581,A,477.0009000785649,Correct,sub_001_day_11_data.csv,1,300,91.0,Training at home,,,,,,,,,,,,,
1,10,2279,B,64.63665287184546,49.25747838854393,3.2318326435922726,0.7737346611990381,B,790.6777998432517,Correct,sub_001_day_11_data.csv,1,300,91.0,Training at home,,,,,,,,,,,,,
1,10,2280,A,27.342569642078875,58.08600376421771,1.3671284821039438,0.9124128135102773,A,1069.5759002119305,Correct,sub_001_day_11_data.csv,1,300,91.0,Training at home,,,,,,,,,,,,,
1,10,2281,A,22.29391734453696,35.12097991242494,1.114695867226848,0.5516790623987444,B,1818.8822004012764,Incorrect,sub_001_day_11_data.csv,0,300,91.0,Training at home,,,,,,,,,,,,,
1,10,2282,B,34.838986226810924,19.064712629625056,1.7419493113405462,0.2994678057001531,B,2285.4410000145435,Correct,sub_001_day_11_data.csv,1,300,91.0,Training at home,,,,,,,,,,,,,
1,10,2283,B,49.44291582739764,28.51437707278001,2.4721457913698823,0.4479027876676745,B,1968.8478000462055,Correct,sub_001_day_11_data.csv,1,300,91.0,Training at home,,,,,,,,,,,,,
1,10,2284,B,36.31253001534252,20.289083060285737,1.815626500767126,0.3187001714513339,B,2987.365999724716,Correct,sub_001_day_11_data.csv,1,300,91.0,Training at home,,,,,,,,,,,,,
1,10,2285,A,57.50730186129198,81.53964756001926,2.875365093064599,1.280821788754287,A,854.974300134927,Correct,sub_001_day_11_data.csv,1,300,91.0,Training at home,,,,,,,,,,,,,
1,10,2286,A,41.64318916097088,51.85841024728842,2.082159458048544,0.8145900032986347,B,751.6804002225399,Incorrect,sub_001_day_11_data.csv,0,300,91.0,Training at home,,,,,,,,,,,,,
1,10,2287,B,52.38410640971497,21.729345302597928,2.6192053204857486,0.3413237578497877,B,1473.5066001303494,Correct,sub_001_day_11_data.csv,1,300,91.0,Training at home,,,,,,,,,,,,,
1,10,2288,B,45.76381265953828,35.54914483308387,2.288190632976914,0.5584046612450793,B,3536.14280000329,Correct,sub_001_day_11_data.csv,1,300,91.0,Training at home,,,,,,,,,,,,,
1,10,2289,A,40.343871371013726,64.36138939639488,2.0171935685506863,1.0109863405127308,A,3800.9816999547184,Correct,sub_001_day_11_data.csv,1,300,91.0,Training at home,,,,,,,,,,,,,
1,10,2290,B,48.87247661859697,31.05649740365999,2.4436238309298486,0.4878343204478435,B,578.1286000274122,Correct,sub_001_day_11_data.csv,1,300,91.0,Training at home,,,,,,,,,,,,,
1,10,2291,B,42.676962763578075,17.272251717605155,2.133848138178904,0.2713118955349102,B,4096.255700103939,Correct,sub_001_day_11_data.csv,1,300,91.0,Training at home,,,,,,,,,,,,,
1,10,2292,B,71.7780196611705,50.73643843630428,3.588900983058525,0.7969661113040217,A,2734.630800317973,Incorrect,sub_001_day_11_data.csv,0,300,91.0,Training at home,,,,,,,,,,,,,
1,10,2293,A,30.2084142109536,45.09518599453383,1.51042071054768,0.708353525163464,B,1448.032199870795,Incorrect,sub_001_day_11_data.csv,0,300,91.0,Training at home,,,,,,,,,,,,,
1,10,2294,B,81.8703456645882,63.26286567974947,4.09351728322941,0.993730770322694,B,3972.8612997569144,Correct,sub_001_day_11_data.csv,1,300,91.0,Training at home,,,,,,,,,,,,,
1,10,2295,A,24.31034746332347,41.03279213760682,1.2155173731661737,0.644541591678913,B,2197.4227000027895,Incorrect,sub_001_day_11_data.csv,0,300,91.0,Training at home,,,,,,,,,,,,,
1,10,2296,A,50.09574412095848,81.28937699587337,2.504787206047924,1.2768905479256345,A,796.5735998004675,Correct,sub_001_day_11_data.csv,1,300,91.0,Training at home,,,,,,,,,,,,,
1,10,2297,B,52.43149163200931,34.48409831633399,2.6215745816004654,0.541674949681315,B,5183.992399834096,Correct,sub_001_day_11_data.csv,1,300,91.0,Training at home,,,,,,,,,,,,,
1,10,2298,A,21.801917937229963,46.78250355253723,1.090095896861498,0.7348578473859468,A,1302.7320001274347,Correct,sub_001_day_11_data.csv,1,300,91.0,Training at home,,,,,,,,,,,,,
1,10,2299,B,61.51476040857258,32.46364759698131,3.075738020428629,0.5099377839970222,B,1644.4112001918256,Correct,sub_001_day_11_data.csv,1,300,91.0,Training at home,,,,,,,,,,,,,
1,10,2300,B,71.36374526763278,58.719192310888744,3.568187263381639,0.9223589159430716,A,1504.7169998288157,Incorrect,sub_001_day_11_data.csv,0,300,92.0,Training at home,,,,,,,,,,,,,
1,10,2301,A,27.74895061747931,42.7563992016767,1.387447530873965,0.6716159481297002,A,742.6666999235749,Correct,sub_001_day_11_data.csv,1,300,92.0,Training at home,,,,,,,,,,,,,
1,10,2302,B,88.44158352430892,62.980002401121936,4.422079176215447,0.989287564332161,B,868.15349990502,Correct,sub_001_day_11_data.csv,1,300,92.0,Training at home,,,,,,,,,,,,,
1,10,2303,B,82.04781381137543,65.02329025201473,4.102390690568772,1.0213834548398315,B,1402.9467003419995,Correct,sub_001_day_11_data.csv,1,300,92.0,Training at home,,,,,,,,,,,,,
1,10,2304,B,62.49508309648888,43.64229482643633,3.124754154824444,0.6855315640626611,B,2517.177199944854,Correct,sub_001_day_11_data.csv,1,300,92.0,Training at home,,,,,,,,,,,,,
1,10,2305,A,41.411294033948394,71.77555978404021,2.07056470169742,1.1274478566241788,A,1351.0838001966476,Correct,sub_001_day_11_data.csv,1,300,92.0,Training at home,,,,,,,,,,,,,
1,10,2306,B,60.06046885053211,52.49894261169192,3.003023442526606,0.8246514621506175,B,2621.327499859035,Correct,sub_001_day_11_data.csv,1,300,92.0,Training at home,,,,,,,,,,,,,
1,10,2307,A,56.46607368037843,64.94083966328049,2.8233036840189216,1.0200883240205734,A,7920.317300129682,Correct,sub_001_day_11_data.csv,1,300,92.0,Training at home,,,,,,,,,,,,,
1,10,2308,B,51.436770640509,26.316455082750903,2.5718385320254504,0.4133779097824801,B,1659.8282996565104,Correct,sub_001_day_11_data.csv,1,300,92.0,Training at home,,,,,,,,,,,,,
1,10,2309,B,58.222600087279694,41.03128238029946,2.9111300043639847,0.6445178764665855,B,2802.887400146574,Correct,sub_001_day_11_data.csv,1,300,92.0,Training at home,,,,,,,,,,,,,
1,10,2310,A,17.93324564578155,35.58891605380235,0.8966622822890775,0.5590293861192465,A,840.3071998618543,Correct,sub_001_day_11_data.csv,1,300,92.0,Training at home,,,,,,,,,,,,,
1,10,2311,B,50.231028843269456,40.594773715611026,2.511551442163473,0.6376612143955183,B,1658.9788999408484,Correct,sub_001_day_11_data.csv,1,300,92.0,Training at home,,,,,,,,,,,,,
1,10,2312,B,74.03209880476172,51.79129414651432,3.701604940238086,0.8135357460529872,B,2577.449199743569,Correct,sub_001_day_11_data.csv,1,300,92.0,Training at home,,,,,,,,,,,,,
1,10,2313,A,42.879084890755706,66.44097481170785,2.1439542445377855,1.0436523918290292,A,1052.4731995537877,Correct,sub_001_day_11_data.csv,1,300,92.0,Training at home,,,,,,,,,,,,,
1,10,2314,A,51.62323718358372,77.8289966791297,2.581161859179186,1.222535021017091,A,720.3987999819219,Correct,sub_001_day_11_data.csv,1,300,92.0,Training at home,,,,,,,,,,,,,
1,10,2315,B,39.74001957275572,21.227823558564268,1.987000978637786,0.3334458727164292,B,3026.0870000347495,Correct,sub_001_day_11_data.csv,1,300,92.0,Training at home,,,,,,,,,,,,,
1,10,2316,A,15.92504903068978,45.093085822532,0.796252451534489,0.708320535738803,A,791.2356001324952,Correct,sub_001_day_11_data.csv,1,300,92.0,Training at home,,,,,,,,,,,,,
1,10,2317,B,51.20061711469782,39.762191210832675,2.560030855734891,0.6245830389929229,B,1513.003499712795,Correct,sub_001_day_11_data.csv,1,300,92.0,Training at home,,,,,,,,,,,,,
1,10,2318,A,26.48383826604006,52.75995754563613,1.324191913302003,0.8287514751453992,A,4500.146499834955,Correct,sub_001_day_11_data.csv,1,300,92.0,Training at home,,,,,,,,,,,,,
1,10,2319,B,69.89799531674807,55.77334050115101,3.494899765837403,0.8760855839228905,B,2463.269899599254,Correct,sub_001_day_11_data.csv,1,300,92.0,Training at home,,,,,,,,,,,,,
1,10,2320,A,51.3162860420548,69.77009180904369,2.56581430210274,1.0959460393378853,A,4267.457200214267,Correct,sub_001_day_11_data.csv,1,300,92.0,Training at home,,,,,,,,,,,,,
1,10,2321,B,71.69110731359996,53.67555439943203,3.5845553656799978,0.843133636893075,B,1742.2423004172742,Correct,sub_001_day_11_data.csv,1,300,92.0,Training at home,,,,,,,,,,,,,
1,10,2322,A,53.64336047091984,75.99209391638121,2.6821680235459917,1.193681019893044,A,2419.22440007329,Correct,sub_001_day_11_data.csv,1,300,92.0,Training at home,,,,,,,,,,,,,
1,10,2323,A,32.00359981318129,56.94073036368282,1.6001799906590646,0.894422901002916,B,3097.0498002134264,Incorrect,sub_001_day_11_data.csv,0,300,92.0,Training at home,,,,,,,,,,,,,
1,10,2324,A,37.83227707489733,48.18087464208918,1.8916138537448663,0.7568234090955906,B,892.6893998868763,Incorrect,sub_001_day_11_data.csv,0,300,92.0,Training at home,,,,,,,,,,,,,
1,10,2325,B,49.27357589982189,32.4574044681717,2.4636787949910945,0.5098397171590038,A,852.54509979859,Incorrect,sub_001_day_11_data.csv,0,300,93.0,Training at home,,,,,,,,,,,,,
1,10,2326,A,41.748987364388555,68.27421890171253,2.0874493682194277,1.0724489226560074,A,590.2497000060976,Correct,sub_001_day_11_data.csv,1,300,93.0,Training at home,,,,,,,,,,,,,
1,10,2327,A,37.69498871486239,48.344955003893205,1.8847494357431196,0.7594007773917999,A,1768.0021999403834,Correct,sub_001_day_11_data.csv,1,300,93.0,Training at home,,,,,,,,,,,,,
1,10,2328,A,16.511337435208443,43.45594983944997,0.8255668717604222,0.6826044638519129,B,748.8628998398781,Incorrect,sub_001_day_11_data.csv,0,300,93.0,Training at home,,,,,,,,,,,,,
1,10,2329,A,46.39824537623435,69.56911005582964,2.3199122688117173,1.092789025340871,A,967.0029999688268,Correct,sub_001_day_11_data.csv,1,300,93.0,Training at home,,,,,,,,,,,,,
1,10,2330,B,48.146078780529336,32.811516051435866,2.407303939026467,0.5154020889016725,B,528.3150002360344,Correct,sub_001_day_11_data.csv,1,300,93.0,Training at home,,,,,,,,,,,,,
1,10,2331,A,50.2214038168202,57.25412032377842,2.5110701908410102,0.8993456189846418,A,640.5949997715652,Correct,sub_001_day_11_data.csv,1,300,93.0,Training at home,,,,,,,,,,,,,
1,10,2332,A,12.04906021487776,34.89511080446543,0.6024530107438879,0.548131118747552,A,831.9601998664439,Correct,sub_001_day_11_data.csv,1,300,93.0,Training at home,,,,,,,,,,,,,
1,10,2333,B,56.77764943500843,25.028580427137893,2.8388824717504213,0.3931480219983884,B,845.5334999598563,Correct,sub_001_day_11_data.csv,1,300,93.0,Training at home,,,,,,,,,,,,,
1,10,2334,A,56.44381481788323,75.57039096684665,2.8221907408941616,1.1870569254517696,A,1543.045200407505,Correct,sub_001_day_11_data.csv,1,300,93.0,Training at home,,,,,,,,,,,,,
1,10,2335,A,50.72637111722,72.2249209659911,2.536318555861,1.1345064055643053,A,518.1702002882957,Correct,sub_001_day_11_data.csv,1,300,93.0,Training at home,,,,,,,,,,,,,
1,10,2336,A,32.42902761068263,60.038097890452235,1.6214513805341315,0.943076236340748,B,881.4675998874009,Incorrect,sub_001_day_11_data.csv,0,300,93.0,Training at home,,,,,,,,,,,,,
1,10,2337,A,67.88476678351522,88.2542381324271,3.394238339175761,1.386294330824986,A,808.362300042063,Correct,sub_001_day_11_data.csv,1,300,93.0,Training at home,,,,,,,,,,,,,
1,10,2338,B,48.92220436609331,21.926932053559575,2.4461102183046655,0.3444274432761265,B,900.0514000654221,Correct,sub_001_day_11_data.csv,1,300,93.0,Training at home,,,,,,,,,,,,,
1,10,2339,B,44.906161970360266,32.66094547337045,2.2453080985180134,0.513036931792187,B,1447.4245999008417,Correct,sub_001_day_11_data.csv,1,300,93.0,Training at home,,,,,,,,,,,,,
1,10,2340,B,79.45343086971707,65.85919640801671,3.9726715434858537,1.034513838033763,A,470.6300999969244,Incorrect,sub_001_day_11_data.csv,0,300,93.0,Training at home,,,,,,,,,,,,,
1,10,2341,A,59.33724201934932,71.6921182057422,2.9668621009674663,1.126137159377254,A,2408.658499829471,Correct,sub_001_day_11_data.csv,1,300,93.0,Training at home,,,,,,,,,,,,,
1,10,2342,A,49.19005013524211,75.60294886015822,2.4595025067621052,1.1875683436439894,A,749.7689998708665,Correct,sub_001_day_11_data.csv,1,300,93.0,Training at home,,,,,,,,,,,,,
1,10,2343,A,53.17413639127667,76.9749813970877,2.6587068195638337,1.2091201803365086,B,943.0219000205398,Incorrect,sub_001_day_11_data.csv,0,300,93.0,Training at home,,,,,,,,,,,,,
1,10,2344,B,54.04940481276031,38.0424890171017,2.702470240638015,0.5975700201019856,B,1363.0102998577058,Correct,sub_001_day_11_data.csv,1,300,93.0,Training at home,,,,,,,,,,,,,
1,10,2345,A,53.43870715070977,77.83403935615272,2.6719353575354883,1.222614231202541,A,730.7269000448287,Correct,sub_001_day_11_data.csv,1,300,93.0,Training at home,,,,,,,,,,,,,
1,10,2346,A,63.61848299445689,81.53525949189051,3.180924149722845,1.2807528611413033,A,1724.3026997894049,Correct,sub_001_day_11_data.csv,1,300,93.0,Training at home,,,,,,,,,,,,,
1,10,2347,A,36.37674467334926,54.74022870737008,1.818837233667463,0.8598575018144946,B,683.022600132972,Incorrect,sub_001_day_11_data.csv,0,300,93.0,Training at home,,,,,,,,,,,,,
1,10,2348,A,21.793643425442013,39.09726242004903,1.0896821712721008,0.6141383619714916,B,2252.171500120312,Incorrect,sub_001_day_11_data.csv,0,300,93.0,Training at home,,,,,,,,,,,,,
1,10,2349,A,55.86167155288076,68.34212069966448,2.793083577644038,1.0735155216040644,A,2554.3581997044384,Correct,sub_001_day_11_data.csv,1,300,93.0,Training at home,,,,,,,,,,,,,
1,10,2350,B,42.63256115934916,31.534167642565563,2.131628057967458,0.4953375470147647,B,871.9695000909269,Correct,sub_001_day_11_data.csv,1,300,94.0,Training at home,,,,,,,,,,,,,
1,10,2351,B,81.26185169451227,56.407077434292034,4.063092584725614,0.8860403003902123,B,546.3741002604365,Correct,sub_001_day_11_data.csv,1,300,94.0,Training at home,,,,,,,,,,,,,
1,10,2352,A,36.563188444371946,68.19397850466348,1.8281594222185973,1.0711885094465552,A,1459.745700005442,Correct,sub_001_day_11_data.csv,1,300,94.0,Training at home,,,,,,,,,,,,,
1,10,2353,B,77.01217969172725,56.436533079101466,3.850608984586363,0.8865029885769125,B,632.6017999090254,Correct,sub_001_day_11_data.csv,1,300,94.0,Training at home,,,,,,,,,,,,,
1,10,2354,B,51.03650286265969,20.428230986551466,2.5518251431329846,0.3208859019659273,B,1064.8757996968925,Correct,sub_001_day_11_data.csv,1,300,94.0,Training at home,,,,,,,,,,,,,
1,10,2355,A,15.985736209409904,30.70760618694753,0.7992868104704952,0.4823539500312142,A,707.3042001575232,Correct,sub_001_day_11_data.csv,1,300,94.0,Training at home,,,,,,,,,,,,,
1,10,2356,B,70.73321234567814,57.958978130261535,3.5366606172839066,0.9104174995180055,B,479.4215001165867,Correct,sub_001_day_11_data.csv,1,300,94.0,Training at home,,,,,,,,,,,,,
1,10,2357,A,46.02331190206256,62.80216382307023,2.301165595103128,0.9864940824805004,A,588.8781002722681,Correct,sub_001_day_11_data.csv,1,300,94.0,Training at home,,,,,,,,,,,,,
1,10,2358,A,51.04162654592173,68.50568398704732,2.5520813272960865,1.0760847677142589,A,566.1987001076341,Correct,sub_001_day_11_data.csv,1,300,94.0,Training at home,,,,,,,,,,,,,
1,10,2359,B,42.400320580195135,29.265189255701724,2.120016029009757,0.4596965178581374,B,1205.072300042957,Correct,sub_001_day_11_data.csv,1,300,94.0,Training at home,,,,,,,,,,,,,
1,10,2360,B,31.840695624921313,15.875928060369606,1.5920347812460656,0.249378494816886,A,602.3726002313197,Incorrect,sub_001_day_11_data.csv,0,300,94.0,Training at home,,,,,,,,,,,,,
1,10,2361,A,63.81837784249512,83.2530734375941,3.190918892124756,1.307736219501586,A,834.8887003958225,Correct,sub_001_day_11_data.csv,1,300,94.0,Training at home,,,,,,,,,,,,,
1,10,2362,B,55.982677537366406,41.458117358259685,2.7991338768683205,0.6512225846218604,B,1669.888800010085,Correct,sub_001_day_11_data.csv,1,300,94.0,Training at home,,,,,,,,,,,,,
1,10,2363,A,30.816451068263294,50.25749362641184,1.5408225534131648,0.7894428638228564,B,1726.2383000925183,Incorrect,sub_001_day_11_data.csv,0,300,94.0,Training at home,,,,,,,,,,,,,
1,10,2364,A,53.40664758074643,81.19294037297061,2.6703323790373212,1.275375724995393,A,518.4602998197079,Correct,sub_001_day_11_data.csv,1,300,94.0,Training at home,,,,,,,,,,,,,
1,10,2365,B,60.565755123116986,32.1445226357087,3.0282877561558497,0.5049249808274663,B,1463.4978999383748,Correct,sub_001_day_11_data.csv,1,300,94.0,Training at home,,,,,,,,,,,,,
1,10,2366,A,22.774720146269026,39.39053099941685,1.1387360073134514,0.618745014043845,A,512.0692001655698,Correct,sub_001_day_11_data.csv,1,300,94.0,Training at home,,,,,,,,,,,,,
1,10,2367,B,55.0383849082509,23.258565334983658,2.751919245412545,0.3653446899471144,A,695.72259997949,Incorrect,sub_001_day_11_data.csv,0,300,94.0,Training at home,,,,,,,,,,,,,
1,10,2368,B,43.166492517974135,21.440712400055315,2.1583246258987066,0.3367899228187268,B,1676.438600290567,Correct,sub_001_day_11_data.csv,1,300,94.0,Training at home,,,,,,,,,,,,,
1,10,2369,B,63.81336036727325,48.91167900713506,3.1906680183636627,0.768302857217788,A,585.8515002764761,Incorrect,sub_001_day_11_data.csv,0,300,94.0,Training at home,,,,,,,,,,,,,
1,10,2370,B,55.78515665150638,40.83614413373759,2.7892578325753186,0.6414526520574196,B,546.5661999769509,Correct,sub_001_day_11_data.csv,1,300,94.0,Training at home,,,,,,,,,,,,,
1,10,2371,A,58.19481374423174,83.72503435896645,2.909740687211587,1.31514976431841,A,1267.3728000372648,Correct,sub_001_day_11_data.csv,1,300,94.0,Training at home,,,,,,,,,,,,,
1,10,2372,A,31.955484153258062,47.85642057335596,1.5977742076629031,0.7517268965017926,B,1209.6673999913037,Incorrect,sub_001_day_11_data.csv,0,300,94.0,Training at home,,,,,,,,,,,,,
1,10,2373,A,43.26879310985465,56.44335111719934,2.1634396554927324,0.8866100860689134,B,766.6821996681392,Incorrect,sub_001_day_11_data.csv,0,300,94.0,Training at home,,,,,,,,,,,,,
1,10,2374,A,53.38222283916607,71.26211522335834,2.6691111419583033,1.1193826883248594,A,586.6434001363814,Correct,sub_001_day_11_data.csv,1,300,94.0,Training at home,,,,,,,,,,,,,
1,10,2375,A,52.91199410435877,77.99876946342286,2.6455997052179385,1.2252018056766658,A,849.1410999558866,Correct,sub_001_day_11_data.csv,1,300,95.0,Training at home,,,,,,,,,,,,,
1,10,2376,A,55.45716358336981,80.01780041168244,2.7728581791684905,1.2569166696487792,A,1205.0274997018278,Correct,sub_001_day_11_data.csv,1,300,95.0,Training at home,,,,,,,,,,,,,
1,10,2377,B,55.273798198627574,46.95149265291204,2.7636899099313785,0.737512321967318,B,682.2709003463387,Correct,sub_001_day_11_data.csv,1,300,95.0,Training at home,,,,,,,,,,,,,
1,10,2378,A,62.69062848180046,74.92423577770028,3.1345314240900226,1.1769071434752638,A,685.5887998826802,Correct,sub_001_day_11_data.csv,1,300,95.0,Training at home,,,,,,,,,,,,,
1,10,2379,A,22.45243301190844,47.62485423580371,1.122621650595422,0.7480894609774283,B,1011.7780999280512,Incorrect,sub_001_day_11_data.csv,0,300,95.0,Training at home,,,,,,,,,,,,,
1,10,2380,B,72.4666192456935,58.78085723508049,3.623330962284675,0.9233275463071964,B,639.4025003537536,Correct,sub_001_day_11_data.csv,1,300,95.0,Training at home,,,,,,,,,,,,,
1,10,2381,A,26.117987565249955,39.63319558263812,1.305899378262498,0.6225567804035168,B,2707.417100202292,Incorrect,sub_001_day_11_data.csv,0,300,95.0,Training at home,,,,,,,,,,,,,
1,10,2382,A,59.39871151621425,71.77132804178044,2.9699355758107124,1.1273813845722027,A,13828.446599654852,Correct,sub_001_day_11_data.csv,1,300,95.0,Training at home,,,,,,,,,,,,,
1,10,2383,A,50.86274079224361,65.84139407485668,2.543137039612181,1.0342341996384017,A,28638.628600165248,Correct,sub_001_day_11_data.csv,1,300,95.0,Training at home,,,,,,,,,,,,,
1,10,2384,B,56.22039190543136,38.4689185818875,2.811019595271568,0.6042683600420082,B,699.8733999207616,Correct,sub_001_day_11_data.csv,1,300,95.0,Training at home,,,,,,,,,,,,,
1,10,2385,B,63.82596127063816,41.40659444169628,3.1912980635319084,0.6504132645410249,B,1450.464100111276,Correct,sub_001_day_11_data.csv,1,300,95.0,Training at home,,,,,,,,,,,,,
1,10,2386,A,20.043444020784207,46.56540403335833,1.0021722010392105,0.7314476561131953,A,578.8902002386749,Correct,sub_001_day_11_data.csv,1,300,95.0,Training at home,,,,,,,,,,,,,
1,10,2387,B,78.08880056161432,57.7693273412018,3.904440028080716,0.9074384718897178,B,485.16569985076785,Correct,sub_001_day_11_data.csv,1,300,95.0,Training at home,,,,,,,,,,,,,
1,10,2388,B,69.69470489201835,54.093684369603736,3.484735244600918,0.8497016071057606,B,489.58919988945127,Correct,sub_001_day_11_data.csv,1,300,95.0,Training at home,,,,,,,,,,,,,
1,10,2389,A,28.946815966419237,61.22879126512213,1.447340798320962,0.9617796041334528,B,547.6631997153163,Incorrect,sub_001_day_11_data.csv,0,300,95.0,Training at home,,,,,,,,,,,,,
1,10,2390,B,38.811044341492234,19.839938779671147,1.9405522170746117,0.3116450295894306,B,19430.23749999702,Correct,sub_001_day_11_data.csv,1,300,95.0,Training at home,,,,,,,,,,,,,
1,10,2391,A,60.08841626995812,85.09464655733915,3.0044208134979056,1.3366635824217832,A,603.3489997498691,Correct,sub_001_day_11_data.csv,1,300,95.0,Training at home,,,,,,,,,,,,,
1,10,2392,B,40.64103626814421,19.97134506200021,2.0320518134072105,0.3137091546454332,B,1693.444499745965,Correct,sub_001_day_11_data.csv,1,300,95.0,Training at home,,,,,,,,,,,,,
1,10,2393,B,51.227711181113335,23.806784265779925,2.561385559055667,0.3739560927748564,B,599.7568001039326,Correct,sub_001_day_11_data.csv,1,300,95.0,Training at home,,,,,,,,,,,,,
1,10,2394,B,42.44997185406834,27.228282654833595,2.122498592703417,0.427700863791458,B,2795.315700117498,Correct,sub_001_day_11_data.csv,1,300,95.0,Training at home,,,,,,,,,,,,,
1,10,2395,A,21.17738095392748,32.98737071870164,1.058869047696374,0.5181644075555807,B,3681.642400100827,Incorrect,sub_001_day_11_data.csv,0,300,95.0,Training at home,,,,,,,,,,,,,
1,10,2396,A,64.06170970732445,82.05303055828173,3.2030854853662225,1.2888859900333836,A,687.7069999463856,Correct,sub_001_day_11_data.csv,1,300,95.0,Training at home,,,,,,,,,,,,,
1,10,2397,B,78.90409965855355,65.77976937189791,3.9452049829276774,1.0332662010679268,B,1868.538300041109,Correct,sub_001_day_11_data.csv,1,300,95.0,Training at home,,,,,,,,,,,,,
1,10,2398,A,11.389848919219377,36.20681409021129,0.5694924459609687,0.568735305778496,A,1938.7157000601292,Correct,sub_001_day_11_data.csv,1,300,95.0,Training at home,,,,,,,,,,,,,
1,10,2399,A,36.72978453726736,49.90050221522979,1.836489226863368,0.7838352558490355,B,712.068900000304,Incorrect,sub_001_day_11_data.csv,0,300,95.0,Training at home,,,,,,,,,,,,,
