subject,day,trial,cat,x,y,xt,yt,resp,rt,fb,f_name,acc,n_trials,block,session_type,ns_left_digit,ns_right_digit,ns_left_size,ns_right_size,ns_congruent,ns_cue,ns_correct_side,ns_resp,ns_rt,ns_fb,acc_stroop,acc_stroop_mean,resp_key
1,9,1800,A,22.08033456313218,39.40036668779041,1.1040167281566091,0.6188995126755318,A,965.1298001408576,Correct,sub_001_day_10_data.csv,1,300,72.0,Training at home,,,,,,,,,,,,,
1,9,1801,A,14.617474500059906,44.06250580837044,0.7308737250029952,0.6921322227316707,A,695.7649001851678,Correct,sub_001_day_10_data.csv,1,300,72.0,Training at home,,,,,,,,,,,,,
1,9,1802,A,31.18029732778116,42.03891169639779,1.559014866389058,0.6603456807515666,B,816.263800021261,Incorrect,sub_001_day_10_data.csv,0,300,72.0,Training at home,,,,,,,,,,,,,
1,9,1803,A,43.560558795082976,56.54904999021846,2.178027939754149,0.8882704000837613,B,610.3298999369144,Incorrect,sub_001_day_10_data.csv,0,300,72.0,Training at home,,,,,,,,,,,,,
1,9,1804,B,48.30142022466457,19.07104387160741,2.4150710112332288,0.2995672566166524,B,703.1666999682784,Correct,sub_001_day_10_data.csv,1,300,72.0,Training at home,,,,,,,,,,,,,
1,9,1805,B,42.46255653414194,18.245955589367693,2.1231278267070968,0.2866068001864159,B,702.5220999494195,Correct,sub_001_day_10_data.csv,1,300,72.0,Training at home,,,,,,,,,,,,,
1,9,1806,B,52.25932914581104,40.2847870299109,2.612966457290552,0.6327919549229873,B,659.2412004247308,Correct,sub_001_day_10_data.csv,1,300,72.0,Training at home,,,,,,,,,,,,,
1,9,1807,B,46.01402615020717,27.84283994488835,2.3007013075103586,0.4373543071296883,A,937.722499947995,Incorrect,sub_001_day_10_data.csv,0,300,72.0,Training at home,,,,,,,,,,,,,
1,9,1808,A,23.727724728065077,44.08930616872577,1.186386236403254,0.6925532018077002,A,1241.392200347036,Correct,sub_001_day_10_data.csv,1,300,72.0,Training at home,,,,,,,,,,,,,
1,9,1809,B,62.33752638372411,42.49474689409357,3.116876319186206,0.6675059232932102,B,846.3731999509037,Correct,sub_001_day_10_data.csv,1,300,72.0,Training at home,,,,,,,,,,,,,
1,9,1810,A,25.091621284091424,50.745383730905615,1.2545810642045712,0.7971066236630405,A,941.8588997796178,Correct,sub_001_day_10_data.csv,1,300,72.0,Training at home,,,,,,,,,,,,,
1,9,1811,A,20.24498088975431,32.91328884535594,1.0122490444877157,0.5170007322102456,A,2246.8750001862645,Correct,sub_001_day_10_data.csv,1,300,72.0,Training at home,,,,,,,,,,,,,
1,9,1812,A,40.37393992217976,63.909092296895174,2.018696996108988,1.0038816742875896,B,641.5981003083289,Incorrect,sub_001_day_10_data.csv,0,300,72.0,Training at home,,,,,,,,,,,,,
1,9,1813,B,52.763536317352106,25.797523727914133,2.638176815867605,0.405226555122117,B,553.341600112617,Correct,sub_001_day_10_data.csv,1,300,72.0,Training at home,,,,,,,,,,,,,
1,9,1814,A,36.43860007984705,51.811672771492255,1.8219300039923525,0.8138558527455919,B,593.295400030911,Incorrect,sub_001_day_10_data.csv,0,300,72.0,Training at home,,,,,,,,,,,,,
1,9,1815,B,31.38824650857268,12.441090034785596,1.5694123254286338,0.195424185279658,B,739.548500161618,Correct,sub_001_day_10_data.csv,1,300,72.0,Training at home,,,,,,,,,,,,,
1,9,1816,A,14.98473999843543,38.56681223873005,0.7492369999217715,0.6058060700078562,A,511.2743000499904,Correct,sub_001_day_10_data.csv,1,300,72.0,Training at home,,,,,,,,,,,,,
1,9,1817,B,66.0439804050614,34.699963763818886,3.30219902025307,0.5450657562012271,B,503.7563000805676,Correct,sub_001_day_10_data.csv,1,300,72.0,Training at home,,,,,,,,,,,,,
1,9,1818,B,36.33746737349532,17.897540152071414,1.816873368674766,0.2811339032953795,B,596.2195000611246,Correct,sub_001_day_10_data.csv,1,300,72.0,Training at home,,,,,,,,,,,,,
1,9,1819,B,38.832049247739754,22.639380467812067,1.9416024623869876,0.3556185567975132,B,826.5384999103844,Correct,sub_001_day_10_data.csv,1,300,72.0,Training at home,,,,,,,,,,,,,
1,9,1820,B,57.21101470280565,36.80824414607543,2.860550735140283,0.5781825470042504,B,491.14480009302497,Correct,sub_001_day_10_data.csv,1,300,72.0,Training at home,,,,,,,,,,,,,
1,9,1821,B,57.143350799676135,33.07342652909637,2.857167539983807,0.5195161690642547,B,783.7526998482645,Correct,sub_001_day_10_data.csv,1,300,72.0,Training at home,,,,,,,,,,,,,
1,9,1822,A,36.9147275072247,51.08231064922321,1.845736375361235,0.8023990593199565,A,1717.7842003293335,Correct,sub_001_day_10_data.csv,1,300,72.0,Training at home,,,,,,,,,,,,,
1,9,1823,B,46.24013101868888,37.849384252521745,2.312006550934444,0.5945367375530974,B,1012.404200155288,Correct,sub_001_day_10_data.csv,1,300,72.0,Training at home,,,,,,,,,,,,,
1,9,1824,B,84.90956681481083,61.204525307945545,4.245478340740542,0.9613984353694616,B,1030.095299705863,Correct,sub_001_day_10_data.csv,1,300,72.0,Training at home,,,,,,,,,,,,,
1,9,1825,B,56.032779672909555,23.89802096123542,2.8016389836454776,0.3753892354357604,B,696.5485000982881,Correct,sub_001_day_10_data.csv,1,300,73.0,Training at home,,,,,,,,,,,,,
1,9,1826,A,38.64533371949975,51.594873214731415,1.9322666859749875,0.810450373271485,B,1247.9635002091527,Incorrect,sub_001_day_10_data.csv,0,300,73.0,Training at home,,,,,,,,,,,,,
1,9,1827,A,18.589214452403237,32.32871882095829,0.929460722620162,0.5078183277394632,A,1215.5580995604396,Correct,sub_001_day_10_data.csv,1,300,73.0,Training at home,,,,,,,,,,,,,
1,9,1828,B,74.58263377239149,49.929045670636114,3.7291316886195744,0.7842836153980984,B,857.5002998113632,Correct,sub_001_day_10_data.csv,1,300,73.0,Training at home,,,,,,,,,,,,,
1,9,1829,B,63.68260159615637,50.62045530653285,3.1841300798078187,0.7951442525618703,B,1962.626799941063,Correct,sub_001_day_10_data.csv,1,300,73.0,Training at home,,,,,,,,,,,,,
1,9,1830,A,28.26302882045652,42.412489471634835,1.413151441022826,0.6662138267227122,A,649.6999999508262,Correct,sub_001_day_10_data.csv,1,300,73.0,Training at home,,,,,,,,,,,,,
1,9,1831,A,59.21663538345877,76.31819715369913,2.960831769172939,1.1988034375663932,B,1038.6666003614664,Incorrect,sub_001_day_10_data.csv,0,300,73.0,Training at home,,,,,,,,,,,,,
1,9,1832,A,44.52958217250816,51.51363417623814,2.2264791086254077,0.8091742734389092,B,1548.7688998691738,Incorrect,sub_001_day_10_data.csv,0,300,73.0,Training at home,,,,,,,,,,,,,
1,9,1833,A,54.221999919886336,81.28925724186598,2.7110999959943167,1.276888666834085,A,1614.7671998478472,Correct,sub_001_day_10_data.csv,1,300,73.0,Training at home,,,,,,,,,,,,,
1,9,1834,B,72.84016182818253,55.071528493580544,3.642008091409126,0.8650615466869681,B,690.2271998114884,Correct,sub_001_day_10_data.csv,1,300,73.0,Training at home,,,,,,,,,,,,,
1,9,1835,B,78.28758521539173,49.4326471474056,3.914379260769586,0.7764862056289292,B,540.200799703598,Correct,sub_001_day_10_data.csv,1,300,73.0,Training at home,,,,,,,,,,,,,
1,9,1836,B,68.60448233601842,48.518581260121024,3.430224116800921,0.7621280922469782,B,553.388100117445,Correct,sub_001_day_10_data.csv,1,300,73.0,Training at home,,,,,,,,,,,,,
1,9,1837,A,23.46134079296485,51.91251932535406,1.1730670396482423,0.8154399467093523,A,448.1655997224152,Correct,sub_001_day_10_data.csv,1,300,73.0,Training at home,,,,,,,,,,,,,
1,9,1838,A,50.040399902278466,69.16024124364746,2.5020199951139235,1.0863665290577034,B,432.8919001854956,Incorrect,sub_001_day_10_data.csv,0,300,73.0,Training at home,,,,,,,,,,,,,
1,9,1839,B,85.32028645274896,65.35923771010324,4.2660143226374485,1.0266605051714466,B,825.1426997594535,Correct,sub_001_day_10_data.csv,1,300,73.0,Training at home,,,,,,,,,,,,,
1,9,1840,A,34.54164639749165,47.02578608759894,1.7270823198745824,0.7386793205104295,B,2335.7662996277213,Incorrect,sub_001_day_10_data.csv,0,300,73.0,Training at home,,,,,,,,,,,,,
1,9,1841,A,56.81042469555301,84.28783716185242,2.8405212347776505,1.3239902500732414,A,683.3901000209153,Correct,sub_001_day_10_data.csv,1,300,73.0,Training at home,,,,,,,,,,,,,
1,9,1842,A,25.1879811181677,49.550660817488726,1.259399055908385,0.778339960023711,A,980.0375998020172,Correct,sub_001_day_10_data.csv,1,300,73.0,Training at home,,,,,,,,,,,,,
1,9,1843,B,42.91700454829447,27.46550972403103,2.145850227414724,0.4314272178805746,B,637.8180999308825,Correct,sub_001_day_10_data.csv,1,300,73.0,Training at home,,,,,,,,,,,,,
1,9,1844,A,24.754300837722337,35.30130327848023,1.237715041886117,0.5545115752090939,A,1052.4326004087925,Correct,sub_001_day_10_data.csv,1,300,73.0,Training at home,,,,,,,,,,,,,
1,9,1845,A,49.5817985515709,80.12564246346126,2.4790899275785447,1.2586106486368611,B,1054.0438001044097,Incorrect,sub_001_day_10_data.csv,0,300,73.0,Training at home,,,,,,,,,,,,,
1,9,1846,A,65.32559309180776,85.62481503291943,3.266279654590388,1.3449914493620228,A,540.6361999921501,Correct,sub_001_day_10_data.csv,1,300,73.0,Training at home,,,,,,,,,,,,,
1,9,1847,B,48.02711565798585,19.63474373796679,2.4013557828992926,0.3084218334115733,B,568.9190998673439,Correct,sub_001_day_10_data.csv,1,300,73.0,Training at home,,,,,,,,,,,,,
1,9,1848,B,55.17723163434232,48.46928909429031,2.758861581717116,0.7613538127167117,A,1923.6884000711143,Incorrect,sub_001_day_10_data.csv,0,300,73.0,Training at home,,,,,,,,,,,,,
1,9,1849,A,66.98709544589461,85.91425910781595,3.3493547722947308,1.349538026258623,B,660.9040000475943,Incorrect,sub_001_day_10_data.csv,0,300,73.0,Training at home,,,,,,,,,,,,,
1,9,1850,A,42.494593543032565,63.17177038381516,2.1247296771516284,0.9922998487602748,A,688.3600996807218,Correct,sub_001_day_10_data.csv,1,300,74.0,Training at home,,,,,,,,,,,,,
1,9,1851,B,60.87010881031589,47.43981250971249,3.0435054405157937,0.7451828323409496,B,515.459000132978,Correct,sub_001_day_10_data.csv,1,300,74.0,Training at home,,,,,,,,,,,,,
1,9,1852,A,69.15497361877198,83.87823269222852,3.457748680938599,1.3175561981100017,A,595.8187002688646,Correct,sub_001_day_10_data.csv,1,300,74.0,Training at home,,,,,,,,,,,,,
1,9,1853,A,69.44793186345683,85.25529194935052,3.4723965931728413,1.3391869943386634,A,1234.1949003748596,Correct,sub_001_day_10_data.csv,1,300,74.0,Training at home,,,,,,,,,,,,,
1,9,1854,B,82.86939725261954,52.1667386132368,4.143469862630977,0.8194332139454187,B,1728.5515000112357,Correct,sub_001_day_10_data.csv,1,300,74.0,Training at home,,,,,,,,,,,,,
1,9,1855,A,33.85253040217995,55.501022191017,1.6926265201089976,0.8718080179101153,A,523.0924999341369,Correct,sub_001_day_10_data.csv,1,300,74.0,Training at home,,,,,,,,,,,,,
1,9,1856,A,10.251948689527698,34.188359280735824,0.5125974344763848,0.5370294917732404,A,553.7525000981987,Correct,sub_001_day_10_data.csv,1,300,74.0,Training at home,,,,,,,,,,,,,
1,9,1857,A,62.45953982930608,75.52199392141434,3.122976991465304,1.1862967064398415,B,596.2789002805948,Incorrect,sub_001_day_10_data.csv,0,300,74.0,Training at home,,,,,,,,,,,,,
1,9,1858,A,17.487859612760033,47.19651504066684,0.8743929806380016,0.7413611246339956,A,810.3122999891639,Correct,sub_001_day_10_data.csv,1,300,74.0,Training at home,,,,,,,,,,,,,
1,9,1859,A,11.171952303884575,34.97544842760506,0.5585976151942289,0.5493930591808637,A,710.7835998758674,Correct,sub_001_day_10_data.csv,1,300,74.0,Training at home,,,,,,,,,,,,,
1,9,1860,B,40.48359943710094,22.840249106409154,2.024179971855047,0.3587737939942791,A,878.086700104177,Incorrect,sub_001_day_10_data.csv,0,300,74.0,Training at home,,,,,,,,,,,,,
1,9,1861,B,37.84360429222171,18.132090433725832,1.8921802146110855,0.2848182105040941,B,5768.754399847239,Correct,sub_001_day_10_data.csv,1,300,74.0,Training at home,,,,,,,,,,,,,
1,9,1862,B,87.27355890451418,67.61755052012802,4.363677945225708,1.0621339998388544,A,656.1883999966085,Incorrect,sub_001_day_10_data.csv,0,300,74.0,Training at home,,,,,,,,,,,,,
1,9,1863,B,45.41017456453508,33.26062224347143,2.270508728226754,0.5224566324695755,A,701.2249999679625,Incorrect,sub_001_day_10_data.csv,0,300,74.0,Training at home,,,,,,,,,,,,,
1,9,1864,A,49.133134591322886,60.22309594833407,2.456656729566144,0.9459821790385976,A,920.1285000890492,Correct,sub_001_day_10_data.csv,1,300,74.0,Training at home,,,,,,,,,,,,,
1,9,1865,B,47.38593431174331,24.929827613829247,2.369296715587166,0.3915968164343296,A,806.4167997799814,Incorrect,sub_001_day_10_data.csv,0,300,74.0,Training at home,,,,,,,,,,,,,
1,9,1866,A,48.982300188764384,71.7478914199588,2.449115009438219,1.1270132429775035,A,887.1717997826636,Correct,sub_001_day_10_data.csv,1,300,74.0,Training at home,,,,,,,,,,,,,
1,9,1867,B,54.460185848964194,32.87746233779337,2.7230092924482094,0.5164379707454338,B,2008.953900076449,Correct,sub_001_day_10_data.csv,1,300,74.0,Training at home,,,,,,,,,,,,,
1,9,1868,A,32.02707739644745,56.32971454977599,1.6013538698223726,0.8848250870419317,A,517.6944001577795,Correct,sub_001_day_10_data.csv,1,300,74.0,Training at home,,,,,,,,,,,,,
1,9,1869,A,50.66446183901647,68.76387495919195,2.5332230919508234,1.0801404220208228,A,1714.297499973327,Correct,sub_001_day_10_data.csv,1,300,74.0,Training at home,,,,,,,,,,,,,
1,9,1870,B,50.211470338964965,36.93957233563501,2.510573516948248,0.5802454453818986,B,438.737400341779,Correct,sub_001_day_10_data.csv,1,300,74.0,Training at home,,,,,,,,,,,,,
1,9,1871,B,62.17964106215367,40.347519993140246,3.1089820531076833,0.6337773620050835,B,2664.0744996257126,Correct,sub_001_day_10_data.csv,1,300,74.0,Training at home,,,,,,,,,,,,,
1,9,1872,A,54.137018201212754,84.11426772072132,2.7068509100606377,1.321263827667516,A,37875.33949967474,Correct,sub_001_day_10_data.csv,1,300,74.0,Training at home,,,,,,,,,,,,,
1,9,1873,B,67.58199031236951,39.374116787431014,3.3790995156184755,0.6184871802048991,B,1112.0412000454962,Correct,sub_001_day_10_data.csv,1,300,74.0,Training at home,,,,,,,,,,,,,
1,9,1874,A,42.56885935705776,66.05477678199806,2.128442967852888,1.0375860073641936,A,528.2577001489699,Correct,sub_001_day_10_data.csv,1,300,74.0,Training at home,,,,,,,,,,,,,
1,9,1875,A,53.80074239159104,75.9013668516824,2.690037119579552,1.1922558824933465,A,517.2502999193966,Correct,sub_001_day_10_data.csv,1,300,75.0,Training at home,,,,,,,,,,,,,
1,9,1876,A,18.71160277209499,39.08801241617695,0.9355801386047496,0.6139930632504407,A,542.1883999370039,Correct,sub_001_day_10_data.csv,1,300,75.0,Training at home,,,,,,,,,,,,,
1,9,1877,B,69.53724794760652,58.9382661361156,3.4768623973803257,0.9258001195427044,A,544.2126002162695,Incorrect,sub_001_day_10_data.csv,0,300,75.0,Training at home,,,,,,,,,,,,,
1,9,1878,B,48.341569871184014,27.53151006793776,2.4170784935592007,0.4324639488583334,A,795.930199790746,Incorrect,sub_001_day_10_data.csv,0,300,75.0,Training at home,,,,,,,,,,,,,
1,9,1879,A,66.21597019121872,88.80964744160728,3.310798509560936,1.395018679852265,A,5152.969799935818,Correct,sub_001_day_10_data.csv,1,300,75.0,Training at home,,,,,,,,,,,,,
1,9,1880,A,17.81389024418493,34.61849829609869,0.8906945122092464,0.543786099626672,A,614.7831003181636,Correct,sub_001_day_10_data.csv,1,300,75.0,Training at home,,,,,,,,,,,,,
1,9,1881,B,53.59384020511454,42.591522719030344,2.679692010255727,0.6690260743965425,A,636.4067001268268,Incorrect,sub_001_day_10_data.csv,0,300,75.0,Training at home,,,,,,,,,,,,,
1,9,1882,B,79.92752249250182,61.1717390140802,3.996376124625091,0.9608834294697324,A,546.5849000029266,Incorrect,sub_001_day_10_data.csv,0,300,75.0,Training at home,,,,,,,,,,,,,
1,9,1883,B,52.66528543888883,32.57084863996911,2.6332642719444412,0.5116216940425603,A,1357.7336999587717,Incorrect,sub_001_day_10_data.csv,0,300,75.0,Training at home,,,,,,,,,,,,,
1,9,1884,B,79.87744503942329,53.93094518506575,3.993872251971165,0.8471453059727819,B,1945.8790002390745,Correct,sub_001_day_10_data.csv,1,300,75.0,Training at home,,,,,,,,,,,,,
1,9,1885,A,10.703432809792291,33.631199093486416,0.5351716404896146,0.528277640017563,A,604.4928999617696,Correct,sub_001_day_10_data.csv,1,300,75.0,Training at home,,,,,,,,,,,,,
1,9,1886,B,68.7515995350562,42.216952957822905,3.4375799767528097,0.6631423463462116,B,595.2300000935793,Correct,sub_001_day_10_data.csv,1,300,75.0,Training at home,,,,,,,,,,,,,
1,9,1887,B,65.44303864664612,32.79944532306702,3.272151932332306,0.5152124823438372,B,1903.948099818081,Correct,sub_001_day_10_data.csv,1,300,75.0,Training at home,,,,,,,,,,,,,
1,9,1888,A,21.950191190653463,52.4412631159067,1.0975095595326732,0.8237454347495093,A,1550.4549997858703,Correct,sub_001_day_10_data.csv,1,300,75.0,Training at home,,,,,,,,,,,,,
1,9,1889,A,42.13057061199026,71.25276669649378,2.106528530599513,1.1192358420082615,A,1526.859300211072,Correct,sub_001_day_10_data.csv,1,300,75.0,Training at home,,,,,,,,,,,,,
1,9,1890,B,89.58308501222375,64.78620837402323,4.479154250611187,1.0176593814088446,B,1785.4597000405192,Correct,sub_001_day_10_data.csv,1,300,75.0,Training at home,,,,,,,,,,,,,
1,9,1891,B,54.6147899409593,33.75089900606216,2.7307394970479653,0.5301578818474797,B,1182.0629998110237,Correct,sub_001_day_10_data.csv,1,300,75.0,Training at home,,,,,,,,,,,,,
1,9,1892,B,79.89675912534742,59.65983628121583,3.994837956267371,0.9371345168771872,B,1138.9091000892222,Correct,sub_001_day_10_data.csv,1,300,75.0,Training at home,,,,,,,,,,,,,
1,9,1893,B,50.40819451457173,23.829306794298272,2.5204097257285865,0.3743098758255239,A,631.3382000662386,Incorrect,sub_001_day_10_data.csv,0,300,75.0,Training at home,,,,,,,,,,,,,
1,9,1894,B,34.650051169083376,11.901710086569755,1.732502558454169,0.1869516248656154,B,1229.1635000146923,Correct,sub_001_day_10_data.csv,1,300,75.0,Training at home,,,,,,,,,,,,,
1,9,1895,A,20.825532887652464,45.06629096412728,1.0412766443826231,0.7078996430872116,A,690.824500285089,Correct,sub_001_day_10_data.csv,1,300,75.0,Training at home,,,,,,,,,,,,,
1,9,1896,B,53.539804370794585,45.27664449383541,2.676990218539729,0.7112038686051505,B,661.9826997630298,Correct,sub_001_day_10_data.csv,1,300,75.0,Training at home,,,,,,,,,,,,,
1,9,1897,A,49.25937600453953,59.95871325726276,2.4629688002269767,0.9418292654385684,A,452.4623001925647,Correct,sub_001_day_10_data.csv,1,300,75.0,Training at home,,,,,,,,,,,,,
1,9,1898,B,77.52785832566163,53.85266699443187,3.876392916283081,0.8459157150296235,B,1380.2424003370106,Correct,sub_001_day_10_data.csv,1,300,75.0,Training at home,,,,,,,,,,,,,
1,9,1899,A,44.0588772736387,55.41048216290491,2.202943863681935,0.8703858184742517,B,941.0927998833358,Incorrect,sub_001_day_10_data.csv,0,300,75.0,Training at home,,,,,,,,,,,,,
1,9,1900,B,56.882380283253255,48.62989703591292,2.844119014162663,0.7638766363642603,A,3448.7503999844193,Incorrect,sub_001_day_10_data.csv,0,300,76.0,Training at home,,,,,,,,,,,,,
1,9,1901,B,32.73136900359603,19.242237966137008,1.6365684501798017,0.3022563671652131,A,668.0341996252537,Incorrect,sub_001_day_10_data.csv,0,300,76.0,Training at home,,,,,,,,,,,,,
1,9,1902,B,41.59487421667115,25.06297849641473,2.0797437108335575,0.3936883456070773,B,467.5986999645829,Correct,sub_001_day_10_data.csv,1,300,76.0,Training at home,,,,,,,,,,,,,
1,9,1903,A,51.30561555255576,78.54352466332944,2.5652807776277884,1.2337588003468225,A,615.7002998515964,Correct,sub_001_day_10_data.csv,1,300,76.0,Training at home,,,,,,,,,,,,,
1,9,1904,A,28.14544211002116,37.517813653500085,1.4072721055010582,0.5893284387629335,B,621.4614999480546,Incorrect,sub_001_day_10_data.csv,0,300,76.0,Training at home,,,,,,,,,,,,,
1,9,1905,A,57.70970940957382,81.1029468016557,2.8854854704786908,1.273962109282827,A,567.7473000250757,Correct,sub_001_day_10_data.csv,1,300,76.0,Training at home,,,,,,,,,,,,,
1,9,1906,B,69.00208181171678,57.204986223606696,3.450104090585839,0.8985738223439406,A,832.4442999437451,Incorrect,sub_001_day_10_data.csv,0,300,76.0,Training at home,,,,,,,,,,,,,
1,9,1907,B,72.17411686484822,42.85086383806874,3.6087058432424106,0.6730997951682663,B,464.491699822247,Correct,sub_001_day_10_data.csv,1,300,76.0,Training at home,,,,,,,,,,,,,
1,9,1908,A,37.08740941701579,47.410106124242105,1.8543704708507895,0.7447162055291573,B,589.9900998920202,Incorrect,sub_001_day_10_data.csv,0,300,76.0,Training at home,,,,,,,,,,,,,
1,9,1909,B,49.304126393738045,42.084499168630344,2.465206319686902,0.6610617670908742,A,656.7763001658022,Incorrect,sub_001_day_10_data.csv,0,300,76.0,Training at home,,,,,,,,,,,,,
1,9,1910,B,59.21524796819618,36.67618299342256,2.960762398409809,0.5761081352692562,B,627.9657003469765,Correct,sub_001_day_10_data.csv,1,300,76.0,Training at home,,,,,,,,,,,,,
1,9,1911,B,78.79725453304582,53.355156679254335,3.939862726652291,0.8381008412733889,B,396.26979967579246,Correct,sub_001_day_10_data.csv,1,300,76.0,Training at home,,,,,,,,,,,,,
1,9,1912,B,46.67016429901141,35.24080827055702,2.33350821495057,0.5535613218467417,B,446.3200997561216,Correct,sub_001_day_10_data.csv,1,300,76.0,Training at home,,,,,,,,,,,,,
1,9,1913,A,54.13398361003266,81.4912648772029,2.7066991805016327,1.2800617953498028,A,670.9993002004921,Correct,sub_001_day_10_data.csv,1,300,76.0,Training at home,,,,,,,,,,,,,
1,9,1914,A,44.8510459035226,55.913119705396895,2.2425522951761305,0.8782812305288079,A,792.7994001656771,Correct,sub_001_day_10_data.csv,1,300,76.0,Training at home,,,,,,,,,,,,,
1,9,1915,A,23.180688291731197,47.47770387690213,1.15903441458656,0.7457780285449368,A,524.7493996284902,Correct,sub_001_day_10_data.csv,1,300,76.0,Training at home,,,,,,,,,,,,,
1,9,1916,B,49.60477645723568,37.11646235653061,2.480238822861784,0.5830240273325932,B,563.1548003293574,Correct,sub_001_day_10_data.csv,1,300,76.0,Training at home,,,,,,,,,,,,,
1,9,1917,A,42.05948332107936,69.66811968119359,2.102974166053968,1.0943442648992612,A,749.2520003579557,Correct,sub_001_day_10_data.csv,1,300,76.0,Training at home,,,,,,,,,,,,,
1,9,1918,A,45.31672110208926,57.46424367562662,2.2658360551044634,0.9026462288772116,A,468.2074002921581,Correct,sub_001_day_10_data.csv,1,300,76.0,Training at home,,,,,,,,,,,,,
1,9,1919,B,61.315555582968926,28.88167979090951,3.0657777791484464,0.4536723652722705,B,529.9658998847008,Correct,sub_001_day_10_data.csv,1,300,76.0,Training at home,,,,,,,,,,,,,
1,9,1920,B,42.56117766901798,21.947046460130213,2.128058883450899,0.3447433996356948,A,487.7140000462532,Incorrect,sub_001_day_10_data.csv,0,300,76.0,Training at home,,,,,,,,,,,,,
1,9,1921,A,44.95488857254253,56.01031787336566,2.247744428627126,0.8798080157809731,A,580.9756000526249,Correct,sub_001_day_10_data.csv,1,300,76.0,Training at home,,,,,,,,,,,,,
1,9,1922,B,31.967503541280788,10.894508710713051,1.5983751770640393,0.1711305426502306,B,2172.804099973291,Correct,sub_001_day_10_data.csv,1,300,76.0,Training at home,,,,,,,,,,,,,
1,9,1923,A,27.084304326670576,56.01043171232039,1.3542152163335288,0.8798098039590926,A,546.167700085789,Correct,sub_001_day_10_data.csv,1,300,76.0,Training at home,,,,,,,,,,,,,
1,9,1924,A,62.38452930639571,75.81143994403074,3.1192264653197856,1.1908433139311538,A,554.6540999785066,Correct,sub_001_day_10_data.csv,1,300,76.0,Training at home,,,,,,,,,,,,,
1,9,1925,B,51.4679821301044,30.8268933228047,2.5733991065052204,0.4842277079795974,B,681.4927998930216,Correct,sub_001_day_10_data.csv,1,300,77.0,Training at home,,,,,,,,,,,,,
1,9,1926,B,71.98814725628871,60.8205913494771,3.5994073628144356,0.9553676148525208,A,498.32250038161874,Incorrect,sub_001_day_10_data.csv,0,300,77.0,Training at home,,,,,,,,,,,,,
1,9,1927,A,46.91319747643467,67.42592192125291,2.3456598738217336,1.0591239048466357,B,428.1738996505738,Incorrect,sub_001_day_10_data.csv,0,300,77.0,Training at home,,,,,,,,,,,,,
1,9,1928,A,59.03717089128473,85.64393343777944,2.951858544564237,1.3452917605633057,A,571.285099722445,Correct,sub_001_day_10_data.csv,1,300,77.0,Training at home,,,,,,,,,,,,,
1,9,1929,B,38.86850784996078,16.522022819639197,1.9434253924980391,0.2595273275631071,B,665.7325997948647,Correct,sub_001_day_10_data.csv,1,300,77.0,Training at home,,,,,,,,,,,,,
1,9,1930,B,80.21366985686228,56.75285636302665,4.010683492843114,0.8914717831016065,A,629.3536000885069,Incorrect,sub_001_day_10_data.csv,0,300,77.0,Training at home,,,,,,,,,,,,,
1,9,1931,A,42.231694712399666,72.89518265305844,2.1115847356199833,1.1450348515246729,A,577.5051000528038,Correct,sub_001_day_10_data.csv,1,300,77.0,Training at home,,,,,,,,,,,,,
1,9,1932,B,59.37992784570122,39.08256130509371,2.968996392285061,0.6139074373977756,B,594.426800031215,Correct,sub_001_day_10_data.csv,1,300,77.0,Training at home,,,,,,,,,,,,,
1,9,1933,B,41.69006613570944,13.51138714138726,2.0845033067854724,0.212236372915949,A,706.9214996881783,Incorrect,sub_001_day_10_data.csv,0,300,77.0,Training at home,,,,,,,,,,,,,
1,9,1934,A,61.320296334859194,70.29494115539276,3.06601481674296,1.1041903535915436,A,629.3981000781059,Correct,sub_001_day_10_data.csv,1,300,77.0,Training at home,,,,,,,,,,,,,
1,9,1935,A,25.210128987399635,50.28946336434782,1.2605064493699816,0.7899450432920408,A,1076.732000336051,Correct,sub_001_day_10_data.csv,1,300,77.0,Training at home,,,,,,,,,,,,,
1,9,1936,A,64.71467517138386,77.50143877283713,3.235733758569193,1.2173897534569214,A,1944.2439996637404,Correct,sub_001_day_10_data.csv,1,300,77.0,Training at home,,,,,,,,,,,,,
1,9,1937,A,32.18887764248384,55.57411867757566,1.609443882124192,0.8729562148359951,A,509.9145001731813,Correct,sub_001_day_10_data.csv,1,300,77.0,Training at home,,,,,,,,,,,,,
1,9,1938,B,56.12641645340703,44.21544245176056,2.806320822670352,0.6945345459083662,B,1189.635300077498,Correct,sub_001_day_10_data.csv,1,300,77.0,Training at home,,,,,,,,,,,,,
1,9,1939,B,73.63601179653627,52.41330903438885,3.681800589826813,0.8233063330638378,A,604.3301001191139,Incorrect,sub_001_day_10_data.csv,0,300,77.0,Training at home,,,,,,,,,,,,,
1,9,1940,B,32.04765472146711,17.242172046600853,1.6023827360733554,0.2708394051676627,A,473.5966003499925,Incorrect,sub_001_day_10_data.csv,0,300,77.0,Training at home,,,,,,,,,,,,,
1,9,1941,A,54.63019136207323,82.83622879106903,2.7315095681036614,1.301188439105529,A,542.3873998224735,Correct,sub_001_day_10_data.csv,1,300,77.0,Training at home,,,,,,,,,,,,,
1,9,1942,A,41.37384282003032,61.55572718483892,2.068692141001516,0.9669151015513374,B,655.1487999968231,Incorrect,sub_001_day_10_data.csv,0,300,77.0,Training at home,,,,,,,,,,,,,
1,9,1943,B,36.993686913820824,13.62791171967185,1.8496843456910412,0.2140667367114566,B,606.7816000431776,Correct,sub_001_day_10_data.csv,1,300,77.0,Training at home,,,,,,,,,,,,,
1,9,1944,B,55.162944035395405,25.24648547607728,2.75814720176977,0.3965708665030291,B,515.7713000662625,Correct,sub_001_day_10_data.csv,1,300,77.0,Training at home,,,,,,,,,,,,,
1,9,1945,B,54.364309601755664,33.888885039939936,2.7182154800877836,0.5323253613991218,B,1414.7104998119175,Correct,sub_001_day_10_data.csv,1,300,77.0,Training at home,,,,,,,,,,,,,
1,9,1946,B,69.59683451256956,55.43699174908026,3.4798417256284777,0.8708022300801427,B,616.4489998482168,Correct,sub_001_day_10_data.csv,1,300,77.0,Training at home,,,,,,,,,,,,,
1,9,1947,A,55.04912528447933,80.64866101387388,2.7524562642239663,1.2668262048151988,A,567.4934000708163,Correct,sub_001_day_10_data.csv,1,300,77.0,Training at home,,,,,,,,,,,,,
1,9,1948,B,64.88261228231231,44.618958837867275,3.244130614115615,0.7008729664793459,B,1944.9595003388824,Correct,sub_001_day_10_data.csv,1,300,77.0,Training at home,,,,,,,,,,,,,
1,9,1949,A,30.59215892341979,39.650973304422905,1.5296079461709895,0.6228360322043,A,3143.804000224918,Correct,sub_001_day_10_data.csv,1,300,77.0,Training at home,,,,,,,,,,,,,
1,9,1950,A,19.25817774583671,49.06466302142794,0.9629088872918355,0.7707059244948838,A,1118.380299769342,Correct,sub_001_day_10_data.csv,1,300,78.0,Training at home,,,,,,,,,,,,,
1,9,1951,B,88.37022061816423,66.04640569731878,4.418511030908212,1.0374545146735386,B,4148.121100384742,Correct,sub_001_day_10_data.csv,1,300,78.0,Training at home,,,,,,,,,,,,,
1,9,1952,B,56.94135013895452,45.85493730632594,2.847067506947726,0.7202876708618705,A,8467.994299717247,Incorrect,sub_001_day_10_data.csv,0,300,78.0,Training at home,,,,,,,,,,,,,
1,9,1953,A,11.119812743112124,33.880853812099815,0.5559906371556061,0.5321992071672125,A,790.9587998874485,Correct,sub_001_day_10_data.csv,1,300,78.0,Training at home,,,,,,,,,,,,,
1,9,1954,A,34.722701923305394,52.56278131232738,1.7361350961652695,0.8256542381152728,B,838.86139979586,Incorrect,sub_001_day_10_data.csv,0,300,78.0,Training at home,,,,,,,,,,,,,
1,9,1955,A,33.38070928593342,59.73283503071514,1.669035464296671,0.9382811785529286,A,2961.923799943179,Correct,sub_001_day_10_data.csv,1,300,78.0,Training at home,,,,,,,,,,,,,
1,9,1956,B,86.17549782565078,66.31555377433361,4.308774891282539,1.041682282780927,A,1760.2403000928462,Incorrect,sub_001_day_10_data.csv,0,300,78.0,Training at home,,,,,,,,,,,,,
1,9,1957,A,29.922355370275618,59.295165433198584,1.496117768513781,0.9314062805916404,B,615.0619997642934,Incorrect,sub_001_day_10_data.csv,0,300,78.0,Training at home,,,,,,,,,,,,,
1,9,1958,A,43.418808100345615,62.29078749332355,2.170940405017281,0.9784614018767414,A,805.6779997423291,Correct,sub_001_day_10_data.csv,1,300,78.0,Training at home,,,,,,,,,,,,,
1,9,1959,B,70.13596925507468,50.551820569844836,3.506798462753734,0.7940661406390697,B,4699.618800077587,Correct,sub_001_day_10_data.csv,1,300,78.0,Training at home,,,,,,,,,,,,,
1,9,1960,B,86.94958643592771,67.53479364527239,4.347479321796386,1.060834057888452,A,9015.538599807767,Incorrect,sub_001_day_10_data.csv,0,300,78.0,Training at home,,,,,,,,,,,,,
1,9,1961,A,25.247823939382783,55.339794030467694,1.2623911969691393,0.8692754518864478,A,525.9174001403153,Correct,sub_001_day_10_data.csv,1,300,78.0,Training at home,,,,,,,,,,,,,
1,9,1962,B,58.71899847997606,49.67101248750187,2.935949923998803,0.7802304396355139,B,2805.5099002085626,Correct,sub_001_day_10_data.csv,1,300,78.0,Training at home,,,,,,,,,,,,,
1,9,1963,B,38.026584548169865,23.144831201854615,1.9013292274084932,0.3635581583616114,A,3016.6585999540985,Incorrect,sub_001_day_10_data.csv,0,300,78.0,Training at home,,,,,,,,,,,,,
1,9,1964,A,22.170764334224184,38.89406204683589,1.1085382167112092,0.610946497973026,B,1273.0966000817716,Incorrect,sub_001_day_10_data.csv,0,300,78.0,Training at home,,,,,,,,,,,,,
1,9,1965,A,58.23760710105813,84.29501071190379,2.911880355052906,1.3241029319339497,A,517.0626002363861,Correct,sub_001_day_10_data.csv,1,300,78.0,Training at home,,,,,,,,,,,,,
1,9,1966,A,61.401361823290046,80.97281858456796,3.070068091164502,1.2719180600286888,A,1197.3529998213053,Correct,sub_001_day_10_data.csv,1,300,78.0,Training at home,,,,,,,,,,,,,
1,9,1967,A,52.95068091166655,63.4372237050321,2.6475340455833276,0.9964695797793056,B,704.5688000507653,Incorrect,sub_001_day_10_data.csv,0,300,78.0,Training at home,,,,,,,,,,,,,
1,9,1968,B,84.47485501309227,56.12213177807651,4.223742750654614,0.8815643844890171,B,543.2409001514316,Correct,sub_001_day_10_data.csv,1,300,78.0,Training at home,,,,,,,,,,,,,
1,9,1969,A,46.86933458902536,63.78940040992916,2.3434667294512677,1.0020015585236557,A,863.2813999429345,Correct,sub_001_day_10_data.csv,1,300,78.0,Training at home,,,,,,,,,,,,,
1,9,1970,A,12.083679169606016,36.2333928320153,0.6041839584803007,0.5691528036784617,A,1842.8456000983715,Correct,sub_001_day_10_data.csv,1,300,78.0,Training at home,,,,,,,,,,,,,
1,9,1971,A,44.72131025974912,77.13038494814988,2.236065512987456,1.2115612536083022,A,866.5833999402821,Correct,sub_001_day_10_data.csv,1,300,78.0,Training at home,,,,,,,,,,,,,
1,9,1972,A,35.12200174467639,53.751106164383025,1.7561000872338195,0.8443204012417537,B,666.9046003371477,Incorrect,sub_001_day_10_data.csv,0,300,78.0,Training at home,,,,,,,,,,,,,
1,9,1973,B,45.28282238094091,34.48003138858466,2.264141119047045,0.5416110665296152,B,3473.794899880886,Correct,sub_001_day_10_data.csv,1,300,78.0,Training at home,,,,,,,,,,,,,
1,9,1974,A,56.813611499881674,80.66693926356642,2.840680574994084,1.2671133188899717,A,1483.7501998990774,Correct,sub_001_day_10_data.csv,1,300,78.0,Training at home,,,,,,,,,,,,,
1,9,1975,A,39.49188188828269,49.39303157535119,1.9745940944141347,0.7758639256782599,A,2514.164499938488,Correct,sub_001_day_10_data.csv,1,300,79.0,Training at home,,,,,,,,,,,,,
1,9,1976,A,45.43169975745415,72.35297574527054,2.2715849878727075,1.136517885333512,A,731.8613999523222,Correct,sub_001_day_10_data.csv,1,300,79.0,Training at home,,,,,,,,,,,,,
1,9,1977,B,35.5703304376536,11.297508228941815,1.7785165218826802,0.1774608442795692,B,2416.7304998263717,Correct,sub_001_day_10_data.csv,1,300,79.0,Training at home,,,,,,,,,,,,,
1,9,1978,A,54.12692456304595,82.36096575701342,2.706346228152297,1.2937230248239695,A,1411.9539000093937,Correct,sub_001_day_10_data.csv,1,300,79.0,Training at home,,,,,,,,,,,,,
1,9,1979,A,43.20138930972312,61.54810770322605,2.160069465486156,0.9667954150140414,A,1586.1768000759184,Correct,sub_001_day_10_data.csv,1,300,79.0,Training at home,,,,,,,,,,,,,
1,9,1980,A,43.52837580473527,65.90103382500774,2.1764187902367635,1.035171018643084,A,2085.2478998713195,Correct,sub_001_day_10_data.csv,1,300,79.0,Training at home,,,,,,,,,,,,,
1,9,1981,A,57.42520550129143,83.57890789331002,2.8712602750645715,1.3128544151634034,A,1384.766399860382,Correct,sub_001_day_10_data.csv,1,300,79.0,Training at home,,,,,,,,,,,,,
1,9,1982,B,49.27821073023361,37.64171147824588,2.4639105365116807,0.5912746212430192,A,2098.201600369066,Incorrect,sub_001_day_10_data.csv,0,300,79.0,Training at home,,,,,,,,,,,,,
1,9,1983,A,51.36571441527496,61.35619824061854,2.5682857207637477,0.9637809082246308,A,980.9417999349536,Correct,sub_001_day_10_data.csv,1,300,79.0,Training at home,,,,,,,,,,,,,
1,9,1984,A,43.43748549133405,75.2000420879574,2.1718742745667026,1.181239498865851,A,2959.3143998645246,Correct,sub_001_day_10_data.csv,1,300,79.0,Training at home,,,,,,,,,,,,,
1,9,1985,B,56.61858327040947,49.544484442700245,2.8309291635204734,0.7782429417554044,B,737.3160999268293,Correct,sub_001_day_10_data.csv,1,300,79.0,Training at home,,,,,,,,,,,,,
1,9,1986,B,82.32253635977528,55.06719426613361,4.116126817988764,0.8649934648014366,B,644.8483001440763,Correct,sub_001_day_10_data.csv,1,300,79.0,Training at home,,,,,,,,,,,,,
1,9,1987,B,57.075827498476215,40.86590769392287,2.8537913749238104,0.6419201769675335,B,1008.3286999724804,Correct,sub_001_day_10_data.csv,1,300,79.0,Training at home,,,,,,,,,,,,,
1,9,1988,A,64.44621053603758,84.91222072209457,3.2223105268018792,1.3337980441026367,B,841.3011999800801,Incorrect,sub_001_day_10_data.csv,0,300,79.0,Training at home,,,,,,,,,,,,,
1,9,1989,B,43.41548159963453,28.484748886576124,2.1707740799817263,0.4474373892070879,B,578.0152999795973,Correct,sub_001_day_10_data.csv,1,300,79.0,Training at home,,,,,,,,,,,,,
1,9,1990,B,47.272691915509725,31.94028556420179,2.363634595775486,0.5017168324102824,B,467.3945000395179,Correct,sub_001_day_10_data.csv,1,300,79.0,Training at home,,,,,,,,,,,,,
1,9,1991,A,65.20129792486908,76.10920486447823,3.2600648962434544,1.1955205943640268,A,635.0275999866426,Correct,sub_001_day_10_data.csv,1,300,79.0,Training at home,,,,,,,,,,,,,
1,9,1992,B,69.96581547177473,53.172851322017834,3.4982907735887365,0.8352371954183678,A,929.9928001128136,Incorrect,sub_001_day_10_data.csv,0,300,79.0,Training at home,,,,,,,,,,,,,
1,9,1993,A,31.377077361601145,40.55801795753801,1.5688538680800574,0.6370838562978217,A,468.57819985598326,Correct,sub_001_day_10_data.csv,1,300,79.0,Training at home,,,,,,,,,,,,,
1,9,1994,B,54.11276751789933,23.69809489271235,2.7056383758949663,0.3722488040950946,B,969.8227997869252,Correct,sub_001_day_10_data.csv,1,300,79.0,Training at home,,,,,,,,,,,,,
1,9,1995,B,33.880203472790676,22.05337934378136,1.6940101736395337,0.346413672666262,B,511.69029995799065,Correct,sub_001_day_10_data.csv,1,300,79.0,Training at home,,,,,,,,,,,,,
1,9,1996,B,77.63195931090516,52.09424163490029,3.8815979655452577,0.8182944340726714,B,1798.017599619925,Correct,sub_001_day_10_data.csv,1,300,79.0,Training at home,,,,,,,,,,,,,
1,9,1997,A,53.724529823002314,82.46132290881205,2.6862264911501152,1.2952994312780983,A,549.9310996383429,Correct,sub_001_day_10_data.csv,1,300,79.0,Training at home,,,,,,,,,,,,,
1,9,1998,A,52.17202109322666,60.47102683608474,2.608601054661333,0.9498766683163752,B,669.9195997789502,Incorrect,sub_001_day_10_data.csv,0,300,79.0,Training at home,,,,,,,,,,,,,
1,9,1999,A,44.94512497555341,51.64939741464568,2.2472562487776706,0.8113068374009527,B,592.7702002227306,Incorrect,sub_001_day_10_data.csv,0,300,79.0,Training at home,,,,,,,,,,,,,
1,9,2000,B,82.23065735977843,67.75475827348183,4.111532867988922,1.0642892541886138,B,1188.958799932152,Correct,sub_001_day_10_data.csv,1,300,80.0,Training at home,,,,,,,,,,,,,
1,9,2001,A,39.61796168234721,54.25602402303027,1.9808980841173605,0.8522516324187163,B,970.4704000614583,Incorrect,sub_001_day_10_data.csv,0,300,80.0,Training at home,,,,,,,,,,,,,
1,9,2002,A,15.95030073233168,40.1597677477572,0.7975150366165841,0.6308281566311316,A,630.1625999622047,Correct,sub_001_day_10_data.csv,1,300,80.0,Training at home,,,,,,,,,,,,,
1,9,2003,A,48.292206209966665,67.87046332652076,2.414610310498333,1.0661067449116657,A,633.9146997779608,Correct,sub_001_day_10_data.csv,1,300,80.0,Training at home,,,,,,,,,,,,,
1,9,2004,A,32.30338927546452,44.05674985684951,1.615169463773226,0.6920418084566079,B,834.5178002491593,Incorrect,sub_001_day_10_data.csv,0,300,80.0,Training at home,,,,,,,,,,,,,
1,9,2005,B,35.467874484024804,11.365823911955378,1.7733937242012403,0.1785339445189711,B,3662.652399856597,Correct,sub_001_day_10_data.csv,1,300,80.0,Training at home,,,,,,,,,,,,,
1,9,2006,B,49.933591656895445,31.34072871471319,2.496679582844772,0.4922990154414682,B,754.5340000651777,Correct,sub_001_day_10_data.csv,1,300,80.0,Training at home,,,,,,,,,,,,,
1,9,2007,B,54.54347606335243,31.49202908822715,2.727173803167622,0.4946756361510524,A,784.1659002006054,Incorrect,sub_001_day_10_data.csv,0,300,80.0,Training at home,,,,,,,,,,,,,
1,9,2008,A,46.80530678037747,78.65468109394473,2.3402653390188735,1.2355048414759238,A,628.6202999763191,Correct,sub_001_day_10_data.csv,1,300,80.0,Training at home,,,,,,,,,,,,,
1,9,2009,B,66.86422202583336,45.29956121855538,3.3432111012916677,0.7115638436752734,B,549.9033997766674,Correct,sub_001_day_10_data.csv,1,300,80.0,Training at home,,,,,,,,,,,,,
1,9,2010,B,59.52772741419472,35.77912520542772,2.9763863707097364,0.5620171844862055,B,546.3458998128772,Correct,sub_001_day_10_data.csv,1,300,80.0,Training at home,,,,,,,,,,,,,
1,9,2011,A,62.42746317183553,73.7620891466475,3.1213731585917763,1.158652186882716,A,923.301899805665,Correct,sub_001_day_10_data.csv,1,300,80.0,Training at home,,,,,,,,,,,,,
1,9,2012,B,59.23927680815584,30.68249559362156,2.961963840407792,0.4819595137536134,B,563.5219002142549,Correct,sub_001_day_10_data.csv,1,300,80.0,Training at home,,,,,,,,,,,,,
1,9,2013,A,39.61812694159763,47.76933118297125,1.9809063470798816,0.7503588995566015,A,1962.314900010824,Correct,sub_001_day_10_data.csv,1,300,80.0,Training at home,,,,,,,,,,,,,
1,9,2014,B,57.17100048033354,34.41954061521212,2.8585500240166772,0.5406608796834296,A,753.0298000201583,Incorrect,sub_001_day_10_data.csv,0,300,80.0,Training at home,,,,,,,,,,,,,
1,9,2015,B,36.33629647907014,12.247987048251757,1.8168148239535071,0.1923909306602532,B,1389.5142003893852,Correct,sub_001_day_10_data.csv,1,300,80.0,Training at home,,,,,,,,,,,,,
1,9,2016,A,49.49506798930591,73.74878218041957,2.4747533994652953,1.1584431615459998,A,557.2250001132488,Correct,sub_001_day_10_data.csv,1,300,80.0,Training at home,,,,,,,,,,,,,
1,9,2017,A,46.260956758363385,70.19060178374413,2.313047837918169,1.1025513945742855,A,661.8042998015881,Correct,sub_001_day_10_data.csv,1,300,80.0,Training at home,,,,,,,,,,,,,
1,9,2018,A,34.07014902956553,62.32176510327798,1.7035074514782764,0.9789479970360342,A,1406.5843001008034,Correct,sub_001_day_10_data.csv,1,300,80.0,Training at home,,,,,,,,,,,,,
1,9,2019,B,70.64328993080781,37.898668063456554,3.5321644965403904,0.595310885844966,B,1814.5997999235988,Correct,sub_001_day_10_data.csv,1,300,80.0,Training at home,,,,,,,,,,,,,
1,9,2020,A,13.967415285380518,33.33848998012335,0.698370764269026,0.5236797760166622,A,543.6208001337945,Correct,sub_001_day_10_data.csv,1,300,80.0,Training at home,,,,,,,,,,,,,
1,9,2021,B,30.759420781480745,15.532789833828712,1.537971039074037,0.2439884921585525,A,771.1244998499751,Incorrect,sub_001_day_10_data.csv,0,300,80.0,Training at home,,,,,,,,,,,,,
1,9,2022,A,50.13630542516721,74.41528836180568,2.5068152712583607,1.168912616161074,A,482.2574998252094,Correct,sub_001_day_10_data.csv,1,300,80.0,Training at home,,,,,,,,,,,,,
1,9,2023,B,69.22955621349597,43.206010907799254,3.4614778106747988,0.678678432294313,B,672.2562997601926,Correct,sub_001_day_10_data.csv,1,300,80.0,Training at home,,,,,,,,,,,,,
1,9,2024,B,42.1809755882243,25.841392605285225,2.109048779411215,0.4059156458364683,B,1920.3237001784144,Correct,sub_001_day_10_data.csv,1,300,80.0,Training at home,,,,,,,,,,,,,
1,9,2025,B,58.51177326496533,45.425420686698686,2.9255886632482664,0.713540839577792,A,1053.1031000427902,Incorrect,sub_001_day_10_data.csv,0,300,81.0,Training at home,,,,,,,,,,,,,
1,9,2026,B,69.77057034159385,57.80468338906218,3.4885285170796925,0.9079938433908084,B,2765.1959997601807,Correct,sub_001_day_10_data.csv,1,300,81.0,Training at home,,,,,,,,,,,,,
1,9,2027,A,63.18974277928578,84.75427176125918,3.159487138964289,1.3313169876276234,A,1165.2481001801789,Correct,sub_001_day_10_data.csv,1,300,81.0,Training at home,,,,,,,,,,,,,
1,9,2028,B,75.17860975797967,50.35481165244903,3.7589304878989833,0.790971531801158,A,663.9869003556669,Incorrect,sub_001_day_10_data.csv,0,300,81.0,Training at home,,,,,,,,,,,,,
1,9,2029,A,24.54382978244601,53.968770299934135,1.2271914891223006,0.8477394614877404,A,673.8061001524329,Correct,sub_001_day_10_data.csv,1,300,81.0,Training at home,,,,,,,,,,,,,
1,9,2030,B,76.24968394006326,64.96798681110849,3.812484197003163,1.0205147504214849,A,783.5029000416398,Incorrect,sub_001_day_10_data.csv,0,300,81.0,Training at home,,,,,,,,,,,,,
1,9,2031,A,62.63569682255543,83.96509330366952,3.1317848411277716,1.3189206014039483,A,704.8944002017379,Correct,sub_001_day_10_data.csv,1,300,81.0,Training at home,,,,,,,,,,,,,
1,9,2032,B,76.65524992733957,46.973377887164034,3.8327624963669784,0.7378560944230589,B,1230.7289000600576,Correct,sub_001_day_10_data.csv,1,300,81.0,Training at home,,,,,,,,,,,,,
1,9,2033,B,85.59932971324024,58.482556274271545,4.279966485662012,0.9186418457720158,B,826.3069000095129,Correct,sub_001_day_10_data.csv,1,300,81.0,Training at home,,,,,,,,,,,,,
1,9,2034,B,62.855862855107944,34.91875697148553,3.142793142755397,0.5485025518705315,B,2770.5674995668232,Correct,sub_001_day_10_data.csv,1,300,81.0,Training at home,,,,,,,,,,,,,
1,9,2035,A,37.41128137821934,58.676927074032534,1.870564068910967,0.9216950151550232,A,13577.888700179756,Correct,sub_001_day_10_data.csv,1,300,81.0,Training at home,,,,,,,,,,,,,
1,9,2036,A,46.21696150690416,55.740962529025296,2.3108480753452083,0.8755769919260489,B,1843.5216001234949,Incorrect,sub_001_day_10_data.csv,0,300,81.0,Training at home,,,,,,,,,,,,,
1,9,2037,B,67.98103769038818,52.57706242193067,3.399051884519409,0.8258785652603469,B,459.8731999285519,Correct,sub_001_day_10_data.csv,1,300,81.0,Training at home,,,,,,,,,,,,,
1,9,2038,A,29.400121549679703,51.30217768422006,1.4700060774839852,0.8058527226295199,B,3123.375100083649,Incorrect,sub_001_day_10_data.csv,0,300,81.0,Training at home,,,,,,,,,,,,,
1,9,2039,A,59.104008162691215,85.09607257091747,2.955200408134561,1.3366859821906911,A,1308.6335002444685,Correct,sub_001_day_10_data.csv,1,300,81.0,Training at home,,,,,,,,,,,,,
1,9,2040,B,56.84224619736308,41.76666696255948,2.842112309868154,0.6560692704725419,B,565.3857998549938,Correct,sub_001_day_10_data.csv,1,300,81.0,Training at home,,,,,,,,,,,,,
1,9,2041,A,25.271876352149366,46.18475652965921,1.2635938176074684,0.725468459107053,A,505.842300131917,Correct,sub_001_day_10_data.csv,1,300,81.0,Training at home,,,,,,,,,,,,,
1,9,2042,A,38.75036832737774,61.88319734357219,1.9375184163688872,0.9720589907760688,A,826.7248999327421,Correct,sub_001_day_10_data.csv,1,300,81.0,Training at home,,,,,,,,,,,,,
1,9,2043,B,42.24464388478614,24.84413706852787,2.112232194239307,0.3902507924963251,A,830.0434998236597,Incorrect,sub_001_day_10_data.csv,0,300,81.0,Training at home,,,,,,,,,,,,,
1,9,2044,A,38.072425116863855,71.17344717868615,1.9036212558431929,1.1179898939361077,A,619.7869996540248,Correct,sub_001_day_10_data.csv,1,300,81.0,Training at home,,,,,,,,,,,,,
1,9,2045,B,48.04823466125026,23.378612956325128,2.402411733062513,0.3672303935735508,B,565.8679003827274,Correct,sub_001_day_10_data.csv,1,300,81.0,Training at home,,,,,,,,,,,,,
1,9,2046,B,44.103131040808705,25.175983422352083,2.2051565520404353,0.3954634228327985,B,548.0002998374403,Correct,sub_001_day_10_data.csv,1,300,81.0,Training at home,,,,,,,,,,,,,
1,9,2047,A,20.246892212895546,49.68548258681365,1.012344610644777,0.7804577354239868,A,5993.778099771589,Correct,sub_001_day_10_data.csv,1,300,81.0,Training at home,,,,,,,,,,,,,
1,9,2048,B,82.35207104315059,61.94490701024398,4.117603552157529,0.9730283239534268,A,660.1811000145972,Incorrect,sub_001_day_10_data.csv,0,300,81.0,Training at home,,,,,,,,,,,,,
1,9,2049,A,63.45197371944693,75.57823490870774,3.1725986859723467,1.1871801378023994,B,391.2474997341633,Incorrect,sub_001_day_10_data.csv,0,300,81.0,Training at home,,,,,,,,,,,,,
1,9,2050,B,46.720564376269245,34.60149065288573,2.3360282188134622,0.5435189441918086,B,572.3537998273969,Correct,sub_001_day_10_data.csv,1,300,82.0,Training at home,,,,,,,,,,,,,
1,9,2051,A,25.757971627945803,58.07752633616099,1.28789858139729,0.9122796503817554,A,1164.741300046444,Correct,sub_001_day_10_data.csv,1,300,82.0,Training at home,,,,,,,,,,,,,
1,9,2052,B,50.808089502556925,28.87893487944057,2.540404475127846,0.4536292483037427,B,628.7996000610292,Correct,sub_001_day_10_data.csv,1,300,82.0,Training at home,,,,,,,,,,,,,
1,9,2053,B,69.54237080833241,37.35113314747251,3.4771185404166203,0.5867102274967693,B,655.2578997798264,Correct,sub_001_day_10_data.csv,1,300,82.0,Training at home,,,,,,,,,,,,,
1,9,2054,B,43.23379475205067,15.765675694580596,2.1616897376025337,0.2476466547048678,B,2996.6007000766695,Correct,sub_001_day_10_data.csv,1,300,82.0,Training at home,,,,,,,,,,,,,
1,9,2055,A,65.83913470055899,84.88700479264132,3.2919567350279495,1.3334019532090176,B,570.5690002068877,Incorrect,sub_001_day_10_data.csv,0,300,82.0,Training at home,,,,,,,,,,,,,
1,9,2056,B,32.292653518705556,16.45750868782042,1.6146326759352778,0.2585139419502342,B,643.1203996762633,Correct,sub_001_day_10_data.csv,1,300,82.0,Training at home,,,,,,,,,,,,,
1,9,2057,B,52.07277223842817,27.035931832531475,2.6036386119214088,0.4246794241401765,B,2181.843699887395,Correct,sub_001_day_10_data.csv,1,300,82.0,Training at home,,,,,,,,,,,,,
1,9,2058,B,70.21205366395132,43.92278195823588,3.5106026831975665,0.6899374456261007,B,533.9816999621689,Correct,sub_001_day_10_data.csv,1,300,82.0,Training at home,,,,,,,,,,,,,
1,9,2059,A,41.04716208292545,57.70487405794736,2.052358104146273,0.9064260420838584,B,1113.2418997585771,Incorrect,sub_001_day_10_data.csv,0,300,82.0,Training at home,,,,,,,,,,,,,
1,9,2060,A,33.62244717428462,52.4806699643013,1.681122358714231,0.8243644360765975,B,27529.464799910784,Incorrect,sub_001_day_10_data.csv,0,300,82.0,Training at home,,,,,,,,,,,,,
1,9,2061,B,46.16112526353996,38.69539853283937,2.308056263176998,0.607825898792487,B,753.0486998148263,Correct,sub_001_day_10_data.csv,1,300,82.0,Training at home,,,,,,,,,,,,,
1,9,2062,A,32.84085637345693,45.82964938217941,1.6420428186728464,0.7198904490782542,B,613.695599604398,Incorrect,sub_001_day_10_data.csv,0,300,82.0,Training at home,,,,,,,,,,,,,
1,9,2063,A,64.05403465480934,77.09035064460636,3.202701732740467,1.2109323962387826,A,757.6739997602999,Correct,sub_001_day_10_data.csv,1,300,82.0,Training at home,,,,,,,,,,,,,
1,9,2064,A,25.470267831915713,55.23688579140166,1.2735133915957857,0.8676589730472293,B,2189.6009002812207,Incorrect,sub_001_day_10_data.csv,0,300,82.0,Training at home,,,,,,,,,,,,,
1,9,2065,B,71.3132800171163,42.40350757157416,3.565664000855815,0.6660727393664827,B,749.7352999635041,Correct,sub_001_day_10_data.csv,1,300,82.0,Training at home,,,,,,,,,,,,,
1,9,2066,B,63.47038473437523,50.86368469470046,3.1735192367187612,0.7989648908568928,B,727.7053003199399,Correct,sub_001_day_10_data.csv,1,300,82.0,Training at home,,,,,,,,,,,,,
1,9,2067,B,50.541364165987645,37.15473798562946,2.5270682082993825,0.5836252595085357,A,2582.307799719274,Incorrect,sub_001_day_10_data.csv,0,300,82.0,Training at home,,,,,,,,,,,,,
1,9,2068,B,63.212394053956345,39.56012150822156,3.1606197026978173,0.6214089355267421,B,535.5746001005173,Correct,sub_001_day_10_data.csv,1,300,82.0,Training at home,,,,,,,,,,,,,
1,9,2069,B,63.49521067657847,53.39381338837132,3.174760533828924,0.8387080594402584,B,750.4653003998101,Correct,sub_001_day_10_data.csv,1,300,82.0,Training at home,,,,,,,,,,,,,
1,9,2070,A,30.686149080600224,57.11167053090352,1.534307454030011,0.8971080228706361,B,2083.84310035035,Incorrect,sub_001_day_10_data.csv,0,300,82.0,Training at home,,,,,,,,,,,,,
1,9,2071,A,57.630100836728126,67.79179706014747,2.8815050418364065,1.0648710580890473,A,574.6160000562668,Correct,sub_001_day_10_data.csv,1,300,82.0,Training at home,,,,,,,,,,,,,
1,9,2072,A,61.03535893345635,77.52341336596332,3.051767946672818,1.2177349295585758,B,2906.2742004171014,Incorrect,sub_001_day_10_data.csv,0,300,82.0,Training at home,,,,,,,,,,,,,
1,9,2073,B,49.46096588052271,35.95103150545388,2.4730482940261354,0.5647174823325454,B,501.5809996984899,Correct,sub_001_day_10_data.csv,1,300,82.0,Training at home,,,,,,,,,,,,,
1,9,2074,A,20.623981339365795,50.559912707056,1.0311990669682898,0.7941932516331418,A,3179.3255996890366,Correct,sub_001_day_10_data.csv,1,300,82.0,Training at home,,,,,,,,,,,,,
1,9,2075,B,42.78405993599954,20.288313778534327,2.139202996799977,0.3186880876018401,B,1395.3868998214602,Correct,sub_001_day_10_data.csv,1,300,83.0,Training at home,,,,,,,,,,,,,
1,9,2076,A,26.28112446144816,44.84084474502156,1.3140562230724078,0.7043583421586012,B,1219.0314000472426,Incorrect,sub_001_day_10_data.csv,0,300,83.0,Training at home,,,,,,,,,,,,,
1,9,2077,B,73.74414390920316,43.930839888994136,3.687207195460158,0.6900640193064671,B,596.2721998803318,Correct,sub_001_day_10_data.csv,1,300,83.0,Training at home,,,,,,,,,,,,,
1,9,2078,A,42.4258150640015,67.27733194567486,2.121290753200075,1.0567898589682705,A,805.137800052762,Correct,sub_001_day_10_data.csv,1,300,83.0,Training at home,,,,,,,,,,,,,
1,9,2079,B,88.53782521129703,67.03842877564834,4.426891260564852,1.053037176748897,A,2560.419599991292,Incorrect,sub_001_day_10_data.csv,0,300,83.0,Training at home,,,,,,,,,,,,,
1,9,2080,B,66.81410225360149,51.28000580305741,3.340705112680075,0.8055044475346356,B,1296.9542001374066,Correct,sub_001_day_10_data.csv,1,300,83.0,Training at home,,,,,,,,,,,,,
1,9,2081,B,44.3920694756882,25.133359077088585,2.21960347378441,0.3947938811830792,A,862.1323998086154,Incorrect,sub_001_day_10_data.csv,0,300,83.0,Training at home,,,,,,,,,,,,,
1,9,2082,B,72.35122139486172,62.582635713300206,3.617561069743086,0.9830457429959508,B,888.8985998928547,Correct,sub_001_day_10_data.csv,1,300,83.0,Training at home,,,,,,,,,,,,,
1,9,2083,A,58.89006292277352,75.59779458517849,2.944503146138676,1.187487380481935,A,1129.8890002071855,Correct,sub_001_day_10_data.csv,1,300,83.0,Training at home,,,,,,,,,,,,,
1,9,2084,A,33.52157567709457,61.28085482933363,1.6760787838547284,0.9625974166876856,A,8508.625699672848,Correct,sub_001_day_10_data.csv,1,300,83.0,Training at home,,,,,,,,,,,,,
1,9,2085,B,45.76402301156523,19.371362921290903,2.288201150578262,0.304284657217746,B,1224.4114000350237,Correct,sub_001_day_10_data.csv,1,300,83.0,Training at home,,,,,,,,,,,,,
1,9,2086,A,42.82808302134381,68.62689268014225,2.1414041510671904,1.0779887094131502,A,728.7242999300361,Correct,sub_001_day_10_data.csv,1,300,83.0,Training at home,,,,,,,,,,,,,
1,9,2087,B,69.93022682016124,39.74818964333205,3.4965113410080617,0.6243631028849294,A,25536.147099919617,Incorrect,sub_001_day_10_data.csv,0,300,83.0,Training at home,,,,,,,,,,,,,
1,9,2088,B,61.84601463323501,31.334566147913097,3.09230073166175,0.492202214068536,A,2797.3153996281326,Incorrect,sub_001_day_10_data.csv,0,300,83.0,Training at home,,,,,,,,,,,,,
1,9,2089,A,30.508340696330293,55.95173957746415,1.5254170348165146,0.8788878700606533,A,911.7445996962488,Correct,sub_001_day_10_data.csv,1,300,83.0,Training at home,,,,,,,,,,,,,
1,9,2090,A,56.902509228174,80.92172270524765,2.8451254614086996,1.271115447833182,A,505.5891000665724,Correct,sub_001_day_10_data.csv,1,300,83.0,Training at home,,,,,,,,,,,,,
1,9,2091,A,53.43486183584723,81.80064410154529,2.6717430917923615,1.2849215128416396,A,478.615100029856,Correct,sub_001_day_10_data.csv,1,300,83.0,Training at home,,,,,,,,,,,,,
1,9,2092,B,47.49916570350709,21.990233934592457,2.3749582851753543,0.3454217868981831,B,2136.2433996982872,Correct,sub_001_day_10_data.csv,1,300,83.0,Training at home,,,,,,,,,,,,,
1,9,2093,B,41.418536871165024,17.321376944538223,2.0709268435582513,0.2720835527951044,B,814.2344001680613,Correct,sub_001_day_10_data.csv,1,300,83.0,Training at home,,,,,,,,,,,,,
1,9,2094,A,43.762149058461134,58.51697612343256,2.188107452923057,0.9191825114983256,A,494.5763000287115,Correct,sub_001_day_10_data.csv,1,300,83.0,Training at home,,,,,,,,,,,,,
1,9,2095,A,14.559595812139891,35.15843248809473,0.7279797906069946,0.5522673660816556,B,453.1147000379861,Incorrect,sub_001_day_10_data.csv,0,300,83.0,Training at home,,,,,,,,,,,,,
1,9,2096,B,44.17806780298095,29.210709553868536,2.208903390149047,0.4588407527028929,B,1723.107900004834,Correct,sub_001_day_10_data.csv,1,300,83.0,Training at home,,,,,,,,,,,,,
1,9,2097,B,47.33939252450635,31.177821935793865,2.366969626225318,0.4897400817421036,A,877.6034996844828,Incorrect,sub_001_day_10_data.csv,0,300,83.0,Training at home,,,,,,,,,,,,,
1,9,2098,A,50.40904874229282,58.25640182148161,2.5204524371146406,0.9150894199347084,A,1193.275200203061,Correct,sub_001_day_10_data.csv,1,300,83.0,Training at home,,,,,,,,,,,,,
1,9,2099,A,51.78499809091868,78.25969267515471,2.589249904545934,1.2293003779023048,A,1504.2774002067745,Correct,sub_001_day_10_data.csv,1,300,83.0,Training at home,,,,,,,,,,,,,
