subject,day,trial,cat,x,y,xt,yt,resp,rt,fb,f_name,acc,n_trials,block,session_type,ns_left_digit,ns_right_digit,ns_left_size,ns_right_size,ns_congruent,ns_cue,ns_correct_side,ns_resp,ns_rt,ns_fb,acc_stroop,acc_stroop_mean,resp_key
1,5,900,A,64.6932192247544,78.43474688007103,3.23466096123772,1.2320501229230305,B,863.4676998481154,Incorrect,sub_001_day_05_data.csv,0,300,36.0,Training at home,,,,,,,,,,,,,
1,5,901,A,24.03716212589236,44.66178775223764,1.201858106294618,0.7015457214930819,A,959.1022999957204,Correct,sub_001_day_05_data.csv,1,300,36.0,Training at home,,,,,,,,,,,,,
1,5,902,A,31.545024925962743,57.097308100419006,1.577251246298137,0.8968824183401466,A,523.8966001197696,Correct,sub_001_day_05_data.csv,1,300,36.0,Training at home,,,,,,,,,,,,,
1,5,903,A,28.95778967660018,41.0787103088921,1.447889483830009,0.6452628726267936,B,903.1009003520012,Incorrect,sub_001_day_05_data.csv,0,300,36.0,Training at home,,,,,,,,,,,,,
1,5,904,B,84.29584278659055,69.49022359689064,4.2147921393295285,1.0915498797415186,B,660.8193004503846,Correct,sub_001_day_05_data.csv,1,300,36.0,Training at home,,,,,,,,,,,,,
1,5,905,B,86.62276835251402,66.45485289377831,4.3311384176257,1.0438703882324218,B,632.0543996989727,Correct,sub_001_day_05_data.csv,1,300,36.0,Training at home,,,,,,,,,,,,,
1,5,906,B,77.03051114757835,62.07894558149713,3.8515255573789178,0.9751337969071596,B,516.0964000970125,Correct,sub_001_day_05_data.csv,1,300,36.0,Training at home,,,,,,,,,,,,,
1,5,907,B,60.531301265132605,43.44098490212361,3.0265650632566303,0.6823693951660833,A,1183.465200010687,Incorrect,sub_001_day_05_data.csv,0,300,36.0,Training at home,,,,,,,,,,,,,
1,5,908,A,30.37288473435983,44.194465251832064,1.5186442367179915,0.6942050368224251,A,1374.2770999670029,Correct,sub_001_day_05_data.csv,1,300,36.0,Training at home,,,,,,,,,,,,,
1,5,909,A,17.158130872174468,34.99144549016802,0.8579065436087234,0.5496443404519977,A,985.324100125581,Correct,sub_001_day_05_data.csv,1,300,36.0,Training at home,,,,,,,,,,,,,
1,5,910,A,49.256713051783194,74.57096978143484,2.4628356525891597,1.171358054182111,B,5562.395500019193,Incorrect,sub_001_day_05_data.csv,0,300,36.0,Training at home,,,,,,,,,,,,,
1,5,911,B,63.153409589819034,40.76669347347494,3.157670479490952,0.6403617236370792,B,561.4545997232199,Correct,sub_001_day_05_data.csv,1,300,36.0,Training at home,,,,,,,,,,,,,
1,5,912,A,45.415018022046965,74.67899529452549,2.2707509011023483,1.17305491497374,A,827.8211997821927,Correct,sub_001_day_05_data.csv,1,300,36.0,Training at home,,,,,,,,,,,,,
1,5,913,A,47.77893597230331,69.26985211922987,2.388946798615166,1.0880882926651194,A,1752.4403003044426,Correct,sub_001_day_05_data.csv,1,300,36.0,Training at home,,,,,,,,,,,,,
1,5,914,A,28.41431556244896,56.13822634081214,1.4207157781224482,0.8818171972892822,A,705.8756998740137,Correct,sub_001_day_05_data.csv,1,300,36.0,Training at home,,,,,,,,,,,,,
1,5,915,A,43.30178698142719,62.65697429665587,2.16508934907136,0.984213450732693,B,603.010299615562,Incorrect,sub_001_day_05_data.csv,0,300,36.0,Training at home,,,,,,,,,,,,,
1,5,916,B,45.03002533751902,21.00216197237196,2.251501266875951,0.3299011888095334,B,562.5249999575317,Correct,sub_001_day_05_data.csv,1,300,36.0,Training at home,,,,,,,,,,,,,
1,5,917,B,62.00087797015348,36.93102230253556,3.1000438985076744,0.5801111417760325,A,8405.303000006825,Incorrect,sub_001_day_05_data.csv,0,300,36.0,Training at home,,,,,,,,,,,,,
1,5,918,A,52.99441805024438,79.20396549566519,2.6497209025122186,1.244132980681806,B,613.2585001178086,Incorrect,sub_001_day_05_data.csv,0,300,36.0,Training at home,,,,,,,,,,,,,
1,5,919,B,33.17724881721025,15.49402924003266,1.6588624408605126,0.2433796421749602,B,878.4829000942409,Correct,sub_001_day_05_data.csv,1,300,36.0,Training at home,,,,,,,,,,,,,
1,5,920,B,67.82035193548569,50.03847560162502,3.3910175967742844,0.7860025367344862,A,147.4508997052908,Incorrect,sub_001_day_05_data.csv,0,300,36.0,Training at home,,,,,,,,,,,,,
1,5,921,A,11.515704682689648,33.20139792311787,0.5757852341344823,0.5215263390208926,A,506.2350002117455,Correct,sub_001_day_05_data.csv,1,300,36.0,Training at home,,,,,,,,,,,,,
1,5,922,B,85.6678282800429,57.23363526309915,4.2833914140021445,0.89902384040395,B,694.8150000534952,Correct,sub_001_day_05_data.csv,1,300,36.0,Training at home,,,,,,,,,,,,,
1,5,923,A,63.83674088310955,89.33735746031297,3.1918370441554775,1.4033079294422226,A,880.0316997803748,Correct,sub_001_day_05_data.csv,1,300,36.0,Training at home,,,,,,,,,,,,,
1,5,924,B,78.94082558148253,53.8136463961386,3.947041279074126,0.8453027809049394,B,1188.0840002559123,Correct,sub_001_day_05_data.csv,1,300,36.0,Training at home,,,,,,,,,,,,,
1,5,925,B,38.16510327211641,21.01267768127436,1.9082551636058207,0.3300663691787087,B,1093.3523001149297,Correct,sub_001_day_05_data.csv,1,300,37.0,Training at home,,,,,,,,,,,,,
1,5,926,A,34.78384209325205,53.323753111638176,1.7391921046626024,0.8376075551867918,A,567.5931996665895,Correct,sub_001_day_05_data.csv,1,300,37.0,Training at home,,,,,,,,,,,,,
1,5,927,A,51.95974950408191,79.7791643060423,2.5979874752040955,1.2531681824669778,A,852.0087003707886,Correct,sub_001_day_05_data.csv,1,300,37.0,Training at home,,,,,,,,,,,,,
1,5,928,A,43.88533651155947,55.692283153985706,2.194266825577974,0.8748123380910204,A,1074.0535999648273,Correct,sub_001_day_05_data.csv,1,300,37.0,Training at home,,,,,,,,,,,,,
1,5,929,A,38.759176484895434,48.36850724012546,1.9379588242447716,0.7597707350534144,A,796.1540999822319,Correct,sub_001_day_05_data.csv,1,300,37.0,Training at home,,,,,,,,,,,,,
1,5,930,A,50.47191447472094,74.86760874270743,2.523595723736047,1.1760176480896232,A,1348.0266002006829,Correct,sub_001_day_05_data.csv,1,300,37.0,Training at home,,,,,,,,,,,,,
1,5,931,A,31.25895674802277,54.53521293788535,1.5629478374011383,0.8566371216380781,A,650.4426999017596,Correct,sub_001_day_05_data.csv,1,300,37.0,Training at home,,,,,,,,,,,,,
1,5,932,A,59.30109697690483,68.48060841817508,2.9650548488452415,1.075690881599491,A,1961.1672000028193,Correct,sub_001_day_05_data.csv,1,300,37.0,Training at home,,,,,,,,,,,,,
1,5,933,A,30.82850203527493,40.71148257318568,1.5414251017637466,0.639494472843345,B,2178.0048003420234,Incorrect,sub_001_day_05_data.csv,0,300,37.0,Training at home,,,,,,,,,,,,,
1,5,934,B,43.50665165714549,32.715543977698275,2.1753325828572745,0.5138945630926535,A,1772.5026002153754,Incorrect,sub_001_day_05_data.csv,0,300,37.0,Training at home,,,,,,,,,,,,,
1,5,935,B,75.11937658573336,52.591561073105645,3.755968829286668,0.8261063095404382,B,597.6719004102051,Correct,sub_001_day_05_data.csv,1,300,37.0,Training at home,,,,,,,,,,,,,
1,5,936,B,39.51518946793601,12.130515324000338,1.9757594733968005,0.1905456891306893,B,739.3917003646493,Correct,sub_001_day_05_data.csv,1,300,37.0,Training at home,,,,,,,,,,,,,
1,5,937,B,87.28376224501073,61.14258235020893,4.364188112250536,0.9604254376646268,B,726.5444998629391,Correct,sub_001_day_05_data.csv,1,300,37.0,Training at home,,,,,,,,,,,,,
1,5,938,A,46.7149667520969,77.50265134232268,2.335748337604845,1.2174088004538604,A,1126.7073997296393,Correct,sub_001_day_05_data.csv,1,300,37.0,Training at home,,,,,,,,,,,,,
1,5,939,B,72.56906196400448,41.03241773197771,3.628453098200224,0.6445357105290438,A,1276.1809998191893,Incorrect,sub_001_day_05_data.csv,0,300,37.0,Training at home,,,,,,,,,,,,,
1,5,940,A,45.72648070636214,63.85388268759441,2.286324035318107,1.0030144437726554,A,772.3107999190688,Correct,sub_001_day_05_data.csv,1,300,37.0,Training at home,,,,,,,,,,,,,
1,5,941,B,44.06590020106657,21.39145665918998,2.2032950100533286,0.3360162154504785,B,812.7919998951256,Correct,sub_001_day_05_data.csv,1,300,37.0,Training at home,,,,,,,,,,,,,
1,5,942,B,60.67579598665258,39.46668285425602,3.033789799332629,0.6199412045824448,B,632.2087002918124,Correct,sub_001_day_05_data.csv,1,300,37.0,Training at home,,,,,,,,,,,,,
1,5,943,A,34.26330281082418,57.46553372879911,1.713165140541209,0.9026664929850589,A,636.977500282228,Correct,sub_001_day_05_data.csv,1,300,37.0,Training at home,,,,,,,,,,,,,
1,5,944,A,42.18753585528178,52.92750101398293,2.109376792764089,0.8313832417919755,A,1678.8575001992283,Correct,sub_001_day_05_data.csv,1,300,37.0,Training at home,,,,,,,,,,,,,
1,5,945,B,72.14780650601575,46.67084884547697,3.607390325300788,0.7331039793487506,B,1402.1338997408748,Correct,sub_001_day_05_data.csv,1,300,37.0,Training at home,,,,,,,,,,,,,
1,5,946,B,53.83255242743768,41.626546706384445,2.691627621371884,0.6538682666354488,A,1848.107900004834,Incorrect,sub_001_day_05_data.csv,0,300,37.0,Training at home,,,,,,,,,,,,,
1,5,947,A,34.1102306809448,59.97210860283559,1.70551153404724,0.9420396790347876,A,679.8883997835219,Correct,sub_001_day_05_data.csv,1,300,37.0,Training at home,,,,,,,,,,,,,
1,5,948,A,47.12117965110909,59.753680896345095,2.3560589825554543,0.9386086246445324,B,1750.1199999824166,Incorrect,sub_001_day_05_data.csv,0,300,37.0,Training at home,,,,,,,,,,,,,
1,5,949,A,59.531817561490215,68.66822430088878,2.976590878074511,1.0786379449936414,A,4476.058499887586,Correct,sub_001_day_05_data.csv,1,300,37.0,Training at home,,,,,,,,,,,,,
1,5,950,B,66.82908576082048,36.561934805486175,3.3414542880410236,0.5743135289297217,A,884.7516998648643,Incorrect,sub_001_day_05_data.csv,0,300,38.0,Training at home,,,,,,,,,,,,,
1,5,951,A,20.005504260647943,43.75598409514349,1.0002752130323973,0.687317390919473,A,622.6196000352502,Correct,sub_001_day_05_data.csv,1,300,38.0,Training at home,,,,,,,,,,,,,
1,5,952,A,42.17816933436944,48.9862572510546,2.108908466718472,0.7694743295338644,B,750.8015995845199,Incorrect,sub_001_day_05_data.csv,0,300,38.0,Training at home,,,,,,,,,,,,,
1,5,953,B,72.7922824281346,48.920873587396336,3.6396141214067304,0.7684472853467963,B,776.5771998092532,Correct,sub_001_day_05_data.csv,1,300,38.0,Training at home,,,,,,,,,,,,,
1,5,954,A,35.30386587860372,43.21185306216691,1.765193293930186,0.6787702006405258,A,557.2166000492871,Correct,sub_001_day_05_data.csv,1,300,38.0,Training at home,,,,,,,,,,,,,
1,5,955,B,41.42904229574883,21.756703782992822,2.0714521147874416,0.3417535038548975,A,1387.6749998889863,Incorrect,sub_001_day_05_data.csv,0,300,38.0,Training at home,,,,,,,,,,,,,
1,5,956,B,89.46345361560786,67.73546656811425,4.473172680780393,1.0639862207893236,A,1137.5653999857605,Incorrect,sub_001_day_05_data.csv,0,300,38.0,Training at home,,,,,,,,,,,,,
1,5,957,A,44.6248288026172,74.65559230289499,2.23124144013086,1.172687301640848,A,1013.0529999732972,Correct,sub_001_day_05_data.csv,1,300,38.0,Training at home,,,,,,,,,,,,,
1,5,958,B,67.60165461848564,56.49485670283204,3.3800827309242822,0.8874191339161261,B,685.7926999218762,Correct,sub_001_day_05_data.csv,1,300,38.0,Training at home,,,,,,,,,,,,,
1,5,959,B,44.13363572469479,15.22790984018307,2.2066817862347397,0.2391994484172342,A,1020.7980000413954,Incorrect,sub_001_day_05_data.csv,0,300,38.0,Training at home,,,,,,,,,,,,,
1,5,960,A,54.43136499615629,68.50929672568438,2.7215682498078144,1.0761415164800667,A,882.7507002279162,Correct,sub_001_day_05_data.csv,1,300,38.0,Training at home,,,,,,,,,,,,,
1,5,961,B,84.96272444667802,64.04736901812433,4.248136222333901,1.0060537199454695,B,636.5296002477407,Correct,sub_001_day_05_data.csv,1,300,38.0,Training at home,,,,,,,,,,,,,
1,5,962,A,44.37463502837005,57.51461243947632,2.218731751418502,0.9034374195696148,A,811.9411999359727,Correct,sub_001_day_05_data.csv,1,300,38.0,Training at home,,,,,,,,,,,,,
1,5,963,B,49.34712879864296,40.29550267774745,2.467356439932148,0.6329602759255961,A,1129.3138000182807,Incorrect,sub_001_day_05_data.csv,0,300,38.0,Training at home,,,,,,,,,,,,,
1,5,964,B,75.74063656154726,53.102154378072456,3.787031828077363,0.8341266904197174,B,450.1125998795033,Correct,sub_001_day_05_data.csv,1,300,38.0,Training at home,,,,,,,,,,,,,
1,5,965,B,48.03095339939478,39.68211229210157,2.401547669969739,0.6233251622789575,A,1803.6960000172255,Incorrect,sub_001_day_05_data.csv,0,300,38.0,Training at home,,,,,,,,,,,,,
1,5,966,B,77.6371205707072,53.330967235516766,3.88185602853536,0.8377208743796872,B,846.3853001594543,Correct,sub_001_day_05_data.csv,1,300,38.0,Training at home,,,,,,,,,,,,,
1,5,967,B,75.62228730687731,62.43453497427218,3.7811143653438655,0.9807193820273424,B,762.2247999534011,Correct,sub_001_day_05_data.csv,1,300,38.0,Training at home,,,,,,,,,,,,,
1,5,968,B,63.59037907462849,32.4110890110471,3.179518953731424,0.5091121956597523,B,578.447500243783,Correct,sub_001_day_05_data.csv,1,300,38.0,Training at home,,,,,,,,,,,,,
1,5,969,B,53.186845492743664,28.732949016686668,2.6593422746371833,0.4513361077339645,B,4678.382500074804,Correct,sub_001_day_05_data.csv,1,300,38.0,Training at home,,,,,,,,,,,,,
1,5,970,A,57.42080568852042,77.08561128305087,2.871040284426021,1.210857950521555,A,5231.056100223213,Correct,sub_001_day_05_data.csv,1,300,38.0,Training at home,,,,,,,,,,,,,
1,5,971,B,66.57098230491124,35.19344662728346,3.328549115245562,0.5528173668938909,B,1313.5731001384556,Correct,sub_001_day_05_data.csv,1,300,38.0,Training at home,,,,,,,,,,,,,
1,5,972,B,68.11882131980305,45.62004433119894,3.4059410659901523,0.7165979806366766,A,580.7817000895739,Incorrect,sub_001_day_05_data.csv,0,300,38.0,Training at home,,,,,,,,,,,,,
1,5,973,A,38.53853944620979,62.22723394120306,1.9269269723104896,0.9774631050144847,A,652.4233003146946,Correct,sub_001_day_05_data.csv,1,300,38.0,Training at home,,,,,,,,,,,,,
1,5,974,B,86.9013782325467,63.9582028101611,4.345068911627335,1.0046531004260408,B,580.5525002069771,Correct,sub_001_day_05_data.csv,1,300,38.0,Training at home,,,,,,,,,,,,,
1,5,975,A,48.601131642819695,75.69635976763765,2.4300565821409847,1.189035638747502,A,632.7872001565993,Correct,sub_001_day_05_data.csv,1,300,39.0,Training at home,,,,,,,,,,,,,
1,5,976,A,51.68498247041795,70.01427457777207,2.5842491235208973,1.0997816532997369,B,1355.5542002432048,Incorrect,sub_001_day_05_data.csv,0,300,39.0,Training at home,,,,,,,,,,,,,
1,5,977,A,61.90371610509818,83.87584785027144,3.095185805254909,1.31751873710014,B,598.902199883014,Incorrect,sub_001_day_05_data.csv,0,300,39.0,Training at home,,,,,,,,,,,,,
1,5,978,A,10.413724635488595,33.26972670663517,0.5206862317744297,0.522599645042526,A,572.7618997916579,Correct,sub_001_day_05_data.csv,1,300,39.0,Training at home,,,,,,,,,,,,,
1,5,979,A,51.896511999275745,62.90756864249028,2.5948255999637873,0.9881497775122156,A,807.7024999074638,Correct,sub_001_day_05_data.csv,1,300,39.0,Training at home,,,,,,,,,,,,,
1,5,980,B,60.12938442653782,38.51303796853375,3.006469221326891,0.6049613857468521,B,1938.3562002331016,Correct,sub_001_day_05_data.csv,1,300,39.0,Training at home,,,,,,,,,,,,,
1,5,981,A,35.05990043500854,62.31575047613739,1.7529950217504269,0.9788535194938394,A,827.4274999275804,Correct,sub_001_day_05_data.csv,1,300,39.0,Training at home,,,,,,,,,,,,,
1,5,982,B,45.65977772249961,29.83591468618259,2.2829888861249805,0.4686614519562153,B,415.7954002730549,Correct,sub_001_day_05_data.csv,1,300,39.0,Training at home,,,,,,,,,,,,,
1,5,983,A,28.37272950921018,60.633669630568434,1.4186364754605092,0.9524314553579216,A,568.8725002110004,Correct,sub_001_day_05_data.csv,1,300,39.0,Training at home,,,,,,,,,,,,,
1,5,984,B,37.88839466677061,28.15912001079918,1.8944197333385304,0.4423224227874002,B,839.2405998893082,Correct,sub_001_day_05_data.csv,1,300,39.0,Training at home,,,,,,,,,,,,,
1,5,985,A,27.77477675133114,37.41388487801232,1.3887388375665568,0.5876959293750887,A,518.9895001240075,Correct,sub_001_day_05_data.csv,1,300,39.0,Training at home,,,,,,,,,,,,,
1,5,986,A,32.73417872973363,48.47585912739388,1.6367089364866814,0.7614570145553716,A,594.7401998564601,Correct,sub_001_day_05_data.csv,1,300,39.0,Training at home,,,,,,,,,,,,,
1,5,987,A,48.209761982286864,56.56971871786876,2.4104880991143434,0.8885950636984875,B,936.0647001303732,Incorrect,sub_001_day_05_data.csv,0,300,39.0,Training at home,,,,,,,,,,,,,
1,5,988,A,19.40578606558421,39.97925954225457,0.9702893032792104,0.6279927403695329,A,745.8691000938416,Correct,sub_001_day_05_data.csv,1,300,39.0,Training at home,,,,,,,,,,,,,
1,5,989,B,70.17089728282552,49.65403416126435,3.5085448641412764,0.7799637447106236,B,966.691699810326,Correct,sub_001_day_05_data.csv,1,300,39.0,Training at home,,,,,,,,,,,,,
1,5,990,A,41.5462580732782,48.48430305617099,2.0773129036639104,0.7615896514784396,A,1750.287199858576,Correct,sub_001_day_05_data.csv,1,300,39.0,Training at home,,,,,,,,,,,,,
1,5,991,B,81.68200333392778,56.351493557287725,4.084100166696389,0.8851671908919383,B,556.7717999219894,Correct,sub_001_day_05_data.csv,1,300,39.0,Training at home,,,,,,,,,,,,,
1,5,992,B,65.14167798333432,33.98002034474653,3.257083899166716,0.533756911419437,B,574.8092997819185,Correct,sub_001_day_05_data.csv,1,300,39.0,Training at home,,,,,,,,,,,,,
1,5,993,B,40.691310268998464,17.24882172097342,2.034565513449923,0.2709438580084508,A,1175.533200148493,Incorrect,sub_001_day_05_data.csv,0,300,39.0,Training at home,,,,,,,,,,,,,
1,5,994,A,34.63099968245345,55.035077575763815,1.7315499841226725,0.8644889770088199,A,1800.226999912411,Correct,sub_001_day_05_data.csv,1,300,39.0,Training at home,,,,,,,,,,,,,
1,5,995,B,62.92281505435229,42.36224826617561,3.146140752717614,0.6654246397128213,B,574.4892000220716,Correct,sub_001_day_05_data.csv,1,300,39.0,Training at home,,,,,,,,,,,,,
1,5,996,B,66.74064920874697,46.73530178774405,3.3370324604373485,0.7341164037983933,B,478.1426000408828,Correct,sub_001_day_05_data.csv,1,300,39.0,Training at home,,,,,,,,,,,,,
1,5,997,B,85.83149708025299,65.23723030833091,4.291574854012649,1.024744017385989,B,686.6004997864366,Correct,sub_001_day_05_data.csv,1,300,39.0,Training at home,,,,,,,,,,,,,
1,5,998,B,57.93360477192982,32.59028292228534,2.896680238596491,0.5119269670353226,B,849.9479000456631,Correct,sub_001_day_05_data.csv,1,300,39.0,Training at home,,,,,,,,,,,,,
1,5,999,B,77.40786465087966,58.74406818511633,3.870393232543983,0.9227496652616968,B,658.9356996119022,Correct,sub_001_day_05_data.csv,1,300,39.0,Training at home,,,,,,,,,,,,,
1,5,1000,B,34.53556645940851,13.177507229676742,1.7267783229704252,0.2069917995268942,B,1061.140100006014,Correct,sub_001_day_05_data.csv,1,300,40.0,Training at home,,,,,,,,,,,,,
1,5,1001,B,77.21456570389809,53.82875070372002,3.860728285194904,0.8455400388136162,B,906.1881001107396,Correct,sub_001_day_05_data.csv,1,300,40.0,Training at home,,,,,,,,,,,,,
1,5,1002,B,79.98857891525678,53.78745824081422,3.9994289457628383,0.8448914183230487,B,591.6189001873136,Correct,sub_001_day_05_data.csv,1,300,40.0,Training at home,,,,,,,,,,,,,
1,5,1003,B,85.40753868670072,68.85339356241045,4.270376934335036,1.081546576951977,B,1709.8221997730434,Correct,sub_001_day_05_data.csv,1,300,40.0,Training at home,,,,,,,,,,,,,
1,5,1004,A,34.78649514848847,63.90882256052405,1.7393247574244235,1.00387743727858,A,472.1396001987159,Correct,sub_001_day_05_data.csv,1,300,40.0,Training at home,,,,,,,,,,,,,
1,5,1005,A,51.71074360970694,67.16123605838995,2.585537180485346,1.0549662290352386,A,1426.0451002046466,Correct,sub_001_day_05_data.csv,1,300,40.0,Training at home,,,,,,,,,,,,,
1,5,1006,A,14.390668802720782,30.988169719058742,0.7195334401360391,0.4867610316879431,A,631.630300078541,Correct,sub_001_day_05_data.csv,1,300,40.0,Training at home,,,,,,,,,,,,,
1,5,1007,B,83.15611304583996,63.829904800029595,4.157805652291998,1.0026377999955445,B,700.6397997029126,Correct,sub_001_day_05_data.csv,1,300,40.0,Training at home,,,,,,,,,,,,,
1,5,1008,A,16.96839676033999,32.11278726481818,0.8484198380169994,0.5044264827872234,A,558.3928995765746,Correct,sub_001_day_05_data.csv,1,300,40.0,Training at home,,,,,,,,,,,,,
1,5,1009,B,64.06122827996712,49.72951409011045,3.203061413998356,0.7811493806604054,B,891.2831000052392,Correct,sub_001_day_05_data.csv,1,300,40.0,Training at home,,,,,,,,,,,,,
1,5,1010,A,37.1214280644468,64.61606139578942,1.85607140322234,1.0149867189245954,A,642.6456002518535,Correct,sub_001_day_05_data.csv,1,300,40.0,Training at home,,,,,,,,,,,,,
1,5,1011,B,62.05344954084334,31.941121700552586,3.1026724770421668,0.5017299664093676,B,862.1543999761343,Correct,sub_001_day_05_data.csv,1,300,40.0,Training at home,,,,,,,,,,,,,
1,5,1012,A,39.791297739615715,62.64365532273187,1.9895648869807856,0.984004236779528,A,502.9724999330938,Correct,sub_001_day_05_data.csv,1,300,40.0,Training at home,,,,,,,,,,,,,
1,5,1013,A,44.7637992511346,69.79856500937689,2.23818996255673,1.09639329532284,A,4684.703500010073,Correct,sub_001_day_05_data.csv,1,300,40.0,Training at home,,,,,,,,,,,,,
1,5,1014,A,38.607500683855754,60.664834280841625,1.930375034192788,0.9529209885396712,A,901.6831996850668,Correct,sub_001_day_05_data.csv,1,300,40.0,Training at home,,,,,,,,,,,,,
1,5,1015,B,57.60727999758649,42.3897379258078,2.880363999879324,0.6658564462765721,A,1098.2707999646664,Incorrect,sub_001_day_05_data.csv,0,300,40.0,Training at home,,,,,,,,,,,,,
1,5,1016,A,40.42375226557351,54.73921185328593,2.0211876132786757,0.8598415291078919,A,778.1801000237465,Correct,sub_001_day_05_data.csv,1,300,40.0,Training at home,,,,,,,,,,,,,
1,5,1017,B,34.56616795710484,12.533546836476065,1.7283083978552418,0.1968764933244839,B,1269.8413003236055,Correct,sub_001_day_05_data.csv,1,300,40.0,Training at home,,,,,,,,,,,,,
1,5,1018,B,71.08507643176466,43.512243894562005,3.554253821588233,0.6834887288018167,B,839.1188001260161,Correct,sub_001_day_05_data.csv,1,300,40.0,Training at home,,,,,,,,,,,,,
1,5,1019,B,63.217203299050766,45.26817840274536,3.1608601649525383,0.7110708835572848,B,1155.6477998383343,Correct,sub_001_day_05_data.csv,1,300,40.0,Training at home,,,,,,,,,,,,,
1,5,1020,A,19.016874796366697,45.552478345715045,0.9508437398183348,0.7155366566185326,A,906.642199959606,Correct,sub_001_day_05_data.csv,1,300,40.0,Training at home,,,,,,,,,,,,,
1,5,1021,A,31.081382889645063,58.77316751062309,1.554069144482253,0.923206756397879,A,766.2185998633504,Correct,sub_001_day_05_data.csv,1,300,40.0,Training at home,,,,,,,,,,,,,
1,5,1022,A,29.75819202679029,43.39950591515586,1.4879096013395143,0.6817178447624023,A,2430.7166999205947,Correct,sub_001_day_05_data.csv,1,300,40.0,Training at home,,,,,,,,,,,,,
1,5,1023,A,36.69775660411887,56.09014896837122,1.8348878302059437,0.8810619996889607,B,1626.465699635446,Incorrect,sub_001_day_05_data.csv,0,300,40.0,Training at home,,,,,,,,,,,,,
1,5,1024,B,82.2234597232831,58.80471547417255,4.111172986164155,0.9237023106504926,B,865.8328000456095,Correct,sub_001_day_05_data.csv,1,300,40.0,Training at home,,,,,,,,,,,,,
1,5,1025,B,35.70531832324358,20.81130724305433,1.785265916162179,0.3269032497318977,A,3754.6573001891375,Incorrect,sub_001_day_05_data.csv,0,300,41.0,Training at home,,,,,,,,,,,,,
1,5,1026,A,34.445091828329346,50.7945769926199,1.7222545914164673,0.797879349611079,B,1372.0243000425398,Incorrect,sub_001_day_05_data.csv,0,300,41.0,Training at home,,,,,,,,,,,,,
1,5,1027,B,81.28824829956615,57.43105609327195,4.064412414978308,0.9021249195526324,B,546.9963001087308,Correct,sub_001_day_05_data.csv,1,300,41.0,Training at home,,,,,,,,,,,,,
1,5,1028,A,57.584758082786266,71.49621136785078,2.8792379041393135,1.123059861963715,A,1537.6844997517765,Correct,sub_001_day_05_data.csv,1,300,41.0,Training at home,,,,,,,,,,,,,
1,5,1029,A,29.9777504290062,40.95195978922432,1.49888752145031,0.6432718801196586,A,3617.5035000778735,Correct,sub_001_day_05_data.csv,1,300,41.0,Training at home,,,,,,,,,,,,,
1,5,1030,B,59.2000076618015,26.674880920441986,2.9600003830900747,0.4190080496752154,B,3229.348700027913,Correct,sub_001_day_05_data.csv,1,300,41.0,Training at home,,,,,,,,,,,,,
1,5,1031,A,56.77301270759703,65.01277561671486,2.8386506353798517,1.0212182913347652,B,1094.5401000790298,Incorrect,sub_001_day_05_data.csv,0,300,41.0,Training at home,,,,,,,,,,,,,
1,5,1032,B,50.79238738502382,37.178631665986345,2.539619369251191,0.5840005805619178,B,805.986899882555,Correct,sub_001_day_05_data.csv,1,300,41.0,Training at home,,,,,,,,,,,,,
1,5,1033,A,45.36588723410114,55.25176363890412,2.268294361705057,0.8678926737293041,A,878.7968000397086,Correct,sub_001_day_05_data.csv,1,300,41.0,Training at home,,,,,,,,,,,,,
1,5,1034,B,83.95633165814407,68.48584992644709,4.197816582907203,1.075773215018896,B,1690.5459999106824,Correct,sub_001_day_05_data.csv,1,300,41.0,Training at home,,,,,,,,,,,,,
1,5,1035,A,43.37132873094303,63.52752750070677,2.168566436547151,0.9978880684847196,A,2752.281200140714,Correct,sub_001_day_05_data.csv,1,300,41.0,Training at home,,,,,,,,,,,,,
1,5,1036,A,47.54307195427684,60.91388954471055,2.3771535977138423,0.956833139476214,A,549.955299589783,Correct,sub_001_day_05_data.csv,1,300,41.0,Training at home,,,,,,,,,,,,,
1,5,1037,A,10.131819732277588,34.01316160949989,0.5065909866138795,0.5342774931888362,A,838.4063998237252,Correct,sub_001_day_05_data.csv,1,300,41.0,Training at home,,,,,,,,,,,,,
1,5,1038,B,53.74283327368698,39.01642627158864,2.6871416636843493,0.6128685907207534,A,1338.547000195831,Incorrect,sub_001_day_05_data.csv,0,300,41.0,Training at home,,,,,,,,,,,,,
1,5,1039,A,14.546823849504689,42.793229810829445,0.7273411924752344,0.6721944819854077,A,2445.0260996818542,Correct,sub_001_day_05_data.csv,1,300,41.0,Training at home,,,,,,,,,,,,,
1,5,1040,B,77.0192969253152,55.66222531074813,3.85096484626576,0.8743401905935309,B,1850.982999894768,Correct,sub_001_day_05_data.csv,1,300,41.0,Training at home,,,,,,,,,,,,,
1,5,1041,A,54.71156145639671,70.92343647717874,2.7355780728198353,1.1140627350202357,B,905.9379999525844,Incorrect,sub_001_day_05_data.csv,0,300,41.0,Training at home,,,,,,,,,,,,,
1,5,1042,A,40.01713561500596,48.2248835761145,2.0008567807502984,0.757514699814722,A,3896.66759967804,Correct,sub_001_day_05_data.csv,1,300,41.0,Training at home,,,,,,,,,,,,,
1,5,1043,B,75.5573039238647,53.42089675878646,3.777865196193235,0.8391334840279118,B,1165.595999918878,Correct,sub_001_day_05_data.csv,1,300,41.0,Training at home,,,,,,,,,,,,,
1,5,1044,B,83.14127943652824,56.30567691689076,4.157063971826412,0.8844475047875221,B,415.4715999029577,Correct,sub_001_day_05_data.csv,1,300,41.0,Training at home,,,,,,,,,,,,,
1,5,1045,B,45.901413883787946,31.580759478141236,2.295070694189397,0.4960694098565737,A,555.205199867487,Incorrect,sub_001_day_05_data.csv,0,300,41.0,Training at home,,,,,,,,,,,,,
1,5,1046,B,61.75271628793689,35.07221006613547,3.0876358143968448,0.5509129874446459,B,1147.0992001704872,Correct,sub_001_day_05_data.csv,1,300,41.0,Training at home,,,,,,,,,,,,,
1,5,1047,A,38.96537982591575,48.68615059893632,1.9482689912957876,0.7647602652659233,B,5328.193699941039,Incorrect,sub_001_day_05_data.csv,0,300,41.0,Training at home,,,,,,,,,,,,,
1,5,1048,B,42.97871283146746,26.063320903692578,2.148935641573374,0.4094016873959695,B,628.5234000533819,Correct,sub_001_day_05_data.csv,1,300,41.0,Training at home,,,,,,,,,,,,,
1,5,1049,B,66.07704385288712,54.856181182385384,3.303852192644356,0.8616788790328629,B,529.8389997333288,Correct,sub_001_day_05_data.csv,1,300,41.0,Training at home,,,,,,,,,,,,,
1,5,1050,A,49.66728275077273,62.269135771212774,2.4833641375386364,0.9781212974211372,A,3048.21589961648,Correct,sub_001_day_05_data.csv,1,300,42.0,Training at home,,,,,,,,,,,,,
1,5,1051,B,72.50864774324283,53.7252647311108,3.6254323871621414,0.8439144849571224,A,761.8784997612238,Incorrect,sub_001_day_05_data.csv,0,300,42.0,Training at home,,,,,,,,,,,,,
1,5,1052,A,18.91312545144976,40.89670136634786,0.945656272572488,0.6424038828428705,A,550.2364998683333,Correct,sub_001_day_05_data.csv,1,300,42.0,Training at home,,,,,,,,,,,,,
1,5,1053,A,36.56148523473765,46.71869206119273,1.8280742617368828,0.7338554988238343,A,1332.0848997682333,Correct,sub_001_day_05_data.csv,1,300,42.0,Training at home,,,,,,,,,,,,,
1,5,1054,B,38.194712489390845,12.989648736951928,1.9097356244695425,0.2040409252236005,B,1253.269299864769,Correct,sub_001_day_05_data.csv,1,300,42.0,Training at home,,,,,,,,,,,,,
1,5,1055,B,82.86097348104106,63.92382524659207,4.143048674052053,1.004113098920257,A,585.4846998117864,Incorrect,sub_001_day_05_data.csv,0,300,42.0,Training at home,,,,,,,,,,,,,
1,5,1056,B,42.78561135450317,25.811884751264387,2.1392805677251583,0.405452137549393,B,782.8330998308957,Correct,sub_001_day_05_data.csv,1,300,42.0,Training at home,,,,,,,,,,,,,
1,5,1057,B,43.86342255380681,24.98967973387918,2.19317112769034,0.3925369713375828,B,729.7831000760198,Correct,sub_001_day_05_data.csv,1,300,42.0,Training at home,,,,,,,,,,,,,
1,5,1058,B,72.84829226009515,53.59001394811616,3.6424146130047577,0.8417899706258815,B,1353.061799891293,Correct,sub_001_day_05_data.csv,1,300,42.0,Training at home,,,,,,,,,,,,,
1,5,1059,A,66.38401332233711,77.70899432921098,3.319200666116856,1.2206500285125006,B,807.1145000867546,Incorrect,sub_001_day_05_data.csv,0,300,42.0,Training at home,,,,,,,,,,,,,
1,5,1060,A,34.93595530253329,61.79052812852915,1.7467977651266642,0.9706033461501034,B,847.8068998083472,Incorrect,sub_001_day_05_data.csv,0,300,42.0,Training at home,,,,,,,,,,,,,
1,5,1061,B,70.32922382949738,43.86484623436822,3.516461191474869,0.6890273934036856,B,836.6059996187687,Correct,sub_001_day_05_data.csv,1,300,42.0,Training at home,,,,,,,,,,,,,
1,5,1062,B,73.48103977504941,55.59375893014173,3.6740519887524705,0.873264723201876,B,507.96160008758307,Correct,sub_001_day_05_data.csv,1,300,42.0,Training at home,,,,,,,,,,,,,
1,5,1063,A,19.4690663226694,38.96430767691342,0.97345331613347,0.6120499137500179,A,728.275700006634,Correct,sub_001_day_05_data.csv,1,300,42.0,Training at home,,,,,,,,,,,,,
1,5,1064,A,48.3719934412314,74.31344533334865,2.4185996720615703,1.167312869610974,A,1329.676500055939,Correct,sub_001_day_05_data.csv,1,300,42.0,Training at home,,,,,,,,,,,,,
1,5,1065,B,59.2657888137628,38.09290739710263,2.96328944068814,0.5983619901630695,A,814.8621004074812,Incorrect,sub_001_day_05_data.csv,0,300,42.0,Training at home,,,,,,,,,,,,,
1,5,1066,A,38.47735666807757,46.44129732135653,1.9238678334038783,0.7294981924397651,A,531.8369003944099,Correct,sub_001_day_05_data.csv,1,300,42.0,Training at home,,,,,,,,,,,,,
1,5,1067,A,18.72703890782335,33.00163478164444,0.9363519453911676,0.5183884669323379,B,1564.3020998686552,Incorrect,sub_001_day_05_data.csv,0,300,42.0,Training at home,,,,,,,,,,,,,
1,5,1068,A,27.678933405814444,43.7295925135728,1.3839466702907222,0.6869028329255777,A,1005.7803001254796,Correct,sub_001_day_05_data.csv,1,300,42.0,Training at home,,,,,,,,,,,,,
1,5,1069,B,88.438086884854,68.48705290202099,4.4219043442427,1.0757921113150233,B,4591.942599974573,Correct,sub_001_day_05_data.csv,1,300,42.0,Training at home,,,,,,,,,,,,,
1,5,1070,A,41.34694175148617,66.4433432745646,2.0673470875743085,1.0436895955565846,B,1625.4974999465048,Incorrect,sub_001_day_05_data.csv,0,300,42.0,Training at home,,,,,,,,,,,,,
1,5,1071,B,44.14826420233729,33.507726387890116,2.207413210116864,0.5263381352934622,A,724.0365999750793,Incorrect,sub_001_day_05_data.csv,0,300,42.0,Training at home,,,,,,,,,,,,,
1,5,1072,A,66.28005664137233,89.17467559045308,3.314002832068616,1.4007525286061022,A,729.9811001867056,Correct,sub_001_day_05_data.csv,1,300,42.0,Training at home,,,,,,,,,,,,,
1,5,1073,A,46.06046109536762,69.50521336077955,2.303023054768381,1.091785338402081,A,898.1972998008132,Correct,sub_001_day_05_data.csv,1,300,42.0,Training at home,,,,,,,,,,,,,
1,5,1074,A,31.87679465901818,40.689846172746655,1.5938397329509089,0.6391546090599982,A,585.0766999647021,Correct,sub_001_day_05_data.csv,1,300,42.0,Training at home,,,,,,,,,,,,,
1,5,1075,A,34.43963739169874,58.136042578664785,1.721981869584937,0.9131988213695836,A,676.3368002139032,Correct,sub_001_day_05_data.csv,1,300,43.0,Training at home,,,,,,,,,,,,,
1,5,1076,A,19.661228409389775,39.34335151867522,0.9830614204694887,0.6180039204933545,A,534.8213999532163,Correct,sub_001_day_05_data.csv,1,300,43.0,Training at home,,,,,,,,,,,,,
1,5,1077,B,58.710333756612215,45.32533352331122,2.935516687830611,0.7119686740917086,A,650.3889998421073,Incorrect,sub_001_day_05_data.csv,0,300,43.0,Training at home,,,,,,,,,,,,,
1,5,1078,B,40.10692493274707,20.141144641151183,2.0053462466373535,0.31637636019765,B,483.0970000475645,Correct,sub_001_day_05_data.csv,1,300,43.0,Training at home,,,,,,,,,,,,,
1,5,1079,A,49.77240437178163,80.07297654468894,2.488620218589082,1.2577833743193132,B,2347.932799719274,Incorrect,sub_001_day_05_data.csv,0,300,43.0,Training at home,,,,,,,,,,,,,
1,5,1080,B,56.12823544560974,41.071826721828536,2.8064117722804873,0.6451547454940474,A,1757.5074001215398,Incorrect,sub_001_day_05_data.csv,0,300,43.0,Training at home,,,,,,,,,,,,,
1,5,1081,A,40.15742097188887,50.279361538924654,2.007871048594444,0.7897863641893544,B,687.0365999639034,Incorrect,sub_001_day_05_data.csv,0,300,43.0,Training at home,,,,,,,,,,,,,
1,5,1082,A,12.563617169206442,30.44440864222963,0.628180858460322,0.478219652666571,A,816.9467998668551,Correct,sub_001_day_05_data.csv,1,300,43.0,Training at home,,,,,,,,,,,,,
1,5,1083,B,70.02965847727971,43.98858993137811,3.5014829238639855,0.690971154850957,B,919.065499678254,Correct,sub_001_day_05_data.csv,1,300,43.0,Training at home,,,,,,,,,,,,,
1,5,1084,B,44.15722365555314,25.011465131444197,2.207861182777657,0.3928791755623119,A,846.6342003084719,Incorrect,sub_001_day_05_data.csv,0,300,43.0,Training at home,,,,,,,,,,,,,
1,5,1085,A,32.80188012755849,48.612855780470966,1.6400940063779246,0.7636089529497384,A,819.5402999408543,Correct,sub_001_day_05_data.csv,1,300,43.0,Training at home,,,,,,,,,,,,,
1,5,1086,B,76.02906131281892,44.233831466588946,3.8014530656409464,0.6948233998778244,B,979.7127000056208,Correct,sub_001_day_05_data.csv,1,300,43.0,Training at home,,,,,,,,,,,,,
1,5,1087,B,34.89911570162705,18.94093598214133,1.7449557850813529,0.2975235266680488,A,965.6797000207008,Incorrect,sub_001_day_05_data.csv,0,300,43.0,Training at home,,,,,,,,,,,,,
1,5,1088,B,35.97608847507499,19.771283311473685,1.7988044237537495,0.310566592016841,A,981.20759986341,Incorrect,sub_001_day_05_data.csv,0,300,43.0,Training at home,,,,,,,,,,,,,
1,5,1089,A,65.4874842913868,76.73300481480226,3.2743742145693404,1.205319221070265,B,836.0799998044968,Incorrect,sub_001_day_05_data.csv,0,300,43.0,Training at home,,,,,,,,,,,,,
1,5,1090,A,59.3644739450334,78.67468132723633,2.96822369725167,1.2358190044058188,B,1373.5959003679454,Incorrect,sub_001_day_05_data.csv,0,300,43.0,Training at home,,,,,,,,,,,,,
1,5,1091,A,28.478017113722963,47.01343724759239,1.423900855686148,0.7384853453852052,A,1612.4193998984993,Correct,sub_001_day_05_data.csv,1,300,43.0,Training at home,,,,,,,,,,,,,
1,5,1092,B,38.71694689473915,14.292068265126826,1.9358473447369575,0.2244992833316312,B,1116.8487002141774,Correct,sub_001_day_05_data.csv,1,300,43.0,Training at home,,,,,,,,,,,,,
1,5,1093,B,67.55542157089083,34.89322930908021,3.377771078544541,0.5481015642871523,A,950.2289001829922,Incorrect,sub_001_day_05_data.csv,0,300,43.0,Training at home,,,,,,,,,,,,,
1,5,1094,A,47.41716337125173,70.88406792393158,2.3708581685625862,1.1134443352319168,A,725.5746000446379,Correct,sub_001_day_05_data.csv,1,300,43.0,Training at home,,,,,,,,,,,,,
1,5,1095,B,51.697082811336465,38.80446427735269,2.584854140566823,0.609539099501094,B,1327.231999952346,Correct,sub_001_day_05_data.csv,1,300,43.0,Training at home,,,,,,,,,,,,,
1,5,1096,B,83.93449456000288,58.1451032402117,4.196724728000143,0.9133411459083456,A,868.7958000227809,Incorrect,sub_001_day_05_data.csv,0,300,43.0,Training at home,,,,,,,,,,,,,
1,5,1097,B,41.20415975285388,27.126648764682216,2.060207987642694,0.4261044023781813,B,929.8715000040828,Correct,sub_001_day_05_data.csv,1,300,43.0,Training at home,,,,,,,,,,,,,
1,5,1098,B,47.89017005220072,27.371358375757197,2.394508502610036,0.4299482919602612,A,954.7741999849676,Incorrect,sub_001_day_05_data.csv,0,300,43.0,Training at home,,,,,,,,,,,,,
1,5,1099,A,32.6919449193391,50.68463994398677,1.634597245966955,0.796152462489363,B,790.3120000846684,Incorrect,sub_001_day_05_data.csv,0,300,43.0,Training at home,,,,,,,,,,,,,
1,5,1100,B,36.215500278853426,22.705936600325057,1.8107750139426713,0.3566640180822839,B,875.635199714452,Correct,sub_001_day_05_data.csv,1,300,44.0,Training at home,,,,,,,,,,,,,
1,5,1101,A,50.89318142228049,80.10307569703782,2.5446590711140247,1.2582561706988056,A,672.5428001955152,Correct,sub_001_day_05_data.csv,1,300,44.0,Training at home,,,,,,,,,,,,,
1,5,1102,A,50.89977157765307,61.769823119001614,2.5449885788826534,0.9702781126209822,B,986.8970001116396,Incorrect,sub_001_day_05_data.csv,0,300,44.0,Training at home,,,,,,,,,,,,,
1,5,1103,B,62.92604254016618,47.58534383819705,3.146302127008309,0.747468833103121,B,783.1489001400769,Correct,sub_001_day_05_data.csv,1,300,44.0,Training at home,,,,,,,,,,,,,
1,5,1104,B,30.83438256010119,15.857521824055802,1.5417191280050593,0.2490893703329676,A,808.1183000467718,Incorrect,sub_001_day_05_data.csv,0,300,44.0,Training at home,,,,,,,,,,,,,
1,5,1105,B,50.500216823521534,36.71993468075684,2.5250108411760768,0.5767953851668138,B,690.4501002281904,Correct,sub_001_day_05_data.csv,1,300,44.0,Training at home,,,,,,,,,,,,,
1,5,1106,A,51.665535650291304,58.45254969768079,2.5832767825145653,0.9181705035691312,A,751.1918996460736,Correct,sub_001_day_05_data.csv,1,300,44.0,Training at home,,,,,,,,,,,,,
1,5,1107,B,68.73131172525679,56.965510622598245,3.436565586262839,0.8948121483997298,A,763.2691003382206,Incorrect,sub_001_day_05_data.csv,0,300,44.0,Training at home,,,,,,,,,,,,,
1,5,1108,A,55.11207307180312,74.6392674775482,2.7556036535901565,1.172430871883945,B,773.3603999949992,Incorrect,sub_001_day_05_data.csv,0,300,44.0,Training at home,,,,,,,,,,,,,
1,5,1109,A,18.284885106562378,46.36194026871492,0.9142442553281188,0.7282516547718179,A,658.5428002290428,Correct,sub_001_day_05_data.csv,1,300,44.0,Training at home,,,,,,,,,,,,,
1,5,1110,A,42.53618502028428,52.57380251085878,2.126809251014214,0.825827358696973,B,730.7122000493109,Incorrect,sub_001_day_05_data.csv,0,300,44.0,Training at home,,,,,,,,,,,,,
1,5,1111,A,36.27945507512864,47.9573883982373,1.813972753756432,0.7533128953862733,B,1045.640300028026,Incorrect,sub_001_day_05_data.csv,0,300,44.0,Training at home,,,,,,,,,,,,,
1,5,1112,A,29.423444559092378,44.9983753184899,1.4711722279546189,0.7068328266202206,A,595.0826001353562,Correct,sub_001_day_05_data.csv,1,300,44.0,Training at home,,,,,,,,,,,,,
1,5,1113,B,39.07496983127757,18.101616238250923,1.9537484915638783,0.284339522960954,A,1655.4292999207971,Incorrect,sub_001_day_05_data.csv,0,300,44.0,Training at home,,,,,,,,,,,,,
1,5,1114,B,55.49194643683113,27.33884091973753,2.7745973218415565,0.4294375089555372,B,694.2881997674704,Correct,sub_001_day_05_data.csv,1,300,44.0,Training at home,,,,,,,,,,,,,
1,5,1115,A,20.729313033207365,52.263611149052736,1.0364656516603683,0.8209548841796883,A,832.7722996473312,Correct,sub_001_day_05_data.csv,1,300,44.0,Training at home,,,,,,,,,,,,,
1,5,1116,A,24.035545229111563,40.750684272006424,1.2017772614555782,0.6401102516884625,A,515.5454999767244,Correct,sub_001_day_05_data.csv,1,300,44.0,Training at home,,,,,,,,,,,,,
1,5,1117,B,44.14499377755102,20.38927990871222,2.207249688877551,0.3202740598659813,B,1405.302600003779,Correct,sub_001_day_05_data.csv,1,300,44.0,Training at home,,,,,,,,,,,,,
1,5,1118,A,61.56651822517051,73.50046887087794,3.0783259112585255,1.154542665200777,A,560.5795001611114,Correct,sub_001_day_05_data.csv,1,300,44.0,Training at home,,,,,,,,,,,,,
1,5,1119,A,16.717851004148763,41.36164353689688,0.8358925502074382,0.6497071773795748,A,1308.98329988122,Correct,sub_001_day_05_data.csv,1,300,44.0,Training at home,,,,,,,,,,,,,
1,5,1120,A,56.17472741528909,63.791233330242854,2.8087363707644544,1.0020303499686165,A,812.153700273484,Correct,sub_001_day_05_data.csv,1,300,44.0,Training at home,,,,,,,,,,,,,
1,5,1121,A,19.8141473512395,44.279282374048975,0.9907073675619752,0.6955373410627014,A,663.7798002921045,Correct,sub_001_day_05_data.csv,1,300,44.0,Training at home,,,,,,,,,,,,,
1,5,1122,B,40.66277763456151,16.777407514930953,2.0331388817280756,0.2635389009759463,B,500.3692996688187,Correct,sub_001_day_05_data.csv,1,300,44.0,Training at home,,,,,,,,,,,,,
1,5,1123,B,40.35843383309161,19.304724876549777,2.017921691654581,0.3032379092587045,B,897.6728999987245,Correct,sub_001_day_05_data.csv,1,300,44.0,Training at home,,,,,,,,,,,,,
1,5,1124,A,61.885215128243104,72.95333013938881,3.094260756412155,1.1459482301040735,A,1624.7197003103793,Correct,sub_001_day_05_data.csv,1,300,44.0,Training at home,,,,,,,,,,,,,
1,5,1125,B,66.37754350406493,46.84232807969725,3.3188771752032467,0.7357975688610989,B,1700.7941999472678,Correct,sub_001_day_05_data.csv,1,300,45.0,Training at home,,,,,,,,,,,,,
1,5,1126,B,59.419455145772226,26.69778102407189,2.970972757288611,0.4193677636618662,A,2378.703599795699,Incorrect,sub_001_day_05_data.csv,0,300,45.0,Training at home,,,,,,,,,,,,,
1,5,1127,B,50.34966244934192,36.33513160539578,2.517483122467096,0.5707509125936484,B,1338.261099997908,Correct,sub_001_day_05_data.csv,1,300,45.0,Training at home,,,,,,,,,,,,,
1,5,1128,B,65.10536977806454,34.69999641883753,3.255268488903227,0.5450662691450605,B,1473.5012999735773,Correct,sub_001_day_05_data.csv,1,300,45.0,Training at home,,,,,,,,,,,,,
1,5,1129,B,53.99318345239997,25.29640475810188,2.6996591726199983,0.3973549967514338,B,5357.576100155711,Correct,sub_001_day_05_data.csv,1,300,45.0,Training at home,,,,,,,,,,,,,
1,5,1130,A,26.542674396560653,53.85893873076391,1.3271337198280326,0.8460142312335533,A,1830.5520000867543,Correct,sub_001_day_05_data.csv,1,300,45.0,Training at home,,,,,,,,,,,,,
1,5,1131,A,61.42401096535043,75.12161510606087,3.0712005482675213,1.1800075707150044,A,716.4952997118235,Correct,sub_001_day_05_data.csv,1,300,45.0,Training at home,,,,,,,,,,,,,
1,5,1132,B,63.207467454815024,45.048037325354,3.1603733727407515,0.7076129155998546,B,1087.8924001008272,Correct,sub_001_day_05_data.csv,1,300,45.0,Training at home,,,,,,,,,,,,,
1,5,1133,B,61.79830285355949,36.80274764067393,3.0899151426779747,0.5780962080993015,B,5479.708999861032,Correct,sub_001_day_05_data.csv,1,300,45.0,Training at home,,,,,,,,,,,,,
1,5,1134,A,33.80688620712275,60.003310138642405,1.6903443103561375,0.9425297916131448,A,2508.630400057882,Correct,sub_001_day_05_data.csv,1,300,45.0,Training at home,,,,,,,,,,,,,
1,5,1135,B,50.165772245317726,29.909230252093373,2.5082886122658863,0.4698130901725107,A,912.6850999891758,Incorrect,sub_001_day_05_data.csv,0,300,45.0,Training at home,,,,,,,,,,,,,
1,5,1136,B,39.38134052944218,11.945947803305245,1.9690670264721089,0.1876465092951544,A,1126.771700102836,Incorrect,sub_001_day_05_data.csv,0,300,45.0,Training at home,,,,,,,,,,,,,
1,5,1137,B,71.53523894519464,41.554102857846786,3.576761947259732,0.6527303213236305,A,1487.322899978608,Incorrect,sub_001_day_05_data.csv,0,300,45.0,Training at home,,,,,,,,,,,,,
1,5,1138,B,82.76062172515739,59.39747025058152,4.13803108625787,0.9330132809052258,B,610.5655999854207,Correct,sub_001_day_05_data.csv,1,300,45.0,Training at home,,,,,,,,,,,,,
1,5,1139,B,45.50174575969515,19.94113222304212,2.2750872879847575,0.3132345724808592,B,1436.394200194627,Correct,sub_001_day_05_data.csv,1,300,45.0,Training at home,,,,,,,,,,,,,
1,5,1140,B,73.35533349144562,57.97061152035072,3.667766674572281,0.9106002363822082,B,814.4831000827253,Correct,sub_001_day_05_data.csv,1,300,45.0,Training at home,,,,,,,,,,,,,
1,5,1141,A,33.33937157681911,42.65356864396952,1.6669685788409554,0.670000689506413,B,753.4051998518407,Incorrect,sub_001_day_05_data.csv,0,300,45.0,Training at home,,,,,,,,,,,,,
1,5,1142,A,52.10361215933472,79.12399549744414,2.6051806079667363,1.2428768148872118,B,864.2862997949123,Incorrect,sub_001_day_05_data.csv,0,300,45.0,Training at home,,,,,,,,,,,,,
1,5,1143,A,21.58528005575563,34.94553347489874,1.0792640027877816,0.5489231562025904,A,777.5665000081062,Correct,sub_001_day_05_data.csv,1,300,45.0,Training at home,,,,,,,,,,,,,
1,5,1144,A,17.52978117148942,35.07135179686007,0.876489058574471,0.550899505782394,A,574.3796997703612,Correct,sub_001_day_05_data.csv,1,300,45.0,Training at home,,,,,,,,,,,,,
1,5,1145,A,63.352138540809904,83.80918305780126,3.167606927040495,1.316471568988753,B,955.209800042212,Incorrect,sub_001_day_05_data.csv,0,300,45.0,Training at home,,,,,,,,,,,,,
1,5,1146,B,57.858682866653886,33.00163812457454,2.892934143332694,0.5183885194429612,B,572.8833000175655,Correct,sub_001_day_05_data.csv,1,300,45.0,Training at home,,,,,,,,,,,,,
1,5,1147,B,75.03908406794444,59.85194674206927,3.751954203397222,0.940152180939662,A,1475.8628001436591,Incorrect,sub_001_day_05_data.csv,0,300,45.0,Training at home,,,,,,,,,,,,,
1,5,1148,A,23.761856541209184,53.0308164700817,1.1880928270604592,0.8330061171813864,A,842.9223001003265,Correct,sub_001_day_05_data.csv,1,300,45.0,Training at home,,,,,,,,,,,,,
1,5,1149,A,57.69857470261024,75.90163163690906,2.8849287351305124,1.1922600417299607,A,1682.65219964087,Correct,sub_001_day_05_data.csv,1,300,45.0,Training at home,,,,,,,,,,,,,
1,5,1150,B,53.41921593778543,36.32578572135834,2.6709607968892715,0.5706041077904819,B,2637.724299915135,Correct,sub_001_day_05_data.csv,1,300,46.0,Training at home,,,,,,,,,,,,,
1,5,1151,A,29.64545549834768,50.20506477478455,1.482272774917384,0.7886193133473143,B,603.5464000888169,Incorrect,sub_001_day_05_data.csv,0,300,46.0,Training at home,,,,,,,,,,,,,
1,5,1152,B,74.67280497765518,43.650513158190144,3.7336402488827583,0.6856606573159738,B,535.6394001282752,Correct,sub_001_day_05_data.csv,1,300,46.0,Training at home,,,,,,,,,,,,,
1,5,1153,B,81.64777896015778,64.72064470224485,4.082388948007889,1.016629509660838,B,2132.441299967468,Correct,sub_001_day_05_data.csv,1,300,46.0,Training at home,,,,,,,,,,,,,
1,5,1154,A,66.63016898973798,85.04578927063208,3.3315084494868987,1.3358961339568172,B,870.2550996094942,Incorrect,sub_001_day_05_data.csv,0,300,46.0,Training at home,,,,,,,,,,,,,
1,5,1155,A,18.769402482718743,40.53388401075712,0.9384701241359372,0.6367047611482767,A,548.2053998857737,Correct,sub_001_day_05_data.csv,1,300,46.0,Training at home,,,,,,,,,,,,,
1,5,1156,B,40.53976712180063,21.484251158509743,2.0269883560900315,0.337473828037261,B,1024.9822000041604,Correct,sub_001_day_05_data.csv,1,300,46.0,Training at home,,,,,,,,,,,,,
1,5,1157,A,56.49131662983734,74.29499766790725,2.824565831491867,1.1670230943598412,B,891.4419999346137,Incorrect,sub_001_day_05_data.csv,0,300,46.0,Training at home,,,,,,,,,,,,,
1,5,1158,B,55.949756452993014,28.567923222415047,2.797487822649651,0.4487438886192818,B,859.2270002700388,Correct,sub_001_day_05_data.csv,1,300,46.0,Training at home,,,,,,,,,,,,,
1,5,1159,B,80.89872900611145,50.327225160277976,4.044936450305573,0.7905382041954435,B,595.0748999603093,Correct,sub_001_day_05_data.csv,1,300,46.0,Training at home,,,,,,,,,,,,,
1,5,1160,B,56.43599314436397,30.627006467537484,2.8217996572181985,0.4810878925993141,B,739.5724002271891,Correct,sub_001_day_05_data.csv,1,300,46.0,Training at home,,,,,,,,,,,,,
1,5,1161,B,78.9744260417191,47.20574024168107,3.948721302085955,0.7415060337526665,B,1049.8549998737872,Correct,sub_001_day_05_data.csv,1,300,46.0,Training at home,,,,,,,,,,,,,
1,5,1162,B,63.544899819948554,40.32300241190351,3.177244990997428,0.6333922407395979,B,735.3424001485109,Correct,sub_001_day_05_data.csv,1,300,46.0,Training at home,,,,,,,,,,,,,
1,5,1163,B,70.27607528832775,52.1387387010527,3.513803764416388,0.8189933923533251,B,804.2595996521413,Correct,sub_001_day_05_data.csv,1,300,46.0,Training at home,,,,,,,,,,,,,
1,5,1164,A,43.3834205016856,57.08176088562948,2.16917102508428,0.896638203261314,A,23.207600228488445,Correct,sub_001_day_05_data.csv,1,300,46.0,Training at home,,,,,,,,,,,,,
1,5,1165,B,84.50754565703267,68.48102421099445,4.225377282851634,1.0756974128578245,B,641.225399915129,Correct,sub_001_day_05_data.csv,1,300,46.0,Training at home,,,,,,,,,,,,,
1,5,1166,B,75.98415965210017,54.57607579628225,3.799207982605009,0.8572789939168001,B,619.4509002380073,Correct,sub_001_day_05_data.csv,1,300,46.0,Training at home,,,,,,,,,,,,,
1,5,1167,A,44.52956708763651,74.30998498491545,2.2264783543818254,1.167258514584891,A,932.612800039351,Correct,sub_001_day_05_data.csv,1,300,46.0,Training at home,,,,,,,,,,,,,
1,5,1168,A,43.11287134037518,50.63302937829569,2.155643567018759,0.7953417656192495,B,1265.4184000566602,Incorrect,sub_001_day_05_data.csv,0,300,46.0,Training at home,,,,,,,,,,,,,
1,5,1169,A,34.91779783922214,62.17811034706009,1.745889891961107,0.9766914734020974,A,615.8378999680281,Correct,sub_001_day_05_data.csv,1,300,46.0,Training at home,,,,,,,,,,,,,
1,5,1170,B,76.99563397644573,47.04401491579007,3.8497816988222864,0.7389656582740737,B,590.7491999678314,Correct,sub_001_day_05_data.csv,1,300,46.0,Training at home,,,,,,,,,,,,,
1,5,1171,B,79.08407578983731,66.53740764126562,3.954203789491866,1.045167155173547,A,926.9063002429904,Incorrect,sub_001_day_05_data.csv,0,300,46.0,Training at home,,,,,,,,,,,,,
1,5,1172,A,25.9877894974427,53.52989368857311,1.299389474872135,0.8408456037973195,A,576.4438998885453,Correct,sub_001_day_05_data.csv,1,300,46.0,Training at home,,,,,,,,,,,,,
1,5,1173,A,16.657640388812077,36.720265677377995,0.8328820194406038,0.5768005844495807,A,595.9679000079632,Correct,sub_001_day_05_data.csv,1,300,46.0,Training at home,,,,,,,,,,,,,
1,5,1174,B,37.71874779376728,18.82190686651493,1.885937389688364,0.2956538216919728,B,1253.4313001669943,Correct,sub_001_day_05_data.csv,1,300,46.0,Training at home,,,,,,,,,,,,,
1,5,1175,B,42.518294655433856,26.458748487307957,2.125914732771693,0.4156130493545337,B,3554.0827997028828,Correct,sub_001_day_05_data.csv,1,300,47.0,Training at home,,,,,,,,,,,,,
1,5,1176,B,51.107635543507,40.28472022813585,2.55538177717535,0.6327909056031585,B,879.1828001849353,Correct,sub_001_day_05_data.csv,1,300,47.0,Training at home,,,,,,,,,,,,,
1,5,1177,A,26.984321132105823,37.064029437888706,1.349216056605291,0.5822004129725349,A,957.2219997644424,Correct,sub_001_day_05_data.csv,1,300,47.0,Training at home,,,,,,,,,,,,,
1,5,1178,B,49.89387980260376,29.211964157291163,2.494693990130188,0.4588604599673713,B,7870.81929994747,Correct,sub_001_day_05_data.csv,1,300,47.0,Training at home,,,,,,,,,,,,,
1,5,1179,A,24.37245013145959,52.86668718744147,1.21862250657298,0.830427980438479,A,2939.1982997767627,Correct,sub_001_day_05_data.csv,1,300,47.0,Training at home,,,,,,,,,,,,,
1,5,1180,A,29.516123669491783,47.50913329627487,1.475806183474589,0.7462717207099768,A,918.7091998755932,Correct,sub_001_day_05_data.csv,1,300,47.0,Training at home,,,,,,,,,,,,,
1,5,1181,B,58.88738694710923,31.25852843870063,2.9443693473554613,0.4910078165252476,B,4820.492600090802,Correct,sub_001_day_05_data.csv,1,300,47.0,Training at home,,,,,,,,,,,,,
1,5,1182,B,51.047502185211506,29.08201329031387,2.5523751092605753,0.4568191965222539,A,1594.0923998132348,Incorrect,sub_001_day_05_data.csv,0,300,47.0,Training at home,,,,,,,,,,,,,
1,5,1183,A,38.4506150572643,65.3412921672618,1.9225307528632152,1.02637861724367,B,1113.4832999669015,Incorrect,sub_001_day_05_data.csv,0,300,47.0,Training at home,,,,,,,,,,,,,
1,5,1184,A,56.89575732519714,76.24364474020814,2.8447878662598565,1.19763237099374,A,1232.5895996764302,Correct,sub_001_day_05_data.csv,1,300,47.0,Training at home,,,,,,,,,,,,,
1,5,1185,B,64.82528783132125,47.38448694629166,3.2412643915660624,0.7443137804229566,B,1792.0396998524666,Correct,sub_001_day_05_data.csv,1,300,47.0,Training at home,,,,,,,,,,,,,
1,5,1186,B,57.17499234877605,27.137699926756405,2.8587496174388023,0.4262779936261109,B,543.8613002188504,Correct,sub_001_day_05_data.csv,1,300,47.0,Training at home,,,,,,,,,,,,,
1,5,1187,A,57.222134458218115,82.13440258656647,2.8611067229109057,1.290164178864719,A,1872.4869997240603,Correct,sub_001_day_05_data.csv,1,300,47.0,Training at home,,,,,,,,,,,,,
1,5,1188,B,51.151549422084784,39.01809303358261,2.557577471104239,0.6128947721569311,B,1331.1442998237908,Correct,sub_001_day_05_data.csv,1,300,47.0,Training at home,,,,,,,,,,,,,
1,5,1189,A,27.3896659092311,49.63205567842175,1.369483295461555,0.7796185075094467,A,978.1098002567888,Correct,sub_001_day_05_data.csv,1,300,47.0,Training at home,,,,,,,,,,,,,
1,5,1190,A,32.008553046621316,42.694962627878326,1.600427652331066,0.6706509046851666,A,1077.62819994241,Correct,sub_001_day_05_data.csv,1,300,47.0,Training at home,,,,,,,,,,,,,
1,5,1191,A,41.91538004671938,61.4693426289753,2.095769002335969,0.9655581761209135,B,1149.5480998419223,Incorrect,sub_001_day_05_data.csv,0,300,47.0,Training at home,,,,,,,,,,,,,
1,5,1192,A,32.64181880696988,49.23197269213803,1.6320909403484938,0.7733340186567708,A,1072.9113998822868,Correct,sub_001_day_05_data.csv,1,300,47.0,Training at home,,,,,,,,,,,,,
1,5,1193,A,55.457070002155206,65.20381875880187,2.77285350010776,1.0242191899932616,A,1075.4991001449523,Correct,sub_001_day_05_data.csv,1,300,47.0,Training at home,,,,,,,,,,,,,
1,5,1194,A,30.469150038386815,63.52803637135295,1.5234575019193408,0.997896061806138,A,696.3465004228055,Correct,sub_001_day_05_data.csv,1,300,47.0,Training at home,,,,,,,,,,,,,
1,5,1195,A,39.19056077029706,57.45057619915437,1.959528038514853,0.90243154065882,B,1249.1898001171649,Incorrect,sub_001_day_05_data.csv,0,300,47.0,Training at home,,,,,,,,,,,,,
1,5,1196,A,52.95755000577822,68.5062483030513,2.647877500288911,1.0760936319693208,B,824.6972998604178,Incorrect,sub_001_day_05_data.csv,0,300,47.0,Training at home,,,,,,,,,,,,,
1,5,1197,B,69.38299228990759,55.688882042308926,3.4691496144953793,0.8747589135537314,A,873.7719999626279,Incorrect,sub_001_day_05_data.csv,0,300,47.0,Training at home,,,,,,,,,,,,,
1,5,1198,B,59.93038115433522,44.18334676839871,2.9965190577167613,0.6940303880930585,B,824.0881999954581,Correct,sub_001_day_05_data.csv,1,300,47.0,Training at home,,,,,,,,,,,,,
1,5,1199,A,12.526542215158486,40.03802961587443,0.6263271107579242,0.6289158985272083,A,1813.3111000061035,Correct,sub_001_day_05_data.csv,1,300,47.0,Training at home,,,,,,,,,,,,,
