subject,day,trial,cat,x,y,xt,yt,resp,rt,fb,f_name,acc,n_trials,block,session_type,ns_left_digit,ns_right_digit,ns_left_size,ns_right_size,ns_congruent,ns_cue,ns_correct_side,ns_resp,ns_rt,ns_fb,acc_stroop,acc_stroop_mean,resp_key
1,22,0,A,30.54836202539635,61.815456787248785,1.5274181012698176,0.9709949246055904,A,2066.8573000002652,Correct,sub_001_day_22_data.csv,1,308,,Dual-Task at home,6.0,4.0,small,big,False,Size,right,right,757.4703000718728,Correct,1.0,0.9577922077922078,
1,22,0,A,40.281014803817726,61.88515092781444,2.0140507401908865,0.9720896776055872,A,3687.086416990496,Correct,sub_016_day_22_data.csv,1,319,,Dual-Task at home,6.0,7.0,big,small,False,Size,left,right,1785.7402499648742,Incorrect,0.0,0.9278996865203761,
1,22,1,A,38.55193815274842,55.92774410604587,1.927596907637421,0.8785109500770178,A,1025.2987999701872,Correct,sub_001_day_22_data.csv,1,308,,Dual-Task at home,4.0,8.0,big,small,False,Value,right,right,476.4736999059096,Correct,1.0,0.9577922077922078,
1,22,1,B,70.90669395897349,52.89671477317546,3.545334697948675,0.8308996526522135,B,2537.3558750143275,Correct,sub_016_day_22_data.csv,1,319,,Dual-Task at home,3.0,6.0,big,small,False,Value,right,right,1465.866791026201,Correct,1.0,0.9278996865203761,
1,22,2,B,77.07501278807568,60.65583491482547,3.853750639403784,0.952779626828855,A,1315.7458000350744,Incorrect,sub_001_day_22_data.csv,0,308,,Dual-Task at home,6.0,4.0,small,big,False,Size,right,right,1283.9912000345066,Correct,1.0,0.9577922077922078,
1,22,2,B,38.53144935560029,20.848157663703475,1.9265724677800145,0.3274820947858629,B,1698.231374961324,Correct,sub_016_day_22_data.csv,1,319,,Dual-Task at home,6.0,8.0,big,small,False,Value,right,right,1258.4642079891637,Correct,1.0,0.9278996865203761,
1,22,3,B,65.27729249917788,36.208029489484055,3.2638646249588934,0.5687543972256285,B,1536.371499998495,Correct,sub_001_day_22_data.csv,1,308,,Dual-Task at home,7.0,4.0,small,big,False,Size,right,right,653.6407999228686,Correct,1.0,0.9577922077922078,
1,22,3,A,47.18990139752928,57.21574781963569,2.3594950698764636,0.8987428650990685,A,1616.8240000260994,Correct,sub_016_day_22_data.csv,1,319,,Dual-Task at home,3.0,2.0,small,big,False,Size,right,right,1361.092415987514,Correct,1.0,0.9278996865203761,
1,22,4,B,76.37781929399976,59.943351467465085,3.818890964699989,0.9415879630086964,A,1282.1765000699088,Incorrect,sub_001_day_22_data.csv,0,308,,Dual-Task at home,7.0,4.0,big,small,True,Size,left,left,1374.5314000407234,Correct,1.0,0.9577922077922078,
1,22,4,B,45.31213249762472,36.18306161505332,2.265606624881236,0.5683622027711918,A,2025.6475830101408,Incorrect,sub_016_day_22_data.csv,0,319,,Dual-Task at home,8.0,4.0,small,big,False,Size,right,right,1212.141582975164,Correct,1.0,0.9278996865203761,
1,22,5,B,80.20547640610614,60.79554920660783,4.010273820305307,0.9549742537921796,B,1556.3323000678793,Correct,sub_001_day_22_data.csv,1,308,,Dual-Task at home,3.0,4.0,big,small,False,Size,left,left,811.3181000808254,Correct,1.0,0.9577922077922078,
1,22,5,A,15.672594751418558,41.28708813568812,0.7836297375709279,0.6485360638759605,A,1002.6294160052204,Correct,sub_016_day_22_data.csv,1,319,,Dual-Task at home,6.0,4.0,big,small,True,Value,left,left,1425.2125410130247,Correct,1.0,0.9278996865203761,
1,22,6,A,57.89468733037562,78.18646330500519,2.8947343665187812,1.2281500936458614,A,826.8771000439301,Correct,sub_001_day_22_data.csv,1,308,,Dual-Task at home,6.0,4.0,small,big,False,Size,right,right,728.9527000393718,Correct,1.0,0.9577922077922078,
1,22,6,B,79.32192640170476,49.49894873983139,3.966096320085238,0.7775276686073604,B,1046.8927499605345,Correct,sub_016_day_22_data.csv,1,319,,Dual-Task at home,2.0,5.0,big,small,False,Value,right,right,901.6398739768192,Correct,1.0,0.9278996865203761,
1,22,7,B,78.207968947955,57.46188986406592,3.9103984473977498,0.9026092552916763,B,1275.031599914655,Correct,sub_001_day_22_data.csv,1,308,,Dual-Task at home,3.0,4.0,big,small,False,Value,right,right,1030.6524999905378,Correct,1.0,0.9577922077922078,
1,22,7,B,61.84917282529773,32.49780067918713,3.0924586412648862,0.5104742593577983,B,1581.682333024219,Correct,sub_016_day_22_data.csv,1,319,,Dual-Task at home,7.0,5.0,small,big,False,Size,right,right,1087.1872499701567,Correct,1.0,0.9278996865203761,
1,22,8,B,59.62094018080518,34.9290940538503,2.981047009040259,0.5486649263806151,B,1595.1523000840098,Correct,sub_001_day_22_data.csv,1,308,,Dual-Task at home,6.0,7.0,big,small,False,Size,left,left,944.4210000801831,Correct,1.0,0.9577922077922078,
1,22,8,B,49.87754374960948,35.365747459592455,2.493877187480474,0.5555238620388377,A,963.2754999911411,Incorrect,sub_016_day_22_data.csv,0,319,,Dual-Task at home,6.0,3.0,small,big,False,Value,left,left,1600.3574160276912,Correct,1.0,0.9278996865203761,
1,22,9,A,20.874852430438605,47.563682514539664,1.0437426215219303,0.7471285778267756,A,1765.105800004676,Correct,sub_001_day_22_data.csv,1,308,,Dual-Task at home,3.0,7.0,big,small,False,Size,left,left,555.0684999907389,Correct,1.0,0.9577922077922078,
1,22,9,A,48.87777251389669,65.93473909799921,2.443888625694834,1.0357004598331705,A,699.993165966589,Correct,sub_016_day_22_data.csv,1,319,,Dual-Task at home,7.0,5.0,small,big,False,Size,right,right,960.6172500061804,Correct,1.0,0.9278996865203761,
1,22,10,A,53.62791517925762,73.6635009476056,2.6813957589628807,1.1571035670735128,A,1161.061199964024,Correct,sub_001_day_22_data.csv,1,308,,Dual-Task at home,3.0,8.0,big,small,False,Size,left,left,525.988900102675,Correct,1.0,0.9577922077922078,
1,22,10,B,40.4234347133564,21.377915337774155,2.0211717356678203,0.3358035088710792,A,1436.4576659863817,Incorrect,sub_016_day_22_data.csv,0,319,,Dual-Task at home,6.0,5.0,small,big,False,Value,left,right,771.80300001055,Incorrect,0.0,0.9278996865203761,
1,22,11,A,60.504181170255194,72.83327837346276,3.02520905851276,1.1440624613746548,A,852.398700080812,Correct,sub_001_day_22_data.csv,1,308,,Dual-Task at home,6.0,5.0,small,big,False,Value,left,left,1140.418899944052,Correct,1.0,0.9577922077922078,
1,22,11,A,60.53911093894969,79.84960638887759,3.0269555469474847,1.2542746841166723,A,622.4687910289504,Correct,sub_016_day_22_data.csv,1,319,,Dual-Task at home,4.0,7.0,small,big,True,Value,right,right,745.1735410140827,Correct,1.0,0.9278996865203761,
1,22,12,A,57.42318431330301,67.36110339744963,2.87115921566515,1.0581057378556509,A,870.6714999862015,Correct,sub_001_day_22_data.csv,1,308,,Dual-Task at home,7.0,2.0,small,big,False,Size,right,right,380.1044999854639,Correct,1.0,0.9577922077922078,
1,22,12,B,58.82418805062706,35.937951762876736,2.941209402531353,0.5645120262165895,B,2083.718541020062,Correct,sub_016_day_22_data.csv,1,319,,Dual-Task at home,7.0,5.0,small,big,False,Size,right,right,1044.6247910149395,Correct,1.0,0.9278996865203761,
1,22,13,B,39.17128182439414,21.685284226616165,1.958564091219707,0.3406316480867198,B,2351.0470000328496,Correct,sub_001_day_22_data.csv,1,308,,Dual-Task at home,7.0,2.0,small,big,False,Size,right,right,561.8441998958588,Correct,1.0,0.9577922077922078,
1,22,13,B,46.219010489977904,17.35650135000323,2.310950524498895,0.2726352856659574,B,993.177582975477,Correct,sub_016_day_22_data.csv,1,319,,Dual-Task at home,6.0,4.0,small,big,False,Value,left,left,504.00558300316334,Correct,1.0,0.9278996865203761,
1,22,14,B,43.49496017583614,20.237861493808364,2.174748008791807,0.3178955849665806,B,1865.026900079101,Correct,sub_001_day_22_data.csv,1,308,,Dual-Task at home,8.0,4.0,small,big,False,Value,left,left,422.96240001451224,Correct,1.0,0.9577922077922078,
1,22,14,A,50.12278634828186,77.40211393177688,2.5061393174140933,1.2158295625019522,A,825.9090830106288,Correct,sub_016_day_22_data.csv,1,319,,Dual-Task at home,5.0,6.0,big,small,False,Value,right,right,421.1630829959177,Correct,1.0,0.9278996865203761,
1,22,15,A,56.899806872943515,78.79284607825262,2.8449903436471753,1.2376751319743489,A,714.120699907653,Correct,sub_001_day_22_data.csv,1,308,,Dual-Task at home,6.0,2.0,small,big,False,Size,right,right,759.3216999666765,Correct,1.0,0.9577922077922078,
1,22,15,A,26.405663663547703,43.60180931199524,1.3202831831773851,0.6848956190889364,A,810.6020420091227,Correct,sub_016_day_22_data.csv,1,319,,Dual-Task at home,8.0,5.0,small,big,False,Value,left,right,2034.4634160283024,Incorrect,0.0,0.9278996865203761,
1,22,16,B,66.97938107301837,43.179986778999286,3.3489690536509187,0.6782696462350427,B,1448.281200020574,Correct,sub_001_day_22_data.csv,1,308,,Dual-Task at home,3.0,2.0,big,small,True,Size,left,right,484.1610000003129,Incorrect,0.0,0.9577922077922078,
1,22,16,A,37.531728130505634,51.46003460168911,1.8765864065252815,0.8083323332907153,A,2176.8359579727985,Correct,sub_016_day_22_data.csv,1,319,,Dual-Task at home,8.0,4.0,small,big,False,Size,right,right,1533.28833298292,Correct,1.0,0.9278996865203761,
1,22,17,B,83.59569455636877,61.38827927287016,4.179784727818438,0.9642848359008372,B,1186.1487999558449,Correct,sub_001_day_22_data.csv,1,308,,Dual-Task at home,4.0,2.0,small,big,False,Size,right,right,537.0358999352902,Correct,1.0,0.9577922077922078,
1,22,17,B,57.809103277614895,45.75708646871618,2.8904551638807447,0.7187506334989584,A,892.6804990042001,Incorrect,sub_016_day_22_data.csv,0,319,,Dual-Task at home,8.0,4.0,small,big,False,Size,right,right,827.2233749739826,Correct,1.0,0.9278996865203761,
1,22,18,B,58.1637057342399,45.202823517780246,2.908185286711995,0.7100442914248717,A,2963.793499977328,Incorrect,sub_001_day_22_data.csv,0,308,,Dual-Task at home,3.0,6.0,big,small,False,Value,right,right,782.9859999474138,Correct,1.0,0.9577922077922078,
1,22,18,B,62.62282548857206,47.063976941575696,3.131141274428603,0.739279221041868,B,1393.7985000084154,Correct,sub_016_day_22_data.csv,1,319,,Dual-Task at home,4.0,5.0,small,big,True,Size,right,right,829.5873749884777,Correct,1.0,0.9278996865203761,
1,22,19,A,30.018459269154064,58.40232300990699,1.500922963457703,0.9173815446025098,A,2314.7647000150755,Correct,sub_001_day_22_data.csv,1,308,,Dual-Task at home,3.0,8.0,big,small,False,Value,right,right,578.8412999827415,Correct,1.0,0.9577922077922078,
1,22,19,B,33.519112748155806,18.712018161670844,1.6759556374077902,0.2939276939527195,B,1214.2847920185886,Correct,sub_016_day_22_data.csv,1,319,,Dual-Task at home,5.0,6.0,big,small,False,Size,left,left,561.8942080182023,Correct,1.0,0.9278996865203761,
1,22,20,B,39.2675602311984,20.046838184320045,1.96337801155992,0.314894997837816,B,939.8775999434292,Correct,sub_001_day_22_data.csv,1,308,,Dual-Task at home,8.0,3.0,big,small,True,Size,left,left,1156.628599972464,Correct,1.0,0.9577922077922078,
1,22,20,B,82.0818712033286,68.32076414697778,4.10409356016643,1.0731800536589318,B,1821.5888330014425,Correct,sub_016_day_22_data.csv,1,319,,Dual-Task at home,2.0,8.0,big,small,False,Size,left,left,987.7431669738144,Correct,1.0,0.9278996865203761,
1,22,21,B,32.65169046457862,19.41213065698403,1.632584523228931,0.3049250353125312,A,3760.322400019504,Incorrect,sub_001_day_22_data.csv,0,308,,Dual-Task at home,8.0,7.0,small,big,False,Value,left,right,1924.5860999217257,Incorrect,0.0,0.9577922077922078,
1,22,21,B,44.26309271353785,34.98698308210809,2.2131546356768923,0.5495742451101058,A,2905.8519580285065,Incorrect,sub_016_day_22_data.csv,0,319,,Dual-Task at home,6.0,2.0,big,small,True,Value,left,left,1361.5188330295496,Correct,1.0,0.9278996865203761,
1,22,22,A,36.81203195838776,59.71035585036657,1.840601597919388,0.9379280764137196,A,2453.694500029087,Correct,sub_001_day_22_data.csv,1,308,,Dual-Task at home,4.0,7.0,small,big,True,Size,right,left,667.5078000407666,Incorrect,0.0,0.9577922077922078,
1,22,22,A,69.20095647231588,85.96250328361363,3.4600478236157937,1.3502958439999453,A,788.5744579834864,Correct,sub_016_day_22_data.csv,1,319,,Dual-Task at home,4.0,7.0,big,small,False,Size,left,left,767.2019169549458,Correct,1.0,0.9278996865203761,
1,22,23,B,62.68477221180679,37.029817124805795,3.134238610590339,0.581663007215317,B,1174.7603999683631,Correct,sub_001_day_22_data.csv,1,308,,Dual-Task at home,6.0,3.0,small,big,False,Value,left,left,676.9000999629498,Correct,1.0,0.9577922077922078,
1,22,23,B,47.49254218662743,30.657078016631992,2.3746271093313713,0.481560255387901,B,2060.4784580064006,Correct,sub_016_day_22_data.csv,1,319,,Dual-Task at home,7.0,6.0,small,big,False,Value,left,right,716.2213750416413,Incorrect,0.0,0.9278996865203761,
1,22,24,B,88.50083793066831,68.31529956842726,4.425041896533416,1.0730942162597854,A,1053.4114999463782,Incorrect,sub_001_day_22_data.csv,0,308,,Dual-Task at home,2.0,3.0,big,small,False,Size,left,left,975.777699961327,Correct,1.0,0.9577922077922078,
1,22,24,B,55.81804191325832,37.27785400799493,2.790902095662916,0.5855591614655485,B,1239.572874037549,Correct,sub_016_day_22_data.csv,1,319,,Dual-Task at home,5.0,4.0,small,big,False,Size,right,left,1029.8431249684654,Incorrect,0.0,0.9278996865203761,
1,22,25,A,21.731928216460933,35.133764439817256,1.0865964108230466,0.5518798812854211,A,1708.4838000591844,Correct,sub_001_day_22_data.csv,1,308,,Dual-Task at home,6.0,2.0,small,big,False,Value,left,left,828.2127999700606,Correct,1.0,0.9577922077922078,
1,22,25,A,29.402864272212113,54.441833293974696,1.4701432136106058,0.8551703176215556,A,586.1519160098396,Correct,sub_016_day_22_data.csv,1,319,,Dual-Task at home,6.0,3.0,small,big,False,Size,right,right,1072.2877079970203,Correct,1.0,0.9278996865203761,
1,22,26,B,52.77829671127006,39.15462282285998,2.638914835563503,0.6150393770718807,B,2777.657200000249,Correct,sub_001_day_22_data.csv,1,308,,Dual-Task at home,6.0,2.0,big,small,True,Size,left,left,1168.044500052929,Correct,1.0,0.9577922077922078,
1,22,26,A,59.71284862329437,69.13618715265346,2.9856424311647185,1.085988688279926,A,636.9125829660334,Correct,sub_016_day_22_data.csv,1,319,,Dual-Task at home,7.0,5.0,small,big,False,Value,left,left,802.7262079995126,Correct,1.0,0.9278996865203761,
1,22,27,B,77.96017525509295,59.1185863047117,3.898008762754648,0.928632582127482,A,870.5869000405073,Incorrect,sub_001_day_22_data.csv,0,308,,Dual-Task at home,7.0,6.0,small,big,False,Size,right,right,1717.7830999717116,Correct,1.0,0.9577922077922078,
1,22,27,A,42.968099906756805,56.18582883384728,2.1484049953378404,0.882564935501341,A,586.8772499961779,Correct,sub_016_day_22_data.csv,1,319,,Dual-Task at home,4.0,5.0,big,small,False,Size,left,right,942.0528750051744,Incorrect,0.0,0.9278996865203761,
1,22,28,B,48.483505131348075,20.52753352524001,2.4241752565674037,0.322445742596061,B,1625.390600063838,Correct,sub_001_day_22_data.csv,1,308,,Dual-Task at home,6.0,4.0,small,big,False,Size,right,left,1660.6323000742125,Incorrect,0.0,0.9577922077922078,
1,22,28,A,53.76971775228753,70.91314354078875,2.688485887614376,1.113901053953502,A,929.897207999602,Correct,sub_016_day_22_data.csv,1,319,,Dual-Task at home,8.0,5.0,small,big,False,Value,left,left,630.683500028681,Correct,1.0,0.9278996865203761,
1,22,29,A,31.14690591602742,57.16447012555982,1.5573452958013712,0.8979373969640595,A,1265.0185000384226,Correct,sub_001_day_22_data.csv,1,308,,Dual-Task at home,4.0,5.0,small,big,True,Size,right,right,1231.5048999153078,Correct,1.0,0.9577922077922078,
1,22,29,B,63.73932031134393,38.52668213225662,3.1869660155671964,0.6051757077694326,B,914.8989580571651,Correct,sub_016_day_22_data.csv,1,319,,Dual-Task at home,5.0,3.0,small,big,False,Size,right,right,1012.4899579677732,Correct,1.0,0.9278996865203761,
1,22,30,A,37.954805304243514,49.55602766689931,1.8977402652121755,0.7784242622971171,A,1909.2972999205813,Correct,sub_001_day_22_data.csv,1,308,,Dual-Task at home,2.0,4.0,big,small,False,Size,left,left,435.82859996240586,Correct,1.0,0.9577922077922078,
1,22,30,B,74.85747796858521,56.10226876530945,3.7428738984292607,0.8812523770140814,B,952.4832490133122,Correct,sub_016_day_22_data.csv,1,319,,Dual-Task at home,5.0,4.0,small,big,False,Value,left,left,1059.7049579955635,Correct,1.0,0.9278996865203761,
1,22,31,A,16.726784829606707,41.07910944904014,0.8363392414803354,0.6452691423055779,A,1101.2994999764487,Correct,sub_001_day_22_data.csv,1,308,,Dual-Task at home,2.0,8.0,small,big,True,Size,right,right,764.3448999151587,Correct,1.0,0.9577922077922078,
1,22,31,A,44.23828805393872,68.25065632777542,2.211914402696936,1.072078802610105,A,836.1789170303382,Correct,sub_016_day_22_data.csv,1,319,,Dual-Task at home,8.0,4.0,small,big,False,Size,right,right,774.6879999758676,Correct,1.0,0.9278996865203761,
1,22,32,B,79.85430404658658,63.0476707461187,3.992715202329328,0.9903504962097732,B,2606.4404000062495,Correct,sub_001_day_22_data.csv,1,308,,Dual-Task at home,7.0,2.0,small,big,False,Value,left,left,497.3893000278622,Correct,1.0,0.9577922077922078,
1,22,32,B,42.55767561118612,24.51517604659309,2.127883780559306,0.3850834848471866,A,2071.4252080069855,Incorrect,sub_016_day_22_data.csv,0,319,,Dual-Task at home,5.0,8.0,big,small,False,Size,left,left,1115.5236669583246,Correct,1.0,0.9278996865203761,
1,22,33,B,87.38060070414362,61.67464694185398,4.369030035207181,0.9687830887263632,A,2358.7702999357134,Incorrect,sub_001_day_22_data.csv,0,308,,Dual-Task at home,3.0,6.0,big,small,False,Value,right,right,854.5862999744713,Correct,1.0,0.9577922077922078,
1,22,33,A,51.79532785124912,67.13415387191668,2.5897663925624563,1.0545408230449012,A,1321.9544579624198,Correct,sub_016_day_22_data.csv,1,319,,Dual-Task at home,7.0,4.0,small,big,False,Value,left,left,849.4544160203077,Correct,1.0,0.9278996865203761,
1,22,34,A,33.25498480360941,63.94611358239863,1.6627492401804704,1.0044632032804102,A,3318.1343000615016,Correct,sub_001_day_22_data.csv,1,308,,Dual-Task at home,8.0,4.0,small,big,False,Value,left,left,426.003500004299,Correct,1.0,0.9577922077922078,
1,22,34,B,62.916973448503725,31.879713859855393,3.145848672425186,0.5007653743033321,B,1576.383333012927,Correct,sub_016_day_22_data.csv,1,319,,Dual-Task at home,7.0,4.0,small,big,False,Value,left,left,1046.6654159827158,Correct,1.0,0.9278996865203761,
1,22,35,B,56.1736546343509,28.62873013250104,2.8086827317175453,0.44969904132935,B,1739.777100039646,Correct,sub_001_day_22_data.csv,1,308,,Dual-Task at home,6.0,4.0,small,big,False,Value,left,left,915.1868000626564,Correct,1.0,0.9577922077922078,
1,22,35,B,44.96207772146075,27.936577267383505,2.2481038860730376,0.4388267295482781,B,1727.2837909986265,Correct,sub_016_day_22_data.csv,1,319,,Dual-Task at home,7.0,8.0,big,small,False,Size,left,left,923.5423739883116,Correct,1.0,0.9278996865203761,
1,22,36,A,43.40701376693029,69.6800630459047,2.1703506883465145,1.0945318708334393,A,1202.728800009936,Correct,sub_001_day_22_data.csv,1,308,,Dual-Task at home,6.0,2.0,small,big,False,Size,right,right,559.8775999387726,Correct,1.0,0.9577922077922078,
1,22,36,B,63.28205594351518,31.425558134120415,3.1641027971757594,0.4936315128455583,B,1713.1051670294255,Correct,sub_016_day_22_data.csv,1,319,,Dual-Task at home,5.0,7.0,small,big,True,Size,right,right,1144.2570830113254,Correct,1.0,0.9278996865203761,
1,22,37,A,32.74859626577046,65.48369230646063,1.637429813288523,1.028615433399556,A,1413.81719999481,Correct,sub_001_day_22_data.csv,1,308,,Dual-Task at home,7.0,4.0,small,big,False,Size,right,right,387.0513000292703,Correct,1.0,0.9577922077922078,
1,22,37,A,50.25336848137968,61.06343118150402,2.512668424068984,0.9591821340139948,A,763.0280830198899,Correct,sub_016_day_22_data.csv,1,319,,Dual-Task at home,2.0,7.0,big,small,False,Value,right,right,927.054958010558,Correct,1.0,0.9278996865203761,
1,22,38,B,81.11449118597042,54.05136211419814,4.055724559298522,0.8490368106724328,B,2226.4952999539673,Correct,sub_001_day_22_data.csv,1,308,,Dual-Task at home,2.0,4.0,big,small,False,Size,left,left,434.5628999872133,Correct,1.0,0.9577922077922078,
1,22,38,B,71.38379085909274,47.70526961040373,3.5691895429546374,0.7493526227278238,B,1334.225248952862,Correct,sub_016_day_22_data.csv,1,319,,Dual-Task at home,4.0,5.0,small,big,True,Size,right,right,773.2302909716964,Correct,1.0,0.9278996865203761,
1,22,39,B,54.05683410005522,23.62698847601647,2.702841705002761,0.3711318671135203,B,1062.9902000073344,Correct,sub_001_day_22_data.csv,1,308,,Dual-Task at home,2.0,5.0,big,small,False,Value,right,right,1153.4512999933213,Correct,1.0,0.9577922077922078,
1,22,39,B,52.340731041789695,34.95678597406423,2.617036552089485,0.5490999100461545,B,1241.3579580024816,Correct,sub_016_day_22_data.csv,1,319,,Dual-Task at home,5.0,2.0,small,big,False,Size,right,right,1240.4903740389273,Correct,1.0,0.9278996865203761,
1,22,40,B,67.94482238487424,56.50074230335338,3.397241119243712,0.8875115847129251,A,854.8469000961632,Incorrect,sub_001_day_22_data.csv,0,308,,Dual-Task at home,4.0,8.0,big,small,False,Size,left,left,1419.9577000690624,Correct,1.0,0.9577922077922078,
1,22,40,B,54.842055880978656,36.619311045789736,2.742102794048933,0.575214792804863,B,1715.2522910037078,Correct,sub_016_day_22_data.csv,1,319,,Dual-Task at home,2.0,7.0,big,small,False,Size,left,left,745.2693750383332,Correct,1.0,0.9278996865203761,
1,22,41,B,85.19152932396189,57.32575415236239,4.259576466198094,0.9004708405327814,B,1853.314599953592,Correct,sub_001_day_22_data.csv,1,308,,Dual-Task at home,6.0,5.0,small,big,False,Size,right,right,440.5663999496028,Correct,1.0,0.9577922077922078,
1,22,41,B,62.08534556539784,48.46405256017118,3.104267278269893,0.7612715574311169,A,899.5297080255114,Incorrect,sub_016_day_22_data.csv,0,319,,Dual-Task at home,2.0,5.0,big,small,False,Value,right,right,1261.3813750213012,Correct,1.0,0.9278996865203761,
1,22,42,A,21.136610506028905,36.106498348689485,1.0568305253014452,0.5671595497954744,A,1446.5377000160515,Correct,sub_001_day_22_data.csv,1,308,,Dual-Task at home,6.0,5.0,big,small,True,Value,left,left,898.5401999671012,Correct,1.0,0.9577922077922078,
1,22,42,A,35.03732041192337,44.38839001538261,1.7518660205961682,0.6972511998850227,A,877.5613330071792,Correct,sub_016_day_22_data.csv,1,319,,Dual-Task at home,6.0,4.0,small,big,False,Size,right,right,1004.8413330223412,Correct,1.0,0.9278996865203761,
1,22,43,A,22.24849829309316,34.56289675678674,1.112424914654658,0.5429127126895186,A,2468.157200026326,Correct,sub_001_day_22_data.csv,1,308,,Dual-Task at home,2.0,6.0,small,big,True,Size,right,right,454.39329999499023,Correct,1.0,0.9577922077922078,
1,22,43,B,40.101273060662635,27.43349433173564,2.005063653033132,0.4309243212743895,A,509.9304579780437,Incorrect,sub_016_day_22_data.csv,0,319,,Dual-Task at home,4.0,3.0,big,small,True,Size,left,right,1495.1613739831373,Incorrect,0.0,0.9278996865203761,
1,22,44,B,86.2703982142585,65.59718626914324,4.313519910712926,1.0303981923965082,B,1362.5765000469985,Correct,sub_001_day_22_data.csv,1,308,,Dual-Task at home,8.0,3.0,small,big,False,Value,left,left,592.3861999763176,Correct,1.0,0.9577922077922078,
1,22,44,B,44.24663261398497,19.373558500874637,2.212331630699248,0.3043191453011992,B,584.2621670453809,Correct,sub_016_day_22_data.csv,1,319,,Dual-Task at home,7.0,4.0,small,big,False,Size,right,right,529.6715410077013,Correct,1.0,0.9278996865203761,
1,22,45,A,26.266750049904843,39.76690667846263,1.313337502495242,0.6246571093852454,A,1097.5452000275254,Correct,sub_001_day_22_data.csv,1,308,,Dual-Task at home,8.0,6.0,small,big,False,Value,left,left,3191.397999995388,Correct,1.0,0.9577922077922078,
1,22,45,A,54.42839622190064,66.64450972413363,2.721419811095032,1.0468495107571587,A,725.3448330448009,Correct,sub_016_day_22_data.csv,1,319,,Dual-Task at home,6.0,3.0,big,small,True,Value,left,left,1129.8441240214745,Correct,1.0,0.9278996865203761,
1,22,46,B,78.97829838612384,60.26228698698446,3.948914919306192,0.9465977904341508,B,981.5473000053316,Correct,sub_001_day_22_data.csv,1,308,,Dual-Task at home,5.0,2.0,small,big,False,Size,right,right,584.7735999850556,Correct,1.0,0.9577922077922078,
1,22,46,A,44.05943951650113,71.946355258187,2.2029719758250565,1.1301307056584085,A,862.5372080132365,Correct,sub_016_day_22_data.csv,1,319,,Dual-Task at home,7.0,3.0,small,big,False,Size,right,right,757.1168740396388,Correct,1.0,0.9278996865203761,
1,22,47,A,17.190840138909934,32.579579450559706,0.8595420069454967,0.5117588372946168,A,1026.7136000329629,Correct,sub_001_day_22_data.csv,1,308,,Dual-Task at home,5.0,4.0,small,big,False,Size,right,right,406.7861000075936,Correct,1.0,0.9577922077922078,
1,22,47,B,69.94248041298766,50.37040422853652,3.497124020649383,0.7912164594135929,B,799.9781249673106,Correct,sub_016_day_22_data.csv,1,319,,Dual-Task at home,7.0,6.0,small,big,False,Value,left,left,1136.4870829856957,Correct,1.0,0.9278996865203761,
1,22,48,A,38.69410450706031,71.66602014422493,1.9347052253530157,1.1257272119855757,A,1155.243200017139,Correct,sub_001_day_22_data.csv,1,308,,Dual-Task at home,4.0,5.0,big,small,False,Size,left,left,409.2190000228584,Correct,1.0,0.9577922077922078,
1,22,48,B,88.29783509639644,65.25487810065414,4.4148917548198225,1.0250212282595623,B,780.7948749978095,Correct,sub_016_day_22_data.csv,1,319,,Dual-Task at home,8.0,5.0,small,big,False,Value,left,left,875.8118329569697,Correct,1.0,0.9278996865203761,
1,22,49,A,51.87251395207855,81.42019403733357,2.5936256976039274,1.2789454172077133,A,882.9720000503585,Correct,sub_001_day_22_data.csv,1,308,,Dual-Task at home,5.0,8.0,big,small,False,Value,right,right,734.7543999785557,Correct,1.0,0.9577922077922078,
1,22,49,B,89.47195993625506,64.61385291112451,4.473597996812753,1.0149520281286013,B,652.0223740371875,Correct,sub_016_day_22_data.csv,1,319,,Dual-Task at home,8.0,7.0,small,big,False,Value,left,left,530.6214989977889,Correct,1.0,0.9278996865203761,
1,22,50,A,18.68642434564636,36.41516135969311,0.934321217282318,0.5720080170344938,A,1359.5949999289587,Correct,sub_001_day_22_data.csv,1,308,,Dual-Task at home,7.0,8.0,big,small,False,Value,right,right,869.3725999910384,Correct,1.0,0.9577922077922078,
1,22,50,A,29.169211855183796,55.71587050361684,1.4584605927591898,0.8751828473126145,A,787.5417489558458,Correct,sub_016_day_22_data.csv,1,319,,Dual-Task at home,7.0,5.0,small,big,False,Value,left,left,1619.8367910110392,Correct,1.0,0.9278996865203761,
1,22,51,A,21.992360351902505,52.058959171036115,1.0996180175951251,0.8177402184262903,A,1600.8839999558404,Correct,sub_001_day_22_data.csv,1,308,,Dual-Task at home,2.0,3.0,big,small,False,Value,right,right,1014.1950999386607,Correct,1.0,0.9577922077922078,
1,22,51,B,84.6716553343858,58.70226565635469,4.233582766719291,0.9220930326754015,B,673.9144999883138,Correct,sub_016_day_22_data.csv,1,319,,Dual-Task at home,3.0,7.0,big,small,False,Value,right,right,995.8939580246806,Correct,1.0,0.9278996865203761,
1,22,52,A,52.17407584902267,63.80612226057506,2.608703792451134,1.002264224739374,A,798.1977000599727,Correct,sub_001_day_22_data.csv,1,308,,Dual-Task at home,2.0,8.0,big,small,False,Value,right,right,1161.3746000221,Correct,1.0,0.9577922077922078,
1,22,52,B,34.32460619997822,18.61729041240752,1.7162303099989111,0.2924397139468357,B,623.5853750258684,Correct,sub_016_day_22_data.csv,1,319,,Dual-Task at home,4.0,3.0,big,small,True,Value,left,left,757.14787497418,Correct,1.0,0.9278996865203761,
1,22,53,B,55.1824199382724,28.5472839118398,2.7591209969136203,0.44841968708689,B,744.7619000449777,Correct,sub_001_day_22_data.csv,1,308,,Dual-Task at home,2.0,5.0,big,small,False,Value,right,right,563.5080999927595,Correct,1.0,0.9577922077922078,
1,22,53,B,55.21337257916099,26.05507455602523,2.76066862895805,0.4092721540697159,B,1275.2106249681674,Correct,sub_016_day_22_data.csv,1,319,,Dual-Task at home,6.0,3.0,small,big,False,Size,right,right,1713.2137079606764,Correct,1.0,0.9278996865203761,
1,22,54,B,32.3896426028562,19.05984884771507,1.6194821301428102,0.2993914055925678,B,994.5525999646634,Correct,sub_001_day_22_data.csv,1,308,,Dual-Task at home,3.0,2.0,big,small,True,Size,left,left,911.5649999585004,Correct,1.0,0.9577922077922078,
1,22,54,B,73.04980517048308,45.30347104078849,3.652490258524154,0.7116252590192952,B,820.4735409817658,Correct,sub_016_day_22_data.csv,1,319,,Dual-Task at home,8.0,3.0,small,big,False,Value,left,left,730.7331660413183,Correct,1.0,0.9278996865203761,
1,22,55,A,43.56117613656266,73.6170643655143,2.178058806828133,1.1563741429477332,A,738.4473999263719,Correct,sub_001_day_22_data.csv,1,308,,Dual-Task at home,5.0,7.0,small,big,True,Value,right,right,311.63339992053807,Correct,1.0,0.9577922077922078,
1,22,55,B,41.3824179467597,29.687125146981316,2.069120897337985,0.4663242713397865,A,672.9429170372896,Incorrect,sub_016_day_22_data.csv,0,319,,Dual-Task at home,5.0,6.0,big,small,False,Size,left,left,1082.599957997445,Correct,1.0,0.9278996865203761,
1,22,56,A,23.63149987671028,39.9451905127275,1.181574993835514,0.6274575853051471,A,1422.1295000752434,Correct,sub_001_day_22_data.csv,1,308,,Dual-Task at home,8.0,7.0,small,big,False,Value,left,left,738.4091999847442,Correct,1.0,0.9577922077922078,
1,22,56,B,71.94162849391594,39.82157242467762,3.597081424695797,0.6255157969188055,B,567.0248750247993,Correct,sub_016_day_22_data.csv,1,319,,Dual-Task at home,3.0,4.0,big,small,False,Size,left,left,691.9866239768453,Correct,1.0,0.9278996865203761,
1,22,57,A,33.31154606063848,53.715239437870785,1.665577303031924,0.843757008019158,A,1133.3678999217227,Correct,sub_001_day_22_data.csv,1,308,,Dual-Task at home,3.0,8.0,big,small,False,Value,right,right,506.2944999663159,Correct,1.0,0.9577922077922078,
1,22,57,B,47.48874501330734,23.652209421323,2.3744372506653666,0.3715280367959781,A,2188.0583750316873,Incorrect,sub_016_day_22_data.csv,0,319,,Dual-Task at home,4.0,6.0,big,small,False,Value,right,right,638.3652079966851,Correct,1.0,0.9278996865203761,
1,22,58,B,51.86625967781026,35.778323508840586,2.593312983890513,0.5620045914656628,A,1417.2473999205977,Incorrect,sub_001_day_22_data.csv,0,308,,Dual-Task at home,6.0,2.0,big,small,True,Size,left,left,444.4194999523461,Correct,1.0,0.9577922077922078,
1,22,58,A,64.2202338997242,81.15715723209163,3.2110116949862104,1.2748136447328542,A,659.4847919768654,Correct,sub_016_day_22_data.csv,1,319,,Dual-Task at home,3.0,5.0,big,small,False,Value,right,right,811.0076250159182,Correct,1.0,0.9278996865203761,
1,22,59,B,76.7518306836746,44.31776315346059,3.83759153418373,0.6961417957322211,B,1130.658600013703,Correct,sub_001_day_22_data.csv,1,308,,Dual-Task at home,8.0,6.0,small,big,False,Value,left,left,630.8251000009477,Correct,1.0,0.9577922077922078,
1,22,59,A,53.31734720971093,73.63454082320794,2.6658673604855467,1.1566486625032388,A,830.2409580210224,Correct,sub_016_day_22_data.csv,1,319,,Dual-Task at home,8.0,5.0,small,big,False,Value,left,right,878.2796239829622,Incorrect,0.0,0.9278996865203761,
1,22,60,B,51.43735332083003,22.08461097790548,2.571867666041501,0.3469042580278818,B,1750.123200006783,Correct,sub_001_day_22_data.csv,1,308,,Dual-Task at home,2.0,6.0,big,small,False,Size,left,left,619.3685999605805,Correct,1.0,0.9577922077922078,
1,22,60,B,55.949732980169706,45.37808609543027,2.7974866490084853,0.7127973095568444,A,529.5364999910817,Incorrect,sub_016_day_22_data.csv,0,319,,Dual-Task at home,8.0,4.0,small,big,False,Size,right,right,1530.323417042382,Correct,1.0,0.9278996865203761,
1,22,61,B,37.52617310403341,26.498046392040017,1.87630865520167,0.4162303393985722,B,2586.0893999924883,Correct,sub_001_day_22_data.csv,1,308,,Dual-Task at home,5.0,2.0,small,big,False,Value,left,left,666.162500041537,Correct,1.0,0.9577922077922078,
1,22,61,B,54.729612481860606,24.625858325474972,2.73648062409303,0.3868220780182761,B,1034.293791977689,Correct,sub_016_day_22_data.csv,1,319,,Dual-Task at home,8.0,4.0,big,small,True,Value,left,left,662.1539579937235,Correct,1.0,0.9278996865203761,
1,22,62,B,62.112343729722795,42.27068367999034,3.10561718648614,0.6639863465563782,A,1084.7898999927563,Incorrect,sub_001_day_22_data.csv,0,308,,Dual-Task at home,2.0,4.0,small,big,True,Value,right,right,853.28889999073,Correct,1.0,0.9577922077922078,
1,22,62,B,83.81742200741235,68.4969158813805,4.190871100370617,1.0759470386325152,B,691.4178749429993,Correct,sub_016_day_22_data.csv,1,319,,Dual-Task at home,3.0,6.0,small,big,True,Value,right,right,970.2696240274236,Correct,1.0,0.9278996865203761,
1,22,63,B,39.78763321759059,19.211714664087022,1.9893816608795296,0.3017769082577954,B,791.7595999315381,Correct,sub_001_day_22_data.csv,1,308,,Dual-Task at home,7.0,3.0,big,small,True,Size,left,left,1624.0699999034405,Correct,1.0,0.9577922077922078,
1,22,63,A,25.067963465965917,46.06898395671764,1.253398173298296,0.723649907783851,A,429.4964579748921,Correct,sub_016_day_22_data.csv,1,319,,Dual-Task at home,7.0,5.0,small,big,False,Size,right,right,512.6589579740539,Correct,1.0,0.9278996865203761,
1,22,64,A,62.79634155480049,80.13339315750557,3.139817077740025,1.2587323962542103,A,1341.822100104764,Correct,sub_001_day_22_data.csv,1,308,,Dual-Task at home,8.0,3.0,small,big,False,Value,left,left,1194.8226999957114,Correct,1.0,0.9577922077922078,
1,22,64,A,44.69912750835095,74.9152822508047,2.2349563754175477,1.1767665018036697,A,607.7428740100004,Correct,sub_016_day_22_data.csv,1,319,,Dual-Task at home,7.0,6.0,small,big,False,Size,right,right,1355.3235409781337,Correct,1.0,0.9278996865203761,
1,22,65,B,65.94294101968923,54.33642407340948,3.297147050984462,0.8535145534568142,B,1605.2423999644816,Correct,sub_001_day_22_data.csv,1,308,,Dual-Task at home,2.0,6.0,big,small,False,Value,right,right,559.4522000756115,Correct,1.0,0.9577922077922078,
1,22,65,B,52.79087210941895,21.506376433493703,2.6395436054709474,0.3378213710440024,B,779.5431240228936,Correct,sub_016_day_22_data.csv,1,319,,Dual-Task at home,8.0,4.0,small,big,False,Value,left,left,994.8230420122854,Correct,1.0,0.9278996865203761,
1,22,66,A,48.88610360061113,63.23112004218297,2.4443051800305566,0.9932321110138816,A,676.0570000624284,Correct,sub_001_day_22_data.csv,1,308,,Dual-Task at home,2.0,4.0,big,small,False,Size,left,left,435.9902000287548,Correct,1.0,0.9577922077922078,
1,22,66,B,54.17463704990865,31.84271128856514,2.708731852495432,0.5001841392726851,B,821.0682490025647,Correct,sub_016_day_22_data.csv,1,319,,Dual-Task at home,3.0,6.0,big,small,False,Size,left,right,1248.186957964208,Incorrect,0.0,0.9278996865203761,
1,22,67,A,15.863060156595807,35.618943611416285,0.7931530078297904,0.5595010578912726,A,2764.4879000727087,Correct,sub_001_day_22_data.csv,1,308,,Dual-Task at home,8.0,5.0,small,big,False,Value,left,left,1834.6543000079691,Correct,1.0,0.9577922077922078,
1,22,67,A,20.20617670979392,33.514385506658,1.010308835489696,0.526442736486465,A,835.649624990765,Correct,sub_016_day_22_data.csv,1,319,,Dual-Task at home,5.0,7.0,big,small,False,Size,left,left,534.0476660057902,Correct,1.0,0.9278996865203761,
1,22,68,A,29.31997364666484,44.81913942123363,1.465998682333242,0.7040173957298212,A,2702.7282000053674,Correct,sub_001_day_22_data.csv,1,308,,Dual-Task at home,3.0,5.0,small,big,True,Size,right,right,362.7143000485375,Correct,1.0,0.9577922077922078,
1,22,68,B,44.699264580574166,33.04469503388012,2.234963229028708,0.5190648557927645,B,772.6362909888849,Correct,sub_016_day_22_data.csv,1,319,,Dual-Task at home,7.0,5.0,small,big,False,Value,left,right,1851.9792080041952,Incorrect,0.0,0.9278996865203761,
1,22,69,A,40.326596273074536,53.99284269023629,2.016329813653727,0.8481175897103783,A,759.258099948056,Correct,sub_001_day_22_data.csv,1,308,,Dual-Task at home,2.0,4.0,big,small,False,Value,right,right,1257.2056000353768,Correct,1.0,0.9577922077922078,
1,22,69,A,14.136738901409576,37.96189651076372,0.7068369450704788,0.5963040759727566,A,610.7874159933999,Correct,sub_016_day_22_data.csv,1,319,,Dual-Task at home,7.0,2.0,small,big,False,Value,left,left,796.9790829811245,Correct,1.0,0.9278996865203761,
1,22,70,A,43.63255458383139,74.67674042894006,2.1816277291915696,1.17301949562795,A,886.5231999661773,Correct,sub_001_day_22_data.csv,1,308,,Dual-Task at home,5.0,2.0,small,big,False,Value,left,left,547.9613000061363,Correct,1.0,0.9577922077922078,
1,22,70,B,47.16386215181215,34.18824724784683,2.358193107590607,0.5370277319647353,B,1201.6139579936862,Correct,sub_016_day_22_data.csv,1,319,,Dual-Task at home,7.0,3.0,small,big,False,Size,right,right,1104.6540410025043,Correct,1.0,0.9278996865203761,
1,22,71,A,38.98728509296043,61.85094885289433,1.9493642546480217,0.971552432669054,A,1114.5414999919012,Correct,sub_001_day_22_data.csv,1,308,,Dual-Task at home,3.0,6.0,big,small,False,Value,right,right,389.4806000171229,Correct,1.0,0.9577922077922078,
1,22,71,A,64.34880187845117,75.55198965604787,3.2174400939225585,1.18676787833766,A,770.0877499883063,Correct,sub_016_day_22_data.csv,1,319,,Dual-Task at home,8.0,6.0,small,big,False,Size,right,right,1343.7832909985443,Correct,1.0,0.9278996865203761,
1,22,72,B,81.55478372800277,64.77435431655249,4.077739186400139,1.017473178309518,B,872.3626000573859,Correct,sub_001_day_22_data.csv,1,308,,Dual-Task at home,6.0,5.0,big,small,True,Value,left,left,638.9334999257699,Correct,1.0,0.9577922077922078,
1,22,72,B,57.702281749105005,45.70195750502496,2.8851140874552503,0.7178846697622965,A,790.9095830400474,Incorrect,sub_016_day_22_data.csv,0,319,,Dual-Task at home,6.0,8.0,big,small,False,Value,right,right,1016.4644169854,Correct,1.0,0.9278996865203761,
1,22,73,B,82.10107054546462,59.13582222849672,4.105053527273231,0.9289033233851864,A,897.46289991308,Incorrect,sub_001_day_22_data.csv,0,308,,Dual-Task at home,3.0,6.0,small,big,True,Size,right,right,693.6092999530956,Correct,1.0,0.9577922077922078,
1,22,73,B,78.4511341480835,51.18234064124117,3.922556707404175,0.8039703267602678,B,1142.8254170459695,Correct,sub_016_day_22_data.csv,1,319,,Dual-Task at home,3.0,7.0,big,small,False,Size,left,left,1184.486582991667,Correct,1.0,0.9278996865203761,
1,22,74,B,43.45159939963149,19.321717596236304,2.172579969981575,0.303504830275363,B,1203.6808000411838,Correct,sub_001_day_22_data.csv,1,308,,Dual-Task at home,7.0,3.0,small,big,False,Value,left,left,2314.947500010021,Correct,1.0,0.9577922077922078,
1,22,74,A,45.382069235868975,76.62084654339787,2.2691034617934487,1.2035574430628482,A,601.4756240183488,Correct,sub_016_day_22_data.csv,1,319,,Dual-Task at home,3.0,8.0,big,small,False,Value,right,right,1097.1070830128156,Correct,1.0,0.9278996865203761,
1,22,75,A,14.873818459678104,34.322087628243096,0.7436909229839053,0.5391300917437681,A,6946.000500000082,Correct,sub_001_day_22_data.csv,1,308,,Dual-Task at home,3.0,7.0,big,small,False,Size,left,left,751.4215999981388,Correct,1.0,0.9577922077922078,
1,22,75,A,47.05316198340608,55.816404914685144,2.352658099170304,0.8767620381488404,A,807.2092490037903,Correct,sub_016_day_22_data.csv,1,319,,Dual-Task at home,8.0,4.0,small,big,False,Size,right,right,957.5402080081404,Correct,1.0,0.9278996865203761,
1,22,76,B,85.23192126105899,58.217869496780935,4.2615960630529495,0.9144841555936816,B,799.9999000458047,Correct,sub_001_day_22_data.csv,1,308,,Dual-Task at home,6.0,3.0,small,big,False,Size,right,right,1397.5271000526843,Correct,1.0,0.9577922077922078,
1,22,76,A,14.810395446194985,36.36142470689549,0.7405197723097493,0.5711639236662064,A,488.9687499962747,Correct,sub_016_day_22_data.csv,1,319,,Dual-Task at home,3.0,8.0,big,small,False,Value,right,right,806.4532080315985,Correct,1.0,0.9278996865203761,
1,22,77,B,46.26194214555084,18.804455953919643,2.313097107277542,0.2953797033979339,B,1304.0334000252187,Correct,sub_001_day_22_data.csv,1,308,,Dual-Task at home,6.0,2.0,small,big,False,Size,right,right,465.98310000263155,Correct,1.0,0.9577922077922078,
1,22,77,B,65.56792159845469,33.98695517550956,3.2783960799227345,0.5338658434863321,B,700.7120419875719,Correct,sub_016_day_22_data.csv,1,319,,Dual-Task at home,4.0,2.0,small,big,False,Value,left,left,772.5899989600293,Correct,1.0,0.9278996865203761,
1,22,78,B,81.95045774508937,53.82365823905284,4.097522887254468,0.8454600465656807,B,909.3836999963968,Correct,sub_001_day_22_data.csv,1,308,,Dual-Task at home,6.0,7.0,big,small,False,Value,right,right,1002.481700037606,Correct,1.0,0.9577922077922078,
1,22,78,B,35.857318562481964,12.016123703747912,1.7928659281240982,0.188748829761603,B,1125.8042079862207,Correct,sub_016_day_22_data.csv,1,319,,Dual-Task at home,7.0,3.0,small,big,False,Value,left,left,395.7560829585418,Correct,1.0,0.9278996865203761,
1,22,79,A,18.766320603336435,32.0383334176136,0.938316030166822,0.5032569644901762,A,729.3333999114111,Correct,sub_001_day_22_data.csv,1,308,,Dual-Task at home,3.0,2.0,small,big,False,Value,left,left,1032.0042000385,Correct,1.0,0.9577922077922078,
1,22,79,A,20.4876947709834,42.840160980403304,1.02438473854917,0.6729316750731956,A,654.4743750127964,Correct,sub_016_day_22_data.csv,1,319,,Dual-Task at home,5.0,6.0,big,small,False,Value,right,right,848.6198750324547,Correct,1.0,0.9278996865203761,
1,22,80,A,62.66741098319415,72.2193366225499,3.1333705491597077,1.1344186869026551,A,1798.3888000017032,Correct,sub_001_day_22_data.csv,1,308,,Dual-Task at home,7.0,5.0,small,big,False,Value,left,left,742.2714000567794,Correct,1.0,0.9577922077922078,
1,22,80,A,51.7656681154547,82.28546867817535,2.588283405772734,1.2925371194827435,A,506.0213330434635,Correct,sub_016_day_22_data.csv,1,319,,Dual-Task at home,3.0,5.0,big,small,False,Size,left,right,870.5237499671057,Incorrect,0.0,0.9278996865203761,
1,22,81,A,34.1656238348057,66.26219665885938,1.708281191740285,1.0408441511709738,A,772.7680000243708,Correct,sub_001_day_22_data.csv,1,308,,Dual-Task at home,2.0,4.0,big,small,False,Size,left,left,1055.1951000234112,Correct,1.0,0.9577922077922078,
1,22,81,A,35.92844396177456,53.681670165485656,1.7964221980887285,0.8432297031216005,A,667.3802079749294,Correct,sub_016_day_22_data.csv,1,319,,Dual-Task at home,8.0,4.0,big,small,True,Size,left,right,1643.3077080291696,Incorrect,0.0,0.9278996865203761,
1,22,82,B,62.188999183422126,38.69062582883356,3.1094499591711067,0.6077509293332751,B,784.9385000299662,Correct,sub_001_day_22_data.csv,1,308,,Dual-Task at home,8.0,4.0,small,big,False,Value,left,left,975.8911000099032,Correct,1.0,0.9577922077922078,
1,22,82,B,77.02431973671096,53.53834117335859,3.851215986835548,0.8409782965780366,B,1201.0347080067731,Correct,sub_016_day_22_data.csv,1,319,,Dual-Task at home,7.0,6.0,small,big,False,Size,right,right,1224.715083022602,Correct,1.0,0.9278996865203761,
1,22,83,B,43.864582332918985,35.25128748618877,2.1932291166459494,0.5537259289809623,B,817.5554000772536,Correct,sub_001_day_22_data.csv,1,308,,Dual-Task at home,3.0,5.0,big,small,False,Size,left,left,1628.381900023669,Correct,1.0,0.9577922077922078,
1,22,83,B,31.084825583367714,11.449619821612078,1.5542412791683855,0.1798502075898629,B,733.576082973741,Correct,sub_016_day_22_data.csv,1,319,,Dual-Task at home,6.0,4.0,small,big,False,Value,left,left,833.8961660047062,Correct,1.0,0.9278996865203761,
1,22,84,B,54.32269144419179,24.25014495777752,2.7161345722095893,0.380920386239207,B,632.9840999096632,Correct,sub_001_day_22_data.csv,1,308,,Dual-Task at home,7.0,8.0,big,small,False,Value,right,right,616.2783000618219,Correct,1.0,0.9577922077922078,
1,22,84,B,50.43941688544723,30.46028309879644,2.5219708442723614,0.4784690080472212,B,986.556165968068,Correct,sub_016_day_22_data.csv,1,319,,Dual-Task at home,8.0,4.0,small,big,False,Value,left,left,763.3605409646407,Correct,1.0,0.9278996865203761,
1,22,85,A,18.414364792462163,44.05900951009384,0.9207182396231082,0.6920773030067683,A,1821.6366999549791,Correct,sub_001_day_22_data.csv,1,308,,Dual-Task at home,4.0,2.0,big,small,True,Size,left,left,341.5450999746099,Correct,1.0,0.9577922077922078,
1,22,85,B,35.50852943071371,20.03707629563787,1.7754264715356851,0.3147416584489706,B,1342.7515420480631,Correct,sub_016_day_22_data.csv,1,319,,Dual-Task at home,8.0,5.0,big,small,True,Size,left,left,517.9117490188219,Correct,1.0,0.9278996865203761,
1,22,86,A,34.27393856425125,61.71116225153171,1.7136969282125625,0.969356669869499,A,730.5283999303356,Correct,sub_001_day_22_data.csv,1,308,,Dual-Task at home,8.0,6.0,small,big,False,Value,left,left,419.31709996424615,Correct,1.0,0.9577922077922078,
1,22,86,B,69.75233768381275,52.90593396799872,3.4876168841906376,0.8310444674258574,B,722.295249986928,Correct,sub_016_day_22_data.csv,1,319,,Dual-Task at home,6.0,7.0,big,small,False,Size,left,left,481.6688750288449,Correct,1.0,0.9278996865203761,
1,22,87,A,52.57515843841559,74.71323902251191,2.6287579219207795,1.1735928141951082,A,682.3703000554815,Correct,sub_001_day_22_data.csv,1,308,,Dual-Task at home,5.0,6.0,big,small,False,Value,right,right,642.8237000945956,Correct,1.0,0.9577922077922078,
1,22,87,A,12.842770569197596,39.45482091547437,0.6421385284598798,0.6197548776837759,A,741.748665983323,Correct,sub_016_day_22_data.csv,1,319,,Dual-Task at home,7.0,5.0,small,big,False,Size,right,right,1068.3986659860238,Correct,1.0,0.9278996865203761,
1,22,88,B,34.11711605820465,18.98172041836129,1.7058558029102326,0.298164167094096,B,810.4532000143081,Correct,sub_001_day_22_data.csv,1,308,,Dual-Task at home,3.0,4.0,big,small,False,Size,left,left,500.7935999892652,Correct,1.0,0.9577922077922078,
1,22,88,A,53.273248210103326,72.66501668171122,2.6636624105051663,1.1414194129012187,A,653.8379580015317,Correct,sub_016_day_22_data.csv,1,319,,Dual-Task at home,3.0,4.0,big,small,False,Value,right,right,594.2267499631271,Correct,1.0,0.9278996865203761,
1,22,89,B,46.135602829839506,28.210865097754763,2.3067801414919753,0.4431352327125953,B,996.1502000223844,Correct,sub_001_day_22_data.csv,1,308,,Dual-Task at home,4.0,3.0,small,big,False,Size,right,right,372.9536000173539,Correct,1.0,0.9577922077922078,
1,22,89,B,60.75973247279652,34.32407781803996,3.037986623639826,0.5391613535719936,B,711.0131250228733,Correct,sub_016_day_22_data.csv,1,319,,Dual-Task at home,4.0,2.0,small,big,False,Size,right,left,559.3013330362737,Incorrect,0.0,0.9278996865203761,
1,22,90,A,21.57664827529168,48.78794886812278,1.078832413764584,0.766359308739045,A,801.3692999957129,Correct,sub_001_day_22_data.csv,1,308,,Dual-Task at home,2.0,3.0,big,small,False,Value,right,right,1024.5638999622315,Correct,1.0,0.9577922077922078,
1,22,90,B,64.690895299334,56.26925131061479,3.2345447649667,0.8838753327021263,B,867.2844170359895,Correct,sub_016_day_22_data.csv,1,319,,Dual-Task at home,7.0,3.0,small,big,False,Size,right,right,477.26733301533386,Correct,1.0,0.9278996865203761,
1,22,91,A,32.45524053056789,52.66147560510253,1.6227620265283946,0.827204524440941,A,813.5027999524027,Correct,sub_001_day_22_data.csv,1,308,,Dual-Task at home,8.0,2.0,small,big,False,Value,left,left,1200.6058000260964,Correct,1.0,0.9577922077922078,
1,22,91,A,43.889598724519615,69.34947113140004,2.1944799362259806,1.0893389451837192,A,2209.9488329840824,Correct,sub_016_day_22_data.csv,1,319,,Dual-Task at home,8.0,7.0,big,small,True,Value,left,left,263.7341250083409,Correct,1.0,0.9278996865203761,
1,22,92,A,25.660501003795325,45.88595370003216,1.2830250501897664,0.7207748752349121,B,2002.3760000476616,Incorrect,sub_001_day_22_data.csv,0,308,,Dual-Task at home,8.0,4.0,small,big,False,Size,right,right,377.2027000086382,Correct,1.0,0.9577922077922078,
1,22,92,A,25.754098386412167,43.104353519879886,1.2877049193206085,0.6770816017789599,A,586.5423750365153,Correct,sub_016_day_22_data.csv,1,319,,Dual-Task at home,7.0,4.0,small,big,False,Size,right,right,577.3860409972258,Correct,1.0,0.9278996865203761,
1,22,93,A,28.01026918363605,45.97178729728328,1.4005134591818027,0.7221231462276886,A,893.8320999732241,Correct,sub_001_day_22_data.csv,1,308,,Dual-Task at home,7.0,2.0,big,small,True,Value,left,left,312.25390010513365,Correct,1.0,0.9577922077922078,
1,22,93,A,43.043031920511304,52.03774812214114,2.1521515960255653,0.8174070360493733,A,591.8609169893898,Correct,sub_016_day_22_data.csv,1,319,,Dual-Task at home,4.0,5.0,big,small,False,Value,right,right,796.7082500108518,Correct,1.0,0.9278996865203761,
1,22,94,A,52.808239457099106,64.11781215725186,2.640411972854955,1.007160238187364,A,619.6989000309259,Correct,sub_001_day_22_data.csv,1,308,,Dual-Task at home,7.0,6.0,small,big,False,Size,right,right,360.4522000532598,Correct,1.0,0.9577922077922078,
1,22,94,A,36.83014932135828,45.8849450114128,1.8415074660679136,0.7207590307911304,A,553.5714169964194,Correct,sub_016_day_22_data.csv,1,319,,Dual-Task at home,8.0,2.0,small,big,False,Value,left,left,640.8012079773471,Correct,1.0,0.9278996865203761,
1,22,95,B,71.4018981253315,51.07836132356469,3.570094906266575,0.8023370234575793,B,690.5231999699026,Correct,sub_001_day_22_data.csv,1,308,,Dual-Task at home,6.0,7.0,small,big,True,Value,right,right,419.1552000120282,Correct,1.0,0.9577922077922078,
1,22,95,A,50.97156149629591,80.00579896888283,2.5485780748147957,1.2567281514261208,A,820.477708010003,Correct,sub_016_day_22_data.csv,1,319,,Dual-Task at home,6.0,3.0,small,big,False,Size,right,right,1028.6311670206487,Correct,1.0,0.9278996865203761,
1,22,96,A,53.45099897894161,77.07547321022334,2.6725499489470805,1.2106987020459727,A,571.3082000147551,Correct,sub_001_day_22_data.csv,1,308,,Dual-Task at home,6.0,8.0,big,small,False,Size,left,left,416.01120005361736,Correct,1.0,0.9577922077922078,
1,22,96,B,42.93278831194784,28.249736025461782,2.146639415597392,0.4437458158172083,A,973.5420829965732,Incorrect,sub_016_day_22_data.csv,0,319,,Dual-Task at home,7.0,8.0,big,small,False,Size,left,left,660.3855409775861,Correct,1.0,0.9278996865203761,
1,22,97,B,44.11619732282214,14.663676930924268,2.2058098661411067,0.230336498604029,B,685.0770999444649,Correct,sub_001_day_22_data.csv,1,308,,Dual-Task at home,3.0,8.0,small,big,True,Value,right,right,1456.728099961765,Correct,1.0,0.9577922077922078,
1,22,97,B,52.04437216421715,32.14970749805168,2.602218608210858,0.5050064244546992,B,743.2485410245135,Correct,sub_016_day_22_data.csv,1,319,,Dual-Task at home,5.0,2.0,small,big,False,Size,right,right,424.0255410550162,Correct,1.0,0.9278996865203761,
1,22,98,B,54.39271567480811,34.00959127881657,2.7196357837404053,0.5342214105656081,B,1332.2967999847606,Correct,sub_001_day_22_data.csv,1,308,,Dual-Task at home,5.0,7.0,big,small,False,Value,right,right,936.9339001132176,Correct,1.0,0.9577922077922078,
1,22,98,B,41.691842537769006,33.15228213191349,2.08459212688845,0.5207548299767779,A,641.7274579871446,Incorrect,sub_016_day_22_data.csv,0,319,,Dual-Task at home,6.0,2.0,small,big,False,Size,right,right,729.022832994815,Correct,1.0,0.9278996865203761,
1,22,99,A,38.94600144495882,56.378880780630936,1.947300072247941,0.8855973883902247,A,1943.996599991806,Correct,sub_001_day_22_data.csv,1,308,,Dual-Task at home,7.0,5.0,small,big,False,Size,right,right,404.7665999969467,Correct,1.0,0.9577922077922078,
1,22,99,A,33.116353225978095,52.80379677462635,1.6558176612989046,0.8294401001440727,A,518.9188330550678,Correct,sub_016_day_22_data.csv,1,319,,Dual-Task at home,5.0,3.0,small,big,False,Size,right,right,975.2545829978772,Correct,1.0,0.9278996865203761,
1,22,100,A,60.31847827370065,78.09060893921497,3.0159239136850324,1.226644416788956,A,745.5631999764591,Correct,sub_001_day_22_data.csv,1,308,,Dual-Task at home,8.0,4.0,small,big,False,Size,right,right,527.7812998974696,Correct,1.0,0.9577922077922078,
1,22,100,B,75.22198707065708,51.48025834596404,3.761099353532854,0.8086500071229263,B,828.1127080554143,Correct,sub_016_day_22_data.csv,1,319,,Dual-Task at home,2.0,5.0,big,small,False,Size,left,right,1171.2154999841005,Incorrect,0.0,0.9278996865203761,
1,22,101,A,44.241294802467046,75.7001426447975,2.212064740123352,1.1890950600429762,A,736.5464000031352,Correct,sub_001_day_22_data.csv,1,308,,Dual-Task at home,6.0,3.0,small,big,False,Value,left,left,867.3576000146568,Correct,1.0,0.9577922077922078,
1,22,101,A,38.64942670867245,52.37154866141225,1.9324713354336225,0.8226503626590654,A,453.68504198268056,Correct,sub_016_day_22_data.csv,1,319,,Dual-Task at home,6.0,4.0,small,big,False,Value,left,left,1041.2877079797909,Correct,1.0,0.9278996865203761,
1,22,102,A,48.82831412556321,68.70921182435667,2.4414157062781605,1.0792817755067194,A,1545.2217999845743,Correct,sub_001_day_22_data.csv,1,308,,Dual-Task at home,6.0,3.0,big,small,True,Value,left,left,241.25760002061725,Correct,1.0,0.9577922077922078,
1,22,102,A,41.27072960991713,51.343610690867685,2.063536480495857,0.8065035507760214,A,721.5700410306454,Correct,sub_016_day_22_data.csv,1,319,,Dual-Task at home,4.0,6.0,big,small,False,Value,right,right,881.7921250010841,Correct,1.0,0.9278996865203761,
1,22,103,B,38.61015093945019,16.464898184196073,1.9305075469725097,0.2586300158878715,B,939.52559994068,Correct,sub_001_day_22_data.csv,1,308,,Dual-Task at home,2.0,7.0,small,big,True,Value,right,right,219.1543000517413,Correct,1.0,0.9577922077922078,
1,22,103,A,56.49684275366886,70.74962722816086,2.8248421376834427,1.1113325457210328,A,674.8197490232997,Correct,sub_016_day_22_data.csv,1,319,,Dual-Task at home,3.0,6.0,big,small,False,Value,right,right,737.6707079820335,Correct,1.0,0.9278996865203761,
1,22,104,A,52.9341225186583,71.20531795262497,2.6467061259329148,1.11849051888246,A,653.613300062716,Correct,sub_001_day_22_data.csv,1,308,,Dual-Task at home,8.0,7.0,small,big,False,Size,right,right,506.7165000364184,Correct,1.0,0.9577922077922078,
1,22,104,B,64.35915954524107,31.575087494522677,3.2179579772620537,0.4959803145462368,B,968.594249978196,Correct,sub_016_day_22_data.csv,1,319,,Dual-Task at home,6.0,4.0,small,big,False,Value,left,left,804.1426669806242,Correct,1.0,0.9278996865203761,
1,22,105,B,59.79660392278395,47.78636769203148,2.9898301961391973,0.7506265084151336,A,1827.98299996648,Incorrect,sub_001_day_22_data.csv,0,308,,Dual-Task at home,7.0,2.0,small,big,False,Value,left,left,559.9972000345588,Correct,1.0,0.9577922077922078,
1,22,105,A,47.57283056517153,62.59879444718574,2.3786415282585764,0.9832995637942814,A,717.9553739842959,Correct,sub_016_day_22_data.csv,1,319,,Dual-Task at home,4.0,8.0,big,small,False,Value,right,right,659.9406670429744,Correct,1.0,0.9278996865203761,
1,22,106,A,26.27238367383007,45.54153329144433,1.3136191836915037,0.7153647321080827,A,1320.756100001745,Correct,sub_001_day_22_data.csv,1,308,,Dual-Task at home,3.0,5.0,big,small,False,Value,right,right,817.8017999744043,Correct,1.0,0.9577922077922078,
1,22,106,A,33.13426233634323,49.05380999073963,1.6567131168171614,0.7705354454874862,A,628.2516249921173,Correct,sub_016_day_22_data.csv,1,319,,Dual-Task at home,6.0,4.0,small,big,False,Size,right,right,778.12095801346,Correct,1.0,0.9278996865203761,
1,22,107,A,60.202093751966416,81.90193517056925,3.0101046875983206,1.2865125892332392,A,756.734500057064,Correct,sub_001_day_22_data.csv,1,308,,Dual-Task at home,8.0,4.0,small,big,False,Value,left,right,648.127100081183,Incorrect,0.0,0.9577922077922078,
1,22,107,B,67.5676980501954,36.66537945417264,3.3783849025097705,0.5759384336715546,B,813.8167079887353,Correct,sub_016_day_22_data.csv,1,319,,Dual-Task at home,8.0,5.0,small,big,False,Value,left,left,685.60654099565,Correct,1.0,0.9278996865203761,
1,22,108,A,39.38175130537265,48.335711837018074,1.9690875652686328,0.7592555860660458,B,2913.955399999395,Incorrect,sub_001_day_22_data.csv,0,308,,Dual-Task at home,4.0,7.0,big,small,False,Size,left,left,493.28469997271895,Correct,1.0,0.9577922077922078,
1,22,108,B,65.10225308308844,38.06063458475148,3.255112654154422,0.5978550500121043,B,1460.431999003049,Correct,sub_016_day_22_data.csv,1,319,,Dual-Task at home,4.0,6.0,small,big,True,Size,right,right,1084.0791669907048,Correct,1.0,0.9278996865203761,
1,22,109,B,35.231516090734424,11.195494309489945,1.7615758045367214,0.1758584133799997,B,754.7684999881312,Correct,sub_001_day_22_data.csv,1,308,,Dual-Task at home,6.0,8.0,big,small,False,Value,right,right,1174.0141999907792,Correct,1.0,0.9577922077922078,
1,22,109,B,59.90483196055494,30.29484527238423,2.995241598027747,0.4758703167468089,B,637.8960000001825,Correct,sub_016_day_22_data.csv,1,319,,Dual-Task at home,2.0,7.0,small,big,True,Value,right,left,657.2934999712743,Incorrect,0.0,0.9278996865203761,
1,22,110,B,56.80277255320045,44.50540381351681,2.8401386276600227,0.6990892483279578,B,947.5448000011966,Correct,sub_001_day_22_data.csv,1,308,,Dual-Task at home,3.0,2.0,small,big,False,Size,right,right,371.6066000051797,Correct,1.0,0.9577922077922078,
1,22,110,B,60.816673046320695,47.869734422454464,3.040833652316034,0.7519360299543869,B,1002.804916992318,Correct,sub_016_day_22_data.csv,1,319,,Dual-Task at home,6.0,3.0,small,big,False,Size,right,right,423.53929101955146,Correct,1.0,0.9278996865203761,
1,22,111,A,36.600861166672935,59.03886956234198,1.8300430583336469,0.927380394466498,A,600.0467999838293,Correct,sub_001_day_22_data.csv,1,308,,Dual-Task at home,7.0,6.0,small,big,False,Size,right,right,580.8162000030279,Correct,1.0,0.9577922077922078,
1,22,111,B,52.047853032313704,30.303224890927424,2.6023926516156854,0.4760019434870847,B,850.9124160045758,Correct,sub_016_day_22_data.csv,1,319,,Dual-Task at home,8.0,5.0,small,big,False,Value,left,left,530.2930829930119,Correct,1.0,0.9278996865203761,
1,22,112,B,74.0912005359352,41.22758323358591,3.70456002679676,0.6476013630594761,B,890.5381000367925,Correct,sub_001_day_22_data.csv,1,308,,Dual-Task at home,2.0,8.0,big,small,False,Size,left,left,1178.5882000112906,Correct,1.0,0.9577922077922078,
1,22,112,B,77.77445184687812,61.25467586563633,3.8887225923439064,0.9621861984875356,A,684.1157500166446,Incorrect,sub_016_day_22_data.csv,0,319,,Dual-Task at home,7.0,2.0,small,big,False,Size,right,right,1530.033999995794,Correct,1.0,0.9278996865203761,
1,22,113,A,28.885664260188257,55.43222036578224,1.444283213009413,0.87072728136656,A,1410.508400062099,Correct,sub_001_day_22_data.csv,1,308,,Dual-Task at home,4.0,7.0,big,small,False,Size,left,left,596.5638000052422,Correct,1.0,0.9577922077922078,
1,22,113,B,43.025349954179575,22.01086170852163,2.1512674977089787,0.3457458072133622,B,834.2112909886055,Correct,sub_016_day_22_data.csv,1,319,,Dual-Task at home,4.0,7.0,big,small,False,Value,right,right,791.7454579728656,Correct,1.0,0.9278996865203761,
1,22,114,B,70.5599692432018,38.83275960968113,3.5279984621600904,0.6099835615419634,B,644.331399933435,Correct,sub_001_day_22_data.csv,1,308,,Dual-Task at home,5.0,2.0,small,big,False,Value,left,left,449.97250009328127,Correct,1.0,0.9577922077922078,
1,22,114,B,69.67857676930163,52.07636576991942,3.4839288384650815,0.8180136406421691,B,847.1631249994971,Correct,sub_016_day_22_data.csv,1,319,,Dual-Task at home,6.0,5.0,big,small,True,Value,left,right,1061.4787919912487,Incorrect,0.0,0.9278996865203761,
1,22,115,B,67.16461004980223,41.57811999617682,3.358230502490112,0.6531075816503199,B,871.4536000043154,Correct,sub_001_day_22_data.csv,1,308,,Dual-Task at home,4.0,6.0,small,big,True,Size,right,right,947.7672000648454,Correct,1.0,0.9577922077922078,
1,22,115,B,37.84597250151305,28.413675060069593,1.8922986250756528,0.4463209641510108,A,1582.739791017957,Incorrect,sub_016_day_22_data.csv,0,319,,Dual-Task at home,8.0,7.0,small,big,False,Size,right,right,986.6903750225902,Correct,1.0,0.9278996865203761,
1,22,116,A,39.417235721226795,72.11919244610492,1.97086178606134,1.1328456258575588,A,1310.2912999456748,Correct,sub_001_day_22_data.csv,1,308,,Dual-Task at home,6.0,7.0,big,small,False,Value,right,right,543.8439999707043,Correct,1.0,0.9577922077922078,
1,22,116,B,47.11254401374393,17.018686602922987,2.3556272006871963,0.2673289040274494,B,722.2929580020718,Correct,sub_016_day_22_data.csv,1,319,,Dual-Task at home,5.0,7.0,big,small,False,Value,right,right,618.9901659963652,Correct,1.0,0.9278996865203761,
1,22,117,B,78.0101937373262,46.61532492313325,3.90050968686631,0.732231811616083,B,1212.6927999779582,Correct,sub_001_day_22_data.csv,1,308,,Dual-Task at home,2.0,7.0,big,small,False,Size,left,left,603.9256000658497,Correct,1.0,0.9577922077922078,
1,22,117,A,48.86001543626758,66.84550969949385,2.443000771813379,1.0500068109869756,A,608.3362919744104,Correct,sub_016_day_22_data.csv,1,319,,Dual-Task at home,8.0,6.0,small,big,False,Value,left,left,934.1235830215736,Correct,1.0,0.9278996865203761,
1,22,118,A,30.9857668228665,57.254512149861974,1.549288341143325,0.8993517737743697,A,741.2104000104591,Correct,sub_001_day_22_data.csv,1,308,,Dual-Task at home,4.0,2.0,small,big,False,Size,right,right,396.6582999564707,Correct,1.0,0.9577922077922078,
1,22,118,B,66.5495502551929,38.90540534796443,3.327477512759645,0.6111246781304905,B,638.2081669871695,Correct,sub_016_day_22_data.csv,1,319,,Dual-Task at home,7.0,5.0,small,big,False,Size,right,right,1463.6019159806892,Correct,1.0,0.9278996865203761,
1,22,119,A,32.9334482882213,57.55290987533369,1.6466724144110652,0.9040389942853188,A,2529.637199942954,Correct,sub_001_day_22_data.csv,1,308,,Dual-Task at home,8.0,2.0,big,small,True,Value,left,left,444.4849999854341,Correct,1.0,0.9577922077922078,
1,22,119,A,27.800341784402512,51.868264646773255,1.3900170892201258,0.8147447958437701,A,680.4692500154488,Correct,sub_016_day_22_data.csv,1,319,,Dual-Task at home,2.0,4.0,big,small,False,Size,left,left,798.2140409876592,Correct,1.0,0.9278996865203761,
1,22,120,B,71.4189179746075,58.111430776524784,3.5709458987303746,0.9128122200856104,B,1137.510500033386,Correct,sub_001_day_22_data.csv,1,308,,Dual-Task at home,6.0,3.0,small,big,False,Size,right,right,812.0033000595868,Correct,1.0,0.9577922077922078,
1,22,120,A,24.68847719066499,36.14027532278656,1.2344238595332495,0.5676901172638936,A,652.9312080238014,Correct,sub_016_day_22_data.csv,1,319,,Dual-Task at home,4.0,6.0,big,small,False,Size,left,left,1890.0334169738928,Correct,1.0,0.9278996865203761,
1,22,121,A,14.910156709648316,32.29909691558095,0.7455078354824158,0.5073530279378693,A,1145.5965000204742,Correct,sub_001_day_22_data.csv,1,308,,Dual-Task at home,2.0,3.0,small,big,True,Value,right,left,942.0172000536696,Incorrect,0.0,0.9577922077922078,
1,22,121,B,63.542935814887805,44.15909169753718,3.17714679074439,0.6936493903309041,A,595.4209160408936,Incorrect,sub_016_day_22_data.csv,0,319,,Dual-Task at home,6.0,7.0,big,small,False,Size,left,left,1085.2758329710923,Correct,1.0,0.9278996865203761,
1,22,122,B,51.18270008068938,35.927498808084955,2.559135004034469,0.5643478315866787,B,2142.236900050193,Correct,sub_001_day_22_data.csv,1,308,,Dual-Task at home,7.0,5.0,big,small,True,Value,left,left,222.9757999302819,Correct,1.0,0.9577922077922078,
1,22,122,B,39.139557416943425,26.89041078732788,1.9569778708471717,0.422393584907405,B,1085.9462909866124,Correct,sub_016_day_22_data.csv,1,319,,Dual-Task at home,4.0,7.0,small,big,True,Size,right,right,645.9647910087369,Correct,1.0,0.9278996865203761,
1,22,123,B,64.75946062179477,47.69642783782179,3.237973031089739,0.7492137364888832,A,1948.197700083256,Incorrect,sub_001_day_22_data.csv,0,308,,Dual-Task at home,3.0,5.0,small,big,True,Size,right,right,74.12289991043508,Correct,1.0,0.9577922077922078,
1,22,123,A,25.31732300225192,51.47193964778548,1.265866150112596,0.8085193373175004,A,586.7241249652579,Correct,sub_016_day_22_data.csv,1,319,,Dual-Task at home,5.0,3.0,small,big,False,Value,left,left,490.5718750087544,Correct,1.0,0.9278996865203761,
1,22,124,B,39.56352226309342,15.461668417696895,1.9781761131546711,0.2428713195663894,B,777.098499936983,Correct,sub_001_day_22_data.csv,1,308,,Dual-Task at home,7.0,8.0,big,small,False,Value,right,right,408.9759000344202,Correct,1.0,0.9577922077922078,
1,22,124,A,36.38167716494235,45.19326010521811,1.8190838582471176,0.7098940696916295,A,1073.435124999378,Correct,sub_016_day_22_data.csv,1,319,,Dual-Task at home,8.0,3.0,small,big,False,Size,right,right,788.3658750215545,Correct,1.0,0.9278996865203761,
1,22,125,A,27.779521173526778,50.15346274498597,1.3889760586763389,0.7878087505586865,A,784.6912000095472,Correct,sub_001_day_22_data.csv,1,308,,Dual-Task at home,8.0,7.0,small,big,False,Value,left,left,771.0679000010714,Correct,1.0,0.9577922077922078,
1,22,125,A,30.634019382152097,52.975730562779695,1.531700969107605,0.8321408297729048,A,549.7514990274794,Correct,sub_016_day_22_data.csv,1,319,,Dual-Task at home,8.0,6.0,small,big,False,Size,right,right,1475.5959170288406,Correct,1.0,0.9278996865203761,
1,22,126,B,58.72111982378285,30.37532958873009,2.9360559911891424,0.4771345614316155,B,632.7359999995679,Correct,sub_001_day_22_data.csv,1,308,,Dual-Task at home,5.0,8.0,small,big,True,Value,right,right,1779.6827000565827,Correct,1.0,0.9577922077922078,
1,22,126,A,54.7678717291926,78.11774781551651,2.73839358645963,1.227070713261034,A,616.4754169876687,Correct,sub_016_day_22_data.csv,1,319,,Dual-Task at home,2.0,7.0,big,small,False,Value,right,right,762.8041250281967,Correct,1.0,0.9278996865203761,
1,22,127,A,45.159288728164405,68.99019023196001,2.25796443640822,1.083695374012439,A,696.9616999849677,Correct,sub_001_day_22_data.csv,1,308,,Dual-Task at home,2.0,6.0,big,small,False,Size,left,left,583.7732999352738,Correct,1.0,0.9577922077922078,
1,22,127,B,76.01628991568121,54.16888800572943,3.800814495784061,0.8508829030596391,B,1174.0907500497997,Correct,sub_016_day_22_data.csv,1,319,,Dual-Task at home,3.0,2.0,small,big,False,Value,left,left,447.96991598559543,Correct,1.0,0.9278996865203761,
1,22,128,A,63.023364424236775,75.69860663115651,3.151168221211839,1.1890709323971245,A,979.6852000290528,Correct,sub_001_day_22_data.csv,1,308,,Dual-Task at home,7.0,5.0,small,big,False,Value,left,left,747.7053999900818,Correct,1.0,0.9577922077922078,
1,22,128,A,28.60048689575886,54.510860418635005,1.430024344787943,0.8562545931602118,A,605.7267499854788,Correct,sub_016_day_22_data.csv,1,319,,Dual-Task at home,2.0,6.0,big,small,False,Value,right,right,482.7469160081818,Correct,1.0,0.9278996865203761,
1,22,129,B,33.13419793339931,19.33989051248719,1.6567098966699654,0.3037902897763034,B,977.1237999666482,Correct,sub_001_day_22_data.csv,1,308,,Dual-Task at home,7.0,5.0,small,big,False,Size,right,right,1182.4190999614077,Correct,1.0,0.9577922077922078,
1,22,129,A,54.762363666176235,74.07889000586206,2.7381181833088117,1.163628483142513,A,713.8643329963088,Correct,sub_016_day_22_data.csv,1,319,,Dual-Task at home,2.0,3.0,big,small,False,Value,right,right,767.4452910432592,Correct,1.0,0.9278996865203761,
1,22,130,A,63.00551547634238,89.09675694385454,3.150275773817119,1.3995285853674442,A,1022.5293999537826,Correct,sub_001_day_22_data.csv,1,308,,Dual-Task at home,2.0,6.0,big,small,False,Size,left,right,1849.329699994996,Incorrect,0.0,0.9577922077922078,
1,22,130,A,63.88780196005678,87.02691302188926,3.194390098002839,1.367015553070826,A,699.8160419752821,Correct,sub_016_day_22_data.csv,1,319,,Dual-Task at home,3.0,5.0,big,small,False,Value,right,right,844.9120830046013,Correct,1.0,0.9278996865203761,
1,22,131,A,48.33125711130712,64.93541477695891,2.416562855565356,1.020003110105501,A,1220.0415999395773,Correct,sub_001_day_22_data.csv,1,308,,Dual-Task at home,4.0,7.0,big,small,False,Size,left,left,684.0607000049204,Correct,1.0,0.9577922077922078,
1,22,131,A,56.91667162710977,84.04136345089432,2.8458335813554885,1.3201186500749966,A,738.9248330146074,Correct,sub_016_day_22_data.csv,1,319,,Dual-Task at home,6.0,7.0,big,small,False,Value,right,right,747.3999990033917,Correct,1.0,0.9278996865203761,
1,22,132,B,73.47165474253677,54.02379794715412,3.6735827371268384,0.8486038337489936,B,733.2973000593483,Correct,sub_001_day_22_data.csv,1,308,,Dual-Task at home,8.0,2.0,small,big,False,Value,left,left,730.1049999659881,Correct,1.0,0.9577922077922078,
1,22,132,B,58.27492202244047,42.13625567954488,2.9137461011220234,0.661874756463197,B,1082.2210420155898,Correct,sub_016_day_22_data.csv,1,319,,Dual-Task at home,7.0,6.0,small,big,False,Value,left,left,1178.570333053358,Correct,1.0,0.9278996865203761,
1,22,133,A,53.919533548068415,62.05826467963587,2.695976677403421,0.9748089420603748,A,1147.7673000190407,Correct,sub_001_day_22_data.csv,1,308,,Dual-Task at home,5.0,2.0,small,big,False,Size,right,right,403.4979999996722,Correct,1.0,0.9577922077922078,
1,22,133,B,41.16055875447751,29.407892477102532,2.0580279377238755,0.4619380948181193,B,886.6046670009382,Correct,sub_016_day_22_data.csv,1,319,,Dual-Task at home,7.0,6.0,small,big,False,Value,left,left,735.7343329931609,Correct,1.0,0.9278996865203761,
1,22,134,A,38.23432003463485,66.63185944975079,1.9117160017317425,1.0466508007118236,A,1226.7177000176162,Correct,sub_001_day_22_data.csv,1,308,,Dual-Task at home,2.0,7.0,small,big,True,Size,right,right,357.1997999679297,Correct,1.0,0.9577922077922078,
1,22,134,A,65.6985081655929,79.84141724083727,3.284925408279645,1.2541460492800591,A,554.6572500024922,Correct,sub_016_day_22_data.csv,1,319,,Dual-Task at home,8.0,2.0,small,big,False,Size,right,right,480.73850001674145,Correct,1.0,0.9278996865203761,
1,22,135,B,67.02244499991207,34.635924502358016,3.3511222499956035,0.5440598298344933,B,1118.0942000355572,Correct,sub_001_day_22_data.csv,1,308,,Dual-Task at home,2.0,7.0,big,small,False,Value,right,right,450.99679997656494,Correct,1.0,0.9577922077922078,
1,22,135,A,62.21916799627594,85.51433886228946,3.110958399813797,1.3432560937317837,A,503.2609579502605,Correct,sub_016_day_22_data.csv,1,319,,Dual-Task at home,3.0,5.0,big,small,False,Size,left,left,988.5724160121754,Correct,1.0,0.9278996865203761,
1,22,136,A,55.75975032463624,69.27764193395254,2.787987516231812,1.0882106547886474,A,626.897000009194,Correct,sub_001_day_22_data.csv,1,308,,Dual-Task at home,7.0,2.0,small,big,False,Size,right,right,366.442900034599,Correct,1.0,0.9577922077922078,
1,22,136,A,52.185768296054675,66.26712841925671,2.6092884148027338,1.040921619082141,A,526.992873987183,Correct,sub_016_day_22_data.csv,1,319,,Dual-Task at home,4.0,2.0,big,small,True,Size,left,right,1733.1909170025028,Incorrect,0.0,0.9278996865203761,
1,22,137,A,44.562990060650904,74.5731471678754,2.2281495030325456,1.1713922564883392,A,811.068799928762,Correct,sub_001_day_22_data.csv,1,308,,Dual-Task at home,6.0,8.0,big,small,False,Value,right,right,503.444500034675,Correct,1.0,0.9577922077922078,
1,22,137,A,36.935978556611126,45.469964573305944,1.8467989278305563,0.7142405333124306,A,717.9897489841096,Correct,sub_016_day_22_data.csv,1,319,,Dual-Task at home,8.0,7.0,small,big,False,Size,right,right,664.6681249840185,Correct,1.0,0.9278996865203761,
1,22,138,A,51.655888269290315,81.00383966367323,2.582794413464516,1.2724053379998066,A,1556.159200030379,Correct,sub_001_day_22_data.csv,1,308,,Dual-Task at home,6.0,7.0,big,small,False,Size,left,left,656.558100017719,Correct,1.0,0.9577922077922078,
1,22,138,A,38.39810773932949,53.495769549030584,1.9199053869664744,0.8403095830668352,A,1186.8145830230787,Correct,sub_016_day_22_data.csv,1,319,,Dual-Task at home,8.0,2.0,small,big,False,Size,right,right,518.3738329797052,Correct,1.0,0.9278996865203761,
1,22,139,B,74.94823880346999,61.03792199544037,3.747411940173499,0.9587814366563114,B,780.1194000057876,Correct,sub_001_day_22_data.csv,1,308,,Dual-Task at home,2.0,6.0,big,small,False,Size,left,left,1916.3215999724343,Correct,1.0,0.9577922077922078,
1,22,139,B,48.40095226076793,28.578973664983437,2.4200476130383963,0.4489174685652406,B,772.8389579569921,Correct,sub_016_day_22_data.csv,1,319,,Dual-Task at home,7.0,8.0,big,small,False,Value,right,right,775.238582980819,Correct,1.0,0.9278996865203761,
1,22,140,B,78.88986925378957,52.987497587415525,3.9444934626894783,0.8323256657636575,B,818.4663999127224,Correct,sub_001_day_22_data.csv,1,308,,Dual-Task at home,7.0,6.0,small,big,False,Value,left,left,1620.683400076814,Correct,1.0,0.9577922077922078,
1,22,140,B,51.79358578784584,34.78155836577526,2.589679289392292,0.5463474412116208,B,498.4637909801677,Correct,sub_016_day_22_data.csv,1,319,,Dual-Task at home,7.0,3.0,big,small,True,Size,left,left,1163.7583330157213,Correct,1.0,0.9278996865203761,
1,22,141,A,18.75123150921021,42.88620633112757,0.9375615754605106,0.6736549537510322,A,820.0603000586852,Correct,sub_001_day_22_data.csv,1,308,,Dual-Task at home,8.0,2.0,small,big,False,Size,right,right,804.23319991678,Correct,1.0,0.9577922077922078,
1,22,141,B,61.207008210207974,41.55269472941819,3.0603504105103987,0.6527082024939976,A,455.8364999829791,Incorrect,sub_016_day_22_data.csv,0,319,,Dual-Task at home,7.0,2.0,small,big,False,Value,left,left,670.3017079853453,Correct,1.0,0.9278996865203761,
1,22,142,B,84.78298752579468,62.99328225924285,4.239149376289734,0.9894961638557278,A,785.7610000064597,Incorrect,sub_001_day_22_data.csv,0,308,,Dual-Task at home,2.0,5.0,big,small,False,Value,right,right,820.598200079985,Correct,1.0,0.9577922077922078,
1,22,142,B,58.31609081944168,30.798023564228167,2.915804540972084,0.4837742228723227,B,625.6185409729369,Correct,sub_016_day_22_data.csv,1,319,,Dual-Task at home,5.0,6.0,big,small,False,Size,left,left,1280.8459579828195,Correct,1.0,0.9278996865203761,
1,22,143,B,30.281656267964465,11.85665415730888,1.5140828133982234,0.1862438879837822,B,995.1257000211626,Correct,sub_001_day_22_data.csv,1,308,,Dual-Task at home,2.0,7.0,big,small,False,Value,right,right,395.7611999940127,Correct,1.0,0.9577922077922078,
1,22,143,A,60.03697005260705,69.29995192539539,3.0018485026303527,1.08856109931474,A,1244.961749005597,Correct,sub_016_day_22_data.csv,1,319,,Dual-Task at home,3.0,7.0,big,small,False,Size,left,right,1429.217625001911,Incorrect,0.0,0.9278996865203761,
1,22,144,B,54.88108880785753,31.00692833163663,2.7440544403928766,0.4870556912852743,B,1034.0758999809625,Correct,sub_001_day_22_data.csv,1,308,,Dual-Task at home,7.0,6.0,small,big,False,Value,left,left,776.6834000358358,Correct,1.0,0.9577922077922078,
1,22,144,B,36.611661648364375,12.620002352055693,1.8305830824182183,0.1982345333875203,B,838.4196659899317,Correct,sub_016_day_22_data.csv,1,319,,Dual-Task at home,5.0,4.0,small,big,False,Value,left,left,586.339165980462,Correct,1.0,0.9278996865203761,
1,22,145,B,70.6519239689643,54.6273852520553,3.532596198448215,0.8580849609633816,B,1127.867699950002,Correct,sub_001_day_22_data.csv,1,308,,Dual-Task at home,8.0,3.0,small,big,False,Size,right,right,831.948300008662,Correct,1.0,0.9577922077922078,
1,22,145,B,45.004841450781335,22.47769698201994,2.250242072539067,0.3530788385416565,B,552.364542032592,Correct,sub_016_day_22_data.csv,1,319,,Dual-Task at home,2.0,7.0,big,small,False,Size,left,left,1071.5125409769826,Correct,1.0,0.9278996865203761,
1,22,146,A,25.940254336267664,51.74953473302213,1.2970127168133831,0.8128797907197607,B,909.4164000125602,Incorrect,sub_001_day_22_data.csv,0,308,,Dual-Task at home,5.0,8.0,big,small,False,Value,right,right,642.2353000380099,Correct,1.0,0.9577922077922078,
1,22,146,A,38.273118179688254,56.93103818965293,1.9136559089844127,0.894270656689268,A,672.9157080408186,Correct,sub_016_day_22_data.csv,1,319,,Dual-Task at home,7.0,8.0,big,small,False,Value,right,right,948.5106659703888,Correct,1.0,0.9278996865203761,
1,22,147,A,38.15020727287982,53.79617208088128,1.9075103636439907,0.8450282950027449,A,1744.74619992543,Correct,sub_001_day_22_data.csv,1,308,,Dual-Task at home,3.0,7.0,big,small,False,Value,right,right,392.8730000043288,Correct,1.0,0.9577922077922078,
1,22,147,A,47.85854690961067,75.08525762127981,2.3929273454805338,1.1794364686795482,A,574.2782919551246,Correct,sub_016_day_22_data.csv,1,319,,Dual-Task at home,8.0,5.0,big,small,True,Value,left,left,1372.2758329822682,Correct,1.0,0.9278996865203761,
1,22,148,B,80.63938817709814,66.87436253325494,4.0319694088549065,1.0504600302398712,B,909.6857999684288,Correct,sub_001_day_22_data.csv,1,308,,Dual-Task at home,8.0,3.0,big,small,True,Value,left,left,-6.472500041127205,Correct,1.0,0.9577922077922078,
1,22,148,A,23.55530952876889,51.31184096091496,1.1777654764384444,0.8060045130248914,A,615.000541030895,Correct,sub_016_day_22_data.csv,1,319,,Dual-Task at home,4.0,6.0,big,small,False,Value,right,right,1725.1449580071494,Correct,1.0,0.9278996865203761,
1,22,149,A,32.75921331817146,46.09602032636343,1.6379606659085733,0.7240745940851455,B,1063.0555000388997,Incorrect,sub_001_day_22_data.csv,0,308,,Dual-Task at home,4.0,5.0,small,big,True,Value,right,right,425.31469999812543,Correct,1.0,0.9577922077922078,
1,22,149,B,73.07766703100503,62.2058413296222,3.653883351550251,0.9771270706575672,B,660.9592080349103,Correct,sub_016_day_22_data.csv,1,319,,Dual-Task at home,2.0,6.0,big,small,False,Size,left,left,1461.9951240019873,Correct,1.0,0.9278996865203761,
1,22,150,B,73.27476648217066,54.490929175502096,3.6637383241085337,0.8559415139251957,B,1185.8298999723047,Correct,sub_001_day_22_data.csv,1,308,,Dual-Task at home,2.0,8.0,big,small,False,Size,left,left,684.0500000398606,Correct,1.0,0.9577922077922078,
1,22,150,B,58.473903286574675,49.12281263394956,2.9236951643287337,0.771619336472419,A,560.6507080374286,Incorrect,sub_016_day_22_data.csv,0,319,,Dual-Task at home,8.0,4.0,small,big,False,Value,left,left,965.3993750107476,Correct,1.0,0.9278996865203761,
1,22,151,B,40.388736183931805,17.558167350279987,2.01943680919659,0.2758030477906988,B,684.2434999998659,Correct,sub_001_day_22_data.csv,1,308,,Dual-Task at home,6.0,7.0,big,small,False,Size,left,left,1560.3839999530464,Correct,1.0,0.9577922077922078,
1,22,151,A,43.30065343663685,58.154283176915314,2.1650326718318427,0.9134853440168882,A,980.1346670137718,Correct,sub_016_day_22_data.csv,1,319,,Dual-Task at home,7.0,6.0,big,small,True,Value,left,left,1057.37912398763,Correct,1.0,0.9278996865203761,
1,22,152,A,11.826560255826864,38.61877354482397,0.5913280127913432,0.6066222762953343,A,695.3008000273257,Correct,sub_001_day_22_data.csv,1,308,,Dual-Task at home,2.0,7.0,big,small,False,Value,right,right,511.5535999648273,Correct,1.0,0.9577922077922078,
1,22,152,B,76.55900859329279,44.943411923257514,3.8279504296646394,0.7059694636268287,B,672.3564160056412,Correct,sub_016_day_22_data.csv,1,319,,Dual-Task at home,4.0,5.0,big,small,False,Size,left,left,1569.2186250234954,Correct,1.0,0.9278996865203761,
1,22,153,A,35.38252278656252,62.89740127149441,1.7691261393281257,0.9879900688220806,A,771.7112000100315,Correct,sub_001_day_22_data.csv,1,308,,Dual-Task at home,3.0,4.0,big,small,False,Value,right,right,433.0465999664739,Correct,1.0,0.9577922077922078,
1,22,153,A,37.99450000888586,69.120172731006,1.899725000444293,1.08573713433293,A,940.1822910294868,Correct,sub_016_day_22_data.csv,1,319,,Dual-Task at home,5.0,3.0,small,big,False,Value,left,left,648.2736659818329,Correct,1.0,0.9278996865203761,
1,22,154,A,40.74041439045008,58.2362344724805,2.037020719522504,0.9147726319573868,A,1135.9476000070572,Correct,sub_001_day_22_data.csv,1,308,,Dual-Task at home,6.0,7.0,big,small,False,Value,right,right,881.0138999251649,Correct,1.0,0.9577922077922078,
1,22,154,B,38.174500286154654,14.346851606030532,1.9087250143077328,0.2253598180382422,B,865.204082976561,Correct,sub_016_day_22_data.csv,1,319,,Dual-Task at home,3.0,2.0,small,big,False,Value,left,left,707.691292045638,Correct,1.0,0.9278996865203761,
1,22,155,A,20.87633233636983,47.87618275818866,1.0438166168184917,0.752037320175239,A,858.1074000103399,Correct,sub_001_day_22_data.csv,1,308,,Dual-Task at home,7.0,3.0,small,big,False,Value,left,left,969.0444000298156,Correct,1.0,0.9577922077922078,
1,22,155,B,83.62564196471314,58.34306091633157,4.181282098235657,0.9164506578134451,B,659.9761239485815,Correct,sub_016_day_22_data.csv,1,319,,Dual-Task at home,6.0,2.0,big,small,True,Value,left,left,237.15183296008036,Correct,1.0,0.9278996865203761,
1,22,156,A,28.319513444807782,42.80792160745098,1.4159756722403891,0.6724252601870788,B,779.4329000171274,Incorrect,sub_001_day_22_data.csv,0,308,,Dual-Task at home,4.0,7.0,small,big,True,Size,right,right,307.0306999143213,Correct,1.0,0.9577922077922078,
1,22,156,B,78.25182086313686,58.6732054165827,3.912591043156843,0.9216365554965052,B,744.1239159670658,Correct,sub_016_day_22_data.csv,1,319,,Dual-Task at home,6.0,5.0,small,big,False,Size,right,right,2504.9146660021506,Correct,1.0,0.9278996865203761,
1,22,157,B,76.91185983737259,45.566538040976155,3.84559299186863,0.7157575057952528,B,1367.6730999723077,Correct,sub_001_day_22_data.csv,1,308,,Dual-Task at home,5.0,2.0,small,big,False,Value,left,left,513.2302000420168,Correct,1.0,0.9577922077922078,
1,22,157,A,62.78478540788043,80.30241332976694,3.1392392703940213,1.2613873589116342,A,504.1407920070924,Correct,sub_016_day_22_data.csv,1,319,,Dual-Task at home,5.0,2.0,small,big,False,Value,left,left,542.2862079576589,Correct,1.0,0.9278996865203761,
1,22,158,B,74.25459312140508,60.73220302580084,3.712729656070254,0.9539792143108988,A,795.6549999071285,Incorrect,sub_001_day_22_data.csv,0,308,,Dual-Task at home,5.0,7.0,big,small,False,Size,left,left,932.874400052242,Correct,1.0,0.9577922077922078,
1,22,158,A,56.763295654376805,71.11758262003838,2.8381647827188403,1.1171123755008887,A,687.2638750355691,Correct,sub_016_day_22_data.csv,1,319,,Dual-Task at home,7.0,3.0,small,big,False,Size,right,right,3089.519666042179,Correct,1.0,0.9278996865203761,
1,22,159,B,46.61498961233008,18.868621130934773,2.330749480616504,0.2963876076415691,B,663.2433000486344,Correct,sub_001_day_22_data.csv,1,308,,Dual-Task at home,5.0,2.0,small,big,False,Value,left,left,526.0436999378726,Correct,1.0,0.9577922077922078,
1,22,159,B,47.47073145655219,18.91431337021081,2.3735365728276094,0.2971053396577474,A,337.3137920279987,Incorrect,sub_016_day_22_data.csv,0,319,,Dual-Task at home,3.0,6.0,big,small,False,Value,right,right,1237.7127489889972,Correct,1.0,0.9278996865203761,
1,22,160,A,24.028976703860707,45.15402344382106,1.2014488351930352,0.7092777416556477,B,1047.4768000422046,Incorrect,sub_001_day_22_data.csv,0,308,,Dual-Task at home,6.0,2.0,small,big,False,Value,left,left,925.1059000380336,Correct,1.0,0.9577922077922078,
1,22,160,B,62.16675360833603,42.99818840127684,3.1083376804168017,0.6754139639956059,B,784.6777919912711,Correct,sub_016_day_22_data.csv,1,319,,Dual-Task at home,4.0,8.0,big,small,False,Value,right,right,859.6205830108374,Correct,1.0,0.9278996865203761,
1,22,161,A,65.82999910537802,77.4599257134613,3.2914999552689013,1.2167376678451058,A,761.6282000672072,Correct,sub_001_day_22_data.csv,1,308,,Dual-Task at home,2.0,8.0,big,small,False,Size,left,left,1138.1441000849009,Correct,1.0,0.9577922077922078,
1,22,161,A,53.32665443439724,82.78120663483887,2.6663327217198622,1.300324153096542,A,637.0530829881318,Correct,sub_016_day_22_data.csv,1,319,,Dual-Task at home,2.0,5.0,big,small,False,Size,left,left,589.0792499994859,Correct,1.0,0.9278996865203761,
1,22,162,B,44.93067154913453,20.03570814671664,2.2465335774567263,0.3147201676159708,B,1353.6398999858648,Correct,sub_001_day_22_data.csv,1,308,,Dual-Task at home,8.0,4.0,small,big,False,Size,right,right,472.48120000585914,Correct,1.0,0.9577922077922078,
1,22,162,A,14.946511138036636,36.76510436974833,0.7473255569018319,0.5775049089823168,A,642.350708018057,Correct,sub_016_day_22_data.csv,1,319,,Dual-Task at home,2.0,3.0,small,big,True,Size,right,right,533.5369580425322,Correct,1.0,0.9278996865203761,
1,22,163,B,56.51467648564961,25.026336607800147,2.8257338242824805,0.3931127761666512,B,888.5974999284372,Correct,sub_001_day_22_data.csv,1,308,,Dual-Task at home,7.0,6.0,small,big,False,Value,left,left,564.5344000076875,Correct,1.0,0.9577922077922078,
1,22,163,A,23.078644036609823,39.02555339750161,1.1539322018304912,0.6130119592793364,A,1479.362791986205,Correct,sub_016_day_22_data.csv,1,319,,Dual-Task at home,8.0,5.0,small,big,False,Size,right,right,336.1237500212155,Correct,1.0,0.9278996865203761,
1,22,164,A,41.08303725107904,62.1434371966542,2.0541518625539523,0.9761468288291376,A,660.7242999598384,Correct,sub_001_day_22_data.csv,1,308,,Dual-Task at home,5.0,2.0,small,big,False,Size,right,left,783.6163999745622,Incorrect,0.0,0.9577922077922078,
1,22,164,A,50.85438315308538,62.01655640162895,2.542719157654269,0.9741537899614728,A,740.9853329882026,Correct,sub_016_day_22_data.csv,1,319,,Dual-Task at home,6.0,5.0,small,big,False,Size,right,right,428.74291603220627,Correct,1.0,0.9278996865203761,
1,22,165,B,67.64092488992264,51.615581753581075,3.382046244496132,0.8107756622390683,B,746.1341000162065,Correct,sub_001_day_22_data.csv,1,308,,Dual-Task at home,2.0,4.0,big,small,False,Size,left,right,772.9430000763386,Incorrect,0.0,0.9577922077922078,
1,22,165,A,57.43307705087663,75.68162934613918,2.871653852543832,1.1888042538276828,A,752.6999580441043,Correct,sub_016_day_22_data.csv,1,319,,Dual-Task at home,7.0,3.0,small,big,False,Value,left,left,660.0614999770187,Correct,1.0,0.9278996865203761,
1,22,166,A,64.89632117575734,88.82290112140451,3.244816058787867,1.3952268681676852,A,995.1661999803036,Correct,sub_001_day_22_data.csv,1,308,,Dual-Task at home,2.0,6.0,big,small,False,Size,left,left,489.3243000842631,Correct,1.0,0.9577922077922078,
1,22,166,A,44.64315250046374,61.75225090415032,2.232157625023187,0.9700020889155616,A,875.8335000020452,Correct,sub_016_day_22_data.csv,1,319,,Dual-Task at home,3.0,5.0,big,small,False,Value,right,left,397.7220830274746,Incorrect,0.0,0.9278996865203761,
1,22,167,B,44.923413488144526,21.69338772590051,2.2461706744072263,0.3407589375558202,B,1434.1549000237137,Correct,sub_001_day_22_data.csv,1,308,,Dual-Task at home,3.0,5.0,small,big,True,Value,right,right,798.3666000654921,Correct,1.0,0.9577922077922078,
1,22,167,B,53.656378219511296,37.47545354147332,2.6828189109755645,0.5886630476791909,B,980.8920830255374,Correct,sub_016_day_22_data.csv,1,319,,Dual-Task at home,7.0,4.0,small,big,False,Value,left,left,876.676292042248,Correct,1.0,0.9278996865203761,
1,22,168,B,70.57421083579854,51.17582440906395,3.5287105417899274,0.8038679700245825,B,1865.027799969539,Correct,sub_001_day_22_data.csv,1,308,,Dual-Task at home,4.0,7.0,big,small,False,Value,right,right,390.40560007561,Correct,1.0,0.9577922077922078,
1,22,168,A,39.24689029465593,52.954540710254186,1.9623445147327965,0.831807980347781,A,492.675582994707,Correct,sub_016_day_22_data.csv,1,319,,Dual-Task at home,8.0,3.0,small,big,False,Value,left,left,589.047791028861,Correct,1.0,0.9278996865203761,
1,22,169,B,39.4661079943841,21.569794582241375,1.9733053997192056,0.3388175409950522,B,612.3391999863088,Correct,sub_001_day_22_data.csv,1,308,,Dual-Task at home,6.0,5.0,small,big,False,Value,left,left,482.3811000678688,Correct,1.0,0.9577922077922078,
1,22,169,B,65.11952116776406,53.08795121524024,3.255976058388203,0.8339035876596602,B,1669.5308740017936,Correct,sub_016_day_22_data.csv,1,319,,Dual-Task at home,5.0,6.0,big,small,False,Value,right,right,401.7065000371076,Correct,1.0,0.9278996865203761,
1,22,170,A,40.62964507155521,52.352151811090074,2.031482253577761,0.8223456776466906,A,650.1320999814197,Correct,sub_001_day_22_data.csv,1,308,,Dual-Task at home,2.0,4.0,big,small,False,Size,left,left,453.7202999927103,Correct,1.0,0.9577922077922078,
1,22,170,A,35.77552780197404,64.82515408427028,1.7887763900987022,1.0182711391948496,A,516.3738749688491,Correct,sub_016_day_22_data.csv,1,319,,Dual-Task at home,2.0,8.0,big,small,False,Size,left,left,971.0892919683828,Correct,1.0,0.9278996865203761,
1,22,171,B,52.48231612921524,36.34212762668106,2.6241158064607624,0.5708608058390194,B,1327.2196999751031,Correct,sub_001_day_22_data.csv,1,308,,Dual-Task at home,5.0,6.0,big,small,False,Size,left,left,1188.1401999853551,Correct,1.0,0.9577922077922078,
1,22,171,B,48.63871309261026,33.754645370553504,2.431935654630513,0.530216729603298,B,1675.35975005012,Correct,sub_016_day_22_data.csv,1,319,,Dual-Task at home,8.0,7.0,small,big,False,Value,left,left,485.3175419848412,Correct,1.0,0.9278996865203761,
1,22,172,A,49.98143670433896,65.46477504866017,2.499071835216948,1.0283182818088958,B,1144.8024000274015,Incorrect,sub_001_day_22_data.csv,0,308,,Dual-Task at home,5.0,8.0,big,small,False,Value,right,right,679.9641000106931,Correct,1.0,0.9577922077922078,
1,22,172,B,66.30077894703119,41.45628137901349,3.3150389473515594,0.6511937451273007,B,999.4521249900572,Correct,sub_016_day_22_data.csv,1,319,,Dual-Task at home,4.0,8.0,small,big,True,Size,right,left,832.0599579601549,Incorrect,0.0,0.9278996865203761,
1,22,173,A,15.187820313185682,30.84683388692453,0.7593910156592841,0.484540933628334,A,1427.0694999722764,Correct,sub_001_day_22_data.csv,1,308,,Dual-Task at home,8.0,4.0,small,big,False,Value,left,left,648.262899951078,Correct,1.0,0.9577922077922078,
1,22,173,A,57.58905118543494,67.98160877664408,2.879452559271747,1.0678526135596025,A,573.5887079499662,Correct,sub_016_day_22_data.csv,1,319,,Dual-Task at home,3.0,6.0,big,small,False,Size,left,left,861.4679159945808,Correct,1.0,0.9278996865203761,
1,22,174,A,14.143563295104752,37.678196719106225,0.7071781647552376,0.5918477300662758,A,673.603400005959,Correct,sub_001_day_22_data.csv,1,308,,Dual-Task at home,7.0,8.0,big,small,False,Size,left,left,392.09400000981987,Correct,1.0,0.9577922077922078,
1,22,174,B,53.228491699256125,41.721802040321926,2.661424584962806,0.655364533922015,B,699.2390410159715,Correct,sub_016_day_22_data.csv,1,319,,Dual-Task at home,6.0,8.0,big,small,False,Size,left,left,3053.856165963225,Correct,1.0,0.9278996865203761,
1,22,175,A,24.8131650333439,53.168238547667976,1.240658251667195,0.8351647381283169,A,659.137700102292,Correct,sub_001_day_22_data.csv,1,308,,Dual-Task at home,3.0,7.0,big,small,False,Size,left,left,716.8858000077307,Correct,1.0,0.9577922077922078,
1,22,175,B,71.38123587680015,57.24486190364402,3.569061793840007,0.8992001880612513,B,684.7682920051739,Correct,sub_016_day_22_data.csv,1,319,,Dual-Task at home,2.0,4.0,big,small,False,Size,left,left,1135.2478330372833,Correct,1.0,0.9278996865203761,
1,22,176,B,81.23170557569523,67.84887558002806,4.0615852787847615,1.0657676453827205,A,610.3430000366643,Incorrect,sub_001_day_22_data.csv,0,308,,Dual-Task at home,3.0,6.0,big,small,False,Size,left,left,1405.713599990122,Correct,1.0,0.9577922077922078,
1,22,176,A,25.357009326654993,46.781971841975135,1.2678504663327497,0.7348494952959682,A,613.7505829683505,Correct,sub_016_day_22_data.csv,1,319,,Dual-Task at home,4.0,3.0,small,big,False,Value,left,left,420.40949896909297,Correct,1.0,0.9278996865203761,
1,22,177,B,71.97514507002616,60.607908317083016,3.598757253501308,0.9520267975919586,B,1147.4400999723002,Correct,sub_001_day_22_data.csv,1,308,,Dual-Task at home,8.0,5.0,small,big,False,Value,left,left,696.4338000398129,Correct,1.0,0.9577922077922078,
1,22,177,B,82.90453759835147,56.50504602485315,4.1452268799175735,0.887579187412159,B,562.7042910200544,Correct,sub_016_day_22_data.csv,1,319,,Dual-Task at home,7.0,5.0,small,big,False,Size,right,left,1016.1985830054618,Incorrect,0.0,0.9278996865203761,
1,22,178,B,44.78392804712669,24.643637064814165,2.2391964023563347,0.3871013458027665,B,819.4659000728279,Correct,sub_001_day_22_data.csv,1,308,,Dual-Task at home,6.0,5.0,small,big,False,Size,right,right,628.8813999854028,Correct,1.0,0.9577922077922078,
1,22,178,A,26.28217767959821,43.25779967917883,1.3141088839799104,0.6794919284128357,A,609.5904990215786,Correct,sub_016_day_22_data.csv,1,319,,Dual-Task at home,7.0,4.0,big,small,True,Value,left,left,228.0252919881605,Correct,1.0,0.9278996865203761,
1,22,179,A,60.599456816721535,69.27960533287538,3.0299728408360767,1.0882414957868076,A,1107.364400057122,Correct,sub_001_day_22_data.csv,1,308,,Dual-Task at home,7.0,2.0,big,small,True,Value,left,left,112.35509999096394,Correct,1.0,0.9577922077922078,
1,22,179,A,67.76364537405529,81.71027316646243,3.388182268702764,1.2835019695128678,A,902.8652080451138,Correct,sub_016_day_22_data.csv,1,319,,Dual-Task at home,3.0,2.0,small,big,False,Value,left,left,895.5834579537623,Correct,1.0,0.9278996865203761,
1,22,180,A,36.94788890616487,52.56482623331905,1.8473944453082436,0.8256863596590959,B,663.4990000165999,Incorrect,sub_001_day_22_data.csv,0,308,,Dual-Task at home,5.0,4.0,small,big,False,Size,right,left,1870.797000010498,Incorrect,0.0,0.9577922077922078,
1,22,180,A,50.01730764140622,59.01002758491411,2.5008653820703106,0.9269273457444862,A,1288.8254999998026,Correct,sub_016_day_22_data.csv,1,319,,Dual-Task at home,4.0,2.0,small,big,False,Size,right,right,1181.6175000276417,Correct,1.0,0.9278996865203761,
1,22,181,A,64.87026283488507,82.8079647240414,3.2435131417442533,1.300744468178856,A,736.5436999825761,Correct,sub_001_day_22_data.csv,1,308,,Dual-Task at home,2.0,8.0,small,big,True,Value,right,right,352.582799969241,Correct,1.0,0.9577922077922078,
1,22,181,A,35.87231792423892,54.86009842366723,1.7936158962119462,0.8617404109150298,A,535.442124994006,Correct,sub_016_day_22_data.csv,1,319,,Dual-Task at home,5.0,7.0,small,big,True,Size,right,right,64.02441597310826,Correct,1.0,0.9278996865203761,
1,22,182,A,42.19852494408259,60.50973895243976,2.10992624720413,0.9504847568181044,B,1118.0586999980733,Incorrect,sub_001_day_22_data.csv,0,308,,Dual-Task at home,3.0,8.0,big,small,False,Size,left,left,635.6542999856174,Correct,1.0,0.9577922077922078,
1,22,182,B,85.88142487125681,61.299544674192674,4.294071243562841,0.9628909960842152,B,763.3728330256417,Correct,sub_016_day_22_data.csv,1,319,,Dual-Task at home,5.0,2.0,small,big,False,Size,right,right,1233.2115420140326,Correct,1.0,0.9278996865203761,
1,22,183,B,84.80147791441975,63.34032012072761,4.240073895720988,0.994947421836518,B,850.4346000263467,Correct,sub_001_day_22_data.csv,1,308,,Dual-Task at home,2.0,7.0,big,small,False,Value,right,right,911.3141000270844,Correct,1.0,0.9577922077922078,
1,22,183,A,66.91705386273284,89.02834246169135,3.3458526931366417,1.3984539331946289,A,582.7164580114186,Correct,sub_016_day_22_data.csv,1,319,,Dual-Task at home,3.0,7.0,big,small,False,Size,left,left,471.967332996428,Correct,1.0,0.9278996865203761,
1,22,184,A,54.83636562187988,84.26046767889794,2.7418182810939937,1.32356033124033,A,909.2459999956192,Correct,sub_001_day_22_data.csv,1,308,,Dual-Task at home,8.0,7.0,small,big,False,Value,left,left,635.4441000148654,Correct,1.0,0.9577922077922078,
1,22,184,A,51.42352553818749,67.48999706829122,2.571176276909374,1.060130394902702,A,599.3486660299823,Correct,sub_016_day_22_data.csv,1,319,,Dual-Task at home,6.0,2.0,small,big,False,Size,right,right,907.6909169671126,Correct,1.0,0.9278996865203761,
1,22,185,B,73.84489557164422,51.00130673102413,3.692244778582211,0.8011266527483255,B,658.2208999898285,Correct,sub_001_day_22_data.csv,1,308,,Dual-Task at home,6.0,3.0,small,big,False,Value,left,left,920.9378999657928,Correct,1.0,0.9577922077922078,
1,22,185,B,59.02269889611838,42.85215943734585,2.951134944805919,0.6731201463941212,B,870.6953750224784,Correct,sub_016_day_22_data.csv,1,319,,Dual-Task at home,2.0,8.0,big,small,False,Size,left,left,1618.26891702367,Correct,1.0,0.9278996865203761,
1,22,186,A,15.005929845753776,42.864229657778715,0.7502964922876888,0.6733097449733167,A,1904.7408000333237,Correct,sub_001_day_22_data.csv,1,308,,Dual-Task at home,7.0,3.0,big,small,True,Size,left,left,395.36309998948127,Correct,1.0,0.9577922077922078,
1,22,186,A,47.89131829992345,72.62390710993503,2.3945659149961727,1.140773665257797,A,606.9424580200575,Correct,sub_016_day_22_data.csv,1,319,,Dual-Task at home,6.0,4.0,small,big,False,Value,left,left,558.980125002563,Correct,1.0,0.9278996865203761,
1,22,187,B,85.59493117391254,64.10758764865173,4.279746558695627,1.0069996319818402,B,1236.4123000297695,Correct,sub_001_day_22_data.csv,1,308,,Dual-Task at home,5.0,6.0,big,small,False,Size,left,left,461.1889999359846,Correct,1.0,0.9577922077922078,
1,22,187,A,58.07705003183857,85.0807429106201,2.903852501591928,1.33644518444983,A,528.2250409945846,Correct,sub_016_day_22_data.csv,1,319,,Dual-Task at home,8.0,3.0,small,big,False,Size,right,right,1274.530124035664,Correct,1.0,0.9278996865203761,
1,22,188,A,33.571023109428026,48.290525184023785,1.6785511554714014,0.7585457957806101,A,841.4911000290886,Correct,sub_001_day_22_data.csv,1,308,,Dual-Task at home,7.0,2.0,small,big,False,Size,right,right,616.90489994362,Correct,1.0,0.9577922077922078,
1,22,188,A,48.285779823372806,62.19949454986797,2.4142889911686405,0.977027375674318,A,684.0380419744179,Correct,sub_016_day_22_data.csv,1,319,,Dual-Task at home,5.0,3.0,small,big,False,Value,left,left,852.3664579843171,Correct,1.0,0.9278996865203761,
1,22,189,A,64.18003529332321,77.47105748293748,3.209001764666161,1.2169125252711448,A,761.4518000045791,Correct,sub_001_day_22_data.csv,1,308,,Dual-Task at home,4.0,7.0,big,small,False,Value,right,right,938.2836000295356,Correct,1.0,0.9577922077922078,
1,22,189,B,45.02763428211393,31.814953132358234,2.251381714105696,0.499748115174601,B,1015.5982080032118,Correct,sub_016_day_22_data.csv,1,319,,Dual-Task at home,2.0,7.0,big,small,False,Value,right,left,855.4764989530668,Incorrect,0.0,0.9278996865203761,
1,22,190,B,67.1070155684022,42.674360308478384,3.3553507784201098,0.6703272842087977,A,1542.2813999466598,Incorrect,sub_001_day_22_data.csv,0,308,,Dual-Task at home,2.0,3.0,big,small,False,Value,right,right,676.1241999920458,Correct,1.0,0.9577922077922078,
1,22,190,B,85.55894874851353,66.01680028190674,4.277947437425677,1.036989473895714,B,718.8700829865411,Correct,sub_016_day_22_data.csv,1,319,,Dual-Task at home,5.0,6.0,small,big,True,Value,right,right,667.8853750345297,Correct,1.0,0.9278996865203761,
1,22,191,A,49.525158447213805,64.50187215551203,2.4762579223606904,1.0131930385327232,A,1271.9062000978738,Correct,sub_001_day_22_data.csv,1,308,,Dual-Task at home,7.0,8.0,big,small,False,Size,left,left,449.71449999138713,Correct,1.0,0.9577922077922078,
1,22,191,B,88.00837550324678,65.92612796865613,4.400418775162339,1.0355651965297534,B,763.1314999889582,Correct,sub_016_day_22_data.csv,1,319,,Dual-Task at home,5.0,4.0,small,big,False,Size,right,right,754.4918329804204,Correct,1.0,0.9278996865203761,
1,22,192,A,38.27350259225241,45.85427163839037,1.9136751296126209,0.7202772145743901,B,921.4209000347182,Incorrect,sub_001_day_22_data.csv,0,308,,Dual-Task at home,2.0,7.0,small,big,True,Size,right,right,816.8731000041589,Correct,1.0,0.9577922077922078,
1,22,192,B,69.31548413427271,49.86489330014474,3.4657742067136352,0.783275912318868,B,653.1413740012795,Correct,sub_016_day_22_data.csv,1,319,,Dual-Task at home,3.0,8.0,big,small,False,Value,right,right,1115.3939160285518,Correct,1.0,0.9278996865203761,
1,22,193,B,63.80382955428529,38.920061982097465,3.1901914777142646,0.6113549040010839,B,805.3778000175953,Correct,sub_001_day_22_data.csv,1,308,,Dual-Task at home,4.0,2.0,big,small,True,Value,left,left,908.2853000145406,Correct,1.0,0.9577922077922078,
1,22,193,B,51.69998008149579,36.98494676476229,2.5849990040747897,0.580958185247934,A,518.8023329828866,Incorrect,sub_016_day_22_data.csv,0,319,,Dual-Task at home,4.0,5.0,small,big,True,Size,right,right,1495.2240000129675,Correct,1.0,0.9278996865203761,
1,22,194,B,61.56590006959238,49.4623303603888,3.078295003479619,0.7769524684481443,B,1160.6859000166878,Correct,sub_001_day_22_data.csv,1,308,,Dual-Task at home,4.0,7.0,small,big,True,Size,right,right,117.01699998229742,Correct,1.0,0.9577922077922078,
1,22,194,B,61.80108329496946,51.85958265043623,3.0900541647484725,0.8146084193642158,B,1084.5982489991002,Correct,sub_016_day_22_data.csv,1,319,,Dual-Task at home,7.0,4.0,big,small,True,Size,left,left,382.05979100894183,Correct,1.0,0.9278996865203761,
1,22,195,A,67.95637097478762,84.92953715006556,3.3978185487393806,1.334070049917137,A,652.3976000025868,Correct,sub_001_day_22_data.csv,1,308,,Dual-Task at home,2.0,5.0,big,small,False,Size,left,left,419.36080006416887,Correct,1.0,0.9577922077922078,
1,22,195,A,67.72106423310755,87.60968004581916,3.3860532116553776,1.3761696360764888,A,501.9815409905277,Correct,sub_016_day_22_data.csv,1,319,,Dual-Task at home,8.0,6.0,big,small,True,Size,left,left,47.99308301880956,Correct,1.0,0.9278996865203761,
1,22,196,B,46.711839145110815,21.350710568319364,2.3355919572555406,0.3353761773517704,B,3480.501300073229,Correct,sub_001_day_22_data.csv,1,308,,Dual-Task at home,4.0,5.0,big,small,False,Value,right,right,1492.9416999220848,Correct,1.0,0.9577922077922078,
1,22,196,B,69.27729738264773,41.8089669585944,3.463864869132386,0.6567337172564927,B,705.8122080052271,Correct,sub_016_day_22_data.csv,1,319,,Dual-Task at home,7.0,8.0,big,small,False,Size,left,left,437.38637503702193,Correct,1.0,0.9278996865203761,
1,22,197,A,22.392246940725272,40.1924857659904,1.1196123470362636,0.6313420900597388,B,3677.244500024244,Incorrect,sub_001_day_22_data.csv,0,308,,Dual-Task at home,3.0,6.0,small,big,True,Value,right,right,1111.3222000421956,Correct,1.0,0.9577922077922078,
