subject,day,trial,cat,x,y,xt,yt,resp,rt,fb,f_name,acc,n_trials,block,session_type,ns_left_digit,ns_right_digit,ns_left_size,ns_right_size,ns_congruent,ns_cue,ns_correct_side,ns_resp,ns_rt,ns_fb,acc_stroop,acc_stroop_mean,resp_key
1,18,3900,A,62.35464263200237,73.98903852094249,3.1177321316001185,1.1622170993178256,A,5068.636800002423,Correct,sub_001_day_18_data.csv,1,300,156.0,Training at home,,,,,,,,,,,,,
1,18,3901,B,39.31440973855281,12.20684594060042,1.9657204869276403,0.1917446876524633,B,854.1804999986198,Correct,sub_001_day_18_data.csv,1,300,156.0,Training at home,,,,,,,,,,,,,
1,18,3902,A,24.738086788140436,51.22570621027016,1.2369043394070218,0.8046515115256689,A,477.9255000030389,Correct,sub_001_day_18_data.csv,1,300,156.0,Training at home,,,,,,,,,,,,,
1,18,3903,B,56.927681712092614,32.81905163571171,2.8463840856046305,0.51552045758268,B,713.6108000122476,Correct,sub_001_day_18_data.csv,1,300,156.0,Training at home,,,,,,,,,,,,,
1,18,3904,A,37.25539788475247,49.8881172409638,1.8627698942376236,0.7836407131281911,B,547.1231999981683,Incorrect,sub_001_day_18_data.csv,0,300,156.0,Training at home,,,,,,,,,,,,,
1,18,3905,A,28.355782779497588,49.87459812566637,1.4177891389748791,0.7834283553616836,B,537.6755999895977,Incorrect,sub_001_day_18_data.csv,0,300,156.0,Training at home,,,,,,,,,,,,,
1,18,3906,A,27.54266408272246,54.19598051796676,1.377133204136123,0.8513084712466994,A,832.3383000097238,Correct,sub_001_day_18_data.csv,1,300,156.0,Training at home,,,,,,,,,,,,,
1,18,3907,A,53.71534085091906,70.67639363891453,2.685767042545953,1.1101821951911717,A,1905.4216999938944,Correct,sub_001_day_18_data.csv,1,300,156.0,Training at home,,,,,,,,,,,,,
1,18,3908,B,70.92097743016792,58.176647206622214,3.546048871508396,0.9138366373740476,B,1720.9646999981487,Correct,sub_001_day_18_data.csv,1,300,156.0,Training at home,,,,,,,,,,,,,
1,18,3909,A,32.04223254882215,59.49334757149069,1.6021116274411074,0.9345193183402968,A,512.3129000130575,Correct,sub_001_day_18_data.csv,1,300,156.0,Training at home,,,,,,,,,,,,,
1,18,3910,A,57.36247528746521,65.70197913792015,2.8681237643732604,1.032044274929999,A,1382.0023000007495,Correct,sub_001_day_18_data.csv,1,300,156.0,Training at home,,,,,,,,,,,,,
1,18,3911,B,53.54768412536168,46.58531157842519,2.6773842062680844,0.7317603630998606,A,852.93300000194,Incorrect,sub_001_day_18_data.csv,0,300,156.0,Training at home,,,,,,,,,,,,,
1,18,3912,B,64.08449952141623,53.75002482413762,3.2042249760708112,0.8443034155888987,B,619.0260000003036,Correct,sub_001_day_18_data.csv,1,300,156.0,Training at home,,,,,,,,,,,,,
1,18,3913,B,38.25436342338266,25.4330369610782,1.9127181711691328,0.3995012103770048,B,781.5584000054514,Correct,sub_001_day_18_data.csv,1,300,156.0,Training at home,,,,,,,,,,,,,
1,18,3914,B,55.755708775524774,40.070513729439995,2.7877854387762384,0.6294261577898881,B,665.3313999995589,Correct,sub_001_day_18_data.csv,1,300,156.0,Training at home,,,,,,,,,,,,,
1,18,3915,B,73.49918660192267,47.770790586872,3.674959330096134,0.7503818238194675,B,886.4614999911282,Correct,sub_001_day_18_data.csv,1,300,156.0,Training at home,,,,,,,,,,,,,
1,18,3916,A,32.64357829060805,45.37853609978522,1.6321789145304024,0.7128043782087224,B,986.5415999956896,Incorrect,sub_001_day_18_data.csv,0,300,156.0,Training at home,,,,,,,,,,,,,
1,18,3917,B,68.09579402794338,43.16455660591816,3.4047897013971693,0.6780272696430664,B,1170.284799998626,Correct,sub_001_day_18_data.csv,1,300,156.0,Training at home,,,,,,,,,,,,,
1,18,3918,A,68.5505053201092,85.72166832721065,3.42752526600546,1.3465128173511292,A,1154.372199991485,Correct,sub_001_day_18_data.csv,1,300,156.0,Training at home,,,,,,,,,,,,,
1,18,3919,B,72.38067198224036,46.48369502910969,3.6190335991120177,0.7301641740757969,B,1004.2618000006768,Correct,sub_001_day_18_data.csv,1,300,156.0,Training at home,,,,,,,,,,,,,
1,18,3920,B,43.533871959197675,28.783713704216957,2.176693597959884,0.4521335175809992,A,974.2145999916828,Incorrect,sub_001_day_18_data.csv,0,300,156.0,Training at home,,,,,,,,,,,,,
1,18,3921,B,73.2525848832103,48.80208688448285,3.6626292441605153,0.7665813881807104,B,759.9598999950103,Correct,sub_001_day_18_data.csv,1,300,156.0,Training at home,,,,,,,,,,,,,
1,18,3922,B,63.58697350327264,51.62522623918466,3.1793486751636317,0.8109271574646679,B,852.6608999964083,Correct,sub_001_day_18_data.csv,1,300,156.0,Training at home,,,,,,,,,,,,,
1,18,3923,A,45.62966331394042,56.8223570003168,2.281483165697021,0.892563496559259,A,675.5119000008563,Correct,sub_001_day_18_data.csv,1,300,156.0,Training at home,,,,,,,,,,,,,
1,18,3924,A,51.18433143944741,65.00860430336974,2.5592165719723705,1.0211527684979609,A,475.9953000029782,Correct,sub_001_day_18_data.csv,1,300,156.0,Training at home,,,,,,,,,,,,,
1,18,3925,B,40.6441865526465,31.31974105957533,2.0322093276323248,0.4919693421254823,B,809.2707000032533,Correct,sub_001_day_18_data.csv,1,300,157.0,Training at home,,,,,,,,,,,,,
1,18,3926,A,52.11969548600256,65.22597782422433,2.605984774300128,1.0245672637789696,B,2197.030099996482,Incorrect,sub_001_day_18_data.csv,0,300,157.0,Training at home,,,,,,,,,,,,,
1,18,3927,A,34.52395763766181,65.296466891204,1.7261978818830903,1.0256745034538783,A,1445.3129000030458,Correct,sub_001_day_18_data.csv,1,300,157.0,Training at home,,,,,,,,,,,,,
1,18,3928,A,36.33474828856902,66.31134137638477,1.816737414428451,1.0416161145886764,A,964.7980000008828,Correct,sub_001_day_18_data.csv,1,300,157.0,Training at home,,,,,,,,,,,,,
1,18,3929,A,29.144330347856418,43.96013172733292,1.4572165173928209,0.6905241344271436,A,1845.274999999674,Correct,sub_001_day_18_data.csv,1,300,157.0,Training at home,,,,,,,,,,,,,
1,18,3930,A,12.058141373880428,36.63356448920277,0.6029070686940214,0.5754386853704367,A,1031.4879000070505,Correct,sub_001_day_18_data.csv,1,300,157.0,Training at home,,,,,,,,,,,,,
1,18,3931,A,29.30053137363336,50.293822361981945,1.465026568681668,0.7900135142667627,A,2939.623500002199,Correct,sub_001_day_18_data.csv,1,300,157.0,Training at home,,,,,,,,,,,,,
1,18,3932,B,45.165954443436625,23.279205200200145,2.258297722171831,0.3656689001917904,A,1448.9290999918012,Incorrect,sub_001_day_18_data.csv,0,300,157.0,Training at home,,,,,,,,,,,,,
1,18,3933,B,72.86639801001058,49.52639529813736,3.6433199005005297,0.777958798137062,A,1127.5718999968376,Incorrect,sub_001_day_18_data.csv,0,300,157.0,Training at home,,,,,,,,,,,,,
1,18,3934,B,73.53688659754498,48.55280392473884,3.676844329877249,0.762665660605726,B,475.94350000144914,Correct,sub_001_day_18_data.csv,1,300,157.0,Training at home,,,,,,,,,,,,,
1,18,3935,B,80.11321111685882,48.509981609856496,4.00566055584294,0.7619930092565058,B,1447.9396999959135,Correct,sub_001_day_18_data.csv,1,300,157.0,Training at home,,,,,,,,,,,,,
1,18,3936,A,34.08545912058438,56.67069344793384,1.704272956029219,0.8901811710493408,B,808.5482000024058,Incorrect,sub_001_day_18_data.csv,0,300,157.0,Training at home,,,,,,,,,,,,,
1,18,3937,B,72.50910024308673,54.01922928097183,3.6254550121543367,0.8485320693084187,B,1077.8798999963328,Correct,sub_001_day_18_data.csv,1,300,157.0,Training at home,,,,,,,,,,,,,
1,18,3938,B,77.37856542560486,62.2553771811736,3.868928271280243,0.9779051779941832,A,962.734000000637,Incorrect,sub_001_day_18_data.csv,0,300,157.0,Training at home,,,,,,,,,,,,,
1,18,3939,B,88.43855544107646,69.74290090181077,4.421927772053823,1.0955189255658484,B,695.2003999904264,Correct,sub_001_day_18_data.csv,1,300,157.0,Training at home,,,,,,,,,,,,,
1,18,3940,A,39.19085241523389,48.038332466672735,1.9595426207616944,0.7545843618400155,B,4106.69849999249,Incorrect,sub_001_day_18_data.csv,0,300,157.0,Training at home,,,,,,,,,,,,,
1,18,3941,A,37.36108285695319,54.33009882545053,1.8680541428476596,0.8534151966942141,A,626.4701000036439,Correct,sub_001_day_18_data.csv,1,300,157.0,Training at home,,,,,,,,,,,,,
1,18,3942,A,40.565496067964006,63.16864803931495,2.0282748033982,0.9922508030875558,A,631.5498000039952,Correct,sub_001_day_18_data.csv,1,300,157.0,Training at home,,,,,,,,,,,,,
1,18,3943,B,48.57173942052826,32.2604059122848,2.428586971026413,0.5067452710792932,B,585.0682000018423,Correct,sub_001_day_18_data.csv,1,300,157.0,Training at home,,,,,,,,,,,,,
1,18,3944,A,52.58920836189116,77.17931622298761,2.629460418094558,1.2123298642761071,A,712.0968999952311,Correct,sub_001_day_18_data.csv,1,300,157.0,Training at home,,,,,,,,,,,,,
1,18,3945,A,31.78905365248008,47.836150854558085,1.589452682624004,0.751408500503464,A,688.1983000057517,Correct,sub_001_day_18_data.csv,1,300,157.0,Training at home,,,,,,,,,,,,,
1,18,3946,A,23.811773670006144,54.67288950140952,1.1905886835003072,0.8587997400407734,A,627.9840000061085,Correct,sub_001_day_18_data.csv,1,300,157.0,Training at home,,,,,,,,,,,,,
1,18,3947,B,51.3697904564538,32.18830560447857,2.56848952282269,0.5056127220926653,B,1010.682199994335,Correct,sub_001_day_18_data.csv,1,300,157.0,Training at home,,,,,,,,,,,,,
1,18,3948,B,43.66129721530618,17.53710338355143,2.1830648607653087,0.2754721757750493,B,638.9632999926107,Correct,sub_001_day_18_data.csv,1,300,157.0,Training at home,,,,,,,,,,,,,
1,18,3949,B,42.40497704925549,29.403528241055017,2.1202488524627743,0.4618695415585922,B,1269.7479000053136,Correct,sub_001_day_18_data.csv,1,300,157.0,Training at home,,,,,,,,,,,,,
1,18,3950,B,60.173447129824645,44.526693775952154,3.0086723564912323,0.6994236702758683,B,963.4508999879472,Correct,sub_001_day_18_data.csv,1,300,158.0,Training at home,,,,,,,,,,,,,
1,18,3951,A,40.77988025095601,67.2787108189986,2.0389940125478008,1.0568115182597908,B,872.1857000055024,Incorrect,sub_001_day_18_data.csv,0,300,158.0,Training at home,,,,,,,,,,,,,
1,18,3952,B,35.583761909193534,25.48985882013499,1.7791880954596766,0.4003937660518853,B,399.45369999622926,Correct,sub_001_day_18_data.csv,1,300,158.0,Training at home,,,,,,,,,,,,,
1,18,3953,A,38.2973679106856,52.93766963334873,1.91486839553428,0.8315429700914592,B,717.7417000057176,Incorrect,sub_001_day_18_data.csv,0,300,158.0,Training at home,,,,,,,,,,,,,
1,18,3954,A,24.60515970715221,37.27956972403349,1.2302579853576106,0.5855861118700605,A,653.0219999986002,Correct,sub_001_day_18_data.csv,1,300,158.0,Training at home,,,,,,,,,,,,,
1,18,3955,A,58.53784921675118,81.11820765180948,2.926892460837559,1.27420182615648,A,519.279899992398,Correct,sub_001_day_18_data.csv,1,300,158.0,Training at home,,,,,,,,,,,,,
1,18,3956,A,37.709141438596966,64.1643844198986,1.885457071929848,1.007891793578324,B,1291.9663000066066,Incorrect,sub_001_day_18_data.csv,0,300,158.0,Training at home,,,,,,,,,,,,,
1,18,3957,A,36.15590449464576,58.34157535145242,1.807795224732288,0.9164273226148916,A,867.0468000054825,Correct,sub_001_day_18_data.csv,1,300,158.0,Training at home,,,,,,,,,,,,,
1,18,3958,A,36.74179197427822,56.03690943275877,1.837089598713911,0.8802257150191576,A,681.3304999959655,Correct,sub_001_day_18_data.csv,1,300,158.0,Training at home,,,,,,,,,,,,,
1,18,3959,B,39.33671176514658,18.658573810509345,1.9668355882573292,0.2930881920477953,A,777.4321999895619,Incorrect,sub_001_day_18_data.csv,0,300,158.0,Training at home,,,,,,,,,,,,,
1,18,3960,B,75.40047904277719,55.485944252627235,3.770023952138859,0.8715711742077327,B,586.6983000014443,Correct,sub_001_day_18_data.csv,1,300,158.0,Training at home,,,,,,,,,,,,,
1,18,3961,B,82.73216254173424,58.56641663068056,4.136608127086712,0.9199591211701258,B,449.1070999938529,Correct,sub_001_day_18_data.csv,1,300,158.0,Training at home,,,,,,,,,,,,,
1,18,3962,B,65.20644297851469,45.28897843186657,3.2603221489257344,0.711397609650693,A,3439.6819999965373,Incorrect,sub_001_day_18_data.csv,0,300,158.0,Training at home,,,,,,,,,,,,,
1,18,3963,B,45.97190628546561,33.314231037924976,2.29859531427328,0.5232987174436908,B,618.6353000084637,Correct,sub_001_day_18_data.csv,1,300,158.0,Training at home,,,,,,,,,,,,,
1,18,3964,A,20.865387013409713,44.81487130463263,1.0432693506704858,0.7039503523110295,A,771.4887000038289,Correct,sub_001_day_18_data.csv,1,300,158.0,Training at home,,,,,,,,,,,,,
1,18,3965,A,69.71476226506398,88.34498529272487,3.4857381132531993,1.3877197838856137,A,959.7646999900462,Correct,sub_001_day_18_data.csv,1,300,158.0,Training at home,,,,,,,,,,,,,
1,18,3966,A,52.199077942566426,77.68844839164692,2.609953897128322,1.2203272936799383,A,1219.1277999954764,Correct,sub_001_day_18_data.csv,1,300,158.0,Training at home,,,,,,,,,,,,,
1,18,3967,A,32.38729807399726,61.33744382845792,1.619364903699863,0.9634863146073,A,976.3670000102138,Correct,sub_001_day_18_data.csv,1,300,158.0,Training at home,,,,,,,,,,,,,
1,18,3968,A,53.27716377125014,62.300547931513144,2.663858188562507,0.9786147184813022,A,757.2006000118563,Correct,sub_001_day_18_data.csv,1,300,158.0,Training at home,,,,,,,,,,,,,
1,18,3969,A,20.67740753842359,35.70827718175655,1.0338703769211797,0.5609043063327722,A,770.0152000033995,Correct,sub_001_day_18_data.csv,1,300,158.0,Training at home,,,,,,,,,,,,,
1,18,3970,B,49.01864628644826,36.47678947936889,2.450932314322413,0.5729760692746337,B,1418.480099993758,Correct,sub_001_day_18_data.csv,1,300,158.0,Training at home,,,,,,,,,,,,,
1,18,3971,A,65.73874970339963,76.90817989262634,3.286937485169982,1.2080708647581857,A,1492.6447999896482,Correct,sub_001_day_18_data.csv,1,300,158.0,Training at home,,,,,,,,,,,,,
1,18,3972,B,58.925766797179634,26.65641269521028,2.9462883398589814,0.4187179514716516,B,1094.3250999989689,Correct,sub_001_day_18_data.csv,1,300,158.0,Training at home,,,,,,,,,,,,,
1,18,3973,A,33.174182305184345,56.794718008613906,1.658709115259217,0.8921293442928268,A,965.9451000043192,Correct,sub_001_day_18_data.csv,1,300,158.0,Training at home,,,,,,,,,,,,,
1,18,3974,B,46.363656290191315,19.514161094277775,2.3181828145095658,0.3065277256737541,A,2464.8091999988537,Incorrect,sub_001_day_18_data.csv,0,300,158.0,Training at home,,,,,,,,,,,,,
1,18,3975,A,45.72816724225616,53.88704671702378,2.2864083621128075,0.8464557504492592,B,770.6234000070253,Incorrect,sub_001_day_18_data.csv,0,300,159.0,Training at home,,,,,,,,,,,,,
1,18,3976,B,75.61813650847132,45.203863619692335,3.780906825423566,0.7100606293075018,B,678.3426999900257,Correct,sub_001_day_18_data.csv,1,300,159.0,Training at home,,,,,,,,,,,,,
1,18,3977,A,15.326808951383338,32.947965647055014,0.766340447569167,0.5175454341375846,A,805.7833000057144,Correct,sub_001_day_18_data.csv,1,300,159.0,Training at home,,,,,,,,,,,,,
1,18,3978,A,25.583614094064757,52.347504062659645,1.2791807047032375,0.822272670985067,A,792.5869000027888,Correct,sub_001_day_18_data.csv,1,300,159.0,Training at home,,,,,,,,,,,,,
1,18,3979,A,11.6409428548041,38.07929029562678,0.5820471427402049,0.5981480932332709,A,565.1471000019228,Correct,sub_001_day_18_data.csv,1,300,159.0,Training at home,,,,,,,,,,,,,
1,18,3980,A,57.894122772095045,70.92482554751695,2.8947061386047523,1.114084554486085,A,780.4999000072712,Correct,sub_001_day_18_data.csv,1,300,159.0,Training at home,,,,,,,,,,,,,
1,18,3981,A,63.46733341100374,78.04910317018819,3.173366670550187,1.2259924456936753,A,963.2251000002724,Correct,sub_001_day_18_data.csv,1,300,159.0,Training at home,,,,,,,,,,,,,
1,18,3982,A,46.515390552091155,73.31799574230837,2.325769527604558,1.1516763839998183,A,1309.7314000042388,Correct,sub_001_day_18_data.csv,1,300,159.0,Training at home,,,,,,,,,,,,,
1,18,3983,B,48.70747769973505,29.472737848652,2.435373884986753,0.4629566835325149,B,1704.707100012456,Correct,sub_001_day_18_data.csv,1,300,159.0,Training at home,,,,,,,,,,,,,
1,18,3984,A,50.55768533194342,73.66843903974363,2.527884266597171,1.1571811344434304,A,707.3538000113331,Correct,sub_001_day_18_data.csv,1,300,159.0,Training at home,,,,,,,,,,,,,
1,18,3985,A,57.16038758371603,85.39995786702343,2.8580193791858015,1.3414594012595935,A,1020.352300009108,Correct,sub_001_day_18_data.csv,1,300,159.0,Training at home,,,,,,,,,,,,,
1,18,3986,B,60.51120413210766,46.7539637899294,3.025560206605383,0.734409545843227,B,697.6406999892788,Correct,sub_001_day_18_data.csv,1,300,159.0,Training at home,,,,,,,,,,,,,
1,18,3987,B,81.02894467818928,57.399344553361786,4.051447233909464,0.9016267958485534,B,2608.210300008068,Correct,sub_001_day_18_data.csv,1,300,159.0,Training at home,,,,,,,,,,,,,
1,18,3988,A,58.1982824064678,69.88889932906989,2.90991412032339,1.0978122634984129,A,1123.261900007492,Correct,sub_001_day_18_data.csv,1,300,159.0,Training at home,,,,,,,,,,,,,
1,18,3989,B,33.018648333228896,16.000341090393558,1.6509324166614447,0.2513327701225565,B,1331.6766000061762,Correct,sub_001_day_18_data.csv,1,300,159.0,Training at home,,,,,,,,,,,,,
1,18,3990,B,38.39778863276163,18.572189640069595,1.9198894316380817,0.2917312726715955,B,832.5215999939246,Correct,sub_001_day_18_data.csv,1,300,159.0,Training at home,,,,,,,,,,,,,
1,18,3991,B,76.4510549361572,59.79667175908402,3.822552746807861,0.9392839235372932,B,814.4940999918617,Correct,sub_001_day_18_data.csv,1,300,159.0,Training at home,,,,,,,,,,,,,
1,18,3992,B,62.32872677981001,39.71815229325448,3.1164363389905008,0.6238912772932442,B,527.5300000066636,Correct,sub_001_day_18_data.csv,1,300,159.0,Training at home,,,,,,,,,,,,,
1,18,3993,A,45.79221199923719,67.21949734481778,2.289610599961859,1.0558813951823909,A,598.8980000111042,Correct,sub_001_day_18_data.csv,1,300,159.0,Training at home,,,,,,,,,,,,,
1,18,3994,B,70.41974121195383,43.050506372929235,3.5209870605976916,0.6762357727725753,B,2237.515100001474,Correct,sub_001_day_18_data.csv,1,300,159.0,Training at home,,,,,,,,,,,,,
1,18,3995,A,38.025404412095526,64.73110190708275,1.901270220604776,1.016793771050317,B,4089.526899988414,Incorrect,sub_001_day_18_data.csv,0,300,159.0,Training at home,,,,,,,,,,,,,
1,18,3996,B,60.946882350116034,29.0225234435134,3.047344117505802,0.4558847321938962,B,480.7467000064207,Correct,sub_001_day_18_data.csv,1,300,159.0,Training at home,,,,,,,,,,,,,
1,18,3997,B,63.62087637842496,40.09955476150506,3.181043818921248,0.6298823332548296,B,1227.347699998063,Correct,sub_001_day_18_data.csv,1,300,159.0,Training at home,,,,,,,,,,,,,
1,18,3998,B,48.53656565150174,18.106322586471315,2.426828282575087,0.2844134501059261,A,1218.6534000065876,Incorrect,sub_001_day_18_data.csv,0,300,159.0,Training at home,,,,,,,,,,,,,
1,18,3999,B,38.70375733864455,19.032552459244272,1.9351878669322276,0.2989626349251207,B,823.520699996152,Correct,sub_001_day_18_data.csv,1,300,159.0,Training at home,,,,,,,,,,,,,
1,18,4000,A,47.65615719394169,65.14070370803198,2.3828078596970843,1.0232277810941133,A,1087.0628999982728,Correct,sub_001_day_18_data.csv,1,300,160.0,Training at home,,,,,,,,,,,,,
1,18,4001,B,33.671244418422305,10.37589862705698,1.6835622209211152,0.1629842345057731,B,639.3310999992536,Correct,sub_001_day_18_data.csv,1,300,160.0,Training at home,,,,,,,,,,,,,
1,18,4002,B,75.60652007559318,53.42513277295881,3.780326003779659,0.8392000231829335,A,1343.071700001019,Incorrect,sub_001_day_18_data.csv,0,300,160.0,Training at home,,,,,,,,,,,,,
1,18,4003,A,61.41919327014299,78.26744758936067,3.0709596635071494,1.2294221918097985,B,470.8736000029603,Incorrect,sub_001_day_18_data.csv,0,300,160.0,Training at home,,,,,,,,,,,,,
1,18,4004,A,22.83099211524232,45.55141453076374,1.1415496057621162,0.7155199462523536,B,1264.303900010418,Incorrect,sub_001_day_18_data.csv,0,300,160.0,Training at home,,,,,,,,,,,,,
1,18,4005,A,30.61426027235541,52.04210121690733,1.5307130136177705,0.8174754143020624,A,800.0609000009717,Correct,sub_001_day_18_data.csv,1,300,160.0,Training at home,,,,,,,,,,,,,
1,18,4006,B,69.98982457908646,42.612225744746496,3.499491228954323,0.6693512767640273,A,750.2156000118703,Incorrect,sub_001_day_18_data.csv,0,300,160.0,Training at home,,,,,,,,,,,,,
1,18,4007,A,15.881256146222448,34.55404852462502,0.7940628073111224,0.542773724983736,A,550.9240999963367,Correct,sub_001_day_18_data.csv,1,300,160.0,Training at home,,,,,,,,,,,,,
1,18,4008,A,41.55367776033263,73.06958701828177,2.0776838880166313,1.1477743888873706,A,711.8671999924118,Correct,sub_001_day_18_data.csv,1,300,160.0,Training at home,,,,,,,,,,,,,
1,18,4009,B,73.97131368702195,51.19812077995178,3.6985656843510974,0.8042182005994972,A,701.8897000089055,Incorrect,sub_001_day_18_data.csv,0,300,160.0,Training at home,,,,,,,,,,,,,
1,18,4010,B,63.264370561341,34.79463132893636,3.16321852806705,0.5465527908367586,B,1363.4412999963388,Correct,sub_001_day_18_data.csv,1,300,160.0,Training at home,,,,,,,,,,,,,
1,18,4011,B,89.06959546584527,63.71320772594181,4.453479773292264,1.0008047266422964,B,1105.1431000087175,Correct,sub_001_day_18_data.csv,1,300,160.0,Training at home,,,,,,,,,,,,,
1,18,4012,A,29.06397200331326,51.199397385654144,1.4531986001656632,0.8042382534749777,A,697.6810999913141,Correct,sub_001_day_18_data.csv,1,300,160.0,Training at home,,,,,,,,,,,,,
1,18,4013,A,41.23861090894863,64.78250162530976,2.0619305454474315,1.01760115593621,A,856.7493999871658,Correct,sub_001_day_18_data.csv,1,300,160.0,Training at home,,,,,,,,,,,,,
1,18,4014,A,49.50157330228839,60.41196314793261,2.475078665114419,0.948948898072412,A,652.1025999973062,Correct,sub_001_day_18_data.csv,1,300,160.0,Training at home,,,,,,,,,,,,,
1,18,4015,B,88.00795185430833,66.78744321840077,4.400397592715416,1.0490947048348664,A,410.0761000008788,Incorrect,sub_001_day_18_data.csv,0,300,160.0,Training at home,,,,,,,,,,,,,
1,18,4016,A,35.219826871761654,64.1088637305013,1.7609913435880826,1.00701967662866,A,668.1685000075959,Correct,sub_001_day_18_data.csv,1,300,160.0,Training at home,,,,,,,,,,,,,
1,18,4017,B,60.089279069871345,37.202783250941685,3.0044639534935675,0.584379952771259,A,669.9617999984184,Incorrect,sub_001_day_18_data.csv,0,300,160.0,Training at home,,,,,,,,,,,,,
1,18,4018,B,78.21383835617436,59.880558725627424,3.9106919178087183,0.9406016169264164,A,693.4228999889456,Incorrect,sub_001_day_18_data.csv,0,300,160.0,Training at home,,,,,,,,,,,,,
1,18,4019,B,50.50754819693053,20.425807279568815,2.5253774098465267,0.3208478304656715,B,990.3851000126452,Correct,sub_001_day_18_data.csv,1,300,160.0,Training at home,,,,,,,,,,,,,
1,18,4020,A,11.394122926680293,33.05655581550127,0.5697061463340147,0.5192511645147987,A,1478.3908999961568,Correct,sub_001_day_18_data.csv,1,300,160.0,Training at home,,,,,,,,,,,,,
1,18,4021,A,10.83970870207968,32.00643231685348,0.5419854351039839,0.5027558631712291,A,823.7483999982942,Correct,sub_001_day_18_data.csv,1,300,160.0,Training at home,,,,,,,,,,,,,
1,18,4022,A,48.55471234914427,55.63233223229774,2.4277356174572136,0.8738706312152663,A,1129.247700009728,Correct,sub_001_day_18_data.csv,1,300,160.0,Training at home,,,,,,,,,,,,,
1,18,4023,B,51.72680563237475,20.64970355645716,2.586340281618738,0.3243647849588642,B,3014.864899989334,Correct,sub_001_day_18_data.csv,1,300,160.0,Training at home,,,,,,,,,,,,,
1,18,4024,B,68.21513965211773,39.142121586442094,3.4107569826058866,0.6148430081094246,B,3821.738300001016,Correct,sub_001_day_18_data.csv,1,300,160.0,Training at home,,,,,,,,,,,,,
1,18,4025,A,11.854928297824236,36.266481750563166,0.5927464148912118,0.5696725631955877,A,596.4631999959238,Correct,sub_001_day_18_data.csv,1,300,161.0,Training at home,,,,,,,,,,,,,
1,18,4026,A,51.55119077726647,68.66667322890632,2.5775595388633237,1.078613580811915,A,547.142100011115,Correct,sub_001_day_18_data.csv,1,300,161.0,Training at home,,,,,,,,,,,,,
1,18,4027,B,58.12002815140639,25.95614176807819,2.906001407570319,0.4077181214706481,A,2816.0710999945877,Incorrect,sub_001_day_18_data.csv,0,300,161.0,Training at home,,,,,,,,,,,,,
1,18,4028,B,76.0205944133021,62.58381379257734,3.801029720665105,0.9830642482219626,A,772.5868999987142,Incorrect,sub_001_day_18_data.csv,0,300,161.0,Training at home,,,,,,,,,,,,,
1,18,4029,A,60.56256078614221,78.1119773389566,3.02812803930711,1.2269800708271923,A,477.3409999907017,Correct,sub_001_day_18_data.csv,1,300,161.0,Training at home,,,,,,,,,,,,,
1,18,4030,B,51.667963813891326,23.307108393324462,2.583398190694566,0.3661072025244456,B,835.1641000044765,Correct,sub_001_day_18_data.csv,1,300,161.0,Training at home,,,,,,,,,,,,,
1,18,4031,B,65.78281558798801,50.98665074736095,3.2891407793994007,0.8008964370952885,B,608.309500006726,Correct,sub_001_day_18_data.csv,1,300,161.0,Training at home,,,,,,,,,,,,,
1,18,4032,A,60.628118071881104,73.88148683054781,3.031405903594055,1.1605276813157004,A,519.2356999905314,Correct,sub_001_day_18_data.csv,1,300,161.0,Training at home,,,,,,,,,,,,,
1,18,4033,B,56.59552846902015,48.36025484560677,2.829776423451008,0.759641106743442,B,581.9826000079047,Correct,sub_001_day_18_data.csv,1,300,161.0,Training at home,,,,,,,,,,,,,
1,18,4034,A,16.633350280956627,45.33370020831984,0.8316675140478312,0.7121000976724984,A,538.75419999531,Correct,sub_001_day_18_data.csv,1,300,161.0,Training at home,,,,,,,,,,,,,
1,18,4035,A,27.15474045402877,50.9867545256049,1.3577370227014385,0.8008980672401325,A,851.9859000080032,Correct,sub_001_day_18_data.csv,1,300,161.0,Training at home,,,,,,,,,,,,,
1,18,4036,B,80.52581271217034,65.29282677925774,4.026290635608517,1.0256173247091351,B,1058.251099995687,Correct,sub_001_day_18_data.csv,1,300,161.0,Training at home,,,,,,,,,,,,,
1,18,4037,B,86.50202111369371,66.26078753863358,4.325101055684686,1.0408220167622266,B,787.2625000018161,Correct,sub_001_day_18_data.csv,1,300,161.0,Training at home,,,,,,,,,,,,,
1,18,4038,B,57.12774970755977,28.70692344558548,2.8563874853779883,0.4509272990190797,B,472.531399995205,Correct,sub_001_day_18_data.csv,1,300,161.0,Training at home,,,,,,,,,,,,,
1,18,4039,B,80.16904162748648,66.5811241309597,4.008452081374324,1.0458538521878655,A,396.61909999267664,Incorrect,sub_001_day_18_data.csv,0,300,161.0,Training at home,,,,,,,,,,,,,
1,18,4040,B,53.705194967295895,34.88428938964895,2.6852597483647944,0.5479611363611075,A,932.0196000044234,Incorrect,sub_001_day_18_data.csv,0,300,161.0,Training at home,,,,,,,,,,,,,
1,18,4041,A,52.05032330882007,72.79912196432026,2.602516165441003,1.1435259337544796,A,988.7816999980714,Correct,sub_001_day_18_data.csv,1,300,161.0,Training at home,,,,,,,,,,,,,
1,18,4042,B,48.175897478409496,33.4223842058376,2.408794873920475,0.5249975834325747,B,601.4322999981232,Correct,sub_001_day_18_data.csv,1,300,161.0,Training at home,,,,,,,,,,,,,
1,18,4043,B,65.34527954483765,35.13644120892615,3.2672639772418823,0.5519219278762603,B,809.3220000009751,Correct,sub_001_day_18_data.csv,1,300,161.0,Training at home,,,,,,,,,,,,,
1,18,4044,B,62.171965474896666,33.19489751152696,3.108598273744833,0.521424230794396,B,885.5038000037894,Correct,sub_001_day_18_data.csv,1,300,161.0,Training at home,,,,,,,,,,,,,
1,18,4045,A,31.78798676842635,58.87513915984564,1.5893993384213174,0.924808523318239,A,526.5352000133134,Correct,sub_001_day_18_data.csv,1,300,161.0,Training at home,,,,,,,,,,,,,
1,18,4046,A,25.553085784381096,57.28876362095642,1.2776542892190548,0.8998897946241946,A,532.6598999963608,Correct,sub_001_day_18_data.csv,1,300,161.0,Training at home,,,,,,,,,,,,,
1,18,4047,B,57.975574315651855,34.614289106297264,2.8987787157825924,0.5437199818278835,A,731.4926000108244,Incorrect,sub_001_day_18_data.csv,0,300,161.0,Training at home,,,,,,,,,,,,,
1,18,4048,B,56.98170954305857,49.87042568675517,2.8490854771529284,0.7833628148445289,B,794.3997999973362,Correct,sub_001_day_18_data.csv,1,300,161.0,Training at home,,,,,,,,,,,,,
1,18,4049,B,65.14428036876927,33.567510257926074,3.2572140184384635,0.527277218128003,B,792.0623999962118,Correct,sub_001_day_18_data.csv,1,300,161.0,Training at home,,,,,,,,,,,,,
1,18,4050,B,55.08454342150676,33.40613927511684,2.754227171075338,0.5247424086575226,B,1055.28799998865,Correct,sub_001_day_18_data.csv,1,300,162.0,Training at home,,,,,,,,,,,,,
1,18,4051,A,31.672742577877035,40.77432365253696,1.5836371288938518,0.6404815782095133,B,937.693300002138,Incorrect,sub_001_day_18_data.csv,0,300,162.0,Training at home,,,,,,,,,,,,,
1,18,4052,B,75.8453757693134,63.76245981313475,3.7922687884656705,1.001578376618793,A,781.0094999877037,Incorrect,sub_001_day_18_data.csv,0,300,162.0,Training at home,,,,,,,,,,,,,
1,18,4053,A,64.29617634996053,89.44538738782344,3.2148088174980267,1.4050048595753963,A,592.2617000032915,Correct,sub_001_day_18_data.csv,1,300,162.0,Training at home,,,,,,,,,,,,,
1,18,4054,B,79.02778484527443,64.98706310187256,3.951389242263722,1.020814400096096,B,1396.5123999951174,Correct,sub_001_day_18_data.csv,1,300,162.0,Training at home,,,,,,,,,,,,,
1,18,4055,B,37.1871848386355,14.852492145968448,1.8593592419317753,0.2333024010663728,B,650.7625000085682,Correct,sub_001_day_18_data.csv,1,300,162.0,Training at home,,,,,,,,,,,,,
1,18,4056,A,65.41407354487711,79.23042847954659,3.270703677243856,1.2445486602605755,A,570.6210000062129,Correct,sub_001_day_18_data.csv,1,300,162.0,Training at home,,,,,,,,,,,,,
1,18,4057,A,48.00387203896824,66.0868571639125,2.400193601948412,1.0380899248249276,A,1016.048800011049,Correct,sub_001_day_18_data.csv,1,300,162.0,Training at home,,,,,,,,,,,,,
1,18,4058,B,58.98685108708262,30.860382910101016,2.9493425543541307,0.4847537611867067,A,3505.250000001979,Incorrect,sub_001_day_18_data.csv,0,300,162.0,Training at home,,,,,,,,,,,,,
1,18,4059,B,72.50193918589274,40.983652961479315,3.625096959294637,0.6437697153052849,B,2299.7231999906944,Correct,sub_001_day_18_data.csv,1,300,162.0,Training at home,,,,,,,,,,,,,
1,18,4060,A,49.509507535244715,77.9164340156992,2.475475376762236,1.2239084834881724,A,1119.386199992732,Correct,sub_001_day_18_data.csv,1,300,162.0,Training at home,,,,,,,,,,,,,
1,18,4061,B,64.33132052952577,52.676236175269935,3.2165660264762885,0.8274363829349446,B,529.7405000019353,Correct,sub_001_day_18_data.csv,1,300,162.0,Training at home,,,,,,,,,,,,,
1,18,4062,B,46.90130362844735,19.412786477625627,2.345065181422368,0.3049353369190797,B,803.4118000068702,Correct,sub_001_day_18_data.csv,1,300,162.0,Training at home,,,,,,,,,,,,,
1,18,4063,A,52.088295753508035,72.07117386666664,2.6044147876754016,1.1320913517755633,A,1028.2818999985466,Correct,sub_001_day_18_data.csv,1,300,162.0,Training at home,,,,,,,,,,,,,
1,18,4064,B,77.98004591499378,46.76921014631398,3.8990022957496886,0.734649035049286,A,485.6529999960912,Incorrect,sub_001_day_18_data.csv,0,300,162.0,Training at home,,,,,,,,,,,,,
1,18,4065,B,77.86642894491291,60.02967508847989,3.8933214472456457,0.9429439312767532,B,866.8375999986893,Correct,sub_001_day_18_data.csv,1,300,162.0,Training at home,,,,,,,,,,,,,
1,18,4066,A,11.301901355316858,35.93515170316038,0.5650950677658428,0.564468042981417,A,556.4577999903122,Correct,sub_001_day_18_data.csv,1,300,162.0,Training at home,,,,,,,,,,,,,
1,18,4067,B,68.88949051938589,48.73966297143719,3.4444745259692944,0.7656008356475478,A,804.0016000013566,Incorrect,sub_001_day_18_data.csv,0,300,162.0,Training at home,,,,,,,,,,,,,
1,18,4068,B,55.9301524563538,24.769412442094072,2.79650762281769,0.3890770208090918,B,490.53679998905864,Correct,sub_001_day_18_data.csv,1,300,162.0,Training at home,,,,,,,,,,,,,
1,18,4069,B,61.97640236377925,41.15236219965192,3.0988201181889625,0.6464197938214639,B,455.9737000090536,Correct,sub_001_day_18_data.csv,1,300,162.0,Training at home,,,,,,,,,,,,,
1,18,4070,B,67.98481726066599,50.381663784734656,3.3992408630332993,0.7913933241087666,B,700.9099999995669,Correct,sub_001_day_18_data.csv,1,300,162.0,Training at home,,,,,,,,,,,,,
1,18,4071,B,67.14012839222582,34.63086368348316,3.357006419611291,0.5439803346775013,B,1049.6730000013486,Correct,sub_001_day_18_data.csv,1,300,162.0,Training at home,,,,,,,,,,,,,
1,18,4072,A,32.06436460294852,63.510626307017446,1.6032182301474265,0.9976225851550632,A,980.5407999956516,Correct,sub_001_day_18_data.csv,1,300,162.0,Training at home,,,,,,,,,,,,,
1,18,4073,A,54.05154471486223,75.133545256465,2.702577235743112,1.1801949690793332,B,514.3089000048349,Incorrect,sub_001_day_18_data.csv,0,300,162.0,Training at home,,,,,,,,,,,,,
1,18,4074,A,45.75949453455388,58.49464971845549,2.287974726727694,0.9188318091490402,A,434.0799000055995,Correct,sub_001_day_18_data.csv,1,300,162.0,Training at home,,,,,,,,,,,,,
1,18,4075,B,48.963395066234334,24.021447762012368,2.4481697533117166,0.3773280190886451,B,843.4239999915008,Correct,sub_001_day_18_data.csv,1,300,163.0,Training at home,,,,,,,,,,,,,
1,18,4076,B,63.69967306929322,34.80810138595042,3.184983653464661,0.5467643779975527,B,652.9093000135617,Correct,sub_001_day_18_data.csv,1,300,163.0,Training at home,,,,,,,,,,,,,
1,18,4077,A,30.56785271782246,58.09737846554726,1.528392635891123,0.9125914869009456,A,517.1345999988262,Correct,sub_001_day_18_data.csv,1,300,163.0,Training at home,,,,,,,,,,,,,
1,18,4078,B,44.70885841673112,22.602444319375216,2.235442920836556,0.3550383651346076,A,1747.1426000120118,Incorrect,sub_001_day_18_data.csv,0,300,163.0,Training at home,,,,,,,,,,,,,
1,18,4079,A,46.75779657671406,57.3719056220806,2.337889828835703,0.9011957861238766,B,993.6623999965376,Incorrect,sub_001_day_18_data.csv,0,300,163.0,Training at home,,,,,,,,,,,,,
1,18,4080,A,63.023354016732625,82.1887990528184,3.151167700836631,1.29101863655851,A,794.994099996984,Correct,sub_001_day_18_data.csv,1,300,163.0,Training at home,,,,,,,,,,,,,
1,18,4081,B,39.11507243471862,12.401574857830688,1.955753621735931,0.1948034823315238,B,752.365499996813,Correct,sub_001_day_18_data.csv,1,300,163.0,Training at home,,,,,,,,,,,,,
1,18,4082,B,55.91232840422438,45.56671581031199,2.795616420211219,0.7157602981894502,A,3937.6061000075424,Incorrect,sub_001_day_18_data.csv,0,300,163.0,Training at home,,,,,,,,,,,,,
1,18,4083,A,29.452709539451256,47.51050696630749,1.472635476972563,0.7462932982683914,B,856.7692999931751,Incorrect,sub_001_day_18_data.csv,0,300,163.0,Training at home,,,,,,,,,,,,,
1,18,4084,B,60.74644344400576,43.37843990173383,3.037322172200287,0.6813869405973667,B,703.1246999977157,Correct,sub_001_day_18_data.csv,1,300,163.0,Training at home,,,,,,,,,,,,,
1,18,4085,B,52.84856263979263,38.861743904644015,2.642428131989632,0.6104388457825879,B,920.5500000098256,Correct,sub_001_day_18_data.csv,1,300,163.0,Training at home,,,,,,,,,,,,,
1,18,4086,B,39.938114675822774,20.96955625197594,1.996905733791139,0.3293890193512276,B,557.558100001188,Correct,sub_001_day_18_data.csv,1,300,163.0,Training at home,,,,,,,,,,,,,
1,18,4087,A,63.29466851961715,77.36631961151167,3.1647334259808577,1.2152673066340247,A,631.4160999900196,Correct,sub_001_day_18_data.csv,1,300,163.0,Training at home,,,,,,,,,,,,,
1,18,4088,B,69.54723793663763,40.809314900604825,3.477361896831882,0.641031219448863,A,697.3348000028636,Incorrect,sub_001_day_18_data.csv,0,300,163.0,Training at home,,,,,,,,,,,,,
1,18,4089,A,18.988800496846437,43.9447519644274,0.9494400248423218,0.6902825496763536,A,618.4587000025203,Correct,sub_001_day_18_data.csv,1,300,163.0,Training at home,,,,,,,,,,,,,
1,18,4090,A,39.721111102144654,64.513085609357,1.9860555551072323,1.0133691790538268,B,544.7019999992335,Incorrect,sub_001_day_18_data.csv,0,300,163.0,Training at home,,,,,,,,,,,,,
1,18,4091,A,42.95929854465723,71.56604407316715,2.1479649272328616,1.1241567915337265,A,683.1230000098003,Correct,sub_001_day_18_data.csv,1,300,163.0,Training at home,,,,,,,,,,,,,
1,18,4092,A,31.237377964540876,64.13986411054344,1.561868898227044,1.0075066294596546,A,1595.0039000017568,Correct,sub_001_day_18_data.csv,1,300,163.0,Training at home,,,,,,,,,,,,,
1,18,4093,B,73.1547568914566,50.79828531965815,3.65773784457283,0.7979375998759812,B,665.396199998213,Correct,sub_001_day_18_data.csv,1,300,163.0,Training at home,,,,,,,,,,,,,
1,18,4094,A,58.751309436361424,66.77584958587052,2.9375654718180715,1.0489125924809393,B,698.019799994654,Incorrect,sub_001_day_18_data.csv,0,300,163.0,Training at home,,,,,,,,,,,,,
1,18,4095,A,22.48153792728909,45.80198707004832,1.1240768963644543,0.7194559304953926,A,564.789700001711,Correct,sub_001_day_18_data.csv,1,300,163.0,Training at home,,,,,,,,,,,,,
1,18,4096,A,50.8982895737134,81.01136342365047,2.5449144786856697,1.272523520945166,A,648.218000002089,Correct,sub_001_day_18_data.csv,1,300,163.0,Training at home,,,,,,,,,,,,,
1,18,4097,B,58.25807900341021,41.46829509604081,2.9129039501705103,0.6513824561530773,B,1262.6032999978634,Correct,sub_001_day_18_data.csv,1,300,163.0,Training at home,,,,,,,,,,,,,
1,18,4098,B,34.17354532989662,21.501658220507423,1.708677266494831,0.3377472575277235,B,3422.852100004093,Correct,sub_001_day_18_data.csv,1,300,163.0,Training at home,,,,,,,,,,,,,
1,18,4099,A,19.35734099876476,32.15761779097343,0.967867049938238,0.5051306790453528,B,1611.047800004599,Incorrect,sub_001_day_18_data.csv,0,300,163.0,Training at home,,,,,,,,,,,,,
1,18,4100,B,70.57789454215113,42.06420814749182,3.528894727107556,0.6607430364761611,A,744.4061999995029,Incorrect,sub_001_day_18_data.csv,0,300,164.0,Training at home,,,,,,,,,,,,,
1,18,4101,B,58.15275984449337,29.873153439905305,2.9076379922246685,0.4692463969318358,B,847.3003999970388,Correct,sub_001_day_18_data.csv,1,300,164.0,Training at home,,,,,,,,,,,,,
1,18,4102,B,68.83314248571303,42.97682667363058,3.4416571242856513,0.6750784147623986,B,861.3735999970231,Correct,sub_001_day_18_data.csv,1,300,164.0,Training at home,,,,,,,,,,,,,
1,18,4103,A,18.94683729157922,39.385415679681046,0.947341864578961,0.6186646627893312,A,592.7362000074936,Correct,sub_001_day_18_data.csv,1,300,164.0,Training at home,,,,,,,,,,,,,
1,18,4104,A,60.443229056888526,71.90680886287632,3.0221614528444265,1.1295095123334882,A,691.6478000057396,Correct,sub_001_day_18_data.csv,1,300,164.0,Training at home,,,,,,,,,,,,,
1,18,4105,A,45.30850513240521,64.58714904265582,2.26542525662026,1.0145325647435828,A,604.4474999944214,Correct,sub_001_day_18_data.csv,1,300,164.0,Training at home,,,,,,,,,,,,,
1,18,4106,A,30.356861787292903,41.23725823282551,1.5178430893646453,0.6477533375921491,A,676.731400002609,Correct,sub_001_day_18_data.csv,1,300,164.0,Training at home,,,,,,,,,,,,,
1,18,4107,A,60.178329389748995,75.57274600323457,3.00891646948745,1.1870939182768458,A,640.564599991194,Correct,sub_001_day_18_data.csv,1,300,164.0,Training at home,,,,,,,,,,,,,
1,18,4108,B,42.29112653087829,31.566008056406787,2.114556326543914,0.4958376950658189,A,673.7841000140179,Incorrect,sub_001_day_18_data.csv,0,300,164.0,Training at home,,,,,,,,,,,,,
1,18,4109,B,59.97023052039911,31.577527061122208,2.9985115260199557,0.496018635168772,B,1141.0408000083407,Correct,sub_001_day_18_data.csv,1,300,164.0,Training at home,,,,,,,,,,,,,
1,18,4110,A,30.890394651305236,40.40900939970048,1.5445197325652618,0.6347432353446997,B,733.2051999983378,Incorrect,sub_001_day_18_data.csv,0,300,164.0,Training at home,,,,,,,,,,,,,
1,18,4111,B,70.16228087641542,40.54092221228988,3.508114043820771,0.6368153169594256,B,670.1121999940369,Correct,sub_001_day_18_data.csv,1,300,164.0,Training at home,,,,,,,,,,,,,
1,18,4112,B,44.83340765623007,21.569438342054134,2.241670382811503,0.3388119451872764,B,1372.4543999996968,Correct,sub_001_day_18_data.csv,1,300,164.0,Training at home,,,,,,,,,,,,,
1,18,4113,A,48.955084411782174,76.62139559241858,2.4477542205891085,1.203566067504698,A,641.4828000124544,Correct,sub_001_day_18_data.csv,1,300,164.0,Training at home,,,,,,,,,,,,,
1,18,4114,B,43.10385445747171,32.45462120732915,2.1551927228735854,0.5097959977999238,B,1531.778000004124,Correct,sub_001_day_18_data.csv,1,300,164.0,Training at home,,,,,,,,,,,,,
1,18,4115,A,41.465167869737186,58.12297605272371,2.073258393486859,0.9129935728600614,B,1456.3223000004657,Incorrect,sub_001_day_18_data.csv,0,300,164.0,Training at home,,,,,,,,,,,,,
1,18,4116,B,70.77005584516465,46.78648619103126,3.538502792258232,0.7349204065251205,B,3519.9881000007736,Correct,sub_001_day_18_data.csv,1,300,164.0,Training at home,,,,,,,,,,,,,
1,18,4117,B,54.57028583072509,32.10944493306643,2.728514291536255,0.5043739815628375,B,1063.937500002794,Correct,sub_001_day_18_data.csv,1,300,164.0,Training at home,,,,,,,,,,,,,
1,18,4118,A,51.01517268927552,62.05794033136076,2.5507586344637763,0.9748038472095836,B,1659.331500006374,Incorrect,sub_001_day_18_data.csv,0,300,164.0,Training at home,,,,,,,,,,,,,
1,18,4119,A,36.615858542886286,44.93257451803784,1.8307929271443144,0.705799230063718,B,932.8342000080738,Incorrect,sub_001_day_18_data.csv,0,300,164.0,Training at home,,,,,,,,,,,,,
1,18,4120,B,71.81610675744359,46.384237334213346,3.5908053378721796,0.7286018962576502,B,1066.66710000718,Correct,sub_001_day_18_data.csv,1,300,164.0,Training at home,,,,,,,,,,,,,
1,18,4121,A,55.6431578632407,72.0299156969898,2.782157893162035,1.1314432699617765,A,975.346499995794,Correct,sub_001_day_18_data.csv,1,300,164.0,Training at home,,,,,,,,,,,,,
1,18,4122,B,57.57669317839363,34.004912702731765,2.878834658919682,0.5341479196643218,A,918.5854999959702,Incorrect,sub_001_day_18_data.csv,0,300,164.0,Training at home,,,,,,,,,,,,,
1,18,4123,A,31.196896214780395,39.584892626712275,1.5598448107390197,0.6217980393461002,A,1253.7485000066226,Correct,sub_001_day_18_data.csv,1,300,164.0,Training at home,,,,,,,,,,,,,
1,18,4124,A,54.29996850098754,76.42293473386657,2.714998425049377,1.2004486516284372,A,548.5508999990998,Correct,sub_001_day_18_data.csv,1,300,164.0,Training at home,,,,,,,,,,,,,
1,18,4125,B,45.07171173037986,24.14182563752763,2.253585586518993,0.3792189103355127,B,747.8181000042241,Correct,sub_001_day_18_data.csv,1,300,165.0,Training at home,,,,,,,,,,,,,
1,18,4126,B,51.40597110838359,19.862018910454974,2.5702985554191793,0.3119918634727344,A,850.5559000041103,Incorrect,sub_001_day_18_data.csv,0,300,165.0,Training at home,,,,,,,,,,,,,
1,18,4127,A,57.98653430463986,84.51525472960566,2.899326715231993,1.3275625168739955,B,1461.6876999934902,Incorrect,sub_001_day_18_data.csv,0,300,165.0,Training at home,,,,,,,,,,,,,
1,18,4128,B,72.93703029754577,55.29161029991509,3.646851514877289,0.8685185836168148,B,603.7646000040695,Correct,sub_001_day_18_data.csv,1,300,165.0,Training at home,,,,,,,,,,,,,
1,18,4129,A,38.898094345377224,66.89500973989125,1.9449047172688612,1.0507843558033,B,4003.8974000053713,Incorrect,sub_001_day_18_data.csv,0,300,165.0,Training at home,,,,,,,,,,,,,
1,18,4130,A,56.262976656087176,79.80573154268535,2.813148832804359,1.2535854996442974,A,1523.241600007168,Correct,sub_001_day_18_data.csv,1,300,165.0,Training at home,,,,,,,,,,,,,
1,18,4131,A,16.283761500765067,34.45180327903522,0.8141880750382533,0.5411676604216888,A,1317.63669999782,Correct,sub_001_day_18_data.csv,1,300,165.0,Training at home,,,,,,,,,,,,,
1,18,4132,B,56.37453041137577,39.802797303073525,2.8187265205687884,0.6252208779982971,B,1011.9560000021012,Correct,sub_001_day_18_data.csv,1,300,165.0,Training at home,,,,,,,,,,,,,
1,18,4133,B,46.72332474392511,37.69428164825026,2.3361662371962555,0.592100391542438,B,729.9028999987058,Correct,sub_001_day_18_data.csv,1,300,165.0,Training at home,,,,,,,,,,,,,
1,18,4134,B,71.44720170446186,40.04769755586174,3.5723600852230932,0.6290677621734058,B,817.0154999970691,Correct,sub_001_day_18_data.csv,1,300,165.0,Training at home,,,,,,,,,,,,,
1,18,4135,B,58.35186798048298,45.061956736166486,2.9175933990241494,0.7078315611936086,B,1901.0213000001384,Correct,sub_001_day_18_data.csv,1,300,165.0,Training at home,,,,,,,,,,,,,
1,18,4136,A,51.17091147268656,66.58837787216017,2.558545573634328,1.0459677936881977,B,587.4633000057656,Incorrect,sub_001_day_18_data.csv,0,300,165.0,Training at home,,,,,,,,,,,,,
1,18,4137,A,52.00819873805769,69.27675233583383,2.600409936902885,1.0881966810140755,A,803.3014999964507,Correct,sub_001_day_18_data.csv,1,300,165.0,Training at home,,,,,,,,,,,,,
1,18,4138,B,81.47616353171102,67.65410462969294,4.073808176585551,1.0627081904491928,B,1632.8233999956865,Correct,sub_001_day_18_data.csv,1,300,165.0,Training at home,,,,,,,,,,,,,
1,18,4139,A,61.01715460694204,77.39547004015272,3.050857730347102,1.2157252004963637,A,1682.262099988293,Correct,sub_001_day_18_data.csv,1,300,165.0,Training at home,,,,,,,,,,,,,
1,18,4140,A,29.38754268245912,62.110244843787946,1.469377134122956,0.9756254445695376,A,903.1983000022592,Correct,sub_001_day_18_data.csv,1,300,165.0,Training at home,,,,,,,,,,,,,
1,18,4141,B,43.337782620599505,26.100886238373143,2.166889131029975,0.4099917622932801,B,3018.9666999940528,Correct,sub_001_day_18_data.csv,1,300,165.0,Training at home,,,,,,,,,,,,,
1,18,4142,B,51.13294211587112,42.42689877075681,2.556647105793556,0.666440167464037,B,735.9853999951156,Correct,sub_001_day_18_data.csv,1,300,165.0,Training at home,,,,,,,,,,,,,
1,18,4143,B,59.64660055308092,38.16612820827082,2.982330027654046,0.5995121399753489,A,581.3475000031758,Incorrect,sub_001_day_18_data.csv,0,300,165.0,Training at home,,,,,,,,,,,,,
1,18,4144,A,50.859350144871065,63.77271275439355,2.542967507243554,1.0017394294434745,A,1093.8000000023749,Correct,sub_001_day_18_data.csv,1,300,165.0,Training at home,,,,,,,,,,,,,
1,18,4145,B,57.97382633798264,36.92493442923519,2.898691316899132,0.5800155136858506,B,1003.0203000060284,Correct,sub_001_day_18_data.csv,1,300,165.0,Training at home,,,,,,,,,,,,,
1,18,4146,B,49.436776702954774,22.38404395437635,2.4718388351477385,0.3516077402234988,B,770.6787000061013,Correct,sub_001_day_18_data.csv,1,300,165.0,Training at home,,,,,,,,,,,,,
1,18,4147,B,34.41452485917591,17.13131014016902,1.7207262429587955,0.2690979904136166,B,661.3103999989107,Correct,sub_001_day_18_data.csv,1,300,165.0,Training at home,,,,,,,,,,,,,
1,18,4148,B,62.00748714295554,43.11723816397944,3.100374357147777,0.6772839932951963,B,480.64310000336263,Correct,sub_001_day_18_data.csv,1,300,165.0,Training at home,,,,,,,,,,,,,
1,18,4149,A,66.92913997918677,82.84713369959337,3.3464569989593382,1.3013597330080695,A,1122.2612999990815,Correct,sub_001_day_18_data.csv,1,300,165.0,Training at home,,,,,,,,,,,,,
1,18,4150,A,17.64969205818935,39.38969486644193,0.8824846029094674,0.6187318800977878,A,618.038600005093,Correct,sub_001_day_18_data.csv,1,300,166.0,Training at home,,,,,,,,,,,,,
1,18,4151,B,59.21873420319005,36.32221671406288,2.9609367101595025,0.5705480459549819,B,1378.331400002935,Correct,sub_001_day_18_data.csv,1,300,166.0,Training at home,,,,,,,,,,,,,
1,18,4152,A,62.1292654600947,84.84588158584666,3.106463273004735,1.332755991387227,A,515.8238000003621,Correct,sub_001_day_18_data.csv,1,300,166.0,Training at home,,,,,,,,,,,,,
1,18,4153,A,42.63493070404379,63.95358006645698,2.13174653520219,1.0045804865377392,A,503.91640000452753,Correct,sub_001_day_18_data.csv,1,300,166.0,Training at home,,,,,,,,,,,,,
1,18,4154,A,51.89046496821166,70.28374883245465,2.594523248410583,1.104014544993949,B,1215.85999999661,Incorrect,sub_001_day_18_data.csv,0,300,166.0,Training at home,,,,,,,,,,,,,
1,18,4155,A,53.4951292355794,80.98179894910395,2.6747564617789696,1.2720591232649527,A,591.3695000053849,Correct,sub_001_day_18_data.csv,1,300,166.0,Training at home,,,,,,,,,,,,,
1,18,4156,A,33.20869643148709,44.62322318967273,1.6604348215743543,0.7009399507608677,B,685.7270000036806,Incorrect,sub_001_day_18_data.csv,0,300,166.0,Training at home,,,,,,,,,,,,,
1,18,4157,A,59.069447528710086,71.61734932588357,2.9534723764355046,1.1249626925588487,A,661.9267999922158,Correct,sub_001_day_18_data.csv,1,300,166.0,Training at home,,,,,,,,,,,,,
1,18,4158,A,39.55811899554512,54.24119770028986,1.977905949777256,0.852018741085711,A,488.4098000038648,Correct,sub_001_day_18_data.csv,1,300,166.0,Training at home,,,,,,,,,,,,,
1,18,4159,B,49.61192738894399,31.3676812301363,2.4805963694471997,0.4927223845637132,B,1802.0911000057824,Correct,sub_001_day_18_data.csv,1,300,166.0,Training at home,,,,,,,,,,,,,
1,18,4160,B,85.08216126755114,69.69626659420479,4.254108063377557,1.0947863955749473,B,1399.9056000029668,Correct,sub_001_day_18_data.csv,1,300,166.0,Training at home,,,,,,,,,,,,,
1,18,4161,B,38.24454169467301,13.391692569334424,1.9122270847336509,0.2103562149747702,B,740.9388000087347,Correct,sub_001_day_18_data.csv,1,300,166.0,Training at home,,,,,,,,,,,,,
1,18,4162,B,60.89091041784669,50.60647360530295,3.0445455208923344,0.7949246285125278,B,5489.9950999970315,Correct,sub_001_day_18_data.csv,1,300,166.0,Training at home,,,,,,,,,,,,,
1,18,4163,A,25.367961226928617,51.53256692037182,1.2683980613464307,0.8094716682883225,A,5233.491899998626,Correct,sub_001_day_18_data.csv,1,300,166.0,Training at home,,,,,,,,,,,,,
1,18,4164,B,53.59958208443947,33.84514300946673,2.6799791042219736,0.5316382631911831,A,786.3057000067784,Incorrect,sub_001_day_18_data.csv,0,300,166.0,Training at home,,,,,,,,,,,,,
1,18,4165,A,61.55060021720341,84.89793639581085,3.0775300108601704,1.3335736664300646,A,1215.5523999972502,Correct,sub_001_day_18_data.csv,1,300,166.0,Training at home,,,,,,,,,,,,,
1,18,4166,B,37.268317890700075,23.63054721353364,1.8634158945350037,0.3711877676317202,B,3718.594799996936,Correct,sub_001_day_18_data.csv,1,300,166.0,Training at home,,,,,,,,,,,,,
1,18,4167,A,15.27200175950814,32.49111451460037,0.763600087975407,0.5103692333300661,A,1428.4112000023017,Correct,sub_001_day_18_data.csv,1,300,166.0,Training at home,,,,,,,,,,,,,
1,18,4168,B,56.284996991027654,40.18342159305574,2.8142498495513824,0.6311997103642268,B,2134.2790000053355,Correct,sub_001_day_18_data.csv,1,300,166.0,Training at home,,,,,,,,,,,,,
1,18,4169,A,53.03359046708374,68.56518860077915,2.651679523354187,1.077019464001032,A,780.4752000083681,Correct,sub_001_day_18_data.csv,1,300,166.0,Training at home,,,,,,,,,,,,,
1,18,4170,B,63.67895673427016,31.053016983893208,3.183947836713508,0.4877796501419899,B,551.6629000048852,Correct,sub_001_day_18_data.csv,1,300,166.0,Training at home,,,,,,,,,,,,,
1,18,4171,B,62.643642841470744,35.571511490407154,3.132182142073537,0.5587559958767401,A,513.1987000058871,Incorrect,sub_001_day_18_data.csv,0,300,166.0,Training at home,,,,,,,,,,,,,
1,18,4172,A,34.31286655420024,43.554635788319125,1.715643327710012,0.6841546191118122,A,1694.119400010095,Correct,sub_001_day_18_data.csv,1,300,166.0,Training at home,,,,,,,,,,,,,
1,18,4173,A,62.88151278868311,84.1528859932817,3.1440756394341554,1.321870442074366,A,748.0018999922322,Correct,sub_001_day_18_data.csv,1,300,166.0,Training at home,,,,,,,,,,,,,
1,18,4174,B,82.2451239872052,57.9343019426336,4.11225619936026,0.9100298868691528,A,1041.711199999554,Incorrect,sub_001_day_18_data.csv,0,300,166.0,Training at home,,,,,,,,,,,,,
1,18,4175,B,34.35037368269482,21.534994473741587,1.7175186841347412,0.3382709021690168,B,720.9570000122767,Correct,sub_001_day_18_data.csv,1,300,167.0,Training at home,,,,,,,,,,,,,
1,18,4176,A,29.25585114855238,46.9152529773952,1.462792557427619,0.7369430704754569,B,1006.6525000002002,Incorrect,sub_001_day_18_data.csv,0,300,167.0,Training at home,,,,,,,,,,,,,
1,18,4177,B,59.03049869592229,27.404418480744205,2.9515249347961143,0.4304675988750318,B,802.5774000125239,Correct,sub_001_day_18_data.csv,1,300,167.0,Training at home,,,,,,,,,,,,,
1,18,4178,A,49.28220567367928,73.56649682758096,2.4641102836839637,1.1555798299193258,A,643.1672000035178,Correct,sub_001_day_18_data.csv,1,300,167.0,Training at home,,,,,,,,,,,,,
1,18,4179,A,30.496992913692345,42.661819792385046,1.5248496456846172,0.6701302982426425,A,713.8981000025524,Correct,sub_001_day_18_data.csv,1,300,167.0,Training at home,,,,,,,,,,,,,
1,18,4180,B,67.5955731538294,40.30481182675437,3.37977865769147,0.6331065036962527,A,755.668700003298,Incorrect,sub_001_day_18_data.csv,0,300,167.0,Training at home,,,,,,,,,,,,,
1,18,4181,A,57.277621532283554,65.17365137511702,2.863881076614178,1.0237453218384498,A,1752.8335000097286,Correct,sub_001_day_18_data.csv,1,300,167.0,Training at home,,,,,,,,,,,,,
1,18,4182,A,39.74655619941857,57.19257697779173,1.9873278099709284,0.8983788983664961,A,611.3208000024315,Correct,sub_001_day_18_data.csv,1,300,167.0,Training at home,,,,,,,,,,,,,
1,18,4183,B,71.21903145644102,38.143432965425305,3.560951572822051,0.5991556439343744,B,655.3222999937134,Correct,sub_001_day_18_data.csv,1,300,167.0,Training at home,,,,,,,,,,,,,
1,18,4184,B,41.58678140165473,16.533617870905374,2.079339070082737,0.2597094622024861,A,595.3524000069592,Incorrect,sub_001_day_18_data.csv,0,300,167.0,Training at home,,,,,,,,,,,,,
1,18,4185,B,54.31603112125951,37.19006261407043,2.715801556062976,0.5841801374745405,B,1121.120099996915,Correct,sub_001_day_18_data.csv,1,300,167.0,Training at home,,,,,,,,,,,,,
1,18,4186,A,19.533269975281645,40.243206998364485,0.9766634987640822,0.632138817314776,A,607.4957999953767,Correct,sub_001_day_18_data.csv,1,300,167.0,Training at home,,,,,,,,,,,,,
1,18,4187,A,45.09753691916665,61.62808112390799,2.2548768459583326,0.9680516345685258,A,719.0356999926735,Correct,sub_001_day_18_data.csv,1,300,167.0,Training at home,,,,,,,,,,,,,
1,18,4188,B,55.81427214065464,26.584039062898903,2.7907136070327323,0.4175811091137364,B,836.9872000039322,Correct,sub_001_day_18_data.csv,1,300,167.0,Training at home,,,,,,,,,,,,,
1,18,4189,A,39.317662287888915,67.81723694814512,1.9658831143944455,1.065270666915255,A,1715.8429999981308,Correct,sub_001_day_18_data.csv,1,300,167.0,Training at home,,,,,,,,,,,,,
1,18,4190,A,49.75010665695643,72.93411358934728,2.487505332847822,1.1456463772418846,A,864.3469000089681,Correct,sub_001_day_18_data.csv,1,300,167.0,Training at home,,,,,,,,,,,,,
1,18,4191,B,74.61736917750812,60.78862556937872,3.730868458875406,0.9548654975529042,A,726.6725000081351,Incorrect,sub_001_day_18_data.csv,0,300,167.0,Training at home,,,,,,,,,,,,,
1,18,4192,A,42.71015236783872,72.44544883638098,2.1355076183919355,1.1379704492519485,A,897.8915999905439,Correct,sub_001_day_18_data.csv,1,300,167.0,Training at home,,,,,,,,,,,,,
1,18,4193,A,21.37162801274755,52.288928372980344,1.0685814006373775,0.8213525662031896,B,748.2028000085847,Incorrect,sub_001_day_18_data.csv,0,300,167.0,Training at home,,,,,,,,,,,,,
1,18,4194,A,35.53492780427417,67.72141535792993,1.7767463902137084,1.0637655048958785,B,1073.205799999414,Incorrect,sub_001_day_18_data.csv,0,300,167.0,Training at home,,,,,,,,,,,,,
1,18,4195,B,66.21474268609278,32.82207370418546,3.310737134304639,0.5155679281232589,A,977.27100001066,Incorrect,sub_001_day_18_data.csv,0,300,167.0,Training at home,,,,,,,,,,,,,
1,18,4196,A,46.28185063365433,70.52042957376875,2.314092531682717,1.1077323173847415,A,460.472499995376,Correct,sub_001_day_18_data.csv,1,300,167.0,Training at home,,,,,,,,,,,,,
1,18,4197,A,30.375860884014635,41.311045299162274,1.5187930442007316,0.6489123821198167,B,864.4072000024607,Incorrect,sub_001_day_18_data.csv,0,300,167.0,Training at home,,,,,,,,,,,,,
1,18,4198,A,23.139488607035695,40.138904424566846,1.156974430351785,0.6305004363168102,A,582.8044999943813,Correct,sub_001_day_18_data.csv,1,300,167.0,Training at home,,,,,,,,,,,,,
1,18,4199,A,20.97912520342482,44.704160424419136,1.048956260171241,0.7022113098712737,A,612.8194000048097,Correct,sub_001_day_18_data.csv,1,300,167.0,Training at home,,,,,,,,,,,,,
