subject,day,trial,cat,x,y,xt,yt,resp,rt,fb,f_name,acc,n_trials,block,session_type,ns_left_digit,ns_right_digit,ns_left_size,ns_right_size,ns_congruent,ns_cue,ns_correct_side,ns_resp,ns_rt,ns_fb,acc_stroop,acc_stroop_mean,resp_key
1,15,3300,B,40.15525871743597,13.096892371875462,2.0077629358717983,0.2057255043017007,B,1000.5922000855207,Correct,sub_001_day_16_data.csv,1,300,132.0,Training at home,,,,,,,,,,,,,
1,15,3301,B,69.24701211658383,58.814216329532584,3.462350605829192,0.923851549737502,A,642.0073001645505,Incorrect,sub_001_day_16_data.csv,0,300,132.0,Training at home,,,,,,,,,,,,,
1,15,3302,B,60.313517901292514,43.466915478820326,3.015675895064626,0.682776711712352,B,793.9245998859406,Correct,sub_001_day_16_data.csv,1,300,132.0,Training at home,,,,,,,,,,,,,
1,15,3303,A,18.913470389745104,45.10135563619936,0.9456735194872552,0.7084504376681227,A,714.6664001047611,Correct,sub_001_day_16_data.csv,1,300,132.0,Training at home,,,,,,,,,,,,,
1,15,3304,B,69.23187978859517,56.628260797200696,3.4615939894297583,0.8895146405302631,B,625.5487999878824,Correct,sub_001_day_16_data.csv,1,300,132.0,Training at home,,,,,,,,,,,,,
1,15,3305,A,23.30160251611382,38.730974460702214,1.165080125805691,0.60838472416058,A,587.459699716419,Correct,sub_001_day_16_data.csv,1,300,132.0,Training at home,,,,,,,,,,,,,
1,15,3306,B,48.795667598292795,26.363907057216984,2.4397833799146396,0.4141232836543849,B,1022.9881000705064,Correct,sub_001_day_16_data.csv,1,300,132.0,Training at home,,,,,,,,,,,,,
1,15,3307,A,35.52763948785402,55.58546554007518,1.7763819743927007,0.8731344509353439,A,478.6792998202145,Correct,sub_001_day_16_data.csv,1,300,132.0,Training at home,,,,,,,,,,,,,
1,15,3308,B,66.90618559142898,39.683256772269345,3.345309279571449,0.6233431397313939,B,546.0342997685075,Correct,sub_001_day_16_data.csv,1,300,132.0,Training at home,,,,,,,,,,,,,
1,15,3309,B,51.37541690912344,21.99222768296058,2.568770845456172,0.3454531046243151,B,977.8815000317992,Correct,sub_001_day_16_data.csv,1,300,132.0,Training at home,,,,,,,,,,,,,
1,15,3310,B,86.79503280067235,69.08943982580453,4.339751640033617,1.085254382986908,A,518.5385001823306,Incorrect,sub_001_day_16_data.csv,0,300,132.0,Training at home,,,,,,,,,,,,,
1,15,3311,B,87.25753172122248,60.27486508571762,4.362876586061123,0.9467953667470318,B,674.152999650687,Correct,sub_001_day_16_data.csv,1,300,132.0,Training at home,,,,,,,,,,,,,
1,15,3312,B,45.04803448162782,19.52680979156947,2.252401724081391,0.3067264109461994,B,877.1072998642921,Correct,sub_001_day_16_data.csv,1,300,132.0,Training at home,,,,,,,,,,,,,
1,15,3313,B,79.97826137691499,67.70526992973934,3.9989130688457495,1.063511893102915,A,814.5693000406027,Incorrect,sub_001_day_16_data.csv,0,300,132.0,Training at home,,,,,,,,,,,,,
1,15,3314,A,60.88834762296905,84.61677972647679,3.0444173811484525,1.3291572677956265,A,679.517799988389,Correct,sub_001_day_16_data.csv,1,300,132.0,Training at home,,,,,,,,,,,,,
1,15,3315,A,17.029993560614958,34.45279890544073,0.8514996780307479,0.5411832996846953,A,658.4680997766554,Correct,sub_001_day_16_data.csv,1,300,132.0,Training at home,,,,,,,,,,,,,
1,15,3316,A,38.853588097170906,61.94472551346453,1.9426794048585452,0.973025473008682,A,497.4674000404775,Correct,sub_001_day_16_data.csv,1,300,132.0,Training at home,,,,,,,,,,,,,
1,15,3317,A,32.88413756198651,46.148778578902935,1.6442068780993255,0.7249033187781173,A,577.0600000396371,Correct,sub_001_day_16_data.csv,1,300,132.0,Training at home,,,,,,,,,,,,,
1,15,3318,B,53.3208016020326,21.765223611524306,2.66604008010163,0.3418873330085193,B,681.7236999049783,Correct,sub_001_day_16_data.csv,1,300,132.0,Training at home,,,,,,,,,,,,,
1,15,3319,B,62.95132542073869,46.623424713762056,3.147566271036934,0.7323590428297584,B,909.9826999008656,Correct,sub_001_day_16_data.csv,1,300,132.0,Training at home,,,,,,,,,,,,,
1,15,3320,A,56.04438233425164,84.88713783626534,2.802219116712582,1.333404043053377,A,484.0357997454703,Correct,sub_001_day_16_data.csv,1,300,132.0,Training at home,,,,,,,,,,,,,
1,15,3321,A,12.931138333726633,38.086323993298805,0.6465569166863316,0.598258578297941,A,624.4601998478174,Correct,sub_001_day_16_data.csv,1,300,132.0,Training at home,,,,,,,,,,,,,
1,15,3322,A,15.107849138214169,35.89995913107411,0.7553924569107083,0.5639152393517813,A,884.8725999705493,Correct,sub_001_day_16_data.csv,1,300,132.0,Training at home,,,,,,,,,,,,,
1,15,3323,B,38.4441101015286,22.7965276034834,1.92220550507643,0.3580870182323019,A,556.9285000674427,Incorrect,sub_001_day_16_data.csv,0,300,132.0,Training at home,,,,,,,,,,,,,
1,15,3324,A,14.465014932725405,38.17363680997871,0.7232507466362702,0.5996300848151701,A,637.9354000091553,Correct,sub_001_day_16_data.csv,1,300,132.0,Training at home,,,,,,,,,,,,,
1,15,3325,A,14.233988447856394,33.84210526177368,0.7116994223928197,0.5315905463620034,A,966.8267997913064,Correct,sub_001_day_16_data.csv,1,300,133.0,Training at home,,,,,,,,,,,,,
1,15,3326,A,64.03309863609672,82.67104139278925,3.2016549318048364,1.298593681521022,A,1157.8191998414695,Correct,sub_001_day_16_data.csv,1,300,133.0,Training at home,,,,,,,,,,,,,
1,15,3327,A,63.474260126675816,81.82837760386879,3.1737130063337906,1.2853571496774288,A,827.5083997286856,Correct,sub_001_day_16_data.csv,1,300,133.0,Training at home,,,,,,,,,,,,,
1,15,3328,B,76.91985273149254,45.23648907363058,3.845992636574627,0.7105731087395638,B,517.1014000661671,Correct,sub_001_day_16_data.csv,1,300,133.0,Training at home,,,,,,,,,,,,,
1,15,3329,A,50.78808400216669,76.75235413310622,2.5394042001083346,1.2056231594514435,A,687.7810000441968,Correct,sub_001_day_16_data.csv,1,300,133.0,Training at home,,,,,,,,,,,,,
1,15,3330,B,79.36546389334463,58.477335615433766,3.968273194667231,0.9185598398547576,A,888.0071002058685,Incorrect,sub_001_day_16_data.csv,0,300,133.0,Training at home,,,,,,,,,,,,,
1,15,3331,A,16.29221135730701,41.05545521312232,0.8146105678653506,0.6448975824366493,A,598.923500161618,Correct,sub_001_day_16_data.csv,1,300,133.0,Training at home,,,,,,,,,,,,,
1,15,3332,A,45.24148547581868,52.238162457461314,2.262074273790934,0.8205551370669529,A,926.7460000701248,Correct,sub_001_day_16_data.csv,1,300,133.0,Training at home,,,,,,,,,,,,,
1,15,3333,B,77.59112854886163,55.2540141060087,3.879556427443082,0.8679280239839186,B,720.9006999619305,Correct,sub_001_day_16_data.csv,1,300,133.0,Training at home,,,,,,,,,,,,,
1,15,3334,B,74.12094774071899,51.69047562877026,3.7060473870359494,0.8119520924795345,B,594.0151000395417,Correct,sub_001_day_16_data.csv,1,300,133.0,Training at home,,,,,,,,,,,,,
1,15,3335,A,38.01916740364961,55.2589191208983,1.9009583701824808,0.8680050717776333,A,1269.7479003109038,Correct,sub_001_day_16_data.csv,1,300,133.0,Training at home,,,,,,,,,,,,,
1,15,3336,A,63.53863118027557,83.72765213339792,3.1769315590137785,1.3151908842230235,A,1351.621000096202,Correct,sub_001_day_16_data.csv,1,300,133.0,Training at home,,,,,,,,,,,,,
1,15,3337,A,62.12246853945672,77.86777896041045,3.1061234269728355,1.223144211666897,A,558.7386996485293,Correct,sub_001_day_16_data.csv,1,300,133.0,Training at home,,,,,,,,,,,,,
1,15,3338,A,13.243125956141297,41.11689570885092,0.6621562978070648,0.6458626874867187,A,615.2020003646612,Correct,sub_001_day_16_data.csv,1,300,133.0,Training at home,,,,,,,,,,,,,
1,15,3339,A,64.6011648700664,78.01585365063721,3.23005824350332,1.2254701634618916,A,585.8037997968495,Correct,sub_001_day_16_data.csv,1,300,133.0,Training at home,,,,,,,,,,,,,
1,15,3340,A,50.26599659376322,57.68512129217019,2.513299829688161,0.90611576636459,A,516.2843000143766,Correct,sub_001_day_16_data.csv,1,300,133.0,Training at home,,,,,,,,,,,,,
1,15,3341,A,25.931891910174407,51.38062123713782,1.2965945955087204,0.8070849110773592,A,467.9566998966038,Correct,sub_001_day_16_data.csv,1,300,133.0,Training at home,,,,,,,,,,,,,
1,15,3342,A,26.47400222987705,42.95802424331676,1.3237001114938525,0.6747830668776807,A,595.5256000161171,Correct,sub_001_day_16_data.csv,1,300,133.0,Training at home,,,,,,,,,,,,,
1,15,3343,A,18.537846984423332,39.734369386275226,0.9268923492211668,0.6241460147947271,A,597.9083003476262,Correct,sub_001_day_16_data.csv,1,300,133.0,Training at home,,,,,,,,,,,,,
1,15,3344,B,76.75717045235956,62.2247784620135,3.837858522617978,0.9774245344375698,A,596.4775001630187,Incorrect,sub_001_day_16_data.csv,0,300,133.0,Training at home,,,,,,,,,,,,,
1,15,3345,B,89.44306238452975,64.87196916379179,4.472153119226488,1.0190065087443594,A,962.059599813074,Incorrect,sub_001_day_16_data.csv,0,300,133.0,Training at home,,,,,,,,,,,,,
1,15,3346,B,89.84429646207545,65.57934459105002,4.492214823103772,1.030117935972381,B,685.3500003926456,Correct,sub_001_day_16_data.csv,1,300,133.0,Training at home,,,,,,,,,,,,,
1,15,3347,A,52.82119526610432,82.49084375900871,2.6410597633052157,1.295763143708626,A,611.5997000597417,Correct,sub_001_day_16_data.csv,1,300,133.0,Training at home,,,,,,,,,,,,,
1,15,3348,B,66.22209180936036,47.36253221427778,3.311104590468018,0.743968916298925,A,592.3580001108348,Incorrect,sub_001_day_16_data.csv,0,300,133.0,Training at home,,,,,,,,,,,,,
1,15,3349,B,64.26052375767964,48.2936243482128,3.2130261878839814,0.7585944773378525,B,505.15760015696287,Correct,sub_001_day_16_data.csv,1,300,133.0,Training at home,,,,,,,,,,,,,
1,15,3350,A,23.659239206137197,45.82485774708648,1.18296196030686,0.719815182250221,B,805.2746998146176,Incorrect,sub_001_day_16_data.csv,0,300,134.0,Training at home,,,,,,,,,,,,,
1,15,3351,B,47.387981276653406,30.62039319230053,2.3693990638326703,0.4809840115148112,B,560.5983999557793,Correct,sub_001_day_16_data.csv,1,300,134.0,Training at home,,,,,,,,,,,,,
1,15,3352,B,67.46802849626341,36.87922392350367,3.3734014248131707,0.5792974947408603,B,581.0790001414716,Correct,sub_001_day_16_data.csv,1,300,134.0,Training at home,,,,,,,,,,,,,
1,15,3353,A,40.03368155524706,48.351984958637814,2.001684077762353,0.7595112036627036,B,562.5843000598252,Incorrect,sub_001_day_16_data.csv,0,300,134.0,Training at home,,,,,,,,,,,,,
1,15,3354,B,54.51967543403701,47.50261256829924,2.7259837717018507,0.7461692933544554,B,1077.6229999028146,Correct,sub_001_day_16_data.csv,1,300,134.0,Training at home,,,,,,,,,,,,,
1,15,3355,A,61.544655400346485,74.16962861055842,3.077232770017324,1.1650538018120682,A,1042.067799717188,Correct,sub_001_day_16_data.csv,1,300,134.0,Training at home,,,,,,,,,,,,,
1,15,3356,A,57.50345595632831,66.69396051434683,2.8751727978164157,1.0476262819533988,B,937.579699791968,Incorrect,sub_001_day_16_data.csv,0,300,134.0,Training at home,,,,,,,,,,,,,
1,15,3357,B,62.288417669385574,52.3514713954803,3.1144208834692786,0.8223349897032854,B,709.7114003263414,Correct,sub_001_day_16_data.csv,1,300,134.0,Training at home,,,,,,,,,,,,,
1,15,3358,B,63.93130839782384,54.162425563657976,3.196565419891192,0.8507813912569595,B,680.2247003652155,Correct,sub_001_day_16_data.csv,1,300,134.0,Training at home,,,,,,,,,,,,,
1,15,3359,B,54.85020817251696,45.268171503655715,2.7425104086258476,0.711070775186638,B,569.3239001557231,Correct,sub_001_day_16_data.csv,1,300,134.0,Training at home,,,,,,,,,,,,,
1,15,3360,A,43.33831908602157,65.06696415293735,2.1669159543010785,1.0220694828712915,A,646.724000107497,Correct,sub_001_day_16_data.csv,1,300,134.0,Training at home,,,,,,,,,,,,,
1,15,3361,B,62.10176104855229,35.47993100332772,3.1050880524276145,0.5573174529496355,B,812.8773998469114,Correct,sub_001_day_16_data.csv,1,300,134.0,Training at home,,,,,,,,,,,,,
1,15,3362,A,52.96351067978909,74.91350034584484,2.6481755339894546,1.1767385117060127,A,731.228600256145,Correct,sub_001_day_16_data.csv,1,300,134.0,Training at home,,,,,,,,,,,,,
1,15,3363,A,25.62298170707988,50.27590966589468,1.281149085353994,0.7897321422945939,A,1268.4188997372985,Correct,sub_001_day_16_data.csv,1,300,134.0,Training at home,,,,,,,,,,,,,
1,15,3364,B,48.97908641229769,23.677252817652345,2.4489543206148845,0.3719214175456242,B,1220.9505001083016,Correct,sub_001_day_16_data.csv,1,300,134.0,Training at home,,,,,,,,,,,,,
1,15,3365,A,45.73444691557208,54.88735279321308,2.286722345778604,0.8621685215507472,B,1280.154500156641,Incorrect,sub_001_day_16_data.csv,0,300,134.0,Training at home,,,,,,,,,,,,,
1,15,3366,A,34.35831190964318,64.7922346478732,1.717915595482159,1.0177540418971225,A,1325.3178000450134,Correct,sub_001_day_16_data.csv,1,300,134.0,Training at home,,,,,,,,,,,,,
1,15,3367,B,54.0271484770224,32.65416076195986,2.70135742385112,0.5129303577945659,B,1176.6772996634245,Correct,sub_001_day_16_data.csv,1,300,134.0,Training at home,,,,,,,,,,,,,
1,15,3368,B,84.44353023573102,55.012635317024746,4.222176511786551,0.8641364548328967,B,986.6043999791144,Correct,sub_001_day_16_data.csv,1,300,134.0,Training at home,,,,,,,,,,,,,
1,15,3369,A,38.88465468468029,68.37229717979326,1.9442327342340149,1.0739895326454834,B,899.8063998296857,Incorrect,sub_001_day_16_data.csv,0,300,134.0,Training at home,,,,,,,,,,,,,
1,15,3370,B,50.64513368242317,26.431496838976575,2.5322566841211587,0.4151849814635532,B,880.417900159955,Correct,sub_001_day_16_data.csv,1,300,134.0,Training at home,,,,,,,,,,,,,
1,15,3371,A,24.464696412488426,50.86726483021513,1.223234820624421,0.7990211274940514,A,1137.3681998811662,Correct,sub_001_day_16_data.csv,1,300,134.0,Training at home,,,,,,,,,,,,,
1,15,3372,A,58.66088958033496,74.31412584951173,2.933044479016748,1.1673235591338669,A,929.5978001318872,Correct,sub_001_day_16_data.csv,1,300,134.0,Training at home,,,,,,,,,,,,,
1,15,3373,B,71.00348494822454,56.700649414461715,3.550174247411227,0.8906517182712166,A,1368.3731998316944,Incorrect,sub_001_day_16_data.csv,0,300,134.0,Training at home,,,,,,,,,,,,,
1,15,3374,B,69.86279679850512,60.77963514661268,3.4931398399252553,0.954724276322332,B,980.5550002492964,Correct,sub_001_day_16_data.csv,1,300,134.0,Training at home,,,,,,,,,,,,,
1,15,3375,B,53.21698111408456,38.78012431735361,2.6608490557042277,0.6091567683034851,A,1675.7829999551177,Incorrect,sub_001_day_16_data.csv,0,300,135.0,Training at home,,,,,,,,,,,,,
1,15,3376,B,74.99215937952359,64.62736944666135,3.749607968976179,1.0151643453723236,B,725.390899926424,Correct,sub_001_day_16_data.csv,1,300,135.0,Training at home,,,,,,,,,,,,,
1,15,3377,A,30.80794995116384,41.25309655117866,1.540397497558192,0.6480021253150665,A,896.1990000680089,Correct,sub_001_day_16_data.csv,1,300,135.0,Training at home,,,,,,,,,,,,,
1,15,3378,A,30.068727651312024,45.66857636817724,1.5034363825656012,0.7173603200908503,B,861.5790996700525,Incorrect,sub_001_day_16_data.csv,0,300,135.0,Training at home,,,,,,,,,,,,,
1,15,3379,A,63.29961508460465,77.99162826300349,3.1649807542302324,1.2250896319627893,A,720.0994002632797,Correct,sub_001_day_16_data.csv,1,300,135.0,Training at home,,,,,,,,,,,,,
1,15,3380,A,21.368526344083534,53.0734944075402,1.0684263172041768,0.8336765006553363,A,765.4049000702798,Correct,sub_001_day_16_data.csv,1,300,135.0,Training at home,,,,,,,,,,,,,
1,15,3381,B,77.60562826231178,50.68255522144476,3.880281413115589,0.7961197157442493,A,962.8479997627436,Incorrect,sub_001_day_16_data.csv,0,300,135.0,Training at home,,,,,,,,,,,,,
1,15,3382,B,46.46153907023607,32.279105217255626,2.3230769535118037,0.5070389990749111,A,3679.1397999040782,Incorrect,sub_001_day_16_data.csv,0,300,135.0,Training at home,,,,,,,,,,,,,
1,15,3383,A,35.78314862995833,45.265332030468215,1.7891574314979166,0.7110261728461085,B,570.1409000903368,Incorrect,sub_001_day_16_data.csv,0,300,135.0,Training at home,,,,,,,,,,,,,
1,15,3384,B,76.92917987366141,48.33365645539949,3.84645899368307,0.7592233002070796,B,662.7537999302149,Correct,sub_001_day_16_data.csv,1,300,135.0,Training at home,,,,,,,,,,,,,
1,15,3385,A,30.517896620699062,62.97063139234196,1.525894831034953,0.9891403648704616,A,741.3241998292506,Correct,sub_001_day_16_data.csv,1,300,135.0,Training at home,,,,,,,,,,,,,
1,15,3386,B,49.009060707199495,33.815547586753794,2.450453035359975,0.531173379378309,B,679.3685001321137,Correct,sub_001_day_16_data.csv,1,300,135.0,Training at home,,,,,,,,,,,,,
1,15,3387,A,40.123838171098555,67.62597042365113,2.0061919085549276,1.062266259374115,A,550.3181000240147,Correct,sub_001_day_16_data.csv,1,300,135.0,Training at home,,,,,,,,,,,,,
1,15,3388,B,78.1557610772796,58.00537693093997,3.907788053863981,0.9111463301747392,A,679.4485002756119,Incorrect,sub_001_day_16_data.csv,0,300,135.0,Training at home,,,,,,,,,,,,,
1,15,3389,B,39.72914752695179,29.370379134905757,1.9864573763475897,0.4613488366168343,A,663.7105001136661,Incorrect,sub_001_day_16_data.csv,0,300,135.0,Training at home,,,,,,,,,,,,,
1,15,3390,B,32.127176618487226,16.906121185017735,1.6063588309243613,0.2655607305777523,B,484.3195998109877,Correct,sub_001_day_16_data.csv,1,300,135.0,Training at home,,,,,,,,,,,,,
1,15,3391,A,38.27513488293038,68.47987222739998,1.913756744146519,1.075679317541837,B,386.7084998637438,Incorrect,sub_001_day_16_data.csv,0,300,135.0,Training at home,,,,,,,,,,,,,
1,15,3392,B,58.57072119580617,35.16232110162263,2.928536059790309,0.5523284482801152,B,680.9020997025073,Correct,sub_001_day_16_data.csv,1,300,135.0,Training at home,,,,,,,,,,,,,
1,15,3393,A,59.89834305870056,83.75159697012295,2.994917152935028,1.3155670088387572,A,607.7161999419332,Correct,sub_001_day_16_data.csv,1,300,135.0,Training at home,,,,,,,,,,,,,
1,15,3394,B,66.06491701555206,36.89932117560857,3.3032458507776026,0.5796131816387108,B,557.6561000198126,Correct,sub_001_day_16_data.csv,1,300,135.0,Training at home,,,,,,,,,,,,,
1,15,3395,A,48.99903689463808,67.31640315212003,2.4499518447319044,1.0574035880439454,A,807.6817002147436,Correct,sub_001_day_16_data.csv,1,300,135.0,Training at home,,,,,,,,,,,,,
1,15,3396,A,30.591300860275155,63.53328885424819,1.529565043013758,0.997978567614522,A,624.5099999941885,Correct,sub_001_day_16_data.csv,1,300,135.0,Training at home,,,,,,,,,,,,,
1,15,3397,A,28.937799542696386,58.76354915332458,1.4468899771348194,0.923055671594736,A,554.8928999342024,Correct,sub_001_day_16_data.csv,1,300,135.0,Training at home,,,,,,,,,,,,,
1,15,3398,B,53.49845168725966,41.8048278652198,2.674922584362983,0.656668700529802,A,158.67509972304106,Incorrect,sub_001_day_16_data.csv,0,300,135.0,Training at home,,,,,,,,,,,,,
1,15,3399,A,39.28833496148312,53.08900207618632,1.964416748074156,0.8339200945448012,B,745.660999789834,Incorrect,sub_001_day_16_data.csv,0,300,135.0,Training at home,,,,,,,,,,,,,
1,15,3400,A,63.13731895463758,85.63093902075077,3.156865947731879,1.345087644737931,A,866.618299856782,Correct,sub_001_day_16_data.csv,1,300,136.0,Training at home,,,,,,,,,,,,,
1,15,3401,A,48.24473419065163,64.33580194533803,2.412236709532581,1.0105844137714095,A,607.1490002796054,Correct,sub_001_day_16_data.csv,1,300,136.0,Training at home,,,,,,,,,,,,,
1,15,3402,B,51.020004216778325,32.54612190426152,2.5510002108389163,0.5112332873863292,A,693.5688997618854,Incorrect,sub_001_day_16_data.csv,0,300,136.0,Training at home,,,,,,,,,,,,,
1,15,3403,B,53.52685076798607,36.631736905659565,2.6763425383993034,0.5754099777552709,B,479.4587995857,Correct,sub_001_day_16_data.csv,1,300,136.0,Training at home,,,,,,,,,,,,,
1,15,3404,A,24.549573472946697,47.762499385108626,1.2274786736473349,0.7502515859267214,B,862.9695000126958,Incorrect,sub_001_day_16_data.csv,0,300,136.0,Training at home,,,,,,,,,,,,,
1,15,3405,A,57.455375543077544,75.98023320539667,2.8727687771538775,1.1934947122805672,A,797.3611997440457,Correct,sub_001_day_16_data.csv,1,300,136.0,Training at home,,,,,,,,,,,,,
1,15,3406,A,46.658123256031715,77.30409361410892,2.332906162801586,1.2142898629525112,A,599.7124998830259,Correct,sub_001_day_16_data.csv,1,300,136.0,Training at home,,,,,,,,,,,,,
1,15,3407,A,40.34614004280548,58.58766925692779,2.017307002140274,0.9202929566425646,A,461.4105001091957,Correct,sub_001_day_16_data.csv,1,300,136.0,Training at home,,,,,,,,,,,,,
1,15,3408,B,57.12021817787475,30.120860728000167,2.856010908893737,0.4731373739144331,B,439.8707002401352,Correct,sub_001_day_16_data.csv,1,300,136.0,Training at home,,,,,,,,,,,,,
1,15,3409,B,61.429949012426526,48.174496174254,3.0714974506213264,0.7567232163571298,B,3442.084399983287,Correct,sub_001_day_16_data.csv,1,300,136.0,Training at home,,,,,,,,,,,,,
1,15,3410,B,84.47507161092312,61.4117388637029,4.223753580546156,0.9646533382919192,B,722.6022998802364,Correct,sub_001_day_16_data.csv,1,300,136.0,Training at home,,,,,,,,,,,,,
1,15,3411,B,48.805562867167545,20.481944850187553,2.4402781433583773,0.3217296373629025,B,504.1287997737527,Correct,sub_001_day_16_data.csv,1,300,136.0,Training at home,,,,,,,,,,,,,
1,15,3412,B,65.49234294870283,57.18746176063541,3.274617147435141,0.8982985487232971,B,996.9120998866856,Correct,sub_001_day_16_data.csv,1,300,136.0,Training at home,,,,,,,,,,,,,
1,15,3413,A,12.180387713652324,30.193218476476112,0.6090193856826162,0.4742739667696448,A,558.9113002642989,Correct,sub_001_day_16_data.csv,1,300,136.0,Training at home,,,,,,,,,,,,,
1,15,3414,B,64.79939739615483,51.62865498016002,3.2399698698077417,0.810981016001964,B,598.2655002735555,Correct,sub_001_day_16_data.csv,1,300,136.0,Training at home,,,,,,,,,,,,,
1,15,3415,B,41.208392370974536,21.976939696400496,2.060419618548727,0.3452129614929884,A,644.3316000513732,Incorrect,sub_001_day_16_data.csv,0,300,136.0,Training at home,,,,,,,,,,,,,
1,15,3416,B,67.85753617342887,48.94064122205512,3.3928768086714434,0.7687577946259108,B,670.8960002288222,Correct,sub_001_day_16_data.csv,1,300,136.0,Training at home,,,,,,,,,,,,,
1,15,3417,A,51.150557932165725,79.74345926945166,2.557527896608286,1.2526073290637312,A,683.2020999863744,Correct,sub_001_day_16_data.csv,1,300,136.0,Training at home,,,,,,,,,,,,,
1,15,3418,A,48.817271013427785,79.42371975505507,2.440863550671389,1.2475848725162777,A,830.7532998733222,Correct,sub_001_day_16_data.csv,1,300,136.0,Training at home,,,,,,,,,,,,,
1,15,3419,B,57.25575026353743,44.27594101159504,2.862787513176871,0.69548485506401,B,490.5880996957422,Correct,sub_001_day_16_data.csv,1,300,136.0,Training at home,,,,,,,,,,,,,
1,15,3420,A,52.44888166510994,74.97104139795857,2.6224440832554965,1.1776423644390146,A,706.4092000946403,Correct,sub_001_day_16_data.csv,1,300,136.0,Training at home,,,,,,,,,,,,,
1,15,3421,A,43.16424365714473,72.76149676918547,2.1582121828572367,1.1429349185713529,A,625.2335999161005,Correct,sub_001_day_16_data.csv,1,300,136.0,Training at home,,,,,,,,,,,,,
1,15,3422,B,70.42322870235947,53.389329514200085,3.521161435117973,0.8386376269094785,B,503.0196998268366,Correct,sub_001_day_16_data.csv,1,300,136.0,Training at home,,,,,,,,,,,,,
1,15,3423,A,43.79273007664719,58.20887943485726,2.1896365038323595,0.9143429400312078,B,485.4798000305891,Incorrect,sub_001_day_16_data.csv,0,300,136.0,Training at home,,,,,,,,,,,,,
1,15,3424,B,62.95557666359641,35.027933817091636,3.1477788331798204,0.5502174977510228,B,565.7465998083353,Correct,sub_001_day_16_data.csv,1,300,136.0,Training at home,,,,,,,,,,,,,
1,15,3425,B,53.02416491367675,38.97013572485506,2.6512082456838373,0.6121414605130091,B,629.6662003733218,Correct,sub_001_day_16_data.csv,1,300,137.0,Training at home,,,,,,,,,,,,,
1,15,3426,A,20.53478107331192,39.395142542240606,1.026739053665596,0.6188174519891291,A,623.7547001801431,Correct,sub_001_day_16_data.csv,1,300,137.0,Training at home,,,,,,,,,,,,,
1,15,3427,A,24.55050366793644,48.79578757097533,1.227525183396822,0.7664824387955211,A,680.5573999881744,Correct,sub_001_day_16_data.csv,1,300,137.0,Training at home,,,,,,,,,,,,,
1,15,3428,A,23.00742331865887,44.10054859476193,1.1503711659329434,0.6927297974229188,A,552.7687002904713,Correct,sub_001_day_16_data.csv,1,300,137.0,Training at home,,,,,,,,,,,,,
1,15,3429,B,42.39622950274536,26.95416496723889,2.119811475137268,0.4233950332236253,A,537.2401000931859,Incorrect,sub_001_day_16_data.csv,0,300,137.0,Training at home,,,,,,,,,,,,,
1,15,3430,A,36.675242680525635,56.83114125943009,1.8337621340262815,0.8927014793787469,A,1130.1070000045002,Correct,sub_001_day_16_data.csv,1,300,137.0,Training at home,,,,,,,,,,,,,
1,15,3431,B,65.7504961855928,52.7490140763793,3.2875248092796396,0.8285795755322888,B,683.0452997237444,Correct,sub_001_day_16_data.csv,1,300,137.0,Training at home,,,,,,,,,,,,,
1,15,3432,B,74.37124843262629,52.55909300130651,3.7185624216313142,0.8255963022612363,B,474.64790008962154,Correct,sub_001_day_16_data.csv,1,300,137.0,Training at home,,,,,,,,,,,,,
1,15,3433,A,69.39993415182568,88.91857979459266,3.469996707591284,1.3967297852516507,A,665.2189996093512,Correct,sub_001_day_16_data.csv,1,300,137.0,Training at home,,,,,,,,,,,,,
1,15,3434,B,68.0851791796866,37.00897941945046,3.4042589589843306,0.5813356893050071,B,720.4769002273679,Correct,sub_001_day_16_data.csv,1,300,137.0,Training at home,,,,,,,,,,,,,
1,15,3435,A,53.840148655647745,61.6367133529621,2.6920074327823875,0.968187229305428,A,470.588400028646,Correct,sub_001_day_16_data.csv,1,300,137.0,Training at home,,,,,,,,,,,,,
1,15,3436,B,73.67605078764086,53.85456394257723,3.683802539382043,0.8459455122214119,B,636.0495002008975,Correct,sub_001_day_16_data.csv,1,300,137.0,Training at home,,,,,,,,,,,,,
1,15,3437,A,43.19262756051577,61.35420349011396,2.1596313780257885,0.9637495747569764,B,837.8440998494625,Incorrect,sub_001_day_16_data.csv,0,300,137.0,Training at home,,,,,,,,,,,,,
1,15,3438,A,56.61174940739477,85.42831018725651,2.8305874703697382,1.3419047584643755,A,721.6842998750508,Correct,sub_001_day_16_data.csv,1,300,137.0,Training at home,,,,,,,,,,,,,
1,15,3439,B,40.01776118497892,24.17011089932199,2.000888059248946,0.3796632141888028,B,864.2695001326501,Correct,sub_001_day_16_data.csv,1,300,137.0,Training at home,,,,,,,,,,,,,
1,15,3440,B,84.69689841292967,56.906876015122705,4.234844920646483,0.8938911181392734,A,682.8888999298215,Incorrect,sub_001_day_16_data.csv,0,300,137.0,Training at home,,,,,,,,,,,,,
1,15,3441,B,86.41778968159382,65.04139345843318,4.320889484079691,1.0216678193412845,B,1378.5947998985648,Correct,sub_001_day_16_data.csv,1,300,137.0,Training at home,,,,,,,,,,,,,
1,15,3442,B,58.3617578935573,47.09070785079404,2.918087894677865,0.7396991091819888,B,746.5424002148211,Correct,sub_001_day_16_data.csv,1,300,137.0,Training at home,,,,,,,,,,,,,
1,15,3443,A,58.383391259695586,73.00830868260937,2.9191695629847794,1.1468118310415076,A,636.7712002247572,Correct,sub_001_day_16_data.csv,1,300,137.0,Training at home,,,,,,,,,,,,,
1,15,3444,B,40.37874030830409,17.662834359129207,2.0189370154152044,0.2774471533210685,A,-12.69779959693551,Incorrect,sub_001_day_16_data.csv,0,300,137.0,Training at home,,,,,,,,,,,,,
1,15,3445,A,18.359538141682687,32.48834505084116,0.9179769070841344,0.5103257306950645,A,1464.4797001965344,Correct,sub_001_day_16_data.csv,1,300,137.0,Training at home,,,,,,,,,,,,,
1,15,3446,A,51.62448406747285,62.320090905757525,2.5812242033736426,0.9789216988028796,A,718.5665001161397,Correct,sub_001_day_16_data.csv,1,300,137.0,Training at home,,,,,,,,,,,,,
1,15,3447,B,53.29018648518451,44.08342628990819,2.664509324259226,0.6924608408872136,B,714.735799934715,Correct,sub_001_day_16_data.csv,1,300,137.0,Training at home,,,,,,,,,,,,,
1,15,3448,A,22.08755480255441,38.80163433160017,1.1043777401277206,0.609494646817163,A,434.651100076735,Correct,sub_001_day_16_data.csv,1,300,137.0,Training at home,,,,,,,,,,,,,
1,15,3449,B,40.454564579107725,20.241717625962604,2.0227282289553865,0.3179561569488157,B,709.5603002235293,Correct,sub_001_day_16_data.csv,1,300,137.0,Training at home,,,,,,,,,,,,,
1,15,3450,B,72.86966465389159,59.20836031542054,3.64348323269458,0.930042748990113,A,1544.2352001555264,Incorrect,sub_001_day_16_data.csv,0,300,138.0,Training at home,,,,,,,,,,,,,
1,15,3451,B,56.248845451322666,39.154511129940026,2.812442272566133,0.6150376226035968,B,318.04340006783605,Correct,sub_001_day_16_data.csv,1,300,138.0,Training at home,,,,,,,,,,,,,
1,15,3452,B,36.45841610223013,11.432981177081846,1.822920805111507,0.1795888483727535,B,1714.6275001578033,Correct,sub_001_day_16_data.csv,1,300,138.0,Training at home,,,,,,,,,,,,,
1,15,3453,A,23.05630946431523,42.84721360804781,1.1528154732157616,0.673042457489178,B,1058.6592997424304,Incorrect,sub_001_day_16_data.csv,0,300,138.0,Training at home,,,,,,,,,,,,,
1,15,3454,B,82.76788135093693,59.03522916784013,4.138394067546846,0.927323211283382,B,684.570400044322,Correct,sub_001_day_16_data.csv,1,300,138.0,Training at home,,,,,,,,,,,,,
1,15,3455,B,47.90780759009413,33.6464109040924,2.3953903795047067,0.5285165865798009,A,653.1830998137593,Incorrect,sub_001_day_16_data.csv,0,300,138.0,Training at home,,,,,,,,,,,,,
1,15,3456,A,23.88563219699221,37.56208969018758,1.1942816098496103,0.590023925120871,A,533.712400123477,Correct,sub_001_day_16_data.csv,1,300,138.0,Training at home,,,,,,,,,,,,,
1,15,3457,A,60.25524164429902,70.04535629851787,3.012762082214951,1.1002698838275164,B,651.4830002561212,Incorrect,sub_001_day_16_data.csv,0,300,138.0,Training at home,,,,,,,,,,,,,
1,15,3458,B,63.600044989852655,54.287105473159926,3.1800022494926328,0.8527398586956674,A,560.4087002575397,Incorrect,sub_001_day_16_data.csv,0,300,138.0,Training at home,,,,,,,,,,,,,
1,15,3459,B,48.68964798400947,20.746244720174495,2.4344823992004736,0.3258812500123811,B,702.7201000601053,Correct,sub_001_day_16_data.csv,1,300,138.0,Training at home,,,,,,,,,,,,,
1,15,3460,B,51.75839085420259,28.443563011200126,2.5879195427101296,0.4467904429895235,B,503.8737002760172,Correct,sub_001_day_16_data.csv,1,300,138.0,Training at home,,,,,,,,,,,,,
1,15,3461,B,75.08832631404013,56.15897281075668,3.7544163157020063,0.8821430820771107,B,623.5481002368033,Correct,sub_001_day_16_data.csv,1,300,138.0,Training at home,,,,,,,,,,,,,
1,15,3462,A,12.159114889374166,39.1125592005383,0.6079557444687083,0.614378643237535,A,613.5173998773098,Correct,sub_001_day_16_data.csv,1,300,138.0,Training at home,,,,,,,,,,,,,
1,15,3463,B,66.5912508639748,58.42475996473944,3.32956254319874,0.9177339834648623,B,510.0560998544097,Correct,sub_001_day_16_data.csv,1,300,138.0,Training at home,,,,,,,,,,,,,
1,15,3464,B,38.228926171134916,17.419546034732917,1.9114463085567457,0.2736255892579307,B,639.7346998564899,Correct,sub_001_day_16_data.csv,1,300,138.0,Training at home,,,,,,,,,,,,,
1,15,3465,A,27.699780649669144,56.11378730152017,1.3849890324834573,0.8814333097577798,A,585.7268003746867,Correct,sub_001_day_16_data.csv,1,300,138.0,Training at home,,,,,,,,,,,,,
1,15,3466,B,85.60836377612446,68.1903207205788,4.280418188806223,1.071131053108511,B,1816.36910000816,Correct,sub_001_day_16_data.csv,1,300,138.0,Training at home,,,,,,,,,,,,,
1,15,3467,A,28.700668752824058,52.97633706074402,1.435033437641203,0.8321503566206506,B,522.640900220722,Incorrect,sub_001_day_16_data.csv,0,300,138.0,Training at home,,,,,,,,,,,,,
1,15,3468,A,53.73986303796305,82.47258279831678,2.6869931518981525,1.29547630120884,A,503.2457998022437,Correct,sub_001_day_16_data.csv,1,300,138.0,Training at home,,,,,,,,,,,,,
1,15,3469,A,23.741072676448873,52.881020328031035,1.1870536338224438,0.830653124884374,A,658.0274999141693,Correct,sub_001_day_16_data.csv,1,300,138.0,Training at home,,,,,,,,,,,,,
1,15,3470,A,31.777430646902086,45.48665309219475,1.5888715323451044,0.7145026759541324,A,601.5314999967813,Correct,sub_001_day_16_data.csv,1,300,138.0,Training at home,,,,,,,,,,,,,
1,15,3471,A,41.87319259399903,72.33411738980318,2.0936596296999515,1.1362216589785368,B,507.1346000768244,Incorrect,sub_001_day_16_data.csv,0,300,138.0,Training at home,,,,,,,,,,,,,
1,15,3472,B,42.8595055876452,28.9200573583754,2.1429752793822603,0.4542751986923379,B,719.8796002194285,Correct,sub_001_day_16_data.csv,1,300,138.0,Training at home,,,,,,,,,,,,,
1,15,3473,B,33.43483632816681,17.85825008456558,1.6717418164083404,0.2805167363582026,A,796.7722998000681,Incorrect,sub_001_day_16_data.csv,0,300,138.0,Training at home,,,,,,,,,,,,,
1,15,3474,B,44.43906448406343,25.279881639171307,2.2219532242031717,0.3970954522062004,B,1669.284800067544,Correct,sub_001_day_16_data.csv,1,300,138.0,Training at home,,,,,,,,,,,,,
1,15,3475,B,67.94320842477691,41.700652104363655,3.3971604212388455,0.655032311504863,A,775.1169996336102,Incorrect,sub_001_day_16_data.csv,0,300,139.0,Training at home,,,,,,,,,,,,,
1,15,3476,B,68.64059450598798,51.2888052098454,3.4320297252993988,0.8056426682932409,A,566.0791997797787,Incorrect,sub_001_day_16_data.csv,0,300,139.0,Training at home,,,,,,,,,,,,,
1,15,3477,B,45.825115735231144,30.953172252374525,2.2912557867615573,0.4862112927667961,B,1121.0853001102803,Correct,sub_001_day_16_data.csv,1,300,139.0,Training at home,,,,,,,,,,,,,
1,15,3478,B,39.86680701747096,12.50651256694007,1.993340350873548,0.1964518400116367,B,1279.8268999904394,Correct,sub_001_day_16_data.csv,1,300,139.0,Training at home,,,,,,,,,,,,,
1,15,3479,B,59.54220215356884,41.77297553111686,2.977110107678442,0.6561683652357146,A,1430.6326997466383,Incorrect,sub_001_day_16_data.csv,0,300,139.0,Training at home,,,,,,,,,,,,,
1,15,3480,A,51.553573699541126,78.03115779408577,2.5776786849770565,1.225710560385029,A,594.6915000677109,Correct,sub_001_day_16_data.csv,1,300,139.0,Training at home,,,,,,,,,,,,,
1,15,3481,A,66.85733330251867,87.95860226178095,3.3428666651259333,1.381650493428188,A,2588.2656001485884,Correct,sub_001_day_16_data.csv,1,300,139.0,Training at home,,,,,,,,,,,,,
1,15,3482,A,36.572054697379016,52.92117871872596,1.8286027348689509,0.8312839314103098,B,1584.697199985385,Incorrect,sub_001_day_16_data.csv,0,300,139.0,Training at home,,,,,,,,,,,,,
1,15,3483,B,57.13127539024558,38.79126028405964,2.856563769512279,0.6093316916594564,B,763.6031000874937,Correct,sub_001_day_16_data.csv,1,300,139.0,Training at home,,,,,,,,,,,,,
1,15,3484,B,36.436488173435336,19.299785889895094,1.821824408671767,0.3031603278377519,A,1571.5375998988748,Incorrect,sub_001_day_16_data.csv,0,300,139.0,Training at home,,,,,,,,,,,,,
1,15,3485,A,28.90431345216217,59.23732925831961,1.4452156726081085,0.930497792081083,A,536.5006001666188,Correct,sub_001_day_16_data.csv,1,300,139.0,Training at home,,,,,,,,,,,,,
1,15,3486,A,23.82286122132669,55.63066655226952,1.1911430610663345,0.8738444667745666,A,529.783200006932,Correct,sub_001_day_16_data.csv,1,300,139.0,Training at home,,,,,,,,,,,,,
1,15,3487,B,67.63280441123756,45.721341401826415,3.3816402205618776,0.7181891513012434,A,1430.340699851513,Incorrect,sub_001_day_16_data.csv,0,300,139.0,Training at home,,,,,,,,,,,,,
1,15,3488,B,52.7179408375995,35.390273447125374,2.635897041879975,0.555909115350115,A,1367.8493001498282,Incorrect,sub_001_day_16_data.csv,0,300,139.0,Training at home,,,,,,,,,,,,,
1,15,3489,A,32.87855676831103,45.43765578570493,1.6439278384155511,0.7137330280635619,B,1825.807599816471,Incorrect,sub_001_day_16_data.csv,0,300,139.0,Training at home,,,,,,,,,,,,,
1,15,3490,A,57.20890402626718,82.20649206909364,2.860445201313359,1.2912965578082611,A,609.4872998073697,Correct,sub_001_day_16_data.csv,1,300,139.0,Training at home,,,,,,,,,,,,,
1,15,3491,B,59.69655378175958,28.02445739272699,2.9848276890879792,0.4402071473291564,A,1878.0102003365755,Incorrect,sub_001_day_16_data.csv,0,300,139.0,Training at home,,,,,,,,,,,,,
1,15,3492,A,58.98348745008926,72.84632280395421,2.9491743725044626,1.144267362809666,A,1237.1694999746978,Correct,sub_001_day_16_data.csv,1,300,139.0,Training at home,,,,,,,,,,,,,
1,15,3493,A,45.507783116763065,65.66284625279414,2.275389155838153,1.031429577007871,A,606.1916998587549,Correct,sub_001_day_16_data.csv,1,300,139.0,Training at home,,,,,,,,,,,,,
1,15,3494,B,56.90323273230672,42.53567353609144,2.845161636615336,0.6681487974823932,A,1435.4532002471387,Incorrect,sub_001_day_16_data.csv,0,300,139.0,Training at home,,,,,,,,,,,,,
1,15,3495,A,27.483827471188494,53.84293776866553,1.374191373559425,0.8457628887086601,A,576.8943000584841,Correct,sub_001_day_16_data.csv,1,300,139.0,Training at home,,,,,,,,,,,,,
1,15,3496,B,64.74672319050053,38.68165450591469,3.2373361595250265,0.6076100081224005,B,3212.054300121963,Correct,sub_001_day_16_data.csv,1,300,139.0,Training at home,,,,,,,,,,,,,
1,15,3497,B,46.22567234394346,21.47648613328004,2.311283617197173,0.3373518553061782,B,695.3875999897718,Correct,sub_001_day_16_data.csv,1,300,139.0,Training at home,,,,,,,,,,,,,
1,15,3498,B,64.13279926122459,42.1562170589414,3.2066399630612294,0.662188309077535,B,1063.8296999968588,Correct,sub_001_day_16_data.csv,1,300,139.0,Training at home,,,,,,,,,,,,,
1,15,3499,A,18.38732021365438,49.362453990496824,0.919366010682719,0.7753836140985448,A,606.3220002688468,Correct,sub_001_day_16_data.csv,1,300,139.0,Training at home,,,,,,,,,,,,,
1,15,3500,B,49.24208178290871,32.71727415459622,2.4621040891454355,0.5139217406478135,A,890.4339000582695,Incorrect,sub_001_day_16_data.csv,0,300,140.0,Training at home,,,,,,,,,,,,,
1,15,3501,A,53.02343850448623,68.67669705198347,2.6511719252243116,1.0787710346566153,A,740.9505997784436,Correct,sub_001_day_16_data.csv,1,300,140.0,Training at home,,,,,,,,,,,,,
1,15,3502,A,22.19787188009664,52.792762236865336,1.109893594004832,0.8292667700302438,A,424.9420999549329,Correct,sub_001_day_16_data.csv,1,300,140.0,Training at home,,,,,,,,,,,,,
1,15,3503,B,66.04062638259903,47.66069811658966,3.3020313191299517,0.7486524953401947,A,625.6622998043895,Incorrect,sub_001_day_16_data.csv,0,300,140.0,Training at home,,,,,,,,,,,,,
1,15,3504,B,38.06486033928325,15.568633476976991,1.9032430169641623,0.2445515227885151,B,379.1680997237563,Correct,sub_001_day_16_data.csv,1,300,140.0,Training at home,,,,,,,,,,,,,
1,15,3505,B,86.1321481331572,62.54290285533331,4.30660740665786,0.9824216207224762,A,756.5514999441803,Incorrect,sub_001_day_16_data.csv,0,300,140.0,Training at home,,,,,,,,,,,,,
1,15,3506,A,29.281310531489375,49.830854362686686,1.4640655265744686,0.782741229939597,B,343.7483003363013,Incorrect,sub_001_day_16_data.csv,0,300,140.0,Training at home,,,,,,,,,,,,,
1,15,3507,A,51.981104055384435,73.80701383553125,2.5990552027692218,1.159357862245526,A,689.3453001976013,Correct,sub_001_day_16_data.csv,1,300,140.0,Training at home,,,,,,,,,,,,,
1,15,3508,B,55.63838602007986,43.87666421347232,2.781919301003993,0.6892130297853541,B,1264.161900151521,Correct,sub_001_day_16_data.csv,1,300,140.0,Training at home,,,,,,,,,,,,,
1,15,3509,B,67.10958849402367,44.27604236441648,3.355479424701183,0.6954864471104063,B,1083.9555002748966,Correct,sub_001_day_16_data.csv,1,300,140.0,Training at home,,,,,,,,,,,,,
1,15,3510,A,32.354889720357065,64.28020246784686,1.6177444860178531,1.009711059221261,A,679.2084001936018,Correct,sub_001_day_16_data.csv,1,300,140.0,Training at home,,,,,,,,,,,,,
1,15,3511,B,35.036074545824334,12.212908704791452,1.7518037272912168,0.1918399213296783,B,370.4146002419293,Correct,sub_001_day_16_data.csv,1,300,140.0,Training at home,,,,,,,,,,,,,
1,15,3512,B,50.67749649493495,40.340130216072126,2.5338748247467477,0.6336612836583392,A,371.9799001701176,Incorrect,sub_001_day_16_data.csv,0,300,140.0,Training at home,,,,,,,,,,,,,
1,15,3513,A,32.568361151142746,51.4842626432247,1.6284180575571372,0.8087129064772107,B,358.11130004003644,Incorrect,sub_001_day_16_data.csv,0,300,140.0,Training at home,,,,,,,,,,,,,
1,15,3514,B,30.334468791375137,13.191567145329545,1.516723439568757,0.2072126521655188,A,416.856300085783,Incorrect,sub_001_day_16_data.csv,0,300,140.0,Training at home,,,,,,,,,,,,,
1,15,3515,A,19.49573361288809,49.09373318973226,0.9747866806444044,0.7711625576308013,A,1430.6075000204146,Correct,sub_001_day_16_data.csv,1,300,140.0,Training at home,,,,,,,,,,,,,
1,15,3516,A,24.354911730921355,44.34364412538166,1.2177455865460678,0.696548333088496,A,544.960799627006,Correct,sub_001_day_16_data.csv,1,300,140.0,Training at home,,,,,,,,,,,,,
1,15,3517,B,38.60115561192275,18.695124510554074,1.930057780596138,0.2936623291015158,A,529.2687001638114,Incorrect,sub_001_day_16_data.csv,0,300,140.0,Training at home,,,,,,,,,,,,,
1,15,3518,A,31.080408748866137,48.65596246227559,1.5540204374433069,0.7642860711241288,A,629.7348001971841,Correct,sub_001_day_16_data.csv,1,300,140.0,Training at home,,,,,,,,,,,,,
1,15,3519,B,63.29906227315581,49.67407343006155,3.1649531136577904,0.7802785208088064,B,563.6212998069823,Correct,sub_001_day_16_data.csv,1,300,140.0,Training at home,,,,,,,,,,,,,
1,15,3520,B,38.155350952446526,24.507636191554475,1.9077675476223264,0.3849650490811944,A,799.6380999684334,Incorrect,sub_001_day_16_data.csv,0,300,140.0,Training at home,,,,,,,,,,,,,
1,15,3521,B,77.30849242522444,59.72652376863413,3.8654246212612224,0.9381820414799856,A,682.6520999893546,Incorrect,sub_001_day_16_data.csv,0,300,140.0,Training at home,,,,,,,,,,,,,
1,15,3522,A,51.27585884142549,63.36839167172672,2.563792942071274,0.9953883687284866,A,1378.154099918902,Correct,sub_001_day_16_data.csv,1,300,140.0,Training at home,,,,,,,,,,,,,
1,15,3523,A,64.57912080944976,74.77953062409642,3.228956040472488,1.1746341202377717,A,3434.00020012632,Correct,sub_001_day_16_data.csv,1,300,140.0,Training at home,,,,,,,,,,,,,
1,15,3524,A,20.046389658970465,49.20087312326065,1.0023194829485234,0.7728455077711958,A,808.1453000195324,Correct,sub_001_day_16_data.csv,1,300,140.0,Training at home,,,,,,,,,,,,,
1,15,3525,B,39.37196284801432,19.316122850806988,1.968598142400716,0.3034169482196658,A,1312.663400080055,Incorrect,sub_001_day_16_data.csv,0,300,141.0,Training at home,,,,,,,,,,,,,
1,15,3526,A,66.38423385718988,77.8864914666382,3.3192116928594944,1.2234381470273734,B,393.2647001929581,Incorrect,sub_001_day_16_data.csv,0,300,141.0,Training at home,,,,,,,,,,,,,
1,15,3527,B,33.375976393889374,19.8341098851436,1.6687988196944687,0.3115534695282991,B,505.8263000100851,Correct,sub_001_day_16_data.csv,1,300,141.0,Training at home,,,,,,,,,,,,,
1,15,3528,B,51.610740078043136,39.91731079216703,2.580537003902157,0.6270196516786625,B,524.0860003978014,Correct,sub_001_day_16_data.csv,1,300,141.0,Training at home,,,,,,,,,,,,,
1,15,3529,A,31.72450317674276,62.87445432648903,1.586225158837138,0.9876296190528246,B,1514.4535000436008,Incorrect,sub_001_day_16_data.csv,0,300,141.0,Training at home,,,,,,,,,,,,,
1,15,3530,B,83.70922215907353,60.98092752236662,4.185461107953676,0.957886169566793,B,877.0197001285851,Correct,sub_001_day_16_data.csv,1,300,141.0,Training at home,,,,,,,,,,,,,
1,15,3531,A,34.70046411222887,64.43394736016992,1.7350232056114436,1.0121260783425063,A,1685.724699869752,Correct,sub_001_day_16_data.csv,1,300,141.0,Training at home,,,,,,,,,,,,,
1,15,3532,A,63.955686221363806,76.13402619989134,3.1977843110681903,1.1959104869889574,A,568.0509000085294,Correct,sub_001_day_16_data.csv,1,300,141.0,Training at home,,,,,,,,,,,,,
1,15,3533,B,48.83797981994784,20.98913468345171,2.441898990997392,0.3296965566336931,B,768.3236999437213,Correct,sub_001_day_16_data.csv,1,300,141.0,Training at home,,,,,,,,,,,,,
1,15,3534,A,19.2498271795867,38.69951946702214,0.962491358979335,0.6078906302752597,B,463.7327999807894,Incorrect,sub_001_day_16_data.csv,0,300,141.0,Training at home,,,,,,,,,,,,,
1,15,3535,B,85.93422403667788,64.53884877115975,4.296711201833894,1.0137738658530906,A,229.34520011767745,Incorrect,sub_001_day_16_data.csv,0,300,141.0,Training at home,,,,,,,,,,,,,
1,15,3536,B,43.77743461691588,35.548467125787845,2.1888717308457943,0.5583940158437668,B,1169.826400000602,Correct,sub_001_day_16_data.csv,1,300,141.0,Training at home,,,,,,,,,,,,,
1,15,3537,B,32.16823374595778,10.716359169958093,1.6084116872978889,0.1683321762078498,B,915.8993996679784,Correct,sub_001_day_16_data.csv,1,300,141.0,Training at home,,,,,,,,,,,,,
1,15,3538,A,58.387196677055215,75.19985518610466,2.9193598338527607,1.1812365630184134,B,1535.528799984604,Incorrect,sub_001_day_16_data.csv,0,300,141.0,Training at home,,,,,,,,,,,,,
1,15,3539,A,57.45495408051223,80.67785587332529,2.8727477040256115,1.2672847965950744,A,1067.0428001321852,Correct,sub_001_day_16_data.csv,1,300,141.0,Training at home,,,,,,,,,,,,,
1,15,3540,B,64.84299374977225,35.456881828558494,3.242149687488612,0.556955397359004,A,617.7938999608159,Incorrect,sub_001_day_16_data.csv,0,300,141.0,Training at home,,,,,,,,,,,,,
1,15,3541,A,34.83465104339431,54.08496353707197,1.7417325521697151,0.8495646205886855,A,633.6223999969661,Correct,sub_001_day_16_data.csv,1,300,141.0,Training at home,,,,,,,,,,,,,
1,15,3542,B,38.678277015316255,22.73227013313322,1.933913850765813,0.3570776642483499,A,1381.2438999302683,Incorrect,sub_001_day_16_data.csv,0,300,141.0,Training at home,,,,,,,,,,,,,
1,15,3543,A,44.81105620296508,55.80443700386118,2.2405528101482535,0.8765740466452233,A,751.8442999571562,Correct,sub_001_day_16_data.csv,1,300,141.0,Training at home,,,,,,,,,,,,,
1,15,3544,B,39.62700473488316,14.467266348241791,1.9813502367441576,0.2272512883858162,B,829.5824998058379,Correct,sub_001_day_16_data.csv,1,300,141.0,Training at home,,,,,,,,,,,,,
1,15,3545,B,56.99231153406118,44.074661613181895,2.849615576703059,0.6923231656671415,B,638.9593002386391,Correct,sub_001_day_16_data.csv,1,300,141.0,Training at home,,,,,,,,,,,,,
1,15,3546,B,48.360609465068386,32.98134686813485,2.4180304732534195,0.518069785132146,B,446.2164998985827,Correct,sub_001_day_16_data.csv,1,300,141.0,Training at home,,,,,,,,,,,,,
1,15,3547,B,46.84213225389112,20.11789314354189,2.342106612694556,0.3160111265272783,A,566.2716999650002,Incorrect,sub_001_day_16_data.csv,0,300,141.0,Training at home,,,,,,,,,,,,,
1,15,3548,A,28.75172410580444,49.37417064313281,1.4375862052902222,0.7755676588477743,A,953.0821000225842,Correct,sub_001_day_16_data.csv,1,300,141.0,Training at home,,,,,,,,,,,,,
1,15,3549,B,48.99929181446824,36.0498542082586,2.4499645907234116,0.5662697857182415,A,719.3742999807,Incorrect,sub_001_day_16_data.csv,0,300,141.0,Training at home,,,,,,,,,,,,,
1,15,3550,A,36.44161840438819,68.89558837722032,1.8220809202194093,1.0822093715531085,B,285.86099995300174,Incorrect,sub_001_day_16_data.csv,0,300,142.0,Training at home,,,,,,,,,,,,,
1,15,3551,B,55.446191727274666,32.64932869047874,2.772309586363733,0.5128544557932324,B,606.6867997869849,Correct,sub_001_day_16_data.csv,1,300,142.0,Training at home,,,,,,,,,,,,,
1,15,3552,A,48.80910907955547,65.28167886312667,2.4404554539777736,1.0254422136520345,A,1095.464900135994,Correct,sub_001_day_16_data.csv,1,300,142.0,Training at home,,,,,,,,,,,,,
1,15,3553,B,64.96029692257596,40.244885017846954,3.248014846128798,0.6321651755831696,A,891.5816000662744,Incorrect,sub_001_day_16_data.csv,0,300,142.0,Training at home,,,,,,,,,,,,,
1,15,3554,B,67.23342366710274,36.39215767481264,3.3616711833551367,0.5716466759973641,B,787.3395998030901,Correct,sub_001_day_16_data.csv,1,300,142.0,Training at home,,,,,,,,,,,,,
1,15,3555,B,38.06127654346685,25.61300667049076,1.9030638271733429,0.4023281679618007,A,579.51599964872,Incorrect,sub_001_day_16_data.csv,0,300,142.0,Training at home,,,,,,,,,,,,,
1,15,3556,B,74.44737790440038,51.16390747538586,3.722368895220019,0.8036807792681008,A,709.4584000296891,Incorrect,sub_001_day_16_data.csv,0,300,142.0,Training at home,,,,,,,,,,,,,
1,15,3557,A,65.75981771293114,89.56216960893124,3.2879908856465567,1.406839270414907,A,669.058000203222,Correct,sub_001_day_16_data.csv,1,300,142.0,Training at home,,,,,,,,,,,,,
1,15,3558,A,54.491071296459744,80.51441686407169,2.7245535648229873,1.2647175026411688,A,629.9186004325747,Correct,sub_001_day_16_data.csv,1,300,142.0,Training at home,,,,,,,,,,,,,
1,15,3559,A,39.085685852469645,58.209682842926824,1.9542842926234825,0.9143555599356534,B,646.7949999496341,Incorrect,sub_001_day_16_data.csv,0,300,142.0,Training at home,,,,,,,,,,,,,
1,15,3560,B,50.72315928647386,22.96314505299552,2.5361579643236927,0.3607042390090376,B,711.8271999061108,Correct,sub_001_day_16_data.csv,1,300,142.0,Training at home,,,,,,,,,,,,,
1,15,3561,A,21.79702579026437,37.740768063007984,1.0898512895132186,0.5928305984379109,B,367.830699775368,Incorrect,sub_001_day_16_data.csv,0,300,142.0,Training at home,,,,,,,,,,,,,
1,15,3562,B,59.323865752356866,35.42301021846823,2.9661932876178434,0.5564233433518798,B,649.9112001620233,Correct,sub_001_day_16_data.csv,1,300,142.0,Training at home,,,,,,,,,,,,,
1,15,3563,A,67.4487530082759,88.6432050723331,3.372437650413795,1.392404209229476,A,653.1577999703586,Correct,sub_001_day_16_data.csv,1,300,142.0,Training at home,,,,,,,,,,,,,
1,15,3564,A,56.8192810073771,75.185053786164,2.840964050368855,1.1810040631718317,A,969.8352999985218,Correct,sub_001_day_16_data.csv,1,300,142.0,Training at home,,,,,,,,,,,,,
1,15,3565,A,21.716336698268528,40.83368203410551,1.0858168349134265,0.6414139774868369,A,803.5869998857379,Correct,sub_001_day_16_data.csv,1,300,142.0,Training at home,,,,,,,,,,,,,
1,15,3566,A,17.68682527520022,34.87488910562994,0.884341263760011,0.5478134770450287,B,808.243699837476,Incorrect,sub_001_day_16_data.csv,0,300,142.0,Training at home,,,,,,,,,,,,,
1,15,3567,A,41.74157941865271,63.33596547938793,2.0870789709326356,0.9948790192903092,A,609.1801999136806,Correct,sub_001_day_16_data.csv,1,300,142.0,Training at home,,,,,,,,,,,,,
1,15,3568,A,22.82480975794217,39.810887279878855,1.1412404878971083,0.6253479550567939,A,601.6548997722566,Correct,sub_001_day_16_data.csv,1,300,142.0,Training at home,,,,,,,,,,,,,
1,15,3569,A,63.13790832361002,87.47025402062168,3.156895416180501,1.3739795371940908,A,670.4126996919513,Correct,sub_001_day_16_data.csv,1,300,142.0,Training at home,,,,,,,,,,,,,
1,15,3570,B,51.017626515245446,38.46044209402287,2.550881325762272,0.6041352116819895,A,546.3511999696493,Incorrect,sub_001_day_16_data.csv,0,300,142.0,Training at home,,,,,,,,,,,,,
1,15,3571,A,19.422954227964887,40.06725501725312,0.9711477113982444,0.6293749700585558,A,534.3876001425087,Correct,sub_001_day_16_data.csv,1,300,142.0,Training at home,,,,,,,,,,,,,
1,15,3572,A,32.768139577067934,62.733735071806976,1.6384069788533966,0.985419206169186,A,666.2643002346158,Correct,sub_001_day_16_data.csv,1,300,142.0,Training at home,,,,,,,,,,,,,
1,15,3573,A,22.11530399247169,44.14064313144473,1.1057651996235849,0.6933596009323777,A,901.202299632132,Correct,sub_001_day_16_data.csv,1,300,142.0,Training at home,,,,,,,,,,,,,
1,15,3574,B,44.29406687683579,23.748565859327552,2.21470334384179,0.373041600184784,B,552.87029966712,Correct,sub_001_day_16_data.csv,1,300,142.0,Training at home,,,,,,,,,,,,,
1,15,3575,A,28.7508846387676,55.70191642264507,1.4375442319383802,0.874963657121272,A,508.7561998516321,Correct,sub_001_day_16_data.csv,1,300,143.0,Training at home,,,,,,,,,,,,,
1,15,3576,A,61.33498870051152,88.22227336616207,3.066749435025576,1.385792229450626,A,593.2918996550143,Correct,sub_001_day_16_data.csv,1,300,143.0,Training at home,,,,,,,,,,,,,
1,15,3577,B,39.71386089855683,13.052073678920532,1.9856930449278416,0.2050214939190472,A,669.1310997121036,Incorrect,sub_001_day_16_data.csv,0,300,143.0,Training at home,,,,,,,,,,,,,
1,15,3578,A,32.53410048542209,44.08119570670601,1.6267050242711043,0.6924258029682077,B,1258.1943003460765,Incorrect,sub_001_day_16_data.csv,0,300,143.0,Training at home,,,,,,,,,,,,,
1,15,3579,A,35.78964097825316,63.82530176715246,1.789482048912658,1.0025654957241892,B,584.3206001445651,Incorrect,sub_001_day_16_data.csv,0,300,143.0,Training at home,,,,,,,,,,,,,
1,15,3580,A,37.327495954724974,52.13244384195148,1.8663747977362488,0.8188945129377859,A,7698.297200258821,Correct,sub_001_day_16_data.csv,1,300,143.0,Training at home,,,,,,,,,,,,,
1,15,3581,B,63.931261118215865,34.76776718419307,3.196563055910793,0.5461308098379062,B,1546.009500045329,Correct,sub_001_day_16_data.csv,1,300,143.0,Training at home,,,,,,,,,,,,,
1,15,3582,A,58.88553639280519,74.7004949551882,2.9442768196402596,1.1733926308537033,A,1129.9644000828266,Correct,sub_001_day_16_data.csv,1,300,143.0,Training at home,,,,,,,,,,,,,
1,15,3583,B,84.89914946723252,67.02265408118146,4.244957473361626,1.052789388427648,A,528.3421999774873,Incorrect,sub_001_day_16_data.csv,0,300,143.0,Training at home,,,,,,,,,,,,,
1,15,3584,A,58.83191580327789,72.09454652666187,2.9415957901638943,1.1324584886602425,A,377.8170002624393,Correct,sub_001_day_16_data.csv,1,300,143.0,Training at home,,,,,,,,,,,,,
1,15,3585,A,24.655728871480907,48.15877530447672,1.2327864435740452,0.7564762735121282,B,1202.2975999861956,Incorrect,sub_001_day_16_data.csv,0,300,143.0,Training at home,,,,,,,,,,,,,
1,15,3586,A,42.37275382958995,68.97521841799298,2.1186376914794978,1.0834601973085904,A,1081.531200092286,Correct,sub_001_day_16_data.csv,1,300,143.0,Training at home,,,,,,,,,,,,,
1,15,3587,A,46.3243450157357,66.63289713602825,2.316217250786785,1.0466671006497537,A,5813.3668997325,Correct,sub_001_day_16_data.csv,1,300,143.0,Training at home,,,,,,,,,,,,,
1,15,3588,B,58.514664778061594,46.83598703359354,2.9257332389030797,0.7356979639418213,A,843.0206002667546,Incorrect,sub_001_day_16_data.csv,0,300,143.0,Training at home,,,,,,,,,,,,,
1,15,3589,B,68.44713110159012,44.01209429256955,3.4223565550795056,0.6913403604931887,B,590.5642001889646,Correct,sub_001_day_16_data.csv,1,300,143.0,Training at home,,,,,,,,,,,,,
1,15,3590,B,48.237820034011534,23.444212459411837,2.4118910017005764,0.3682608281584326,B,477.373500354588,Correct,sub_001_day_16_data.csv,1,300,143.0,Training at home,,,,,,,,,,,,,
1,15,3591,A,41.03118125889523,56.61244931758594,2.0515590629447615,0.8892662743892625,B,467.9268002510071,Incorrect,sub_001_day_16_data.csv,0,300,143.0,Training at home,,,,,,,,,,,,,
1,15,3592,B,31.813125897116713,18.51224952295353,1.5906562948558358,0.2907897355136598,B,727.3896997794509,Correct,sub_001_day_16_data.csv,1,300,143.0,Training at home,,,,,,,,,,,,,
1,15,3593,A,51.54437298003713,76.51081126183091,2.5772186490018565,1.201829012901816,A,557.7218998223543,Correct,sub_001_day_16_data.csv,1,300,143.0,Training at home,,,,,,,,,,,,,
1,15,3594,B,63.456590519879974,48.05320577659186,3.1728295259939987,0.7548179912458979,A,544.567700009793,Incorrect,sub_001_day_16_data.csv,0,300,143.0,Training at home,,,,,,,,,,,,,
1,15,3595,B,80.05527189700197,66.33391396477867,4.002763594850098,1.0419706839780305,B,736.1107999458909,Correct,sub_001_day_16_data.csv,1,300,143.0,Training at home,,,,,,,,,,,,,
1,15,3596,A,43.91579187935362,73.19242888702291,2.195789593967681,1.1497039844493226,A,820.5351997166872,Correct,sub_001_day_16_data.csv,1,300,143.0,Training at home,,,,,,,,,,,,,
1,15,3597,A,54.95209077563021,62.6532688379306,2.74760453878151,0.9841552455231454,A,760.5555998161435,Correct,sub_001_day_16_data.csv,1,300,143.0,Training at home,,,,,,,,,,,,,
1,15,3598,B,64.05910832607944,50.87946081249392,3.2029554163039724,0.7992127015357033,A,1685.5895998887718,Incorrect,sub_001_day_16_data.csv,0,300,143.0,Training at home,,,,,,,,,,,,,
1,15,3599,A,59.30472307993195,83.88380510498185,2.9652361539965972,1.3176437293648449,A,598.7382000312209,Correct,sub_001_day_16_data.csv,1,300,143.0,Training at home,,,,,,,,,,,,,
