subject,day,trial,cat,x,y,xt,yt,resp,rt,fb,f_name,acc,n_trials,block,session_type,ns_left_digit,ns_right_digit,ns_left_size,ns_right_size,ns_congruent,ns_cue,ns_correct_side,ns_resp,ns_rt,ns_fb,acc_stroop,acc_stroop_mean,resp_key
1,13,2700,A,50.22095248396283,66.37926882604336,2.5110476241981416,1.042683116472799,A,565.6522000208497,Correct,sub_001_day_13_data.csv,1,300,108.0,Training at home,,,,,,,,,,,,,
1,13,2701,B,57.94254600202861,50.70603773025178,2.8971273001014306,0.7964885781300293,B,227.9266999103129,Correct,sub_001_day_13_data.csv,1,300,108.0,Training at home,,,,,,,,,,,,,
1,13,2702,A,24.322547612082808,37.73545386561456,1.2161273806041404,0.5927471232204563,A,594.2645999602973,Correct,sub_001_day_13_data.csv,1,300,108.0,Training at home,,,,,,,,,,,,,
1,13,2703,B,69.16620373551575,37.59470046752016,3.4583101867757877,0.5905361740133506,B,718.7278000637889,Correct,sub_001_day_13_data.csv,1,300,108.0,Training at home,,,,,,,,,,,,,
1,13,2704,A,51.33758847010948,61.74435390725084,2.5668794235054744,0.9698780431783376,A,1277.502099983394,Correct,sub_001_day_13_data.csv,1,300,108.0,Training at home,,,,,,,,,,,,,
1,13,2705,A,38.03357191611043,68.80187306258009,1.9016785958055216,1.080737294833095,A,573.3888996765018,Correct,sub_001_day_13_data.csv,1,300,108.0,Training at home,,,,,,,,,,,,,
1,13,2706,A,46.82701835400792,73.38528887790517,2.341350917700396,1.152733422101958,A,616.4373997598886,Correct,sub_001_day_13_data.csv,1,300,108.0,Training at home,,,,,,,,,,,,,
1,13,2707,A,33.787040009310495,60.838842396836746,1.6893520004655247,0.9556543016340476,A,483.744699973613,Correct,sub_001_day_13_data.csv,1,300,108.0,Training at home,,,,,,,,,,,,,
1,13,2708,A,25.19337789522605,55.92467997967901,1.2596688947613024,0.8784628188925989,A,1170.6261998042464,Correct,sub_001_day_13_data.csv,1,300,108.0,Training at home,,,,,,,,,,,,,
1,13,2709,A,45.136620161179664,58.69844562620765,2.2568310080589833,0.9220330277821694,A,1010.337000247091,Correct,sub_001_day_13_data.csv,1,300,108.0,Training at home,,,,,,,,,,,,,
1,13,2710,B,60.92410655740367,31.26049319324455,3.0462053278701835,0.491038678817454,B,440.68509992212057,Correct,sub_001_day_13_data.csv,1,300,108.0,Training at home,,,,,,,,,,,,,
1,13,2711,A,37.9530151282693,70.32866973401819,1.897650756413465,1.1047201608656718,A,1235.2244998328388,Correct,sub_001_day_13_data.csv,1,300,108.0,Training at home,,,,,,,,,,,,,
1,13,2712,B,47.47552035534094,21.207784365969957,2.373776017767047,0.3331310978152384,B,660.6967002153397,Correct,sub_001_day_13_data.csv,1,300,108.0,Training at home,,,,,,,,,,,,,
1,13,2713,B,82.61461773891045,62.35809169718556,4.130730886945523,0.979518613838784,B,66764.12100018933,Correct,sub_001_day_13_data.csv,1,300,108.0,Training at home,,,,,,,,,,,,,
1,13,2714,B,70.25462589130711,59.32575837174487,3.5127312945653557,0.9318868333465842,B,4907.769700046629,Correct,sub_001_day_13_data.csv,1,300,108.0,Training at home,,,,,,,,,,,,,
1,13,2715,A,60.63206336809469,82.35375130491234,3.031603168404734,1.2936097004753673,A,819.8241000063717,Correct,sub_001_day_13_data.csv,1,300,108.0,Training at home,,,,,,,,,,,,,
1,13,2716,B,52.230899634561965,36.6866450897213,2.6115449817280982,0.5762724734936225,B,1058.3524000830948,Correct,sub_001_day_13_data.csv,1,300,108.0,Training at home,,,,,,,,,,,,,
1,13,2717,A,22.210605653707375,45.60321069229836,1.110530282685369,0.7163335584551602,A,515.4321999289095,Correct,sub_001_day_13_data.csv,1,300,108.0,Training at home,,,,,,,,,,,,,
1,13,2718,B,89.04594895386734,68.26508647695277,4.4522974476933665,1.072305470863334,B,770.0521000660956,Correct,sub_001_day_13_data.csv,1,300,108.0,Training at home,,,,,,,,,,,,,
1,13,2719,A,35.64661225176149,62.33715384930791,1.7823306125880745,0.979189722893412,A,1020.1734001748264,Correct,sub_001_day_13_data.csv,1,300,108.0,Training at home,,,,,,,,,,,,,
1,13,2720,A,56.01049630545273,65.00870829656867,2.8005248152726367,1.02115440201931,B,912.1591998264194,Incorrect,sub_001_day_13_data.csv,0,300,108.0,Training at home,,,,,,,,,,,,,
1,13,2721,B,52.21007367554287,29.179987544577525,2.6105036837771434,0.4583581725094321,A,1156.787300016731,Incorrect,sub_001_day_13_data.csv,0,300,108.0,Training at home,,,,,,,,,,,,,
1,13,2722,A,28.06283960059052,49.86226029553227,1.403141980029526,0.783234553179131,A,1214.0219998545945,Correct,sub_001_day_13_data.csv,1,300,108.0,Training at home,,,,,,,,,,,,,
1,13,2723,A,60.4770523813539,72.08330343465369,3.023852619067695,1.1322818825839596,A,2607.741800136864,Correct,sub_001_day_13_data.csv,1,300,108.0,Training at home,,,,,,,,,,,,,
1,13,2724,B,37.562789496193645,14.531091533951916,1.8781394748096825,0.2282538520585208,B,1781.3414996489882,Correct,sub_001_day_13_data.csv,1,300,108.0,Training at home,,,,,,,,,,,,,
1,13,2725,A,41.146824272588105,61.09718349469635,2.057341213629406,0.9597123141098282,A,600.7317998446524,Correct,sub_001_day_13_data.csv,1,300,109.0,Training at home,,,,,,,,,,,,,
1,13,2726,A,33.01732152970548,66.2866087495709,1.6508660764852738,1.0412276153951645,A,1296.1176997050643,Correct,sub_001_day_13_data.csv,1,300,109.0,Training at home,,,,,,,,,,,,,
1,13,2727,A,49.171011695674146,64.5488131593513,2.458550584783707,1.013930386096791,A,1891.4948999881744,Correct,sub_001_day_13_data.csv,1,300,109.0,Training at home,,,,,,,,,,,,,
1,13,2728,A,63.15916496576715,82.52551034530784,3.1579582482883577,1.296307685172838,B,1069.482000079006,Incorrect,sub_001_day_13_data.csv,0,300,109.0,Training at home,,,,,,,,,,,,,
1,13,2729,A,38.47913513947955,69.38259198321462,1.9239567569739775,1.0898592063074255,A,908.6800999939442,Correct,sub_001_day_13_data.csv,1,300,109.0,Training at home,,,,,,,,,,,,,
1,13,2730,B,59.82152167960838,49.40972287392148,2.991076083980419,0.7761261119830963,B,760.5322999879718,Correct,sub_001_day_13_data.csv,1,300,109.0,Training at home,,,,,,,,,,,,,
1,13,2731,B,73.09010856257687,60.71611340973428,3.6545054281288434,0.9537264792127296,B,1331.4877999946475,Correct,sub_001_day_13_data.csv,1,300,109.0,Training at home,,,,,,,,,,,,,
1,13,2732,B,78.03297623420707,59.70819549263344,3.9016488117103534,0.937894141593802,A,1183.6176998913288,Incorrect,sub_001_day_13_data.csv,0,300,109.0,Training at home,,,,,,,,,,,,,
1,13,2733,B,76.96346082672544,50.05606702938552,3.848173041336272,0.7862788622355792,A,1350.6400999613106,Incorrect,sub_001_day_13_data.csv,0,300,109.0,Training at home,,,,,,,,,,,,,
1,13,2734,A,56.08348788394159,83.79003140320066,2.804174394197079,1.3161707355017662,A,1331.537500023842,Correct,sub_001_day_13_data.csv,1,300,109.0,Training at home,,,,,,,,,,,,,
1,13,2735,B,39.2692300126352,15.605686730902748,1.96346150063176,0.2451335539401389,B,1292.5660000182688,Correct,sub_001_day_13_data.csv,1,300,109.0,Training at home,,,,,,,,,,,,,
1,13,2736,A,37.600613930032765,60.79469531496003,1.880030696501638,0.9549608408935412,B,7464.835399761796,Incorrect,sub_001_day_13_data.csv,0,300,109.0,Training at home,,,,,,,,,,,,,
1,13,2737,B,59.497346332072496,43.43212352055793,2.974867316603625,0.6822302009099462,B,973.5867003910244,Correct,sub_001_day_13_data.csv,1,300,109.0,Training at home,,,,,,,,,,,,,
1,13,2738,A,42.682180408850854,49.57061106387597,2.134109020442543,0.7786533377611483,B,1230.260199867189,Incorrect,sub_001_day_13_data.csv,0,300,109.0,Training at home,,,,,,,,,,,,,
1,13,2739,B,82.17637815822889,55.48908372053072,4.108818907911444,0.8716204888542415,B,1244.799599982798,Correct,sub_001_day_13_data.csv,1,300,109.0,Training at home,,,,,,,,,,,,,
1,13,2740,B,37.75833837592599,13.781689617526066,1.8879169187962992,0.216482274282373,B,1201.8853002227845,Correct,sub_001_day_13_data.csv,1,300,109.0,Training at home,,,,,,,,,,,,,
1,13,2741,A,56.954187488526145,67.7580955336845,2.8477093744263073,1.0643416757492932,A,1049.9509000219405,Correct,sub_001_day_13_data.csv,1,300,109.0,Training at home,,,,,,,,,,,,,
1,13,2742,A,57.36083890476759,76.88995352679254,2.86804194523838,1.2077845656731605,A,924.738600384444,Correct,sub_001_day_13_data.csv,1,300,109.0,Training at home,,,,,,,,,,,,,
1,13,2743,A,21.00830039297084,49.55679015522247,1.050415019648542,0.7784362394356895,A,699.3067995645106,Correct,sub_001_day_13_data.csv,1,300,109.0,Training at home,,,,,,,,,,,,,
1,13,2744,A,58.81483562553254,69.26289533428425,2.9407417812766266,1.0879790157427307,A,972.793699707836,Correct,sub_001_day_13_data.csv,1,300,109.0,Training at home,,,,,,,,,,,,,
1,13,2745,A,26.471808043838287,50.71849326346777,1.3235904021919145,0.796684229188269,A,1134.8366001620889,Correct,sub_001_day_13_data.csv,1,300,109.0,Training at home,,,,,,,,,,,,,
1,13,2746,B,73.72537014100095,55.73080644706955,3.6862685070500474,0.8754174605637418,A,1196.9148996286094,Incorrect,sub_001_day_13_data.csv,0,300,109.0,Training at home,,,,,,,,,,,,,
1,13,2747,A,35.69347935297486,55.17027863151205,1.784673967648743,0.8666127102263009,B,1779.5726996846497,Incorrect,sub_001_day_13_data.csv,0,300,109.0,Training at home,,,,,,,,,,,,,
1,13,2748,A,52.03717193937824,72.89141471821182,2.601858596968912,1.1449756649425058,A,2604.4597001746297,Correct,sub_001_day_13_data.csv,1,300,109.0,Training at home,,,,,,,,,,,,,
1,13,2749,B,88.10144678665266,67.95731889198527,4.405072339332633,1.0674710689435989,B,2521.5312000364065,Correct,sub_001_day_13_data.csv,1,300,109.0,Training at home,,,,,,,,,,,,,
1,13,2750,A,47.2277451593647,69.54427854944527,2.361387257968235,1.092398972950697,A,712.5874003395438,Correct,sub_001_day_13_data.csv,1,300,110.0,Training at home,,,,,,,,,,,,,
1,13,2751,B,38.75306125828524,28.863810378599084,1.937653062914262,0.4533916732000785,A,934.3673000112176,Incorrect,sub_001_day_13_data.csv,0,300,110.0,Training at home,,,,,,,,,,,,,
1,13,2752,B,50.723661515266926,25.68275074009263,2.5361830757633466,0.4034237052452641,B,1761.4672998897731,Correct,sub_001_day_13_data.csv,1,300,110.0,Training at home,,,,,,,,,,,,,
1,13,2753,A,33.319886354297005,49.60102468461757,1.6659943177148504,0.7791310737986027,A,856.5218998119235,Correct,sub_001_day_13_data.csv,1,300,110.0,Training at home,,,,,,,,,,,,,
1,13,2754,B,81.41834678207401,51.65706237771916,4.0709173391037,0.8114272383593609,B,495.7480998709798,Correct,sub_001_day_13_data.csv,1,300,110.0,Training at home,,,,,,,,,,,,,
1,13,2755,B,85.92480010643337,66.4403779077571,4.2962400053216685,1.0436430156836964,B,152251.18739996105,Correct,sub_001_day_13_data.csv,1,300,110.0,Training at home,,,,,,,,,,,,,
1,13,2756,A,51.77600963731899,70.5092783627351,2.58880048186595,1.1075571545714318,A,5346.7160002328455,Correct,sub_001_day_13_data.csv,1,300,110.0,Training at home,,,,,,,,,,,,,
1,13,2757,B,83.36771293266985,59.657259909624514,4.168385646633492,0.9370940473268662,B,10048.598099965602,Correct,sub_001_day_13_data.csv,1,300,110.0,Training at home,,,,,,,,,,,,,
1,13,2758,A,50.1715496919918,60.273853362780386,2.50857748459959,0.9467794746402964,A,1251.7128000035882,Correct,sub_001_day_13_data.csv,1,300,110.0,Training at home,,,,,,,,,,,,,
1,13,2759,A,32.57774342805871,44.18821899525099,1.6288871714029356,0.6941069208534874,B,8546.02129990235,Incorrect,sub_001_day_13_data.csv,0,300,110.0,Training at home,,,,,,,,,,,,,
1,13,2760,A,27.46573197522392,47.328577887698074,1.373286598761196,0.743435562984223,A,2280.3386002779007,Correct,sub_001_day_13_data.csv,1,300,110.0,Training at home,,,,,,,,,,,,,
1,13,2761,B,55.535276114855826,31.0759368191979,2.776763805742791,0.4881396740730634,B,4148.2401001267135,Correct,sub_001_day_13_data.csv,1,300,110.0,Training at home,,,,,,,,,,,,,
1,13,2762,B,57.1725933446595,27.75651754427139,2.8586296672329747,0.435998358031596,B,3798.099000006914,Correct,sub_001_day_13_data.csv,1,300,110.0,Training at home,,,,,,,,,,,,,
1,13,2763,B,44.58309463647246,36.04134050309293,2.229154731823623,0.5661360527502252,B,1022.3873001523316,Correct,sub_001_day_13_data.csv,1,300,110.0,Training at home,,,,,,,,,,,,,
1,13,2764,A,64.07559460944528,85.52848264011679,3.2037797304722635,1.3434782636743652,A,814.1822996549308,Correct,sub_001_day_13_data.csv,1,300,110.0,Training at home,,,,,,,,,,,,,
1,13,2765,B,70.0446728756499,50.60240267093343,3.502233643782495,0.7948606824249849,A,1516.8341002427042,Incorrect,sub_001_day_13_data.csv,0,300,110.0,Training at home,,,,,,,,,,,,,
1,13,2766,A,19.44085136503478,47.299460818494715,0.972042568251739,0.7429781931307062,A,728.0020997859538,Correct,sub_001_day_13_data.csv,1,300,110.0,Training at home,,,,,,,,,,,,,
1,13,2767,B,69.41165499356991,38.90291246828569,3.4705827496784956,0.6110855200680655,B,818.9199999906123,Correct,sub_001_day_13_data.csv,1,300,110.0,Training at home,,,,,,,,,,,,,
1,13,2768,B,47.97312831202022,36.00237662418426,2.398656415601011,0.5655240095715507,B,1804.243900347501,Correct,sub_001_day_13_data.csv,1,300,110.0,Training at home,,,,,,,,,,,,,
1,13,2769,B,66.79829495996765,40.15783964212735,3.339914747998382,0.6307978700187212,B,1036.613500211388,Correct,sub_001_day_13_data.csv,1,300,110.0,Training at home,,,,,,,,,,,,,
1,13,2770,B,67.3898263865928,39.81547252173449,3.36949131932964,0.6254199798674368,B,775.0428002327681,Correct,sub_001_day_13_data.csv,1,300,110.0,Training at home,,,,,,,,,,,,,
1,13,2771,B,70.18837156430486,40.603496330517544,3.509418578215243,0.6377982289100702,B,730.7060002349317,Correct,sub_001_day_13_data.csv,1,300,110.0,Training at home,,,,,,,,,,,,,
1,13,2772,A,32.90878736711159,46.974549686784464,1.6454393683555797,0.737874501008454,A,1738.634499721229,Correct,sub_001_day_13_data.csv,1,300,110.0,Training at home,,,,,,,,,,,,,
1,13,2773,A,30.593883773475433,50.35910871348477,1.5296941886737716,0.7910390298780675,A,1332.6417999342084,Correct,sub_001_day_13_data.csv,1,300,110.0,Training at home,,,,,,,,,,,,,
1,13,2774,A,36.899943579194975,53.136468486043654,1.8449971789597488,0.8346656951673015,A,1710.5405000038445,Correct,sub_001_day_13_data.csv,1,300,110.0,Training at home,,,,,,,,,,,,,
1,13,2775,B,47.93507408945777,29.71610638284791,2.3967537044728884,0.4667795075282387,B,1031.178900040686,Correct,sub_001_day_13_data.csv,1,300,111.0,Training at home,,,,,,,,,,,,,
1,13,2776,A,44.44812393020699,63.7779095829482,2.222406196510349,1.0018210610355207,A,2194.770200178027,Correct,sub_001_day_13_data.csv,1,300,111.0,Training at home,,,,,,,,,,,,,
1,13,2777,B,38.689185071265584,19.412675306596626,1.934459253563279,0.3049335906486397,A,881.9583998993039,Incorrect,sub_001_day_13_data.csv,0,300,111.0,Training at home,,,,,,,,,,,,,
1,13,2778,B,52.89919424354858,35.51109812403878,2.6449597121774286,0.5578070249369326,B,1063.1836000829935,Correct,sub_001_day_13_data.csv,1,300,111.0,Training at home,,,,,,,,,,,,,
1,13,2779,A,47.140209152033535,69.98432148173742,2.357010457601677,1.0993111511674631,A,7615.158599801362,Correct,sub_001_day_13_data.csv,1,300,111.0,Training at home,,,,,,,,,,,,,
1,13,2780,A,48.6972452880686,74.8483376256725,2.4348622644034297,1.175714938091106,A,1817.9844999685884,Correct,sub_001_day_13_data.csv,1,300,111.0,Training at home,,,,,,,,,,,,,
1,13,2781,B,56.60630649232784,35.95179345344042,2.8303153246163917,0.5647294509835302,B,1387.616700027138,Correct,sub_001_day_13_data.csv,1,300,111.0,Training at home,,,,,,,,,,,,,
1,13,2782,A,64.48141651478741,79.39807428152646,3.2240708257393704,1.2471820343601012,A,1128.2862997613847,Correct,sub_001_day_13_data.csv,1,300,111.0,Training at home,,,,,,,,,,,,,
1,13,2783,A,55.424329851644735,67.93631432591707,2.7712164925822367,1.0671411299913405,A,3230.4567000828683,Correct,sub_001_day_13_data.csv,1,300,111.0,Training at home,,,,,,,,,,,,,
1,13,2784,B,47.81929313132456,33.346481840834976,2.390964656566228,0.523805311871163,B,2520.509200170636,Correct,sub_001_day_13_data.csv,1,300,111.0,Training at home,,,,,,,,,,,,,
1,13,2785,A,47.45654968657288,78.44773965255763,2.372827484328644,1.2322542129159988,A,2165.6105001457036,Correct,sub_001_day_13_data.csv,1,300,111.0,Training at home,,,,,,,,,,,,,
1,13,2786,A,27.56979447374738,59.15152272987249,1.378489723687369,0.9291499462840854,B,3254.571999888867,Incorrect,sub_001_day_13_data.csv,0,300,111.0,Training at home,,,,,,,,,,,,,
1,13,2787,B,63.353250311955975,39.626923937929746,3.167662515597799,0.6224582656388081,B,986.4881001412868,Correct,sub_001_day_13_data.csv,1,300,111.0,Training at home,,,,,,,,,,,,,
1,13,2788,B,48.985958708830395,20.397273188320348,2.44929793544152,0.3203996180084563,B,3864.079600200057,Correct,sub_001_day_13_data.csv,1,300,111.0,Training at home,,,,,,,,,,,,,
1,13,2789,B,87.52802906003106,66.27734702164545,4.376401453001552,1.0410821325131134,A,2182.6265999116004,Incorrect,sub_001_day_13_data.csv,0,300,111.0,Training at home,,,,,,,,,,,,,
1,13,2790,B,65.5493417510519,42.97694497593962,3.277467087552594,0.6750802730507234,B,1156.6890999674797,Correct,sub_001_day_13_data.csv,1,300,111.0,Training at home,,,,,,,,,,,,,
1,13,2791,B,62.735167966368834,32.26973604772399,3.136758398318442,0.506891828504057,B,2715.823099948466,Correct,sub_001_day_13_data.csv,1,300,111.0,Training at home,,,,,,,,,,,,,
1,13,2792,B,42.87135254111638,22.99692894981371,2.143567627055819,0.3612349152193059,B,4454.300600104034,Correct,sub_001_day_13_data.csv,1,300,111.0,Training at home,,,,,,,,,,,,,
1,13,2793,A,57.81522132920095,66.21407390876134,2.8907610664600476,1.040088240780081,A,1930.989500135183,Correct,sub_001_day_13_data.csv,1,300,111.0,Training at home,,,,,,,,,,,,,
1,13,2794,B,70.66892767112606,55.18727261900928,3.5334463835563032,0.8668796511576834,B,3646.858000196517,Correct,sub_001_day_13_data.csv,1,300,111.0,Training at home,,,,,,,,,,,,,
1,13,2795,A,60.84064989961726,78.20418989394645,3.042032494980863,1.2284285422538164,A,3549.806000199169,Correct,sub_001_day_13_data.csv,1,300,111.0,Training at home,,,,,,,,,,,,,
1,13,2796,B,89.26205494203687,68.76927847431278,4.463102747101844,1.0802253002378588,B,2556.3637004233897,Correct,sub_001_day_13_data.csv,1,300,111.0,Training at home,,,,,,,,,,,,,
1,13,2797,B,47.68533497606121,37.06233466492827,2.3842667488030607,0.5821737915411249,B,5075.35589998588,Correct,sub_001_day_13_data.csv,1,300,111.0,Training at home,,,,,,,,,,,,,
1,13,2798,B,82.00509839752175,58.62185267098613,4.100254919876088,0.920829908454966,B,2803.3769000321627,Correct,sub_001_day_13_data.csv,1,300,111.0,Training at home,,,,,,,,,,,,,
1,13,2799,B,78.27613803578666,56.38681858281476,3.9138069017893327,0.8857220750953565,B,580.7783002965152,Correct,sub_001_day_13_data.csv,1,300,111.0,Training at home,,,,,,,,,,,,,
1,13,2800,A,34.054639247201685,51.71687025596387,1.7027319623600845,0.8123666983139628,B,6795.644499827176,Incorrect,sub_001_day_13_data.csv,0,300,112.0,Training at home,,,,,,,,,,,,,
1,13,2801,B,35.61262212405199,21.31870270741834,1.7806311062025997,0.3348733990484514,B,1484.9805999547243,Correct,sub_001_day_13_data.csv,1,300,112.0,Training at home,,,,,,,,,,,,,
1,13,2802,A,58.905732361137005,87.00768113267839,2.9452866180568504,1.3667134592615282,A,953.8564998656512,Correct,sub_001_day_13_data.csv,1,300,112.0,Training at home,,,,,,,,,,,,,
1,13,2803,B,58.58769239640784,39.164462456700235,2.929384619820392,0.6151939376788136,B,586.014200001955,Correct,sub_001_day_13_data.csv,1,300,112.0,Training at home,,,,,,,,,,,,,
1,13,2804,B,42.764549761563075,22.874789825224283,2.1382274880781535,0.3593163583366757,B,1374.35569986701,Correct,sub_001_day_13_data.csv,1,300,112.0,Training at home,,,,,,,,,,,,,
1,13,2805,B,85.8204862813931,61.511042379558184,4.291024314069655,0.966213194271352,A,682.4487000703812,Incorrect,sub_001_day_13_data.csv,0,300,112.0,Training at home,,,,,,,,,,,,,
1,13,2806,A,53.29301291551652,71.17333226327048,2.664650645775826,1.1179880888489797,A,851.2340001761913,Correct,sub_001_day_13_data.csv,1,300,112.0,Training at home,,,,,,,,,,,,,
1,13,2807,A,38.98098490649134,65.61839948530815,1.9490492453245667,1.0307314088168218,A,579.6766998246312,Correct,sub_001_day_13_data.csv,1,300,112.0,Training at home,,,,,,,,,,,,,
1,13,2808,B,49.134295760761184,35.15323984097795,2.456714788038059,0.5521858001714819,B,716.9067999348044,Correct,sub_001_day_13_data.csv,1,300,112.0,Training at home,,,,,,,,,,,,,
1,13,2809,B,60.302149568878015,51.02758775183104,3.015107478443901,0.8015394740578047,A,2122.880999930203,Incorrect,sub_001_day_13_data.csv,0,300,112.0,Training at home,,,,,,,,,,,,,
1,13,2810,A,46.17055974340054,62.8929860798275,2.308527987170027,0.987920715153556,A,497.46380001306534,Correct,sub_001_day_13_data.csv,1,300,112.0,Training at home,,,,,,,,,,,,,
1,13,2811,B,42.89905646264241,31.417516174507547,2.1449528231321207,0.493505190039357,B,652.205899823457,Correct,sub_001_day_13_data.csv,1,300,112.0,Training at home,,,,,,,,,,,,,
1,13,2812,A,21.72638096531553,35.009187395953305,1.0863190482657763,0.5499230296563764,B,1327.726500108838,Incorrect,sub_001_day_13_data.csv,0,300,112.0,Training at home,,,,,,,,,,,,,
1,13,2813,A,34.52337496499454,66.1798078621131,1.7261687482497268,1.0395499909779926,A,712.7590999007225,Correct,sub_001_day_13_data.csv,1,300,112.0,Training at home,,,,,,,,,,,,,
1,13,2814,A,45.148469344027774,70.0733656614524,2.257423467201389,1.1007098538716509,A,584.5798999071121,Correct,sub_001_day_13_data.csv,1,300,112.0,Training at home,,,,,,,,,,,,,
1,13,2815,A,21.12224427373243,42.758284786167835,1.0561122136866217,0.6716455668216255,B,1552.3509997874498,Incorrect,sub_001_day_13_data.csv,0,300,112.0,Training at home,,,,,,,,,,,,,
1,13,2816,B,71.87211156658105,56.10154930782797,3.593605578329053,0.8812410758023893,B,2959.330900106579,Correct,sub_001_day_13_data.csv,1,300,112.0,Training at home,,,,,,,,,,,,,
1,13,2817,B,61.46140877557997,47.115242982017776,3.0730704387789984,0.7400845061220254,B,1189.3859999254346,Correct,sub_001_day_13_data.csv,1,300,112.0,Training at home,,,,,,,,,,,,,
1,13,2818,A,49.77111731214555,64.9573624594914,2.4885558656072777,1.0203478634965382,A,1193.178499583155,Correct,sub_001_day_13_data.csv,1,300,112.0,Training at home,,,,,,,,,,,,,
1,13,2819,B,54.086266468856,23.259439571052223,2.7043133234428,0.365358422415167,B,752.783500123769,Correct,sub_001_day_13_data.csv,1,300,112.0,Training at home,,,,,,,,,,,,,
1,13,2820,B,57.48979082733389,30.435477273607923,2.874489541366694,0.4780793590563287,B,588.5540000163019,Correct,sub_001_day_13_data.csv,1,300,112.0,Training at home,,,,,,,,,,,,,
1,13,2821,A,18.767029497971777,42.41424210264552,0.9383514748985888,0.6662413569862502,A,574.1437999531627,Correct,sub_001_day_13_data.csv,1,300,112.0,Training at home,,,,,,,,,,,,,
1,13,2822,A,16.032915941208277,37.930843344496765,0.8016457970604138,0.5958162939776818,A,822.5154997780919,Correct,sub_001_day_13_data.csv,1,300,112.0,Training at home,,,,,,,,,,,,,
1,13,2823,B,61.06649522733456,52.488519297529685,3.0533247613667283,0.8244877331146268,B,981.8313997238874,Correct,sub_001_day_13_data.csv,1,300,112.0,Training at home,,,,,,,,,,,,,
1,13,2824,B,46.077091518373464,37.47404175662437,2.303854575918673,0.5886408714146414,A,903.6493003368378,Incorrect,sub_001_day_13_data.csv,0,300,112.0,Training at home,,,,,,,,,,,,,
1,13,2825,B,79.44522418729332,64.94710085019668,3.972261209364666,1.0201866745146664,B,760.9354997985065,Correct,sub_001_day_13_data.csv,1,300,113.0,Training at home,,,,,,,,,,,,,
1,13,2826,A,39.45867504958156,58.33795224893294,1.972933752479078,0.9163704110535996,B,2332.6829001307487,Incorrect,sub_001_day_13_data.csv,0,300,113.0,Training at home,,,,,,,,,,,,,
1,13,2827,A,50.31593267142959,58.48043416852196,2.5157966335714796,0.9186085118128504,A,1123.6077002249658,Correct,sub_001_day_13_data.csv,1,300,113.0,Training at home,,,,,,,,,,,,,
1,13,2828,A,31.33189037147655,57.04385438188474,1.5665945185738277,0.8960427692928751,A,786.1587000079453,Correct,sub_001_day_13_data.csv,1,300,113.0,Training at home,,,,,,,,,,,,,
1,13,2829,A,15.330084973824778,31.127064183680947,0.766504248691239,0.4889427808363502,B,3361.8767000734806,Incorrect,sub_001_day_13_data.csv,0,300,113.0,Training at home,,,,,,,,,,,,,
1,13,2830,B,72.41680498321081,39.69828638569158,3.620840249160541,0.6235792243469619,B,750.3744997084141,Correct,sub_001_day_13_data.csv,1,300,113.0,Training at home,,,,,,,,,,,,,
1,13,2831,A,52.61190148995071,67.16634445958633,2.6305950744975353,1.0550464716135894,A,1946.2839998304844,Correct,sub_001_day_13_data.csv,1,300,113.0,Training at home,,,,,,,,,,,,,
1,13,2832,B,73.99097491649228,55.62345571850479,3.699548745824614,0.8737311992626591,A,815.966300200671,Incorrect,sub_001_day_13_data.csv,0,300,113.0,Training at home,,,,,,,,,,,,,
1,13,2833,B,67.833185729029,52.242507250324664,3.3916592864514494,0.8206233849136575,B,731.4935000613332,Correct,sub_001_day_13_data.csv,1,300,113.0,Training at home,,,,,,,,,,,,,
1,13,2834,A,58.49226334483022,73.08307881589683,2.924613167241511,1.1479863175487266,A,1197.0783001743257,Correct,sub_001_day_13_data.csv,1,300,113.0,Training at home,,,,,,,,,,,,,
1,13,2835,A,43.77766258619477,59.85913113087018,2.1888831293097386,0.9402650330550492,A,5744.505699723959,Correct,sub_001_day_13_data.csv,1,300,113.0,Training at home,,,,,,,,,,,,,
1,13,2836,A,64.17935604535366,77.09966964770982,3.208967802267683,1.2110787787972257,A,7377.288300078362,Correct,sub_001_day_13_data.csv,1,300,113.0,Training at home,,,,,,,,,,,,,
1,13,2837,A,20.549945713795363,48.14865127994135,1.0274972856897682,0.7563172457066026,A,8761.249199975282,Correct,sub_001_day_13_data.csv,1,300,113.0,Training at home,,,,,,,,,,,,,
1,13,2838,A,34.28180802308174,58.8916802392775,1.714090401154087,0.9250683499863668,A,1834.2663999646904,Correct,sub_001_day_13_data.csv,1,300,113.0,Training at home,,,,,,,,,,,,,
1,13,2839,A,39.34474025466992,47.1066716446488,1.967237012733496,0.7399498678694765,B,726.2007999233902,Incorrect,sub_001_day_13_data.csv,0,300,113.0,Training at home,,,,,,,,,,,,,
1,13,2840,A,41.343181393616845,52.522172305580455,2.067159069680842,0.8250163533289443,A,2578.480599913746,Correct,sub_001_day_13_data.csv,1,300,113.0,Training at home,,,,,,,,,,,,,
1,13,2841,A,53.08038494285803,63.93879275429072,2.6540192471429016,1.0043482079814,A,4093.060799874366,Correct,sub_001_day_13_data.csv,1,300,113.0,Training at home,,,,,,,,,,,,,
1,13,2842,B,85.51732886378346,65.19229750750493,4.275866443189173,1.0240382146010882,B,1180.7710998691618,Correct,sub_001_day_13_data.csv,1,300,113.0,Training at home,,,,,,,,,,,,,
1,13,2843,A,39.88998201194378,46.86811535693119,1.9944991005971888,0.7362026344646698,B,4011.4494003355503,Incorrect,sub_001_day_13_data.csv,0,300,113.0,Training at home,,,,,,,,,,,,,
1,13,2844,B,84.37201061362816,67.00173754441477,4.2186005306814085,1.0524608322364242,A,2179.1361002251506,Incorrect,sub_001_day_13_data.csv,0,300,113.0,Training at home,,,,,,,,,,,,,
1,13,2845,B,33.741044193149335,12.814190746954177,1.6870522096574667,0.2012848375616477,B,649.1569997742772,Correct,sub_001_day_13_data.csv,1,300,113.0,Training at home,,,,,,,,,,,,,
1,13,2846,B,79.3528795927896,63.2098189564897,3.96764397963948,0.9928975143422444,B,1401.2862001545727,Correct,sub_001_day_13_data.csv,1,300,113.0,Training at home,,,,,,,,,,,,,
1,13,2847,B,59.56025935577957,34.08988996491232,2.9780129677889784,0.5354827393772648,A,865.2868997305632,Incorrect,sub_001_day_13_data.csv,0,300,113.0,Training at home,,,,,,,,,,,,,
1,13,2848,B,71.48203414566414,47.57954763598294,3.5741017072832073,0.7473777865716481,A,10099.878299981356,Incorrect,sub_001_day_13_data.csv,0,300,113.0,Training at home,,,,,,,,,,,,,
1,13,2849,B,41.379433318505434,28.37760324332437,2.0689716659252717,0.4457543493785685,B,704.9047998152673,Correct,sub_001_day_13_data.csv,1,300,113.0,Training at home,,,,,,,,,,,,,
1,13,2850,B,66.04199581401592,42.39886337409103,3.302099790700796,0.6659997884830086,A,2053.348599933088,Incorrect,sub_001_day_13_data.csv,0,300,114.0,Training at home,,,,,,,,,,,,,
1,13,2851,B,78.2016785596929,46.62520310068388,3.910083927984645,0.7323869776662029,B,763.9929000288248,Correct,sub_001_day_13_data.csv,1,300,114.0,Training at home,,,,,,,,,,,,,
1,13,2852,A,35.018498752484255,43.11023622400655,1.7509249376242126,0.6771740070792979,A,1535.907099954784,Correct,sub_001_day_13_data.csv,1,300,114.0,Training at home,,,,,,,,,,,,,
1,13,2853,A,57.40439938084529,70.90627347291255,2.8702199690422647,1.1137931391796545,B,2278.862100094557,Incorrect,sub_001_day_13_data.csv,0,300,114.0,Training at home,,,,,,,,,,,,,
1,13,2854,A,12.59607032710247,31.179723630141822,0.6298035163551234,0.4897699534870682,A,607.3464998044074,Correct,sub_001_day_13_data.csv,1,300,114.0,Training at home,,,,,,,,,,,,,
1,13,2855,A,24.57322550257636,42.00977771546029,1.228661275128818,0.6598880452491512,A,700.0241000205278,Correct,sub_001_day_13_data.csv,1,300,114.0,Training at home,,,,,,,,,,,,,
1,13,2856,B,56.53448259576997,34.45737624149814,2.826724129788498,0.5412552003113501,B,1531.5991998650134,Correct,sub_001_day_13_data.csv,1,300,114.0,Training at home,,,,,,,,,,,,,
1,13,2857,B,63.98500001493445,43.87327577170404,3.1992500007467224,0.6891598042665223,B,3848.5373998992145,Correct,sub_001_day_13_data.csv,1,300,114.0,Training at home,,,,,,,,,,,,,
1,13,2858,B,84.50815221017595,59.6806879828427,4.225407610508797,0.9374620546404162,B,8543.758800253272,Correct,sub_001_day_13_data.csv,1,300,114.0,Training at home,,,,,,,,,,,,,
1,13,2859,A,33.81265502522914,58.72739596067853,1.690632751261457,0.9224877785726328,A,1329.791400115937,Correct,sub_001_day_13_data.csv,1,300,114.0,Training at home,,,,,,,,,,,,,
1,13,2860,B,61.54476949009179,42.51909713019657,3.0772384745045893,0.667888415907482,B,4601.760500110686,Correct,sub_001_day_13_data.csv,1,300,114.0,Training at home,,,,,,,,,,,,,
1,13,2861,B,37.081122709549945,12.946325496222332,1.8540561354774976,0.2033604053495715,B,9893.347300123423,Correct,sub_001_day_13_data.csv,1,300,114.0,Training at home,,,,,,,,,,,,,
1,13,2862,A,62.5486554325489,76.50409959033273,3.1274327716274453,1.201723586212456,A,990.3065003454684,Correct,sub_001_day_13_data.csv,1,300,114.0,Training at home,,,,,,,,,,,,,
1,13,2863,A,50.51222038901718,71.01223619020614,2.525611019450859,1.1154575976506742,A,1788.0307999439538,Correct,sub_001_day_13_data.csv,1,300,114.0,Training at home,,,,,,,,,,,,,
1,13,2864,A,40.782664867787034,54.534678097423686,2.039133243389352,0.8566287203837522,B,8651.081299874932,Incorrect,sub_001_day_13_data.csv,0,300,114.0,Training at home,,,,,,,,,,,,,
1,13,2865,B,53.591172452057776,29.307771046640003,2.679558622602889,0.4603653910660794,B,662.7981001511216,Correct,sub_001_day_13_data.csv,1,300,114.0,Training at home,,,,,,,,,,,,,
1,13,2866,A,60.37254379635438,68.76670427286273,3.018627189817719,1.0801848647760368,A,1405.7724000886085,Correct,sub_001_day_13_data.csv,1,300,114.0,Training at home,,,,,,,,,,,,,
1,13,2867,B,61.20700741249986,45.481847910833594,3.0603503706249935,0.7144271963418155,B,2073.4482002444565,Correct,sub_001_day_13_data.csv,1,300,114.0,Training at home,,,,,,,,,,,,,
1,13,2868,A,63.47117958341704,82.3072590811321,3.173558979170852,1.2928794023319818,A,2125.350799877197,Correct,sub_001_day_13_data.csv,1,300,114.0,Training at home,,,,,,,,,,,,,
1,13,2869,A,45.22272465837253,77.0511521688523,2.261136232918626,1.210316668021478,A,2434.912600088865,Correct,sub_001_day_13_data.csv,1,300,114.0,Training at home,,,,,,,,,,,,,
1,13,2870,B,74.8936918680469,61.6229290727548,3.7446845934023454,0.9679707063382568,B,2068.0207000114024,Correct,sub_001_day_13_data.csv,1,300,114.0,Training at home,,,,,,,,,,,,,
1,13,2871,A,61.13950294927948,87.68650256755447,3.0569751474639744,1.377376361426058,A,11713.446100242436,Correct,sub_001_day_13_data.csv,1,300,114.0,Training at home,,,,,,,,,,,,,
1,13,2872,A,53.24061766167057,81.23167356881083,2.6620308830835286,1.2759841446129014,A,2476.3938998803496,Correct,sub_001_day_13_data.csv,1,300,114.0,Training at home,,,,,,,,,,,,,
1,13,2873,B,83.65267026340409,64.3415301152195,4.182633513170205,1.0106743916535,B,3120.88739965111,Correct,sub_001_day_13_data.csv,1,300,114.0,Training at home,,,,,,,,,,,,,
1,13,2874,A,50.20924998060268,60.08372922017416,2.510462499030134,0.9437930115918878,A,2410.793799906969,Correct,sub_001_day_13_data.csv,1,300,114.0,Training at home,,,,,,,,,,,,,
1,13,2875,A,30.93982063297225,49.16085510030376,1.5469910316486124,0.7722169061365332,A,2644.317999947816,Correct,sub_001_day_13_data.csv,1,300,115.0,Training at home,,,,,,,,,,,,,
1,13,2876,B,54.06973417926083,38.47621550291272,2.7034867089630414,0.6043829798094414,B,1129.9565001390874,Correct,sub_001_day_13_data.csv,1,300,115.0,Training at home,,,,,,,,,,,,,
1,13,2877,A,25.500581283892785,45.12630642431449,1.2750290641946391,0.7088423637313416,A,2916.5125996805727,Correct,sub_001_day_13_data.csv,1,300,115.0,Training at home,,,,,,,,,,,,,
1,13,2878,B,84.03141973325336,60.71546676235799,4.201570986662668,0.9537163216994956,B,1979.1259998455644,Correct,sub_001_day_13_data.csv,1,300,115.0,Training at home,,,,,,,,,,,,,
1,13,2879,B,54.20392823538668,37.932985684736266,2.7101964117693336,0.5958499457794713,B,1536.2713998183608,Correct,sub_001_day_13_data.csv,1,300,115.0,Training at home,,,,,,,,,,,,,
1,13,2880,A,16.825589309833205,38.22768414609303,0.8412794654916602,0.6004790583855844,A,3153.943700250238,Correct,sub_001_day_13_data.csv,1,300,115.0,Training at home,,,,,,,,,,,,,
1,13,2881,B,56.76963475688129,24.343122076785654,2.8384817378440643,0.3823808674093465,B,4135.569999925792,Correct,sub_001_day_13_data.csv,1,300,115.0,Training at home,,,,,,,,,,,,,
1,13,2882,B,31.598742145302104,13.883947622776695,1.5799371072651054,0.2180885392727037,B,950.5914999172091,Correct,sub_001_day_13_data.csv,1,300,115.0,Training at home,,,,,,,,,,,,,
1,13,2883,B,54.688861259945966,29.82066752164495,2.7344430629972982,0.4684219500557176,B,1402.8211999684572,Correct,sub_001_day_13_data.csv,1,300,115.0,Training at home,,,,,,,,,,,,,
1,13,2884,B,54.17240072742728,32.366284654631656,2.708620036371364,0.5084084104749343,B,2041.8378999456763,Correct,sub_001_day_13_data.csv,1,300,115.0,Training at home,,,,,,,,,,,,,
1,13,2885,A,36.04303448386395,67.43639133424222,1.8021517241931977,1.0592883580013086,A,3419.8757000267506,Correct,sub_001_day_13_data.csv,1,300,115.0,Training at home,,,,,,,,,,,,,
1,13,2886,B,35.730577107764056,20.252756308015947,1.7865288553882026,0.3181295521610362,B,1096.5640000067651,Correct,sub_001_day_13_data.csv,1,300,115.0,Training at home,,,,,,,,,,,,,
1,13,2887,B,55.520126503732,41.27933127960086,2.7760063251866,0.6484142194654672,B,5734.94439991191,Correct,sub_001_day_13_data.csv,1,300,115.0,Training at home,,,,,,,,,,,,,
1,13,2888,A,31.40106061195952,48.9957428983431,1.570053030597976,0.7696233297330449,A,1136.1602996475997,Correct,sub_001_day_13_data.csv,1,300,115.0,Training at home,,,,,,,,,,,,,
1,13,2889,B,34.05602990359,18.595444545559257,1.7028014951795,0.2920965598728267,B,1388.5110998526216,Correct,sub_001_day_13_data.csv,1,300,115.0,Training at home,,,,,,,,,,,,,
1,13,2890,B,44.34710034501819,19.964163370054624,2.2173550172509096,0.3135963448921502,B,751.9914000295103,Correct,sub_001_day_13_data.csv,1,300,115.0,Training at home,,,,,,,,,,,,,
1,13,2891,A,43.97241494898869,50.69373395920038,2.198620747449435,0.7962953109462967,B,613.856999669224,Incorrect,sub_001_day_13_data.csv,0,300,115.0,Training at home,,,,,,,,,,,,,
1,13,2892,A,37.97593607485361,67.10051635395615,1.8987968037426808,1.0540124461483522,A,833.122500218451,Correct,sub_001_day_13_data.csv,1,300,115.0,Training at home,,,,,,,,,,,,,
1,13,2893,B,47.00681092767608,27.805940656413135,2.3503405463838036,0.4367746944617063,B,1298.084800131619,Correct,sub_001_day_13_data.csv,1,300,115.0,Training at home,,,,,,,,,,,,,
1,13,2894,A,23.037752648519817,41.203037555370514,1.1518876324259908,0.6472158004476818,A,1011.848300229758,Correct,sub_001_day_13_data.csv,1,300,115.0,Training at home,,,,,,,,,,,,,
1,13,2895,B,40.29405630291387,20.706554528389503,2.014702815145694,0.3252577979377246,B,1461.324600037187,Correct,sub_001_day_13_data.csv,1,300,115.0,Training at home,,,,,,,,,,,,,
1,13,2896,B,39.42456239299054,22.047382061602384,1.971228119649527,0.3463194675780871,A,3551.21499998495,Incorrect,sub_001_day_13_data.csv,0,300,115.0,Training at home,,,,,,,,,,,,,
1,13,2897,B,35.8779400615653,20.075073617454716,1.793897003078265,0.31533851898435,B,1943.3921999298036,Correct,sub_001_day_13_data.csv,1,300,115.0,Training at home,,,,,,,,,,,,,
1,13,2898,B,48.417630158180536,41.24634428471941,2.420881507909027,0.6478960609615493,B,1592.1808001585305,Correct,sub_001_day_13_data.csv,1,300,115.0,Training at home,,,,,,,,,,,,,
1,13,2899,A,22.618310450068645,46.76259441138657,1.1309155225034322,0.7345451153280559,A,1307.841899804771,Correct,sub_001_day_13_data.csv,1,300,115.0,Training at home,,,,,,,,,,,,,
1,13,2900,A,59.53353987909445,78.74209704255159,2.9766769939547224,1.2368779679856732,A,1364.0281003899872,Correct,sub_001_day_13_data.csv,1,300,116.0,Training at home,,,,,,,,,,,,,
1,13,2901,A,44.00453288330481,54.428052890995,2.2002266441652405,0.854953855557733,B,4650.478799827397,Incorrect,sub_001_day_13_data.csv,0,300,116.0,Training at home,,,,,,,,,,,,,
1,13,2902,A,50.09046328479421,79.15832865121166,2.50452316423971,1.243416118805465,A,446.24050008133054,Correct,sub_001_day_13_data.csv,1,300,116.0,Training at home,,,,,,,,,,,,,
1,13,2903,A,21.932260313356405,51.12938655361603,1.0966130156678202,0.8031385258969643,A,2838.377600070089,Correct,sub_001_day_13_data.csv,1,300,116.0,Training at home,,,,,,,,,,,,,
1,13,2904,B,57.20647769479325,34.6496075928031,2.8603238847396626,0.5442747633165966,B,3342.6771997474134,Correct,sub_001_day_13_data.csv,1,300,116.0,Training at home,,,,,,,,,,,,,
1,13,2905,A,27.598228673386743,57.362302304195026,1.3799114336693372,0.9010449375592796,A,3555.2374003455043,Correct,sub_001_day_13_data.csv,1,300,116.0,Training at home,,,,,,,,,,,,,
1,13,2906,B,53.760495087718546,37.3640793484633,2.6880247543859275,0.586913585946392,B,5934.90260001272,Correct,sub_001_day_13_data.csv,1,300,116.0,Training at home,,,,,,,,,,,,,
1,13,2907,A,44.135175419476575,64.56435267916554,2.206758770973829,1.0141744803032346,B,785.466399975121,Incorrect,sub_001_day_13_data.csv,0,300,116.0,Training at home,,,,,,,,,,,,,
1,13,2908,A,61.91941914148875,80.6780447718634,3.095970957074438,1.2672877638063722,A,1964.892500080168,Correct,sub_001_day_13_data.csv,1,300,116.0,Training at home,,,,,,,,,,,,,
1,13,2909,B,71.84633504937713,54.934041455555445,3.5923167524688564,0.8629019053438507,B,580.9383001178503,Correct,sub_001_day_13_data.csv,1,300,116.0,Training at home,,,,,,,,,,,,,
1,13,2910,B,59.253098591365,42.74040197832223,2.9626549295682505,0.671364664332859,B,3661.992900073528,Correct,sub_001_day_13_data.csv,1,300,116.0,Training at home,,,,,,,,,,,,,
1,13,2911,B,44.479992165692536,35.4805308617132,2.2239996082846267,0.5573268755031207,B,651.9319997169077,Correct,sub_001_day_13_data.csv,1,300,116.0,Training at home,,,,,,,,,,,,,
1,13,2912,B,79.02606735278346,66.65248506084578,3.9513033676391727,1.0469747870532826,A,1831.2160996720197,Incorrect,sub_001_day_13_data.csv,0,300,116.0,Training at home,,,,,,,,,,,,,
1,13,2913,A,55.62571498979423,83.77827235579238,2.7812857494897116,1.3159860248170112,A,3745.201400015503,Correct,sub_001_day_13_data.csv,1,300,116.0,Training at home,,,,,,,,,,,,,
1,13,2914,A,40.15428782365717,56.715700852570045,2.0077143911828585,0.890888145708152,A,3371.950199827552,Correct,sub_001_day_13_data.csv,1,300,116.0,Training at home,,,,,,,,,,,,,
1,13,2915,B,58.02351028772077,51.17653427586937,2.9011755143860385,0.8038791205862874,B,1862.7113001421096,Correct,sub_001_day_13_data.csv,1,300,116.0,Training at home,,,,,,,,,,,,,
1,13,2916,A,64.83562282333284,87.50999277094093,3.2417811411666424,1.3746037520244194,A,3389.0459001995623,Correct,sub_001_day_13_data.csv,1,300,116.0,Training at home,,,,,,,,,,,,,
1,13,2917,B,56.9879084605965,42.95764505382435,2.849395423029825,0.6747771105830624,B,1281.726900022477,Correct,sub_001_day_13_data.csv,1,300,116.0,Training at home,,,,,,,,,,,,,
1,13,2918,A,46.765848975230234,76.76216340691684,2.3382924487615115,1.205777243164146,A,5079.454599879682,Correct,sub_001_day_13_data.csv,1,300,116.0,Training at home,,,,,,,,,,,,,
1,13,2919,B,36.96181467398275,11.230767595629274,1.8480907336991377,0.1764124848630161,B,989.8508000187576,Correct,sub_001_day_13_data.csv,1,300,116.0,Training at home,,,,,,,,,,,,,
1,13,2920,A,52.14345909636342,74.5907717540336,2.6071729548181715,1.1716691028403252,A,1004.0417001582682,Correct,sub_001_day_13_data.csv,1,300,116.0,Training at home,,,,,,,,,,,,,
1,13,2921,A,33.703568790612046,57.88330994915707,1.6851784395306024,0.9092289065086644,A,997.8454997763038,Correct,sub_001_day_13_data.csv,1,300,116.0,Training at home,,,,,,,,,,,,,
1,13,2922,A,39.28278978155322,56.59483808759802,1.964139489077661,0.8889896378355088,B,1631.2735001556575,Incorrect,sub_001_day_13_data.csv,0,300,116.0,Training at home,,,,,,,,,,,,,
1,13,2923,A,17.47739694690771,45.73032309606971,0.8738698473453854,0.7183302354245011,A,1263.752399943769,Correct,sub_001_day_13_data.csv,1,300,116.0,Training at home,,,,,,,,,,,,,
1,13,2924,A,67.53552986034929,86.62154566064352,3.3767764930174646,1.3606480574503526,A,1410.812699701637,Correct,sub_001_day_13_data.csv,1,300,116.0,Training at home,,,,,,,,,,,,,
1,13,2925,B,39.7684502652574,25.1272980427794,1.98842251326287,0.3946986746787848,B,1121.1048001423478,Correct,sub_001_day_13_data.csv,1,300,117.0,Training at home,,,,,,,,,,,,,
1,13,2926,B,44.94125524674737,15.349690151629105,2.2470627623373685,0.2411123690761879,B,1423.4194997698069,Correct,sub_001_day_13_data.csv,1,300,117.0,Training at home,,,,,,,,,,,,,
1,13,2927,B,40.40072254346861,31.494623667714205,2.0200361271734306,0.4947163917103308,A,939.1294000670314,Incorrect,sub_001_day_13_data.csv,0,300,117.0,Training at home,,,,,,,,,,,,,
1,13,2928,A,49.628197227010425,63.25164487691081,2.4814098613505213,0.9935545143638674,A,779.9947001039982,Correct,sub_001_day_13_data.csv,1,300,117.0,Training at home,,,,,,,,,,,,,
1,13,2929,B,59.22486738178677,29.502395920060003,2.9612433690893387,0.4634225514287899,A,808.447000104934,Incorrect,sub_001_day_13_data.csv,0,300,117.0,Training at home,,,,,,,,,,,,,
1,13,2930,A,52.72607892003749,73.57631577482033,2.6363039460018745,1.1557340655818915,A,607.532000169158,Correct,sub_001_day_13_data.csv,1,300,117.0,Training at home,,,,,,,,,,,,,
1,13,2931,B,58.74482060717472,39.34386797788411,2.937241030358736,0.6180120330156372,B,594.9645997025073,Correct,sub_001_day_13_data.csv,1,300,117.0,Training at home,,,,,,,,,,,,,
1,13,2932,A,32.65381709533214,65.73444679951389,1.6326908547666068,1.0325542757657096,A,2549.078000243753,Correct,sub_001_day_13_data.csv,1,300,117.0,Training at home,,,,,,,,,,,,,
1,13,2933,A,40.24582249087312,54.08931082569848,2.012291124543657,0.849632907638746,B,896.1310996674001,Incorrect,sub_001_day_13_data.csv,0,300,117.0,Training at home,,,,,,,,,,,,,
1,13,2934,B,64.15927362339407,46.74698626167441,3.2079636811697037,0.7342999430856965,B,947.6977000012994,Correct,sub_001_day_13_data.csv,1,300,117.0,Training at home,,,,,,,,,,,,,
1,13,2935,A,19.43326768511697,48.81815841857813,0.9716633842558484,0.7668338392479388,A,987.457700073719,Correct,sub_001_day_13_data.csv,1,300,117.0,Training at home,,,,,,,,,,,,,
1,13,2936,B,32.48595339754871,15.603062726868696,1.6242976698774356,0.2450923361811571,B,910.9044997021556,Correct,sub_001_day_13_data.csv,1,300,117.0,Training at home,,,,,,,,,,,,,
1,13,2937,B,34.144044842149725,16.70473422844068,1.7072022421074862,0.262397351661196,B,2900.196900125593,Correct,sub_001_day_13_data.csv,1,300,117.0,Training at home,,,,,,,,,,,,,
1,13,2938,A,32.312137898182044,59.34150693720496,1.6156068949091025,0.9321342112343542,A,1256.889899726957,Correct,sub_001_day_13_data.csv,1,300,117.0,Training at home,,,,,,,,,,,,,
1,13,2939,B,65.80438952218532,37.51267835261353,3.290219476109266,0.5892477736452376,B,863.2673001848161,Correct,sub_001_day_13_data.csv,1,300,117.0,Training at home,,,,,,,,,,,,,
1,13,2940,A,64.6825891063817,83.91252096775543,3.2341294553190845,1.3180947970824997,A,4124.793199822307,Correct,sub_001_day_13_data.csv,1,300,117.0,Training at home,,,,,,,,,,,,,
1,13,2941,B,84.73139485397651,67.28184182207269,4.236569742698825,1.0568606999410703,A,3781.500699929893,Incorrect,sub_001_day_13_data.csv,0,300,117.0,Training at home,,,,,,,,,,,,,
1,13,2942,B,67.6225384058717,35.039470873898324,3.3811269202935845,0.5503987214155625,A,780.7988999411464,Incorrect,sub_001_day_13_data.csv,0,300,117.0,Training at home,,,,,,,,,,,,,
1,13,2943,A,61.64611177580779,70.90416325697001,3.08230558879039,1.1137599919851415,B,2581.160200294107,Incorrect,sub_001_day_13_data.csv,0,300,117.0,Training at home,,,,,,,,,,,,,
1,13,2944,A,49.32583203761668,67.8221764840491,2.466291601880834,1.065348256963795,A,1491.0776996985078,Correct,sub_001_day_13_data.csv,1,300,117.0,Training at home,,,,,,,,,,,,,
1,13,2945,B,78.82408499519038,54.95912606740485,3.9412042497595183,0.8632959335053718,B,4734.177299775183,Correct,sub_001_day_13_data.csv,1,300,117.0,Training at home,,,,,,,,,,,,,
1,13,2946,B,55.792786176229,31.922005123660465,2.7896393088114504,0.5014296839217371,B,2829.2086999863386,Correct,sub_001_day_13_data.csv,1,300,117.0,Training at home,,,,,,,,,,,,,
1,13,2947,B,79.93607359498068,49.6509270189531,3.9968036797490343,0.7799149378333302,B,670.202599838376,Correct,sub_001_day_13_data.csv,1,300,117.0,Training at home,,,,,,,,,,,,,
1,13,2948,B,32.913476798303336,19.693132766574813,1.645673839915167,0.3093390061281993,A,1671.2925997562706,Incorrect,sub_001_day_13_data.csv,0,300,117.0,Training at home,,,,,,,,,,,,,
1,13,2949,B,41.80633346576077,16.66433650695531,2.0903166732880383,0.261762785735995,B,1453.33579974249,Correct,sub_001_day_13_data.csv,1,300,117.0,Training at home,,,,,,,,,,,,,
1,13,2950,B,47.77785300627576,32.114128329258975,2.388892650313788,0.5044475481781993,B,3561.763799749315,Correct,sub_001_day_13_data.csv,1,300,118.0,Training at home,,,,,,,,,,,,,
1,13,2951,A,14.148760822202942,42.19722552676599,0.7074380411101471,0.6628324685837986,A,1083.3534998819232,Correct,sub_001_day_13_data.csv,1,300,118.0,Training at home,,,,,,,,,,,,,
1,13,2952,B,54.85021976331362,44.80617862279497,2.7425109881656806,0.7038138079840235,B,525.3126998431981,Correct,sub_001_day_13_data.csv,1,300,118.0,Training at home,,,,,,,,,,,,,
1,13,2953,A,17.910595501439936,34.0798593668552,0.8955297750719967,0.535325179111428,A,1428.816200233996,Correct,sub_001_day_13_data.csv,1,300,118.0,Training at home,,,,,,,,,,,,,
1,13,2954,B,44.64638080441719,17.865171699630785,2.2323190402208595,0.2806254608334017,B,762.8255998715758,Correct,sub_001_day_13_data.csv,1,300,118.0,Training at home,,,,,,,,,,,,,
1,13,2955,A,45.53265409665747,59.891493115609094,2.276632704832873,0.940773373922606,A,1195.8099999465048,Correct,sub_001_day_13_data.csv,1,300,118.0,Training at home,,,,,,,,,,,,,
1,13,2956,A,42.539107076206705,54.828225944638056,2.1269553538103354,0.8612397591851809,A,1479.5442996546626,Correct,sub_001_day_13_data.csv,1,300,118.0,Training at home,,,,,,,,,,,,,
1,13,2957,A,28.34981705386351,55.41641594361115,1.4174908526931755,0.8704790260836254,B,938.3946000598372,Incorrect,sub_001_day_13_data.csv,0,300,118.0,Training at home,,,,,,,,,,,,,
1,13,2958,A,30.427170233301588,58.34474367878202,1.5213585116650794,0.9164770905842056,A,1069.9310000054538,Correct,sub_001_day_13_data.csv,1,300,118.0,Training at home,,,,,,,,,,,,,
1,13,2959,B,41.39118264073141,22.67622401131768,2.0695591320365705,0.3561972938255604,B,947.0224999822676,Correct,sub_001_day_13_data.csv,1,300,118.0,Training at home,,,,,,,,,,,,,
1,13,2960,A,54.845998379222536,81.86398515164696,2.742299918961127,1.28591647172999,A,1150.3530000336468,Correct,sub_001_day_13_data.csv,1,300,118.0,Training at home,,,,,,,,,,,,,
1,13,2961,A,44.71616801028006,59.64492655139439,2.235808400514003,0.9369003153888172,B,982.7233999967576,Incorrect,sub_001_day_13_data.csv,0,300,118.0,Training at home,,,,,,,,,,,,,
1,13,2962,B,44.183643638727865,21.256473433847248,2.2091821819363933,0.3338959039050056,B,680.2852000109851,Correct,sub_001_day_13_data.csv,1,300,118.0,Training at home,,,,,,,,,,,,,
1,13,2963,A,54.20486292075488,71.83617960729617,2.710243146037744,1.1284000705811927,A,644.2858995869756,Correct,sub_001_day_13_data.csv,1,300,118.0,Training at home,,,,,,,,,,,,,
1,13,2964,B,59.842791286054045,30.90150578790451,2.9921395643027022,0.4853997178407165,B,695.0455000624061,Correct,sub_001_day_13_data.csv,1,300,118.0,Training at home,,,,,,,,,,,,,
1,13,2965,A,59.46421452437014,70.18955686854999,2.973210726218507,1.1025349810847982,A,451.237800065428,Correct,sub_001_day_13_data.csv,1,300,118.0,Training at home,,,,,,,,,,,,,
1,13,2966,A,11.727521664425051,38.094536355194535,0.5863760832212526,0.5983875777769422,A,730.3133001551032,Correct,sub_001_day_13_data.csv,1,300,118.0,Training at home,,,,,,,,,,,,,
1,13,2967,B,63.83800945885947,31.039716222635477,3.1919004729429736,0.4875707222727176,B,904.316000174731,Correct,sub_001_day_13_data.csv,1,300,118.0,Training at home,,,,,,,,,,,,,
1,13,2968,B,56.39070069491216,26.728836042085646,2.8195350347456083,0.4198555747441117,A,879.9103000201285,Incorrect,sub_001_day_13_data.csv,0,300,118.0,Training at home,,,,,,,,,,,,,
1,13,2969,B,86.66271522659883,68.27322641135692,4.333135761329942,1.0724333326539577,B,1325.00769989565,Correct,sub_001_day_13_data.csv,1,300,118.0,Training at home,,,,,,,,,,,,,
1,13,2970,B,56.6310830026555,34.21462023585629,2.831554150132775,0.5374419978916539,B,4022.1426002681255,Correct,sub_001_day_13_data.csv,1,300,118.0,Training at home,,,,,,,,,,,,,
1,13,2971,A,19.90670754358052,44.46939851947929,0.995335377179026,0.6985236784917649,A,844.3346000276506,Correct,sub_001_day_13_data.csv,1,300,118.0,Training at home,,,,,,,,,,,,,
1,13,2972,A,27.174252067449693,38.634271271320685,1.3587126033724846,0.6068657140138813,B,1757.707899902016,Incorrect,sub_001_day_13_data.csv,0,300,118.0,Training at home,,,,,,,,,,,,,
1,13,2973,A,22.360309436311056,52.768597707298056,1.1180154718155528,0.8288871944874139,A,1267.6335000433028,Correct,sub_001_day_13_data.csv,1,300,118.0,Training at home,,,,,,,,,,,,,
1,13,2974,B,79.7501110986741,62.056074276761166,3.987505554933705,0.9747745352924772,B,480.7139001786709,Correct,sub_001_day_13_data.csv,1,300,118.0,Training at home,,,,,,,,,,,,,
1,13,2975,A,56.47443935553425,73.19765659295561,2.8237219677767125,1.149786101062089,A,1567.3262001946568,Correct,sub_001_day_13_data.csv,1,300,119.0,Training at home,,,,,,,,,,,,,
1,13,2976,B,47.180361748055915,16.83104183432947,2.359018087402796,0.2643813868949596,B,1229.9646995961666,Correct,sub_001_day_13_data.csv,1,300,119.0,Training at home,,,,,,,,,,,,,
1,13,2977,A,43.332084766353795,68.47371524579788,2.16660423831769,1.07558260390099,A,1752.3811999708414,Correct,sub_001_day_13_data.csv,1,300,119.0,Training at home,,,,,,,,,,,,,
1,13,2978,A,42.83241330401614,74.49793717447982,2.141620665200807,1.1702108606746988,A,870.0289996340871,Correct,sub_001_day_13_data.csv,1,300,119.0,Training at home,,,,,,,,,,,,,
1,13,2979,B,59.9111128805579,44.03260462930666,2.995555644027895,0.6916625361092686,B,1448.9726000465453,Correct,sub_001_day_13_data.csv,1,300,119.0,Training at home,,,,,,,,,,,,,
1,13,2980,A,52.70525748705429,60.58098307657029,2.6352628743527147,0.951603856903004,B,1620.850299950689,Incorrect,sub_001_day_13_data.csv,0,300,119.0,Training at home,,,,,,,,,,,,,
1,13,2981,A,47.38997458466445,61.82021614388323,2.369498729233223,0.9710696844047836,B,4623.126400168985,Incorrect,sub_001_day_13_data.csv,0,300,119.0,Training at home,,,,,,,,,,,,,
1,13,2982,B,40.84489557450537,20.180726714826324,2.0422447787252684,0.3169981139570083,B,552.3657999001443,Correct,sub_001_day_13_data.csv,1,300,119.0,Training at home,,,,,,,,,,,,,
1,13,2983,B,69.20937498597408,56.180280998982965,3.460468749298704,0.8824777903150756,B,1146.234099753201,Correct,sub_001_day_13_data.csv,1,300,119.0,Training at home,,,,,,,,,,,,,
1,13,2984,A,29.31602438071305,38.93949207448877,1.4658012190356522,0.6116601111786595,A,593.1985001079738,Correct,sub_001_day_13_data.csv,1,300,119.0,Training at home,,,,,,,,,,,,,
1,13,2985,B,37.92531906553954,23.23552357055455,1.8962659532769772,0.3649827507578332,B,993.215600028634,Correct,sub_001_day_13_data.csv,1,300,119.0,Training at home,,,,,,,,,,,,,
1,13,2986,B,71.52948747725472,51.83530273699614,3.576474373862736,0.8142270313757499,B,6883.709200192243,Correct,sub_001_day_13_data.csv,1,300,119.0,Training at home,,,,,,,,,,,,,
1,13,2987,B,85.96815033367898,63.378048989753125,4.298407516683949,0.9955400655253122,B,621.9060998409986,Correct,sub_001_day_13_data.csv,1,300,119.0,Training at home,,,,,,,,,,,,,
1,13,2988,A,66.3715017243577,86.1323021059158,3.318575086217885,1.3529630376636088,A,2048.548999708146,Correct,sub_001_day_13_data.csv,1,300,119.0,Training at home,,,,,,,,,,,,,
1,13,2989,A,61.706799765035306,77.09912121308811,3.085339988251765,1.211070164006333,B,832.9386999830604,Incorrect,sub_001_day_13_data.csv,0,300,119.0,Training at home,,,,,,,,,,,,,
1,13,2990,A,66.13000840858832,79.24630815773888,3.306500420429416,1.244798097662327,A,1167.0377003028989,Correct,sub_001_day_13_data.csv,1,300,119.0,Training at home,,,,,,,,,,,,,
1,13,2991,B,50.188669123984255,33.4320071350714,2.5094334561992127,0.5251487400515094,B,665.4489999637008,Correct,sub_001_day_13_data.csv,1,300,119.0,Training at home,,,,,,,,,,,,,
1,13,2992,B,69.73429317592777,58.471602659612294,3.4867146587963886,0.9184697867952968,B,1280.1677002571523,Correct,sub_001_day_13_data.csv,1,300,119.0,Training at home,,,,,,,,,,,,,
1,13,2993,B,49.708221929239784,19.69779674598548,2.485411096461989,0.3094122677454646,B,1281.7830997519195,Correct,sub_001_day_13_data.csv,1,300,119.0,Training at home,,,,,,,,,,,,,
1,13,2994,A,46.11515136103492,53.86037272213953,2.305757568051746,0.8460367563174083,A,1719.3394997157156,Correct,sub_001_day_13_data.csv,1,300,119.0,Training at home,,,,,,,,,,,,,
1,13,2995,B,45.19698818201143,22.294910619410395,2.2598494091005716,0.3502076370719038,B,942.2629000619054,Correct,sub_001_day_13_data.csv,1,300,119.0,Training at home,,,,,,,,,,,,,
1,13,2996,A,53.73098157897219,78.38219448504832,2.6865490789486097,1.231224631832371,A,4308.865400031209,Correct,sub_001_day_13_data.csv,1,300,119.0,Training at home,,,,,,,,,,,,,
1,13,2997,A,19.00486222827951,46.44476794413417,0.9502431114139754,0.729552708854873,B,1989.3817002885044,Incorrect,sub_001_day_13_data.csv,0,300,119.0,Training at home,,,,,,,,,,,,,
1,13,2998,B,88.85222639342626,65.56616508211405,4.442611319671313,1.0299109127301256,B,1193.211100064218,Correct,sub_001_day_13_data.csv,1,300,119.0,Training at home,,,,,,,,,,,,,
1,13,2999,B,33.62715200215334,17.352583726482575,1.6813576001076669,0.2725737477795972,B,643.7618001364172,Correct,sub_001_day_13_data.csv,1,300,119.0,Training at home,,,,,,,,,,,,,
