subject,day,trial,cat,x,y,xt,yt,resp,rt,fb,f_name,acc,n_trials,block,session_type,ns_left_digit,ns_right_digit,ns_left_size,ns_right_size,ns_congruent,ns_cue,ns_correct_side,ns_resp,ns_rt,ns_fb,acc_stroop,acc_stroop_mean,resp_key
1,2,0,B,70.70014697254044,60.60378319746795,3.5350073486270217,0.9519620003645692,B,825.4095001611859,Correct,sub_001_day_02_data.csv,1,300,0.0,Training at home,,,,,,,,,,,,,
1,2,1,A,28.912223787030584,51.22899843530212,1.445611189351529,0.8047032256755406,A,1610.1641000714153,Correct,sub_001_day_02_data.csv,1,300,0.0,Training at home,,,,,,,,,,,,,
1,2,2,A,25.281717880291673,55.857541083899115,1.2640858940145836,0.8774082035838375,A,944.2965001799166,Correct,sub_001_day_02_data.csv,1,300,0.0,Training at home,,,,,,,,,,,,,
1,2,3,B,40.61048559443952,12.693635141358868,2.030524279721976,0.1993911545372113,B,867.5005999393761,Correct,sub_001_day_02_data.csv,1,300,0.0,Training at home,,,,,,,,,,,,,
1,2,4,B,45.79687190020244,22.39667551838433,2.289843595010122,0.3518061563669529,B,637.3475000727922,Correct,sub_001_day_02_data.csv,1,300,0.0,Training at home,,,,,,,,,,,,,
1,2,5,A,11.274367588036906,37.6431756030981,0.5637183794018453,0.5912976196624177,A,933.5000000428408,Correct,sub_001_day_02_data.csv,1,300,0.0,Training at home,,,,,,,,,,,,,
1,2,6,A,19.279717496744436,50.488643678379034,0.963985874837222,0.7930737603485416,A,647.6257001049817,Correct,sub_001_day_02_data.csv,1,300,0.0,Training at home,,,,,,,,,,,,,
1,2,7,B,71.58711075134157,53.206393268871174,3.5793555375670785,0.8357640710874755,B,400.4538999870419,Correct,sub_001_day_02_data.csv,1,300,0.0,Training at home,,,,,,,,,,,,,
1,2,8,B,35.548696111789226,12.840853949102236,1.7774348055894615,0.2017036621615953,B,699.320999905467,Correct,sub_001_day_02_data.csv,1,300,0.0,Training at home,,,,,,,,,,,,,
1,2,9,A,50.59932472157494,62.27693552268015,2.5299662360787467,0.978243815630686,B,1277.3597999475896,Incorrect,sub_001_day_02_data.csv,0,300,0.0,Training at home,,,,,,,,,,,,,
1,2,10,A,54.69194725541286,82.08913354128192,2.7345973627706432,1.289453094364214,B,844.0745000261813,Incorrect,sub_001_day_02_data.csv,0,300,0.0,Training at home,,,,,,,,,,,,,
1,2,11,A,65.6114441911218,85.72446991878017,3.28057220955609,1.3465568246485948,B,509.1303999070078,Incorrect,sub_001_day_02_data.csv,0,300,0.0,Training at home,,,,,,,,,,,,,
1,2,12,B,71.30385834694765,57.95817192128608,3.565192917347382,0.9104048356170328,B,861.051500076428,Correct,sub_001_day_02_data.csv,1,300,0.0,Training at home,,,,,,,,,,,,,
1,2,13,B,72.48349539677356,44.947816127221905,3.624174769838678,0.7060386447009257,B,868.3647001162171,Correct,sub_001_day_02_data.csv,1,300,0.0,Training at home,,,,,,,,,,,,,
1,2,14,B,69.5965905104362,48.83733998915597,3.47982952552181,0.7671351426539971,B,550.0151999294758,Correct,sub_001_day_02_data.csv,1,300,0.0,Training at home,,,,,,,,,,,,,
1,2,15,A,63.651243417196575,74.62654940742537,3.182562170859829,1.1722310969056164,A,1018.5513000469656,Correct,sub_001_day_02_data.csv,1,300,0.0,Training at home,,,,,,,,,,,,,
1,2,16,B,34.828431730603235,13.58302604574714,1.7414215865301617,0.2133616741941901,B,2178.1184999272227,Correct,sub_001_day_02_data.csv,1,300,0.0,Training at home,,,,,,,,,,,,,
1,2,17,B,66.71966312444141,50.72526037772087,3.3359831562220705,0.7967905267703865,B,1537.4700999818742,Correct,sub_001_day_02_data.csv,1,300,0.0,Training at home,,,,,,,,,,,,,
1,2,18,B,42.39637789656451,30.04698400765589,2.1198188948282257,0.4719769211049086,A,747.3801001906395,Incorrect,sub_001_day_02_data.csv,0,300,0.0,Training at home,,,,,,,,,,,,,
1,2,19,A,60.552380485761915,75.59504716037145,3.0276190242880956,1.1874442240339846,A,884.0987998992205,Correct,sub_001_day_02_data.csv,1,300,0.0,Training at home,,,,,,,,,,,,,
1,2,20,B,68.33013749842326,50.72844012822538,3.4165068749211627,0.7968404741745126,B,2037.3758999630809,Correct,sub_001_day_02_data.csv,1,300,0.0,Training at home,,,,,,,,,,,,,
1,2,21,B,77.34540463964258,64.4471033402413,3.867270231982129,1.0123327319942217,B,751.0820999741554,Correct,sub_001_day_02_data.csv,1,300,0.0,Training at home,,,,,,,,,,,,,
1,2,22,A,64.04862436316647,76.86098056534516,3.2024312181583237,1.2073294594589812,A,1421.3241999968886,Correct,sub_001_day_02_data.csv,1,300,0.0,Training at home,,,,,,,,,,,,,
1,2,23,A,32.177313907075515,42.99282018149209,1.608865695353776,0.6753296401964127,A,517.805399838835,Correct,sub_001_day_02_data.csv,1,300,0.0,Training at home,,,,,,,,,,,,,
1,2,24,B,72.87718375745976,46.12930572519054,3.643859187872988,0.7245974399072809,A,1101.0499000549316,Incorrect,sub_001_day_02_data.csv,0,300,0.0,Training at home,,,,,,,,,,,,,
1,2,25,A,43.89189375966503,62.74655546199529,2.1945946879832516,0.9856205883873446,A,892.1251001302153,Correct,sub_001_day_02_data.csv,1,300,1.0,Training at home,,,,,,,,,,,,,
1,2,26,A,34.8600343258779,48.38059292649319,1.7430017162938949,0.7599605765709466,A,1035.6190998572856,Correct,sub_001_day_02_data.csv,1,300,1.0,Training at home,,,,,,,,,,,,,
1,2,27,A,48.969026330781254,78.11420916922509,2.4484513165390625,1.22701512833507,A,1458.2150001078844,Correct,sub_001_day_02_data.csv,1,300,1.0,Training at home,,,,,,,,,,,,,
1,2,28,B,49.763544061240424,18.67019042660223,2.4881772030620213,0.2932706654266802,B,844.5222000591457,Correct,sub_001_day_02_data.csv,1,300,1.0,Training at home,,,,,,,,,,,,,
1,2,29,B,75.65980060253455,44.08612986302547,3.782990030126728,0.692503308514432,B,1086.7670997977257,Correct,sub_001_day_02_data.csv,1,300,1.0,Training at home,,,,,,,,,,,,,
1,2,30,A,59.74338482758373,72.28313617151616,2.9871692413791866,1.135420847874329,A,1011.7061999626458,Correct,sub_001_day_02_data.csv,1,300,1.0,Training at home,,,,,,,,,,,,,
1,2,31,A,57.95180465013952,85.75533301040866,2.8975902325069764,1.3470416209582308,A,867.326800012961,Correct,sub_001_day_02_data.csv,1,300,1.0,Training at home,,,,,,,,,,,,,
1,2,32,A,53.755491756526816,61.506245244370014,2.687774587826341,0.966137841048025,A,947.6331998594104,Correct,sub_001_day_02_data.csv,1,300,1.0,Training at home,,,,,,,,,,,,,
1,2,33,B,69.45256669080001,43.850537742624766,3.472628334540001,0.6888026361409596,B,944.66400006786,Correct,sub_001_day_02_data.csv,1,300,1.0,Training at home,,,,,,,,,,,,,
1,2,34,B,47.56183535258621,38.113060584276354,2.3780917676293103,0.5986785556869265,A,1249.8735000845045,Incorrect,sub_001_day_02_data.csv,0,300,1.0,Training at home,,,,,,,,,,,,,
1,2,35,B,50.579513395235494,40.99146502002964,2.528975669761775,0.6438924268340406,B,635.2581998798996,Correct,sub_001_day_02_data.csv,1,300,1.0,Training at home,,,,,,,,,,,,,
1,2,36,A,46.159246776296015,69.33495214667504,2.307962338814801,1.0891108815049708,B,514.0647999942303,Incorrect,sub_001_day_02_data.csv,0,300,1.0,Training at home,,,,,,,,,,,,,
1,2,37,B,50.52176411945702,24.38492548641394,2.526088205972851,0.3830375138322627,B,886.0826001036912,Correct,sub_001_day_02_data.csv,1,300,1.0,Training at home,,,,,,,,,,,,,
1,2,38,A,61.84812003991827,84.7165967780613,3.0924060019959136,1.330725190375431,A,1095.6553001888096,Correct,sub_001_day_02_data.csv,1,300,1.0,Training at home,,,,,,,,,,,,,
1,2,39,A,55.93444625419596,69.39749577607404,2.796722312709798,1.0900933145382143,A,940.0088000111282,Correct,sub_001_day_02_data.csv,1,300,1.0,Training at home,,,,,,,,,,,,,
1,2,40,B,60.97156842660506,53.86910071243221,3.048578421330254,0.8461738552683287,B,716.9039000291377,Correct,sub_001_day_02_data.csv,1,300,1.0,Training at home,,,,,,,,,,,,,
1,2,41,B,33.38745180609962,18.314972681834057,1.669372590304981,0.2876909181397381,A,1395.1155999675393,Incorrect,sub_001_day_02_data.csv,0,300,1.0,Training at home,,,,,,,,,,,,,
1,2,42,B,71.75850251314414,58.82523341338382,3.587925125657207,0.9240246056859572,B,596.618500072509,Correct,sub_001_day_02_data.csv,1,300,1.0,Training at home,,,,,,,,,,,,,
1,2,43,A,51.442951526208816,67.67162011212791,2.572147576310441,1.0629833230039016,A,2569.358899956569,Correct,sub_001_day_02_data.csv,1,300,1.0,Training at home,,,,,,,,,,,,,
1,2,44,B,78.285583656976,51.96446733379724,3.9142791828488,0.816255944117821,B,569.4198999553919,Correct,sub_001_day_02_data.csv,1,300,1.0,Training at home,,,,,,,,,,,,,
1,2,45,B,71.66609688044159,40.31599550671863,3.5833048440220794,0.6332821765303317,A,683.1331998109818,Incorrect,sub_001_day_02_data.csv,0,300,1.0,Training at home,,,,,,,,,,,,,
1,2,46,A,45.98119251611518,56.26007714278217,2.299059625805759,0.8837312252107976,A,702.2770000621676,Correct,sub_001_day_02_data.csv,1,300,1.0,Training at home,,,,,,,,,,,,,
1,2,47,B,81.20292326240263,65.87452483588982,4.060146163120132,1.0347546164157493,A,670.4367999918759,Incorrect,sub_001_day_02_data.csv,0,300,1.0,Training at home,,,,,,,,,,,,,
1,2,48,B,78.92744952540633,53.39054627515441,3.9463724762703167,0.8386567397458549,B,685.3831999469548,Correct,sub_001_day_02_data.csv,1,300,1.0,Training at home,,,,,,,,,,,,,
1,2,49,B,45.261025643299696,21.41392632479281,2.2630512821649846,0.3363691681324108,B,800.5611000116915,Correct,sub_001_day_02_data.csv,1,300,1.0,Training at home,,,,,,,,,,,,,
1,2,50,A,54.01870827990977,77.20831690279333,2.7009354139954884,1.2127854058892409,A,1100.5534001160413,Correct,sub_001_day_02_data.csv,1,300,2.0,Training at home,,,,,,,,,,,,,
1,2,51,A,45.405334081359214,75.39165679910248,2.2702667040679607,1.1842493757101165,A,700.0818999949843,Correct,sub_001_day_02_data.csv,1,300,2.0,Training at home,,,,,,,,,,,,,
1,2,52,B,70.43950719853937,42.47852107014599,3.521975359926969,0.6672510486466493,B,689.1484998632222,Correct,sub_001_day_02_data.csv,1,300,2.0,Training at home,,,,,,,,,,,,,
1,2,53,B,39.83894801262562,23.060535231166803,1.9919474006312812,0.3622340403504111,A,680.386200081557,Incorrect,sub_001_day_02_data.csv,0,300,2.0,Training at home,,,,,,,,,,,,,
1,2,54,A,29.16323340498012,46.966318078331554,1.458161670249006,0.7377451992052395,B,853.2180001493543,Incorrect,sub_001_day_02_data.csv,0,300,2.0,Training at home,,,,,,,,,,,,,
1,2,55,A,45.363586745524586,58.420537339625625,2.268179337276229,0.9176676546246804,B,1542.2716001048684,Incorrect,sub_001_day_02_data.csv,0,300,2.0,Training at home,,,,,,,,,,,,,
1,2,56,B,56.4733561971025,32.69070397189197,2.823667809855125,0.5135043771938724,B,914.3796002026648,Correct,sub_001_day_02_data.csv,1,300,2.0,Training at home,,,,,,,,,,,,,
1,2,57,B,62.94814052109787,44.83418127529525,3.147407026054894,0.7042536726209031,B,691.4429999887943,Correct,sub_001_day_02_data.csv,1,300,2.0,Training at home,,,,,,,,,,,,,
1,2,58,B,42.752119598979746,21.551950147097887,2.137605979948987,0.3385372412632809,A,602.5040000677109,Incorrect,sub_001_day_02_data.csv,0,300,2.0,Training at home,,,,,,,,,,,,,
1,2,59,B,59.193230012072235,40.591524586608045,2.959661500603612,0.6376101771964865,B,864.35899999924,Correct,sub_001_day_02_data.csv,1,300,2.0,Training at home,,,,,,,,,,,,,
1,2,60,B,74.982700792984,62.597682497394885,3.7491350396492,0.9832820973278108,B,1219.580200035125,Correct,sub_001_day_02_data.csv,1,300,2.0,Training at home,,,,,,,,,,,,,
1,2,61,A,26.961328571220943,48.04380246394834,1.3480664285610473,0.7546702843562966,A,1313.7242998927832,Correct,sub_001_day_02_data.csv,1,300,2.0,Training at home,,,,,,,,,,,,,
1,2,62,A,59.86707227012892,70.80060593260626,2.9933536135064465,1.1121333173379089,B,2482.146800030023,Incorrect,sub_001_day_02_data.csv,0,300,2.0,Training at home,,,,,,,,,,,,,
1,2,63,A,55.042365394318,79.48417493201833,2.7521182697158997,1.248534500215374,A,700.485099805519,Correct,sub_001_day_02_data.csv,1,300,2.0,Training at home,,,,,,,,,,,,,
1,2,64,A,40.81327005054552,70.77081909614816,2.040663502527276,1.1116654268049566,A,1443.063500104472,Correct,sub_001_day_02_data.csv,1,300,2.0,Training at home,,,,,,,,,,,,,
1,2,65,B,51.62161205080205,39.46741282602064,2.5810806025401023,0.61995267095211,B,2712.442300049588,Correct,sub_001_day_02_data.csv,1,300,2.0,Training at home,,,,,,,,,,,,,
1,2,66,B,79.91396947509611,53.742994193899335,3.9956984737548056,0.8441929787073653,B,2273.968599969521,Correct,sub_001_day_02_data.csv,1,300,2.0,Training at home,,,,,,,,,,,,,
1,2,67,B,48.937309530678746,39.936333723428206,2.4468654765339375,0.6273184631841617,A,792.066500056535,Incorrect,sub_001_day_02_data.csv,0,300,2.0,Training at home,,,,,,,,,,,,,
1,2,68,B,79.39341268793433,58.446850340859235,3.969670634396716,0.9180809782815272,B,618.926800088957,Correct,sub_001_day_02_data.csv,1,300,2.0,Training at home,,,,,,,,,,,,,
1,2,69,A,12.705812967314706,38.236673860037556,0.6352906483657353,0.6006202684820143,A,678.0679998919368,Correct,sub_001_day_02_data.csv,1,300,2.0,Training at home,,,,,,,,,,,,,
1,2,70,A,27.49312392777659,60.14279779158914,1.3746561963888295,0.9447208585419644,A,800.242500146851,Correct,sub_001_day_02_data.csv,1,300,2.0,Training at home,,,,,,,,,,,,,
1,2,71,A,22.38609431040748,47.37881816681997,1.119304715520374,0.7442247354432412,A,603.1232001259923,Correct,sub_001_day_02_data.csv,1,300,2.0,Training at home,,,,,,,,,,,,,
1,2,72,B,77.47854443578092,58.72149224637836,3.873927221789046,0.9223950432452612,B,596.8538001179695,Correct,sub_001_day_02_data.csv,1,300,2.0,Training at home,,,,,,,,,,,,,
1,2,73,B,81.94444480436766,54.37188876995523,4.097222240218383,0.8540716316074637,B,496.6541000176221,Correct,sub_001_day_02_data.csv,1,300,2.0,Training at home,,,,,,,,,,,,,
1,2,74,A,50.265834925805954,63.73804684125554,2.5132917462902977,1.0011948985532526,A,1537.3947001062334,Correct,sub_001_day_02_data.csv,1,300,2.0,Training at home,,,,,,,,,,,,,
1,2,75,A,25.43443310537581,42.13243508310587,1.2717216552687904,0.6618147426746713,A,593.5833998955786,Correct,sub_001_day_02_data.csv,1,300,3.0,Training at home,,,,,,,,,,,,,
1,2,76,B,56.35509865191512,39.854210310606966,2.817754932595756,0.6260284716321272,B,933.9190002065152,Correct,sub_001_day_02_data.csv,1,300,3.0,Training at home,,,,,,,,,,,,,
1,2,77,B,46.98013775038254,36.77762380181121,2.349006887519127,0.577701563761296,A,1606.2693998683244,Incorrect,sub_001_day_02_data.csv,0,300,3.0,Training at home,,,,,,,,,,,,,
1,2,78,B,70.65907493174518,38.11753569750097,3.532953746587259,0.5987488506010786,B,1259.473199956119,Correct,sub_001_day_02_data.csv,1,300,3.0,Training at home,,,,,,,,,,,,,
1,2,79,A,56.608924664466514,64.93479026644525,2.8304462332233253,1.019993300317292,B,529.8967000562698,Incorrect,sub_001_day_02_data.csv,0,300,3.0,Training at home,,,,,,,,,,,,,
1,2,80,B,58.46764157936035,27.67397469426268,2.9233820789680176,0.4347017779756274,B,730.6490999180824,Correct,sub_001_day_02_data.csv,1,300,3.0,Training at home,,,,,,,,,,,,,
1,2,81,B,40.86040958731055,23.117089250965194,2.0430204793655276,0.363122388816059,B,1397.3310999572277,Correct,sub_001_day_02_data.csv,1,300,3.0,Training at home,,,,,,,,,,,,,
1,2,82,B,32.447476439218704,17.09605146921333,1.6223738219609352,0.2685441485053679,B,1388.9961000531912,Correct,sub_001_day_02_data.csv,1,300,3.0,Training at home,,,,,,,,,,,,,
1,2,83,A,46.056897653018595,61.60136634039169,2.30284488265093,0.9676319997303404,A,1084.7177000250667,Correct,sub_001_day_02_data.csv,1,300,3.0,Training at home,,,,,,,,,,,,,
1,2,84,A,37.205081038428176,57.080572444347894,1.8602540519214088,0.8966195352693166,A,701.682599959895,Correct,sub_001_day_02_data.csv,1,300,3.0,Training at home,,,,,,,,,,,,,
1,2,85,B,50.35569918454155,42.18394653262827,2.5177849592270776,0.662623882631648,A,807.9624001402408,Incorrect,sub_001_day_02_data.csv,0,300,3.0,Training at home,,,,,,,,,,,,,
1,2,86,A,18.617634674022888,40.20532480228819,0.9308817337011444,0.6315437651703004,A,818.8188001513481,Correct,sub_001_day_02_data.csv,1,300,3.0,Training at home,,,,,,,,,,,,,
1,2,87,A,45.945219167080374,54.82539364820286,2.297260958354019,0.861195269576813,B,2139.6415000781417,Incorrect,sub_001_day_02_data.csv,0,300,3.0,Training at home,,,,,,,,,,,,,
1,2,88,A,40.456751752967534,55.68032274021479,2.0228375876483766,0.8746244643508373,A,1625.7636998780072,Correct,sub_001_day_02_data.csv,1,300,3.0,Training at home,,,,,,,,,,,,,
1,2,89,B,82.82155644874024,66.29369634828413,4.141077822437012,1.0413389471354098,B,1201.393499970436,Correct,sub_001_day_02_data.csv,1,300,3.0,Training at home,,,,,,,,,,,,,
1,2,90,B,71.93073521830237,58.41416425721533,3.596536760915119,0.917567546480276,B,584.8598999436945,Correct,sub_001_day_02_data.csv,1,300,3.0,Training at home,,,,,,,,,,,,,
1,2,91,B,43.70423824109811,30.4802097358849,2.185211912054905,0.4787820149306604,A,2335.373100126162,Incorrect,sub_001_day_02_data.csv,0,300,3.0,Training at home,,,,,,,,,,,,,
1,2,92,B,41.97790925398223,19.60780668758495,2.0988954626991116,0.3079987072136285,A,645.1324999798089,Incorrect,sub_001_day_02_data.csv,0,300,3.0,Training at home,,,,,,,,,,,,,
1,2,93,B,73.07617156833636,43.95180125380122,3.653808578416818,0.6903932796549028,B,582.434399984777,Correct,sub_001_day_02_data.csv,1,300,3.0,Training at home,,,,,,,,,,,,,
1,2,94,A,54.776384764306414,73.49069544888508,2.7388192382153203,1.154389144647111,B,722.0918999519199,Incorrect,sub_001_day_02_data.csv,0,300,3.0,Training at home,,,,,,,,,,,,,
1,2,95,B,38.594343738501976,23.1551489304301,1.9297171869250989,0.3637202288630838,B,6132.81390001066,Correct,sub_001_day_02_data.csv,1,300,3.0,Training at home,,,,,,,,,,,,,
1,2,96,A,39.27145600181203,59.85543420964564,1.9635728000906016,0.9402069619522496,A,1370.654699858278,Correct,sub_001_day_02_data.csv,1,300,3.0,Training at home,,,,,,,,,,,,,
1,2,97,B,45.279326536210235,26.22788276509756,2.263966326810512,0.4119866190702242,B,812.7393999602646,Correct,sub_001_day_02_data.csv,1,300,3.0,Training at home,,,,,,,,,,,,,
1,2,98,B,51.18862499607676,21.93286971955499,2.559431249803838,0.3445207119154799,B,781.3084998633713,Correct,sub_001_day_02_data.csv,1,300,3.0,Training at home,,,,,,,,,,,,,
1,2,99,A,27.71103501242573,37.32865123193078,1.3855517506212864,0.5863570823932466,A,997.4189000204206,Correct,sub_001_day_02_data.csv,1,300,3.0,Training at home,,,,,,,,,,,,,
1,2,100,A,58.48810324236085,71.89289698408359,2.9244051621180427,1.1292909850524242,A,1574.803400086239,Correct,sub_001_day_02_data.csv,1,300,4.0,Training at home,,,,,,,,,,,,,
1,2,101,B,81.30567059868062,55.29278227027906,4.065283529934032,0.8685369928842434,B,782.6071998570114,Correct,sub_001_day_02_data.csv,1,300,4.0,Training at home,,,,,,,,,,,,,
1,2,102,B,76.8412240847543,54.291884381449776,3.842061204237715,0.8528149256115451,B,556.3455999363214,Correct,sub_001_day_02_data.csv,1,300,4.0,Training at home,,,,,,,,,,,,,
1,2,103,A,37.0464951639656,68.67820360265193,1.85232475819828,1.0787946994991768,A,636.6804998833686,Correct,sub_001_day_02_data.csv,1,300,4.0,Training at home,,,,,,,,,,,,,
1,2,104,B,47.136672762860066,27.65795450589099,2.3568336381430033,0.4344501334451392,B,1297.0253999810666,Correct,sub_001_day_02_data.csv,1,300,4.0,Training at home,,,,,,,,,,,,,
1,2,105,A,44.89740044635859,77.17772554807263,2.24487002231793,1.2123048780129717,A,772.3224998917431,Correct,sub_001_day_02_data.csv,1,300,4.0,Training at home,,,,,,,,,,,,,
1,2,106,B,46.55230821882614,37.61449073499396,2.327615410941307,0.5908470388078919,B,1285.8034998644143,Correct,sub_001_day_02_data.csv,1,300,4.0,Training at home,,,,,,,,,,,,,
1,2,107,A,37.0441827947402,46.90471244031539,1.8522091397370104,0.7367775001061831,B,1361.6309999488294,Incorrect,sub_001_day_02_data.csv,0,300,4.0,Training at home,,,,,,,,,,,,,
1,2,108,A,32.01506232633244,64.02903013602207,1.600753116316622,1.005765653459032,A,967.33419992961,Correct,sub_001_day_02_data.csv,1,300,4.0,Training at home,,,,,,,,,,,,,
1,2,109,A,12.768866715253829,36.95093321999658,0.6384433357626914,0.5804239017361414,A,838.1498998496681,Correct,sub_001_day_02_data.csv,1,300,4.0,Training at home,,,,,,,,,,,,,
1,2,110,A,40.09185039131359,58.05514610299406,2.0045925195656795,0.9119281025012412,A,722.8234999347478,Correct,sub_001_day_02_data.csv,1,300,4.0,Training at home,,,,,,,,,,,,,
1,2,111,B,49.66590971914295,33.37354700712829,2.483295485957147,0.5242304505091392,B,768.7361999414861,Correct,sub_001_day_02_data.csv,1,300,4.0,Training at home,,,,,,,,,,,,,
1,2,112,A,59.9492373583959,76.20180013977631,2.997461867919794,1.1969750775471946,A,663.5739000048488,Correct,sub_001_day_02_data.csv,1,300,4.0,Training at home,,,,,,,,,,,,,
1,2,113,B,58.90663634379036,26.36841160396188,2.945331817189518,0.4141940409091925,A,991.336999926716,Incorrect,sub_001_day_02_data.csv,0,300,4.0,Training at home,,,,,,,,,,,,,
1,2,114,A,22.670723159020124,49.72813236248498,1.1335361579510062,0.7811276765336183,A,1067.604900104925,Correct,sub_001_day_02_data.csv,1,300,4.0,Training at home,,,,,,,,,,,,,
1,2,115,A,57.255014115806944,77.99473186055626,2.862750705790347,1.2251383831591462,B,1745.2053998131305,Incorrect,sub_001_day_02_data.csv,0,300,4.0,Training at home,,,,,,,,,,,,,
1,2,116,B,41.772233087377344,24.97299340864292,2.0886116543688673,0.3922748631536946,B,849.5654999278486,Correct,sub_001_day_02_data.csv,1,300,4.0,Training at home,,,,,,,,,,,,,
1,2,117,A,22.82391764090841,43.26011966350745,1.1411958820454204,0.6795283706414518,A,669.0213999245316,Correct,sub_001_day_02_data.csv,1,300,4.0,Training at home,,,,,,,,,,,,,
1,2,118,A,11.956117089037978,35.00390930887657,0.5978058544518988,0.5498401216584501,A,903.2609998248518,Correct,sub_001_day_02_data.csv,1,300,4.0,Training at home,,,,,,,,,,,,,
1,2,119,A,56.30942955417676,73.99904138860308,2.815471477708838,1.1623742239956123,B,3032.4266001116484,Incorrect,sub_001_day_02_data.csv,0,300,4.0,Training at home,,,,,,,,,,,,,
1,2,120,B,81.44097734463149,65.64049077796676,4.072048867231575,1.0310784180304446,B,660.0116000045091,Correct,sub_001_day_02_data.csv,1,300,4.0,Training at home,,,,,,,,,,,,,
1,2,121,A,26.046376632207735,46.4134567084413,1.3023188316103866,0.7290608731147356,A,607.7825999818742,Correct,sub_001_day_02_data.csv,1,300,4.0,Training at home,,,,,,,,,,,,,
1,2,122,B,41.320629372195626,22.333001187358786,2.066031468609782,0.3508059623140923,B,1414.8816000670197,Correct,sub_001_day_02_data.csv,1,300,4.0,Training at home,,,,,,,,,,,,,
1,2,123,B,86.82685084732458,61.546205502213695,4.341342542366229,0.9667655353104112,B,589.7843998391181,Correct,sub_001_day_02_data.csv,1,300,4.0,Training at home,,,,,,,,,,,,,
1,2,124,B,62.11289430366749,37.29876466967709,3.105644715183374,0.5858876253711602,B,1386.077299946919,Correct,sub_001_day_02_data.csv,1,300,4.0,Training at home,,,,,,,,,,,,,
1,2,125,B,70.18713752434864,52.6825078618668,3.5093568762174323,0.8275348983576363,B,711.523000150919,Correct,sub_001_day_02_data.csv,1,300,5.0,Training at home,,,,,,,,,,,,,
1,2,126,B,52.05027648627637,30.41977157741885,2.6025138243138186,0.4778326545574933,B,686.1485000699759,Correct,sub_001_day_02_data.csv,1,300,5.0,Training at home,,,,,,,,,,,,,
1,2,127,B,71.08352384642178,38.28275824989493,3.554176192321089,0.6013441603851198,B,832.096999976784,Correct,sub_001_day_02_data.csv,1,300,5.0,Training at home,,,,,,,,,,,,,
1,2,128,A,45.29572088659999,69.5701296467462,2.264786044329999,1.0928050410375365,A,1047.382700024173,Correct,sub_001_day_02_data.csv,1,300,5.0,Training at home,,,,,,,,,,,,,
1,2,129,B,58.570895705145126,44.363999127605545,2.9285447852572566,0.6968680687157478,B,1320.441999938339,Correct,sub_001_day_02_data.csv,1,300,5.0,Training at home,,,,,,,,,,,,,
1,2,130,A,35.37237518314034,53.38971847650367,1.7686187591570173,0.8386437367150559,A,659.8998999688774,Correct,sub_001_day_02_data.csv,1,300,5.0,Training at home,,,,,,,,,,,,,
1,2,131,B,52.823141329487775,43.39129435273173,2.6411570664743884,0.6815888578414714,B,1130.8317999355495,Correct,sub_001_day_02_data.csv,1,300,5.0,Training at home,,,,,,,,,,,,,
1,2,132,A,19.265183580105877,47.1029718970397,0.963259179005294,0.739891752369932,A,697.0633999444544,Correct,sub_001_day_02_data.csv,1,300,5.0,Training at home,,,,,,,,,,,,,
1,2,133,B,54.18475541615766,26.727429295723205,2.7092377708078828,0.4198334776239232,A,602.4452999699861,Incorrect,sub_001_day_02_data.csv,0,300,5.0,Training at home,,,,,,,,,,,,,
1,2,134,A,41.319353940986886,54.622360812020034,2.065967697049345,0.8580060372438658,A,716.5578999556601,Correct,sub_001_day_02_data.csv,1,300,5.0,Training at home,,,,,,,,,,,,,
1,2,135,B,82.93505122822484,53.49592161814904,4.146752561411242,0.8403119717629621,B,694.7387000545859,Correct,sub_001_day_02_data.csv,1,300,5.0,Training at home,,,,,,,,,,,,,
1,2,136,A,21.015365705869,34.97561631573886,1.05076828529345,0.5493956963615025,A,582.5798001606017,Correct,sub_001_day_02_data.csv,1,300,5.0,Training at home,,,,,,,,,,,,,
1,2,137,B,40.01827768562125,18.407261735115917,2.0009138842810628,0.2891405911987234,B,1475.58890003711,Correct,sub_001_day_02_data.csv,1,300,5.0,Training at home,,,,,,,,,,,,,
1,2,138,A,46.71771242100316,73.08967925350258,2.335885621050158,1.14808999698019,A,1143.3809997979552,Correct,sub_001_day_02_data.csv,1,300,5.0,Training at home,,,,,,,,,,,,,
1,2,139,A,32.79610815900302,49.11014798887798,1.639805407950151,0.7714204006928334,B,701.3264999259263,Incorrect,sub_001_day_02_data.csv,0,300,5.0,Training at home,,,,,,,,,,,,,
1,2,140,B,86.25912382665257,68.38189210398448,4.312956191332629,1.0741402493622376,B,1922.5651000160724,Correct,sub_001_day_02_data.csv,1,300,5.0,Training at home,,,,,,,,,,,,,
1,2,141,B,71.10268973911221,60.557222450661456,3.5551344869556103,0.9512306258640046,B,587.4659998808056,Correct,sub_001_day_02_data.csv,1,300,5.0,Training at home,,,,,,,,,,,,,
1,2,142,B,44.56998508893375,22.16118369360321,2.2284992544466875,0.3481070594333888,B,917.7568999584764,Correct,sub_001_day_02_data.csv,1,300,5.0,Training at home,,,,,,,,,,,,,
1,2,143,A,52.015010581975744,74.40500965111376,2.600750529098787,1.168751158551083,A,880.9358000289649,Correct,sub_001_day_02_data.csv,1,300,5.0,Training at home,,,,,,,,,,,,,
1,2,144,B,82.81068855354243,65.05503089361179,4.140534427677122,1.0218820356721392,B,697.2900000400841,Correct,sub_001_day_02_data.csv,1,300,5.0,Training at home,,,,,,,,,,,,,
1,2,145,A,49.44234503779416,71.95174962940357,2.472117251889708,1.1302154402433318,B,1013.2780999410896,Incorrect,sub_001_day_02_data.csv,0,300,5.0,Training at home,,,,,,,,,,,,,
1,2,146,B,87.08275253809589,62.232425180967226,4.3541376269047944,0.9775446488180156,B,475.75949993915856,Correct,sub_001_day_02_data.csv,1,300,5.0,Training at home,,,,,,,,,,,,,
1,2,147,B,62.92849034063668,30.512875676804352,3.146424517031834,0.4792951303307363,B,2239.864399889484,Correct,sub_001_day_02_data.csv,1,300,5.0,Training at home,,,,,,,,,,,,,
1,2,148,B,41.23423107585846,19.66135021369487,2.0617115537929234,0.3088397669549996,B,2106.4480000641197,Correct,sub_001_day_02_data.csv,1,300,5.0,Training at home,,,,,,,,,,,,,
1,2,149,A,33.10941557914781,50.65030032543519,1.6554707789573906,0.7956130570225195,B,1791.6796000208706,Incorrect,sub_001_day_02_data.csv,0,300,5.0,Training at home,,,,,,,,,,,,,
1,2,150,B,38.71565706394476,28.472631006397062,1.935782853197238,0.4472470419903498,A,730.627299984917,Incorrect,sub_001_day_02_data.csv,0,300,6.0,Training at home,,,,,,,,,,,,,
1,2,151,B,71.75147768177213,39.31726607678376,3.5875738840886067,0.6175941713302951,B,3693.7150999438018,Correct,sub_001_day_02_data.csv,1,300,6.0,Training at home,,,,,,,,,,,,,
1,2,152,B,53.69060399572942,28.97975514233178,2.684530199786471,0.4552129292899027,B,1154.03819992207,Correct,sub_001_day_02_data.csv,1,300,6.0,Training at home,,,,,,,,,,,,,
1,2,153,B,79.21637422082767,51.53428418357863,3.960818711041384,0.8094986429956964,B,1138.96180014126,Correct,sub_001_day_02_data.csv,1,300,6.0,Training at home,,,,,,,,,,,,,
1,2,154,A,15.211163659594211,35.117845409788856,0.7605581829797106,0.5516298257464736,A,983.071899972856,Correct,sub_001_day_02_data.csv,1,300,6.0,Training at home,,,,,,,,,,,,,
1,2,155,A,48.48741365763442,69.81649568440353,2.424370682881721,1.0966749497075283,A,2176.9087999127805,Correct,sub_001_day_02_data.csv,1,300,6.0,Training at home,,,,,,,,,,,,,
1,2,156,B,69.45395348258084,54.09079850635045,3.4726976741290425,0.8496562760717816,B,716.2299999035895,Correct,sub_001_day_02_data.csv,1,300,6.0,Training at home,,,,,,,,,,,,,
1,2,157,A,35.87015573320966,55.37557528306565,1.793507786660483,0.8698375024879379,A,1281.013999832794,Correct,sub_001_day_02_data.csv,1,300,6.0,Training at home,,,,,,,,,,,,,
1,2,158,B,53.77742918182161,43.24544878849296,2.6888714590910805,0.6792979210756155,B,1058.6694998200985,Correct,sub_001_day_02_data.csv,1,300,6.0,Training at home,,,,,,,,,,,,,
1,2,159,B,33.588452742075674,13.76039401800998,1.6794226371037837,0.2161477637874054,B,3288.801999995485,Correct,sub_001_day_02_data.csv,1,300,6.0,Training at home,,,,,,,,,,,,,
1,2,160,A,23.275858982971464,42.7195074756337,1.1637929491485732,0.6710364542521253,A,702.4796002078801,Correct,sub_001_day_02_data.csv,1,300,6.0,Training at home,,,,,,,,,,,,,
1,2,161,B,38.39700539506933,27.277378115912672,1.9198502697534665,0.4284720534907112,B,948.9256998058408,Correct,sub_001_day_02_data.csv,1,300,6.0,Training at home,,,,,,,,,,,,,
1,2,162,B,46.461414560147425,36.54103653537347,2.3230707280073712,0.5739852596704276,A,1301.1147000361234,Incorrect,sub_001_day_02_data.csv,0,300,6.0,Training at home,,,,,,,,,,,,,
1,2,163,A,52.70958065430334,71.88055441993296,2.635479032715167,1.1290971085081136,A,3132.905899779871,Correct,sub_001_day_02_data.csv,1,300,6.0,Training at home,,,,,,,,,,,,,
1,2,164,B,63.369604840388355,46.11043935606997,3.1684802420194176,0.7243010876741353,B,649.0281000733376,Correct,sub_001_day_02_data.csv,1,300,6.0,Training at home,,,,,,,,,,,,,
1,2,165,B,48.33128429746883,25.63101988564072,2.416564214873441,0.4026111188837138,B,821.1775000672787,Correct,sub_001_day_02_data.csv,1,300,6.0,Training at home,,,,,,,,,,,,,
1,2,166,B,45.238422899942734,33.9924790434381,2.261921144997137,0.5339526122008508,B,699.9263998586684,Correct,sub_001_day_02_data.csv,1,300,6.0,Training at home,,,,,,,,,,,,,
1,2,167,A,50.806459353561415,76.40869112481268,2.5403229676780708,1.2002249135406158,A,3088.7734999414533,Correct,sub_001_day_02_data.csv,1,300,6.0,Training at home,,,,,,,,,,,,,
1,2,168,A,39.462174194844,47.03830009137702,1.9731087097422,0.7388758900221106,A,1801.9486998673528,Correct,sub_001_day_02_data.csv,1,300,6.0,Training at home,,,,,,,,,,,,,
1,2,169,B,53.98371425998794,25.98946214845767,2.699185712999397,0.408241516781723,B,921.5065999887884,Correct,sub_001_day_02_data.csv,1,300,6.0,Training at home,,,,,,,,,,,,,
1,2,170,A,40.592770179659816,72.67928593700306,2.0296385089829907,1.1416435538392038,A,1256.3616998959333,Correct,sub_001_day_02_data.csv,1,300,6.0,Training at home,,,,,,,,,,,,,
1,2,171,A,24.484212169961747,54.7664861652887,1.2242106084980875,0.8602699529989901,A,1175.4338000901043,Correct,sub_001_day_02_data.csv,1,300,6.0,Training at home,,,,,,,,,,,,,
1,2,172,A,60.21721716958275,71.68889027639926,3.0108608584791376,1.1260864551817034,A,717.4011999741197,Correct,sub_001_day_02_data.csv,1,300,6.0,Training at home,,,,,,,,,,,,,
1,2,173,A,48.84729084306365,58.287812707113034,2.4423645421531823,0.9155828209724206,A,679.8618000466377,Correct,sub_001_day_02_data.csv,1,300,6.0,Training at home,,,,,,,,,,,,,
1,2,174,A,51.05582953751988,65.72503425429312,2.552791476875994,1.032406423851124,A,689.4082999788225,Correct,sub_001_day_02_data.csv,1,300,6.0,Training at home,,,,,,,,,,,,,
1,2,175,A,60.514683258969654,80.04698284642224,3.025734162948482,1.2573750662617416,A,666.3085999898612,Correct,sub_001_day_02_data.csv,1,300,7.0,Training at home,,,,,,,,,,,,,
1,2,176,A,24.69581463474961,43.913281380805714,1.2347907317374804,0.6897882109048035,A,1263.2500999607146,Correct,sub_001_day_02_data.csv,1,300,7.0,Training at home,,,,,,,,,,,,,
1,2,177,B,62.49906463822721,53.91288471584924,3.1249532319113604,0.8468616127857269,A,1769.343099789694,Incorrect,sub_001_day_02_data.csv,0,300,7.0,Training at home,,,,,,,,,,,,,
1,2,178,A,48.871047900986994,64.90915395669764,2.4435523950493496,1.019590606105451,A,763.8117000460625,Correct,sub_001_day_02_data.csv,1,300,7.0,Training at home,,,,,,,,,,,,,
1,2,179,A,64.17214286663828,88.46912167209038,3.208607143331914,1.3896697135729037,A,685.9591999091208,Correct,sub_001_day_02_data.csv,1,300,7.0,Training at home,,,,,,,,,,,,,
1,2,180,A,26.767083588470037,56.17918378757744,1.3383541794235017,0.8824605553586206,B,837.6122999470681,Incorrect,sub_001_day_02_data.csv,0,300,7.0,Training at home,,,,,,,,,,,,,
1,2,181,A,25.60921618973846,39.46436097851737,1.280460809486923,0.6199047326436293,A,1577.8564000502229,Correct,sub_001_day_02_data.csv,1,300,7.0,Training at home,,,,,,,,,,,,,
1,2,182,A,24.034390466400993,51.97448565332394,1.2017195233200495,0.8164133115129529,A,3512.1389999985695,Correct,sub_001_day_02_data.csv,1,300,7.0,Training at home,,,,,,,,,,,,,
1,2,183,B,60.74758645712473,30.58249568511088,3.037379322856237,0.4803887188639293,B,968.0133999790996,Correct,sub_001_day_02_data.csv,1,300,7.0,Training at home,,,,,,,,,,,,,
1,2,184,A,31.30946267243153,61.106032702572776,1.5654731336215764,0.9598513171421014,A,666.9334000907838,Correct,sub_001_day_02_data.csv,1,300,7.0,Training at home,,,,,,,,,,,,,
1,2,185,B,67.15342611293478,57.73466131203,3.357671305646739,0.9068939391768416,A,695.3141000121832,Incorrect,sub_001_day_02_data.csv,0,300,7.0,Training at home,,,,,,,,,,,,,
1,2,186,B,83.86416939171005,66.40356825046861,4.193208469585502,1.0430648109391032,B,1192.663799971342,Correct,sub_001_day_02_data.csv,1,300,7.0,Training at home,,,,,,,,,,,,,
1,2,187,A,46.80093299162657,73.46419690528771,2.3400466495813284,1.1539729064976294,A,1916.8960000388324,Correct,sub_001_day_02_data.csv,1,300,7.0,Training at home,,,,,,,,,,,,,
1,2,188,B,61.761151354023454,37.653649570540985,3.088057567701173,0.5914621443582802,B,905.4276999086142,Correct,sub_001_day_02_data.csv,1,300,7.0,Training at home,,,,,,,,,,,,,
1,2,189,B,63.22673502522743,36.00974209074495,3.1613367512613713,0.5656397060497375,B,713.0706999450922,Correct,sub_001_day_02_data.csv,1,300,7.0,Training at home,,,,,,,,,,,,,
1,2,190,B,83.3717085326743,59.65216510164515,4.168585426633715,0.9370140182702694,B,828.4052000381052,Correct,sub_001_day_02_data.csv,1,300,7.0,Training at home,,,,,,,,,,,,,
1,2,191,B,56.47298569392093,39.53895222538418,2.8236492846960464,0.6210764092095237,B,1034.045700216666,Correct,sub_001_day_02_data.csv,1,300,7.0,Training at home,,,,,,,,,,,,,
1,2,192,B,53.59605017962683,35.99156206425422,2.6798025089813415,0.5653541348614106,B,701.1778000742197,Correct,sub_001_day_02_data.csv,1,300,7.0,Training at home,,,,,,,,,,,,,
1,2,193,A,47.87951028415217,61.822225671547685,2.393975514207608,0.9711012499915226,B,871.29499996081,Incorrect,sub_001_day_02_data.csv,0,300,7.0,Training at home,,,,,,,,,,,,,
1,2,194,A,36.95037802635037,52.01428660551606,1.8475189013175184,0.8170385034080161,A,557.3315001092851,Correct,sub_001_day_02_data.csv,1,300,7.0,Training at home,,,,,,,,,,,,,
1,2,195,A,60.341484119629314,85.7042476232104,3.0170742059814653,1.3462391735725916,B,636.9840998668224,Incorrect,sub_001_day_02_data.csv,0,300,7.0,Training at home,,,,,,,,,,,,,
1,2,196,A,20.48982326448849,33.19514234717171,1.0244911632244245,0.5214280766637104,A,767.7629999816418,Correct,sub_001_day_02_data.csv,1,300,7.0,Training at home,,,,,,,,,,,,,
1,2,197,A,25.31805126436287,41.86544017008117,1.2659025632181438,0.6576207963881502,A,687.9909001290798,Correct,sub_001_day_02_data.csv,1,300,7.0,Training at home,,,,,,,,,,,,,
1,2,198,B,30.448230674652123,12.270456816745607,1.522411533732606,0.192743884958394,B,807.3618998751044,Correct,sub_001_day_02_data.csv,1,300,7.0,Training at home,,,,,,,,,,,,,
1,2,199,A,31.947781214594904,65.26194840005145,1.5973890607297452,1.025132288262789,A,964.3709999509156,Correct,sub_001_day_02_data.csv,1,300,7.0,Training at home,,,,,,,,,,,,,
1,2,200,A,28.82725492095775,38.96836062562986,1.4413627460478875,0.6121135773195827,A,540.4486998450011,Correct,sub_001_day_02_data.csv,1,300,8.0,Training at home,,,,,,,,,,,,,
1,2,201,B,69.93605211440914,59.070825052646384,3.4968026057204566,0.9278823501344088,B,684.8759001586586,Correct,sub_001_day_02_data.csv,1,300,8.0,Training at home,,,,,,,,,,,,,
1,2,202,B,74.96673165039482,55.20265799905394,3.748336582519741,0.8671213241422884,B,599.8693001456559,Correct,sub_001_day_02_data.csv,1,300,8.0,Training at home,,,,,,,,,,,,,
1,2,203,A,22.396191556028132,43.0950395519088,1.1198095778014066,0.6769352983121913,A,669.7272001765668,Correct,sub_001_day_02_data.csv,1,300,8.0,Training at home,,,,,,,,,,,,,
1,2,204,B,41.539587091349546,28.62265766303307,2.0769793545674773,0.4496036552020014,B,710.1789999287575,Correct,sub_001_day_02_data.csv,1,300,8.0,Training at home,,,,,,,,,,,,,
1,2,205,B,87.00578033889863,67.67043422131403,4.350289016944931,1.0629646950745573,B,677.5944998953491,Correct,sub_001_day_02_data.csv,1,300,8.0,Training at home,,,,,,,,,,,,,
1,2,206,B,46.31181837480034,16.862097894098284,2.3155909187400168,0.2648692143410554,B,691.5619000792503,Correct,sub_001_day_02_data.csv,1,300,8.0,Training at home,,,,,,,,,,,,,
1,2,207,B,45.97678029007651,37.5973434126884,2.2988390145038253,0.5905776892989725,A,499.2572998162359,Incorrect,sub_001_day_02_data.csv,0,300,8.0,Training at home,,,,,,,,,,,,,
1,2,208,B,43.19949885221449,31.677168210056237,2.1599749426107246,0.497583794676204,B,913.5966999456286,Correct,sub_001_day_02_data.csv,1,300,8.0,Training at home,,,,,,,,,,,,,
1,2,209,B,85.48429527154398,60.994614402270614,4.274214763577199,0.9581011625735776,B,941.6922000236808,Correct,sub_001_day_02_data.csv,1,300,8.0,Training at home,,,,,,,,,,,,,
1,2,210,A,44.71310388514793,55.35821247318172,2.2356551942573963,0.8695647681080527,A,1010.451499838382,Correct,sub_001_day_02_data.csv,1,300,8.0,Training at home,,,,,,,,,,,,,
1,2,211,A,48.39995366098225,79.7207889244798,2.4199976830491123,1.2522512241176416,A,759.6889999695122,Correct,sub_001_day_02_data.csv,1,300,8.0,Training at home,,,,,,,,,,,,,
1,2,212,A,20.56279376547557,33.298851976068065,1.0281396882737783,0.5230571437049469,A,1026.7513999715447,Correct,sub_001_day_02_data.csv,1,300,8.0,Training at home,,,,,,,,,,,,,
1,2,213,B,88.67919175086774,66.52402730574907,4.433959587543387,1.0449569773547405,B,665.7245000824332,Correct,sub_001_day_02_data.csv,1,300,8.0,Training at home,,,,,,,,,,,,,
1,2,214,B,70.20535744902955,54.32377522539318,3.510267872451477,0.8533158658167921,B,523.1085000559688,Correct,sub_001_day_02_data.csv,1,300,8.0,Training at home,,,,,,,,,,,,,
1,2,215,A,59.02663848040869,72.13113265349651,2.9513319240204345,1.1330331821966777,A,531.6727999597788,Correct,sub_001_day_02_data.csv,1,300,8.0,Training at home,,,,,,,,,,,,,
1,2,216,B,79.00303455834285,53.48929591100465,3.9501517279171425,0.8402078953985139,B,735.9756999649107,Correct,sub_001_day_02_data.csv,1,300,8.0,Training at home,,,,,,,,,,,,,
1,2,217,B,61.886051730285054,30.654351716156775,3.0943025865142526,0.4815174307601789,A,682.099899975583,Incorrect,sub_001_day_02_data.csv,0,300,8.0,Training at home,,,,,,,,,,,,,
1,2,218,A,48.829792009977425,56.74495757613861,2.4414896004988713,0.8913477092473077,B,1204.997300170362,Incorrect,sub_001_day_02_data.csv,0,300,8.0,Training at home,,,,,,,,,,,,,
1,2,219,B,48.166029905830754,21.681187554885685,2.408301495291538,0.3405672977176566,B,680.8027001097798,Correct,sub_001_day_02_data.csv,1,300,8.0,Training at home,,,,,,,,,,,,,
1,2,220,B,85.63533693728358,67.93205866944803,4.281766846864179,1.0670742822958437,B,649.9160998500884,Correct,sub_001_day_02_data.csv,1,300,8.0,Training at home,,,,,,,,,,,,,
1,2,221,A,17.320201901316057,44.98093435720007,0.8660100950658028,0.7065588646409223,A,598.9632999990135,Correct,sub_001_day_02_data.csv,1,300,8.0,Training at home,,,,,,,,,,,,,
1,2,222,A,57.966563819897175,68.48536746982701,2.8983281909948584,1.0757656366080297,B,610.3536000009626,Incorrect,sub_001_day_02_data.csv,0,300,8.0,Training at home,,,,,,,,,,,,,
1,2,223,B,59.43534801454057,49.78460164911926,2.9717674007270283,0.7820146940138368,B,1198.5799001995474,Correct,sub_001_day_02_data.csv,1,300,8.0,Training at home,,,,,,,,,,,,,
1,2,224,B,62.98034503735061,44.202224727165785,3.14901725186753,0.6943269223759457,A,841.8711998965591,Incorrect,sub_001_day_02_data.csv,0,300,8.0,Training at home,,,,,,,,,,,,,
1,2,225,B,70.40763161879144,50.41218849816944,3.5203815809395724,0.7918728051861649,B,658.1554000731558,Correct,sub_001_day_02_data.csv,1,300,9.0,Training at home,,,,,,,,,,,,,
1,2,226,A,51.676728511109374,77.93586301751542,2.583836425555469,1.2242136735350342,B,613.2499999366701,Incorrect,sub_001_day_02_data.csv,0,300,9.0,Training at home,,,,,,,,,,,,,
1,2,227,A,54.03561804966139,65.25857838267322,2.7017809024830695,1.0250793521535992,A,697.0502000767738,Correct,sub_001_day_02_data.csv,1,300,9.0,Training at home,,,,,,,,,,,,,
1,2,228,A,63.103865270070514,77.27672666700217,3.155193263503526,1.2138599839526023,A,802.8214999940246,Correct,sub_001_day_02_data.csv,1,300,9.0,Training at home,,,,,,,,,,,,,
1,2,229,B,55.41395112212667,34.10347303986543,2.7706975561063336,0.535696101819694,B,1543.2144000660628,Correct,sub_001_day_02_data.csv,1,300,9.0,Training at home,,,,,,,,,,,,,
1,2,230,A,26.78495516348954,50.34845680541203,1.3392477581744768,0.7908717100973273,A,750.3462000750005,Correct,sub_001_day_02_data.csv,1,300,9.0,Training at home,,,,,,,,,,,,,
1,2,231,A,58.518901164896384,79.66727951811549,2.925945058244819,1.2514107003279813,B,629.6131000854075,Incorrect,sub_001_day_02_data.csv,0,300,9.0,Training at home,,,,,,,,,,,,,
1,2,232,B,60.62370636803134,37.67025592061809,3.031185318401567,0.5917229962953059,B,609.0768999420106,Correct,sub_001_day_02_data.csv,1,300,9.0,Training at home,,,,,,,,,,,,,
1,2,233,A,24.80303108483242,43.63294856348759,1.2401515542416208,0.6853847533075696,A,1086.9370999280363,Correct,sub_001_day_02_data.csv,1,300,9.0,Training at home,,,,,,,,,,,,,
1,2,234,A,60.30330738646837,84.78629792205086,3.0151653693234186,1.331820053384953,A,1123.207899974659,Correct,sub_001_day_02_data.csv,1,300,9.0,Training at home,,,,,,,,,,,,,
1,2,235,B,53.71817952742331,32.25845339461968,2.685908976371165,0.5067146010035295,B,811.2600999884307,Correct,sub_001_day_02_data.csv,1,300,9.0,Training at home,,,,,,,,,,,,,
1,2,236,B,60.67893262609611,42.20138279611744,3.033946631304806,0.6628977708180662,B,941.4847998414187,Correct,sub_001_day_02_data.csv,1,300,9.0,Training at home,,,,,,,,,,,,,
1,2,237,B,56.67521538548582,30.694758022701585,2.8337607692742908,0.4821521315391783,B,675.5405999720097,Correct,sub_001_day_02_data.csv,1,300,9.0,Training at home,,,,,,,,,,,,,
1,2,238,A,28.285168109678935,53.31839124597822,1.4142584054839469,0.8375233311979575,A,626.2378999963403,Correct,sub_001_day_02_data.csv,1,300,9.0,Training at home,,,,,,,,,,,,,
1,2,239,A,58.51384276404312,85.0292949629569,2.925692138202156,1.335637041977725,A,1172.188200056553,Correct,sub_001_day_02_data.csv,1,300,9.0,Training at home,,,,,,,,,,,,,
1,2,240,A,33.57418213032221,62.8643165702101,1.6787091065161104,0.9874703755495756,A,820.6704999320209,Correct,sub_001_day_02_data.csv,1,300,9.0,Training at home,,,,,,,,,,,,,
1,2,241,A,56.230245733025846,80.45535278272652,2.811512286651292,1.263789726220944,A,568.3009000495076,Correct,sub_001_day_02_data.csv,1,300,9.0,Training at home,,,,,,,,,,,,,
1,2,242,B,37.014363360624706,13.411645715052444,1.8507181680312357,0.2106696382547889,B,784.3122999183834,Correct,sub_001_day_02_data.csv,1,300,9.0,Training at home,,,,,,,,,,,,,
1,2,243,A,30.32596724206858,51.49781559697347,1.516298362103429,0.8089257957768685,A,901.615200098604,Correct,sub_001_day_02_data.csv,1,300,9.0,Training at home,,,,,,,,,,,,,
1,2,244,B,87.177692599219,69.44583469672651,4.35888462996095,1.0908526205282358,B,590.4904000926763,Correct,sub_001_day_02_data.csv,1,300,9.0,Training at home,,,,,,,,,,,,,
1,2,245,A,22.012042286216587,50.95508660432748,1.100602114310829,0.8004006286959343,A,659.2842999380082,Correct,sub_001_day_02_data.csv,1,300,9.0,Training at home,,,,,,,,,,,,,
1,2,246,B,60.96835154688373,45.09606538867831,3.048417577344186,0.7083673386543835,B,538.2652000989765,Correct,sub_001_day_02_data.csv,1,300,9.0,Training at home,,,,,,,,,,,,,
1,2,247,A,44.59758100092441,63.93822322044653,2.2298790500462204,1.0043392617646956,A,613.0830999463797,Correct,sub_001_day_02_data.csv,1,300,9.0,Training at home,,,,,,,,,,,,,
1,2,248,A,60.99802930641822,71.01659578968585,3.049901465320911,1.1155260780791645,A,1223.4579999931157,Correct,sub_001_day_02_data.csv,1,300,9.0,Training at home,,,,,,,,,,,,,
1,2,249,B,36.08751078221862,14.005858446302128,1.8043755391109313,0.2200035100106066,B,477.34680003486574,Correct,sub_001_day_02_data.csv,1,300,9.0,Training at home,,,,,,,,,,,,,
1,2,250,B,45.85026659861753,25.480012041289605,2.2925133299308764,0.4002390932114745,B,599.0686998702586,Correct,sub_001_day_02_data.csv,1,300,10.0,Training at home,,,,,,,,,,,,,
1,2,251,A,48.581200836005586,63.08419584419816,2.4290600418002795,0.9909242311087634,A,775.4480000585318,Correct,sub_001_day_02_data.csv,1,300,10.0,Training at home,,,,,,,,,,,,,
1,2,252,A,65.92899862913382,80.80946475587793,3.296449931456691,1.269352104087947,B,1708.5702999029309,Incorrect,sub_001_day_02_data.csv,0,300,10.0,Training at home,,,,,,,,,,,,,
1,2,253,A,11.189120916186546,32.85576733449711,0.5594560458093273,0.5160971864305581,A,624.4965000078082,Correct,sub_001_day_02_data.csv,1,300,10.0,Training at home,,,,,,,,,,,,,
1,2,254,B,62.17372615594927,42.50087373315659,3.1086863077974636,0.6676021634561607,A,745.1359000988305,Incorrect,sub_001_day_02_data.csv,0,300,10.0,Training at home,,,,,,,,,,,,,
1,2,255,B,59.0249848365886,36.544115148093915,2.95124924182943,0.5740336184059567,B,825.2538000233471,Correct,sub_001_day_02_data.csv,1,300,10.0,Training at home,,,,,,,,,,,,,
1,2,256,B,70.74063430826654,58.5057371595863,3.5370317154133266,0.9190059702670584,A,786.4372998010367,Incorrect,sub_001_day_02_data.csv,0,300,10.0,Training at home,,,,,,,,,,,,,
1,2,257,A,49.57581181056743,57.66821098870435,2.478790590528371,0.9058501399388988,B,708.0920999869704,Incorrect,sub_001_day_02_data.csv,0,300,10.0,Training at home,,,,,,,,,,,,,
1,2,258,A,48.2072398714748,59.64806859364373,2.4103619935737397,0.936949670473056,A,651.0004000738263,Correct,sub_001_day_02_data.csv,1,300,10.0,Training at home,,,,,,,,,,,,,
1,2,259,A,29.03379748660189,51.525166907582914,1.4516898743300946,0.8093554291592521,B,1763.7740999925882,Incorrect,sub_001_day_02_data.csv,0,300,10.0,Training at home,,,,,,,,,,,,,
1,2,260,A,41.26166421602621,70.14585590958974,2.063083210801311,1.1018485280266763,A,722.5851998664439,Correct,sub_001_day_02_data.csv,1,300,10.0,Training at home,,,,,,,,,,,,,
1,2,261,A,27.357543226903765,36.83821361718942,1.3678771613451883,0.5786533063556688,B,1385.3952998761088,Incorrect,sub_001_day_02_data.csv,0,300,10.0,Training at home,,,,,,,,,,,,,
1,2,262,A,52.866574834944466,76.74174388634361,2.6433287417472235,1.2054564940850327,A,736.6311999503523,Correct,sub_001_day_02_data.csv,1,300,10.0,Training at home,,,,,,,,,,,,,
1,2,263,B,62.14943453224915,40.81152486817885,3.1074717266124576,0.6410659335383392,B,1609.459799947217,Correct,sub_001_day_02_data.csv,1,300,10.0,Training at home,,,,,,,,,,,,,
1,2,264,B,46.47087135448042,22.054190081823688,2.3235435677240215,0.3464264077096509,A,1602.233000099659,Incorrect,sub_001_day_02_data.csv,0,300,10.0,Training at home,,,,,,,,,,,,,
1,2,265,A,35.79244963813396,52.619115551707736,1.789622481906698,0.8265391342781874,B,599.7075000777841,Incorrect,sub_001_day_02_data.csv,0,300,10.0,Training at home,,,,,,,,,,,,,
1,2,266,A,58.01289981095193,81.5587740822703,2.9006449905475966,1.28112222746325,A,788.0128000397235,Correct,sub_001_day_02_data.csv,1,300,10.0,Training at home,,,,,,,,,,,,,
1,2,267,A,24.298206430772744,55.70531109493494,1.2149103215386372,0.8750169805089081,A,648.205199977383,Correct,sub_001_day_02_data.csv,1,300,10.0,Training at home,,,,,,,,,,,,,
1,2,268,B,37.16396554803211,17.92771606606622,1.8581982774016057,0.2816079054439867,B,1035.1142000872642,Correct,sub_001_day_02_data.csv,1,300,10.0,Training at home,,,,,,,,,,,,,
1,2,269,A,62.285451821580466,81.9136984209739,3.114272591079023,1.2866973659385073,A,776.6493000090122,Correct,sub_001_day_02_data.csv,1,300,10.0,Training at home,,,,,,,,,,,,,
1,2,270,B,52.59318630565582,39.32676391747505,2.629659315282791,0.6177433630629988,B,820.3485999256372,Correct,sub_001_day_02_data.csv,1,300,10.0,Training at home,,,,,,,,,,,,,
1,2,271,B,52.00028714127906,43.442392526372,2.600014357063953,0.6823915060760721,B,650.9326999075711,Correct,sub_001_day_02_data.csv,1,300,10.0,Training at home,,,,,,,,,,,,,
1,2,272,A,62.77693733537435,73.41206408141716,3.1388468667687177,1.1531540060152163,A,652.797499904409,Correct,sub_001_day_02_data.csv,1,300,10.0,Training at home,,,,,,,,,,,,,
1,2,273,A,23.96679399340899,39.876030298139575,1.1983396996704496,0.6263712191947964,A,580.4310999810696,Correct,sub_001_day_02_data.csv,1,300,10.0,Training at home,,,,,,,,,,,,,
1,2,274,A,25.452460091092647,38.51099935208825,1.2726230045546325,0.6049293632346087,A,486.8840998969972,Correct,sub_001_day_02_data.csv,1,300,10.0,Training at home,,,,,,,,,,,,,
1,2,275,B,61.11809956304947,39.15013410798152,3.0559049781524736,0.6149688685034497,B,501.10529991798103,Correct,sub_001_day_02_data.csv,1,300,11.0,Training at home,,,,,,,,,,,,,
1,2,276,A,37.486800667843625,52.9288606460095,1.8743400333921811,0.8314045988419068,A,1097.601099871099,Correct,sub_001_day_02_data.csv,1,300,11.0,Training at home,,,,,,,,,,,,,
1,2,277,B,57.03654228494071,39.51201761599755,2.8518271142470355,0.6206533213546419,B,1332.1104000788182,Correct,sub_001_day_02_data.csv,1,300,11.0,Training at home,,,,,,,,,,,,,
1,2,278,A,32.985515854967545,45.90254877872364,1.6492757927483774,0.7210355501214265,A,567.1794000081718,Correct,sub_001_day_02_data.csv,1,300,11.0,Training at home,,,,,,,,,,,,,
1,2,279,B,64.8909359367646,35.504956314024255,3.24454679683823,0.5577105496108257,A,550.1103999558836,Incorrect,sub_001_day_02_data.csv,0,300,11.0,Training at home,,,,,,,,,,,,,
1,2,280,B,63.8134922328882,33.14050810095822,3.19067461164441,0.5205698839310169,B,647.6025001611561,Correct,sub_001_day_02_data.csv,1,300,11.0,Training at home,,,,,,,,,,,,,
1,2,281,A,47.18173608914165,78.119618815737,2.3590868044570827,1.2271001028637714,A,589.2332999501377,Correct,sub_001_day_02_data.csv,1,300,11.0,Training at home,,,,,,,,,,,,,
1,2,282,A,41.12771836287385,63.65614146010718,2.0563859181436923,0.9999083318347268,A,641.7099998798221,Correct,sub_001_day_02_data.csv,1,300,11.0,Training at home,,,,,,,,,,,,,
1,2,283,A,52.544929399134105,59.95974034816071,2.627246469956705,0.941845398944666,B,1319.310100050643,Incorrect,sub_001_day_02_data.csv,0,300,11.0,Training at home,,,,,,,,,,,,,
1,2,284,A,19.69908631077697,47.55242524529192,0.9849543155388486,0.7469517490549346,A,739.5383000839502,Correct,sub_001_day_02_data.csv,1,300,11.0,Training at home,,,,,,,,,,,,,
1,2,285,A,34.102004124972844,45.428590580004645,1.705100206248642,0.7135906321454054,B,1047.824899898842,Incorrect,sub_001_day_02_data.csv,0,300,11.0,Training at home,,,,,,,,,,,,,
1,2,286,A,27.662523338551075,57.93836763051882,1.3831261669275536,0.910093750545113,A,780.8924000710249,Correct,sub_001_day_02_data.csv,1,300,11.0,Training at home,,,,,,,,,,,,,
1,2,287,A,26.437457667528506,44.3644917760696,1.3218728833764255,0.6968758072197252,B,1289.0148998703808,Incorrect,sub_001_day_02_data.csv,0,300,11.0,Training at home,,,,,,,,,,,,,
1,2,288,A,67.81443486263595,88.48657268578981,3.3907217431317975,1.3899438334550824,A,641.4167999755591,Correct,sub_001_day_02_data.csv,1,300,11.0,Training at home,,,,,,,,,,,,,
1,2,289,A,60.73968466823432,82.82387440336635,3.0369842334117156,1.3009943768372971,A,796.0769000928849,Correct,sub_001_day_02_data.csv,1,300,11.0,Training at home,,,,,,,,,,,,,
1,2,290,A,15.224062674997242,37.29594354701222,0.7612031337498621,0.5858433112799663,A,568.4710999485105,Correct,sub_001_day_02_data.csv,1,300,11.0,Training at home,,,,,,,,,,,,,
1,2,291,B,69.7157540013258,44.541684459921825,3.4857877000662905,0.6996591433890254,B,1368.6575000174344,Correct,sub_001_day_02_data.csv,1,300,11.0,Training at home,,,,,,,,,,,,,
1,2,292,A,28.50945126882241,60.92812793141234,1.4254725634411205,0.9570567955315205,A,499.90119994618,Correct,sub_001_day_02_data.csv,1,300,11.0,Training at home,,,,,,,,,,,,,
1,2,293,B,41.90431781283482,16.73642938105211,2.095215890641741,0.2628952179541883,B,1673.62040001899,Correct,sub_001_day_02_data.csv,1,300,11.0,Training at home,,,,,,,,,,,,,
1,2,294,B,33.35037498009305,17.35477702709469,1.6675187490046526,0.272608200065048,B,731.269899988547,Correct,sub_001_day_02_data.csv,1,300,11.0,Training at home,,,,,,,,,,,,,
1,2,295,A,22.672889915123665,45.46416263783074,1.133644495756183,0.714149396723103,A,873.599800048396,Correct,sub_001_day_02_data.csv,1,300,11.0,Training at home,,,,,,,,,,,,,
1,2,296,B,41.02690313839767,15.36320164701308,2.0513451569198837,0.2413246071493745,B,924.204699927941,Correct,sub_001_day_02_data.csv,1,300,11.0,Training at home,,,,,,,,,,,,,
1,2,297,A,39.238642954515825,66.74962329324711,1.9619321477257912,1.0485006308397564,A,567.3956000246108,Correct,sub_001_day_02_data.csv,1,300,11.0,Training at home,,,,,,,,,,,,,
1,2,298,B,52.82845371433322,45.18124838013589,2.641422685716661,0.7097053899552531,B,479.5226999558509,Correct,sub_001_day_02_data.csv,1,300,11.0,Training at home,,,,,,,,,,,,,
1,2,299,B,56.52747402700492,38.625773946276375,2.8263737013502457,0.6067322383442095,B,997.8171999100596,Correct,sub_001_day_02_data.csv,1,300,11.0,Training at home,,,,,,,,,,,,,
