subject,day,trial,cat,x,y,xt,yt,resp,rt,fb,f_name,acc,n_trials,block,session_type,ns_left_digit,ns_right_digit,ns_left_size,ns_right_size,ns_congruent,ns_cue,ns_correct_side,ns_resp,ns_rt,ns_fb,acc_stroop,acc_stroop_mean,resp_key
1,23,0,A,55.33887768447223,83.64712987502944,2.7669438842236116,1.3139260435463191,A,1704.0215000743046,Correct,sub_001_day_23_data.csv,1,303,,Button-Switch at home,,,,,,,,,,,,,k
1,23,1,B,43.13544339858585,27.55649395573104,2.156772169929292,0.4328563948500809,B,1147.234500036575,Correct,sub_001_day_23_data.csv,1,303,,Button-Switch at home,,,,,,,,,,,,,d
1,23,2,B,61.963716505390366,51.99303330385807,3.0981858252695185,0.81670465732625,B,1003.534400020726,Correct,sub_001_day_23_data.csv,1,303,,Button-Switch at home,,,,,,,,,,,,,d
1,23,3,B,36.78355779351068,21.873705857604175,1.839177889675534,0.3435913681451665,B,1897.1378999995068,Correct,sub_001_day_23_data.csv,1,303,,Button-Switch at home,,,,,,,,,,,,,d
1,23,4,A,30.147468393810954,41.97884548137903,1.5073734196905475,0.6594021628524073,B,969.481599982828,Incorrect,sub_001_day_23_data.csv,0,303,,Button-Switch at home,,,,,,,,,,,,,d
1,23,5,B,60.52554295723081,37.98246711949647,3.0262771478615407,0.5966271983391299,A,1327.245699940249,Incorrect,sub_001_day_23_data.csv,0,303,,Button-Switch at home,,,,,,,,,,,,,k
1,23,6,A,36.285258643081576,49.74716907689783,1.8142629321540789,0.7814267045443578,A,1508.3935000002384,Correct,sub_001_day_23_data.csv,1,303,,Button-Switch at home,,,,,,,,,,,,,k
1,23,7,A,55.745138029003925,82.86165257576411,2.787256901450196,1.3015877949816514,B,1097.4987999070436,Incorrect,sub_001_day_23_data.csv,0,303,,Button-Switch at home,,,,,,,,,,,,,d
1,23,8,A,34.78427678839223,47.991774846251786,1.7392138394196115,0.7538530364486001,A,1067.9617000278083,Correct,sub_001_day_23_data.csv,1,303,,Button-Switch at home,,,,,,,,,,,,,k
1,23,9,B,54.15569490469779,23.988590125462032,2.7077847452348895,0.3768118925406408,B,5260.67069999408,Correct,sub_001_day_23_data.csv,1,303,,Button-Switch at home,,,,,,,,,,,,,d
1,23,10,B,78.70900038525483,56.657940147577705,3.9354500192627415,0.8899808426758016,B,858.6835999740288,Correct,sub_001_day_23_data.csv,1,303,,Button-Switch at home,,,,,,,,,,,,,d
1,23,11,A,66.93280708152145,80.29190022266813,3.3466403540760723,1.2612222194114944,A,1008.9233999606222,Correct,sub_001_day_23_data.csv,1,303,,Button-Switch at home,,,,,,,,,,,,,k
1,23,12,B,85.91168413193772,58.283199258747985,4.295584206596886,0.9155103530949638,B,670.9499000571668,Correct,sub_001_day_23_data.csv,1,303,,Button-Switch at home,,,,,,,,,,,,,d
1,23,13,B,37.91735564625411,19.87690057536231,1.8958677823127057,0.3122256241184648,A,817.758799996227,Incorrect,sub_001_day_23_data.csv,0,303,,Button-Switch at home,,,,,,,,,,,,,k
1,23,14,A,54.726728262936525,71.59572381423027,2.736336413146826,1.124622999816148,A,1048.138599959202,Correct,sub_001_day_23_data.csv,1,303,,Button-Switch at home,,,,,,,,,,,,,k
1,23,15,B,50.17150255768849,20.828721870486422,2.5085751278844244,0.327176798059926,B,799.4538999628276,Correct,sub_001_day_23_data.csv,1,303,,Button-Switch at home,,,,,,,,,,,,,d
1,23,16,B,57.77674690959465,26.570345764227525,2.8888373454797325,0.4173660152811894,B,685.3792999172583,Correct,sub_001_day_23_data.csv,1,303,,Button-Switch at home,,,,,,,,,,,,,d
1,23,17,A,37.52001116070777,57.47722155131665,1.8760005580353885,0.9028500848718466,A,2875.79530000221,Correct,sub_001_day_23_data.csv,1,303,,Button-Switch at home,,,,,,,,,,,,,k
1,23,18,B,87.54290131506885,60.45757667042109,4.377145065753442,0.9496653936081828,A,826.7108000582084,Incorrect,sub_001_day_23_data.csv,0,303,,Button-Switch at home,,,,,,,,,,,,,k
1,23,19,B,56.98095274604975,45.10103088049537,2.849047637302488,0.7084453364174533,A,2107.3616000358015,Incorrect,sub_001_day_23_data.csv,0,303,,Button-Switch at home,,,,,,,,,,,,,k
1,23,20,A,65.55100888463531,85.14455207298526,3.2775504442317653,1.3374474964284206,A,1110.8705999795347,Correct,sub_001_day_23_data.csv,1,303,,Button-Switch at home,,,,,,,,,,,,,k
1,23,21,A,13.293050172525184,34.522014497058,0.6646525086262592,0.5422705356553889,A,1202.1587999770418,Correct,sub_001_day_23_data.csv,1,303,,Button-Switch at home,,,,,,,,,,,,,k
1,23,22,A,32.6276289196298,49.182435254666466,1.63138144598149,0.7725558864085792,B,2308.287400053814,Incorrect,sub_001_day_23_data.csv,0,303,,Button-Switch at home,,,,,,,,,,,,,d
1,23,23,B,67.50039241421683,49.63340726744126,3.375019620710842,0.7796397382201186,B,4795.24120001588,Correct,sub_001_day_23_data.csv,1,303,,Button-Switch at home,,,,,,,,,,,,,d
1,23,24,B,47.50802055990162,39.03351918334729,2.375401027995081,0.6131370855508005,B,905.0776000367478,Correct,sub_001_day_23_data.csv,1,303,,Button-Switch at home,,,,,,,,,,,,,d
1,23,25,A,46.40494119316937,77.08662869957325,2.320247059658469,1.2108739320629172,B,842.9764000466093,Incorrect,sub_001_day_23_data.csv,0,303,,Button-Switch at home,,,,,,,,,,,,,d
1,23,26,B,73.39889760378831,51.60680671084326,3.669944880189416,0.8106378241900681,B,3526.1643999256194,Correct,sub_001_day_23_data.csv,1,303,,Button-Switch at home,,,,,,,,,,,,,d
1,23,27,A,37.19689928600855,60.208742468287056,1.8598449643004276,0.945756715101252,B,875.7732999511063,Incorrect,sub_001_day_23_data.csv,0,303,,Button-Switch at home,,,,,,,,,,,,,d
1,23,28,A,66.69792962483967,81.72734025747513,3.3348964812419837,1.283770058751586,A,1464.246999938041,Correct,sub_001_day_23_data.csv,1,303,,Button-Switch at home,,,,,,,,,,,,,k
1,23,29,A,47.16032683563806,64.13619581010384,2.358016341781903,1.0074490079310936,A,716.7603000998497,Correct,sub_001_day_23_data.csv,1,303,,Button-Switch at home,,,,,,,,,,,,,k
1,23,30,A,57.47489529074663,78.22914337931569,2.8737447645373315,1.228820510685404,A,696.8876000028104,Correct,sub_001_day_23_data.csv,1,303,,Button-Switch at home,,,,,,,,,,,,,k
1,23,31,B,79.49705557808386,55.67644987395786,3.974852778904193,0.8745636295099319,A,3629.449600004591,Incorrect,sub_001_day_23_data.csv,0,303,,Button-Switch at home,,,,,,,,,,,,,k
1,23,32,A,47.669315829556304,74.61377120170408,2.383465791477815,1.172030377319516,A,1064.9082000600174,Correct,sub_001_day_23_data.csv,1,303,,Button-Switch at home,,,,,,,,,,,,,k
1,23,33,B,53.96254403439181,37.3797308672979,2.6981272017195903,0.5871594394293335,A,953.8002000190318,Incorrect,sub_001_day_23_data.csv,0,303,,Button-Switch at home,,,,,,,,,,,,,k
1,23,34,B,68.83833430873645,53.10884986934296,3.441916715436822,0.8342318629506555,B,638.2929999381304,Correct,sub_001_day_23_data.csv,1,303,,Button-Switch at home,,,,,,,,,,,,,d
1,23,35,B,60.2140997123698,49.15595166326719,3.0107049856184904,0.7721398831276758,B,2591.9121999759227,Correct,sub_001_day_23_data.csv,1,303,,Button-Switch at home,,,,,,,,,,,,,d
1,23,36,A,65.64852189269217,87.34714971385925,3.282426094634609,1.3720458192653402,A,3045.485300011933,Correct,sub_001_day_23_data.csv,1,303,,Button-Switch at home,,,,,,,,,,,,,k
1,23,37,A,40.04081568235761,69.53254932096354,2.0020407841178804,1.092214730660545,A,1666.0179999889806,Correct,sub_001_day_23_data.csv,1,303,,Button-Switch at home,,,,,,,,,,,,,k
1,23,38,B,47.21521597209711,27.9165845403491,2.3607607986048555,0.4385126845263956,B,2111.8868000339717,Correct,sub_001_day_23_data.csv,1,303,,Button-Switch at home,,,,,,,,,,,,,d
1,23,39,B,42.69380493096431,32.56496553281869,2.1346902465482156,0.51152928241154,B,3070.3658999409527,Correct,sub_001_day_23_data.csv,1,303,,Button-Switch at home,,,,,,,,,,,,,d
1,23,40,A,66.71230493602592,89.82639036031868,3.335615246801296,1.410989640272331,A,903.0391999986024,Correct,sub_001_day_23_data.csv,1,303,,Button-Switch at home,,,,,,,,,,,,,k
1,23,41,A,27.97507526170081,57.554965463551625,1.3987537630850404,0.9040712833895402,B,3568.4337000129744,Incorrect,sub_001_day_23_data.csv,0,303,,Button-Switch at home,,,,,,,,,,,,,d
1,23,42,B,56.68712191341491,24.900365412819916,2.8343560956707456,0.391134025263082,B,1622.268300037831,Correct,sub_001_day_23_data.csv,1,303,,Button-Switch at home,,,,,,,,,,,,,d
1,23,43,B,77.08333957820938,59.14442041591914,3.854166978910469,0.9290383833973888,A,1008.0917000304908,Incorrect,sub_001_day_23_data.csv,0,303,,Button-Switch at home,,,,,,,,,,,,,k
1,23,44,B,48.48692624387853,33.07412311988219,2.4243463121939266,0.5195271110867311,B,901.4000000897796,Correct,sub_001_day_23_data.csv,1,303,,Button-Switch at home,,,,,,,,,,,,,d
1,23,45,A,13.130330276736377,39.558533897494016,0.6565165138368187,0.62138399739575,A,807.4168999446556,Correct,sub_001_day_23_data.csv,1,303,,Button-Switch at home,,,,,,,,,,,,,k
1,23,46,B,62.61240154158077,47.96088929130765,3.1306200770790387,0.7533678872860273,A,751.5585999935865,Incorrect,sub_001_day_23_data.csv,0,303,,Button-Switch at home,,,,,,,,,,,,,k
1,23,47,A,33.234449326508454,61.16985003749355,1.6617224663254229,0.9608537574948954,A,1693.2868000585586,Correct,sub_001_day_23_data.csv,1,303,,Button-Switch at home,,,,,,,,,,,,,k
1,23,48,A,50.150635269886685,64.27558390731139,2.507531763494334,1.0096385110420187,A,718.8332999357954,Correct,sub_001_day_23_data.csv,1,303,,Button-Switch at home,,,,,,,,,,,,,k
1,23,49,B,52.87966295280218,41.13488236020933,2.643983147640109,0.64614522114557,B,919.371800031513,Correct,sub_001_day_23_data.csv,1,303,,Button-Switch at home,,,,,,,,,,,,,d
1,23,50,B,56.6815746879475,37.79074582449675,2.834078734397375,0.5936156472795908,B,723.7642999971285,Correct,sub_001_day_23_data.csv,1,303,,Button-Switch at home,,,,,,,,,,,,,d
1,23,51,A,41.23468717523683,61.58510871788573,2.0617343587618415,0.9673766255931926,B,1618.8567000208425,Incorrect,sub_001_day_23_data.csv,0,303,,Button-Switch at home,,,,,,,,,,,,,d
1,23,52,B,74.03873249737389,51.26381256042552,3.701936624868694,0.805250084674185,A,783.7585000088438,Incorrect,sub_001_day_23_data.csv,0,303,,Button-Switch at home,,,,,,,,,,,,,k
1,23,53,A,10.51664964721434,35.25515696936408,0.525832482360717,0.5537867106805459,A,1173.083100002259,Correct,sub_001_day_23_data.csv,1,303,,Button-Switch at home,,,,,,,,,,,,,k
1,23,54,A,49.130941205255944,71.61305220938559,2.456547060262797,1.1248951936107403,A,6489.045700058341,Correct,sub_001_day_23_data.csv,1,303,,Button-Switch at home,,,,,,,,,,,,,k
1,23,55,B,70.5463329317752,52.92418414397157,3.52731664658876,0.8313311405196725,A,1026.606600033119,Incorrect,sub_001_day_23_data.csv,0,303,,Button-Switch at home,,,,,,,,,,,,,k
1,23,56,B,64.97130981650713,41.60548600811757,3.2485654908253565,0.6535374459606754,A,3935.6433000648394,Incorrect,sub_001_day_23_data.csv,0,303,,Button-Switch at home,,,,,,,,,,,,,k
1,23,57,B,48.15580587529379,26.366898983504207,2.4077902937646893,0.414170280722605,B,1070.8490000106394,Correct,sub_001_day_23_data.csv,1,303,,Button-Switch at home,,,,,,,,,,,,,d
1,23,58,B,60.63166538380983,51.89436880876416,3.0315832691904916,0.815154839061464,B,927.874300046824,Correct,sub_001_day_23_data.csv,1,303,,Button-Switch at home,,,,,,,,,,,,,d
1,23,59,B,67.51034227628732,53.4290470221261,3.375517113814366,0.8392615080650747,B,676.8487000372261,Correct,sub_001_day_23_data.csv,1,303,,Button-Switch at home,,,,,,,,,,,,,d
1,23,60,A,28.131708766975628,39.425365079415656,1.4065854383487817,0.619292186492939,B,588.224699953571,Incorrect,sub_001_day_23_data.csv,0,303,,Button-Switch at home,,,,,,,,,,,,,d
1,23,61,A,56.73464831090463,68.68995227928056,2.8367324155452316,1.0789792472801063,B,640.2273999992758,Incorrect,sub_001_day_23_data.csv,0,303,,Button-Switch at home,,,,,,,,,,,,,d
1,23,62,A,51.16099095854506,59.3399660161903,2.558049547927253,0.9321100065036572,A,658.4543000208214,Correct,sub_001_day_23_data.csv,1,303,,Button-Switch at home,,,,,,,,,,,,,k
1,23,63,A,21.426590120382333,43.91744025635434,1.0713295060191166,0.6898535383691572,A,518.8480999786407,Correct,sub_001_day_23_data.csv,1,303,,Button-Switch at home,,,,,,,,,,,,,k
1,23,64,A,38.71592866790766,67.73690684283346,1.935796433395383,1.0640088445717089,A,585.0337999872863,Correct,sub_001_day_23_data.csv,1,303,,Button-Switch at home,,,,,,,,,,,,,k
1,23,65,B,76.56033705549346,61.00509945700978,3.828016852774673,0.9582658614282829,A,1715.8542999532074,Incorrect,sub_001_day_23_data.csv,0,303,,Button-Switch at home,,,,,,,,,,,,,k
1,23,66,B,63.38351877056717,51.96203861638564,3.1691759385283587,0.8162177939139313,B,727.8628000058234,Correct,sub_001_day_23_data.csv,1,303,,Button-Switch at home,,,,,,,,,,,,,d
1,23,67,A,27.38943022938194,57.51907054745689,1.369471511469097,0.903507447366018,B,649.1908000316471,Incorrect,sub_001_day_23_data.csv,0,303,,Button-Switch at home,,,,,,,,,,,,,d
1,23,68,A,48.47369182278193,58.6342027164365,2.4236845911390965,0.921023902515258,A,1239.5265999948606,Correct,sub_001_day_23_data.csv,1,303,,Button-Switch at home,,,,,,,,,,,,,k
1,23,69,A,28.368541253871264,42.55648801821094,1.4184270626935631,0.6684757506029677,B,4142.1543000033125,Incorrect,sub_001_day_23_data.csv,0,303,,Button-Switch at home,,,,,,,,,,,,,d
1,23,70,B,62.414130013255736,33.09721031776323,3.120706500662787,0.5198897639430062,A,699.2349999491125,Incorrect,sub_001_day_23_data.csv,0,303,,Button-Switch at home,,,,,,,,,,,,,k
1,23,71,B,53.965441438064,46.22777142015093,2.6982720719032,0.7261441354268718,B,1285.526099964045,Correct,sub_001_day_23_data.csv,1,303,,Button-Switch at home,,,,,,,,,,,,,d
1,23,72,A,62.74072598348993,85.14084163544703,3.1370362991744964,1.337389213011862,A,865.5203999951482,Correct,sub_001_day_23_data.csv,1,303,,Button-Switch at home,,,,,,,,,,,,,k
1,23,73,A,44.67025691451467,64.96726714006356,2.233512845725733,1.020503445855146,A,733.3514000056311,Correct,sub_001_day_23_data.csv,1,303,,Button-Switch at home,,,,,,,,,,,,,k
1,23,74,A,20.550014643223612,48.42284568664209,1.0275007321611809,0.7606242813753351,A,767.7783999824896,Correct,sub_001_day_23_data.csv,1,303,,Button-Switch at home,,,,,,,,,,,,,k
1,23,75,B,47.35082216691842,17.404179850753952,2.367541108345921,0.2733842178044206,A,693.660999997519,Incorrect,sub_001_day_23_data.csv,0,303,,Button-Switch at home,,,,,,,,,,,,,k
1,23,76,A,55.05553292465417,67.8853043898104,2.752776646232709,1.0663398677886764,A,971.0655000526458,Correct,sub_001_day_23_data.csv,1,303,,Button-Switch at home,,,,,,,,,,,,,k
1,23,77,A,39.47673911858973,62.373638141757745,1.9738369559294864,0.9797628168190712,B,3032.092100009322,Incorrect,sub_001_day_23_data.csv,0,303,,Button-Switch at home,,,,,,,,,,,,,d
1,23,78,A,40.56526490296114,54.089712638233635,2.028263245148057,0.8496392192952889,A,2616.8810999952257,Correct,sub_001_day_23_data.csv,1,303,,Button-Switch at home,,,,,,,,,,,,,k
1,23,79,A,44.411338257080445,63.57880180990429,2.2205669128540224,0.9986934834501836,B,905.0896000117064,Incorrect,sub_001_day_23_data.csv,0,303,,Button-Switch at home,,,,,,,,,,,,,d
1,23,80,A,35.54146052194848,63.39357869471959,1.777073026097424,0.9957840055604876,A,1864.5149000221863,Correct,sub_001_day_23_data.csv,1,303,,Button-Switch at home,,,,,,,,,,,,,k
1,23,81,A,52.079634032406815,68.46829004994115,2.603981701620341,1.075497385123751,A,993.958199978806,Correct,sub_001_day_23_data.csv,1,303,,Button-Switch at home,,,,,,,,,,,,,k
1,23,82,A,25.600523657542567,44.393295145014406,1.2800261828771284,0.6973282494811035,A,550.4047999856994,Correct,sub_001_day_23_data.csv,1,303,,Button-Switch at home,,,,,,,,,,,,,k
1,23,83,A,13.596195586673122,30.989832861092633,0.679809779333656,0.4867871562619209,B,721.7479000100866,Incorrect,sub_001_day_23_data.csv,0,303,,Button-Switch at home,,,,,,,,,,,,,d
1,23,84,A,63.25244499598233,79.94799866748562,3.1626222497991163,1.255820226414897,A,1730.6484999135137,Correct,sub_001_day_23_data.csv,1,303,,Button-Switch at home,,,,,,,,,,,,,k
1,23,85,A,39.47614575558303,59.04790011411067,1.9738072877791517,0.92752224604197,A,78338.60220003407,Correct,sub_001_day_23_data.csv,1,303,,Button-Switch at home,,,,,,,,,,,,,k
1,23,86,B,41.91840594814552,27.729945120746848,2.0959202974072757,0.4355809593789321,A,10586.32649993524,Incorrect,sub_001_day_23_data.csv,0,303,,Button-Switch at home,,,,,,,,,,,,,k
1,23,87,B,30.366947865554444,13.092294329070349,1.518347393277722,0.2056532784142135,B,874.8795000137761,Correct,sub_001_day_23_data.csv,1,303,,Button-Switch at home,,,,,,,,,,,,,d
1,23,88,B,49.86069395492446,40.53618474962224,2.4930346977462228,0.6367409010698593,B,897.1145999385044,Correct,sub_001_day_23_data.csv,1,303,,Button-Switch at home,,,,,,,,,,,,,d
1,23,89,B,49.85886826237254,30.357284974760983,2.4929434131186268,0.4768511172982045,B,513.6801999760792,Correct,sub_001_day_23_data.csv,1,303,,Button-Switch at home,,,,,,,,,,,,,d
1,23,90,A,38.41104607432041,57.63519258559771,1.9205523037160208,0.9053314880757332,B,636.0156000591815,Incorrect,sub_001_day_23_data.csv,0,303,,Button-Switch at home,,,,,,,,,,,,,d
1,23,91,A,23.605477050728258,43.609474630542586,1.1802738525364127,0.6850160256311152,B,572.0033999532461,Incorrect,sub_001_day_23_data.csv,0,303,,Button-Switch at home,,,,,,,,,,,,,d
1,23,92,B,53.021597032104374,37.44754933086281,2.651079851605219,0.5882247293639,B,819.7066000429913,Correct,sub_001_day_23_data.csv,1,303,,Button-Switch at home,,,,,,,,,,,,,d
1,23,93,B,76.92196413868719,59.49220752465072,3.846098206934359,0.9345014105264104,B,708.2985999295488,Correct,sub_001_day_23_data.csv,1,303,,Button-Switch at home,,,,,,,,,,,,,d
1,23,94,A,47.57301377973885,54.81748737223685,2.3786506889869425,0.8610710780843525,A,759.6694000530988,Correct,sub_001_day_23_data.csv,1,303,,Button-Switch at home,,,,,,,,,,,,,k
1,23,95,A,51.34771309068109,72.84811682818437,2.5673856545340543,1.144295543276375,B,1041.3640000624582,Incorrect,sub_001_day_23_data.csv,0,303,,Button-Switch at home,,,,,,,,,,,,,d
1,23,96,A,42.48911804192679,53.028936179626385,2.124455902096339,0.8329765816479812,A,2113.7031000107527,Correct,sub_001_day_23_data.csv,1,303,,Button-Switch at home,,,,,,,,,,,,,k
1,23,97,B,63.101340588717235,35.562650247110206,3.1550670294358616,0.5586168037925233,A,1004.5609000371768,Incorrect,sub_001_day_23_data.csv,0,303,,Button-Switch at home,,,,,,,,,,,,,k
1,23,98,B,39.29512541163041,15.293651863740084,1.9647562705815205,0.2402321217084285,A,1019.5374999893828,Incorrect,sub_001_day_23_data.csv,0,303,,Button-Switch at home,,,,,,,,,,,,,k
1,23,99,A,52.78305428706032,60.05858539865165,2.6391527143530156,0.9433980533669962,A,1068.8747999956831,Correct,sub_001_day_23_data.csv,1,303,,Button-Switch at home,,,,,,,,,,,,,k
1,23,100,B,57.56574269573199,47.6247107631895,2.8782871347865995,0.7480872073148744,A,1093.0456999922171,Incorrect,sub_001_day_23_data.csv,0,303,,Button-Switch at home,,,,,,,,,,,,,k
1,23,101,B,56.9597439360528,49.99010318165119,2.84798719680264,0.7852427045383557,A,1779.2413999559358,Incorrect,sub_001_day_23_data.csv,0,303,,Button-Switch at home,,,,,,,,,,,,,k
1,23,102,A,57.87201024778873,75.20139105064308,2.8936005123894364,1.1812606883221677,B,1291.2534999195486,Incorrect,sub_001_day_23_data.csv,0,303,,Button-Switch at home,,,,,,,,,,,,,d
1,23,103,A,68.68941830802952,87.63454490944736,3.434470915401476,1.376560212441023,A,719.0661000786349,Correct,sub_001_day_23_data.csv,1,303,,Button-Switch at home,,,,,,,,,,,,,k
1,23,104,B,36.418868273282136,20.59066562435465,1.8209434136641067,0.3234374192899822,A,2604.7571999952197,Incorrect,sub_001_day_23_data.csv,0,303,,Button-Switch at home,,,,,,,,,,,,,k
1,23,105,B,59.881515592696424,27.371665249091052,2.994075779634821,0.4299531123153174,A,800.9320000419393,Incorrect,sub_001_day_23_data.csv,0,303,,Button-Switch at home,,,,,,,,,,,,,k
1,23,106,B,73.44723069636542,52.94769192256667,3.672361534818271,0.8317003998423554,A,741.5065999375656,Incorrect,sub_001_day_23_data.csv,0,303,,Button-Switch at home,,,,,,,,,,,,,k
1,23,107,B,89.23229521859301,63.46194049460544,4.46161476092965,0.9968578302020252,A,1914.8206999525428,Incorrect,sub_001_day_23_data.csv,0,303,,Button-Switch at home,,,,,,,,,,,,,k
1,23,108,B,72.704806745571,54.03143525927088,3.63524033727855,0.8487238003671895,A,815.1056999340653,Incorrect,sub_001_day_23_data.csv,0,303,,Button-Switch at home,,,,,,,,,,,,,k
1,23,109,B,60.87399649134541,42.93121713117933,3.04369982456727,0.6743619817449064,A,669.8428000090644,Incorrect,sub_001_day_23_data.csv,0,303,,Button-Switch at home,,,,,,,,,,,,,k
1,23,110,B,56.478627435664464,41.48674741419755,2.8239313717832233,0.6516723044888919,B,970.6871000817046,Correct,sub_001_day_23_data.csv,1,303,,Button-Switch at home,,,,,,,,,,,,,d
1,23,111,B,87.1267845594293,69.59795517778889,4.356339227971465,1.0932421234570666,B,579.7354000387713,Correct,sub_001_day_23_data.csv,1,303,,Button-Switch at home,,,,,,,,,,,,,d
1,23,112,B,62.00188170362043,52.17346691950747,3.1000940851810213,0.8195389019331739,B,654.628699994646,Correct,sub_001_day_23_data.csv,1,303,,Button-Switch at home,,,,,,,,,,,,,d
1,23,113,B,54.07979463070588,36.63708530969609,2.7039897315352937,0.5754939902894187,B,883.4094000048935,Correct,sub_001_day_23_data.csv,1,303,,Button-Switch at home,,,,,,,,,,,,,d
1,23,114,A,59.27503574784923,75.91591332844415,2.9637517873924617,1.192484378015998,B,805.4523000027984,Incorrect,sub_001_day_23_data.csv,0,303,,Button-Switch at home,,,,,,,,,,,,,d
1,23,115,A,67.1010290528503,81.06596375433963,3.355051452642515,1.2733811809340492,A,3608.436100068502,Correct,sub_001_day_23_data.csv,1,303,,Button-Switch at home,,,,,,,,,,,,,k
1,23,116,B,75.4238871883364,45.930403402529336,3.7711943594168194,0.721473089529009,A,2334.8815999925137,Incorrect,sub_001_day_23_data.csv,0,303,,Button-Switch at home,,,,,,,,,,,,,k
1,23,117,B,57.82382510501938,27.63651603750587,2.8911912552509693,0.4341133787712247,B,1959.957899991423,Correct,sub_001_day_23_data.csv,1,303,,Button-Switch at home,,,,,,,,,,,,,d
1,23,118,A,47.95707737389185,78.44865772314547,2.3978538686945923,1.23226863393507,A,4130.660699913278,Correct,sub_001_day_23_data.csv,1,303,,Button-Switch at home,,,,,,,,,,,,,k
1,23,119,B,59.63806486808868,34.31299183568459,2.981903243404434,0.5389872153683665,A,773.8261999329552,Incorrect,sub_001_day_23_data.csv,0,303,,Button-Switch at home,,,,,,,,,,,,,k
1,23,120,A,40.527261026066334,72.04646427524543,2.0263630513033166,1.1317032144211527,B,1631.6676000133157,Incorrect,sub_001_day_23_data.csv,0,303,,Button-Switch at home,,,,,,,,,,,,,d
1,23,121,A,40.69618111694439,60.16665454001868,2.0348090558472194,0.9450955994699882,A,574.324099929072,Correct,sub_001_day_23_data.csv,1,303,,Button-Switch at home,,,,,,,,,,,,,k
1,23,122,B,38.42077771331799,12.117759181701022,1.9210388856658995,0.1903453161160109,B,2759.9636999657378,Correct,sub_001_day_23_data.csv,1,303,,Button-Switch at home,,,,,,,,,,,,,d
1,23,123,A,20.166916255880896,39.018292754225,1.0083458127940448,0.6128979093614456,B,930.5642999242992,Incorrect,sub_001_day_23_data.csv,0,303,,Button-Switch at home,,,,,,,,,,,,,d
1,23,124,A,50.555541325273715,77.10771397086796,2.5277770662636856,1.2112051387299092,B,1401.611499954015,Incorrect,sub_001_day_23_data.csv,0,303,,Button-Switch at home,,,,,,,,,,,,,d
1,23,125,A,44.05862983399296,65.62347933699388,2.202931491699648,1.030811202940508,A,509.0805999934674,Correct,sub_001_day_23_data.csv,1,303,,Button-Switch at home,,,,,,,,,,,,,k
1,23,126,B,81.09842379461463,66.92438730062025,4.054921189730732,1.051245817448133,A,625.8138000266626,Incorrect,sub_001_day_23_data.csv,0,303,,Button-Switch at home,,,,,,,,,,,,,k
1,23,127,B,86.30660168388134,68.35191699556765,4.315330084194067,1.0736694014602732,B,2383.321200031787,Correct,sub_001_day_23_data.csv,1,303,,Button-Switch at home,,,,,,,,,,,,,d
1,23,128,A,16.725666445761373,43.308950867910056,0.8362833222880687,0.6802954094065377,A,1496.2517999811098,Correct,sub_001_day_23_data.csv,1,303,,Button-Switch at home,,,,,,,,,,,,,k
1,23,129,A,30.22807487400201,42.374886138039095,1.5114037437001004,0.6656231549398378,A,842.6108000567183,Correct,sub_001_day_23_data.csv,1,303,,Button-Switch at home,,,,,,,,,,,,,k
1,23,130,A,45.23275189417088,59.80623377104828,2.261637594708544,0.9394341232699952,B,2281.0102000366896,Incorrect,sub_001_day_23_data.csv,0,303,,Button-Switch at home,,,,,,,,,,,,,d
1,23,131,B,80.40447019524713,59.28696270088493,4.020223509762356,0.9312774323737608,A,1677.8443000512198,Incorrect,sub_001_day_23_data.csv,0,303,,Button-Switch at home,,,,,,,,,,,,,k
1,23,132,A,49.3440855716652,57.737580346464895,2.4672042785832597,0.9069397912625228,B,1910.166700021364,Incorrect,sub_001_day_23_data.csv,0,303,,Button-Switch at home,,,,,,,,,,,,,d
1,23,133,A,35.03344588437953,66.61733506956449,1.7516722942189766,1.0464226522813675,B,4646.609799936414,Incorrect,sub_001_day_23_data.csv,0,303,,Button-Switch at home,,,,,,,,,,,,,d
1,23,134,A,24.09423366421837,49.30838408689121,1.2047116832109184,0.7745342860388064,A,686.7679000133649,Correct,sub_001_day_23_data.csv,1,303,,Button-Switch at home,,,,,,,,,,,,,k
1,23,135,A,54.85764654042157,79.04566512484263,2.7428823270210785,1.2416464042716224,A,801.0460999794304,Correct,sub_001_day_23_data.csv,1,303,,Button-Switch at home,,,,,,,,,,,,,k
1,23,136,A,33.64001054764213,48.95933609416458,1.6820005273821064,0.7690514529903052,A,901.103000040166,Correct,sub_001_day_23_data.csv,1,303,,Button-Switch at home,,,,,,,,,,,,,k
1,23,137,A,53.69186216497851,61.29620442253507,2.6845931082489254,0.9628385275338718,A,689.426299999468,Correct,sub_001_day_23_data.csv,1,303,,Button-Switch at home,,,,,,,,,,,,,k
1,23,138,B,68.30193737902164,35.26498476677511,3.415096868951082,0.5539410853612833,A,666.6883000871167,Incorrect,sub_001_day_23_data.csv,0,303,,Button-Switch at home,,,,,,,,,,,,,k
1,23,139,A,27.277044268732556,46.117258222252175,1.3638522134366278,0.7244081981736545,A,1168.5148000251502,Correct,sub_001_day_23_data.csv,1,303,,Button-Switch at home,,,,,,,,,,,,,k
1,23,140,B,65.22993504852832,53.05152109566501,3.261496752426416,0.8333313446795256,B,1617.1009000390768,Correct,sub_001_day_23_data.csv,1,303,,Button-Switch at home,,,,,,,,,,,,,d
1,23,141,B,85.71416046047993,67.38325350516135,4.285708023023997,1.0584536709339678,B,827.9579000081867,Correct,sub_001_day_23_data.csv,1,303,,Button-Switch at home,,,,,,,,,,,,,d
1,23,142,A,40.15595114496632,52.61632836146457,2.007797557248316,0.8264953531962269,B,1131.4040999859571,Incorrect,sub_001_day_23_data.csv,0,303,,Button-Switch at home,,,,,,,,,,,,,d
1,23,143,B,61.65045894874767,29.12081327125812,3.082522947437383,0.4574286651977233,B,1416.2858000490814,Correct,sub_001_day_23_data.csv,1,303,,Button-Switch at home,,,,,,,,,,,,,d
1,23,144,B,51.020127646649726,36.619885729461934,2.551006382332486,0.5752238199148766,B,1546.5365999843923,Correct,sub_001_day_23_data.csv,1,303,,Button-Switch at home,,,,,,,,,,,,,d
1,23,145,A,12.002777241107225,35.489511539999775,0.6001388620553613,0.5574679436677674,A,1270.0408999808133,Correct,sub_001_day_23_data.csv,1,303,,Button-Switch at home,,,,,,,,,,,,,k
1,23,146,A,52.32080027505966,66.33251665470517,2.616040013752983,1.0419487350827217,A,1619.578699930571,Correct,sub_001_day_23_data.csv,1,303,,Button-Switch at home,,,,,,,,,,,,,k
1,23,147,A,29.4062785317064,53.33335005590032,1.4703139265853198,0.837758303634746,A,652.8919999254867,Correct,sub_001_day_23_data.csv,1,303,,Button-Switch at home,,,,,,,,,,,,,k
1,23,148,A,45.10407077745743,58.38795064251227,2.2552035388728715,0.9171557839834,A,1209.8469999618828,Correct,sub_001_day_23_data.csv,1,303,,Button-Switch at home,,,,,,,,,,,,,k
1,23,149,B,71.82637834096433,58.958622347782686,3.5913189170482163,0.9261198741678456,A,717.6417000591755,Incorrect,sub_001_day_23_data.csv,0,303,,Button-Switch at home,,,,,,,,,,,,,k
1,23,150,B,64.34955423162165,46.67204135359695,3.217477711581082,0.7331227112224961,A,1403.920799959451,Incorrect,sub_001_day_23_data.csv,0,303,,Button-Switch at home,,,,,,,,,,,,,k
1,23,151,A,42.34127884710728,51.704529558656986,2.117063942355364,0.8121728510939653,A,1153.2905000494793,Correct,sub_001_day_23_data.csv,1,303,,Button-Switch at home,,,,,,,,,,,,,k
1,23,152,A,57.34118349613651,72.85585024072286,2.8670591748068257,1.1444170194364651,A,6114.564499934204,Correct,sub_001_day_23_data.csv,1,303,,Button-Switch at home,,,,,,,,,,,,,k
1,23,153,A,34.111608772182976,46.009451562380306,1.7055804386091489,0.722714775120347,A,3292.774600093253,Correct,sub_001_day_23_data.csv,1,303,,Button-Switch at home,,,,,,,,,,,,,k
1,23,154,B,72.66596564722838,59.69064905682666,3.633298282361419,0.9376185228246656,A,1246.685899910517,Incorrect,sub_001_day_23_data.csv,0,303,,Button-Switch at home,,,,,,,,,,,,,k
1,23,155,B,54.75892413366507,41.1568959842341,2.7379462066832536,0.6464910103431455,B,1492.8303000051528,Correct,sub_001_day_23_data.csv,1,303,,Button-Switch at home,,,,,,,,,,,,,d
1,23,156,A,25.315391303742523,50.3067481638391,1.265769565187126,0.7902165522875437,B,2762.7142999554053,Incorrect,sub_001_day_23_data.csv,0,303,,Button-Switch at home,,,,,,,,,,,,,d
1,23,157,B,63.855566604735465,32.856464713309634,3.192778330236773,0.516108140831329,A,2284.5718000316992,Incorrect,sub_001_day_23_data.csv,0,303,,Button-Switch at home,,,,,,,,,,,,,k
1,23,158,B,77.8801085659203,51.195213180004565,3.8940054282960146,0.8041725281263284,B,2270.5981000326574,Correct,sub_001_day_23_data.csv,1,303,,Button-Switch at home,,,,,,,,,,,,,d
1,23,159,B,41.610752243570865,13.764267064543212,2.080537612178543,0.2162086014600845,A,5038.780399947427,Incorrect,sub_001_day_23_data.csv,0,303,,Button-Switch at home,,,,,,,,,,,,,k
1,23,160,B,43.3578246092023,26.259785007861808,2.1678912304601146,0.4124877383277303,B,960.8850000659004,Correct,sub_001_day_23_data.csv,1,303,,Button-Switch at home,,,,,,,,,,,,,d
1,23,161,B,65.16076163338379,56.51828881640577,3.2580380816691896,0.8877872046954326,A,927.9650000389664,Incorrect,sub_001_day_23_data.csv,0,303,,Button-Switch at home,,,,,,,,,,,,,k
1,23,162,B,83.49556134628892,62.37239688911957,4.174778067314446,0.9797433192682246,A,1375.0692999456078,Incorrect,sub_001_day_23_data.csv,0,303,,Button-Switch at home,,,,,,,,,,,,,k
1,23,163,B,34.35443597335596,13.518235199156418,1.7177217986677982,0.2123439419558437,B,2135.0257999729365,Correct,sub_001_day_23_data.csv,1,303,,Button-Switch at home,,,,,,,,,,,,,d
1,23,164,B,84.04890561678948,55.70598068881893,4.202445280839474,0.875027498465042,B,1829.743199981749,Correct,sub_001_day_23_data.csv,1,303,,Button-Switch at home,,,,,,,,,,,,,d
1,23,165,B,66.0409671510045,41.84302452719868,3.302048357550225,0.6572686922931245,B,572.2341999644414,Correct,sub_001_day_23_data.csv,1,303,,Button-Switch at home,,,,,,,,,,,,,d
1,23,166,A,59.06136961911575,77.76400065693929,2.9530684809557872,1.2215140658879615,A,852.8842000523582,Correct,sub_001_day_23_data.csv,1,303,,Button-Switch at home,,,,,,,,,,,,,k
1,23,167,B,89.58874181978888,66.05314336731382,4.479437090989444,1.0375603497463324,A,499.99969999771565,Incorrect,sub_001_day_23_data.csv,0,303,,Button-Switch at home,,,,,,,,,,,,,k
1,23,168,B,49.85900582368103,26.72358792610116,2.4929502911840515,0.4197731375310014,B,1556.9718000479045,Correct,sub_001_day_23_data.csv,1,303,,Button-Switch at home,,,,,,,,,,,,,d
1,23,169,B,37.71397204685414,24.5180941260045,1.885698602342707,0.3851293219313939,B,676.4057000400499,Correct,sub_001_day_23_data.csv,1,303,,Button-Switch at home,,,,,,,,,,,,,d
1,23,170,A,37.47108952377397,57.9787361145255,1.8735544761886984,0.9107278572090728,B,944.1874000476672,Incorrect,sub_001_day_23_data.csv,0,303,,Button-Switch at home,,,,,,,,,,,,,d
1,23,171,A,48.855761239904346,63.15172804122673,2.4427880619952176,0.9919850243790922,B,662.4567999970168,Incorrect,sub_001_day_23_data.csv,0,303,,Button-Switch at home,,,,,,,,,,,,,d
1,23,172,A,23.828414393154723,52.008532874643706,1.1914207196577362,0.8169481240148196,A,1049.8049999587238,Correct,sub_001_day_23_data.csv,1,303,,Button-Switch at home,,,,,,,,,,,,,k
1,23,173,B,80.14291858649626,61.72578383128068,4.007145929324813,0.969586345107115,A,669.6655999403447,Incorrect,sub_001_day_23_data.csv,0,303,,Button-Switch at home,,,,,,,,,,,,,k
1,23,174,A,28.168733068254085,58.100873871369714,1.4084366534127042,0.9126463926072113,B,813.4045000188053,Incorrect,sub_001_day_23_data.csv,0,303,,Button-Switch at home,,,,,,,,,,,,,d
1,23,175,A,30.29744967515356,46.81966807617879,1.514872483757678,0.7354416263581792,A,1015.4236999806016,Correct,sub_001_day_23_data.csv,1,303,,Button-Switch at home,,,,,,,,,,,,,k
1,23,176,B,70.41958103177276,55.36103578816979,3.520979051588638,0.8696091166361791,A,561.9784999871626,Incorrect,sub_001_day_23_data.csv,0,303,,Button-Switch at home,,,,,,,,,,,,,k
1,23,177,A,31.831068388722706,54.79590368781939,1.5915534194361354,0.8607320423623364,A,696.7676000203937,Correct,sub_001_day_23_data.csv,1,303,,Button-Switch at home,,,,,,,,,,,,,k
1,23,178,B,59.61995703374986,52.041164661463725,2.980997851687493,0.8174607029235561,A,1325.6418999517336,Incorrect,sub_001_day_23_data.csv,0,303,,Button-Switch at home,,,,,,,,,,,,,k
1,23,179,B,60.94669016412491,31.859406502382896,3.0473345082062457,0.5004463870780849,B,715.7202999806032,Correct,sub_001_day_23_data.csv,1,303,,Button-Switch at home,,,,,,,,,,,,,d
1,23,180,B,54.07700666705775,25.965225433523734,2.7038503333528876,0.4078608073538051,B,741.3674000417814,Correct,sub_001_day_23_data.csv,1,303,,Button-Switch at home,,,,,,,,,,,,,d
1,23,181,A,48.01922658674686,70.01828887270335,2.4009613293373433,1.099844709697064,A,920.5934000201524,Correct,sub_001_day_23_data.csv,1,303,,Button-Switch at home,,,,,,,,,,,,,k
1,23,182,B,80.1431367756902,52.71370153607961,4.00715683878451,0.8280248874463635,A,677.3268000688404,Incorrect,sub_001_day_23_data.csv,0,303,,Button-Switch at home,,,,,,,,,,,,,k
1,23,183,A,19.04835377126561,45.31655209906478,0.9524176885632804,0.7118307358022051,A,1428.8233999395743,Correct,sub_001_day_23_data.csv,1,303,,Button-Switch at home,,,,,,,,,,,,,k
1,23,184,A,47.84892702903384,71.48550449108569,2.392446351451692,1.1228916787367749,A,1235.6422999873755,Correct,sub_001_day_23_data.csv,1,303,,Button-Switch at home,,,,,,,,,,,,,k
1,23,185,B,71.04371866131166,61.17340338923263,3.552185933065583,0.9609095734134908,B,1937.456400017254,Correct,sub_001_day_23_data.csv,1,303,,Button-Switch at home,,,,,,,,,,,,,d
1,23,186,A,50.35217116853219,71.26300304840701,2.5176085584266095,1.1193966342481128,B,769.7839000029489,Incorrect,sub_001_day_23_data.csv,0,303,,Button-Switch at home,,,,,,,,,,,,,d
1,23,187,B,80.96883755327066,63.19356970687936,4.0484418776635325,0.9926422717262334,A,1994.800299988128,Incorrect,sub_001_day_23_data.csv,0,303,,Button-Switch at home,,,,,,,,,,,,,k
1,23,188,B,78.27255626793234,63.485983821239955,3.9136278133966176,0.9972355018936394,B,612.9652999807149,Correct,sub_001_day_23_data.csv,1,303,,Button-Switch at home,,,,,,,,,,,,,d
1,23,189,B,66.79693987764246,51.90815628418981,3.339846993882123,0.815371412219008,B,816.3017000770196,Correct,sub_001_day_23_data.csv,1,303,,Button-Switch at home,,,,,,,,,,,,,d
1,23,190,B,50.104372458279954,24.063970775228626,2.505218622913998,0.3779959690182886,B,797.7551999501884,Correct,sub_001_day_23_data.csv,1,303,,Button-Switch at home,,,,,,,,,,,,,d
1,23,191,A,32.06570205080799,60.03739865465409,1.6032851025403998,0.9430652527705152,B,714.1135999700055,Incorrect,sub_001_day_23_data.csv,0,303,,Button-Switch at home,,,,,,,,,,,,,d
1,23,192,A,20.074531632595615,39.283638382465845,1.003726581629781,0.6170659487431637,B,676.5061999903992,Incorrect,sub_001_day_23_data.csv,0,303,,Button-Switch at home,,,,,,,,,,,,,d
1,23,193,A,37.746452238201975,48.47859917098326,1.8873226119100988,0.7615000550594262,A,4214.856899925508,Correct,sub_001_day_23_data.csv,1,303,,Button-Switch at home,,,,,,,,,,,,,k
1,23,194,B,64.27526437851108,35.644378718123036,3.2137632189255543,0.5599005916131385,A,3358.5446000797674,Incorrect,sub_001_day_23_data.csv,0,303,,Button-Switch at home,,,,,,,,,,,,,k
1,23,195,A,41.244683400655006,58.4523118163519,2.0622341700327502,0.9181667669379548,A,1086.9084000587463,Correct,sub_001_day_23_data.csv,1,303,,Button-Switch at home,,,,,,,,,,,,,k
1,23,196,A,44.27682701285832,55.06357149423191,2.213841350642916,0.8649365584334766,B,755.4724999936298,Incorrect,sub_001_day_23_data.csv,0,303,,Button-Switch at home,,,,,,,,,,,,,d
1,23,197,B,46.7161874807005,25.249891969827974,2.335809374035025,0.3966243755817374,A,1076.3255000347272,Incorrect,sub_001_day_23_data.csv,0,303,,Button-Switch at home,,,,,,,,,,,,,k
1,23,198,A,34.45883380048055,55.86787333958876,1.7229416900240273,0.8775705022766855,B,589.6851998986676,Incorrect,sub_001_day_23_data.csv,0,303,,Button-Switch at home,,,,,,,,,,,,,d
1,23,199,B,44.12855149655692,24.69606412044694,2.2064275748278463,0.3879248680668929,A,769.9522000038996,Incorrect,sub_001_day_23_data.csv,0,303,,Button-Switch at home,,,,,,,,,,,,,k
1,23,200,A,30.058711973632356,49.97096166093655,1.5029355986816175,0.7849420302340774,B,758.8720000348985,Incorrect,sub_001_day_23_data.csv,0,303,,Button-Switch at home,,,,,,,,,,,,,d
1,23,201,B,45.79434302297127,20.786775992049904,2.289717151148563,0.3265179137422033,A,3377.395199961029,Incorrect,sub_001_day_23_data.csv,0,303,,Button-Switch at home,,,,,,,,,,,,,k
1,23,202,B,56.647741192545475,49.87175303568463,2.8323870596272736,0.7833836647927566,B,641.4726000512019,Correct,sub_001_day_23_data.csv,1,303,,Button-Switch at home,,,,,,,,,,,,,d
1,23,203,B,35.67047143442904,23.436299566831423,1.783523571721452,0.3681365327324363,B,881.5790999215096,Correct,sub_001_day_23_data.csv,1,303,,Button-Switch at home,,,,,,,,,,,,,d
1,23,204,B,65.693353452134,47.92296677074489,3.2846676726067003,0.7527722017259996,B,1721.2119000032544,Correct,sub_001_day_23_data.csv,1,303,,Button-Switch at home,,,,,,,,,,,,,d
1,23,205,B,80.13862547821935,53.46706462683634,4.0069312739109675,0.8398586872033986,B,781.6253000637516,Correct,sub_001_day_23_data.csv,1,303,,Button-Switch at home,,,,,,,,,,,,,d
1,23,206,B,65.00616787859826,41.37399426756289,3.250308393929913,0.6499011822032089,B,545.4311000648886,Correct,sub_001_day_23_data.csv,1,303,,Button-Switch at home,,,,,,,,,,,,,d
1,23,207,A,55.21275859236388,73.13717443712099,2.7606379296181944,1.1488360495798726,A,1045.719400048256,Correct,sub_001_day_23_data.csv,1,303,,Button-Switch at home,,,,,,,,,,,,,k
1,23,208,A,56.933686142972334,75.91780890460883,2.8466843071486165,1.1925141536567645,B,1018.5901999939232,Incorrect,sub_001_day_23_data.csv,0,303,,Button-Switch at home,,,,,,,,,,,,,d
1,23,209,B,70.80708740711577,53.052541929231545,3.5403543703557885,0.8333473798956913,A,807.3616999899969,Incorrect,sub_001_day_23_data.csv,0,303,,Button-Switch at home,,,,,,,,,,,,,k
1,23,210,A,55.0783850740796,76.3844268077201,2.75391925370398,1.1998437705390037,B,229.68790004961193,Incorrect,sub_001_day_23_data.csv,0,303,,Button-Switch at home,,,,,,,,,,,,,d
1,23,211,A,46.94314224509994,63.53801433831558,2.347157112254997,0.9980527953446756,A,787.9600999876857,Correct,sub_001_day_23_data.csv,1,303,,Button-Switch at home,,,,,,,,,,,,,k
1,23,212,B,54.3682193256828,38.58880125715907,2.71841096628414,0.6061514727016376,A,544.8902000207454,Incorrect,sub_001_day_23_data.csv,0,303,,Button-Switch at home,,,,,,,,,,,,,k
1,23,213,A,50.088237216075015,77.18218848545145,2.5044118608037507,1.2123749816693847,B,902.4977000663056,Incorrect,sub_001_day_23_data.csv,0,303,,Button-Switch at home,,,,,,,,,,,,,d
1,23,214,B,47.255523066923914,37.06705967725268,2.3627761533461955,0.5822480118611573,A,717.9024999495596,Incorrect,sub_001_day_23_data.csv,0,303,,Button-Switch at home,,,,,,,,,,,,,k
1,23,215,A,69.0026940709764,86.06664138802255,3.4501347035488203,1.3519316415187943,A,3105.90249998495,Correct,sub_001_day_23_data.csv,1,303,,Button-Switch at home,,,,,,,,,,,,,k
1,23,216,A,41.78119073152123,49.7411686963625,2.0890595365760616,0.781332450787315,A,1587.7194000640884,Correct,sub_001_day_23_data.csv,1,303,,Button-Switch at home,,,,,,,,,,,,,k
1,23,217,A,65.18908696530595,85.96818463032682,3.2594543482652973,1.3503850863854283,B,636.6312999743968,Incorrect,sub_001_day_23_data.csv,0,303,,Button-Switch at home,,,,,,,,,,,,,d
1,23,218,B,50.096444809562115,22.945428376500377,2.5048222404781058,0.3604259461054218,A,756.6533000208437,Incorrect,sub_001_day_23_data.csv,0,303,,Button-Switch at home,,,,,,,,,,,,,k
1,23,219,A,49.79142230052831,60.96565930985908,2.4895711150264157,0.9576463370455572,A,2049.2568999761716,Correct,sub_001_day_23_data.csv,1,303,,Button-Switch at home,,,,,,,,,,,,,k
1,23,220,A,41.27161093373621,53.44790952606332,2.0635805466868105,0.8395577995840622,A,727.4705999298021,Correct,sub_001_day_23_data.csv,1,303,,Button-Switch at home,,,,,,,,,,,,,k
1,23,221,A,56.796290544813104,75.88543220072224,2.8398145272406556,1.1920055815813766,A,779.2813000269234,Correct,sub_001_day_23_data.csv,1,303,,Button-Switch at home,,,,,,,,,,,,,k
1,23,222,B,80.79532737876751,52.6745514323983,4.039766368938376,0.8274099190558011,A,864.3047000514343,Incorrect,sub_001_day_23_data.csv,0,303,,Button-Switch at home,,,,,,,,,,,,,k
1,23,223,A,41.4961611136405,48.5030017095132,2.0748080556820248,0.7618833692382992,B,2581.41300000716,Incorrect,sub_001_day_23_data.csv,0,303,,Button-Switch at home,,,,,,,,,,,,,d
1,23,224,B,83.72065018399827,65.29499034446714,4.186032509199913,1.0256513099119722,A,15117.603600025175,Incorrect,sub_001_day_23_data.csv,0,303,,Button-Switch at home,,,,,,,,,,,,,k
1,23,225,B,66.68231282323303,47.13510200340538,3.3341156411616515,0.7403964509005193,B,434.7653000149876,Correct,sub_001_day_23_data.csv,1,303,,Button-Switch at home,,,,,,,,,,,,,d
1,23,226,B,44.28483997093773,14.74483645976708,2.2142419985468864,0.2316113495019359,A,846.1129000643268,Incorrect,sub_001_day_23_data.csv,0,303,,Button-Switch at home,,,,,,,,,,,,,k
1,23,227,A,50.46684292124561,62.15616193316318,2.5233421460622805,0.9763467085228152,B,767.7713999291882,Incorrect,sub_001_day_23_data.csv,0,303,,Button-Switch at home,,,,,,,,,,,,,d
1,23,228,A,65.93436923152234,81.14617785502283,3.296718461576117,1.2746411810811524,A,548.2163999695331,Correct,sub_001_day_23_data.csv,1,303,,Button-Switch at home,,,,,,,,,,,,,k
1,23,229,A,62.81161076437952,74.09326430566614,3.140580538218976,1.163854274115838,A,563.2084000390023,Correct,sub_001_day_23_data.csv,1,303,,Button-Switch at home,,,,,,,,,,,,,k
1,23,230,B,46.102873030319834,25.5904241234814,2.305143651515992,0.4019734421428809,A,593.2195000350475,Incorrect,sub_001_day_23_data.csv,0,303,,Button-Switch at home,,,,,,,,,,,,,k
1,23,231,B,61.90597369868618,28.8329044544384,3.095298684934309,0.4529062040786005,B,900.0610000221059,Correct,sub_001_day_23_data.csv,1,303,,Button-Switch at home,,,,,,,,,,,,,d
1,23,232,A,52.00160161541832,81.15266425642722,2.600080080770916,1.274743069236154,A,610.3239000076428,Correct,sub_001_day_23_data.csv,1,303,,Button-Switch at home,,,,,,,,,,,,,k
1,23,233,B,53.33731935557716,41.05321586347779,2.6668659677788575,0.6448624068146889,A,823.4515000367537,Incorrect,sub_001_day_23_data.csv,0,303,,Button-Switch at home,,,,,,,,,,,,,k
1,23,234,A,33.310468428716156,60.84642748690701,1.6655234214358077,0.9557734479502552,B,732.2305999696255,Incorrect,sub_001_day_23_data.csv,0,303,,Button-Switch at home,,,,,,,,,,,,,d
1,23,235,A,34.71646052482263,44.34855430980243,1.7358230262411314,0.6966254620850164,A,704.8468999564648,Correct,sub_001_day_23_data.csv,1,303,,Button-Switch at home,,,,,,,,,,,,,k
1,23,236,B,53.75081235970583,29.562599293633788,2.6875406179852916,0.4643682238094936,A,675.5166000220925,Incorrect,sub_001_day_23_data.csv,0,303,,Button-Switch at home,,,,,,,,,,,,,k
1,23,237,B,82.55716048730098,53.097993118447896,4.1278580243650485,0.8340613255063866,B,581.908900057897,Correct,sub_001_day_23_data.csv,1,303,,Button-Switch at home,,,,,,,,,,,,,d
1,23,238,B,70.55278841307853,44.56934946293307,3.5276394206539265,0.7000937042401336,A,674.3070000084117,Incorrect,sub_001_day_23_data.csv,0,303,,Button-Switch at home,,,,,,,,,,,,,k
1,23,239,B,45.77911653924529,36.4703143172411,2.288955826962264,0.5728743576657764,A,531.6958000184968,Incorrect,sub_001_day_23_data.csv,0,303,,Button-Switch at home,,,,,,,,,,,,,k
1,23,240,A,53.56834997714255,79.19284858776545,2.6784174988571277,1.243958356700864,A,900.7556000724436,Correct,sub_001_day_23_data.csv,1,303,,Button-Switch at home,,,,,,,,,,,,,k
1,23,241,B,50.70387371012467,35.170863871645324,2.5351936855062336,0.5524626377978381,A,869.2409000359476,Incorrect,sub_001_day_23_data.csv,0,303,,Button-Switch at home,,,,,,,,,,,,,k
1,23,242,B,60.529351202812194,37.13947160265945,3.02646756014061,0.5833854557256083,A,1143.8932999735698,Incorrect,sub_001_day_23_data.csv,0,303,,Button-Switch at home,,,,,,,,,,,,,k
1,23,243,A,37.24910393934508,70.35385595692833,1.862455196967254,1.1051157851300026,A,1029.438899946399,Correct,sub_001_day_23_data.csv,1,303,,Button-Switch at home,,,,,,,,,,,,,k
1,23,244,B,72.32969918376648,45.630307697510304,3.616484959188324,0.7167591972177008,A,744.9042000807822,Incorrect,sub_001_day_23_data.csv,0,303,,Button-Switch at home,,,,,,,,,,,,,k
1,23,245,B,51.56269325600114,34.25881909560827,2.578134662800057,0.5381362719571232,A,2212.4815999995917,Incorrect,sub_001_day_23_data.csv,0,303,,Button-Switch at home,,,,,,,,,,,,,k
1,23,246,A,60.618291584229105,76.61559113425736,3.0309145792114554,1.203474891289111,B,832.9300000332296,Incorrect,sub_001_day_23_data.csv,0,303,,Button-Switch at home,,,,,,,,,,,,,d
1,23,247,A,37.65657955289655,46.37828993867937,1.8828289776448277,0.7285084747870627,B,941.5661999955772,Incorrect,sub_001_day_23_data.csv,0,303,,Button-Switch at home,,,,,,,,,,,,,d
1,23,248,A,49.7018852606092,56.781119097231475,2.48509426303046,0.8919157330923475,A,3520.0580999953672,Correct,sub_001_day_23_data.csv,1,303,,Button-Switch at home,,,,,,,,,,,,,k
1,23,249,B,78.48767312031978,59.87763068900152,3.924383656015989,0.9405556234346496,A,1960.8522000489756,Incorrect,sub_001_day_23_data.csv,0,303,,Button-Switch at home,,,,,,,,,,,,,k
1,23,250,B,84.89071648973206,65.54353614798447,4.244535824486603,1.0295554582640254,B,657.9720999579877,Correct,sub_001_day_23_data.csv,1,303,,Button-Switch at home,,,,,,,,,,,,,d
1,23,251,B,66.00973818555629,53.9576843021947,3.300486909277814,0.8475653230424609,B,2539.062299998477,Correct,sub_001_day_23_data.csv,1,303,,Button-Switch at home,,,,,,,,,,,,,d
1,23,252,B,39.26455203122923,20.595505651912926,1.9632276015614616,0.3235134462650835,A,705.0171999726444,Incorrect,sub_001_day_23_data.csv,0,303,,Button-Switch at home,,,,,,,,,,,,,k
1,23,253,A,50.71336109356388,73.36936217216022,2.5356680546781942,1.1524832459931371,A,796.3138000341132,Correct,sub_001_day_23_data.csv,1,303,,Button-Switch at home,,,,,,,,,,,,,k
1,23,254,A,28.285853517663806,39.38120323107026,1.4142926758831902,0.6185984938012848,A,2868.4030000586063,Correct,sub_001_day_23_data.csv,1,303,,Button-Switch at home,,,,,,,,,,,,,k
1,23,255,A,41.98393139865933,59.889937233375655,2.0991965699329667,0.940748934181634,A,651.575900032185,Correct,sub_001_day_23_data.csv,1,303,,Button-Switch at home,,,,,,,,,,,,,k
1,23,256,A,45.49788055580289,77.67185145956473,2.274894027790144,1.2200665896804312,A,742.8990000626072,Correct,sub_001_day_23_data.csv,1,303,,Button-Switch at home,,,,,,,,,,,,,k
1,23,257,A,22.014735325345875,47.572415379736384,1.1007367662672936,0.7472657533525096,A,1023.6977000022308,Correct,sub_001_day_23_data.csv,1,303,,Button-Switch at home,,,,,,,,,,,,,k
1,23,258,A,47.99501400783624,71.56849712119242,2.3997507003918117,1.1241953239220015,A,546.93650000263,Correct,sub_001_day_23_data.csv,1,303,,Button-Switch at home,,,,,,,,,,,,,k
1,23,259,A,44.51681339824114,70.33736475617023,2.225840669912057,1.1048567419542503,A,579.4007000513375,Correct,sub_001_day_23_data.csv,1,303,,Button-Switch at home,,,,,,,,,,,,,k
1,23,260,A,23.82642257909305,46.29482523595318,1.1913211289546526,0.7271974143024694,A,465.6488999025896,Correct,sub_001_day_23_data.csv,1,303,,Button-Switch at home,,,,,,,,,,,,,k
1,23,261,B,71.5116140660177,57.46715178609562,3.575580703300885,0.9026919093696376,A,610.8117999974638,Incorrect,sub_001_day_23_data.csv,0,303,,Button-Switch at home,,,,,,,,,,,,,k
1,23,262,B,63.595708321279965,48.75285593791,3.1797854160639982,0.7658080702802978,A,838.1926999427378,Incorrect,sub_001_day_23_data.csv,0,303,,Button-Switch at home,,,,,,,,,,,,,k
1,23,263,B,71.87309741155892,43.7211761764388,3.5936548705779456,0.6867706294110261,A,861.7649000370875,Incorrect,sub_001_day_23_data.csv,0,303,,Button-Switch at home,,,,,,,,,,,,,k
1,23,264,A,47.74121613219557,60.370148510339966,2.3870608066097785,0.948292075281044,B,650.0214000698179,Incorrect,sub_001_day_23_data.csv,0,303,,Button-Switch at home,,,,,,,,,,,,,d
1,23,265,A,22.759753172115307,38.39490520798334,1.1379876586057651,0.6031057606833847,A,655.8515999931842,Correct,sub_001_day_23_data.csv,1,303,,Button-Switch at home,,,,,,,,,,,,,k
1,23,266,A,28.543095767396125,44.62258255039104,1.427154788369806,0.700929887622563,A,671.5847000014037,Correct,sub_001_day_23_data.csv,1,303,,Button-Switch at home,,,,,,,,,,,,,k
1,23,267,A,32.40264389066107,61.88139302804218,1.6201321945330531,0.9720306486539998,A,577.709500095807,Correct,sub_001_day_23_data.csv,1,303,,Button-Switch at home,,,,,,,,,,,,,k
1,23,268,B,55.449295909280906,30.52195968074649,2.7724647954640456,0.4794378215309852,A,836.8116000201553,Incorrect,sub_001_day_23_data.csv,0,303,,Button-Switch at home,,,,,,,,,,,,,k
1,23,269,B,67.63689571834223,52.18222446843884,3.3818447859171115,0.8196764651901048,A,635.2923000231385,Incorrect,sub_001_day_23_data.csv,0,303,,Button-Switch at home,,,,,,,,,,,,,k
1,23,270,B,68.15565224884897,56.06634749746857,3.4077826124424484,0.8806881270582988,A,487.4106999486685,Incorrect,sub_001_day_23_data.csv,0,303,,Button-Switch at home,,,,,,,,,,,,,k
1,23,271,B,67.83499228579734,38.18287875125446,3.391749614289867,0.599775256889254,A,693.712699925527,Incorrect,sub_001_day_23_data.csv,0,303,,Button-Switch at home,,,,,,,,,,,,,k
1,23,272,A,29.23044676357131,61.83931391391248,1.4615223381785656,0.9713696714749026,A,1146.4098999276755,Correct,sub_001_day_23_data.csv,1,303,,Button-Switch at home,,,,,,,,,,,,,k
1,23,273,B,44.062454912809265,28.375828044737325,2.203122745640463,0.44572646462437,A,614.6816000109538,Incorrect,sub_001_day_23_data.csv,0,303,,Button-Switch at home,,,,,,,,,,,,,k
1,23,274,A,19.72825465055258,34.46385679405396,0.9864127325276288,0.541356996592853,B,1615.003600018099,Incorrect,sub_001_day_23_data.csv,0,303,,Button-Switch at home,,,,,,,,,,,,,d
1,23,275,B,79.03755149422948,48.884576746796405,3.951877574711474,0.7678771359079101,A,546.8079999554902,Incorrect,sub_001_day_23_data.csv,0,303,,Button-Switch at home,,,,,,,,,,,,,k
1,23,276,A,52.7244559619098,67.80429202263079,2.63622279809549,1.0650673285007697,A,876.6726000467315,Correct,sub_001_day_23_data.csv,1,303,,Button-Switch at home,,,,,,,,,,,,,k
1,23,277,A,24.024480952434416,47.49246650304647,1.2012240476217209,0.7460099193341506,A,593.783300020732,Correct,sub_001_day_23_data.csv,1,303,,Button-Switch at home,,,,,,,,,,,,,k
1,23,278,A,22.311161280471456,53.150831083713186,1.1155580640235727,0.8348913023239268,A,435.6326999841258,Correct,sub_001_day_23_data.csv,1,303,,Button-Switch at home,,,,,,,,,,,,,k
1,23,279,A,19.04615156883226,41.44974778207395,0.9523075784416132,0.651091115626567,A,607.6796000124887,Correct,sub_001_day_23_data.csv,1,303,,Button-Switch at home,,,,,,,,,,,,,k
1,23,280,A,16.227024204839733,37.83460670311459,0.8113512102419866,0.5943046123498198,A,374.72259998321533,Correct,sub_001_day_23_data.csv,1,303,,Button-Switch at home,,,,,,,,,,,,,k
1,23,281,B,82.50063628654053,60.73069824770147,4.125031814327026,0.9539555773117876,A,909.8021000390872,Incorrect,sub_001_day_23_data.csv,0,303,,Button-Switch at home,,,,,,,,,,,,,k
1,23,282,A,12.433628318822254,34.51055417720701,0.6216814159411128,0.5420905173721304,A,716.593399993144,Correct,sub_001_day_23_data.csv,1,303,,Button-Switch at home,,,,,,,,,,,,,k
1,23,283,B,61.97879239232289,32.30436024815507,3.0989396196161443,0.5074357041726105,A,936.7826000088826,Incorrect,sub_001_day_23_data.csv,0,303,,Button-Switch at home,,,,,,,,,,,,,k
1,23,284,A,49.401375038691974,67.24062193209676,2.470068751934599,1.0562132194234195,A,1099.6712000342086,Correct,sub_001_day_23_data.csv,1,303,,Button-Switch at home,,,,,,,,,,,,,k
1,23,285,B,83.1757399430067,66.48523765232056,4.158786997150335,1.0443476709035089,B,1686.91370007582,Correct,sub_001_day_23_data.csv,1,303,,Button-Switch at home,,,,,,,,,,,,,d
1,23,286,B,75.04034523857801,59.972437338221496,3.7520172619289007,0.942044842798154,B,674.6958999428898,Correct,sub_001_day_23_data.csv,1,303,,Button-Switch at home,,,,,,,,,,,,,d
1,23,287,B,59.79305904007359,50.288190864652265,2.989652952003679,0.7899250549135646,B,513.562300009653,Correct,sub_001_day_23_data.csv,1,303,,Button-Switch at home,,,,,,,,,,,,,d
1,23,288,B,63.60585174753323,45.684273201694985,3.1802925873766617,0.7176068853751699,B,472.7398999966681,Correct,sub_001_day_23_data.csv,1,303,,Button-Switch at home,,,,,,,,,,,,,d
1,23,289,B,51.33747564676747,23.52208353875844,2.566873782338374,0.3694840242124446,A,619.7234999854118,Incorrect,sub_001_day_23_data.csv,0,303,,Button-Switch at home,,,,,,,,,,,,,k
1,23,290,B,34.952231150104154,21.892018518865378,1.7476115575052078,0.3438790227555959,B,622.8832999477163,Correct,sub_001_day_23_data.csv,1,303,,Button-Switch at home,,,,,,,,,,,,,d
1,23,291,A,46.50327192520377,67.27747350356586,2.325163596260188,1.0567920825544224,A,506.470900028944,Correct,sub_001_day_23_data.csv,1,303,,Button-Switch at home,,,,,,,,,,,,,k
1,23,292,B,66.04813188080519,58.007014096243104,3.302406594040259,0.9111720467071844,B,481.7188000306487,Correct,sub_001_day_23_data.csv,1,303,,Button-Switch at home,,,,,,,,,,,,,d
1,23,293,B,38.86341107959,11.74764287920592,1.9431705539795,0.1845315428315488,A,770.4775999300182,Incorrect,sub_001_day_23_data.csv,0,303,,Button-Switch at home,,,,,,,,,,,,,k
1,23,294,B,54.29256963257085,45.63561873408937,2.714628481628542,0.7168426227851995,B,1523.024299996905,Correct,sub_001_day_23_data.csv,1,303,,Button-Switch at home,,,,,,,,,,,,,d
1,23,295,B,70.61139207819606,47.12727108259793,3.530569603909803,0.7402734430841218,B,875.6631999276578,Correct,sub_001_day_23_data.csv,1,303,,Button-Switch at home,,,,,,,,,,,,,d
1,23,296,B,61.754289516957215,39.17289242351371,3.0877144758478607,0.6153263552878697,B,849.8446999583393,Correct,sub_001_day_23_data.csv,1,303,,Button-Switch at home,,,,,,,,,,,,,d
1,23,297,A,35.75983403780489,58.08335779962564,1.7879917018902447,0.9123712507956564,B,490.12779991608113,Incorrect,sub_001_day_23_data.csv,0,303,,Button-Switch at home,,,,,,,,,,,,,d
1,23,298,B,39.758136629682134,23.01320929571626,1.9879068314841064,0.3614906462947326,A,810.1490000262856,Incorrect,sub_001_day_23_data.csv,0,303,,Button-Switch at home,,,,,,,,,,,,,k
1,23,299,B,30.441375603894315,13.321954761952142,1.5220687801947157,0.209260776058022,B,734.6174999838695,Correct,sub_001_day_23_data.csv,1,303,,Button-Switch at home,,,,,,,,,,,,,d
1,23,300,B,57.68224424676768,27.642337618664875,2.884112212338384,0.4342048239542318,B,1110.291499993764,Correct,sub_001_day_23_data.csv,1,303,,Button-Switch at home,,,,,,,,,,,,,d
1,23,301,A,45.14273994476427,56.73281679363224,2.257136997238214,0.8911570022816534,B,563.1289000157267,Incorrect,sub_001_day_23_data.csv,0,303,,Button-Switch at home,,,,,,,,,,,,,d
1,23,302,B,66.5732457411697,58.648391930741,3.3286622870584845,0.921246786172354,A,769.6346999146044,Incorrect,sub_001_day_23_data.csv,0,303,,Button-Switch at home,,,,,,,,,,,,,k
