subject,day,trial,cat,x,y,xt,yt,resp,rt,fb,f_name,acc,n_trials,block,session_type,ns_left_digit,ns_right_digit,ns_left_size,ns_right_size,ns_congruent,ns_cue,ns_correct_side,ns_resp,ns_rt,ns_fb,acc_stroop,acc_stroop_mean,resp_key
1,7,1200,B,33.386380868509235,18.40362816575585,1.6693190434254617,0.2890835152246839,B,1491.140500176698,Correct,sub_001_day_07_data.csv,1,300,48.0,Training at home,,,,,,,,,,,,,
1,7,1201,B,60.61588596632168,46.645775931327464,3.030794298316084,0.7327101349342697,A,857.697700150311,Incorrect,sub_001_day_07_data.csv,0,300,48.0,Training at home,,,,,,,,,,,,,
1,7,1202,A,33.39751478195147,60.8151783643989,1.6698757390975738,0.9552825878817424,A,665.2829996310174,Correct,sub_001_day_07_data.csv,1,300,48.0,Training at home,,,,,,,,,,,,,
1,7,1203,A,45.73362333389812,60.1032883960525,2.286681166694906,0.944100246408136,A,895.9610001184046,Correct,sub_001_day_07_data.csv,1,300,48.0,Training at home,,,,,,,,,,,,,
1,7,1204,A,60.97437244791043,77.60037650600589,3.048718622395522,1.2189438637353502,A,888.9472000300884,Correct,sub_001_day_07_data.csv,1,300,48.0,Training at home,,,,,,,,,,,,,
1,7,1205,A,42.89238615570089,50.24279836586747,2.144619307785044,0.7892120312100126,B,1097.3167000338435,Incorrect,sub_001_day_07_data.csv,0,300,48.0,Training at home,,,,,,,,,,,,,
1,7,1206,B,39.56258377228701,23.19979539895949,1.9781291886143504,0.3644215339507871,B,728.7924000993371,Correct,sub_001_day_07_data.csv,1,300,48.0,Training at home,,,,,,,,,,,,,
1,7,1207,B,78.6345670467875,49.33978206786466,3.9317283523393742,0.7750274843706251,B,766.2865999154747,Correct,sub_001_day_07_data.csv,1,300,48.0,Training at home,,,,,,,,,,,,,
1,7,1208,A,59.12167379763227,78.96476632002998,2.9560836898816136,1.2403756488172044,A,652.2273998707533,Correct,sub_001_day_07_data.csv,1,300,48.0,Training at home,,,,,,,,,,,,,
1,7,1209,B,51.32163934313111,29.268411843115903,2.5660819671565553,0.4597471381428671,B,1043.610899709165,Correct,sub_001_day_07_data.csv,1,300,48.0,Training at home,,,,,,,,,,,,,
1,7,1210,B,32.5280286419798,16.008879867738614,1.62640143209899,0.2514668969234458,B,1244.2565998062491,Correct,sub_001_day_07_data.csv,1,300,48.0,Training at home,,,,,,,,,,,,,
1,7,1211,A,45.32480287935553,65.20527231192126,2.2662401439677766,1.0242420223522688,A,635.7474001124501,Correct,sub_001_day_07_data.csv,1,300,48.0,Training at home,,,,,,,,,,,,,
1,7,1212,A,35.99718082163493,67.12671773998676,1.7998590410817463,1.05442401655769,B,3093.6702000908554,Incorrect,sub_001_day_07_data.csv,0,300,48.0,Training at home,,,,,,,,,,,,,
1,7,1213,A,45.406041916193345,70.9738043235005,2.2703020958096674,1.1148539113001434,B,720.8062997087836,Incorrect,sub_001_day_07_data.csv,0,300,48.0,Training at home,,,,,,,,,,,,,
1,7,1214,A,52.58380795956336,65.23536846162159,2.629190397978168,1.0247147715662683,A,3096.0213001817465,Correct,sub_001_day_07_data.csv,1,300,48.0,Training at home,,,,,,,,,,,,,
1,7,1215,A,31.07476809629504,58.06366276025457,1.5537384048147522,0.9120618818406552,B,2053.085600025952,Incorrect,sub_001_day_07_data.csv,0,300,48.0,Training at home,,,,,,,,,,,,,
1,7,1216,B,44.30683034008581,29.135910117496017,2.2153415170042905,0.45766580590389,B,638.1409000605345,Correct,sub_001_day_07_data.csv,1,300,48.0,Training at home,,,,,,,,,,,,,
1,7,1217,B,46.64084165758318,25.352527846387662,2.332042082879159,0.3982365761607107,B,1320.0778001919389,Correct,sub_001_day_07_data.csv,1,300,48.0,Training at home,,,,,,,,,,,,,
1,7,1218,B,65.21650147819253,45.373868547121,3.2608250739096265,0.7127310604629216,B,3566.6502001695335,Correct,sub_001_day_07_data.csv,1,300,48.0,Training at home,,,,,,,,,,,,,
1,7,1219,A,28.25630347330126,50.64151469920124,1.4128151736650632,0.7954750527283506,A,2052.195099648088,Correct,sub_001_day_07_data.csv,1,300,48.0,Training at home,,,,,,,,,,,,,
1,7,1220,B,60.48863238180589,42.408552427599886,3.024431619090295,0.666151983779627,B,1484.186999965459,Correct,sub_001_day_07_data.csv,1,300,48.0,Training at home,,,,,,,,,,,,,
1,7,1221,A,62.35399845227641,83.66323644518874,3.11769992261382,1.314179044958754,A,20562.12199991569,Correct,sub_001_day_07_data.csv,1,300,48.0,Training at home,,,,,,,,,,,,,
1,7,1222,A,48.02587898316633,74.90997029205926,2.4012939491583167,1.176683061750815,A,594.9718998745084,Correct,sub_001_day_07_data.csv,1,300,48.0,Training at home,,,,,,,,,,,,,
1,7,1223,B,37.02235032911637,22.23357326484248,1.8511175164558185,0.3492441521593978,B,598.8591997884214,Correct,sub_001_day_07_data.csv,1,300,48.0,Training at home,,,,,,,,,,,,,
1,7,1224,B,52.622014622906896,37.86517152779571,2.6311007311453447,0.5947847234932021,A,744.4803998805583,Incorrect,sub_001_day_07_data.csv,0,300,48.0,Training at home,,,,,,,,,,,,,
1,7,1225,B,50.34622462900404,24.974921291391148,2.517311231450202,0.3923051462650886,B,909.8028000444174,Correct,sub_001_day_07_data.csv,1,300,49.0,Training at home,,,,,,,,,,,,,
1,7,1226,A,37.21337786815905,69.78284878960021,1.8606688934079525,1.0961464255198772,A,4412.748499773443,Correct,sub_001_day_07_data.csv,1,300,49.0,Training at home,,,,,,,,,,,,,
1,7,1227,A,40.92106282645312,55.797619829865255,2.0460531413226564,0.8764669627265043,B,5711.895199958235,Incorrect,sub_001_day_07_data.csv,0,300,49.0,Training at home,,,,,,,,,,,,,
1,7,1228,A,66.43395642072898,88.86819947664083,3.321697821036449,1.3959384130678356,A,1417.1963999979198,Correct,sub_001_day_07_data.csv,1,300,49.0,Training at home,,,,,,,,,,,,,
1,7,1229,B,44.349648843465474,29.48842130357391,2.2174824421732735,0.4632030386663427,B,1029.7491000965238,Correct,sub_001_day_07_data.csv,1,300,49.0,Training at home,,,,,,,,,,,,,
1,7,1230,A,50.25734836193536,58.5149564864446,2.5128674180967683,0.919150787114704,B,1349.3288001045585,Incorrect,sub_001_day_07_data.csv,0,300,49.0,Training at home,,,,,,,,,,,,,
1,7,1231,A,52.463038461205805,61.24793390293728,2.62315192306029,0.9620802959851048,B,1737.374400254339,Incorrect,sub_001_day_07_data.csv,0,300,49.0,Training at home,,,,,,,,,,,,,
1,7,1232,B,39.74043750600889,28.854459958916436,1.9870218753004445,0.4532447971511635,B,1039.5152997225523,Correct,sub_001_day_07_data.csv,1,300,49.0,Training at home,,,,,,,,,,,,,
1,7,1233,A,20.80295763807011,45.415930432879726,1.0401478819035055,0.7133917670194004,A,736.1113000661135,Correct,sub_001_day_07_data.csv,1,300,49.0,Training at home,,,,,,,,,,,,,
1,7,1234,B,43.4040659601453,16.01052394004694,2.1702032980072654,0.2514927219508748,B,1385.0249000824988,Correct,sub_001_day_07_data.csv,1,300,49.0,Training at home,,,,,,,,,,,,,
1,7,1235,B,60.51830588943532,28.028474727874176,3.025915294471766,0.4402702514820835,A,1246.2716000154614,Incorrect,sub_001_day_07_data.csv,0,300,49.0,Training at home,,,,,,,,,,,,,
1,7,1236,B,56.6166069928075,27.25742723102325,2.830830349640375,0.4281586657237052,B,586.5970999002457,Correct,sub_001_day_07_data.csv,1,300,49.0,Training at home,,,,,,,,,,,,,
1,7,1237,A,49.33436404855274,60.927389815661115,2.466718202427637,0.9570452012364128,A,2097.4344997666776,Correct,sub_001_day_07_data.csv,1,300,49.0,Training at home,,,,,,,,,,,,,
1,7,1238,A,31.215831946812585,58.68985846925071,1.560791597340629,0.9218981410361138,A,1519.1937000490725,Correct,sub_001_day_07_data.csv,1,300,49.0,Training at home,,,,,,,,,,,,,
1,7,1239,B,56.629787342899874,46.7393548207295,2.831489367144994,0.7341800686916525,B,3551.4984000474215,Correct,sub_001_day_07_data.csv,1,300,49.0,Training at home,,,,,,,,,,,,,
1,7,1240,A,57.277479718312634,81.83151869720022,2.8638739859156317,1.2854064898561002,A,1692.958700004965,Correct,sub_001_day_07_data.csv,1,300,49.0,Training at home,,,,,,,,,,,,,
1,7,1241,B,54.89778945508682,37.03986872415437,2.744889472754341,0.5818208973686686,B,4842.979999724776,Correct,sub_001_day_07_data.csv,1,300,49.0,Training at home,,,,,,,,,,,,,
1,7,1242,A,30.56989248686797,44.10248961315435,1.5284946243433983,0.6927602868685292,A,2223.689300008118,Correct,sub_001_day_07_data.csv,1,300,49.0,Training at home,,,,,,,,,,,,,
1,7,1243,B,77.04198412489909,58.719172860698045,3.8520992062449544,0.9223586104201908,B,2975.657899864018,Correct,sub_001_day_07_data.csv,1,300,49.0,Training at home,,,,,,,,,,,,,
1,7,1244,B,66.32961364065598,55.903830728870496,3.3164806820327986,0.8781353196267343,B,3015.1418996974826,Correct,sub_001_day_07_data.csv,1,300,49.0,Training at home,,,,,,,,,,,,,
1,7,1245,B,38.55046221510134,21.164537956069083,1.927523110755067,0.3324517847970448,B,2862.8068999387324,Correct,sub_001_day_07_data.csv,1,300,49.0,Training at home,,,,,,,,,,,,,
1,7,1246,A,26.13471063460489,36.8772171149214,1.3067355317302445,0.5792659718653643,A,2930.996300186962,Correct,sub_001_day_07_data.csv,1,300,49.0,Training at home,,,,,,,,,,,,,
1,7,1247,A,57.82135611834319,83.02480857514192,2.8910678059171597,1.3041506434268235,A,3981.6423999145622,Correct,sub_001_day_07_data.csv,1,300,49.0,Training at home,,,,,,,,,,,,,
1,7,1248,A,32.420644890502295,50.92645339549415,1.6210322445251149,0.799950859303337,B,1803.458999842405,Incorrect,sub_001_day_07_data.csv,0,300,49.0,Training at home,,,,,,,,,,,,,
1,7,1249,A,27.213517925063243,54.92431022339519,1.360675896253162,0.8627490475065255,A,1877.8295000083745,Correct,sub_001_day_07_data.csv,1,300,49.0,Training at home,,,,,,,,,,,,,
1,7,1250,A,11.625408706887672,31.02430780877179,0.5812704353443836,0.4873286874737295,A,907.220299821347,Correct,sub_001_day_07_data.csv,1,300,50.0,Training at home,,,,,,,,,,,,,
1,7,1251,B,31.932001196854102,17.950166407741722,1.5966000598427053,0.2819605545863784,B,3644.492800347507,Correct,sub_001_day_07_data.csv,1,300,50.0,Training at home,,,,,,,,,,,,,
1,7,1252,A,63.590452004389554,87.93525408761826,3.1795226002194776,1.3812837411660668,A,3487.5446003861725,Correct,sub_001_day_07_data.csv,1,300,50.0,Training at home,,,,,,,,,,,,,
1,7,1253,A,39.75344202230154,68.65837406070166,1.9876721011150773,1.0784832177826018,A,4560.431699734181,Correct,sub_001_day_07_data.csv,1,300,50.0,Training at home,,,,,,,,,,,,,
1,7,1254,B,64.1175809001502,56.029416676384514,3.20587904500751,0.8801080190772552,B,1609.9926000460982,Correct,sub_001_day_07_data.csv,1,300,50.0,Training at home,,,,,,,,,,,,,
1,7,1255,A,30.45983792167854,60.68406464551063,1.522991896083927,0.9532230584015214,A,749.437500257045,Correct,sub_001_day_07_data.csv,1,300,50.0,Training at home,,,,,,,,,,,,,
1,7,1256,A,45.05630817545495,58.14661253118026,2.2528154087727477,0.9133648537954404,B,1404.3669998645782,Incorrect,sub_001_day_07_data.csv,0,300,50.0,Training at home,,,,,,,,,,,,,
1,7,1257,A,12.952183535198376,33.87479735096298,0.6476091767599188,0.5321040724981414,A,552.6955998502672,Correct,sub_001_day_07_data.csv,1,300,50.0,Training at home,,,,,,,,,,,,,
1,7,1258,A,44.54996882462368,62.796765621626115,2.227498441231184,0.9864092877305034,B,783.2514997571707,Incorrect,sub_001_day_07_data.csv,0,300,50.0,Training at home,,,,,,,,,,,,,
1,7,1259,B,57.67002273266978,34.130679799176285,2.8835011366334893,0.5361234645955888,A,766.7396003380418,Incorrect,sub_001_day_07_data.csv,0,300,50.0,Training at home,,,,,,,,,,,,,
1,7,1260,B,41.01441642791471,13.421395488662656,2.0507208213957355,0.2108227873405289,A,449.783300049603,Incorrect,sub_001_day_07_data.csv,0,300,50.0,Training at home,,,,,,,,,,,,,
1,7,1261,A,34.85572073436582,59.524940764326765,1.742786036718291,0.9350155830528828,A,949.9370995908976,Correct,sub_001_day_07_data.csv,1,300,50.0,Training at home,,,,,,,,,,,,,
1,7,1262,A,25.38365801751391,42.720540829639056,1.2691829008756954,0.6710526861388844,A,1009.4364997930824,Correct,sub_001_day_07_data.csv,1,300,50.0,Training at home,,,,,,,,,,,,,
1,7,1263,A,26.955532779559327,39.92759313019663,1.3477766389779662,0.62718116626674,A,1219.4660999812186,Correct,sub_001_day_07_data.csv,1,300,50.0,Training at home,,,,,,,,,,,,,
1,7,1264,B,62.42883237217963,34.03618361163248,3.1214416186089813,0.5346391219526896,B,2519.233699887991,Correct,sub_001_day_07_data.csv,1,300,50.0,Training at home,,,,,,,,,,,,,
1,7,1265,B,55.19354006182241,40.01098794419887,2.7596770030911206,0.6284911289418247,B,642.7365997806191,Correct,sub_001_day_07_data.csv,1,300,50.0,Training at home,,,,,,,,,,,,,
1,7,1266,B,50.81365907614979,38.755401554329794,2.5406829538074898,0.6087684240500246,B,1700.8159002289176,Correct,sub_001_day_07_data.csv,1,300,50.0,Training at home,,,,,,,,,,,,,
1,7,1267,B,35.54837333715356,12.482083821998264,1.7774186668576784,0.1960681141834087,B,1176.0889003053308,Correct,sub_001_day_07_data.csv,1,300,50.0,Training at home,,,,,,,,,,,,,
1,7,1268,A,22.263527286509117,48.82792219329951,1.1131763643254555,0.7669872082626188,A,1114.9538001045585,Correct,sub_001_day_07_data.csv,1,300,50.0,Training at home,,,,,,,,,,,,,
1,7,1269,A,47.624278572387254,78.10164466547371,2.3812139286193625,1.2268177655716634,A,10780.326400417836,Correct,sub_001_day_07_data.csv,1,300,50.0,Training at home,,,,,,,,,,,,,
1,7,1270,A,67.19983064237687,82.15114687351988,3.359991532118843,1.2904271975091308,A,3875.551499892026,Correct,sub_001_day_07_data.csv,1,300,50.0,Training at home,,,,,,,,,,,,,
1,7,1271,B,68.6648964063721,36.859867277933134,3.433244820318605,0.5789934412632477,A,9347.725600004196,Incorrect,sub_001_day_07_data.csv,0,300,50.0,Training at home,,,,,,,,,,,,,
1,7,1272,A,57.8936292319313,68.49946819625629,2.894681461596565,1.075987130300832,A,681.8996001966298,Correct,sub_001_day_07_data.csv,1,300,50.0,Training at home,,,,,,,,,,,,,
1,7,1273,A,50.25034774124532,70.07454432309117,2.512517387062266,1.100728368245378,B,2496.21419981122,Incorrect,sub_001_day_07_data.csv,0,300,50.0,Training at home,,,,,,,,,,,,,
1,7,1274,A,16.74028511841194,32.92503761905089,0.8370142559205971,0.5171852815158892,A,509.4453999772668,Correct,sub_001_day_07_data.csv,1,300,50.0,Training at home,,,,,,,,,,,,,
1,7,1275,B,72.37528407588923,52.11335908671426,3.6187642037944614,0.8185947303035421,B,721.9241000711918,Correct,sub_001_day_07_data.csv,1,300,51.0,Training at home,,,,,,,,,,,,,
1,7,1276,B,42.30660493907985,22.586163640773552,2.1153302469539925,0.3547826288331555,A,1212.767600081861,Incorrect,sub_001_day_07_data.csv,0,300,51.0,Training at home,,,,,,,,,,,,,
1,7,1277,A,68.0262340613101,81.76641516787684,3.401311703065505,1.2843838460088746,A,5552.024799864739,Correct,sub_001_day_07_data.csv,1,300,51.0,Training at home,,,,,,,,,,,,,
1,7,1278,A,43.460994263424986,54.62158315669099,2.1730497131712494,0.8579938218625219,B,1023.2186000794172,Incorrect,sub_001_day_07_data.csv,0,300,51.0,Training at home,,,,,,,,,,,,,
1,7,1279,A,45.82090291719076,61.297149410559726,2.291045145859538,0.962853371371052,A,3368.215899914503,Correct,sub_001_day_07_data.csv,1,300,51.0,Training at home,,,,,,,,,,,,,
1,7,1280,A,35.675926440446915,48.23072378727219,1.7837963220223458,0.757606437637064,A,10306.64369976148,Correct,sub_001_day_07_data.csv,1,300,51.0,Training at home,,,,,,,,,,,,,
1,7,1281,A,48.70217522499049,55.90982464419877,2.435108761249525,0.8782294718285419,A,7049.297999590635,Correct,sub_001_day_07_data.csv,1,300,51.0,Training at home,,,,,,,,,,,,,
1,7,1282,B,56.58156102105882,41.01239510564648,2.8290780510529405,0.6442211958501047,A,480.63379991799593,Incorrect,sub_001_day_07_data.csv,0,300,51.0,Training at home,,,,,,,,,,,,,
1,7,1283,B,40.523643134698,21.309558880645483,2.0261821567349,0.3347297681533749,B,646.2703002616763,Correct,sub_001_day_07_data.csv,1,300,51.0,Training at home,,,,,,,,,,,,,
1,7,1284,A,19.79300282621871,50.66103032215845,0.9896501413109356,0.7957816034169137,A,523.7892000004649,Correct,sub_001_day_07_data.csv,1,300,51.0,Training at home,,,,,,,,,,,,,
1,7,1285,B,80.270798060538,63.71422369311877,4.0135399030269,1.000820685417393,A,3135.8368997462094,Incorrect,sub_001_day_07_data.csv,0,300,51.0,Training at home,,,,,,,,,,,,,
1,7,1286,B,42.167275994216645,20.320401638884597,2.1083637997108324,0.3191921225335692,B,1034.6286999993026,Correct,sub_001_day_07_data.csv,1,300,51.0,Training at home,,,,,,,,,,,,,
1,7,1287,B,70.66867669615262,56.14718055799445,3.53343383480763,0.8819578498038751,A,695.9722000174224,Incorrect,sub_001_day_07_data.csv,0,300,51.0,Training at home,,,,,,,,,,,,,
1,7,1288,A,25.925830777869574,48.331625566454846,1.2962915388934786,0.7591913990781358,A,589.5674000494182,Correct,sub_001_day_07_data.csv,1,300,51.0,Training at home,,,,,,,,,,,,,
1,7,1289,A,50.15619389094245,59.756376176721226,2.5078096945471224,0.9386509620096776,A,1228.2697996124623,Correct,sub_001_day_07_data.csv,1,300,51.0,Training at home,,,,,,,,,,,,,
1,7,1290,A,16.470953068615756,46.78471546639568,0.8235476534307878,0.7348925920475874,A,1147.0117000862956,Correct,sub_001_day_07_data.csv,1,300,51.0,Training at home,,,,,,,,,,,,,
1,7,1291,A,25.273103372554647,51.91346071678049,1.2636551686277324,0.8154547340512995,A,1248.2394999824464,Correct,sub_001_day_07_data.csv,1,300,51.0,Training at home,,,,,,,,,,,,,
1,7,1292,B,89.00794173801317,66.70591202141293,4.450397086900659,1.0478140157873896,B,2029.2627001181245,Correct,sub_001_day_07_data.csv,1,300,51.0,Training at home,,,,,,,,,,,,,
1,7,1293,B,68.5305958353097,58.160150238930726,3.4265297917654847,0.9135775036115172,B,1123.896200209856,Correct,sub_001_day_07_data.csv,1,300,51.0,Training at home,,,,,,,,,,,,,
1,7,1294,A,38.4817468480203,47.88449819606012,1.924087342401015,0.7521679387678808,A,950.6910000927746,Correct,sub_001_day_07_data.csv,1,300,51.0,Training at home,,,,,,,,,,,,,
1,7,1295,A,28.916710989543063,39.42146804845317,1.445835549477153,0.6192309720737261,A,3547.0842998474836,Correct,sub_001_day_07_data.csv,1,300,51.0,Training at home,,,,,,,,,,,,,
1,7,1296,A,46.79151341966534,64.3471948306493,2.339575670983267,1.0107633727953946,A,1960.667499806732,Correct,sub_001_day_07_data.csv,1,300,51.0,Training at home,,,,,,,,,,,,,
1,7,1297,A,30.634394729535444,59.38365156467355,1.5317197364767725,0.9327962174945724,A,2779.0129999630153,Correct,sub_001_day_07_data.csv,1,300,51.0,Training at home,,,,,,,,,,,,,
1,7,1298,B,56.16223835702603,37.0565100992151,2.808111917851301,0.5820822994768508,A,1125.9804000146687,Incorrect,sub_001_day_07_data.csv,0,300,51.0,Training at home,,,,,,,,,,,,,
1,7,1299,B,42.6943701937666,26.30485206685179,2.13471850968833,0.4131956500349394,A,4286.860799882561,Incorrect,sub_001_day_07_data.csv,0,300,51.0,Training at home,,,,,,,,,,,,,
1,7,1300,B,69.9622811984926,42.72414941672453,3.4981140599246303,0.6711093696922722,B,1200.4470000974834,Correct,sub_001_day_07_data.csv,1,300,52.0,Training at home,,,,,,,,,,,,,
1,7,1301,B,64.9524858394156,34.53382162884316,3.24762429197078,0.5424560016477699,B,1330.940400250256,Correct,sub_001_day_07_data.csv,1,300,52.0,Training at home,,,,,,,,,,,,,
1,7,1302,B,59.51908855014977,52.49884888877537,2.9759544275074883,0.8246499899544869,B,1143.5445002280176,Correct,sub_001_day_07_data.csv,1,300,52.0,Training at home,,,,,,,,,,,,,
1,7,1303,A,65.78101125846189,83.14612601612534,3.2890505629230944,1.3060562933335529,A,1606.2580002471805,Correct,sub_001_day_07_data.csv,1,300,52.0,Training at home,,,,,,,,,,,,,
1,7,1304,A,35.49353197309381,62.69846461665187,1.7746765986546904,0.9848651791551654,A,1482.390800025314,Correct,sub_001_day_07_data.csv,1,300,52.0,Training at home,,,,,,,,,,,,,
1,7,1305,A,57.94698360462944,66.02945589996222,2.897349180231472,1.0371882678792628,A,2622.4837000481784,Correct,sub_001_day_07_data.csv,1,300,52.0,Training at home,,,,,,,,,,,,,
1,7,1306,B,58.73266576302071,51.64842684002925,2.9366332881510355,0.8112915916505289,B,1506.2309997156262,Correct,sub_001_day_07_data.csv,1,300,52.0,Training at home,,,,,,,,,,,,,
1,7,1307,A,60.7370089824048,83.33736774578657,3.03685044912024,1.3090603113983703,A,1125.2950001507998,Correct,sub_001_day_07_data.csv,1,300,52.0,Training at home,,,,,,,,,,,,,
1,7,1308,B,66.8119058083186,51.97877199501565,3.34059529041593,0.8164806412108002,B,1225.9212997741995,Correct,sub_001_day_07_data.csv,1,300,52.0,Training at home,,,,,,,,,,,,,
1,7,1309,B,71.46853553368108,53.11613257678689,3.5734267766840535,0.834346259451676,A,771.7035003006458,Incorrect,sub_001_day_07_data.csv,0,300,52.0,Training at home,,,,,,,,,,,,,
1,7,1310,A,51.88932350930894,62.61249382208983,2.594466175465447,0.9835147530720684,B,977.2812998853624,Incorrect,sub_001_day_07_data.csv,0,300,52.0,Training at home,,,,,,,,,,,,,
1,7,1311,A,45.505118697633165,66.07229113463332,2.2752559348816583,1.0378611221720502,B,1025.2417996525764,Incorrect,sub_001_day_07_data.csv,0,300,52.0,Training at home,,,,,,,,,,,,,
1,7,1312,A,20.246986827995645,38.37709602748431,1.0123493413997822,0.6028260147302738,A,542.9861997254193,Correct,sub_001_day_07_data.csv,1,300,52.0,Training at home,,,,,,,,,,,,,
1,7,1313,B,73.93897468442002,61.99226636200965,3.6969487342210017,0.9737722429113558,B,564.3503000028431,Correct,sub_001_day_07_data.csv,1,300,52.0,Training at home,,,,,,,,,,,,,
1,7,1314,B,61.08232343363741,47.17809171154507,3.0541161716818706,0.7410717316568776,B,753.8226000033319,Correct,sub_001_day_07_data.csv,1,300,52.0,Training at home,,,,,,,,,,,,,
1,7,1315,A,50.941972042450175,71.63616287649481,2.547098602122509,1.1252582151207895,B,2538.563000038266,Incorrect,sub_001_day_07_data.csv,0,300,52.0,Training at home,,,,,,,,,,,,,
1,7,1316,B,51.10960722121834,32.14728940319965,2.555480361060917,0.5049684411095852,B,846.348499879241,Correct,sub_001_day_07_data.csv,1,300,52.0,Training at home,,,,,,,,,,,,,
1,7,1317,B,84.15335186819536,63.77358239977856,4.207667593409768,1.001753089801238,B,1291.1756997928023,Correct,sub_001_day_07_data.csv,1,300,52.0,Training at home,,,,,,,,,,,,,
1,7,1318,B,34.20760177972667,15.903239670738824,1.7103800889863336,0.2498075045893542,A,780.8075998909771,Incorrect,sub_001_day_07_data.csv,0,300,52.0,Training at home,,,,,,,,,,,,,
1,7,1319,B,49.15418080204605,19.210954890298776,2.4577090401023027,0.3017649737590377,B,787.8188998438418,Correct,sub_001_day_07_data.csv,1,300,52.0,Training at home,,,,,,,,,,,,,
1,7,1320,B,46.82130856651118,19.900959702141527,2.3410654283255585,0.3126035439981717,B,814.5014001056552,Correct,sub_001_day_07_data.csv,1,300,52.0,Training at home,,,,,,,,,,,,,
1,7,1321,A,60.36630022222877,82.84987153660812,3.0183150111114387,1.301402738851331,A,1018.3458002284168,Correct,sub_001_day_07_data.csv,1,300,52.0,Training at home,,,,,,,,,,,,,
1,7,1322,B,76.32208709663104,54.8316242118766,3.816104354831552,0.8612931390421388,B,2031.575800385326,Correct,sub_001_day_07_data.csv,1,300,52.0,Training at home,,,,,,,,,,,,,
1,7,1323,B,67.05821908915217,44.12727707455943,3.352910954457609,0.693149647401786,A,863.9185000211,Incorrect,sub_001_day_07_data.csv,0,300,52.0,Training at home,,,,,,,,,,,,,
1,7,1324,A,68.9875441664504,88.48862066386317,3.4493772083225203,1.3899760030194324,A,620.779300108552,Correct,sub_001_day_07_data.csv,1,300,52.0,Training at home,,,,,,,,,,,,,
1,7,1325,A,17.60880899980665,43.58973064543633,0.8804404499903327,0.6847058878383032,A,965.4298000968992,Correct,sub_001_day_07_data.csv,1,300,53.0,Training at home,,,,,,,,,,,,,
1,7,1326,B,87.00893486924514,65.66782539934543,4.350446743462257,1.031507789259004,B,1340.9021999686956,Correct,sub_001_day_07_data.csv,1,300,53.0,Training at home,,,,,,,,,,,,,
1,7,1327,B,47.2404916250983,39.608359549665224,2.3620245812549148,0.6221666569098568,B,806.2725001946092,Correct,sub_001_day_07_data.csv,1,300,53.0,Training at home,,,,,,,,,,,,,
1,7,1328,B,76.11846930058499,48.270820469461626,3.8059234650292497,0.7582362748480621,B,652.9792002402246,Correct,sub_001_day_07_data.csv,1,300,53.0,Training at home,,,,,,,,,,,,,
1,7,1329,B,38.286336481699536,18.302970851242197,1.9143168240849768,0.287502393825653,A,2108.5342997685075,Incorrect,sub_001_day_07_data.csv,0,300,53.0,Training at home,,,,,,,,,,,,,
1,7,1330,A,61.989443985430334,87.57852983112204,3.0994721992715166,1.3756803296482378,A,1394.3912000395358,Correct,sub_001_day_07_data.csv,1,300,53.0,Training at home,,,,,,,,,,,,,
1,7,1331,B,40.53126534099103,28.71317749781771,2.0265632670495513,0.4510255374418194,B,1092.570699751377,Correct,sub_001_day_07_data.csv,1,300,53.0,Training at home,,,,,,,,,,,,,
1,7,1332,B,65.52754704025821,46.74914307808911,3.276377352012911,0.7343338222787144,B,1246.023299638182,Correct,sub_001_day_07_data.csv,1,300,53.0,Training at home,,,,,,,,,,,,,
1,7,1333,B,79.14951122079887,62.410288354319874,3.957475561039944,0.9803385170117596,B,1567.3285000957549,Correct,sub_001_day_07_data.csv,1,300,53.0,Training at home,,,,,,,,,,,,,
1,7,1334,A,50.2313495945002,70.18889330199205,2.5115674797250103,1.1025245578056806,A,1042.0686998404562,Correct,sub_001_day_07_data.csv,1,300,53.0,Training at home,,,,,,,,,,,,,
1,7,1335,A,33.44725050452173,43.81817270849378,1.6723625252260863,0.6882942473736643,B,860.1538999937475,Incorrect,sub_001_day_07_data.csv,0,300,53.0,Training at home,,,,,,,,,,,,,
1,7,1336,A,50.84571330434301,77.49489580538376,2.5422856652171504,1.2172869767645005,A,1287.6116000115871,Correct,sub_001_day_07_data.csv,1,300,53.0,Training at home,,,,,,,,,,,,,
1,7,1337,B,33.27020958411799,14.3248113049194,1.6635104792058997,0.225013609797974,B,1552.3816999047997,Correct,sub_001_day_07_data.csv,1,300,53.0,Training at home,,,,,,,,,,,,,
1,7,1338,B,40.56447400478108,29.39164115302927,2.0282237002390544,0.4616828196165209,B,514.139199629426,Correct,sub_001_day_07_data.csv,1,300,53.0,Training at home,,,,,,,,,,,,,
1,7,1339,B,66.94252017763262,33.962139956162154,3.347126008881631,0.533476046932337,B,910.0528000853956,Correct,sub_001_day_07_data.csv,1,300,53.0,Training at home,,,,,,,,,,,,,
1,7,1340,B,71.62295965712227,53.39199418929226,3.581147982856113,0.8386794835279474,A,2335.74889972806,Incorrect,sub_001_day_07_data.csv,0,300,53.0,Training at home,,,,,,,,,,,,,
1,7,1341,B,44.25101665938487,28.724665560830097,2.2125508329692436,0.4512059915136377,B,524.7722999192774,Correct,sub_001_day_07_data.csv,1,300,53.0,Training at home,,,,,,,,,,,,,
1,7,1342,A,67.11447278712478,81.54181169757805,3.3557236393562393,1.2808557829475675,A,2817.443599924445,Correct,sub_001_day_07_data.csv,1,300,53.0,Training at home,,,,,,,,,,,,,
1,7,1343,B,59.27207215287606,51.493333669337815,2.963603607643803,0.8088553938221982,B,1038.407700136304,Correct,sub_001_day_07_data.csv,1,300,53.0,Training at home,,,,,,,,,,,,,
1,7,1344,A,14.761440297755644,39.46936190573146,0.7380720148877822,0.6199832870246139,A,574.2347999475896,Correct,sub_001_day_07_data.csv,1,300,53.0,Training at home,,,,,,,,,,,,,
1,7,1345,B,64.17887418194631,47.58067877655313,3.2089437090973156,0.7473955544861756,A,687.3421999625862,Incorrect,sub_001_day_07_data.csv,0,300,53.0,Training at home,,,,,,,,,,,,,
1,7,1346,A,58.3265767420781,66.28934324397932,2.916328837103905,1.041270568732888,A,797.9625998996198,Correct,sub_001_day_07_data.csv,1,300,53.0,Training at home,,,,,,,,,,,,,
1,7,1347,B,81.53446694880655,66.37812239816873,4.0767233474403275,1.042665108425855,B,958.9990000240504,Correct,sub_001_day_07_data.csv,1,300,53.0,Training at home,,,,,,,,,,,,,
1,7,1348,B,46.25792860980973,31.8900858489052,2.312896430490486,0.5009282971263419,A,1997.7645999751985,Incorrect,sub_001_day_07_data.csv,0,300,53.0,Training at home,,,,,,,,,,,,,
1,7,1349,A,47.1106124436554,54.6368965538976,2.3555306221827697,0.8582343641433509,A,678.1294997781515,Correct,sub_001_day_07_data.csv,1,300,53.0,Training at home,,,,,,,,,,,,,
1,7,1350,B,48.72170048011265,23.21895454573857,2.4360850240056324,0.3647224851246381,B,1018.1177002377808,Correct,sub_001_day_07_data.csv,1,300,54.0,Training at home,,,,,,,,,,,,,
1,7,1351,A,52.52117301380084,59.79381052758188,2.6260586506900423,0.9392389794179564,A,1968.3310999535024,Correct,sub_001_day_07_data.csv,1,300,54.0,Training at home,,,,,,,,,,,,,
1,7,1352,B,51.65719794023727,21.539486752188793,2.5828598970118635,0.3383414667138549,B,1236.342600081116,Correct,sub_001_day_07_data.csv,1,300,54.0,Training at home,,,,,,,,,,,,,
1,7,1353,B,61.603386178721344,41.18943326545019,3.0801693089360676,0.6470021047613268,B,2705.1750998944044,Correct,sub_001_day_07_data.csv,1,300,54.0,Training at home,,,,,,,,,,,,,
1,7,1354,B,76.87744961154857,46.9144948790535,3.8438724805774287,0.7369311622945524,B,749.60309965536,Correct,sub_001_day_07_data.csv,1,300,54.0,Training at home,,,,,,,,,,,,,
1,7,1355,B,78.52139316585846,47.61180455190126,3.926069658292923,0.7478844770220304,B,1399.263999890536,Correct,sub_001_day_07_data.csv,1,300,54.0,Training at home,,,,,,,,,,,,,
1,7,1356,A,67.53642240727582,88.82343034113373,3.3768211203637915,1.3952351811317525,B,1046.0269995965064,Incorrect,sub_001_day_07_data.csv,0,300,54.0,Training at home,,,,,,,,,,,,,
1,7,1357,B,51.81533309045297,31.149114686788856,2.590766654522648,0.4892891493292089,B,5115.895300172269,Correct,sub_001_day_07_data.csv,1,300,54.0,Training at home,,,,,,,,,,,,,
1,7,1358,B,65.614167308055,57.42061487016966,3.2807083654027505,0.9019609092036692,A,1110.1762000471354,Incorrect,sub_001_day_07_data.csv,0,300,54.0,Training at home,,,,,,,,,,,,,
1,7,1359,B,55.34733929722013,38.70523914588878,2.767366964861006,0.6079804747808014,B,700.3592997789383,Correct,sub_001_day_07_data.csv,1,300,54.0,Training at home,,,,,,,,,,,,,
1,7,1360,B,71.1182629406222,50.852048868797915,3.5559131470311103,0.7987821157310234,B,695.4121002927423,Correct,sub_001_day_07_data.csv,1,300,54.0,Training at home,,,,,,,,,,,,,
1,7,1361,A,27.34668180376694,42.24552394471747,1.3673340901883473,0.6635911383588805,B,545.5752001143992,Incorrect,sub_001_day_07_data.csv,0,300,54.0,Training at home,,,,,,,,,,,,,
1,7,1362,B,65.8019922940977,41.917895700516056,3.2900996147048853,0.6584447659334222,B,393.5865997336805,Correct,sub_001_day_07_data.csv,1,300,54.0,Training at home,,,,,,,,,,,,,
1,7,1363,A,22.632686968779694,45.24885966687419,1.1316343484389848,0.7107674255638373,B,2067.045300267637,Incorrect,sub_001_day_07_data.csv,0,300,54.0,Training at home,,,,,,,,,,,,,
1,7,1364,A,59.0260721466944,73.04482970092197,2.95130360733472,1.1473855018556698,A,1915.820199996233,Correct,sub_001_day_07_data.csv,1,300,54.0,Training at home,,,,,,,,,,,,,
1,7,1365,B,86.57033792877266,66.84487511629477,4.328516896438633,1.0499968429773945,B,1695.236700121313,Correct,sub_001_day_07_data.csv,1,300,54.0,Training at home,,,,,,,,,,,,,
1,7,1366,B,85.58895834952952,61.05935424965793,4.279447917476476,0.9591180937183104,B,2057.111000176519,Correct,sub_001_day_07_data.csv,1,300,54.0,Training at home,,,,,,,,,,,,,
1,7,1367,A,32.49901194426273,48.51647092144403,1.6249505972131368,0.762094943124557,B,389.2473001033068,Incorrect,sub_001_day_07_data.csv,0,300,54.0,Training at home,,,,,,,,,,,,,
1,7,1368,A,33.7861905037276,48.452878781349455,1.68930952518638,0.7610960401238211,B,1299.9062999151647,Incorrect,sub_001_day_07_data.csv,0,300,54.0,Training at home,,,,,,,,,,,,,
1,7,1369,A,42.05549212174822,72.4904191202281,2.102774606087411,1.1386768408187682,A,5137.069299817085,Correct,sub_001_day_07_data.csv,1,300,54.0,Training at home,,,,,,,,,,,,,
1,7,1370,A,57.27827869998268,85.8458429201026,2.8639139349991343,1.3484633472950884,A,1626.732500270009,Correct,sub_001_day_07_data.csv,1,300,54.0,Training at home,,,,,,,,,,,,,
1,7,1371,B,69.53444655477261,43.88630815241288,3.4767223277386305,0.6893645164239908,B,2091.1317002028227,Correct,sub_001_day_07_data.csv,1,300,54.0,Training at home,,,,,,,,,,,,,
1,7,1372,A,51.68288368709419,73.96136672062758,2.5841441843547095,1.1617824316949212,A,4939.8178001865745,Correct,sub_001_day_07_data.csv,1,300,54.0,Training at home,,,,,,,,,,,,,
1,7,1373,A,50.852360024745416,80.6165100811679,2.5426180012372708,1.266321179145223,A,1967.4865999259057,Correct,sub_001_day_07_data.csv,1,300,54.0,Training at home,,,,,,,,,,,,,
1,7,1374,B,74.96389696552518,46.52727130397336,3.748194848276259,0.7308486686007095,B,1534.4960000365973,Correct,sub_001_day_07_data.csv,1,300,54.0,Training at home,,,,,,,,,,,,,
1,7,1375,B,39.27711581524876,19.634761096099975,1.963855790762438,0.3084221060724917,B,1491.9178001582625,Correct,sub_001_day_07_data.csv,1,300,55.0,Training at home,,,,,,,,,,,,,
1,7,1376,A,36.219821157323395,52.32198117953247,1.8109910578661697,0.8218717584744132,A,4054.336399771273,Correct,sub_001_day_07_data.csv,1,300,55.0,Training at home,,,,,,,,,,,,,
1,7,1377,A,50.17941990977452,72.80482111351284,2.5089709954887263,1.1436154557806548,A,1873.5783002339303,Correct,sub_001_day_07_data.csv,1,300,55.0,Training at home,,,,,,,,,,,,,
1,7,1378,B,72.42491649809403,46.73631976070029,3.621245824904702,0.7341323940801975,B,3163.021699991077,Correct,sub_001_day_07_data.csv,1,300,55.0,Training at home,,,,,,,,,,,,,
1,7,1379,A,34.90403694272504,51.832281699869434,1.745201847136252,0.8141795770355326,B,2007.7257002703848,Incorrect,sub_001_day_07_data.csv,0,300,55.0,Training at home,,,,,,,,,,,,,
1,7,1380,B,44.87535756344258,28.74515836775149,2.243767878172129,0.4515278917720162,B,2315.357899758965,Correct,sub_001_day_07_data.csv,1,300,55.0,Training at home,,,,,,,,,,,,,
1,7,1381,B,42.79600980601421,25.849763606798877,2.1398004903007104,0.4060471372207607,A,7945.9724999032915,Incorrect,sub_001_day_07_data.csv,0,300,55.0,Training at home,,,,,,,,,,,,,
1,7,1382,A,69.66990889936196,88.05646404609243,3.483495444968098,1.3831877027414887,A,1275.5910996347666,Correct,sub_001_day_07_data.csv,1,300,55.0,Training at home,,,,,,,,,,,,,
1,7,1383,A,22.93913166444721,53.29461181076929,1.1469565832223605,0.8371498047031631,A,1348.7054998986423,Correct,sub_001_day_07_data.csv,1,300,55.0,Training at home,,,,,,,,,,,,,
1,7,1384,A,23.976996063311383,48.26465610094276,1.1988498031655692,0.7581394451737978,A,1452.5830000638962,Correct,sub_001_day_07_data.csv,1,300,55.0,Training at home,,,,,,,,,,,,,
1,7,1385,A,14.459630615890845,36.376183708604295,0.7229815307945422,0.5713957575229198,A,2536.883700173348,Correct,sub_001_day_07_data.csv,1,300,55.0,Training at home,,,,,,,,,,,,,
1,7,1386,B,31.893363477000666,12.771522220219722,1.594668173850033,0.2006146019110054,B,1158.9004998095334,Correct,sub_001_day_07_data.csv,1,300,55.0,Training at home,,,,,,,,,,,,,
1,7,1387,B,31.870747156584052,12.952939238586382,1.5935373578292027,0.2034642937716897,B,2298.0796000920236,Correct,sub_001_day_07_data.csv,1,300,55.0,Training at home,,,,,,,,,,,,,
1,7,1388,A,14.328726317827975,38.59642046999569,0.7164363158913987,0.6062711550170059,A,2014.9072003550828,Correct,sub_001_day_07_data.csv,1,300,55.0,Training at home,,,,,,,,,,,,,
1,7,1389,B,54.25750767431353,29.273383987019734,2.712875383715676,0.4598252403966714,B,1844.394200015813,Correct,sub_001_day_07_data.csv,1,300,55.0,Training at home,,,,,,,,,,,,,
1,7,1390,A,17.830812398781895,45.16564496129766,0.8915406199390946,0.7094602920252879,A,939.2405999824404,Correct,sub_001_day_07_data.csv,1,300,55.0,Training at home,,,,,,,,,,,,,
1,7,1391,B,39.46608501275709,15.146781359596028,1.9733042506378544,0.2379250852241884,B,7688.74099990353,Correct,sub_001_day_07_data.csv,1,300,55.0,Training at home,,,,,,,,,,,,,
1,7,1392,B,85.10989262974448,66.7248482415354,4.255494631487224,1.0481114652375072,B,6378.360399976373,Correct,sub_001_day_07_data.csv,1,300,55.0,Training at home,,,,,,,,,,,,,
1,7,1393,A,44.79695564404314,66.79215593446628,2.2398477822021565,1.0491687320057157,B,1567.4677998758852,Incorrect,sub_001_day_07_data.csv,0,300,55.0,Training at home,,,,,,,,,,,,,
1,7,1394,B,57.10229877934575,42.98700419171028,2.855114938967288,0.6752382828425533,B,3955.4293998517096,Correct,sub_001_day_07_data.csv,1,300,55.0,Training at home,,,,,,,,,,,,,
1,7,1395,B,70.82861940311186,41.481009695031574,3.5414309701555933,0.6515821766069909,B,1778.7794996984303,Correct,sub_001_day_07_data.csv,1,300,55.0,Training at home,,,,,,,,,,,,,
1,7,1396,A,31.88798943152755,43.04248182769588,1.5943994715763776,0.6761097235108077,A,1596.3837001472712,Correct,sub_001_day_07_data.csv,1,300,55.0,Training at home,,,,,,,,,,,,,
1,7,1397,A,34.46736703678518,44.145616263201894,1.7233683518392586,0.6934377187033457,B,4739.21429971233,Incorrect,sub_001_day_07_data.csv,0,300,55.0,Training at home,,,,,,,,,,,,,
1,7,1398,B,55.20149134779412,31.461536445320466,2.760074567389706,0.4941966588363315,B,7847.846699878573,Correct,sub_001_day_07_data.csv,1,300,55.0,Training at home,,,,,,,,,,,,,
1,7,1399,B,42.12629337597385,28.06957922531815,2.1063146687986927,0.440915919418081,B,675.5002997815609,Correct,sub_001_day_07_data.csv,1,300,55.0,Training at home,,,,,,,,,,,,,
1,7,1400,B,70.74149832788511,39.95958648323962,3.537074916394255,0.6276837166811579,B,746.0160995833576,Correct,sub_001_day_07_data.csv,1,300,56.0,Training at home,,,,,,,,,,,,,
1,7,1401,A,49.08405074649881,59.54782052536869,2.4542025373249405,0.9353749774989089,A,1127.7295001782477,Correct,sub_001_day_07_data.csv,1,300,56.0,Training at home,,,,,,,,,,,,,
1,7,1402,A,59.278530007875645,85.62272951094211,2.9639265003937822,1.3449586900594084,B,854.7791000455618,Incorrect,sub_001_day_07_data.csv,0,300,56.0,Training at home,,,,,,,,,,,,,
1,7,1403,A,49.113632702109776,72.08795587519475,2.455681635105489,1.132354962949085,A,957.202599849552,Correct,sub_001_day_07_data.csv,1,300,56.0,Training at home,,,,,,,,,,,,,
1,7,1404,B,70.96100178314221,43.42311123516095,3.54805008915711,0.6820886362619702,B,591.0241999663413,Correct,sub_001_day_07_data.csv,1,300,56.0,Training at home,,,,,,,,,,,,,
1,7,1405,B,38.42703402956784,21.460605582305227,1.921351701478392,0.337102404194791,B,715.6528998166323,Correct,sub_001_day_07_data.csv,1,300,56.0,Training at home,,,,,,,,,,,,,
1,7,1406,B,52.805645171031344,39.2946064448492,2.6402822585515673,0.6172382346642019,B,2206.854000221938,Correct,sub_001_day_07_data.csv,1,300,56.0,Training at home,,,,,,,,,,,,,
1,7,1407,A,45.02938087161086,71.09632068344965,2.2514690435805433,1.116778393781947,A,3832.9119998961687,Correct,sub_001_day_07_data.csv,1,300,56.0,Training at home,,,,,,,,,,,,,
1,7,1408,A,17.16643051590379,34.50071577939946,0.8583215257951895,0.541935976180754,A,1040.4382003471255,Correct,sub_001_day_07_data.csv,1,300,56.0,Training at home,,,,,,,,,,,,,
1,7,1409,B,37.52881263890526,18.72004892794611,1.876440631945263,0.2940538409343849,B,529.1638998314738,Correct,sub_001_day_07_data.csv,1,300,56.0,Training at home,,,,,,,,,,,,,
1,7,1410,A,10.832443173641952,33.35086452684904,0.5416221586820975,0.5238741549420868,A,677.0409001037478,Correct,sub_001_day_07_data.csv,1,300,56.0,Training at home,,,,,,,,,,,,,
1,7,1411,B,43.8987149504678,26.391883785799237,2.19493574752339,0.4145627410793123,B,805.2641004323959,Correct,sub_001_day_07_data.csv,1,300,56.0,Training at home,,,,,,,,,,,,,
1,7,1412,A,46.75274825096493,70.91771886631575,2.337637412548246,1.1139729229988191,A,1300.9047000668943,Correct,sub_001_day_07_data.csv,1,300,56.0,Training at home,,,,,,,,,,,,,
1,7,1413,A,22.969776821804768,41.023602990879766,1.1484888410902383,0.6443972488996608,A,2067.8840996697545,Correct,sub_001_day_07_data.csv,1,300,56.0,Training at home,,,,,,,,,,,,,
1,7,1414,A,47.65779501005036,73.90917119191958,2.382889750502518,1.1609625462472246,B,1088.2795001380146,Incorrect,sub_001_day_07_data.csv,0,300,56.0,Training at home,,,,,,,,,,,,,
1,7,1415,B,53.74123310539016,39.37900159787282,2.687061655269508,0.6185639106278898,B,1111.472100019455,Correct,sub_001_day_07_data.csv,1,300,56.0,Training at home,,,,,,,,,,,,,
1,7,1416,B,41.22522946346116,31.586543124902068,2.061261473173058,0.4961602591674476,A,2201.814599800855,Incorrect,sub_001_day_07_data.csv,0,300,56.0,Training at home,,,,,,,,,,,,,
1,7,1417,B,45.19208629933589,33.83865120776224,2.259604314966794,0.5315362902084662,B,832.8785998746753,Correct,sub_001_day_07_data.csv,1,300,56.0,Training at home,,,,,,,,,,,,,
1,7,1418,A,16.711589939011848,33.33970306224384,0.8355794969505923,0.5236988310660519,A,2247.674999758601,Correct,sub_001_day_07_data.csv,1,300,56.0,Training at home,,,,,,,,,,,,,
1,7,1419,B,68.8741098323522,56.97075955177686,3.44370549161761,0.8948945983864636,B,1054.7313001006842,Correct,sub_001_day_07_data.csv,1,300,56.0,Training at home,,,,,,,,,,,,,
1,7,1420,A,27.825032601907917,46.82481180495829,1.391251630095396,0.7355224238609079,A,540.5824999324977,Correct,sub_001_day_07_data.csv,1,300,56.0,Training at home,,,,,,,,,,,,,
1,7,1421,B,33.94867708390021,13.996048320238325,1.6974338541950105,0.2198494129107424,B,934.1997001320124,Correct,sub_001_day_07_data.csv,1,300,56.0,Training at home,,,,,,,,,,,,,
1,7,1422,B,53.41816447429594,36.508715465116005,2.670908223714797,0.5734775614860425,A,2258.191099856049,Incorrect,sub_001_day_07_data.csv,0,300,56.0,Training at home,,,,,,,,,,,,,
1,7,1423,A,35.640982797537674,62.66753499223615,1.7820491398768836,0.984379337750952,B,836.6506998427212,Incorrect,sub_001_day_07_data.csv,0,300,56.0,Training at home,,,,,,,,,,,,,
1,7,1424,A,43.32238647237338,67.40374399471062,2.166119323618669,1.0587755347911505,A,908.8313998654484,Correct,sub_001_day_07_data.csv,1,300,56.0,Training at home,,,,,,,,,,,,,
1,7,1425,A,15.994382282637854,37.90841773565528,0.7997191141318928,0.5954640333377382,A,2444.292599800974,Correct,sub_001_day_07_data.csv,1,300,57.0,Training at home,,,,,,,,,,,,,
1,7,1426,A,58.5599810895846,74.96270074071123,2.9279990544792303,1.1775113497013427,B,2860.7523003593087,Incorrect,sub_001_day_07_data.csv,0,300,57.0,Training at home,,,,,,,,,,,,,
1,7,1427,A,54.287708532929955,63.9110034585451,2.7143854266464977,1.0039116947445856,A,1840.797500219196,Correct,sub_001_day_07_data.csv,1,300,57.0,Training at home,,,,,,,,,,,,,
1,7,1428,B,64.55692274811013,37.40121731125105,3.2278461374055065,0.5874969477017085,B,2643.2709000073373,Correct,sub_001_day_07_data.csv,1,300,57.0,Training at home,,,,,,,,,,,,,
1,7,1429,B,55.11047373124144,39.840524959717555,2.755523686562072,0.6258135026430474,A,2094.552000053227,Incorrect,sub_001_day_07_data.csv,0,300,57.0,Training at home,,,,,,,,,,,,,
1,7,1430,A,48.0092194942711,77.34084350349086,2.400460974713555,1.214867128865024,B,881.5841996110976,Incorrect,sub_001_day_07_data.csv,0,300,57.0,Training at home,,,,,,,,,,,,,
1,7,1431,B,74.90233350038302,58.0464272786555,3.745116675019151,0.9117911475287914,A,225.36400007084012,Incorrect,sub_001_day_07_data.csv,0,300,57.0,Training at home,,,,,,,,,,,,,
1,7,1432,B,56.669191446832365,46.473926894511905,2.833459572341618,0.7300107365763385,A,485.9921000897885,Incorrect,sub_001_day_07_data.csv,0,300,57.0,Training at home,,,,,,,,,,,,,
1,7,1433,B,33.290617905270395,21.230230382203796,1.6645308952635196,0.3334836790137513,A,1055.530000012368,Incorrect,sub_001_day_07_data.csv,0,300,57.0,Training at home,,,,,,,,,,,,,
1,7,1434,A,19.424241218101884,46.699553281024635,0.9712120609050942,0.7335548675679605,A,938.1083999760448,Correct,sub_001_day_07_data.csv,1,300,57.0,Training at home,,,,,,,,,,,,,
1,7,1435,B,61.02870203059648,47.27393544494283,3.051435101529824,0.7425772415005525,A,1985.0045996718109,Incorrect,sub_001_day_07_data.csv,0,300,57.0,Training at home,,,,,,,,,,,,,
1,7,1436,A,14.805801651271022,44.08898852311894,0.7402900825635511,0.6925482122421759,A,516.0201000981033,Correct,sub_001_day_07_data.csv,1,300,57.0,Training at home,,,,,,,,,,,,,
1,7,1437,B,53.4571319081536,34.22200500809788,2.67285659540768,0.537557997622767,B,1533.9377000927925,Correct,sub_001_day_07_data.csv,1,300,57.0,Training at home,,,,,,,,,,,,,
1,7,1438,A,41.58925155963858,61.15980980201096,2.079462577981929,0.9606960458447332,A,3333.1733997911215,Correct,sub_001_day_07_data.csv,1,300,57.0,Training at home,,,,,,,,,,,,,
1,7,1439,B,47.55710115936713,26.15462700113915,2.3778550579683566,0.4108359202208,B,2951.0015002451837,Correct,sub_001_day_07_data.csv,1,300,57.0,Training at home,,,,,,,,,,,,,
1,7,1440,B,50.73496147533265,40.81645219244985,2.5367480737666326,0.6411433317669973,A,5275.332600343972,Incorrect,sub_001_day_07_data.csv,0,300,57.0,Training at home,,,,,,,,,,,,,
1,7,1441,A,34.628206478684824,58.880919371862745,1.731410323934241,0.9248993186762848,A,725.9060996584594,Correct,sub_001_day_07_data.csv,1,300,57.0,Training at home,,,,,,,,,,,,,
1,7,1442,B,78.87334710608907,60.945031525020866,3.9436673553044534,0.9573223165590196,B,1525.372600182891,Correct,sub_001_day_07_data.csv,1,300,57.0,Training at home,,,,,,,,,,,,,
1,7,1443,A,47.295098135186066,56.8866607199944,2.364754906759303,0.8935735770259474,A,1189.8248000070453,Correct,sub_001_day_07_data.csv,1,300,57.0,Training at home,,,,,,,,,,,,,
1,7,1444,A,24.156859614493328,47.52254331806077,1.2078429807246664,0.7464823648396122,B,967.1493000350893,Incorrect,sub_001_day_07_data.csv,0,300,57.0,Training at home,,,,,,,,,,,,,
1,7,1445,A,23.903879796356165,38.987062976306774,1.1951939898178083,0.6124073531570399,A,913.1650999188424,Correct,sub_001_day_07_data.csv,1,300,57.0,Training at home,,,,,,,,,,,,,
1,7,1446,A,27.35165642802601,37.660863184106624,1.3675828214013006,0.5915754555351983,A,601.8793000839651,Correct,sub_001_day_07_data.csv,1,300,57.0,Training at home,,,,,,,,,,,,,
1,7,1447,A,27.26268637964892,41.30573035195229,1.363134318982446,0.6488288951242713,A,1381.5033002756536,Correct,sub_001_day_07_data.csv,1,300,57.0,Training at home,,,,,,,,,,,,,
1,7,1448,A,46.608930379857824,53.87495402248676,2.3304465189928916,0.8462657988476615,A,1790.2245000004768,Correct,sub_001_day_07_data.csv,1,300,57.0,Training at home,,,,,,,,,,,,,
1,7,1449,A,45.43075476357916,54.43024684891223,2.271537738178958,0.8549883181681084,A,1392.83789973706,Correct,sub_001_day_07_data.csv,1,300,57.0,Training at home,,,,,,,,,,,,,
1,7,1450,A,39.20218781209927,57.64351825433735,1.9601093906049636,0.9054622673744768,A,1415.9249002113938,Correct,sub_001_day_07_data.csv,1,300,58.0,Training at home,,,,,,,,,,,,,
1,7,1451,A,45.355472105177434,74.86527543917913,2.2677736052588715,1.1759809966435075,A,1197.044000029564,Correct,sub_001_day_07_data.csv,1,300,58.0,Training at home,,,,,,,,,,,,,
1,7,1452,B,77.80323958360802,47.01064811572888,3.890161979180401,0.7384415338043434,B,1575.4034998826685,Correct,sub_001_day_07_data.csv,1,300,58.0,Training at home,,,,,,,,,,,,,
1,7,1453,B,48.52531558822222,26.8670694879331,2.426265779411111,0.4220269406338856,B,680.5672999471426,Correct,sub_001_day_07_data.csv,1,300,58.0,Training at home,,,,,,,,,,,,,
1,7,1454,A,58.425322739387965,80.27169278632017,2.921266136969398,1.260904801743601,A,651.5118000097573,Correct,sub_001_day_07_data.csv,1,300,58.0,Training at home,,,,,,,,,,,,,
1,7,1455,B,61.175997119945215,38.41481909955,3.0587998559972607,0.6034185673606357,B,738.3265998214483,Correct,sub_001_day_07_data.csv,1,300,58.0,Training at home,,,,,,,,,,,,,
1,7,1456,A,29.808950850463212,57.19457697124219,1.4904475425231607,0.8984103141901522,A,640.5031001195312,Correct,sub_001_day_07_data.csv,1,300,58.0,Training at home,,,,,,,,,,,,,
1,7,1457,A,29.31682755623001,45.26809266006949,1.4658413778115005,0.7110695367144818,A,1955.0125002861023,Correct,sub_001_day_07_data.csv,1,300,58.0,Training at home,,,,,,,,,,,,,
1,7,1458,B,45.114629359514616,21.24151913423715,2.255731467975731,0.3336610023160323,A,735.1462999358773,Incorrect,sub_001_day_07_data.csv,0,300,58.0,Training at home,,,,,,,,,,,,,
1,7,1459,B,68.41197391621209,37.39983653188626,3.4205986958106047,0.5874752584701652,B,6116.377799771726,Correct,sub_001_day_07_data.csv,1,300,58.0,Training at home,,,,,,,,,,,,,
1,7,1460,B,39.48120207366744,13.779129323659426,1.974060103683372,0.2164420572803607,B,5697.440100368112,Correct,sub_001_day_07_data.csv,1,300,58.0,Training at home,,,,,,,,,,,,,
1,7,1461,B,53.98142805762185,23.83764271635504,2.6990714028810925,0.3744408161829962,B,588.4056999348104,Correct,sub_001_day_07_data.csv,1,300,58.0,Training at home,,,,,,,,,,,,,
1,7,1462,B,41.02414340121641,25.19503484032711,2.0512071700608208,0.3957626818065526,A,921.3928002864122,Incorrect,sub_001_day_07_data.csv,0,300,58.0,Training at home,,,,,,,,,,,,,
1,7,1463,A,32.78642534881982,53.78217253726308,1.639321267440991,0.844808390685822,A,13460.58030007407,Correct,sub_001_day_07_data.csv,1,300,58.0,Training at home,,,,,,,,,,,,,
1,7,1464,B,81.78233319914398,57.641086779818,4.089116659957199,0.9054240738620398,B,834.9147997796535,Correct,sub_001_day_07_data.csv,1,300,58.0,Training at home,,,,,,,,,,,,,
1,7,1465,A,35.46683906060818,44.34209983385632,1.773341953030409,0.6965240754139411,A,1273.275500163436,Correct,sub_001_day_07_data.csv,1,300,58.0,Training at home,,,,,,,,,,,,,
1,7,1466,A,55.389526676147185,79.47136310580822,2.769476333807359,1.2483332525198705,B,1097.5886997766793,Incorrect,sub_001_day_07_data.csv,0,300,58.0,Training at home,,,,,,,,,,,,,
1,7,1467,A,39.973637573313255,58.169018739512026,1.9986818786656628,0.9137168096928898,A,1189.879100304097,Correct,sub_001_day_07_data.csv,1,300,58.0,Training at home,,,,,,,,,,,,,
1,7,1468,A,44.97506251609522,60.67674994743233,2.248753125804761,0.9531081593927916,B,6020.315499976277,Incorrect,sub_001_day_07_data.csv,0,300,58.0,Training at home,,,,,,,,,,,,,
1,7,1469,A,29.40906250381745,50.93372582688299,1.4704531251908726,0.8000650943884616,A,544.2583998665214,Correct,sub_001_day_07_data.csv,1,300,58.0,Training at home,,,,,,,,,,,,,
1,7,1470,B,52.54918511064388,26.49308819414922,2.627459255532194,0.4161524562082284,B,571.4730001054704,Correct,sub_001_day_07_data.csv,1,300,58.0,Training at home,,,,,,,,,,,,,
1,7,1471,A,27.569609621861257,59.87722804537308,1.3784804810930626,0.940549298723324,A,805.8216003701091,Correct,sub_001_day_07_data.csv,1,300,58.0,Training at home,,,,,,,,,,,,,
1,7,1472,B,36.55349744365259,18.35106851550628,1.8276748721826297,0.2882579101691874,B,1510.8445002697408,Correct,sub_001_day_07_data.csv,1,300,58.0,Training at home,,,,,,,,,,,,,
1,7,1473,B,80.76428748889484,52.49636124269882,4.038214374444742,0.8246109141012927,B,1002.4671996943651,Correct,sub_001_day_07_data.csv,1,300,58.0,Training at home,,,,,,,,,,,,,
1,7,1474,A,54.23100012803484,70.64582071704551,2.711550006401742,1.1097019568574589,A,1083.880600053817,Correct,sub_001_day_07_data.csv,1,300,58.0,Training at home,,,,,,,,,,,,,
1,7,1475,A,63.87865742664033,82.87116357335127,3.193932871332016,1.301737193382392,A,1274.6202000416815,Correct,sub_001_day_07_data.csv,1,300,59.0,Training at home,,,,,,,,,,,,,
1,7,1476,B,50.630671340147025,20.39801722947439,2.5315335670073513,0.3204113053795739,B,657.5119001790881,Correct,sub_001_day_07_data.csv,1,300,59.0,Training at home,,,,,,,,,,,,,
1,7,1477,A,24.878489346848102,48.271308318699255,1.2439244673424057,0.7582439379659673,A,1046.8879002146425,Correct,sub_001_day_07_data.csv,1,300,59.0,Training at home,,,,,,,,,,,,,
1,7,1478,A,43.60288756821067,53.160732744970495,2.1801443784105334,0.8350468372552483,B,483.5059000179171,Incorrect,sub_001_day_07_data.csv,0,300,59.0,Training at home,,,,,,,,,,,,,
1,7,1479,B,89.66860683893049,67.51996283846782,4.483430341946525,1.0606010961199317,B,689.6558003500104,Correct,sub_001_day_07_data.csv,1,300,59.0,Training at home,,,,,,,,,,,,,
1,7,1480,B,67.30045022555213,39.458777989211846,3.3650225112776067,0.6198170352526927,B,908.3743002265692,Correct,sub_001_day_07_data.csv,1,300,59.0,Training at home,,,,,,,,,,,,,
1,7,1481,A,48.40436455822069,77.9172421226142,2.4202182279110347,1.2239211772019096,A,1063.8001998886466,Correct,sub_001_day_07_data.csv,1,300,59.0,Training at home,,,,,,,,,,,,,
1,7,1482,B,78.52376432014874,53.68623101859311,3.9261882160074375,0.843301344834683,B,2338.1586000323296,Correct,sub_001_day_07_data.csv,1,300,59.0,Training at home,,,,,,,,,,,,,
1,7,1483,B,72.38133704327363,41.281021274602985,3.6190668521636815,0.6484407658448835,B,1104.3561999686062,Correct,sub_001_day_07_data.csv,1,300,59.0,Training at home,,,,,,,,,,,,,
1,7,1484,B,55.10729950741194,44.90718513803019,2.755364975370597,0.7054004146151619,B,770.6452999264002,Correct,sub_001_day_07_data.csv,1,300,59.0,Training at home,,,,,,,,,,,,,
1,7,1485,B,48.57403871834429,34.71736749982535,2.4287019359172146,0.5453391334471418,B,1190.1732999831438,Correct,sub_001_day_07_data.csv,1,300,59.0,Training at home,,,,,,,,,,,,,
1,7,1486,B,42.21478075181277,18.504395396576683,2.1107390375906387,0.2906663631850305,B,1705.6956002488732,Correct,sub_001_day_07_data.csv,1,300,59.0,Training at home,,,,,,,,,,,,,
1,7,1487,B,45.76803910095201,17.13734178566557,2.2884019550476005,0.2691927352795217,B,1554.2387999594212,Correct,sub_001_day_07_data.csv,1,300,59.0,Training at home,,,,,,,,,,,,,
1,7,1488,A,37.20538873250237,47.538217202043185,1.8602694366251185,0.746728569633474,B,1579.9783002585173,Incorrect,sub_001_day_07_data.csv,0,300,59.0,Training at home,,,,,,,,,,,,,
1,7,1489,A,28.77808743869013,60.64552996544504,1.4389043719345065,0.9526177570625088,A,742.233700118959,Correct,sub_001_day_07_data.csv,1,300,59.0,Training at home,,,,,,,,,,,,,
1,7,1490,A,38.738839403516025,65.38104852778788,1.936941970175801,1.0270031086944806,B,2411.5999001078308,Incorrect,sub_001_day_07_data.csv,0,300,59.0,Training at home,,,,,,,,,,,,,
1,7,1491,B,78.04044172053223,65.42919062340232,3.9020220860266113,1.0277593229640345,B,557.1983000263572,Correct,sub_001_day_07_data.csv,1,300,59.0,Training at home,,,,,,,,,,,,,
1,7,1492,B,37.16254929443619,20.07410639516208,1.8581274647218096,0.3153233258921053,A,1440.339199732989,Incorrect,sub_001_day_07_data.csv,0,300,59.0,Training at home,,,,,,,,,,,,,
1,7,1493,B,72.71013580110362,40.24718844255262,3.6355067900551807,0.6322013576938367,B,2869.379000272602,Correct,sub_001_day_07_data.csv,1,300,59.0,Training at home,,,,,,,,,,,,,
1,7,1494,B,38.99400844802523,27.529121189383396,1.9497004224012613,0.4324264244417499,A,7970.088999718428,Incorrect,sub_001_day_07_data.csv,0,300,59.0,Training at home,,,,,,,,,,,,,
1,7,1495,A,60.46861744294961,84.34391539399317,3.0234308721474803,1.32487112488384,A,1375.3010001964867,Correct,sub_001_day_07_data.csv,1,300,59.0,Training at home,,,,,,,,,,,,,
1,7,1496,B,42.52318968257741,16.076756195481465,2.1261594841288707,0.2525330957863938,B,1435.528799891472,Correct,sub_001_day_07_data.csv,1,300,59.0,Training at home,,,,,,,,,,,,,
1,7,1497,B,62.1944068654569,30.85583446442931,3.109720343272845,0.4846823143691693,A,1792.8702998906374,Incorrect,sub_001_day_07_data.csv,0,300,59.0,Training at home,,,,,,,,,,,,,
1,7,1498,A,29.626044858439435,38.46878483041975,1.4813022429219718,0.6042662590788658,A,2879.4815000146627,Correct,sub_001_day_07_data.csv,1,300,59.0,Training at home,,,,,,,,,,,,,
1,7,1499,A,63.16782466793037,75.67904724350868,3.1583912333965185,1.1887636942544086,B,1806.6479000262916,Incorrect,sub_001_day_07_data.csv,0,300,59.0,Training at home,,,,,,,,,,,,,
