subject,day,trial,cat,x,y,xt,yt,resp,rt,fb,f_name,acc,n_trials,block,session_type,ns_left_digit,ns_right_digit,ns_left_size,ns_right_size,ns_congruent,ns_cue,ns_correct_side,ns_resp,ns_rt,ns_fb,acc_stroop,acc_stroop_mean,resp_key
1,20,4500,B,31.119311711573737,11.134178358557492,1.555965585578687,0.1748952646750134,A,521.8861000030302,Incorrect,sub_001_day_20_data.csv,0,300,180.0,Training at home,,,,,,,,,,,,,
1,20,4501,B,74.55394673186181,61.609793679378896,3.7276973365930903,0.9677643760615982,A,478.8134999689646,Incorrect,sub_001_day_20_data.csv,0,300,180.0,Training at home,,,,,,,,,,,,,
1,20,4502,A,35.064822443887785,50.902421954603085,1.753241122194389,0.7995733743125442,B,724.2017000098713,Incorrect,sub_001_day_20_data.csv,0,300,180.0,Training at home,,,,,,,,,,,,,
1,20,4503,B,62.09403860027317,35.513869729341046,3.104701930013659,0.5578505612112138,B,1031.041499983985,Correct,sub_001_day_20_data.csv,1,300,180.0,Training at home,,,,,,,,,,,,,
1,20,4504,B,76.89903509573033,45.05462474556062,3.844951754786516,0.7077163905544908,B,699.8791000223719,Correct,sub_001_day_20_data.csv,1,300,180.0,Training at home,,,,,,,,,,,,,
1,20,4505,B,63.63027813755451,32.629096886132245,3.1815139068777256,0.5125366553537133,B,477.1818000008352,Correct,sub_001_day_20_data.csv,1,300,180.0,Training at home,,,,,,,,,,,,,
1,20,4506,A,17.362248416492008,46.02395439832107,0.8681124208246004,0.7229425851345854,A,629.2776000336744,Correct,sub_001_day_20_data.csv,1,300,180.0,Training at home,,,,,,,,,,,,,
1,20,4507,A,24.033291821376594,51.44535656218685,1.2016645910688295,0.8081017711853684,A,420.2971999766305,Correct,sub_001_day_20_data.csv,1,300,180.0,Training at home,,,,,,,,,,,,,
1,20,4508,A,25.469152691481774,37.33577360612934,1.273457634574089,0.5864689603855381,A,424.2711000260897,Correct,sub_001_day_20_data.csv,1,300,180.0,Training at home,,,,,,,,,,,,,
1,20,4509,A,51.02980145029916,65.49011597196876,2.551490072514958,1.0287163361014031,A,510.6810000143014,Correct,sub_001_day_20_data.csv,1,300,180.0,Training at home,,,,,,,,,,,,,
1,20,4510,A,35.29033782882474,53.927720104915416,1.7645168914412368,0.8470946465322442,B,739.0896000433713,Incorrect,sub_001_day_20_data.csv,0,300,180.0,Training at home,,,,,,,,,,,,,
1,20,4511,A,23.04845285232889,47.1202997788045,1.1524226426164443,0.740163938100205,A,854.0741999750026,Correct,sub_001_day_20_data.csv,1,300,180.0,Training at home,,,,,,,,,,,,,
1,20,4512,A,54.410637897593936,77.44630878261506,2.720531894879697,1.2165237735955508,A,790.8198999939486,Correct,sub_001_day_20_data.csv,1,300,180.0,Training at home,,,,,,,,,,,,,
1,20,4513,B,38.49057190727666,28.113708832545477,1.924528595363833,0.4416091056674367,B,687.9033000441268,Correct,sub_001_day_20_data.csv,1,300,180.0,Training at home,,,,,,,,,,,,,
1,20,4514,A,44.812662949274554,69.32708778560084,2.240633147463728,1.0889873484100914,A,532.8252000035718,Correct,sub_001_day_20_data.csv,1,300,180.0,Training at home,,,,,,,,,,,,,
1,20,4515,A,45.123850605311134,76.50743519323223,2.2561925302655568,1.2017759817402776,A,493.0899000028148,Correct,sub_001_day_20_data.csv,1,300,180.0,Training at home,,,,,,,,,,,,,
1,20,4516,A,31.91740954814855,47.97712954963764,1.5958704774074275,0.753622988667337,B,763.6470000143163,Incorrect,sub_001_day_20_data.csv,0,300,180.0,Training at home,,,,,,,,,,,,,
1,20,4517,B,44.96700618821208,22.198086572698035,2.248350309410604,0.3486867285026919,B,2040.986099978909,Correct,sub_001_day_20_data.csv,1,300,180.0,Training at home,,,,,,,,,,,,,
1,20,4518,B,39.08503719381145,23.00006204272713,1.9542518596905725,0.3612841297277051,B,524.778500024695,Correct,sub_001_day_20_data.csv,1,300,180.0,Training at home,,,,,,,,,,,,,
1,20,4519,A,18.834987849856866,49.539316388909754,0.9417493924928432,0.7781617621562966,A,863.3861999842338,Correct,sub_001_day_20_data.csv,1,300,180.0,Training at home,,,,,,,,,,,,,
1,20,4520,B,66.30043076397479,48.86398486442043,3.315021538198739,0.7675536793759303,B,725.068999978248,Correct,sub_001_day_20_data.csv,1,300,180.0,Training at home,,,,,,,,,,,,,
1,20,4521,A,22.437683440679542,43.19046323362106,1.121884172033977,0.6784342099994198,A,1855.4288999876007,Correct,sub_001_day_20_data.csv,1,300,180.0,Training at home,,,,,,,,,,,,,
1,20,4522,B,80.01429855638214,60.79988598377704,4.000714927819107,0.9550423757286548,B,1157.606999971904,Correct,sub_001_day_20_data.csv,1,300,180.0,Training at home,,,,,,,,,,,,,
1,20,4523,B,59.62714564479515,37.76441687289494,2.981357282239758,0.593202073074946,B,684.0199999860488,Correct,sub_001_day_20_data.csv,1,300,180.0,Training at home,,,,,,,,,,,,,
1,20,4524,A,38.7147745218195,61.92198039917635,1.9357387260909749,0.972668193588918,A,614.69809996197,Correct,sub_001_day_20_data.csv,1,300,180.0,Training at home,,,,,,,,,,,,,
1,20,4525,A,38.05270188375907,58.814589902634125,1.9026350941879535,0.923857417810059,A,2136.279300029855,Correct,sub_001_day_20_data.csv,1,300,181.0,Training at home,,,,,,,,,,,,,
1,20,4526,B,70.5354228602466,57.26550290189646,3.52677114301233,0.8995244161036146,B,630.9719000128098,Correct,sub_001_day_20_data.csv,1,300,181.0,Training at home,,,,,,,,,,,,,
1,20,4527,B,44.398320742812075,23.651914618432723,2.219916037140604,0.3715234060430063,B,1103.3006999641657,Correct,sub_001_day_20_data.csv,1,300,181.0,Training at home,,,,,,,,,,,,,
1,20,4528,A,65.16619040939966,82.89551325297457,3.258309520469983,1.3021196772555013,A,437.9466000245884,Correct,sub_001_day_20_data.csv,1,300,181.0,Training at home,,,,,,,,,,,,,
1,20,4529,A,69.3414145721603,86.41376674102553,3.4670707286080154,1.3573842738131388,A,697.5682000047527,Correct,sub_001_day_20_data.csv,1,300,181.0,Training at home,,,,,,,,,,,,,
1,20,4530,B,47.16424972510213,23.112837840454244,2.3582124862551064,0.3630556078159161,B,464.5301999989897,Correct,sub_001_day_20_data.csv,1,300,181.0,Training at home,,,,,,,,,,,,,
1,20,4531,B,37.43181915680401,20.04645162913474,1.8715909578402008,0.3148889258431642,B,1038.49970002193,Correct,sub_001_day_20_data.csv,1,300,181.0,Training at home,,,,,,,,,,,,,
1,20,4532,A,27.624141540270685,51.89103023802772,1.381207077013534,0.8151023969149684,A,472.75790001731366,Correct,sub_001_day_20_data.csv,1,300,181.0,Training at home,,,,,,,,,,,,,
1,20,4533,A,40.28460711185198,64.85062464755319,2.0142303555925993,1.0186712298673113,A,474.0147999837063,Correct,sub_001_day_20_data.csv,1,300,181.0,Training at home,,,,,,,,,,,,,
1,20,4534,B,55.88404657977658,34.63492750157786,2.794202328988829,0.5440441689828606,B,552.4420000147074,Correct,sub_001_day_20_data.csv,1,300,181.0,Training at home,,,,,,,,,,,,,
1,20,4535,A,35.3356605308191,50.18366369627675,1.766783026540955,0.7882831459922193,A,5036.156499991193,Correct,sub_001_day_20_data.csv,1,300,181.0,Training at home,,,,,,,,,,,,,
1,20,4536,B,64.2329871704702,37.5598514262176,3.21164935852351,0.5899887665526466,B,904.499099997338,Correct,sub_001_day_20_data.csv,1,300,181.0,Training at home,,,,,,,,,,,,,
1,20,4537,A,67.27799292692136,83.59227078097555,3.363899646346068,1.3130643189120077,A,1429.1663999902084,Correct,sub_001_day_20_data.csv,1,300,181.0,Training at home,,,,,,,,,,,,,
1,20,4538,B,52.00651397322425,25.6750788950758,2.6003256986612127,0.4033031961855424,A,1991.9400999788195,Incorrect,sub_001_day_20_data.csv,0,300,181.0,Training at home,,,,,,,,,,,,,
1,20,4539,B,79.42335457339442,63.70266599023704,3.971167728669721,1.0006391374450654,A,1391.6986000258476,Incorrect,sub_001_day_20_data.csv,0,300,181.0,Training at home,,,,,,,,,,,,,
1,20,4540,B,67.34526169504143,34.93320886440962,3.3672630847520715,0.5487295616737355,B,1753.2443999662064,Correct,sub_001_day_20_data.csv,1,300,181.0,Training at home,,,,,,,,,,,,,
1,20,4541,A,26.61905062833305,45.55668675846875,1.3309525314166524,0.7156027622114842,A,733.9344999636523,Correct,sub_001_day_20_data.csv,1,300,181.0,Training at home,,,,,,,,,,,,,
1,20,4542,B,48.58375050113159,34.97709550485595,2.4291875250565793,0.5494189314098202,B,3859.033700020518,Correct,sub_001_day_20_data.csv,1,300,181.0,Training at home,,,,,,,,,,,,,
1,20,4543,A,64.60223123190161,82.86333402697512,3.2301115615950806,1.301614207155511,A,1094.642499985639,Correct,sub_001_day_20_data.csv,1,300,181.0,Training at home,,,,,,,,,,,,,
1,20,4544,B,68.07341455319423,57.92533897888266,3.403670727659711,0.9098890969637812,A,1134.9488000269048,Incorrect,sub_001_day_20_data.csv,0,300,181.0,Training at home,,,,,,,,,,,,,
1,20,4545,B,33.61980922436085,15.040705791374824,1.6809904612180424,0.236258854094943,B,914.9084000382572,Correct,sub_001_day_20_data.csv,1,300,181.0,Training at home,,,,,,,,,,,,,
1,20,4546,A,24.533291336798207,43.02169808658548,1.2266645668399103,0.6757832532688751,A,667.332399985753,Correct,sub_001_day_20_data.csv,1,300,181.0,Training at home,,,,,,,,,,,,,
1,20,4547,A,33.55638864144416,65.5510007475181,1.677819432072208,1.0296727119193094,A,703.5972999874502,Correct,sub_001_day_20_data.csv,1,300,181.0,Training at home,,,,,,,,,,,,,
1,20,4548,A,57.67474266036496,73.25090307847483,2.8837371330182475,1.1506224949007726,A,408.8825000217184,Correct,sub_001_day_20_data.csv,1,300,181.0,Training at home,,,,,,,,,,,,,
1,20,4549,B,68.6442222871266,40.03789810978292,3.4322111143563294,0.6289138328343534,B,719.2987000453286,Correct,sub_001_day_20_data.csv,1,300,181.0,Training at home,,,,,,,,,,,,,
1,20,4550,B,43.29536352631435,28.66699028747234,2.1647681763157176,0.4503000304382653,A,625.168600003235,Incorrect,sub_001_day_20_data.csv,0,300,182.0,Training at home,,,,,,,,,,,,,
1,20,4551,A,13.258174521384817,33.86708469406801,0.6629087260692408,0.531982922366937,A,484.92240003542975,Correct,sub_001_day_20_data.csv,1,300,182.0,Training at home,,,,,,,,,,,,,
1,20,4552,B,70.96870753619729,60.27433155128344,3.548435376809864,0.9467869860077376,A,500.84499997319654,Incorrect,sub_001_day_20_data.csv,0,300,182.0,Training at home,,,,,,,,,,,,,
1,20,4553,B,37.68311547110589,12.011590083099447,1.8841557735552947,0.1886776158149862,B,856.1509000137448,Correct,sub_001_day_20_data.csv,1,300,182.0,Training at home,,,,,,,,,,,,,
1,20,4554,A,34.087035428679016,64.25634907474092,1.704351771433951,1.009336370998537,A,16534.437099995557,Correct,sub_001_day_20_data.csv,1,300,182.0,Training at home,,,,,,,,,,,,,
1,20,4555,B,41.690654094222694,14.181247241144792,2.0845327047111346,0.222758510757605,B,663.4377999580465,Correct,sub_001_day_20_data.csv,1,300,182.0,Training at home,,,,,,,,,,,,,
1,20,4556,B,62.561912178726274,46.38230345413191,3.128095608936314,0.7285715189403663,A,685.0417000241578,Incorrect,sub_001_day_20_data.csv,0,300,182.0,Training at home,,,,,,,,,,,,,
1,20,4557,A,55.08062152293152,83.09051258932561,2.7540310761465765,1.3051827196681778,A,586.2742000026628,Correct,sub_001_day_20_data.csv,1,300,182.0,Training at home,,,,,,,,,,,,,
1,20,4558,B,36.523294189275155,13.027654380245288,1.826164709463758,0.2046379164724274,B,497.92240001261234,Correct,sub_001_day_20_data.csv,1,300,182.0,Training at home,,,,,,,,,,,,,
1,20,4559,B,59.42944052458669,48.56418470144219,2.971472026229334,0.762844429428143,B,1469.7524000075646,Correct,sub_001_day_20_data.csv,1,300,182.0,Training at home,,,,,,,,,,,,,
1,20,4560,A,19.151689331011568,50.10767719519325,0.9575844665505784,0.7870895528243395,A,2552.938600012567,Correct,sub_001_day_20_data.csv,1,300,182.0,Training at home,,,,,,,,,,,,,
1,20,4561,A,53.56976602183892,68.30012302874184,2.6784883010919462,1.0728558237318722,B,643.2500000228174,Incorrect,sub_001_day_20_data.csv,0,300,182.0,Training at home,,,,,,,,,,,,,
1,20,4562,B,77.15573569102466,54.73382823502085,3.8577867845512337,0.8597569634299356,B,2087.549999996554,Correct,sub_001_day_20_data.csv,1,300,182.0,Training at home,,,,,,,,,,,,,
1,20,4563,A,46.346241950354944,63.404090121531496,2.317312097517747,0.9959491186667428,B,2341.016700025648,Incorrect,sub_001_day_20_data.csv,0,300,182.0,Training at home,,,,,,,,,,,,,
1,20,4564,A,48.82524385954783,57.750734604659876,2.441262192977392,0.9071464178670666,B,666.6604999918491,Incorrect,sub_001_day_20_data.csv,0,300,182.0,Training at home,,,,,,,,,,,,,
1,20,4565,B,33.375862575667554,12.25968498891258,1.6687931287833777,0.1925746814824641,B,1059.528700017836,Correct,sub_001_day_20_data.csv,1,300,182.0,Training at home,,,,,,,,,,,,,
1,20,4566,A,14.072123200637195,38.729340881613965,0.7036061600318598,0.6083590639602664,A,1024.1735999588857,Correct,sub_001_day_20_data.csv,1,300,182.0,Training at home,,,,,,,,,,,,,
1,20,4567,B,73.68765354148424,59.26351724222613,3.684382677074211,0.9309091519703482,A,500.6982000195421,Incorrect,sub_001_day_20_data.csv,0,300,182.0,Training at home,,,,,,,,,,,,,
1,20,4568,A,53.43709076657471,63.09615136743912,2.671854538328736,0.9911120280286816,A,1026.438499975484,Correct,sub_001_day_20_data.csv,1,300,182.0,Training at home,,,,,,,,,,,,,
1,20,4569,B,76.4229556493172,59.83735105270485,3.82114778246586,0.939922912387255,A,965.8768000081182,Incorrect,sub_001_day_20_data.csv,0,300,182.0,Training at home,,,,,,,,,,,,,
1,20,4570,B,59.44134466146383,28.751591057565182,2.972067233073192,0.451628936227324,B,486.5340999676846,Correct,sub_001_day_20_data.csv,1,300,182.0,Training at home,,,,,,,,,,,,,
1,20,4571,A,16.726224365594206,43.901584338595825,0.8363112182797103,0.6896044741954268,A,991.3583999732508,Correct,sub_001_day_20_data.csv,1,300,182.0,Training at home,,,,,,,,,,,,,
1,20,4572,A,26.227772733477,47.12922165513862,1.31138863667385,0.7403040826059424,A,620.875199965667,Correct,sub_001_day_20_data.csv,1,300,182.0,Training at home,,,,,,,,,,,,,
1,20,4573,A,38.169624999928246,62.94800837876182,1.9084812499964123,0.9887850034041344,A,682.6105000218377,Correct,sub_001_day_20_data.csv,1,300,182.0,Training at home,,,,,,,,,,,,,
1,20,4574,B,80.05355252604961,49.76961167059948,4.00267762630248,0.7817792319818608,B,2860.6281999964267,Correct,sub_001_day_20_data.csv,1,300,182.0,Training at home,,,,,,,,,,,,,
1,20,4575,A,37.18492847741309,56.31538560754894,1.8592464238706543,0.8846000085437606,A,1770.1415999908932,Correct,sub_001_day_20_data.csv,1,300,183.0,Training at home,,,,,,,,,,,,,
1,20,4576,B,42.76296115752785,33.49026117265793,2.1381480578763923,0.5260637923341283,A,460.5500000179745,Incorrect,sub_001_day_20_data.csv,0,300,183.0,Training at home,,,,,,,,,,,,,
1,20,4577,A,29.385095279266345,47.782200438181526,1.4692547639633171,0.7505610493447302,B,629.4017999898642,Incorrect,sub_001_day_20_data.csv,0,300,183.0,Training at home,,,,,,,,,,,,,
1,20,4578,B,81.27251548041518,55.19996748438887,4.063625774020759,0.8670790616367575,B,754.0412000380456,Correct,sub_001_day_20_data.csv,1,300,183.0,Training at home,,,,,,,,,,,,,
1,20,4579,A,64.9757252237366,78.41327232510741,3.2487862611868303,1.2317128014024663,A,611.3881999626756,Correct,sub_001_day_20_data.csv,1,300,183.0,Training at home,,,,,,,,,,,,,
1,20,4580,A,13.822181621230804,30.1015675243162,0.6911090810615402,0.4728343169796443,A,487.4695999897085,Correct,sub_001_day_20_data.csv,1,300,183.0,Training at home,,,,,,,,,,,,,
1,20,4581,B,55.55958053450004,46.17375980568117,2.777979026725002,0.7252957229707382,A,503.7499000318349,Incorrect,sub_001_day_20_data.csv,0,300,183.0,Training at home,,,,,,,,,,,,,
1,20,4582,B,59.244023192059906,37.58052766749231,2.9622011596029956,0.590313548191109,B,566.8867999920622,Correct,sub_001_day_20_data.csv,1,300,183.0,Training at home,,,,,,,,,,,,,
1,20,4583,A,45.726147258868394,67.12531387521578,2.2863073629434196,1.0544019647014349,A,583.094000001438,Correct,sub_001_day_20_data.csv,1,300,183.0,Training at home,,,,,,,,,,,,,
1,20,4584,A,31.23379833121529,50.03975314424166,1.5616899165607645,0.7860226043269817,A,3329.2032000026666,Correct,sub_001_day_20_data.csv,1,300,183.0,Training at home,,,,,,,,,,,,,
1,20,4585,B,55.50120751282944,23.716203994788316,2.7750603756414716,0.3725332612053194,B,651.1478999746032,Correct,sub_001_day_20_data.csv,1,300,183.0,Training at home,,,,,,,,,,,,,
1,20,4586,A,52.12600657308494,80.52311064720436,2.606300328654247,1.2648540642672763,A,493.2277999469079,Correct,sub_001_day_20_data.csv,1,300,183.0,Training at home,,,,,,,,,,,,,
1,20,4587,B,73.26422941400061,59.06697319809163,3.6632114707000305,0.9278218453445491,A,591.3681000238284,Incorrect,sub_001_day_20_data.csv,0,300,183.0,Training at home,,,,,,,,,,,,,
1,20,4588,A,46.919156739025375,54.85184108526352,2.3459578369512686,0.8616107049466933,B,481.18390003219247,Incorrect,sub_001_day_20_data.csv,0,300,183.0,Training at home,,,,,,,,,,,,,
1,20,4589,A,24.245052544617856,35.62364909329755,1.2122526272308929,0.5595749714278213,A,962.6889000064692,Correct,sub_001_day_20_data.csv,1,300,183.0,Training at home,,,,,,,,,,,,,
1,20,4590,A,34.0108621560783,66.79443738493013,1.7005431078039153,1.0492045689457998,B,630.2762000123039,Incorrect,sub_001_day_20_data.csv,0,300,183.0,Training at home,,,,,,,,,,,,,
1,20,4591,B,86.0909983445473,59.47796605944211,4.304549917227365,0.934277706114032,A,1021.3545000297016,Incorrect,sub_001_day_20_data.csv,0,300,183.0,Training at home,,,,,,,,,,,,,
1,20,4592,A,32.96599471039796,58.18619357541951,1.6482997355198978,0.9139865913844576,A,710.6319000013173,Correct,sub_001_day_20_data.csv,1,300,183.0,Training at home,,,,,,,,,,,,,
1,20,4593,B,43.1093880164414,17.36816388995062,2.1554694008220703,0.2728184804150619,B,943.4191000182182,Correct,sub_001_day_20_data.csv,1,300,183.0,Training at home,,,,,,,,,,,,,
1,20,4594,A,30.804926868963683,47.91657322810801,1.5402463434481843,0.7526717721931073,A,594.0516999689862,Correct,sub_001_day_20_data.csv,1,300,183.0,Training at home,,,,,,,,,,,,,
1,20,4595,A,57.381048862257174,82.42621262907716,2.8690524431128583,1.294747920293695,A,1067.3040999681689,Correct,sub_001_day_20_data.csv,1,300,183.0,Training at home,,,,,,,,,,,,,
1,20,4596,A,17.598020518296572,48.46759490528046,0.8799010259148287,0.7613272004579758,A,5365.104299969971,Correct,sub_001_day_20_data.csv,1,300,183.0,Training at home,,,,,,,,,,,,,
1,20,4597,A,22.481250234930137,51.609271370938245,1.1240625117465068,0.8106765389803081,A,513.4263999643736,Correct,sub_001_day_20_data.csv,1,300,183.0,Training at home,,,,,,,,,,,,,
1,20,4598,B,75.97866968093018,53.055133390977886,3.798933484046509,0.8333880864816133,B,496.52819999028,Correct,sub_001_day_20_data.csv,1,300,183.0,Training at home,,,,,,,,,,,,,
1,20,4599,B,49.816527627985,30.388076750735056,2.49082638139925,0.4773347933841602,A,1978.7908999715,Incorrect,sub_001_day_20_data.csv,0,300,183.0,Training at home,,,,,,,,,,,,,
1,20,4600,B,35.32610134052294,19.55123469258353,1.7663050670261469,0.3071100763941515,B,508.8350999867544,Correct,sub_001_day_20_data.csv,1,300,184.0,Training at home,,,,,,,,,,,,,
1,20,4601,B,64.14377488723355,54.62291281911577,3.2071887443616776,0.8580147081510491,B,670.3452999936417,Correct,sub_001_day_20_data.csv,1,300,184.0,Training at home,,,,,,,,,,,,,
1,20,4602,A,24.158855993876173,47.05953060024446,1.2079427996938086,0.7392093780755603,A,1063.8786000199616,Correct,sub_001_day_20_data.csv,1,300,184.0,Training at home,,,,,,,,,,,,,
1,20,4603,B,48.7223560564003,18.76768577904717,2.436117802820015,0.2948021188416811,A,4911.448500002734,Incorrect,sub_001_day_20_data.csv,0,300,184.0,Training at home,,,,,,,,,,,,,
1,20,4604,B,58.68638818082345,40.91591817810783,2.9343194090411724,0.6427057398161231,B,832.0804000250064,Correct,sub_001_day_20_data.csv,1,300,184.0,Training at home,,,,,,,,,,,,,
1,20,4605,B,32.266469000039415,12.407591243991057,1.6133234500019709,0.1948979875043367,B,1547.192599973641,Correct,sub_001_day_20_data.csv,1,300,184.0,Training at home,,,,,,,,,,,,,
1,20,4606,A,24.02261127801364,50.10936708457493,1.201130563900682,0.7871160975446737,B,1267.8963000071235,Incorrect,sub_001_day_20_data.csv,0,300,184.0,Training at home,,,,,,,,,,,,,
1,20,4607,B,56.04396937542919,39.085169494249485,2.8021984687714596,0.6139484067372304,A,966.007000009995,Incorrect,sub_001_day_20_data.csv,0,300,184.0,Training at home,,,,,,,,,,,,,
1,20,4608,A,29.06176638577824,52.9162968018952,1.453088319288912,0.8312072464400552,A,1787.246500025503,Correct,sub_001_day_20_data.csv,1,300,184.0,Training at home,,,,,,,,,,,,,
1,20,4609,A,63.13423015762999,88.48362963270085,3.1567115078815,1.3898976040852655,A,711.9568000198342,Correct,sub_001_day_20_data.csv,1,300,184.0,Training at home,,,,,,,,,,,,,
1,20,4610,B,64.48330959619832,31.715816264608364,3.224165479809916,0.4981908768974866,A,528.2470000092871,Incorrect,sub_001_day_20_data.csv,0,300,184.0,Training at home,,,,,,,,,,,,,
1,20,4611,B,62.377700153116315,45.73496185443277,3.1188850076558157,0.718403100870477,B,790.6673000543378,Correct,sub_001_day_20_data.csv,1,300,184.0,Training at home,,,,,,,,,,,,,
1,20,4612,B,79.49436033761515,50.662695435155165,3.9747180168807574,0.7958077589507031,A,2105.131899996195,Incorrect,sub_001_day_20_data.csv,0,300,184.0,Training at home,,,,,,,,,,,,,
1,20,4613,A,29.29778058700974,43.432582859880085,1.464889029350487,0.6822374161951462,B,636.6394000360742,Incorrect,sub_001_day_20_data.csv,0,300,184.0,Training at home,,,,,,,,,,,,,
1,20,4614,A,55.3294826266436,82.1980517204938,2.7664741313321803,1.291163977122486,A,766.9765999889933,Correct,sub_001_day_20_data.csv,1,300,184.0,Training at home,,,,,,,,,,,,,
1,20,4615,B,62.523402768460365,51.84687928287352,3.1261701384230185,0.8144088753331614,A,727.6657000184059,Incorrect,sub_001_day_20_data.csv,0,300,184.0,Training at home,,,,,,,,,,,,,
1,20,4616,B,57.22435378803307,44.94044720050726,2.8612176894016534,0.7059228938707679,A,2753.8554000202566,Incorrect,sub_001_day_20_data.csv,0,300,184.0,Training at home,,,,,,,,,,,,,
1,20,4617,A,42.252370739383785,73.68581360431872,2.1126185369691894,1.1574540534655726,A,900.2151000313461,Correct,sub_001_day_20_data.csv,1,300,184.0,Training at home,,,,,,,,,,,,,
1,20,4618,B,57.502820187012155,46.348839140952386,2.8751410093506076,0.7280458627381555,A,2120.4456000123173,Incorrect,sub_001_day_20_data.csv,0,300,184.0,Training at home,,,,,,,,,,,,,
1,20,4619,A,37.33501154827021,63.22970798813126,1.8667505774135105,0.993209930520705,A,1130.8380999835208,Correct,sub_001_day_20_data.csv,1,300,184.0,Training at home,,,,,,,,,,,,,
1,20,4620,B,41.97789961832093,25.62356354610118,2.098894980916046,0.4024939949761134,B,556.4520999905653,Correct,sub_001_day_20_data.csv,1,300,184.0,Training at home,,,,,,,,,,,,,
1,20,4621,B,60.08611699938634,33.778237036841965,3.004305849969317,0.5305873066307869,B,613.1061000050977,Correct,sub_001_day_20_data.csv,1,300,184.0,Training at home,,,,,,,,,,,,,
1,20,4622,A,49.39771609435448,65.36981678344375,2.469885804717724,1.0268266808668882,A,612.7783000119962,Correct,sub_001_day_20_data.csv,1,300,184.0,Training at home,,,,,,,,,,,,,
1,20,4623,A,32.74761185432926,55.15432513431718,1.6373805927164629,0.8663621132783688,A,485.1269000209868,Correct,sub_001_day_20_data.csv,1,300,184.0,Training at home,,,,,,,,,,,,,
1,20,4624,B,71.92661491571826,47.62394524071174,3.5963307457859126,0.748075182515913,B,579.7658000374213,Correct,sub_001_day_20_data.csv,1,300,184.0,Training at home,,,,,,,,,,,,,
1,20,4625,A,29.48158142691804,54.77851305710343,1.474079071345902,0.8604588709738437,A,462.1201000409201,Correct,sub_001_day_20_data.csv,1,300,185.0,Training at home,,,,,,,,,,,,,
1,20,4626,B,61.45229620211774,32.86638059305231,3.072614810105887,0.5162638991060965,B,469.29729997646064,Correct,sub_001_day_20_data.csv,1,300,185.0,Training at home,,,,,,,,,,,,,
1,20,4627,A,66.24901055158657,89.28994569030289,3.3124505275793283,1.402563187100436,A,778.3793999697082,Correct,sub_001_day_20_data.csv,1,300,185.0,Training at home,,,,,,,,,,,,,
1,20,4628,B,59.426658990760934,36.266893136168946,2.9713329495380467,0.5696790252255723,A,995.0838999939152,Incorrect,sub_001_day_20_data.csv,0,300,185.0,Training at home,,,,,,,,,,,,,
1,20,4629,A,50.935357498471305,76.53706266411187,2.5467678749235656,1.2022413689645777,B,575.0176000292413,Incorrect,sub_001_day_20_data.csv,0,300,185.0,Training at home,,,,,,,,,,,,,
1,20,4630,A,22.487345214690144,35.58523073390179,1.1243672607345072,0.5589714972496179,B,1336.8748999782838,Incorrect,sub_001_day_20_data.csv,0,300,185.0,Training at home,,,,,,,,,,,,,
1,20,4631,B,60.75694843864638,43.02007179381307,3.037847421932319,0.675757707521743,B,974.6650999877602,Correct,sub_001_day_20_data.csv,1,300,185.0,Training at home,,,,,,,,,,,,,
1,20,4632,B,34.422385543205976,15.082631482177836,1.7211192771602988,0.23691742130606,A,1053.2539000269026,Incorrect,sub_001_day_20_data.csv,0,300,185.0,Training at home,,,,,,,,,,,,,
1,20,4633,B,71.07488838627805,48.94887276665915,3.5537444193139027,0.7688870954261895,A,748.1870999909006,Incorrect,sub_001_day_20_data.csv,0,300,185.0,Training at home,,,,,,,,,,,,,
1,20,4634,A,54.90731257908183,78.28857511502038,2.7453656289540915,1.2297540622068035,A,616.4885999751277,Correct,sub_001_day_20_data.csv,1,300,185.0,Training at home,,,,,,,,,,,,,
1,20,4635,A,19.33692412923449,43.69052279602699,0.9668462064617244,0.6862891272374789,A,1753.0402999836951,Correct,sub_001_day_20_data.csv,1,300,185.0,Training at home,,,,,,,,,,,,,
1,20,4636,A,34.242085532306305,67.51757331944545,1.7121042766153152,1.0605635616429,A,597.4172999849543,Correct,sub_001_day_20_data.csv,1,300,185.0,Training at home,,,,,,,,,,,,,
1,20,4637,B,70.30885082125037,47.71307097398949,3.5154425410625185,0.749475166260469,A,606.9088000222109,Incorrect,sub_001_day_20_data.csv,0,300,185.0,Training at home,,,,,,,,,,,,,
1,20,4638,A,31.54748982923148,60.71623992737072,1.5773744914615742,0.9537284665471156,A,714.2261000117287,Correct,sub_001_day_20_data.csv,1,300,185.0,Training at home,,,,,,,,,,,,,
1,20,4639,A,37.632653024156454,51.55385265490402,1.8816326512078227,0.8098060238244856,A,609.7288000164554,Correct,sub_001_day_20_data.csv,1,300,185.0,Training at home,,,,,,,,,,,,,
1,20,4640,B,59.95875373247768,33.97187904341522,2.997937686623884,0.5336290281571715,B,525.2981000230648,Correct,sub_001_day_20_data.csv,1,300,185.0,Training at home,,,,,,,,,,,,,
1,20,4641,B,65.99910544594916,55.580171270484,3.299955272297458,0.873051288743075,A,537.9052999778651,Incorrect,sub_001_day_20_data.csv,0,300,185.0,Training at home,,,,,,,,,,,,,
1,20,4642,B,31.515447056972825,14.927988841969691,1.5757723528486411,0.2344883003940119,B,559.981600032188,Correct,sub_001_day_20_data.csv,1,300,185.0,Training at home,,,,,,,,,,,,,
1,20,4643,B,78.07862152074173,51.95900308386362,3.903931076037087,0.8161701118805768,A,1041.356900008395,Incorrect,sub_001_day_20_data.csv,0,300,185.0,Training at home,,,,,,,,,,,,,
1,20,4644,B,83.80672194978739,57.87718001448007,4.19033609748937,0.9091326177199228,A,3814.8223999887705,Incorrect,sub_001_day_20_data.csv,0,300,185.0,Training at home,,,,,,,,,,,,,
1,20,4645,B,36.01897212392076,23.328323368234177,1.8009486061960382,0.366440446571058,B,1100.0553999911062,Correct,sub_001_day_20_data.csv,1,300,185.0,Training at home,,,,,,,,,,,,,
1,20,4646,A,66.81464262308336,85.99047353546662,3.340732131154168,1.3507351996886472,A,698.9209000021219,Correct,sub_001_day_20_data.csv,1,300,185.0,Training at home,,,,,,,,,,,,,
1,20,4647,B,45.45835913615271,32.167391204250116,2.2729179568076354,0.5052841994621053,A,741.5208000456914,Incorrect,sub_001_day_20_data.csv,0,300,185.0,Training at home,,,,,,,,,,,,,
1,20,4648,A,32.240533257261674,48.34594093074014,1.612026662863084,0.7594162642944966,A,584.2018999974243,Correct,sub_001_day_20_data.csv,1,300,185.0,Training at home,,,,,,,,,,,,,
1,20,4649,B,45.82982823342014,22.792648521009877,2.291491411671007,0.3580260857472945,B,754.7728999634273,Correct,sub_001_day_20_data.csv,1,300,185.0,Training at home,,,,,,,,,,,,,
1,20,4650,B,44.741854180307946,32.01027196884327,2.237092709015397,0.5028161762836465,B,1384.0177000383846,Correct,sub_001_day_20_data.csv,1,300,186.0,Training at home,,,,,,,,,,,,,
1,20,4651,A,39.5616696065963,47.972137622705375,1.9780834803298148,0.7535445756624486,B,1055.6674000108617,Incorrect,sub_001_day_20_data.csv,0,300,186.0,Training at home,,,,,,,,,,,,,
1,20,4652,B,54.535334848381126,29.33754104557727,2.7267667424190565,0.4608330171158728,A,485.23769999155775,Incorrect,sub_001_day_20_data.csv,0,300,186.0,Training at home,,,,,,,,,,,,,
1,20,4653,B,50.46422194676286,41.83348308325723,2.5232110973381427,0.657118815642169,A,598.9955999539234,Incorrect,sub_001_day_20_data.csv,0,300,186.0,Training at home,,,,,,,,,,,,,
1,20,4654,B,39.41271466816104,13.219341756477045,1.970635733408052,0.2076489347372053,A,770.978800021112,Incorrect,sub_001_day_20_data.csv,0,300,186.0,Training at home,,,,,,,,,,,,,
1,20,4655,B,77.27463329935541,52.23312508107292,3.86373166496777,0.8204760101436772,B,1178.03469998762,Correct,sub_001_day_20_data.csv,1,300,186.0,Training at home,,,,,,,,,,,,,
1,20,4656,B,61.73120231905998,29.78207469278712,3.086560115952999,0.4678157353176125,B,76563.25090001337,Correct,sub_001_day_20_data.csv,1,300,186.0,Training at home,,,,,,,,,,,,,
1,20,4657,B,40.36266990549671,13.397245463100525,2.0181334952748355,0.2104434396260789,A,5446.177599951625,Incorrect,sub_001_day_20_data.csv,0,300,186.0,Training at home,,,,,,,,,,,,,
1,20,4658,B,48.42173754103685,38.13084478367476,2.4210868770518426,0.5989579092378265,A,636.9182000053115,Incorrect,sub_001_day_20_data.csv,0,300,186.0,Training at home,,,,,,,,,,,,,
1,20,4659,A,21.78853488931933,53.92578580841643,1.0894267444659664,0.8470642626738889,A,686.897500010673,Correct,sub_001_day_20_data.csv,1,300,186.0,Training at home,,,,,,,,,,,,,
1,20,4660,A,61.3945174902295,84.49827754500927,3.069725874511475,1.3272958398819623,A,839.704200043343,Correct,sub_001_day_20_data.csv,1,300,186.0,Training at home,,,,,,,,,,,,,
1,20,4661,A,64.50173212117092,81.88012851790143,3.2250866060585457,1.2861700511341363,A,644.1446999670006,Correct,sub_001_day_20_data.csv,1,300,186.0,Training at home,,,,,,,,,,,,,
1,20,4662,A,57.31058245351166,76.75018526876181,2.8655291226755826,1.2055890910099885,A,1895.2800999977624,Correct,sub_001_day_20_data.csv,1,300,186.0,Training at home,,,,,,,,,,,,,
1,20,4663,B,41.76582446425776,23.445939629688045,2.088291223212888,0.3682879584856887,A,4086.217099975329,Incorrect,sub_001_day_20_data.csv,0,300,186.0,Training at home,,,,,,,,,,,,,
1,20,4664,B,35.87295816254186,17.03635264531796,1.793647908127093,0.2676064015724797,A,4816.422900010366,Incorrect,sub_001_day_20_data.csv,0,300,186.0,Training at home,,,,,,,,,,,,,
1,20,4665,B,47.269220398332784,38.11299862527883,2.363461019916639,0.5986775824372692,A,960.0081000244244,Incorrect,sub_001_day_20_data.csv,0,300,186.0,Training at home,,,,,,,,,,,,,
1,20,4666,B,59.3595180595648,34.044184519178394,2.96797590297824,0.534764799914531,B,576.7039000056684,Correct,sub_001_day_20_data.csv,1,300,186.0,Training at home,,,,,,,,,,,,,
1,20,4667,A,36.830059434789455,62.99082075488132,1.8415029717394729,0.989457498635633,A,697.8602000162937,Correct,sub_001_day_20_data.csv,1,300,186.0,Training at home,,,,,,,,,,,,,
1,20,4668,A,40.01231003693677,67.76123529842471,2.000615501846838,1.0643909950585022,A,2891.9877000153065,Correct,sub_001_day_20_data.csv,1,300,186.0,Training at home,,,,,,,,,,,,,
1,20,4669,B,42.22749249375944,21.910830402657645,2.111374624687972,0.3441745191352057,A,547.7455999935046,Incorrect,sub_001_day_20_data.csv,0,300,186.0,Training at home,,,,,,,,,,,,,
1,20,4670,A,35.66000195148896,59.55265048493565,1.783000097574448,0.9354508463263722,A,1408.82439998677,Correct,sub_001_day_20_data.csv,1,300,186.0,Training at home,,,,,,,,,,,,,
1,20,4671,B,71.741491310545,51.47147706686003,3.5870745655272502,0.8085120711133149,A,1020.7820999785326,Incorrect,sub_001_day_20_data.csv,0,300,186.0,Training at home,,,,,,,,,,,,,
1,20,4672,B,61.43703722349126,34.41082958081364,3.071851861174563,0.5405240470750724,A,2158.442699990701,Incorrect,sub_001_day_20_data.csv,0,300,186.0,Training at home,,,,,,,,,,,,,
1,20,4673,B,48.32558994231624,19.559009970520304,2.416279497115812,0.3072322101743805,B,1376.488599984441,Correct,sub_001_day_20_data.csv,1,300,186.0,Training at home,,,,,,,,,,,,,
1,20,4674,A,49.038084651871536,55.86211413141655,2.4519042325935767,0.877480036846264,A,1932.378299999982,Correct,sub_001_day_20_data.csv,1,300,186.0,Training at home,,,,,,,,,,,,,
1,20,4675,B,74.60501631935186,61.925094517754744,3.730250815967594,0.9727171100491592,A,614.1089000157081,Incorrect,sub_001_day_20_data.csv,0,300,187.0,Training at home,,,,,,,,,,,,,
1,20,4676,A,32.03202017264107,61.59980909189229,1.6016010086320531,0.9676075385281128,A,2517.772199993487,Correct,sub_001_day_20_data.csv,1,300,187.0,Training at home,,,,,,,,,,,,,
1,20,4677,B,59.76264521925657,29.740869860931355,2.9881322609628285,0.4671684913323601,A,607.1776999742724,Incorrect,sub_001_day_20_data.csv,0,300,187.0,Training at home,,,,,,,,,,,,,
1,20,4678,B,69.95140389197412,46.238377131713165,3.497570194598706,0.7263107295545217,A,434.3843999668025,Incorrect,sub_001_day_20_data.csv,0,300,187.0,Training at home,,,,,,,,,,,,,
1,20,4679,A,52.922329233938626,80.83465415275496,2.6461164616969315,1.2697477782088331,A,606.9196999887936,Correct,sub_001_day_20_data.csv,1,300,187.0,Training at home,,,,,,,,,,,,,
1,20,4680,A,58.46732984784532,68.04097364158683,2.923366492392266,1.0687851146775296,A,878.4031000104733,Correct,sub_001_day_20_data.csv,1,300,187.0,Training at home,,,,,,,,,,,,,
1,20,4681,A,53.86774971782833,80.51518388213678,2.693387485891417,1.2647295509327612,A,917.9547000094316,Correct,sub_001_day_20_data.csv,1,300,187.0,Training at home,,,,,,,,,,,,,
1,20,4682,B,76.49109184584997,50.939668000669485,3.824554592292498,0.8001584338360316,A,869.1173999686725,Incorrect,sub_001_day_20_data.csv,0,300,187.0,Training at home,,,,,,,,,,,,,
1,20,4683,A,55.831915118617694,72.32422012790958,2.7915957559308846,1.1360661931522589,A,934.759700030554,Correct,sub_001_day_20_data.csv,1,300,187.0,Training at home,,,,,,,,,,,,,
1,20,4684,A,56.83857574783568,67.8180521521827,2.8419287873917836,1.0652834721103333,A,689.2392999725416,Correct,sub_001_day_20_data.csv,1,300,187.0,Training at home,,,,,,,,,,,,,
1,20,4685,A,37.97958605764125,49.344610408582874,1.8989793028820623,0.7751033277692719,B,641.2096000276506,Incorrect,sub_001_day_20_data.csv,0,300,187.0,Training at home,,,,,,,,,,,,,
1,20,4686,A,46.3234838491226,61.07600275119317,2.31617419245613,0.9593796077688924,A,395.5435000243597,Correct,sub_001_day_20_data.csv,1,300,187.0,Training at home,,,,,,,,,,,,,
1,20,4687,B,44.52488850533575,30.098577602987188,2.2262444252667875,0.4727873514052341,A,501.27639999846,Incorrect,sub_001_day_20_data.csv,0,300,187.0,Training at home,,,,,,,,,,,,,
1,20,4688,B,44.717717240505706,23.06596888451411,2.235885862025285,0.3623193919776014,B,494.8752000345849,Correct,sub_001_day_20_data.csv,1,300,187.0,Training at home,,,,,,,,,,,,,
1,20,4689,A,27.658312501343637,56.2339530280612,1.3829156250671817,0.883320868576353,A,3477.8358999756165,Correct,sub_001_day_20_data.csv,1,300,187.0,Training at home,,,,,,,,,,,,,
1,20,4690,B,59.441436469608334,49.13254205591623,2.972071823480417,0.7717721658752897,B,1368.7606999883428,Correct,sub_001_day_20_data.csv,1,300,187.0,Training at home,,,,,,,,,,,,,
1,20,4691,A,50.79784525495265,72.40269798543486,2.5398922627476326,1.1372989204556132,A,1342.8662000223994,Correct,sub_001_day_20_data.csv,1,300,187.0,Training at home,,,,,,,,,,,,,
1,20,4692,A,50.387384232980835,80.64528910523018,2.5193692116490416,1.2667732389980806,A,1151.9381999969482,Correct,sub_001_day_20_data.csv,1,300,187.0,Training at home,,,,,,,,,,,,,
1,20,4693,B,41.20234354797874,13.572090397135003,2.060117177398937,0.2131898974274794,B,6778.636000002734,Correct,sub_001_day_20_data.csv,1,300,187.0,Training at home,,,,,,,,,,,,,
1,20,4694,A,30.460242685847938,46.59543103991851,1.5230121342923968,0.7319193192292891,A,1893.8120000530032,Correct,sub_001_day_20_data.csv,1,300,187.0,Training at home,,,,,,,,,,,,,
1,20,4695,B,73.95579885715135,43.05440288227301,3.697789942857568,0.6762969789982205,B,1887.1717999572863,Correct,sub_001_day_20_data.csv,1,300,187.0,Training at home,,,,,,,,,,,,,
1,20,4696,B,75.5927285246749,53.43085624920696,3.7796364262337447,0.8392899273376043,A,495.63299998408183,Incorrect,sub_001_day_20_data.csv,0,300,187.0,Training at home,,,,,,,,,,,,,
1,20,4697,A,13.457305141544378,40.01396681642085,0.6728652570772189,0.6285379209572675,A,632.0037000114098,Correct,sub_001_day_20_data.csv,1,300,187.0,Training at home,,,,,,,,,,,,,
1,20,4698,B,56.31660889523373,41.43196848227595,2.815830444761686,0.6508118390384098,B,6179.299500014167,Correct,sub_001_day_20_data.csv,1,300,187.0,Training at home,,,,,,,,,,,,,
1,20,4699,A,22.46443840101055,33.759079156665265,1.1232219200505278,0.5302863753526795,B,1411.1552000395022,Incorrect,sub_001_day_20_data.csv,0,300,187.0,Training at home,,,,,,,,,,,,,
1,20,4700,B,45.9404105321737,26.63560837333138,2.297020526608685,0.4183911579477632,B,2028.909399989061,Correct,sub_001_day_20_data.csv,1,300,188.0,Training at home,,,,,,,,,,,,,
1,20,4701,B,75.35462920951402,46.82651833616137,3.767731460475701,0.7355492299903617,B,797.526900016237,Correct,sub_001_day_20_data.csv,1,300,188.0,Training at home,,,,,,,,,,,,,
1,20,4702,A,20.02180280844187,32.4939608734706,1.001090140422093,0.510413943830647,B,1983.6281999596397,Incorrect,sub_001_day_20_data.csv,0,300,188.0,Training at home,,,,,,,,,,,,,
1,20,4703,A,34.7721973579132,56.81519132387712,1.73860986789566,0.8924509383769547,A,1112.3997999820858,Correct,sub_001_day_20_data.csv,1,300,188.0,Training at home,,,,,,,,,,,,,
1,20,4704,A,30.66785694504775,60.941357889618025,1.5333928472523874,0.9572646112290518,A,507.8963999985717,Correct,sub_001_day_20_data.csv,1,300,188.0,Training at home,,,,,,,,,,,,,
1,20,4705,B,50.095850237625925,40.88120217489646,2.5047925118812966,0.642160422112869,B,450.0457000103779,Correct,sub_001_day_20_data.csv,1,300,188.0,Training at home,,,,,,,,,,,,,
1,20,4706,A,58.528577216922955,83.39841282668641,2.9264288608461477,1.3100192052868338,A,656.4332999987528,Correct,sub_001_day_20_data.csv,1,300,188.0,Training at home,,,,,,,,,,,,,
1,20,4707,A,65.1044224520399,81.14379555142975,3.255221122601995,1.2746037599438191,A,550.6028000381775,Correct,sub_001_day_20_data.csv,1,300,188.0,Training at home,,,,,,,,,,,,,
1,20,4708,A,54.850678840947765,70.70862942226519,2.742533942047388,1.110688553691957,A,386.06809999328107,Correct,sub_001_day_20_data.csv,1,300,188.0,Training at home,,,,,,,,,,,,,
1,20,4709,B,77.74494446612145,49.468776598134184,3.8872472233060726,0.7770537257138651,A,624.4475999847054,Incorrect,sub_001_day_20_data.csv,0,300,188.0,Training at home,,,,,,,,,,,,,
1,20,4710,B,49.17985075369401,20.47276718592298,2.4589925376847006,0.321585474949749,B,857.7175000100397,Correct,sub_001_day_20_data.csv,1,300,188.0,Training at home,,,,,,,,,,,,,
1,20,4711,B,46.996742246645134,30.820764457079896,2.349837112332257,0.484131435981918,B,2311.2826000433415,Correct,sub_001_day_20_data.csv,1,300,188.0,Training at home,,,,,,,,,,,,,
1,20,4712,A,11.661618967507652,37.55032323057809,0.5830809483753826,0.5898390980055314,A,593.2134999893606,Correct,sub_001_day_20_data.csv,1,300,188.0,Training at home,,,,,,,,,,,,,
1,20,4713,A,32.178841870799964,47.24659739796351,1.6089420935399985,0.742147816462784,A,3004.369599977508,Correct,sub_001_day_20_data.csv,1,300,188.0,Training at home,,,,,,,,,,,,,
1,20,4714,B,77.64337961406208,64.25249598907095,3.882168980703105,1.0092758468703649,A,1333.9811000041664,Incorrect,sub_001_day_20_data.csv,0,300,188.0,Training at home,,,,,,,,,,,,,
1,20,4715,B,53.90181369866306,40.18801785997282,2.6950906849331533,0.6312719083561299,B,849.2375999921933,Correct,sub_001_day_20_data.csv,1,300,188.0,Training at home,,,,,,,,,,,,,
1,20,4716,B,77.40927890341004,62.77776494923858,3.870463945170502,0.9861108258665736,A,1845.540899957996,Incorrect,sub_001_day_20_data.csv,0,300,188.0,Training at home,,,,,,,,,,,,,
1,20,4717,A,27.442155725772167,38.74163572146294,1.3721077862886084,0.6085521908529994,A,553.4890000126325,Correct,sub_001_day_20_data.csv,1,300,188.0,Training at home,,,,,,,,,,,,,
1,20,4718,A,28.854945165228415,56.73311795658488,1.4427472582614207,0.8911617329382512,A,664.6323000313714,Correct,sub_001_day_20_data.csv,1,300,188.0,Training at home,,,,,,,,,,,,,
1,20,4719,A,55.10530068824783,69.21092620326152,2.7552650344123912,1.087162686541559,A,516.8533999822102,Correct,sub_001_day_20_data.csv,1,300,188.0,Training at home,,,,,,,,,,,,,
1,20,4720,B,74.51494559797653,44.58408889234947,3.7257472798988265,0.7003252306559969,A,379.6132999705151,Incorrect,sub_001_day_20_data.csv,0,300,188.0,Training at home,,,,,,,,,,,,,
1,20,4721,B,48.42224591789302,21.473405849119533,2.421112295894651,0.33730347031573,B,766.1806999822147,Correct,sub_001_day_20_data.csv,1,300,188.0,Training at home,,,,,,,,,,,,,
1,20,4722,B,33.323623822012266,11.933262534000749,1.6661811911006137,0.1874472495508753,A,1202.5254999753088,Incorrect,sub_001_day_20_data.csv,0,300,188.0,Training at home,,,,,,,,,,,,,
1,20,4723,B,45.44440558632188,16.181872719187506,2.2722202793160937,0.2541842622796228,B,14961.337300017476,Correct,sub_001_day_20_data.csv,1,300,188.0,Training at home,,,,,,,,,,,,,
1,20,4724,A,24.598545081383257,36.21970993694778,1.229927254069163,0.568937873265342,A,961.5297999698668,Correct,sub_001_day_20_data.csv,1,300,188.0,Training at home,,,,,,,,,,,,,
1,20,4725,A,37.40378458940744,54.25751016301755,1.870189229470372,0.8522749766510473,B,1014.7111000260338,Incorrect,sub_001_day_20_data.csv,0,300,189.0,Training at home,,,,,,,,,,,,,
1,20,4726,B,75.0877784706548,61.89623702581285,3.75438892353274,0.972263817625731,B,1159.631399961654,Correct,sub_001_day_20_data.csv,1,300,189.0,Training at home,,,,,,,,,,,,,
1,20,4727,B,83.28738562419665,55.08000568808805,4.164369281209832,0.8651947061469072,A,924.0569000248796,Incorrect,sub_001_day_20_data.csv,0,300,189.0,Training at home,,,,,,,,,,,,,
1,20,4728,B,59.1904728747899,34.122860829208,2.959523643739495,0.5360006445025339,B,3259.5832999795675,Correct,sub_001_day_20_data.csv,1,300,189.0,Training at home,,,,,,,,,,,,,
1,20,4729,A,58.72949084882569,70.3791410044825,2.9364745424412844,1.1055129617282122,A,1160.3139999788254,Correct,sub_001_day_20_data.csv,1,300,189.0,Training at home,,,,,,,,,,,,,
1,20,4730,B,85.2377508069912,64.60668835066669,4.2618875403495595,1.0148394874760986,A,583.5039999801666,Incorrect,sub_001_day_20_data.csv,0,300,189.0,Training at home,,,,,,,,,,,,,
1,20,4731,A,31.669150283804218,57.08376602663686,1.5834575141902107,0.8966696999426048,A,612.7119000302628,Correct,sub_001_day_20_data.csv,1,300,189.0,Training at home,,,,,,,,,,,,,
1,20,4732,A,46.92191623474656,68.29747843771476,2.346095811737328,1.07281428259316,A,939.3083000322804,Correct,sub_001_day_20_data.csv,1,300,189.0,Training at home,,,,,,,,,,,,,
1,20,4733,A,26.11416031250034,53.663491017100974,1.305708015625017,0.8429441457265314,A,399.49159999378026,Correct,sub_001_day_20_data.csv,1,300,189.0,Training at home,,,,,,,,,,,,,
1,20,4734,A,40.66534287369343,70.31847855481048,2.0332671436846717,1.1045600781970202,A,505.1618000143208,Correct,sub_001_day_20_data.csv,1,300,189.0,Training at home,,,,,,,,,,,,,
1,20,4735,A,45.18929382097772,63.4408938364701,2.259464691048886,0.9965272300691222,B,4623.6874999594875,Incorrect,sub_001_day_20_data.csv,0,300,189.0,Training at home,,,,,,,,,,,,,
1,20,4736,B,75.898086304454,59.28094433552049,3.7949043152227,0.931182896111683,B,3703.478100011125,Correct,sub_001_day_20_data.csv,1,300,189.0,Training at home,,,,,,,,,,,,,
1,20,4737,A,20.25782830622013,41.90450378598631,1.0128914153110065,0.6582344062319013,A,5923.671500000637,Correct,sub_001_day_20_data.csv,1,300,189.0,Training at home,,,,,,,,,,,,,
1,20,4738,A,26.106739288208843,47.814141664444584,1.3053369644104422,0.7510627809536037,A,3378.134800004773,Correct,sub_001_day_20_data.csv,1,300,189.0,Training at home,,,,,,,,,,,,,
1,20,4739,A,62.03780916436341,88.08615872600768,3.1018904582181706,1.3836541456828508,B,567.305899981875,Incorrect,sub_001_day_20_data.csv,0,300,189.0,Training at home,,,,,,,,,,,,,
1,20,4740,B,45.503500053591374,24.252716903542684,2.275175002679569,0.3809607862688134,B,523.6122999922372,Correct,sub_001_day_20_data.csv,1,300,189.0,Training at home,,,,,,,,,,,,,
1,20,4741,B,43.65210049410149,23.401912440935508,2.1826050247050746,0.3675963810219729,A,804.7092000488192,Incorrect,sub_001_day_20_data.csv,0,300,189.0,Training at home,,,,,,,,,,,,,
1,20,4742,A,30.5736193258223,46.511879955365195,1.5286809662911152,0.7306069018621282,A,949.3433000170626,Correct,sub_001_day_20_data.csv,1,300,189.0,Training at home,,,,,,,,,,,,,
1,20,4743,A,46.07070795125856,75.25803261911356,2.303535397562928,1.1821504119991408,A,1027.0518000470474,Correct,sub_001_day_20_data.csv,1,300,189.0,Training at home,,,,,,,,,,,,,
1,20,4744,A,42.42524891052947,67.99366738088557,2.1212624455264733,1.0680420296720905,A,750.9261000086553,Correct,sub_001_day_20_data.csv,1,300,189.0,Training at home,,,,,,,,,,,,,
1,20,4745,A,67.64319533223073,86.34399994038941,3.3821597666115366,1.3562883794714244,A,978.6186999990604,Correct,sub_001_day_20_data.csv,1,300,189.0,Training at home,,,,,,,,,,,,,
1,20,4746,A,55.25922029720472,69.93076549313686,2.762961014860236,1.098469895665747,A,968.246000004001,Correct,sub_001_day_20_data.csv,1,300,189.0,Training at home,,,,,,,,,,,,,
1,20,4747,B,48.590965750032424,22.045750191160952,2.429548287501621,0.3462938342171351,B,637.8769000293687,Correct,sub_001_day_20_data.csv,1,300,189.0,Training at home,,,,,,,,,,,,,
1,20,4748,A,60.567144380629664,70.84821905340976,3.0283572190314834,1.1128812224905626,A,529.2371000396088,Correct,sub_001_day_20_data.csv,1,300,189.0,Training at home,,,,,,,,,,,,,
1,20,4749,A,22.437406553858107,42.40613557439812,1.1218703276929054,0.6661140199383095,A,922.1223999629728,Correct,sub_001_day_20_data.csv,1,300,189.0,Training at home,,,,,,,,,,,,,
1,20,4750,B,40.19442592645292,31.634972641011665,2.0097212963226463,0.4969209882275817,B,3361.2398999975994,Correct,sub_001_day_20_data.csv,1,300,190.0,Training at home,,,,,,,,,,,,,
1,20,4751,A,10.665124180246703,34.857187017803525,0.5332562090123352,0.5475354132996854,A,656.284200027585,Correct,sub_001_day_20_data.csv,1,300,190.0,Training at home,,,,,,,,,,,,,
1,20,4752,A,44.67014531635077,54.69047530928832,2.2335072658175386,0.8590759772649708,A,635.0613000104204,Correct,sub_001_day_20_data.csv,1,300,190.0,Training at home,,,,,,,,,,,,,
1,20,4753,B,67.37970369559054,43.335377043072576,3.3689851847795267,0.6807105107953028,B,1175.3879000316374,Correct,sub_001_day_20_data.csv,1,300,190.0,Training at home,,,,,,,,,,,,,
1,20,4754,B,72.00049924195235,45.96853062324477,3.600024962097618,0.7220719905115159,B,4087.8701000474393,Correct,sub_001_day_20_data.csv,1,300,190.0,Training at home,,,,,,,,,,,,,
1,20,4755,B,48.97815922402606,32.48194854889026,2.4489079612013027,0.5102252546773763,B,793.1518999976106,Correct,sub_001_day_20_data.csv,1,300,190.0,Training at home,,,,,,,,,,,,,
1,20,4756,A,48.8718484393287,79.26181821108916,2.443592421966435,1.245041729010637,A,1824.7933000093328,Correct,sub_001_day_20_data.csv,1,300,190.0,Training at home,,,,,,,,,,,,,
1,20,4757,B,53.50932244598691,40.968616659899226,2.675466122299346,0.6435335256323792,A,11949.35130001977,Incorrect,sub_001_day_20_data.csv,0,300,190.0,Training at home,,,,,,,,,,,,,
1,20,4758,A,31.161453816926414,49.74294040397505,1.5580726908463207,0.7813602807054146,B,6693.505899980664,Incorrect,sub_001_day_20_data.csv,0,300,190.0,Training at home,,,,,,,,,,,,,
1,20,4759,A,22.896196806804312,44.690291821075846,1.1448098403402156,0.7019934623593795,B,1013.0253999959676,Incorrect,sub_001_day_20_data.csv,0,300,190.0,Training at home,,,,,,,,,,,,,
1,20,4760,A,49.73739764126175,65.40223420597202,2.4868698820630875,1.027335892549204,A,661.6615999955684,Correct,sub_001_day_20_data.csv,1,300,190.0,Training at home,,,,,,,,,,,,,
1,20,4761,B,51.397956689738066,43.51147073172242,2.5698978344869032,0.6834765839883322,A,751.4985000016168,Incorrect,sub_001_day_20_data.csv,0,300,190.0,Training at home,,,,,,,,,,,,,
1,20,4762,B,85.57139813768285,67.15147911948559,4.278569906884143,1.0548129673973214,B,687.2068999800831,Correct,sub_001_day_20_data.csv,1,300,190.0,Training at home,,,,,,,,,,,,,
1,20,4763,A,30.538953439374804,59.98759709430931,1.52694767196874,0.9422829716899328,A,850.9787000366487,Correct,sub_001_day_20_data.csv,1,300,190.0,Training at home,,,,,,,,,,,,,
1,20,4764,A,13.928758377631386,34.98969826491684,0.6964379188815693,0.5496168951019313,A,553.511600010097,Correct,sub_001_day_20_data.csv,1,300,190.0,Training at home,,,,,,,,,,,,,
1,20,4765,B,78.21657129980083,49.248741436775745,3.9108285649900414,0.7735974214815897,A,525.2366999629885,Incorrect,sub_001_day_20_data.csv,0,300,190.0,Training at home,,,,,,,,,,,,,
1,20,4766,A,46.38554710619105,69.68139346637177,2.3192773553095525,1.094552769029267,A,531.0793000389822,Correct,sub_001_day_20_data.csv,1,300,190.0,Training at home,,,,,,,,,,,,,
1,20,4767,B,71.82953211959585,47.8196595560299,3.5914766059797927,0.7511494557919425,B,697.6417999831028,Correct,sub_001_day_20_data.csv,1,300,190.0,Training at home,,,,,,,,,,,,,
1,20,4768,A,31.414935375434673,47.5352410505738,1.5707467687717338,0.7466818203555131,A,1674.7170999879015,Correct,sub_001_day_20_data.csv,1,300,190.0,Training at home,,,,,,,,,,,,,
1,20,4769,B,60.98849129027756,48.88643941030036,3.049424564513878,0.7679063945578107,B,1654.588799981866,Correct,sub_001_day_20_data.csv,1,300,190.0,Training at home,,,,,,,,,,,,,
1,20,4770,B,62.66981034682392,40.977524993265824,3.133490517341196,0.6436734574056803,A,1169.6349999983795,Incorrect,sub_001_day_20_data.csv,0,300,190.0,Training at home,,,,,,,,,,,,,
1,20,4771,B,68.74137116585115,44.30160611523223,3.4370685582925575,0.6958880015692112,B,604.2656999779865,Correct,sub_001_day_20_data.csv,1,300,190.0,Training at home,,,,,,,,,,,,,
1,20,4772,A,31.08100486087278,44.88619516536162,1.5540502430436391,0.7050707048954887,B,3156.6413000109605,Incorrect,sub_001_day_20_data.csv,0,300,190.0,Training at home,,,,,,,,,,,,,
1,20,4773,B,33.735038850742136,17.20971233061364,1.686751942537107,0.2703295291412474,A,1362.3218999709934,Incorrect,sub_001_day_20_data.csv,0,300,190.0,Training at home,,,,,,,,,,,,,
1,20,4774,A,51.66585314476906,63.096631534951,2.583292657238453,0.9911195704823206,A,483.49870002130046,Correct,sub_001_day_20_data.csv,1,300,190.0,Training at home,,,,,,,,,,,,,
1,20,4775,B,78.29250179830187,50.90223982456508,3.9146250899150936,0.799570513420597,B,643.4825999895111,Correct,sub_001_day_20_data.csv,1,300,191.0,Training at home,,,,,,,,,,,,,
1,20,4776,A,20.88763806149881,40.327727573995446,1.0443819030749404,0.633466463412173,B,1115.0901000364684,Incorrect,sub_001_day_20_data.csv,0,300,191.0,Training at home,,,,,,,,,,,,,
1,20,4777,B,65.8244318093688,45.70329993780757,3.29122159046844,0.7179057566471355,B,522.0711999572814,Correct,sub_001_day_20_data.csv,1,300,191.0,Training at home,,,,,,,,,,,,,
1,20,4778,A,30.230897255573822,56.4464736547449,1.5115448627786912,0.8866591347739818,B,882.0455000386573,Incorrect,sub_001_day_20_data.csv,0,300,191.0,Training at home,,,,,,,,,,,,,
1,20,4779,B,54.251395826012654,45.32686352619639,2.7125697913006324,0.7119927073208286,A,540.9670999506488,Incorrect,sub_001_day_20_data.csv,0,300,191.0,Training at home,,,,,,,,,,,,,
1,20,4780,B,72.27126636138205,49.25278048291678,3.6135633180691022,0.7736608666700105,B,496.3813999784179,Correct,sub_001_day_20_data.csv,1,300,191.0,Training at home,,,,,,,,,,,,,
1,20,4781,A,21.717244505097025,34.91989417872604,1.085862225254851,0.5485204150800935,A,638.2067000376992,Correct,sub_001_day_20_data.csv,1,300,191.0,Training at home,,,,,,,,,,,,,
1,20,4782,A,53.975160587529146,79.19139594319188,2.6987580293764575,1.243935538613261,A,743.296200002078,Correct,sub_001_day_20_data.csv,1,300,191.0,Training at home,,,,,,,,,,,,,
1,20,4783,A,67.36148541793418,89.74584969301651,3.368074270896709,1.4097245104287723,A,278.46150001278147,Correct,sub_001_day_20_data.csv,1,300,191.0,Training at home,,,,,,,,,,,,,
1,20,4784,A,40.21623198749274,60.191802874107395,2.010811599374637,0.9454906285781038,B,1436.7766000214033,Incorrect,sub_001_day_20_data.csv,0,300,191.0,Training at home,,,,,,,,,,,,,
1,20,4785,B,74.9513697076163,56.844224038544155,3.747568485380815,0.8929069831925132,B,466.7473000008613,Correct,sub_001_day_20_data.csv,1,300,191.0,Training at home,,,,,,,,,,,,,
1,20,4786,B,66.0523845720064,46.4632654605977,3.3026192286003204,0.7298432671640304,B,844.0207000239752,Correct,sub_001_day_20_data.csv,1,300,191.0,Training at home,,,,,,,,,,,,,
1,20,4787,A,12.074076084133193,32.142618039962315,0.6037038042066597,0.5048950635074418,A,1649.9431000556797,Correct,sub_001_day_20_data.csv,1,300,191.0,Training at home,,,,,,,,,,,,,
1,20,4788,B,43.70288656513826,21.202909031004072,2.185144328256913,0.3330545162326753,A,2066.3521999958903,Incorrect,sub_001_day_20_data.csv,0,300,191.0,Training at home,,,,,,,,,,,,,
1,20,4789,B,79.77005699968299,60.23405345012765,3.9885028499841497,0.9461542990742796,A,483.7835000362247,Incorrect,sub_001_day_20_data.csv,0,300,191.0,Training at home,,,,,,,,,,,,,
1,20,4790,B,63.56901089656478,42.89145923863402,3.178450544828239,0.6737374662291935,B,637.4579000403173,Correct,sub_001_day_20_data.csv,1,300,191.0,Training at home,,,,,,,,,,,,,
1,20,4791,B,39.730652427776064,29.478449076771103,1.9865326213888033,0.4630463952940246,B,819.6609999868087,Correct,sub_001_day_20_data.csv,1,300,191.0,Training at home,,,,,,,,,,,,,
1,20,4792,B,38.41053299934146,27.520223040161227,1.920526649967073,0.4322866526406153,B,614.2630000249483,Correct,sub_001_day_20_data.csv,1,300,191.0,Training at home,,,,,,,,,,,,,
1,20,4793,A,37.30658885703396,50.890199894628864,1.8653294428516976,0.7993813906434105,B,686.904100002721,Incorrect,sub_001_day_20_data.csv,0,300,191.0,Training at home,,,,,,,,,,,,,
1,20,4794,B,68.99855218693766,59.39845805032867,3.449927609346883,0.9330287972273704,A,973.831599985715,Incorrect,sub_001_day_20_data.csv,0,300,191.0,Training at home,,,,,,,,,,,,,
1,20,4795,A,56.60396045543553,72.51366124080447,2.830198022771776,1.1390419271950512,A,1833.609899971634,Correct,sub_001_day_20_data.csv,1,300,191.0,Training at home,,,,,,,,,,,,,
1,20,4796,A,55.14522365714039,73.59998470084122,2.7572611828570195,1.1561058562024198,A,709.8695999593474,Correct,sub_001_day_20_data.csv,1,300,191.0,Training at home,,,,,,,,,,,,,
1,20,4797,A,24.75089573018458,43.24784490626775,1.237544786509229,0.6793355592056076,A,1447.5975999957882,Correct,sub_001_day_20_data.csv,1,300,191.0,Training at home,,,,,,,,,,,,,
1,20,4798,A,56.93926694654766,65.8731647250294,2.846963347327383,1.0347332518443133,B,315.9684999845922,Incorrect,sub_001_day_20_data.csv,0,300,191.0,Training at home,,,,,,,,,,,,,
1,20,4799,B,62.74135249293937,47.53932730697154,3.1370676246469684,0.7467460071209122,B,36834.56180000212,Correct,sub_001_day_20_data.csv,1,300,191.0,Training at home,,,,,,,,,,,,,
