subject,day,trial,cat,x,y,xt,yt,resp,rt,fb,f_name,acc,n_trials,block,session_type,ns_left_digit,ns_right_digit,ns_left_size,ns_right_size,ns_congruent,ns_cue,ns_correct_side,ns_resp,ns_rt,ns_fb,acc_stroop,acc_stroop_mean,resp_key
1,4,600,A,53.63736733463509,63.78352150059538,2.6818683667317544,1.0019092128317852,A,1473.6307002604008,Correct,sub_001_day_04_data.csv,1,300,24.0,Training at home,,,,,,,,,,,,,
1,4,601,B,40.260056158346,14.706162738114196,2.0130028079173,0.2310038641027775,B,679.417900275439,Correct,sub_001_day_04_data.csv,1,300,24.0,Training at home,,,,,,,,,,,,,
1,4,602,A,49.146692489710134,64.40915505823821,2.4573346244855063,1.0117366417744351,A,481.87619959935546,Correct,sub_001_day_04_data.csv,1,300,24.0,Training at home,,,,,,,,,,,,,
1,4,603,A,31.228653600954132,60.03957271683775,1.5614326800477067,0.9430994028594384,A,2100.794999860227,Correct,sub_001_day_04_data.csv,1,300,24.0,Training at home,,,,,,,,,,,,,
1,4,604,B,46.83960806844422,39.0625867833924,2.341980403422211,0.6135936783445964,B,817.9631000384688,Correct,sub_001_day_04_data.csv,1,300,24.0,Training at home,,,,,,,,,,,,,
1,4,605,A,52.983409220308104,82.59250796468703,2.649170461015405,1.2973600813170862,A,547.3404000513256,Correct,sub_001_day_04_data.csv,1,300,24.0,Training at home,,,,,,,,,,,,,
1,4,606,A,36.80393484874478,60.35663381500439,1.840196742437239,0.9480797869431354,A,662.6485995948315,Correct,sub_001_day_04_data.csv,1,300,24.0,Training at home,,,,,,,,,,,,,
1,4,607,B,38.9758868649384,13.029278747896434,1.9487943432469197,0.2046634319798253,B,941.6852998547256,Correct,sub_001_day_04_data.csv,1,300,24.0,Training at home,,,,,,,,,,,,,
1,4,608,A,31.473505651373284,56.561838837676106,1.5736752825686642,0.8884712868298654,A,711.9864001870155,Correct,sub_001_day_04_data.csv,1,300,24.0,Training at home,,,,,,,,,,,,,
1,4,609,B,38.286120622864736,26.102493610484693,1.9143060311432367,0.4100170108353662,B,714.833699632436,Correct,sub_001_day_04_data.csv,1,300,24.0,Training at home,,,,,,,,,,,,,
1,4,610,A,51.87890434414356,71.01401394163892,2.5939452172071777,1.11548552250488,A,633.5253999568522,Correct,sub_001_day_04_data.csv,1,300,24.0,Training at home,,,,,,,,,,,,,
1,4,611,A,41.488176553729424,72.45822456866597,2.0744088276864714,1.1381711299854025,B,813.7936000712216,Incorrect,sub_001_day_04_data.csv,0,300,24.0,Training at home,,,,,,,,,,,,,
1,4,612,B,38.48880715903401,12.896872551777552,1.9244403579517009,0.202583600314741,B,412.0263000950217,Correct,sub_001_day_04_data.csv,1,300,24.0,Training at home,,,,,,,,,,,,,
1,4,613,B,68.46370642938352,46.440785337235624,3.4231853214691763,0.729490150212,A,2442.4072997644544,Incorrect,sub_001_day_04_data.csv,0,300,24.0,Training at home,,,,,,,,,,,,,
1,4,614,A,44.89655149337576,63.24364661371812,2.244827574668788,0.9934288779394292,A,322.5286998786032,Correct,sub_001_day_04_data.csv,1,300,24.0,Training at home,,,,,,,,,,,,,
1,4,615,A,33.316693629360344,61.820871244322525,1.6658346814680172,0.9710799746984206,A,621.7698999680579,Correct,sub_001_day_04_data.csv,1,300,24.0,Training at home,,,,,,,,,,,,,
1,4,616,B,59.37452961588396,46.235152734248054,2.9687264807941975,0.7262600808375785,B,661.1104002222419,Correct,sub_001_day_04_data.csv,1,300,24.0,Training at home,,,,,,,,,,,,,
1,4,617,A,45.87383031862344,77.57812063855496,2.293691515931172,1.218594269386935,A,744.0545000135899,Correct,sub_001_day_04_data.csv,1,300,24.0,Training at home,,,,,,,,,,,,,
1,4,618,A,36.60392644750505,52.8706827184086,1.8301963223752529,0.8304907420921465,B,776.3211997225881,Incorrect,sub_001_day_04_data.csv,0,300,24.0,Training at home,,,,,,,,,,,,,
1,4,619,A,57.44124147175235,78.75208816059052,2.8720620735876174,1.2370349081008345,A,128.68699990212917,Correct,sub_001_day_04_data.csv,1,300,24.0,Training at home,,,,,,,,,,,,,
1,4,620,A,41.510090265687545,70.98565961395673,2.0755045132843772,1.1150401337671605,B,1036.67620010674,Incorrect,sub_001_day_04_data.csv,0,300,24.0,Training at home,,,,,,,,,,,,,
1,4,621,A,32.55126228475922,65.5842806380673,1.627563114237961,1.0301954712176178,A,760.1910000666976,Correct,sub_001_day_04_data.csv,1,300,24.0,Training at home,,,,,,,,,,,,,
1,4,622,B,59.55557061049601,45.77534917325137,2.9777785305248003,0.7190375033909706,B,1195.7549997605383,Correct,sub_001_day_04_data.csv,1,300,24.0,Training at home,,,,,,,,,,,,,
1,4,623,B,82.84874938897913,62.864711539394634,4.142437469448956,0.9874765797110184,B,603.8354998454452,Correct,sub_001_day_04_data.csv,1,300,24.0,Training at home,,,,,,,,,,,,,
1,4,624,A,11.978353525423636,35.50803857376409,0.5989176762711818,0.5577589656336013,A,640.4106998816133,Correct,sub_001_day_04_data.csv,1,300,24.0,Training at home,,,,,,,,,,,,,
1,4,625,A,31.94787573281492,63.67598359948275,1.597393786640746,1.000220011431196,B,1068.565099965781,Incorrect,sub_001_day_04_data.csv,0,300,25.0,Training at home,,,,,,,,,,,,,
1,4,626,B,65.1704079618892,36.76113950054584,3.2585203980944595,0.5774426289625219,B,731.0171001590788,Correct,sub_001_day_04_data.csv,1,300,25.0,Training at home,,,,,,,,,,,,,
1,4,627,A,46.77422061241618,67.79923783277951,2.338711030620809,1.0649879374722364,B,1749.3301001377404,Incorrect,sub_001_day_04_data.csv,0,300,25.0,Training at home,,,,,,,,,,,,,
1,4,628,A,33.373171684759484,49.264500919706855,1.6686585842379742,0.7738449708605933,B,938.7248996645212,Incorrect,sub_001_day_04_data.csv,0,300,25.0,Training at home,,,,,,,,,,,,,
1,4,629,A,38.94612897732207,57.569136268334454,1.9473064488661036,0.9042938778705464,A,571.0891000926495,Correct,sub_001_day_04_data.csv,1,300,25.0,Training at home,,,,,,,,,,,,,
1,4,630,B,52.852466896779234,32.813375402003636,2.6426233448389613,0.5154312955120933,A,1236.953699961305,Incorrect,sub_001_day_04_data.csv,0,300,25.0,Training at home,,,,,,,,,,,,,
1,4,631,B,72.09513310237602,44.22850537282605,3.6047566551188015,0.694739737792635,B,1020.4404001124204,Correct,sub_001_day_04_data.csv,1,300,25.0,Training at home,,,,,,,,,,,,,
1,4,632,B,76.31364851202669,65.17275070871403,3.8156824256013344,1.023731174203675,B,585.4807998985052,Correct,sub_001_day_04_data.csv,1,300,25.0,Training at home,,,,,,,,,,,,,
1,4,633,B,75.26238127656289,47.936352273270714,3.7631190638281447,0.7529824607079983,A,819.1564995795488,Incorrect,sub_001_day_04_data.csv,0,300,25.0,Training at home,,,,,,,,,,,,,
1,4,634,B,67.09437049436671,52.95342924183815,3.354718524718336,0.8317905214427282,B,7273.660600185394,Correct,sub_001_day_04_data.csv,1,300,25.0,Training at home,,,,,,,,,,,,,
1,4,635,B,86.28785980710295,60.84419751222352,4.314392990355148,0.9557384195898389,B,499.8527998104691,Correct,sub_001_day_04_data.csv,1,300,25.0,Training at home,,,,,,,,,,,,,
1,4,636,B,50.14090688602395,30.61953026569376,2.5070453443011975,0.4809704566953692,B,881.8760998547077,Correct,sub_001_day_04_data.csv,1,300,25.0,Training at home,,,,,,,,,,,,,
1,4,637,B,75.6484958613544,45.32416315185498,3.78242479306772,0.7119502899398641,B,929.5288999564946,Correct,sub_001_day_04_data.csv,1,300,25.0,Training at home,,,,,,,,,,,,,
1,4,638,B,71.06364018879226,61.013494842074714,3.553182009439613,0.9583977358285032,B,620.8270997740328,Correct,sub_001_day_04_data.csv,1,300,25.0,Training at home,,,,,,,,,,,,,
1,4,639,B,41.14062965261088,28.49150780741995,2.057031482630544,0.4475435580874337,A,2838.251399807632,Incorrect,sub_001_day_04_data.csv,0,300,25.0,Training at home,,,,,,,,,,,,,
1,4,640,B,79.34913058932507,58.87971742173565,3.9674565294662534,0.9248804384878384,B,566.3880002684891,Correct,sub_001_day_04_data.csv,1,300,25.0,Training at home,,,,,,,,,,,,,
1,4,641,B,46.924905515010366,31.18733022645864,2.3462452757505186,0.4898894376226068,B,515.7214999198914,Correct,sub_001_day_04_data.csv,1,300,25.0,Training at home,,,,,,,,,,,,,
1,4,642,B,55.41931666908934,42.94754681056979,2.7709658334544667,0.6746184877489491,B,1364.8307998664675,Correct,sub_001_day_04_data.csv,1,300,25.0,Training at home,,,,,,,,,,,,,
1,4,643,B,62.30921809623379,31.91831672162635,3.1154609048116897,0.501371746638068,B,654.7757997177541,Correct,sub_001_day_04_data.csv,1,300,25.0,Training at home,,,,,,,,,,,,,
1,4,644,B,80.18280445930083,53.62419202997664,4.0091402229650415,0.8423268386803148,B,771.0140999406576,Correct,sub_001_day_04_data.csv,1,300,25.0,Training at home,,,,,,,,,,,,,
1,4,645,A,35.06290432720043,65.57882450109229,1.7531452163600216,1.030109766418429,A,2043.1463001295924,Correct,sub_001_day_04_data.csv,1,300,25.0,Training at home,,,,,,,,,,,,,
1,4,646,A,53.550490026441416,70.87288547172321,2.6775245013220705,1.113268681683382,A,1810.6933999806645,Correct,sub_001_day_04_data.csv,1,300,25.0,Training at home,,,,,,,,,,,,,
1,4,647,B,34.38648886623578,10.263580453349189,1.719324443311789,0.161219944758848,B,763.6670996434987,Correct,sub_001_day_04_data.csv,1,300,25.0,Training at home,,,,,,,,,,,,,
1,4,648,B,65.806876389344,45.306301750032105,3.2903438194672,0.7116697236961161,B,636.1715001985431,Correct,sub_001_day_04_data.csv,1,300,25.0,Training at home,,,,,,,,,,,,,
1,4,649,A,36.64668753901837,52.10177143976845,1.8323343769509188,0.8184127119709552,B,619.3174999207258,Incorrect,sub_001_day_04_data.csv,0,300,25.0,Training at home,,,,,,,,,,,,,
1,4,650,B,70.78964188668766,50.324667518782014,3.539482094334383,0.7904980288567723,B,564.7621001116931,Correct,sub_001_day_04_data.csv,1,300,26.0,Training at home,,,,,,,,,,,,,
1,4,651,B,72.71482659313864,51.2590345940493,3.635741329656932,0.8051750325538516,B,432.91720002889633,Correct,sub_001_day_04_data.csv,1,300,26.0,Training at home,,,,,,,,,,,,,
1,4,652,B,69.12707662303791,58.46434094300916,3.4563538311518953,0.9183557200176328,B,578.005800023675,Correct,sub_001_day_04_data.csv,1,300,26.0,Training at home,,,,,,,,,,,,,
1,4,653,A,43.19357063825011,69.46397223822136,2.159678531912505,1.0911375243638075,A,541.8865000829101,Correct,sub_001_day_04_data.csv,1,300,26.0,Training at home,,,,,,,,,,,,,
1,4,654,B,43.79753676433821,24.655071852862555,2.1898768382169105,0.3872809630334075,B,763.8985002413392,Correct,sub_001_day_04_data.csv,1,300,26.0,Training at home,,,,,,,,,,,,,
1,4,655,B,73.15569802847058,51.43334516277877,3.657784901423529,0.8079130965646695,A,944.3035000003874,Incorrect,sub_001_day_04_data.csv,0,300,26.0,Training at home,,,,,,,,,,,,,
1,4,656,B,58.4827938011867,36.02837910279635,2.924139690059335,0.5659324555504652,B,926.168699748814,Correct,sub_001_day_04_data.csv,1,300,26.0,Training at home,,,,,,,,,,,,,
1,4,657,A,38.5154292079248,61.36894914332335,1.92577146039624,0.9639811989359512,B,1125.185300130397,Incorrect,sub_001_day_04_data.csv,0,300,26.0,Training at home,,,,,,,,,,,,,
1,4,658,B,88.19513772319605,67.35180125313138,4.409756886159803,1.0579596201143868,B,680.0477998331189,Correct,sub_001_day_04_data.csv,1,300,26.0,Training at home,,,,,,,,,,,,,
1,4,659,A,13.621274478296268,38.21653457184911,0.6810637239148134,0.6003039212829075,A,669.0400997176766,Correct,sub_001_day_04_data.csv,1,300,26.0,Training at home,,,,,,,,,,,,,
1,4,660,A,20.087830662627276,43.68485911641182,1.004391533131364,0.6862001623661225,A,534.7067997790873,Correct,sub_001_day_04_data.csv,1,300,26.0,Training at home,,,,,,,,,,,,,
1,4,661,A,60.72205420071596,71.1542698589042,3.036102710035798,1.117688657301395,A,775.0772000290453,Correct,sub_001_day_04_data.csv,1,300,26.0,Training at home,,,,,,,,,,,,,
1,4,662,A,39.74080568503157,69.10790894513175,1.9870402842515784,1.0855444952348916,A,657.4860000982881,Correct,sub_001_day_04_data.csv,1,300,26.0,Training at home,,,,,,,,,,,,,
1,4,663,B,59.64100677518643,42.94975419110367,2.9820503387593216,0.6746531612012936,A,634.0264002792537,Incorrect,sub_001_day_04_data.csv,0,300,26.0,Training at home,,,,,,,,,,,,,
1,4,664,B,57.0194989922037,35.32103441289505,2.850974949610185,0.5548215111437168,B,631.4991000108421,Correct,sub_001_day_04_data.csv,1,300,26.0,Training at home,,,,,,,,,,,,,
1,4,665,B,81.94762764651225,61.37090396917678,4.097381382325612,0.9640119052686524,B,766.8627998791635,Correct,sub_001_day_04_data.csv,1,300,26.0,Training at home,,,,,,,,,,,,,
1,4,666,A,19.20065573356779,41.4003471747787,0.9600327866783894,0.6503151327017586,A,587.8596999682486,Correct,sub_001_day_04_data.csv,1,300,26.0,Training at home,,,,,,,,,,,,,
1,4,667,B,76.80227474179993,55.23121478500923,3.8401137370899967,0.867569893087125,B,1952.1347000263631,Correct,sub_001_day_04_data.csv,1,300,26.0,Training at home,,,,,,,,,,,,,
1,4,668,A,37.543132292661134,48.60245490215641,1.8771566146330567,0.763445576335219,A,605.4835002869368,Correct,sub_001_day_04_data.csv,1,300,26.0,Training at home,,,,,,,,,,,,,
1,4,669,B,75.08217615127603,50.86254888118052,3.7541088075638016,0.7989470495398425,B,1465.144299902022,Correct,sub_001_day_04_data.csv,1,300,26.0,Training at home,,,,,,,,,,,,,
1,4,670,B,79.05377072952349,52.46166985732964,3.9526885364761744,0.8240659830941993,B,502.23080022260547,Correct,sub_001_day_04_data.csv,1,300,26.0,Training at home,,,,,,,,,,,,,
1,4,671,A,50.87600983849006,62.42015169426645,2.543800491924503,0.9804934499933396,A,575.0488000921905,Correct,sub_001_day_04_data.csv,1,300,26.0,Training at home,,,,,,,,,,,,,
1,4,672,B,72.11067660414585,46.66434440289409,3.605533830207293,0.7330018078035803,A,715.3202998451889,Incorrect,sub_001_day_04_data.csv,0,300,26.0,Training at home,,,,,,,,,,,,,
1,4,673,B,79.96364888575484,65.21519256177534,3.9981824442877416,1.0243978492725856,B,571.486100088805,Correct,sub_001_day_04_data.csv,1,300,26.0,Training at home,,,,,,,,,,,,,
1,4,674,A,59.41494162270565,82.20299576527414,2.9707470811352823,1.2912416379962903,A,865.0796003639698,Correct,sub_001_day_04_data.csv,1,300,26.0,Training at home,,,,,,,,,,,,,
1,4,675,B,69.4665309047611,52.63359205914556,3.473326545238055,0.826766530725269,A,743.9681999385357,Incorrect,sub_001_day_04_data.csv,0,300,27.0,Training at home,,,,,,,,,,,,,
1,4,676,B,55.94178407931913,32.21046522905164,2.7970892039659567,0.5059608046614906,B,826.424399856478,Correct,sub_001_day_04_data.csv,1,300,27.0,Training at home,,,,,,,,,,,,,
1,4,677,A,58.09756791848048,80.19341423220148,2.904878395924024,1.2596752050908364,A,1480.587299913168,Correct,sub_001_day_04_data.csv,1,300,27.0,Training at home,,,,,,,,,,,,,
1,4,678,A,59.85474770635282,72.87370867001142,2.992737385317641,1.1446975389877534,B,633.6290999315679,Incorrect,sub_001_day_04_data.csv,0,300,27.0,Training at home,,,,,,,,,,,,,
1,4,679,B,68.74282447874613,43.30975909280727,3.4371412239373065,0.6803081049735353,B,976.8262999132276,Correct,sub_001_day_04_data.csv,1,300,27.0,Training at home,,,,,,,,,,,,,
1,4,680,B,75.77920980449181,48.59878183318915,3.7889604902245906,0.7633878799028008,B,4323.011999949813,Correct,sub_001_day_04_data.csv,1,300,27.0,Training at home,,,,,,,,,,,,,
1,4,681,B,56.620465199022405,34.61021452769563,2.8310232599511203,0.5436559784968767,B,562.6245001330972,Correct,sub_001_day_04_data.csv,1,300,27.0,Training at home,,,,,,,,,,,,,
1,4,682,A,55.821881862345464,76.73002509523893,2.7910940931172727,1.2052724157448156,A,621.0349001921713,Correct,sub_001_day_04_data.csv,1,300,27.0,Training at home,,,,,,,,,,,,,
1,4,683,A,32.23504903295468,46.515393056760566,1.611752451647734,0.7306620855298033,A,785.2821997366846,Correct,sub_001_day_04_data.csv,1,300,27.0,Training at home,,,,,,,,,,,,,
1,4,684,B,77.94326432882237,66.36234662348596,3.8971632164411183,1.0424173031366146,B,812.4359999783337,Correct,sub_001_day_04_data.csv,1,300,27.0,Training at home,,,,,,,,,,,,,
1,4,685,B,45.79040234721218,33.7474546167359,2.2895201173606092,0.5301037775064622,A,682.5971999205649,Incorrect,sub_001_day_04_data.csv,0,300,27.0,Training at home,,,,,,,,,,,,,
1,4,686,A,26.081916990356,36.658022494251085,1.3040958495178,0.5758228708153429,A,730.2127000875771,Correct,sub_001_day_04_data.csv,1,300,27.0,Training at home,,,,,,,,,,,,,
1,4,687,B,85.1011997651402,56.66096188449,4.25505998825701,0.8900283080082253,B,912.4179999344052,Correct,sub_001_day_04_data.csv,1,300,27.0,Training at home,,,,,,,,,,,,,
1,4,688,B,45.36609842538548,17.21523322139616,2.268304921269274,0.2704162510908656,B,644.4259001873434,Correct,sub_001_day_04_data.csv,1,300,27.0,Training at home,,,,,,,,,,,,,
1,4,689,A,54.718404688041325,77.80741418006166,2.7359202344020663,1.2221960039145,A,720.1835000887513,Correct,sub_001_day_04_data.csv,1,300,27.0,Training at home,,,,,,,,,,,,,
1,4,690,A,58.61054857179394,78.95341219208635,2.930527428589697,1.2401972985925265,A,2831.9447999820113,Correct,sub_001_day_04_data.csv,1,300,27.0,Training at home,,,,,,,,,,,,,
1,4,691,B,70.12558373846436,61.1593379492994,3.5062791869232175,0.9606886339996722,B,2089.1638002358377,Correct,sub_001_day_04_data.csv,1,300,27.0,Training at home,,,,,,,,,,,,,
1,4,692,B,58.34212757989734,25.84736785446898,2.917106378994867,0.4060095048311636,B,2999.1387999616563,Correct,sub_001_day_04_data.csv,1,300,27.0,Training at home,,,,,,,,,,,,,
1,4,693,A,34.94897944623044,49.39964586429719,1.747448972311522,0.7759678226860673,A,511.9807003065944,Correct,sub_001_day_04_data.csv,1,300,27.0,Training at home,,,,,,,,,,,,,
1,4,694,B,45.83407351303187,26.0409690876933,2.2917036756515934,0.4090505858912807,A,651.4066001400352,Incorrect,sub_001_day_04_data.csv,0,300,27.0,Training at home,,,,,,,,,,,,,
1,4,695,B,34.09197088999568,14.451663933037242,1.704598544499784,0.2270062062208918,B,1612.710400018841,Correct,sub_001_day_04_data.csv,1,300,27.0,Training at home,,,,,,,,,,,,,
1,4,696,B,63.628584944419146,37.592195791016245,3.181429247220957,0.5904968306468289,A,811.2503001466393,Incorrect,sub_001_day_04_data.csv,0,300,27.0,Training at home,,,,,,,,,,,,,
1,4,697,B,34.038670695612296,15.038148248995151,1.7019335347806148,0.2362186803131869,B,682.740000076592,Correct,sub_001_day_04_data.csv,1,300,27.0,Training at home,,,,,,,,,,,,,
1,4,698,B,41.27957676547961,21.69354084032273,2.0639788382739805,0.3407613426715402,B,477.1247999742627,Correct,sub_001_day_04_data.csv,1,300,27.0,Training at home,,,,,,,,,,,,,
1,4,699,B,66.21967978604742,49.67544265291804,3.3109839893023714,0.7803000285111419,B,1143.5492001473904,Correct,sub_001_day_04_data.csv,1,300,27.0,Training at home,,,,,,,,,,,,,
1,4,700,A,57.61199350036506,66.17248739883895,2.8805996750182534,1.0394350014097782,B,734.0357000939548,Incorrect,sub_001_day_04_data.csv,0,300,28.0,Training at home,,,,,,,,,,,,,
1,4,701,A,17.432277373576394,36.834328834829606,0.8716138686788197,0.5785922843370569,A,574.2382002063096,Correct,sub_001_day_04_data.csv,1,300,28.0,Training at home,,,,,,,,,,,,,
1,4,702,A,40.71737532561004,70.70976328994686,2.0358687662805024,1.1107063644438515,B,770.8303001709282,Incorrect,sub_001_day_04_data.csv,0,300,28.0,Training at home,,,,,,,,,,,,,
1,4,703,B,32.3728678421591,19.186520880470475,1.6186433921079553,0.301381165230166,B,671.0145999677479,Correct,sub_001_day_04_data.csv,1,300,28.0,Training at home,,,,,,,,,,,,,
1,4,704,A,58.19941696822369,75.21472459784127,2.909970848411184,1.1814701311917883,A,485.52649980410933,Correct,sub_001_day_04_data.csv,1,300,28.0,Training at home,,,,,,,,,,,,,
1,4,705,A,39.94235003628423,62.09605839561095,1.997117501814212,0.9754026043626708,B,1431.0472998768091,Incorrect,sub_001_day_04_data.csv,0,300,28.0,Training at home,,,,,,,,,,,,,
1,4,706,A,39.97552244335932,61.56906959043864,1.998776122167966,0.967124683568404,A,1323.7978001125157,Correct,sub_001_day_04_data.csv,1,300,28.0,Training at home,,,,,,,,,,,,,
1,4,707,B,63.75610315909312,53.086629763256745,3.187805157954656,0.8338828303404433,B,782.2604002431035,Correct,sub_001_day_04_data.csv,1,300,28.0,Training at home,,,,,,,,,,,,,
1,4,708,A,25.359150495461304,56.42713613461996,1.2679575247730652,0.886355381718166,A,964.3791001290084,Correct,sub_001_day_04_data.csv,1,300,28.0,Training at home,,,,,,,,,,,,,
1,4,709,A,46.45180854468189,66.87584726373761,2.3225904272340943,1.0504833523317558,A,1362.9594002850354,Correct,sub_001_day_04_data.csv,1,300,28.0,Training at home,,,,,,,,,,,,,
1,4,710,B,72.78791969975956,56.5982570821502,3.639395984987978,0.8890433432763477,B,858.4579997695982,Correct,sub_001_day_04_data.csv,1,300,28.0,Training at home,,,,,,,,,,,,,
1,4,711,A,50.96949532091206,72.60256911912509,2.548474766045603,1.1404384888819428,B,1033.602500334382,Incorrect,sub_001_day_04_data.csv,0,300,28.0,Training at home,,,,,,,,,,,,,
1,4,712,B,45.182466380767565,23.902424222110007,2.259123319038378,0.3754584016958376,B,980.8093002066016,Correct,sub_001_day_04_data.csv,1,300,28.0,Training at home,,,,,,,,,,,,,
1,4,713,A,26.417371164593156,51.67090465225888,1.320868558229658,0.8116446722993759,A,610.9616002067924,Correct,sub_001_day_04_data.csv,1,300,28.0,Training at home,,,,,,,,,,,,,
1,4,714,B,61.537876379924064,45.45897432196212,3.0768938189962034,0.7140678988480161,B,982.3110997676848,Correct,sub_001_day_04_data.csv,1,300,28.0,Training at home,,,,,,,,,,,,,
1,4,715,A,32.85547221818181,45.29140619524941,1.6427736109090905,0.7114357448687341,A,1001.3339999131858,Correct,sub_001_day_04_data.csv,1,300,28.0,Training at home,,,,,,,,,,,,,
1,4,716,A,49.38174608781111,58.34581254405395,2.4690873043905555,0.9164938802806356,B,642.9615002125502,Incorrect,sub_001_day_04_data.csv,0,300,28.0,Training at home,,,,,,,,,,,,,
1,4,717,A,50.37343822801119,57.18552119604654,2.5186719114005593,0.8982680664060161,B,816.8528000824153,Incorrect,sub_001_day_04_data.csv,0,300,28.0,Training at home,,,,,,,,,,,,,
1,4,718,B,77.1529555502349,55.57440968115039,3.8576477775117457,0.8729607859094576,B,678.5364001989365,Correct,sub_001_day_04_data.csv,1,300,28.0,Training at home,,,,,,,,,,,,,
1,4,719,B,43.76244576217579,23.43402167087454,2.188122288108789,0.3681007516264173,A,884.3253999948502,Incorrect,sub_001_day_04_data.csv,0,300,28.0,Training at home,,,,,,,,,,,,,
1,4,720,B,66.86559749130843,45.47079022820965,3.3432798745654217,0.71425350266933,A,545.093999709934,Incorrect,sub_001_day_04_data.csv,0,300,28.0,Training at home,,,,,,,,,,,,,
1,4,721,A,20.16190899108844,48.65242414740702,1.008095449554422,0.7642304914041426,A,712.442500051111,Correct,sub_001_day_04_data.csv,1,300,28.0,Training at home,,,,,,,,,,,,,
1,4,722,B,42.001417110152296,26.764606062761484,2.100070855507614,0.4204174489149815,B,956.8217000924052,Correct,sub_001_day_04_data.csv,1,300,28.0,Training at home,,,,,,,,,,,,,
1,4,723,A,34.40198135667231,48.29755149596907,1.7200990678336154,0.7586561648305558,A,1257.6431999914348,Correct,sub_001_day_04_data.csv,1,300,28.0,Training at home,,,,,,,,,,,,,
1,4,724,B,33.478699053662325,20.47329721291876,1.6739349526831162,0.3215938005943298,A,617.0717999339104,Incorrect,sub_001_day_04_data.csv,0,300,28.0,Training at home,,,,,,,,,,,,,
1,4,725,A,28.553696546756903,52.85528608970762,1.427684827337845,0.8302488924140611,A,190.52049983292815,Correct,sub_001_day_04_data.csv,1,300,29.0,Training at home,,,,,,,,,,,,,
1,4,726,A,68.1882329207789,81.48192469755462,3.409411646038945,1.2799150801509716,A,814.7154999896884,Correct,sub_001_day_04_data.csv,1,300,29.0,Training at home,,,,,,,,,,,,,
1,4,727,A,63.639428428715,79.76408556568006,3.1819714214357497,1.2529313261672408,A,550.6638996303082,Correct,sub_001_day_04_data.csv,1,300,29.0,Training at home,,,,,,,,,,,,,
1,4,728,A,45.92863530894927,57.56417685770544,2.2964317654474633,0.904215975630555,B,766.8078001588583,Incorrect,sub_001_day_04_data.csv,0,300,29.0,Training at home,,,,,,,,,,,,,
1,4,729,A,21.29097584901221,46.91682445372867,1.0645487924506103,0.7369677551679796,A,668.4536002576351,Correct,sub_001_day_04_data.csv,1,300,29.0,Training at home,,,,,,,,,,,,,
1,4,730,B,65.10137092865666,34.112491195157176,3.255068546432833,0.5358377586717614,B,810.5989000760019,Correct,sub_001_day_04_data.csv,1,300,29.0,Training at home,,,,,,,,,,,,,
1,4,731,B,70.77258496323608,42.56880094488539,3.5386292481618047,0.6686691616028909,B,1450.4994000308216,Correct,sub_001_day_04_data.csv,1,300,29.0,Training at home,,,,,,,,,,,,,
1,4,732,A,56.49867061604729,85.00019513070801,2.824933530802365,1.335179942881656,A,672.2009000368416,Correct,sub_001_day_04_data.csv,1,300,29.0,Training at home,,,,,,,,,,,,,
1,4,733,A,60.612372547959225,72.54759990383819,3.0306186273979616,1.1395750344673483,A,2584.2976002022624,Correct,sub_001_day_04_data.csv,1,300,29.0,Training at home,,,,,,,,,,,,,
1,4,734,B,75.8308391769201,61.78266059636165,3.791541958846005,0.9704797632438068,B,721.8395001254976,Correct,sub_001_day_04_data.csv,1,300,29.0,Training at home,,,,,,,,,,,,,
1,4,735,A,55.999483889887905,75.78315153745424,2.799974194494395,1.1903989606797414,A,1155.7171000167727,Correct,sub_001_day_04_data.csv,1,300,29.0,Training at home,,,,,,,,,,,,,
1,4,736,B,61.17467427118054,36.053249669934026,3.058733713559027,0.5663231215055169,B,703.1163000501692,Correct,sub_001_day_04_data.csv,1,300,29.0,Training at home,,,,,,,,,,,,,
1,4,737,B,33.24955888574712,20.04293109211605,1.662477944287356,0.314833625376991,A,1083.7294002994895,Incorrect,sub_001_day_04_data.csv,0,300,29.0,Training at home,,,,,,,,,,,,,
1,4,738,A,29.459076593585632,43.042754004209506,1.4729538296792817,0.6761139988494861,A,1450.3659000620246,Correct,sub_001_day_04_data.csv,1,300,29.0,Training at home,,,,,,,,,,,,,
1,4,739,B,36.401529079059955,25.911277007281512,1.820076453952998,0.4070133874560286,A,1193.3864001184702,Incorrect,sub_001_day_04_data.csv,0,300,29.0,Training at home,,,,,,,,,,,,,
1,4,740,A,54.920180323998125,76.17087312009156,2.7460090161999062,1.1964892770579996,B,2218.8222999684513,Incorrect,sub_001_day_04_data.csv,0,300,29.0,Training at home,,,,,,,,,,,,,
1,4,741,B,37.17372138718429,17.414815222192765,1.8586860693592144,0.2735512778283224,B,899.3163001723588,Correct,sub_001_day_04_data.csv,1,300,29.0,Training at home,,,,,,,,,,,,,
1,4,742,B,79.43424954913925,55.92182581595709,3.971712477456963,0.8784179857936942,B,1372.8334000334144,Correct,sub_001_day_04_data.csv,1,300,29.0,Training at home,,,,,,,,,,,,,
1,4,743,B,84.15391999612916,59.19228765536742,4.207695999806458,0.9297902802363804,B,640.5851999297738,Correct,sub_001_day_04_data.csv,1,300,29.0,Training at home,,,,,,,,,,,,,
1,4,744,B,36.61320391053419,20.243394684311,1.83066019552671,0.3179825001197505,B,1216.601200401783,Correct,sub_001_day_04_data.csv,1,300,29.0,Training at home,,,,,,,,,,,,,
1,4,745,B,32.72736664112062,17.54769971535641,1.636368332056031,0.275638622565817,B,649.8688999563456,Correct,sub_001_day_04_data.csv,1,300,29.0,Training at home,,,,,,,,,,,,,
1,4,746,B,58.90009497849183,48.89907964733983,2.945004748924591,0.7681049469369248,B,631.7102001048625,Correct,sub_001_day_04_data.csv,1,300,29.0,Training at home,,,,,,,,,,,,,
1,4,747,A,30.8586959798384,42.384149023740264,1.54293479899192,0.665768656008187,B,915.3170003555716,Incorrect,sub_001_day_04_data.csv,0,300,29.0,Training at home,,,,,,,,,,,,,
1,4,748,A,15.139563225170807,33.17387126203319,0.7569781612585403,0.5210939512396852,A,593.8500999473035,Correct,sub_001_day_04_data.csv,1,300,29.0,Training at home,,,,,,,,,,,,,
1,4,749,A,46.619521989866314,71.63783111154564,2.3309760994933155,1.1252844196956906,A,679.5838000252843,Correct,sub_001_day_04_data.csv,1,300,29.0,Training at home,,,,,,,,,,,,,
1,4,750,B,76.412775036215,44.35256381060283,3.82063875181075,0.6966884431763118,B,1107.5784000568092,Correct,sub_001_day_04_data.csv,1,300,30.0,Training at home,,,,,,,,,,,,,
1,4,751,A,32.09012567930988,61.1576768767431,1.604506283965494,0.9606625419329724,A,865.6059000641108,Correct,sub_001_day_04_data.csv,1,300,30.0,Training at home,,,,,,,,,,,,,
1,4,752,A,24.666800826471928,52.47632532516365,1.2333400413235964,0.8242961906446108,A,603.7988997995853,Correct,sub_001_day_04_data.csv,1,300,30.0,Training at home,,,,,,,,,,,,,
1,4,753,A,55.03833810708328,70.73220096941913,2.751916905354164,1.1110588146888198,A,825.0957997515798,Correct,sub_001_day_04_data.csv,1,300,30.0,Training at home,,,,,,,,,,,,,
1,4,754,A,15.513774815655635,31.829981077603357,0.7756887407827818,0.4999841735865041,A,592.2703999094665,Correct,sub_001_day_04_data.csv,1,300,30.0,Training at home,,,,,,,,,,,,,
1,4,755,A,59.313786477946394,81.03787760702295,2.96568932389732,1.2729400047636603,A,785.5965001508594,Correct,sub_001_day_04_data.csv,1,300,30.0,Training at home,,,,,,,,,,,,,
1,4,756,B,38.01440517806245,20.911306857773013,1.9007202589031225,0.3284740400067078,B,729.2864001356065,Correct,sub_001_day_04_data.csv,1,300,30.0,Training at home,,,,,,,,,,,,,
1,4,757,A,38.58406120976811,65.22523124384104,1.9292030604884056,1.0245555365217325,A,1605.351600330323,Correct,sub_001_day_04_data.csv,1,300,30.0,Training at home,,,,,,,,,,,,,
1,4,758,B,38.0817461557774,26.605867708903578,1.9040873077888705,0.4179239926833668,B,736.4243003539741,Correct,sub_001_day_04_data.csv,1,300,30.0,Training at home,,,,,,,,,,,,,
1,4,759,B,49.71211313214137,33.97610669646403,2.485605656607069,0.5336954359759718,B,669.3357997573912,Correct,sub_001_day_04_data.csv,1,300,30.0,Training at home,,,,,,,,,,,,,
1,4,760,B,60.11508469944592,48.32713946290004,3.005754234972295,0.7591209315282808,B,1244.9982999823987,Correct,sub_001_day_04_data.csv,1,300,30.0,Training at home,,,,,,,,,,,,,
1,4,761,B,61.391268526241625,39.917644308631,3.0695634263120812,0.6270248905430278,B,616.7013999074697,Correct,sub_001_day_04_data.csv,1,300,30.0,Training at home,,,,,,,,,,,,,
1,4,762,B,73.87183296016259,61.173443967493526,3.6935916480081294,0.9609102108153224,B,407.5186001136899,Correct,sub_001_day_04_data.csv,1,300,30.0,Training at home,,,,,,,,,,,,,
1,4,763,B,81.35534883651658,57.672533243289834,4.067767441825829,0.9059180337551624,B,518.2483997195959,Correct,sub_001_day_04_data.csv,1,300,30.0,Training at home,,,,,,,,,,,,,
1,4,764,A,52.55602396258143,73.2309869983809,2.627801198129071,1.1503096538462154,A,791.8350999243557,Correct,sub_001_day_04_data.csv,1,300,30.0,Training at home,,,,,,,,,,,,,
1,4,765,A,64.36737828913013,74.64496796096726,3.2183689144565064,1.1725204148681012,A,608.3332998678088,Correct,sub_001_day_04_data.csv,1,300,30.0,Training at home,,,,,,,,,,,,,
1,4,766,B,80.15040894808118,61.54963731684268,4.007520447404059,0.9668194421285456,A,1996.042599901557,Incorrect,sub_001_day_04_data.csv,0,300,30.0,Training at home,,,,,,,,,,,,,
1,4,767,A,58.31387201021976,69.27576013422947,2.9156936005109877,1.0881810955477198,A,830.9740000404418,Correct,sub_001_day_04_data.csv,1,300,30.0,Training at home,,,,,,,,,,,,,
1,4,768,A,62.32020688941829,75.82782187233892,3.116010344470914,1.191100640659277,A,1552.454000338912,Correct,sub_001_day_04_data.csv,1,300,30.0,Training at home,,,,,,,,,,,,,
1,4,769,A,47.31854292208357,64.03243474273984,2.365927146104178,1.0058191328962969,B,1925.7288998924196,Incorrect,sub_001_day_04_data.csv,0,300,30.0,Training at home,,,,,,,,,,,,,
1,4,770,A,56.78758726609089,65.7048597560462,2.8393793633045443,1.032089523573712,B,1014.5932999439538,Incorrect,sub_001_day_04_data.csv,0,300,30.0,Training at home,,,,,,,,,,,,,
1,4,771,A,15.617695881193082,37.747658593929216,0.7808847940596542,0.5929388346445182,A,725.9844997897744,Correct,sub_001_day_04_data.csv,1,300,30.0,Training at home,,,,,,,,,,,,,
1,4,772,B,41.04742451460798,23.680723136810187,2.052371225730399,0.3719759291914836,B,830.1591998897493,Correct,sub_001_day_04_data.csv,1,300,30.0,Training at home,,,,,,,,,,,,,
1,4,773,A,14.123366488187704,39.285282996020555,0.706168324409385,0.6170917822724711,A,523.4284000471234,Correct,sub_001_day_04_data.csv,1,300,30.0,Training at home,,,,,,,,,,,,,
1,4,774,A,27.74628396175641,40.32852232567278,1.3873141980878203,0.6334789473423278,A,549.5084999129176,Correct,sub_001_day_04_data.csv,1,300,30.0,Training at home,,,,,,,,,,,,,
1,4,775,A,12.00608791440938,33.55002362505273,0.600304395720469,0.5270025387411482,A,517.2542002983391,Correct,sub_001_day_04_data.csv,1,300,31.0,Training at home,,,,,,,,,,,,,
1,4,776,B,52.63841572762681,37.904649593549394,2.6319207863813405,0.5954048434999505,B,902.1274000406264,Correct,sub_001_day_04_data.csv,1,300,31.0,Training at home,,,,,,,,,,,,,
1,4,777,B,57.85373415855801,34.44592970804462,2.892686707927901,0.541075398584317,A,743.7506001442671,Incorrect,sub_001_day_04_data.csv,0,300,31.0,Training at home,,,,,,,,,,,,,
1,4,778,A,48.05134064510309,60.036919539932725,2.4025670322551544,0.9430577268540706,A,939.5892000757158,Correct,sub_001_day_04_data.csv,1,300,31.0,Training at home,,,,,,,,,,,,,
1,4,779,A,62.22612342022806,82.2494222455899,3.111306171011403,1.2919709034437508,B,900.6687998771667,Incorrect,sub_001_day_04_data.csv,0,300,31.0,Training at home,,,,,,,,,,,,,
1,4,780,B,51.30903153136181,32.846049203419675,2.5654515765680905,0.5159445343845607,B,637.6485000364482,Correct,sub_001_day_04_data.csv,1,300,31.0,Training at home,,,,,,,,,,,,,
1,4,781,B,37.80717923935475,28.02763323198409,1.8903589619677377,0.4402570332955518,B,606.6167000681162,Correct,sub_001_day_04_data.csv,1,300,31.0,Training at home,,,,,,,,,,,,,
1,4,782,A,27.78324350777192,44.654245280487935,1.389162175388596,0.701427244623888,A,651.0431999340653,Correct,sub_001_day_04_data.csv,1,300,31.0,Training at home,,,,,,,,,,,,,
1,4,783,B,38.754350477977496,22.776232472528907,1.9377175238988744,0.3577682230607505,B,837.3898002319038,Correct,sub_001_day_04_data.csv,1,300,31.0,Training at home,,,,,,,,,,,,,
1,4,784,B,80.78596509169864,60.229672388093626,4.039298254584932,0.9460854815127748,A,1224.0051999688148,Incorrect,sub_001_day_04_data.csv,0,300,31.0,Training at home,,,,,,,,,,,,,
1,4,785,B,53.57249404749077,34.818872583031045,2.678624702374538,0.5469335715656469,B,853.5672998987138,Correct,sub_001_day_04_data.csv,1,300,31.0,Training at home,,,,,,,,,,,,,
1,4,786,B,35.16502973223656,12.582964566643202,1.7582514866118282,0.1976527452147348,B,794.1999998874962,Correct,sub_001_day_04_data.csv,1,300,31.0,Training at home,,,,,,,,,,,,,
1,4,787,A,58.311938682466234,71.37146447814699,2.915596934123312,1.1211003424024573,A,556.7792002111673,Correct,sub_001_day_04_data.csv,1,300,31.0,Training at home,,,,,,,,,,,,,
1,4,788,B,52.74278955356983,27.069064390400545,2.637139477678492,0.425199869142157,B,2526.608800049871,Correct,sub_001_day_04_data.csv,1,300,31.0,Training at home,,,,,,,,,,,,,
1,4,789,A,41.77847592166477,55.09135798825971,2.0889237960832383,0.8653730276610103,B,1001.628200057894,Incorrect,sub_001_day_04_data.csv,0,300,31.0,Training at home,,,,,,,,,,,,,
1,4,790,B,72.01931972348862,40.39716048093679,3.600965986174431,0.6345571129639946,B,432.47340014204383,Correct,sub_001_day_04_data.csv,1,300,31.0,Training at home,,,,,,,,,,,,,
1,4,791,A,37.76600232893147,48.553457363648384,1.8883001164465736,0.762675924800115,A,499.3785996921361,Correct,sub_001_day_04_data.csv,1,300,31.0,Training at home,,,,,,,,,,,,,
1,4,792,A,27.171821427861275,54.66630066061725,1.3585910713930638,0.8586962427716301,B,1634.5291999168694,Incorrect,sub_001_day_04_data.csv,0,300,31.0,Training at home,,,,,,,,,,,,,
1,4,793,A,50.209415017654635,60.31036899849519,2.5104707508827317,0.9473530609048104,B,806.317700073123,Incorrect,sub_001_day_04_data.csv,0,300,31.0,Training at home,,,,,,,,,,,,,
1,4,794,B,81.82173445980835,66.17948271741282,4.0910867229904175,1.039544883616984,B,654.4288001023233,Correct,sub_001_day_04_data.csv,1,300,31.0,Training at home,,,,,,,,,,,,,
1,4,795,A,21.04239808411613,47.28783206262204,1.0521199042058065,0.7427955290606063,A,553.6934998817742,Correct,sub_001_day_04_data.csv,1,300,31.0,Training at home,,,,,,,,,,,,,
1,4,796,B,52.5543619284466,24.824213725743867,2.62771809642233,0.3899378373596992,B,1379.9135000444949,Correct,sub_001_day_04_data.csv,1,300,31.0,Training at home,,,,,,,,,,,,,
1,4,797,A,24.776765000204698,46.11138722142012,1.2388382500102346,0.7243159767082386,A,600.4244997166097,Correct,sub_001_day_04_data.csv,1,300,31.0,Training at home,,,,,,,,,,,,,
1,4,798,B,73.13725010146305,41.02442938929047,3.656862505073153,0.6444102299355406,B,634.7362999804318,Correct,sub_001_day_04_data.csv,1,300,31.0,Training at home,,,,,,,,,,,,,
1,4,799,A,44.71474574715089,69.52526541100934,2.2357372873575447,1.0921003152705375,A,778.9536998607218,Correct,sub_001_day_04_data.csv,1,300,31.0,Training at home,,,,,,,,,,,,,
1,4,800,A,51.30779061302191,77.81746384655489,2.565389530651095,1.222353863706631,B,868.6353997327387,Incorrect,sub_001_day_04_data.csv,0,300,32.0,Training at home,,,,,,,,,,,,,
1,4,801,A,39.879390061912815,55.92745298189086,1.9939695030956408,0.8785063771094845,A,1203.0450999736786,Correct,sub_001_day_04_data.csv,1,300,32.0,Training at home,,,,,,,,,,,,,
1,4,802,A,52.463961064610686,80.2340164210602,2.623198053230534,1.260312982782028,A,2412.2423003427684,Correct,sub_001_day_04_data.csv,1,300,32.0,Training at home,,,,,,,,,,,,,
1,4,803,A,59.93225558307178,73.20546617048672,2.9966127791535886,1.149908773619086,A,871.5546000748873,Correct,sub_001_day_04_data.csv,1,300,32.0,Training at home,,,,,,,,,,,,,
1,4,804,B,46.65213587168451,31.480941723428657,2.332606793584225,0.4945014762320593,B,1059.387699700892,Correct,sub_001_day_04_data.csv,1,300,32.0,Training at home,,,,,,,,,,,,,
1,4,805,B,48.64209350280893,36.98699305669185,2.4321046751404465,0.580990328326399,A,875.8555999957025,Incorrect,sub_001_day_04_data.csv,0,300,32.0,Training at home,,,,,,,,,,,,,
1,4,806,A,27.36613392369766,50.89963431767448,1.3683066961848829,0.7995295862140654,A,553.8413003087044,Correct,sub_001_day_04_data.csv,1,300,32.0,Training at home,,,,,,,,,,,,,
1,4,807,B,65.71227816441433,35.84232961925012,3.2856139082207165,0.5630099970969002,A,599.6730998158455,Incorrect,sub_001_day_04_data.csv,0,300,32.0,Training at home,,,,,,,,,,,,,
1,4,808,A,17.548440331629465,44.717339078891726,0.8774220165814732,0.70241831969165,B,1196.0553000681102,Incorrect,sub_001_day_04_data.csv,0,300,32.0,Training at home,,,,,,,,,,,,,
1,4,809,A,50.824724911978514,71.4226997707243,2.5412362455989257,1.1219051444962842,A,807.6454000547528,Correct,sub_001_day_04_data.csv,1,300,32.0,Training at home,,,,,,,,,,,,,
1,4,810,A,39.874478633754734,58.13343991537867,1.9937239316877369,0.9131579388302864,A,510.8961001969874,Correct,sub_001_day_04_data.csv,1,300,32.0,Training at home,,,,,,,,,,,,,
1,4,811,A,41.58520300045006,58.99327625926564,2.079260150022503,0.9266642165365104,A,607.6866998337209,Correct,sub_001_day_04_data.csv,1,300,32.0,Training at home,,,,,,,,,,,,,
1,4,812,B,60.172698449761086,36.99333836073592,3.008634922488054,0.5810900001292473,A,563.6112000793219,Incorrect,sub_001_day_04_data.csv,0,300,32.0,Training at home,,,,,,,,,,,,,
1,4,813,A,20.52775506914592,40.064309879053866,1.026387753457296,0.6293287079359029,A,473.8899003714323,Correct,sub_001_day_04_data.csv,1,300,32.0,Training at home,,,,,,,,,,,,,
1,4,814,A,16.821664808677777,35.47988243614952,0.8410832404338889,0.5573166900581844,A,566.5519000031054,Correct,sub_001_day_04_data.csv,1,300,32.0,Training at home,,,,,,,,,,,,,
1,4,815,A,21.67697108512157,38.72557890202795,1.0838485542560783,0.6082999709231145,A,1808.7806003168223,Correct,sub_001_day_04_data.csv,1,300,32.0,Training at home,,,,,,,,,,,,,
1,4,816,A,22.939068562733603,35.608736361728866,1.1469534281366802,0.5593407227881158,A,599.3641000241041,Correct,sub_001_day_04_data.csv,1,300,32.0,Training at home,,,,,,,,,,,,,
1,4,817,A,34.485070929124355,48.641979479531386,1.724253546456218,0.7640664269448063,A,1111.8042999878526,Correct,sub_001_day_04_data.csv,1,300,32.0,Training at home,,,,,,,,,,,,,
1,4,818,A,39.47610433675324,66.16372826444437,1.973805216837662,1.039297413248449,A,1079.2526002041996,Correct,sub_001_day_04_data.csv,1,300,32.0,Training at home,,,,,,,,,,,,,
1,4,819,A,17.53753634617084,41.41703642175547,0.876876817308542,0.6505772867802393,A,537.7513999119401,Correct,sub_001_day_04_data.csv,1,300,32.0,Training at home,,,,,,,,,,,,,
1,4,820,B,48.79569476949679,39.453478362096085,2.4397847384748395,0.6197337889046246,A,1544.6967999450862,Incorrect,sub_001_day_04_data.csv,0,300,32.0,Training at home,,,,,,,,,,,,,
1,4,821,A,20.716223171327545,51.55644171900677,1.0358111585663772,0.80984669274831,A,645.9412998519838,Correct,sub_001_day_04_data.csv,1,300,32.0,Training at home,,,,,,,,,,,,,
1,4,822,A,31.96057776099365,47.404127185611856,1.598028888049683,0.7446222885807721,A,3791.94669984281,Correct,sub_001_day_04_data.csv,1,300,32.0,Training at home,,,,,,,,,,,,,
1,4,823,B,55.41729089691047,42.84407373442522,2.7708645448455234,0.6729931364696485,A,2693.262899760157,Incorrect,sub_001_day_04_data.csv,0,300,32.0,Training at home,,,,,,,,,,,,,
1,4,824,B,52.21512654436599,28.634782449302666,2.6107563272182994,0.4497941108993559,A,1132.5999000109732,Incorrect,sub_001_day_04_data.csv,0,300,32.0,Training at home,,,,,,,,,,,,,
1,4,825,A,33.69972177046217,43.444372827079306,1.6849860885231085,0.6824226125668419,A,902.5404998101294,Correct,sub_001_day_04_data.csv,1,300,33.0,Training at home,,,,,,,,,,,,,
1,4,826,B,45.93808347611913,21.1221801019952,2.2969041738059564,0.3317864291811431,A,694.9783000163734,Incorrect,sub_001_day_04_data.csv,0,300,33.0,Training at home,,,,,,,,,,,,,
1,4,827,A,48.97056625284007,75.38631204126979,2.448528312642003,1.1841654204504044,A,730.5564000271261,Correct,sub_001_day_04_data.csv,1,300,33.0,Training at home,,,,,,,,,,,,,
1,4,828,B,40.96784614635524,24.777749844553203,2.048392307317762,0.3892079844206699,A,1864.57599978894,Incorrect,sub_001_day_04_data.csv,0,300,33.0,Training at home,,,,,,,,,,,,,
1,4,829,A,22.734218679520016,35.195135340706784,1.1367109339760006,0.5528438931423147,A,2239.1858003102243,Correct,sub_001_day_04_data.csv,1,300,33.0,Training at home,,,,,,,,,,,,,
1,4,830,B,40.58452392256075,27.582440951139898,2.029226196128038,0.4332639693008768,A,1650.2926000393927,Incorrect,sub_001_day_04_data.csv,0,300,33.0,Training at home,,,,,,,,,,,,,
1,4,831,B,69.24395257635612,38.817009503749766,3.4621976288178065,0.6097361594565271,A,814.0949998050928,Incorrect,sub_001_day_04_data.csv,0,300,33.0,Training at home,,,,,,,,,,,,,
1,4,832,B,73.53888322651042,58.55408510328156,3.6769441613255207,0.9197654179907044,B,600.9778999723494,Correct,sub_001_day_04_data.csv,1,300,33.0,Training at home,,,,,,,,,,,,,
1,4,833,B,63.18861429493435,49.131151495479905,3.1594307147467173,0.7717503230030343,B,449.5858000591398,Correct,sub_001_day_04_data.csv,1,300,33.0,Training at home,,,,,,,,,,,,,
1,4,834,B,36.29568760138329,19.637469067312,1.8147843800691643,0.3084646427848209,A,860.9171002171934,Incorrect,sub_001_day_04_data.csv,0,300,33.0,Training at home,,,,,,,,,,,,,
1,4,835,B,63.36109988863432,43.262051979654885,3.168054994431716,0.6795587233925178,B,821.3679003529251,Correct,sub_001_day_04_data.csv,1,300,33.0,Training at home,,,,,,,,,,,,,
1,4,836,B,69.67696431500443,40.45758284005032,3.483848215750221,0.6355062251615128,B,562.9584002308547,Correct,sub_001_day_04_data.csv,1,300,33.0,Training at home,,,,,,,,,,,,,
1,4,837,B,75.68921478751437,63.42689982435143,3.784460739375719,0.9963074126407908,A,781.8189999088645,Incorrect,sub_001_day_04_data.csv,0,300,33.0,Training at home,,,,,,,,,,,,,
1,4,838,A,31.93825206575567,48.44303654235616,1.5969126032877836,0.7609414385952402,A,535.4355997405946,Correct,sub_001_day_04_data.csv,1,300,33.0,Training at home,,,,,,,,,,,,,
1,4,839,A,52.09391633417304,78.06704713601879,2.604695816708652,1.2262743088498238,A,1787.080300040543,Correct,sub_001_day_04_data.csv,1,300,33.0,Training at home,,,,,,,,,,,,,
1,4,840,B,78.16827902879358,66.44885352864151,3.9084139514396785,1.0437761504252216,B,1470.4670999199152,Correct,sub_001_day_04_data.csv,1,300,33.0,Training at home,,,,,,,,,,,,,
1,4,841,A,34.027168262884814,59.953628967172655,1.7013584131442403,0.9417494015965892,A,680.3759001195431,Correct,sub_001_day_04_data.csv,1,300,33.0,Training at home,,,,,,,,,,,,,
1,4,842,B,56.36698314111032,46.41012703983593,2.8183491570555157,0.7290085708025879,B,1044.7582001797855,Correct,sub_001_day_04_data.csv,1,300,33.0,Training at home,,,,,,,,,,,,,
1,4,843,A,47.256168221126174,75.02935296961515,2.362808411056309,1.1785583204646923,A,1622.8172001428902,Correct,sub_001_day_04_data.csv,1,300,33.0,Training at home,,,,,,,,,,,,,
1,4,844,B,54.12278779656299,39.767451337901754,2.70613938982815,0.6246656648757087,A,3690.837800037116,Incorrect,sub_001_day_04_data.csv,0,300,33.0,Training at home,,,,,,,,,,,,,
1,4,845,B,75.460279406903,52.16318116358798,3.7730139703451497,0.8193773336570074,B,2821.8553997576237,Correct,sub_001_day_04_data.csv,1,300,33.0,Training at home,,,,,,,,,,,,,
1,4,846,B,58.81467711371796,29.69016699495289,2.940733855685898,0.4663720525759907,B,2180.992600042373,Correct,sub_001_day_04_data.csv,1,300,33.0,Training at home,,,,,,,,,,,,,
1,4,847,A,56.047698209328885,81.91940095930985,2.802384910466444,1.2867869412012225,A,736.9904001243412,Correct,sub_001_day_04_data.csv,1,300,33.0,Training at home,,,,,,,,,,,,,
1,4,848,B,54.35192100599919,37.322069268300446,2.7175960502999597,0.5862536931503103,A,1196.5590002946556,Incorrect,sub_001_day_04_data.csv,0,300,33.0,Training at home,,,,,,,,,,,,,
1,4,849,B,53.89914213969119,46.70787533273967,2.69495710698456,0.7336855900506142,A,3939.401400275528,Incorrect,sub_001_day_04_data.csv,0,300,33.0,Training at home,,,,,,,,,,,,,
1,4,850,B,46.97845060610339,38.85953760556689,2.3489225303051695,0.6104041893177262,B,1408.2327000796795,Correct,sub_001_day_04_data.csv,1,300,34.0,Training at home,,,,,,,,,,,,,
1,4,851,A,31.019318325067204,58.72763431057019,1.5509659162533602,0.922491522563976,B,1012.7540999092162,Incorrect,sub_001_day_04_data.csv,0,300,34.0,Training at home,,,,,,,,,,,,,
1,4,852,A,12.213044991726647,34.856577261825166,0.6106522495863324,0.5475258352751747,A,572.9733002372086,Correct,sub_001_day_04_data.csv,1,300,34.0,Training at home,,,,,,,,,,,,,
1,4,853,A,56.69832127567172,68.92378189251282,2.834916063783586,1.0826522342557174,A,1427.3016001097858,Correct,sub_001_day_04_data.csv,1,300,34.0,Training at home,,,,,,,,,,,,,
1,4,854,B,38.48559207953812,17.458673321662328,1.924279603976906,0.2742401992437924,B,1187.512000091374,Correct,sub_001_day_04_data.csv,1,300,34.0,Training at home,,,,,,,,,,,,,
1,4,855,B,43.21758164215545,28.693642961131665,2.160879082107773,0.4507186896570986,B,4671.355900354683,Correct,sub_001_day_04_data.csv,1,300,34.0,Training at home,,,,,,,,,,,,,
1,4,856,A,43.45948745914793,75.08795842389375,2.1729743729573965,1.1794788927878022,A,1027.1765999495983,Correct,sub_001_day_04_data.csv,1,300,34.0,Training at home,,,,,,,,,,,,,
1,4,857,B,68.00078378568554,45.43365243299356,3.400039189284277,0.713670143546223,B,1235.9788999892771,Correct,sub_001_day_04_data.csv,1,300,34.0,Training at home,,,,,,,,,,,,,
1,4,858,B,55.993638254415835,28.42355922190997,2.799681912720792,0.4464762242021339,A,586.2807999365032,Incorrect,sub_001_day_04_data.csv,0,300,34.0,Training at home,,,,,,,,,,,,,
1,4,859,A,53.550536386959905,76.60817203872766,2.677526819347995,1.203358352409049,A,4230.7508001104,Correct,sub_001_day_04_data.csv,1,300,34.0,Training at home,,,,,,,,,,,,,
1,4,860,A,60.93074735520264,79.13769034529018,3.046537367760132,1.2430919330541377,A,586.2948000431061,Correct,sub_001_day_04_data.csv,1,300,34.0,Training at home,,,,,,,,,,,,,
1,4,861,B,37.872911289177935,20.452237758102125,1.8936455644588963,0.321262999451627,B,1085.3621996939182,Correct,sub_001_day_04_data.csv,1,300,34.0,Training at home,,,,,,,,,,,,,
1,4,862,A,43.6435479945972,59.81463889119801,2.18217739972986,0.93956615058857,A,1570.3508998267353,Correct,sub_001_day_04_data.csv,1,300,34.0,Training at home,,,,,,,,,,,,,
1,4,863,A,36.66004866066443,62.432195438324285,1.8330024330332213,0.980682632682609,A,600.0224999152124,Correct,sub_001_day_04_data.csv,1,300,34.0,Training at home,,,,,,,,,,,,,
1,4,864,A,29.300688312830125,41.20402019602665,1.4650344156415065,0.6472312357310139,A,563.49360011518,Correct,sub_001_day_04_data.csv,1,300,34.0,Training at home,,,,,,,,,,,,,
1,4,865,B,48.42153755486893,19.96659609915584,2.4210768777434466,0.313634558111513,A,1008.9483996853232,Incorrect,sub_001_day_04_data.csv,0,300,34.0,Training at home,,,,,,,,,,,,,
1,4,866,A,18.178780752252635,46.22011796409444,0.9089390376126316,0.7260239152202638,A,749.375400133431,Correct,sub_001_day_04_data.csv,1,300,34.0,Training at home,,,,,,,,,,,,,
1,4,867,B,43.40468650046786,16.081552794439023,2.170234325023393,0.2526084405866302,B,729.7101998701692,Correct,sub_001_day_04_data.csv,1,300,34.0,Training at home,,,,,,,,,,,,,
1,4,868,B,75.81461011902991,63.93107205798501,3.7907305059514953,1.004226931567427,B,608.4664002992213,Correct,sub_001_day_04_data.csv,1,300,34.0,Training at home,,,,,,,,,,,,,
1,4,869,A,31.863375215508334,54.36883904120237,1.5931687607754168,0.8540237265802365,A,581.7311997525394,Correct,sub_001_day_04_data.csv,1,300,34.0,Training at home,,,,,,,,,,,,,
1,4,870,A,50.29130451461035,63.6848840747203,2.5145652257305176,1.000359819769295,A,642.633100040257,Correct,sub_001_day_04_data.csv,1,300,34.0,Training at home,,,,,,,,,,,,,
1,4,871,A,32.10767208583974,56.928205105702276,1.605383604291987,0.8942261547106362,B,659.8094999790192,Incorrect,sub_001_day_04_data.csv,0,300,34.0,Training at home,,,,,,,,,,,,,
1,4,872,B,62.39546405533646,49.09055324309719,3.119773202766823,0.7711126071458636,A,733.5979999043047,Incorrect,sub_001_day_04_data.csv,0,300,34.0,Training at home,,,,,,,,,,,,,
1,4,873,A,66.12166845678686,82.4369404124001,3.3060834228393436,1.2949164319200788,A,640.3844999149442,Correct,sub_001_day_04_data.csv,1,300,34.0,Training at home,,,,,,,,,,,,,
1,4,874,A,40.45631003046468,62.26104437765757,2.022815501523234,0.9779941981083856,A,1371.4868002571166,Correct,sub_001_day_04_data.csv,1,300,34.0,Training at home,,,,,,,,,,,,,
1,4,875,B,78.38639633857413,60.63679950805084,3.9193198169287062,0.9524806193584484,A,2281.631799880415,Incorrect,sub_001_day_04_data.csv,0,300,35.0,Training at home,,,,,,,,,,,,,
1,4,876,A,36.43275640998976,54.7168711179023,1.8216378204994883,0.859490601657107,A,547.5240000523627,Correct,sub_001_day_04_data.csv,1,300,35.0,Training at home,,,,,,,,,,,,,
1,4,877,B,63.08527753024994,30.675381572596702,3.1542638765124966,0.4818477669726675,B,1386.061899829656,Correct,sub_001_day_04_data.csv,1,300,35.0,Training at home,,,,,,,,,,,,,
1,4,878,A,49.19159262221976,69.1015529677926,2.459579631110988,1.085444655776316,B,2463.2001002319157,Incorrect,sub_001_day_04_data.csv,0,300,35.0,Training at home,,,,,,,,,,,,,
1,4,879,A,59.58167456097895,70.05044662016401,2.979083728048948,1.1003498424129563,A,1373.0902997776866,Correct,sub_001_day_04_data.csv,1,300,35.0,Training at home,,,,,,,,,,,,,
1,4,880,A,42.38795193438622,54.969414925017205,2.119397596719311,0.8634575505028157,B,1054.0226995944977,Incorrect,sub_001_day_04_data.csv,0,300,35.0,Training at home,,,,,,,,,,,,,
1,4,881,B,36.39954712988093,16.360787417109307,1.819977356494047,0.2569946477826746,B,600.1010001637042,Correct,sub_001_day_04_data.csv,1,300,35.0,Training at home,,,,,,,,,,,,,
1,4,882,A,35.24603650702884,63.814054313038305,1.762301825351442,1.002388821128106,A,1142.6909998990595,Correct,sub_001_day_04_data.csv,1,300,35.0,Training at home,,,,,,,,,,,,,
1,4,883,A,29.041129713407607,39.75023370363366,1.45205648567038,0.6243952109090645,A,2372.6073997095227,Correct,sub_001_day_04_data.csv,1,300,35.0,Training at home,,,,,,,,,,,,,
1,4,884,B,51.56581069728915,33.90765346755971,2.578290534864458,0.5326201751707704,B,1737.155799753964,Correct,sub_001_day_04_data.csv,1,300,35.0,Training at home,,,,,,,,,,,,,
1,4,885,B,35.59734850405415,21.892934490652785,1.7798674252027076,0.3438934108067869,B,3334.668600000441,Correct,sub_001_day_04_data.csv,1,300,35.0,Training at home,,,,,,,,,,,,,
1,4,886,B,80.2741185790266,59.831837863906046,4.01370592895133,0.9398363114201144,A,1525.3713000565767,Incorrect,sub_001_day_04_data.csv,0,300,35.0,Training at home,,,,,,,,,,,,,
1,4,887,A,34.12901248745685,62.118957242291664,1.7064506243728426,0.9757622986052098,A,3163.850700017065,Correct,sub_001_day_04_data.csv,1,300,35.0,Training at home,,,,,,,,,,,,,
1,4,888,B,79.94931149855432,57.34927405784948,3.997465574927716,0.9008402903442382,B,1021.6613998636604,Correct,sub_001_day_04_data.csv,1,300,35.0,Training at home,,,,,,,,,,,,,
1,4,889,B,36.43577104714233,23.709150639865584,1.821788552357117,0.3724224673652773,A,771.4869999326766,Incorrect,sub_001_day_04_data.csv,0,300,35.0,Training at home,,,,,,,,,,,,,
1,4,890,A,18.508284483266554,42.072527351202595,0.9254142241633276,0.6608737142224684,A,800.1975999213755,Correct,sub_001_day_04_data.csv,1,300,35.0,Training at home,,,,,,,,,,,,,
1,4,891,A,60.06459142763117,85.34065524434007,3.0032295713815587,1.34052787784079,A,702.789600007236,Correct,sub_001_day_04_data.csv,1,300,35.0,Training at home,,,,,,,,,,,,,
1,4,892,B,48.753685350450155,26.401732985110655,2.4376842675225077,0.4147174519403147,B,1212.0992001146078,Correct,sub_001_day_04_data.csv,1,300,35.0,Training at home,,,,,,,,,,,,,
1,4,893,A,21.18511730238262,42.47324765827145,1.059255865119131,0.6671682140866273,A,838.4334999136627,Correct,sub_001_day_04_data.csv,1,300,35.0,Training at home,,,,,,,,,,,,,
1,4,894,A,34.25652989212546,57.668354911027194,1.7128264946062728,0.9058524006654594,B,734.5918999053538,Incorrect,sub_001_day_04_data.csv,0,300,35.0,Training at home,,,,,,,,,,,,,
1,4,895,B,52.853015833806985,43.137143283134115,2.6426507916903494,0.677596662175722,A,692.2813002020121,Incorrect,sub_001_day_04_data.csv,0,300,35.0,Training at home,,,,,,,,,,,,,
1,4,896,A,61.13459706056637,83.99733462184749,3.056729853028319,1.3194270468455982,A,575.5416001193225,Correct,sub_001_day_04_data.csv,1,300,35.0,Training at home,,,,,,,,,,,,,
1,4,897,B,32.3380108680618,19.849347943619335,1.61690054340309,0.3117928283911108,B,860.0618001073599,Correct,sub_001_day_04_data.csv,1,300,35.0,Training at home,,,,,,,,,,,,,
1,4,898,A,47.918476320691475,55.5561028295876,2.3959238160345735,0.8726732225575576,A,732.719199731946,Correct,sub_001_day_04_data.csv,1,300,35.0,Training at home,,,,,,,,,,,,,
1,4,899,B,35.11763458069565,15.442248899692988,1.7558817290347826,0.2425662784909028,A,4915.165100246668,Incorrect,sub_001_day_04_data.csv,0,300,35.0,Training at home,,,,,,,,,,,,,
