subject,day,trial,cat,x,y,xt,yt,resp,rt,fb,f_name,acc,n_trials,block,session_type,ns_left_digit,ns_right_digit,ns_left_size,ns_right_size,ns_congruent,ns_cue,ns_correct_side,ns_resp,ns_rt,ns_fb,acc_stroop,acc_stroop_mean,resp_key
1,14,3000,B,82.78295118997539,57.74795363923158,4.1391475594987694,0.9071027345642694,B,837.200399953872,Correct,sub_001_day_15_data.csv,1,300,120.0,Training at home,,,,,,,,,,,,,
1,14,3001,B,57.794945976138095,27.83701328182685,2.8897472988069044,0.4372627821203436,B,968.269200064242,Correct,sub_001_day_15_data.csv,1,300,120.0,Training at home,,,,,,,,,,,,,
1,14,3002,B,82.28328483456559,52.469596102097455,4.11416424172828,0.8241904882558649,B,543.4313002042472,Correct,sub_001_day_15_data.csv,1,300,120.0,Training at home,,,,,,,,,,,,,
1,14,3003,A,32.765327844908676,62.49006806713671,1.638266392245434,0.981591693810214,A,436.70109985396266,Correct,sub_001_day_15_data.csv,1,300,120.0,Training at home,,,,,,,,,,,,,
1,14,3004,B,65.479378948971,34.75337564993271,3.27396894744855,0.545904748146375,B,850.3908002749085,Correct,sub_001_day_15_data.csv,1,300,120.0,Training at home,,,,,,,,,,,,,
1,14,3005,A,46.76477189478213,65.32127975607709,2.3382385947391064,1.0260642630238772,A,982.116799801588,Correct,sub_001_day_15_data.csv,1,300,120.0,Training at home,,,,,,,,,,,,,
1,14,3006,B,44.09642376003677,18.769739699634837,2.2048211880018385,0.2948343817508275,B,786.8933002464473,Correct,sub_001_day_15_data.csv,1,300,120.0,Training at home,,,,,,,,,,,,,
1,14,3007,A,18.640106512874375,34.93954450225736,0.9320053256437189,0.5488290816403268,A,935.2542003616692,Correct,sub_001_day_15_data.csv,1,300,120.0,Training at home,,,,,,,,,,,,,
1,14,3008,A,60.41488558976289,82.74469584116605,3.0207442794881443,1.2997506428906458,A,1400.4391999915242,Correct,sub_001_day_15_data.csv,1,300,120.0,Training at home,,,,,,,,,,,,,
1,14,3009,A,44.539957064878614,60.40303080706085,2.226997853243931,0.9488085891901016,B,852.736999746412,Incorrect,sub_001_day_15_data.csv,0,300,120.0,Training at home,,,,,,,,,,,,,
1,14,3010,B,44.26007191089698,24.5108888663101,2.213003595544849,0.3850161419767783,B,699.1433999501169,Correct,sub_001_day_15_data.csv,1,300,120.0,Training at home,,,,,,,,,,,,,
1,14,3011,B,43.67752372214723,23.017317112011156,2.1838761861073612,0.3615551717222044,B,1167.871399782598,Correct,sub_001_day_15_data.csv,1,300,120.0,Training at home,,,,,,,,,,,,,
1,14,3012,A,63.92110156868557,75.9244825355105,3.1960550784342785,1.1926189828058318,A,1230.743299704045,Correct,sub_001_day_15_data.csv,1,300,120.0,Training at home,,,,,,,,,,,,,
1,14,3013,B,42.46697683674035,28.167548434549538,2.1233488418370174,0.4424548161580776,B,1754.274100065231,Correct,sub_001_day_15_data.csv,1,300,120.0,Training at home,,,,,,,,,,,,,
1,14,3014,B,59.11879557588281,44.217007579905776,2.95593977879414,0.694559130883781,B,1660.6257003732026,Correct,sub_001_day_15_data.csv,1,300,120.0,Training at home,,,,,,,,,,,,,
1,14,3015,A,44.38096224212824,73.99744250707106,2.219048112106412,1.1623491088232374,A,791.796499863267,Correct,sub_001_day_15_data.csv,1,300,120.0,Training at home,,,,,,,,,,,,,
1,14,3016,A,30.677817001903406,39.5178430760337,1.5338908500951702,0.6207448274669087,B,550.5607998929918,Incorrect,sub_001_day_15_data.csv,0,300,120.0,Training at home,,,,,,,,,,,,,
1,14,3017,B,65.78744964954244,36.79034248946637,3.289372482477122,0.5779013484397998,B,712.3908000066876,Correct,sub_001_day_15_data.csv,1,300,120.0,Training at home,,,,,,,,,,,,,
1,14,3018,B,40.82046015379946,25.18866092202263,2.0410230076899727,0.395662560531953,B,1479.7871001064775,Correct,sub_001_day_15_data.csv,1,300,120.0,Training at home,,,,,,,,,,,,,
1,14,3019,A,47.77046379550892,73.1496405379315,2.388523189775446,1.1490318666334989,A,836.5043001249433,Correct,sub_001_day_15_data.csv,1,300,120.0,Training at home,,,,,,,,,,,,,
1,14,3020,B,79.60750051058797,57.00018062948847,3.980375025529398,0.8953567435944609,B,1558.3509001880884,Correct,sub_001_day_15_data.csv,1,300,120.0,Training at home,,,,,,,,,,,,,
1,14,3021,A,53.78274842215766,71.0356625742753,2.689137421107883,1.1158255784311335,A,629.560399800539,Correct,sub_001_day_15_data.csv,1,300,120.0,Training at home,,,,,,,,,,,,,
1,14,3022,B,55.811868094688855,36.341031288891344,2.7905934047344427,0.5708435846052893,B,1378.4332000650463,Correct,sub_001_day_15_data.csv,1,300,120.0,Training at home,,,,,,,,,,,,,
1,14,3023,A,47.27431962515033,62.47347266868207,2.3637159812575166,0.9813310139008716,A,879.8059998080134,Correct,sub_001_day_15_data.csv,1,300,120.0,Training at home,,,,,,,,,,,,,
1,14,3024,B,68.50948019453651,48.72382800100178,3.4254740097268255,0.7653521005135991,B,980.8188998140396,Correct,sub_001_day_15_data.csv,1,300,120.0,Training at home,,,,,,,,,,,,,
1,14,3025,A,43.27463149064437,59.0962724773246,2.1637315745322185,0.928282077346518,A,1006.6422997042536,Correct,sub_001_day_15_data.csv,1,300,121.0,Training at home,,,,,,,,,,,,,
1,14,3026,A,57.33187353392154,74.73941643033206,2.8665936766960773,1.1740040079555971,A,1544.8147002607584,Correct,sub_001_day_15_data.csv,1,300,121.0,Training at home,,,,,,,,,,,,,
1,14,3027,A,47.95624912285812,65.9555435338085,2.3978124561429057,1.0360272551466727,A,1346.9789000228047,Correct,sub_001_day_15_data.csv,1,300,121.0,Training at home,,,,,,,,,,,,,
1,14,3028,A,57.303929800146705,81.25036719948554,2.8651964900073352,1.2762777834768844,A,666.3571000099182,Correct,sub_001_day_15_data.csv,1,300,121.0,Training at home,,,,,,,,,,,,,
1,14,3029,A,30.470115775113,52.160520244749485,1.5235057887556502,0.8193355360416333,A,1461.8430002592504,Correct,sub_001_day_15_data.csv,1,300,121.0,Training at home,,,,,,,,,,,,,
1,14,3030,B,61.16378455053541,44.120086512137185,3.05818922752677,0.6930366983113815,B,463.65080028772354,Correct,sub_001_day_15_data.csv,1,300,121.0,Training at home,,,,,,,,,,,,,
1,14,3031,B,49.94128741374465,36.668551722334634,2.4970643706872324,0.5759882635433192,B,552.8772003017366,Correct,sub_001_day_15_data.csv,1,300,121.0,Training at home,,,,,,,,,,,,,
1,14,3032,A,34.941964807767675,64.2120632557996,1.7470982403883837,1.0086407309813157,A,2577.123399823904,Correct,sub_001_day_15_data.csv,1,300,121.0,Training at home,,,,,,,,,,,,,
1,14,3033,A,38.08988494507567,62.94187413434281,1.9044942472537831,0.988688646918124,A,7415.141599718481,Correct,sub_001_day_15_data.csv,1,300,121.0,Training at home,,,,,,,,,,,,,
1,14,3034,A,52.5301900400563,72.74520164569923,2.626509502002815,1.1426789553701842,A,795.7301000133157,Correct,sub_001_day_15_data.csv,1,300,121.0,Training at home,,,,,,,,,,,,,
1,14,3035,A,27.172117885828612,56.608704510554475,1.3586058942914303,0.8892074510979667,A,3314.9965000338852,Correct,sub_001_day_15_data.csv,1,300,121.0,Training at home,,,,,,,,,,,,,
1,14,3036,A,31.033468810447705,44.478667901191166,1.551673440522385,0.6986692815992116,A,1600.170799996704,Correct,sub_001_day_15_data.csv,1,300,121.0,Training at home,,,,,,,,,,,,,
1,14,3037,A,48.44068471224312,60.742937337233094,2.422034235612156,0.9541478284805832,A,793.8458998687565,Correct,sub_001_day_15_data.csv,1,300,121.0,Training at home,,,,,,,,,,,,,
1,14,3038,A,18.16653928415903,38.602562702570445,0.9083269642079514,0.6063676369806732,A,570.9977000951767,Correct,sub_001_day_15_data.csv,1,300,121.0,Training at home,,,,,,,,,,,,,
1,14,3039,B,64.09792960447709,34.441739983353585,3.204896480223854,0.5410095865427673,A,1818.562500178814,Incorrect,sub_001_day_15_data.csv,0,300,121.0,Training at home,,,,,,,,,,,,,
1,14,3040,B,59.4031353155259,26.60435564802985,2.970156765776295,0.4179002412867034,B,1037.2752998955548,Correct,sub_001_day_15_data.csv,1,300,121.0,Training at home,,,,,,,,,,,,,
1,14,3041,B,52.90118028125362,25.437956530137548,2.645059014062681,0.3995784867870832,B,52100.6371001713,Correct,sub_001_day_15_data.csv,1,300,121.0,Training at home,,,,,,,,,,,,,
1,14,3042,A,27.767053049792935,46.050438752558385,1.3883526524896468,0.7233586003981206,A,19357.177200261503,Correct,sub_001_day_15_data.csv,1,300,121.0,Training at home,,,,,,,,,,,,,
1,14,3043,A,67.07383454490943,86.58912515742121,3.353691727245472,1.360138797376608,A,596.5817999094725,Correct,sub_001_day_15_data.csv,1,300,121.0,Training at home,,,,,,,,,,,,,
1,14,3044,A,46.55159338899683,68.48535346428939,2.3275796694498414,1.0757654166095592,A,1993.3830997906623,Correct,sub_001_day_15_data.csv,1,300,121.0,Training at home,,,,,,,,,,,,,
1,14,3045,B,48.46839902501563,29.185578438921816,2.4234199512507812,0.4584459940724272,B,921.7149000614882,Correct,sub_001_day_15_data.csv,1,300,121.0,Training at home,,,,,,,,,,,,,
1,14,3046,B,71.58890019216699,59.68733971784687,3.5794450096083494,0.93756653984953,A,559.7292999736965,Incorrect,sub_001_day_15_data.csv,0,300,121.0,Training at home,,,,,,,,,,,,,
1,14,3047,A,42.918325640554364,50.4545057402266,2.1459162820277182,0.7925375228699998,A,617.0747000724077,Correct,sub_001_day_15_data.csv,1,300,121.0,Training at home,,,,,,,,,,,,,
1,14,3048,B,34.227086916380074,11.278366605269444,1.7113543458190037,0.1771601683580346,B,780.4892999120057,Correct,sub_001_day_15_data.csv,1,300,121.0,Training at home,,,,,,,,,,,,,
1,14,3049,B,88.78794068188074,62.96491909201531,4.439397034094037,0.9890506362667548,A,462.9810000769794,Incorrect,sub_001_day_15_data.csv,0,300,121.0,Training at home,,,,,,,,,,,,,
1,14,3050,B,82.02189467258837,53.90449752719552,4.101094733629418,0.8467298671344332,B,523.6688000150025,Correct,sub_001_day_15_data.csv,1,300,122.0,Training at home,,,,,,,,,,,,,
1,14,3051,B,51.82651594224281,40.07372161912549,2.59132579711214,0.6294765472032355,A,4372.28380003944,Incorrect,sub_001_day_15_data.csv,0,300,122.0,Training at home,,,,,,,,,,,,,
1,14,3052,A,35.06257529409981,50.03186711600783,1.7531287647049905,0.7858987308851547,A,696.3406000286341,Correct,sub_001_day_15_data.csv,1,300,122.0,Training at home,,,,,,,,,,,,,
1,14,3053,B,69.24844711472687,45.75621522017742,3.462422355736344,0.7187369479589143,A,523.6364002339542,Incorrect,sub_001_day_15_data.csv,0,300,122.0,Training at home,,,,,,,,,,,,,
1,14,3054,B,56.391268638005606,27.18964200527574,2.81956343190028,0.4270938978875536,A,1368.9422998577356,Incorrect,sub_001_day_15_data.csv,0,300,122.0,Training at home,,,,,,,,,,,,,
1,14,3055,A,66.20876977241672,84.84093529738242,3.310438488620836,1.3326782952697178,A,886.0956998541951,Correct,sub_001_day_15_data.csv,1,300,122.0,Training at home,,,,,,,,,,,,,
1,14,3056,A,45.759813788341454,75.5342733559954,2.287990689417073,1.186489591347192,A,1273.293700069189,Correct,sub_001_day_15_data.csv,1,300,122.0,Training at home,,,,,,,,,,,,,
1,14,3057,B,59.595445308257155,39.16157580099137,2.9797722654128576,0.6151485941969715,A,953.750000335276,Incorrect,sub_001_day_15_data.csv,0,300,122.0,Training at home,,,,,,,,,,,,,
1,14,3058,B,80.92321300975806,54.21434030735048,4.046160650487903,0.8515968661439464,A,553.1685003079474,Incorrect,sub_001_day_15_data.csv,0,300,122.0,Training at home,,,,,,,,,,,,,
1,14,3059,B,41.41612887615786,29.3993425994597,2.0708064438078932,0.4618037936541602,B,1298.0545000173151,Correct,sub_001_day_15_data.csv,1,300,122.0,Training at home,,,,,,,,,,,,,
1,14,3060,A,25.294310639938647,53.288998528281574,1.2647155319969323,0.8370616314680335,A,996.147199999541,Correct,sub_001_day_15_data.csv,1,300,122.0,Training at home,,,,,,,,,,,,,
1,14,3061,A,56.61264431620513,83.8165908479542,2.8306322158102564,1.3165879302843722,A,884.9050998687744,Correct,sub_001_day_15_data.csv,1,300,122.0,Training at home,,,,,,,,,,,,,
1,14,3062,A,59.33342373301521,84.90701330214814,2.9666711866507605,1.3337162461413972,A,870.6934996880591,Correct,sub_001_day_15_data.csv,1,300,122.0,Training at home,,,,,,,,,,,,,
1,14,3063,B,61.26683794940513,39.18464837373267,3.0633418974702566,0.615511017322089,B,1073.0852000415323,Correct,sub_001_day_15_data.csv,1,300,122.0,Training at home,,,,,,,,,,,,,
1,14,3064,A,43.07981098293298,58.47718680101127,2.1539905491466493,0.918557502283275,A,630.9997998178005,Correct,sub_001_day_15_data.csv,1,300,122.0,Training at home,,,,,,,,,,,,,
1,14,3065,B,40.02476490670384,23.711348155194163,2.001238245335192,0.3724569858553394,B,1563.9675999991596,Correct,sub_001_day_15_data.csv,1,300,122.0,Training at home,,,,,,,,,,,,,
1,14,3066,A,16.482671900772218,41.85782515960986,0.8241335950386108,0.6575011800833817,A,915.424299892038,Correct,sub_001_day_15_data.csv,1,300,122.0,Training at home,,,,,,,,,,,,,
1,14,3067,A,49.67214500966384,79.28814093962177,2.4836072504831916,1.2454552054635393,A,4899.102199822664,Correct,sub_001_day_15_data.csv,1,300,122.0,Training at home,,,,,,,,,,,,,
1,14,3068,A,26.549212280917335,41.72103499411919,1.327460614045867,0.6553524851884376,A,2393.6874996870756,Correct,sub_001_day_15_data.csv,1,300,122.0,Training at home,,,,,,,,,,,,,
1,14,3069,A,34.46368288774491,42.812075533487615,1.7231841443872455,0.6724905099046802,A,681.0229001566768,Correct,sub_001_day_15_data.csv,1,300,122.0,Training at home,,,,,,,,,,,,,
1,14,3070,B,61.004196647434114,32.52062470987682,3.050209832371706,0.5108327783934986,A,1385.8631001785398,Incorrect,sub_001_day_15_data.csv,0,300,122.0,Training at home,,,,,,,,,,,,,
1,14,3071,A,36.2841944171056,65.00318403220447,1.81420972085528,1.0210676270775945,A,594.5629999041557,Correct,sub_001_day_15_data.csv,1,300,122.0,Training at home,,,,,,,,,,,,,
1,14,3072,B,43.81626218881382,31.64708325526106,2.190813109440691,0.4971112213113635,A,1327.1457999944687,Incorrect,sub_001_day_15_data.csv,0,300,122.0,Training at home,,,,,,,,,,,,,
1,14,3073,B,43.37155973147827,16.764636493482215,2.1685779865739137,0.2633382942401354,B,838.9649000018835,Correct,sub_001_day_15_data.csv,1,300,122.0,Training at home,,,,,,,,,,,,,
1,14,3074,B,51.70475019861229,34.79536329890755,2.585237509930614,0.5465642885941794,B,705.2206001244485,Correct,sub_001_day_15_data.csv,1,300,122.0,Training at home,,,,,,,,,,,,,
1,14,3075,B,44.69336549923939,19.16507241396218,2.2346682749619697,0.3010442535060998,B,3358.912600204349,Correct,sub_001_day_15_data.csv,1,300,123.0,Training at home,,,,,,,,,,,,,
1,14,3076,A,34.14685176796474,59.91063552949034,1.707342588398237,0.9410740622567126,A,529.1814999654889,Correct,sub_001_day_15_data.csv,1,300,123.0,Training at home,,,,,,,,,,,,,
1,14,3077,A,44.5583843834099,64.79614259019321,2.227919219170495,1.0178154277115383,A,1341.4651001803577,Correct,sub_001_day_15_data.csv,1,300,123.0,Training at home,,,,,,,,,,,,,
1,14,3078,A,18.65877814683114,44.37261424987706,0.9329389073415568,0.6970033947399378,B,1762.820600066334,Incorrect,sub_001_day_15_data.csv,0,300,123.0,Training at home,,,,,,,,,,,,,
1,14,3079,A,45.06288707217276,55.4589240786764,2.253144353608638,0.8711467423078193,A,2158.600900322199,Correct,sub_001_day_15_data.csv,1,300,123.0,Training at home,,,,,,,,,,,,,
1,14,3080,A,29.48832885619602,51.644662672783944,1.4744164428098008,0.8112324642497053,A,1653.4994998946786,Correct,sub_001_day_15_data.csv,1,300,123.0,Training at home,,,,,,,,,,,,,
1,14,3081,A,24.07809838592344,39.69214804653911,1.203904919296172,0.6234828035410287,A,2396.8422999605536,Correct,sub_001_day_15_data.csv,1,300,123.0,Training at home,,,,,,,,,,,,,
1,14,3082,A,66.82901304676204,84.53147914423357,3.3414506523381022,1.3278173693830149,A,1928.355900105089,Correct,sub_001_day_15_data.csv,1,300,123.0,Training at home,,,,,,,,,,,,,
1,14,3083,B,42.40799219099722,30.222086210845855,2.120399609549861,0.4747274200807536,B,1177.4879996664822,Correct,sub_001_day_15_data.csv,1,300,123.0,Training at home,,,,,,,,,,,,,
1,14,3084,A,53.80384024905716,64.7703159686221,2.690192012452858,1.0174097440885643,A,1883.2367998547852,Correct,sub_001_day_15_data.csv,1,300,123.0,Training at home,,,,,,,,,,,,,
1,14,3085,B,51.89731749337202,44.89136358121091,2.594865874668601,0.7051518901818029,B,4794.14019966498,Correct,sub_001_day_15_data.csv,1,300,123.0,Training at home,,,,,,,,,,,,,
1,14,3086,A,14.264363680752645,43.12296587616035,0.7132181840376322,0.6773739639877434,A,3232.4884003028274,Correct,sub_001_day_15_data.csv,1,300,123.0,Training at home,,,,,,,,,,,,,
1,14,3087,A,10.367095774333048,34.842375523211714,0.5183547887166524,0.5473027548866937,A,654.9684000201523,Correct,sub_001_day_15_data.csv,1,300,123.0,Training at home,,,,,,,,,,,,,
1,14,3088,B,46.64713944061994,28.011586938027783,2.332356972030997,0.4400049786994994,B,3267.096999567002,Correct,sub_001_day_15_data.csv,1,300,123.0,Training at home,,,,,,,,,,,,,
1,14,3089,A,19.026625675157835,43.02049682815327,0.9513312837578916,0.6757643839455465,A,874.3582000024617,Correct,sub_001_day_15_data.csv,1,300,123.0,Training at home,,,,,,,,,,,,,
1,14,3090,B,37.57222626180561,19.591505740289364,1.8786113130902808,0.3077426525322766,B,996.7064000666142,Correct,sub_001_day_15_data.csv,1,300,123.0,Training at home,,,,,,,,,,,,,
1,14,3091,B,69.12288669221547,53.42932042196999,3.456144334610774,0.8392658026197801,A,685.877799987793,Incorrect,sub_001_day_15_data.csv,0,300,123.0,Training at home,,,,,,,,,,,,,
1,14,3092,B,35.5215742540893,14.221982770267823,1.776078712704465,0.22339838295277,B,2048.255799803883,Correct,sub_001_day_15_data.csv,1,300,123.0,Training at home,,,,,,,,,,,,,
1,14,3093,B,52.332010349218365,26.21311011635543,2.616600517460918,0.4117545708464126,B,6000.83710020408,Correct,sub_001_day_15_data.csv,1,300,123.0,Training at home,,,,,,,,,,,,,
1,14,3094,B,56.77664092928689,28.106086765012307,2.838832046464345,0.4414893785105999,B,5284.940799698234,Correct,sub_001_day_15_data.csv,1,300,123.0,Training at home,,,,,,,,,,,,,
1,14,3095,B,75.4800354018511,51.770595374470375,3.774001770092555,0.8132106105020293,B,1645.0002999044957,Correct,sub_001_day_15_data.csv,1,300,123.0,Training at home,,,,,,,,,,,,,
1,14,3096,B,48.01377689777179,20.045239270218232,2.4006888448885895,0.3148698821538361,B,1745.1820001006126,Correct,sub_001_day_15_data.csv,1,300,123.0,Training at home,,,,,,,,,,,,,
1,14,3097,B,43.34588609879059,35.100166887411056,2.1672943049395292,0.5513521321663314,B,2331.199400126934,Correct,sub_001_day_15_data.csv,1,300,123.0,Training at home,,,,,,,,,,,,,
1,14,3098,B,66.59634497542571,57.80306549091181,3.3298172487712856,0.9079684295060912,A,2138.6440000496805,Incorrect,sub_001_day_15_data.csv,0,300,123.0,Training at home,,,,,,,,,,,,,
1,14,3099,A,17.242248043067274,32.064669355412605,0.8621124021533637,0.5036706484337501,A,460.4959995485842,Correct,sub_001_day_15_data.csv,1,300,123.0,Training at home,,,,,,,,,,,,,
1,14,3100,B,51.64842039696074,31.90719754640567,2.582421019848037,0.5011970870421316,B,1400.2145999111235,Correct,sub_001_day_15_data.csv,1,300,124.0,Training at home,,,,,,,,,,,,,
1,14,3101,A,37.52035963901931,63.40690158060291,1.8760179819509657,0.9959932809625656,A,1570.8733997307718,Correct,sub_001_day_15_data.csv,1,300,124.0,Training at home,,,,,,,,,,,,,
1,14,3102,B,68.35241110562174,53.03408087588935,3.417620555281087,0.8330573943479046,A,745.0115997344255,Incorrect,sub_001_day_15_data.csv,0,300,124.0,Training at home,,,,,,,,,,,,,
1,14,3103,A,20.86266884022576,40.36307457642188,1.043133442011288,0.6340216928279196,A,617.3609001561999,Correct,sub_001_day_15_data.csv,1,300,124.0,Training at home,,,,,,,,,,,,,
1,14,3104,A,64.42729751028794,84.94766107679648,3.221364875514397,1.334354739892497,B,837.4167000874877,Incorrect,sub_001_day_15_data.csv,0,300,124.0,Training at home,,,,,,,,,,,,,
1,14,3105,A,17.26975625730391,42.95919598820472,0.8634878128651955,0.6748014726033402,A,1561.689400114119,Correct,sub_001_day_15_data.csv,1,300,124.0,Training at home,,,,,,,,,,,,,
1,14,3106,B,56.8111131217778,48.25600853105327,2.84055565608889,0.7580036094636166,B,1037.4580002389848,Correct,sub_001_day_15_data.csv,1,300,124.0,Training at home,,,,,,,,,,,,,
1,14,3107,B,46.37570142487807,33.62714995272359,2.3187850712439033,0.528214036263194,B,2351.164299994707,Correct,sub_001_day_15_data.csv,1,300,124.0,Training at home,,,,,,,,,,,,,
1,14,3108,B,62.7606261813204,50.33281913114111,3.13803130906602,0.7906260740842834,B,895.2743001282215,Correct,sub_001_day_15_data.csv,1,300,124.0,Training at home,,,,,,,,,,,,,
1,14,3109,A,38.33460530988611,71.25694083105141,1.9167302654943057,1.1193014091605684,A,754.5552998781204,Correct,sub_001_day_15_data.csv,1,300,124.0,Training at home,,,,,,,,,,,,,
1,14,3110,A,13.894482915680545,40.051143413664846,0.6947241457840272,0.6291218895812035,A,857.3212004266679,Correct,sub_001_day_15_data.csv,1,300,124.0,Training at home,,,,,,,,,,,,,
1,14,3111,A,31.80199503925641,64.96438980122173,1.5900997519628206,1.0204582487223095,A,2522.3476998507977,Correct,sub_001_day_15_data.csv,1,300,124.0,Training at home,,,,,,,,,,,,,
1,14,3112,A,44.70772230964451,59.99811583769542,2.2353861154822257,0.9424481997246668,A,1482.0137000642717,Correct,sub_001_day_15_data.csv,1,300,124.0,Training at home,,,,,,,,,,,,,
1,14,3113,B,49.81626974718013,42.28812922575246,2.490813487359006,0.6642603805483988,A,881.4234999008477,Incorrect,sub_001_day_15_data.csv,0,300,124.0,Training at home,,,,,,,,,,,,,
1,14,3114,B,52.57343087915497,34.19994207143954,2.6286715439577484,0.5372114338241547,A,1535.8564998023212,Incorrect,sub_001_day_15_data.csv,0,300,124.0,Training at home,,,,,,,,,,,,,
1,14,3115,B,72.90762551634221,47.36319188137643,3.64538127581711,0.7439792783254796,B,1595.8505002781749,Correct,sub_001_day_15_data.csv,1,300,124.0,Training at home,,,,,,,,,,,,,
1,14,3116,B,81.34759341438289,56.460418122770214,4.067379670719145,0.8868781739655145,B,2665.001300163567,Correct,sub_001_day_15_data.csv,1,300,124.0,Training at home,,,,,,,,,,,,,
1,14,3117,B,66.41156175989475,55.29070766148521,3.320578087994738,0.868504405005514,B,1206.9761999882758,Correct,sub_001_day_15_data.csv,1,300,124.0,Training at home,,,,,,,,,,,,,
1,14,3118,B,43.69188738818879,21.142219759110336,2.184594369409439,0.33210121137901,B,769.0413002856076,Correct,sub_001_day_15_data.csv,1,300,124.0,Training at home,,,,,,,,,,,,,
1,14,3119,B,44.027695901540255,28.89530866566887,2.2013847950770127,0.453886447136374,B,1009.6199000254272,Correct,sub_001_day_15_data.csv,1,300,124.0,Training at home,,,,,,,,,,,,,
1,14,3120,B,85.42300834590682,65.83742321165339,4.271150417295342,1.034171825465062,A,1099.1156003437936,Incorrect,sub_001_day_15_data.csv,0,300,124.0,Training at home,,,,,,,,,,,,,
1,14,3121,A,19.838689428117885,37.8092199534255,0.9919344714058944,0.5939058382182109,A,846.0714002139866,Correct,sub_001_day_15_data.csv,1,300,124.0,Training at home,,,,,,,,,,,,,
1,14,3122,A,41.79022388477867,61.003987968544315,2.0895111942389333,0.9582484022082948,A,1781.3300001434982,Correct,sub_001_day_15_data.csv,1,300,124.0,Training at home,,,,,,,,,,,,,
1,14,3123,A,57.70733212099083,86.10227561580844,2.8853666060495415,1.352491382659937,A,681.3032003119588,Correct,sub_001_day_15_data.csv,1,300,124.0,Training at home,,,,,,,,,,,,,
1,14,3124,B,54.11504413035685,31.293200156217065,2.7057522065178428,0.4915524385904324,B,1336.2904996611178,Correct,sub_001_day_15_data.csv,1,300,124.0,Training at home,,,,,,,,,,,,,
1,14,3125,A,63.827489894305174,76.84857320823069,3.1913744947152587,1.2071345651491745,A,6555.526599753648,Correct,sub_001_day_15_data.csv,1,300,125.0,Training at home,,,,,,,,,,,,,
1,14,3126,A,16.53338903732859,30.804943144430368,0.8266694518664295,0.4838829153839685,A,660.9923001378775,Correct,sub_001_day_15_data.csv,1,300,125.0,Training at home,,,,,,,,,,,,,
1,14,3127,B,62.773726932797885,54.475450503569334,3.1386863466398944,0.855698375515039,A,938.5948996059597,Incorrect,sub_001_day_15_data.csv,0,300,125.0,Training at home,,,,,,,,,,,,,
1,14,3128,A,57.64816689878202,80.75055586660636,2.8824083449391016,1.2684267654191137,A,708.4982004016638,Correct,sub_001_day_15_data.csv,1,300,125.0,Training at home,,,,,,,,,,,,,
1,14,3129,B,51.38625378162504,29.611030529716167,2.569312689081252,0.465128979886897,B,1380.7426001876593,Correct,sub_001_day_15_data.csv,1,300,125.0,Training at home,,,,,,,,,,,,,
1,14,3130,A,41.539317781762094,68.19050448096613,2.076965889088105,1.071133939609925,A,2565.4242001473904,Correct,sub_001_day_15_data.csv,1,300,125.0,Training at home,,,,,,,,,,,,,
1,14,3131,A,35.78764227546311,46.408144292459426,1.7893821137731551,0.7289774258796281,B,12978.25640020892,Incorrect,sub_001_day_15_data.csv,0,300,125.0,Training at home,,,,,,,,,,,,,
1,14,3132,A,21.91963333903237,48.54306238981154,1.0959816669516185,0.7625126409329146,A,3424.8279999010265,Correct,sub_001_day_15_data.csv,1,300,125.0,Training at home,,,,,,,,,,,,,
1,14,3133,A,28.671224480613276,39.585934665977234,1.4335612240306637,0.621814407660598,B,1900.246299803257,Incorrect,sub_001_day_15_data.csv,0,300,125.0,Training at home,,,,,,,,,,,,,
1,14,3134,A,20.551528786768312,43.970150777920026,1.0275764393384157,0.6906815133057453,A,3157.8684002161026,Correct,sub_001_day_15_data.csv,1,300,125.0,Training at home,,,,,,,,,,,,,
1,14,3135,B,53.99319262934331,24.803150754536148,2.6996596314671653,0.3896069809816544,B,4185.723400209099,Correct,sub_001_day_15_data.csv,1,300,125.0,Training at home,,,,,,,,,,,,,
1,14,3136,A,63.611198058717065,77.29647705624454,3.180559902935853,1.2141702223413493,A,1646.9046003185213,Correct,sub_001_day_15_data.csv,1,300,125.0,Training at home,,,,,,,,,,,,,
1,14,3137,A,35.171209099903955,45.856309829682154,1.758560454995198,0.7203092304083343,B,1196.9753000885248,Incorrect,sub_001_day_15_data.csv,0,300,125.0,Training at home,,,,,,,,,,,,,
1,14,3138,B,55.70672429231797,29.508188141539883,2.7853362146158984,0.4635135354310358,B,850.4087002947927,Correct,sub_001_day_15_data.csv,1,300,125.0,Training at home,,,,,,,,,,,,,
1,14,3139,B,63.649590049297544,31.286171640983905,3.1824795024648775,0.4914420349313217,B,1698.638299945742,Correct,sub_001_day_15_data.csv,1,300,125.0,Training at home,,,,,,,,,,,,,
1,14,3140,A,42.234168575004254,54.55330227149186,2.111708428750213,0.856921268225911,A,1148.1627998873591,Correct,sub_001_day_15_data.csv,1,300,125.0,Training at home,,,,,,,,,,,,,
1,14,3141,A,19.526254321292217,48.93079967457805,0.9763127160646108,0.7686032039596411,A,4557.765900157392,Correct,sub_001_day_15_data.csv,1,300,125.0,Training at home,,,,,,,,,,,,,
1,14,3142,B,66.34989634336812,43.68909036038632,3.3174948171684058,0.6862666265910515,B,1656.0976998880506,Correct,sub_001_day_15_data.csv,1,300,125.0,Training at home,,,,,,,,,,,,,
1,14,3143,B,84.52555534994886,67.69368347748484,4.226277767497443,1.0633298935364957,B,2492.2814001329243,Correct,sub_001_day_15_data.csv,1,300,125.0,Training at home,,,,,,,,,,,,,
1,14,3144,B,86.35459314864268,57.8569911057501,4.3177296574321335,0.9088154910831724,B,822.2667998634279,Correct,sub_001_day_15_data.csv,1,300,125.0,Training at home,,,,,,,,,,,,,
1,14,3145,B,83.18132517471975,52.663615825929945,4.1590662587359875,0.8272381429510833,B,904.818299692124,Correct,sub_001_day_15_data.csv,1,300,125.0,Training at home,,,,,,,,,,,,,
1,14,3146,B,43.262519124845085,14.79216864479258,2.1631259562422542,0.2323548417257082,B,1363.3809997700157,Correct,sub_001_day_15_data.csv,1,300,125.0,Training at home,,,,,,,,,,,,,
1,14,3147,A,29.281824666644408,39.37329390181374,1.4640912333322202,0.6184742543478492,B,1423.8213002681732,Incorrect,sub_001_day_15_data.csv,0,300,125.0,Training at home,,,,,,,,,,,,,
1,14,3148,B,79.75797681186424,66.5951719793582,3.987898840593212,1.0460745152745028,B,816.3284999318421,Correct,sub_001_day_15_data.csv,1,300,125.0,Training at home,,,,,,,,,,,,,
1,14,3149,A,15.961983281593294,43.19014055733895,0.7980991640796646,0.6784291414122331,A,505.33950002864,Correct,sub_001_day_15_data.csv,1,300,125.0,Training at home,,,,,,,,,,,,,
1,14,3150,B,63.56812098658946,53.176084476208,3.1784060493294732,0.8352879816856265,B,4212.362200021744,Correct,sub_001_day_15_data.csv,1,300,126.0,Training at home,,,,,,,,,,,,,
1,14,3151,A,48.77783557959307,63.47296838817384,2.4388917789796536,0.9970310559491206,A,3216.6701001115143,Correct,sub_001_day_15_data.csv,1,300,126.0,Training at home,,,,,,,,,,,,,
1,14,3152,A,65.46757170398442,85.86985487355888,3.2733785851992208,1.3488405261779712,A,810.0391998887062,Correct,sub_001_day_15_data.csv,1,300,126.0,Training at home,,,,,,,,,,,,,
1,14,3153,B,54.50365223188943,42.37418063066812,2.7251826115944713,0.6656120728559694,B,1465.228599961847,Correct,sub_001_day_15_data.csv,1,300,126.0,Training at home,,,,,,,,,,,,,
1,14,3154,A,52.41374566326672,72.53874631422195,2.620687283163336,1.1394359626068669,A,2738.8200000859797,Correct,sub_001_day_15_data.csv,1,300,126.0,Training at home,,,,,,,,,,,,,
1,14,3155,A,55.82984271491927,65.6211479850714,2.7914921357459637,1.030774582150145,A,4718.9307999797165,Correct,sub_001_day_15_data.csv,1,300,126.0,Training at home,,,,,,,,,,,,,
1,14,3156,A,20.181435020146743,36.91674900583041,1.0090717510073373,0.5798869373556755,A,1337.6621999777851,Correct,sub_001_day_15_data.csv,1,300,126.0,Training at home,,,,,,,,,,,,,
1,14,3157,B,65.93065251244674,38.21828997380539,3.296532625622337,0.6003314950723572,B,1845.8874002099035,Correct,sub_001_day_15_data.csv,1,300,126.0,Training at home,,,,,,,,,,,,,
1,14,3158,B,52.390920199448104,42.77351282253368,2.619546009972405,0.6718847682575031,B,1779.9295000731945,Correct,sub_001_day_15_data.csv,1,300,126.0,Training at home,,,,,,,,,,,,,
1,14,3159,A,24.68692306166148,37.72007088552431,1.234346153083074,0.5925054879342471,A,1995.111099909991,Correct,sub_001_day_15_data.csv,1,300,126.0,Training at home,,,,,,,,,,,,,
1,14,3160,B,52.432637496865574,20.97948950873415,2.6216318748432785,0.3295450505835167,B,1388.2677000947297,Correct,sub_001_day_15_data.csv,1,300,126.0,Training at home,,,,,,,,,,,,,
1,14,3161,B,41.92906229767999,13.975522671090404,2.0964531148839995,0.219526996767876,B,1350.1427001319826,Correct,sub_001_day_15_data.csv,1,300,126.0,Training at home,,,,,,,,,,,,,
1,14,3162,B,77.71152212288018,55.07458607264552,3.885576106144009,0.8651095750266096,A,1430.2781000733376,Incorrect,sub_001_day_15_data.csv,0,300,126.0,Training at home,,,,,,,,,,,,,
1,14,3163,A,38.52682635503823,69.38929386484692,1.9263413177519115,1.089964479217932,A,863.5501000098884,Correct,sub_001_day_15_data.csv,1,300,126.0,Training at home,,,,,,,,,,,,,
1,14,3164,A,53.52026758230882,77.2956183741565,2.676013379115441,1.2141567341946515,A,1966.2119001150131,Correct,sub_001_day_15_data.csv,1,300,126.0,Training at home,,,,,,,,,,,,,
1,14,3165,B,54.89479481837209,39.21593900214403,2.7447397409186043,0.6160025293638057,B,1029.621200170368,Correct,sub_001_day_15_data.csv,1,300,126.0,Training at home,,,,,,,,,,,,,
1,14,3166,B,42.17657589378024,33.427299954143024,2.108828794689012,0.5250747998263908,A,1363.2248998619616,Incorrect,sub_001_day_15_data.csv,0,300,126.0,Training at home,,,,,,,,,,,,,
1,14,3167,B,43.85918880270951,18.78667298366595,2.1929594401354757,0.2951003691543939,B,846.3021996431053,Correct,sub_001_day_15_data.csv,1,300,126.0,Training at home,,,,,,,,,,,,,
1,14,3168,B,42.31861553683626,30.72189821937142,2.115930776841813,0.482578448751553,B,2276.1035999283195,Correct,sub_001_day_15_data.csv,1,300,126.0,Training at home,,,,,,,,,,,,,
1,14,3169,A,27.845502384773873,42.474952043849385,1.3922751192386935,0.66719498651268,B,4762.047799769789,Incorrect,sub_001_day_15_data.csv,0,300,126.0,Training at home,,,,,,,,,,,,,
1,14,3170,A,50.96514089762739,79.57544541863041,2.5482570448813697,1.2499681736665242,A,3100.214600097388,Correct,sub_001_day_15_data.csv,1,300,126.0,Training at home,,,,,,,,,,,,,
1,14,3171,B,84.10440386354941,60.17532001685847,4.20522019317747,0.9452317164618872,B,1450.8646000176668,Correct,sub_001_day_15_data.csv,1,300,126.0,Training at home,,,,,,,,,,,,,
1,14,3172,B,52.71900413232409,41.46541130362628,2.6359502066162044,0.6513371576477576,B,1493.4422997757792,Correct,sub_001_day_15_data.csv,1,300,126.0,Training at home,,,,,,,,,,,,,
1,14,3173,B,30.769922657412515,12.031049406571997,1.5384961328706257,0.1889832821533121,B,1750.049900263548,Correct,sub_001_day_15_data.csv,1,300,126.0,Training at home,,,,,,,,,,,,,
1,14,3174,B,62.86846170234093,54.30635951648607,3.143423085117046,0.8530423005009939,A,1447.3584000952542,Incorrect,sub_001_day_15_data.csv,0,300,126.0,Training at home,,,,,,,,,,,,,
1,14,3175,A,22.09602947804277,50.957913495819234,1.1048014739021383,0.8004450334036493,A,1708.59199995175,Correct,sub_001_day_15_data.csv,1,300,127.0,Training at home,,,,,,,,,,,,,
1,14,3176,A,31.68219184730536,50.45814238917218,1.5841095923652682,0.7925946472180553,A,926.4984000474216,Correct,sub_001_day_15_data.csv,1,300,127.0,Training at home,,,,,,,,,,,,,
1,14,3177,A,17.221633878899244,33.28154447604118,0.8610816939449621,0.5227852781302645,A,1301.1249997653067,Correct,sub_001_day_15_data.csv,1,300,127.0,Training at home,,,,,,,,,,,,,
1,14,3178,A,68.66169674342771,84.6044192020911,3.433084837171385,1.3289631091326028,A,1669.666999951005,Correct,sub_001_day_15_data.csv,1,300,127.0,Training at home,,,,,,,,,,,,,
1,14,3179,B,65.21065862810492,54.52553566407026,3.260532931405246,0.8564851113764569,B,1512.3000000603497,Correct,sub_001_day_15_data.csv,1,300,127.0,Training at home,,,,,,,,,,,,,
1,14,3180,B,80.67660866811089,58.045058507684686,4.033830433405544,0.9117696469246596,B,1128.2430002465844,Correct,sub_001_day_15_data.csv,1,300,127.0,Training at home,,,,,,,,,,,,,
1,14,3181,B,62.90307217465936,41.18917280243235,3.145153608732968,0.6469980134178098,A,1057.6283000409603,Incorrect,sub_001_day_15_data.csv,0,300,127.0,Training at home,,,,,,,,,,,,,
1,14,3182,B,70.07457079566767,47.18277042718076,3.5037285397833835,0.7411452247502242,B,710.1496001705527,Correct,sub_001_day_15_data.csv,1,300,127.0,Training at home,,,,,,,,,,,,,
1,14,3183,B,66.53690662907889,52.84769575389782,3.3268453314539443,0.8301296636979695,B,758.4953000769019,Correct,sub_001_day_15_data.csv,1,300,127.0,Training at home,,,,,,,,,,,,,
1,14,3184,A,33.522897036988084,53.58601851031691,1.676144851849404,0.8417272104356914,B,1143.4960002079606,Incorrect,sub_001_day_15_data.csv,0,300,127.0,Training at home,,,,,,,,,,,,,
1,14,3185,A,15.274955875214951,35.30296210137526,0.7637477937607478,0.5545376319381969,A,590.7880999147892,Correct,sub_001_day_15_data.csv,1,300,127.0,Training at home,,,,,,,,,,,,,
1,14,3186,A,57.89327021904092,66.48692782972928,2.8946635109520464,1.0443742201481614,A,817.9081003181636,Correct,sub_001_day_15_data.csv,1,300,127.0,Training at home,,,,,,,,,,,,,
1,14,3187,B,71.5244571507064,49.707302917855486,3.5762228575353197,0.7808004883824864,A,1482.6900004409254,Incorrect,sub_001_day_15_data.csv,0,300,127.0,Training at home,,,,,,,,,,,,,
1,14,3188,A,25.146178088879232,55.89799837752803,1.2573089044439616,0.8780437052660812,A,580.1795003935695,Correct,sub_001_day_15_data.csv,1,300,127.0,Training at home,,,,,,,,,,,,,
1,14,3189,B,31.948313777344296,11.616436086646374,1.5974156888672149,0.1824705513535181,B,2252.134100068361,Correct,sub_001_day_15_data.csv,1,300,127.0,Training at home,,,,,,,,,,,,,
1,14,3190,B,40.79457134233373,21.774127005307054,2.0397285671166867,0.3420271871910189,B,20774.87409999594,Correct,sub_001_day_15_data.csv,1,300,127.0,Training at home,,,,,,,,,,,,,
1,14,3191,B,48.82956636466167,22.341577238569982,2.4414783182330835,0.350940674611502,B,686.4656996913254,Correct,sub_001_day_15_data.csv,1,300,127.0,Training at home,,,,,,,,,,,,,
1,14,3192,A,37.32780738419094,48.825768402002275,1.8663903692095472,0.7669533765880352,A,659.668399952352,Correct,sub_001_day_15_data.csv,1,300,127.0,Training at home,,,,,,,,,,,,,
1,14,3193,A,63.644183836391704,82.57788850988236,3.182209191819585,1.297130439458017,A,1838.1125000305472,Correct,sub_001_day_15_data.csv,1,300,127.0,Training at home,,,,,,,,,,,,,
1,14,3194,A,43.92517857543545,75.79426307852707,2.1962589287717726,1.1905735003587634,A,1045.34720024094,Correct,sub_001_day_15_data.csv,1,300,127.0,Training at home,,,,,,,,,,,,,
1,14,3195,A,17.214438739844798,38.28785926673277,0.8607219369922399,0.6014242869702378,A,1315.742400009185,Correct,sub_001_day_15_data.csv,1,300,127.0,Training at home,,,,,,,,,,,,,
1,14,3196,A,25.420006301532116,37.85782239803116,1.2710003150766058,0.5946692836328091,A,1880.2247000858188,Correct,sub_001_day_15_data.csv,1,300,127.0,Training at home,,,,,,,,,,,,,
1,14,3197,A,12.267733612306206,31.406978068651757,0.6133866806153102,0.4933396578596605,A,902.4796998128296,Correct,sub_001_day_15_data.csv,1,300,127.0,Training at home,,,,,,,,,,,,,
1,14,3198,B,43.992669791604015,31.909832773973676,2.1996334895802008,0.5012384810999725,A,803.5845002159476,Incorrect,sub_001_day_15_data.csv,0,300,127.0,Training at home,,,,,,,,,,,,,
1,14,3199,B,52.91628580553761,23.3143210739459,2.6458142902768804,0.3662204990467108,B,4313.5255998931825,Correct,sub_001_day_15_data.csv,1,300,127.0,Training at home,,,,,,,,,,,,,
1,14,3200,A,33.418092550956686,51.30592803840496,1.6709046275478343,0.805911633055298,A,626.9144001416862,Correct,sub_001_day_15_data.csv,1,300,128.0,Training at home,,,,,,,,,,,,,
1,14,3201,B,67.62450522593102,41.58766480297667,3.3812252612965508,0.6532575111249316,A,833.8152999058366,Incorrect,sub_001_day_15_data.csv,0,300,128.0,Training at home,,,,,,,,,,,,,
1,14,3202,A,53.02856458011832,78.10460442939775,2.651428229005916,1.226864257434664,A,664.5289002917707,Correct,sub_001_day_15_data.csv,1,300,128.0,Training at home,,,,,,,,,,,,,
1,14,3203,A,11.348684366007202,31.82399075063,0.5674342183003601,0.4998900777504437,A,2101.36489989236,Correct,sub_001_day_15_data.csv,1,300,128.0,Training at home,,,,,,,,,,,,,
1,14,3204,B,88.81562467785655,65.20811101271266,4.440781233892827,1.024286612560029,A,843.3085000142455,Incorrect,sub_001_day_15_data.csv,0,300,128.0,Training at home,,,,,,,,,,,,,
1,14,3205,A,43.82843179165724,54.50173563102255,2.1914215895828617,0.8561112613315675,A,716.8831001035869,Correct,sub_001_day_15_data.csv,1,300,128.0,Training at home,,,,,,,,,,,,,
1,14,3206,A,53.16634165922412,64.214420838052,2.658317082961206,1.0086777637967377,A,557.1364001370966,Correct,sub_001_day_15_data.csv,1,300,128.0,Training at home,,,,,,,,,,,,,
1,14,3207,A,45.67826345669776,60.32164155445569,2.2839131728348883,0.947530129799774,A,1329.9695998430252,Correct,sub_001_day_15_data.csv,1,300,128.0,Training at home,,,,,,,,,,,,,
1,14,3208,B,70.6035127478888,59.95447016870661,3.5301756373944397,0.9417626151593854,A,811.364300083369,Incorrect,sub_001_day_15_data.csv,0,300,128.0,Training at home,,,,,,,,,,,,,
1,14,3209,B,48.959859735382935,29.15927359750853,2.4479929867691466,0.458032798589738,A,733.1857001408935,Incorrect,sub_001_day_15_data.csv,0,300,128.0,Training at home,,,,,,,,,,,,,
1,14,3210,B,47.86225224591291,37.171213131338654,2.3931126122956456,0.5838840504921697,B,513.4958000853658,Correct,sub_001_day_15_data.csv,1,300,128.0,Training at home,,,,,,,,,,,,,
1,14,3211,A,48.56987251043184,60.25811453077465,2.4284936255215923,0.94653224964527,A,1123.1263000518084,Correct,sub_001_day_15_data.csv,1,300,128.0,Training at home,,,,,,,,,,,,,
1,14,3212,A,30.533413514247712,41.7124763099317,1.5266706757123856,0.6552180456915986,A,612.224499695003,Correct,sub_001_day_15_data.csv,1,300,128.0,Training at home,,,,,,,,,,,,,
1,14,3213,B,44.86331633995744,32.957319044960705,2.243165816997872,0.5176923569683176,A,749.0914002992213,Incorrect,sub_001_day_15_data.csv,0,300,128.0,Training at home,,,,,,,,,,,,,
1,14,3214,B,78.86707418325906,63.44552810960464,3.943353709162954,0.9966000250612932,B,2177.522399928421,Correct,sub_001_day_15_data.csv,1,300,128.0,Training at home,,,,,,,,,,,,,
1,14,3215,B,83.85762900223214,68.99514498787062,4.192881450111607,1.083773203136285,B,2498.535799793899,Correct,sub_001_day_15_data.csv,1,300,128.0,Training at home,,,,,,,,,,,,,
1,14,3216,B,80.34568046788141,67.33342418651102,4.01728402339407,1.0576709538269415,B,1269.5919997058809,Correct,sub_001_day_15_data.csv,1,300,128.0,Training at home,,,,,,,,,,,,,
1,14,3217,A,49.81495019573557,65.6748996441198,2.4907475097867784,1.0316189112360683,A,602.0646002143621,Correct,sub_001_day_15_data.csv,1,300,128.0,Training at home,,,,,,,,,,,,,
1,14,3218,A,16.62924212684187,41.32654702708143,0.8314621063420935,0.6491558826925606,A,1545.454100240022,Correct,sub_001_day_15_data.csv,1,300,128.0,Training at home,,,,,,,,,,,,,
1,14,3219,A,42.24418477835722,71.21712052919999,2.1122092389178615,1.1186759133217676,A,665.8952999860048,Correct,sub_001_day_15_data.csv,1,300,128.0,Training at home,,,,,,,,,,,,,
1,14,3220,A,26.882049817178356,38.105423330620376,1.344102490858918,0.5985585899870304,B,5901.234499644488,Incorrect,sub_001_day_15_data.csv,0,300,128.0,Training at home,,,,,,,,,,,,,
1,14,3221,B,63.77714086377005,51.8363298647853,3.188857043188502,0.8142431654613335,B,3800.071500241757,Correct,sub_001_day_15_data.csv,1,300,128.0,Training at home,,,,,,,,,,,,,
1,14,3222,B,51.36705713342232,34.09684842968349,2.568352856671116,0.5355920426862916,B,767.7504001185298,Correct,sub_001_day_15_data.csv,1,300,128.0,Training at home,,,,,,,,,,,,,
1,14,3223,A,54.566661863088385,70.80528477494686,2.728333093154419,1.1122068124215312,A,1360.1711001247168,Correct,sub_001_day_15_data.csv,1,300,128.0,Training at home,,,,,,,,,,,,,
1,14,3224,B,80.03395473058725,61.260086244925745,4.001697736529363,0.9622711845266794,B,3145.348899997771,Correct,sub_001_day_15_data.csv,1,300,128.0,Training at home,,,,,,,,,,,,,
1,14,3225,A,34.73889670041349,45.590669333190064,1.7369448350206744,0.7161365592469568,B,1482.0288997143507,Incorrect,sub_001_day_15_data.csv,0,300,129.0,Training at home,,,,,,,,,,,,,
1,14,3226,B,56.73990565766647,38.74041404579795,2.8369952828833234,0.6085330008165284,A,5289.744200184941,Incorrect,sub_001_day_15_data.csv,0,300,129.0,Training at home,,,,,,,,,,,,,
1,14,3227,B,59.601118586529296,33.217754452421474,2.980055929326465,0.5217832667823846,B,1120.4049000516534,Correct,sub_001_day_15_data.csv,1,300,129.0,Training at home,,,,,,,,,,,,,
1,14,3228,A,18.214427696100085,37.65855831697678,0.9107213848050044,0.5915392507669853,A,2204.3452002108097,Correct,sub_001_day_15_data.csv,1,300,129.0,Training at home,,,,,,,,,,,,,
1,14,3229,B,55.3756402648435,48.38626086219432,2.7687820132421748,0.760049608296745,B,1075.9300999343395,Correct,sub_001_day_15_data.csv,1,300,129.0,Training at home,,,,,,,,,,,,,
1,14,3230,B,80.97581931780232,54.293086088632975,4.048790965890117,0.8528338019838378,B,880.3097000345588,Correct,sub_001_day_15_data.csv,1,300,129.0,Training at home,,,,,,,,,,,,,
1,14,3231,A,46.48955805964203,68.0378053684809,2.3244779029821014,1.068735347559959,B,932.513500098139,Incorrect,sub_001_day_15_data.csv,0,300,129.0,Training at home,,,,,,,,,,,,,
1,14,3232,A,28.729098167909548,59.37234192690241,1.4364549083954774,0.9326185661198894,B,759.5878997817636,Incorrect,sub_001_day_15_data.csv,0,300,129.0,Training at home,,,,,,,,,,,,,
1,14,3233,A,16.178649146570333,38.12548791483191,0.8089324573285167,0.5988737637388117,A,1206.8301001563668,Correct,sub_001_day_15_data.csv,1,300,129.0,Training at home,,,,,,,,,,,,,
1,14,3234,A,25.442838464416987,57.351087125403694,1.2721419232208493,0.900868769942782,A,1286.444100085646,Correct,sub_001_day_15_data.csv,1,300,129.0,Training at home,,,,,,,,,,,,,
1,14,3235,B,66.11530530763682,38.84112536777462,3.305765265381841,0.6101149705628045,B,1217.4321999773383,Correct,sub_001_day_15_data.csv,1,300,129.0,Training at home,,,,,,,,,,,,,
1,14,3236,B,68.75634438325802,46.93902632286126,3.437817219162901,0.7373165013127944,B,746.6830997727811,Correct,sub_001_day_15_data.csv,1,300,129.0,Training at home,,,,,,,,,,,,,
1,14,3237,B,40.944097931667855,25.05112958964289,2.0472048965833927,0.3935022234147399,B,1934.3449999578295,Correct,sub_001_day_15_data.csv,1,300,129.0,Training at home,,,,,,,,,,,,,
1,14,3238,B,62.82344645292877,38.21506613706298,3.1411723226464385,0.6002808551632257,B,506.5708002075553,Correct,sub_001_day_15_data.csv,1,300,129.0,Training at home,,,,,,,,,,,,,
1,14,3239,B,43.86407901749779,36.41577709503856,2.193203950874889,0.572017688982683,B,1432.0340999402106,Correct,sub_001_day_15_data.csv,1,300,129.0,Training at home,,,,,,,,,,,,,
1,14,3240,A,64.61785106667305,76.2764234400986,3.230892553333653,1.19814725760759,A,1056.9692999124527,Correct,sub_001_day_15_data.csv,1,300,129.0,Training at home,,,,,,,,,,,,,
1,14,3241,A,54.3771823119684,62.93843260391147,2.7188591155984203,0.988634587484523,A,2258.972399868071,Correct,sub_001_day_15_data.csv,1,300,129.0,Training at home,,,,,,,,,,,,,
1,14,3242,B,83.10734992078221,53.74732979729395,4.15536749603911,0.8442610822062324,B,885.9635000117123,Correct,sub_001_day_15_data.csv,1,300,129.0,Training at home,,,,,,,,,,,,,
1,14,3243,A,67.68502430482988,82.65263012307017,3.384251215241494,1.2983044779725583,A,1247.0061997883022,Correct,sub_001_day_15_data.csv,1,300,129.0,Training at home,,,,,,,,,,,,,
1,14,3244,B,87.25338489792087,61.442568588486694,4.362669244896043,0.965137610476384,A,1029.226299840957,Incorrect,sub_001_day_15_data.csv,0,300,129.0,Training at home,,,,,,,,,,,,,
1,14,3245,A,18.80084576940533,36.04550971782761,0.9400422884702664,0.5662015426221336,B,947.2472001798452,Incorrect,sub_001_day_15_data.csv,0,300,129.0,Training at home,,,,,,,,,,,,,
1,14,3246,B,73.57692419184762,47.50100941744819,3.6788462095923817,0.746144111119774,B,1180.0424996763468,Correct,sub_001_day_15_data.csv,1,300,129.0,Training at home,,,,,,,,,,,,,
1,14,3247,B,81.73478560632499,51.16186931831917,4.086739280316249,0.8036487639717627,B,2537.251299712807,Correct,sub_001_day_15_data.csv,1,300,129.0,Training at home,,,,,,,,,,,,,
1,14,3248,A,58.24135540758207,72.77328912462092,2.9120677703791036,1.1431201524573753,A,720.2433999627829,Correct,sub_001_day_15_data.csv,1,300,129.0,Training at home,,,,,,,,,,,,,
1,14,3249,A,29.20334123768765,40.3122560523092,1.4601670618843825,0.6332234373178263,B,4958.290799986571,Incorrect,sub_001_day_15_data.csv,0,300,129.0,Training at home,,,,,,,,,,,,,
1,14,3250,A,37.35759921715856,51.8458889682482,1.867879960857928,0.8143933195074031,B,1542.9612998850644,Incorrect,sub_001_day_15_data.csv,0,300,130.0,Training at home,,,,,,,,,,,,,
1,14,3251,B,42.77177841436742,27.50861119270028,2.138588920718371,0.4321042541672258,B,1879.6858000569048,Correct,sub_001_day_15_data.csv,1,300,130.0,Training at home,,,,,,,,,,,,,
1,14,3252,A,33.25844319069021,57.91794276349559,1.6629221595345105,0.9097729174841592,A,1574.9197998084128,Correct,sub_001_day_15_data.csv,1,300,130.0,Training at home,,,,,,,,,,,,,
1,14,3253,A,43.3124074330907,65.51136088421123,2.165620371654535,1.0290500504025386,A,862.6358001492918,Correct,sub_001_day_15_data.csv,1,300,130.0,Training at home,,,,,,,,,,,,,
1,14,3254,A,53.84909421190289,72.11840606704558,2.6924547105951446,1.13283327344418,A,2152.0134997554123,Correct,sub_001_day_15_data.csv,1,300,130.0,Training at home,,,,,,,,,,,,,
1,14,3255,A,32.11676750400341,49.894288350323485,1.6058383752001706,0.7837376486873353,A,734.4206999987364,Correct,sub_001_day_15_data.csv,1,300,130.0,Training at home,,,,,,,,,,,,,
1,14,3256,B,64.15243182435674,45.02500338595054,3.2076215912178374,0.7072510993257889,B,3188.946799840778,Correct,sub_001_day_15_data.csv,1,300,130.0,Training at home,,,,,,,,,,,,,
1,14,3257,B,63.954350764691824,33.47396231760309,3.197717538234591,0.5258077705176172,B,958.882600069046,Correct,sub_001_day_15_data.csv,1,300,130.0,Training at home,,,,,,,,,,,,,
1,14,3258,B,55.21573004391034,33.765236146502346,2.760786502195517,0.5303830891228816,B,997.7905000559986,Correct,sub_001_day_15_data.csv,1,300,130.0,Training at home,,,,,,,,,,,,,
1,14,3259,A,42.13956418183458,62.50813236928288,2.106978209091729,0.9818754472047873,A,3249.3358002975583,Correct,sub_001_day_15_data.csv,1,300,130.0,Training at home,,,,,,,,,,,,,
1,14,3260,A,19.195876800533227,42.40249248891179,0.9597938400266612,0.6660567944853083,A,1302.339100278914,Correct,sub_001_day_15_data.csv,1,300,130.0,Training at home,,,,,,,,,,,,,
1,14,3261,B,46.18847129766442,27.001490765328892,2.309423564883221,0.4241384251216494,B,1303.4284999594092,Correct,sub_001_day_15_data.csv,1,300,130.0,Training at home,,,,,,,,,,,,,
1,14,3262,A,49.16965256932043,65.02023407240657,2.458482628466021,1.021335448482806,A,1518.351800274104,Correct,sub_001_day_15_data.csv,1,300,130.0,Training at home,,,,,,,,,,,,,
1,14,3263,B,74.77308718234046,63.46053933434641,3.738654359117023,0.9968358208281438,B,645.9087999537587,Correct,sub_001_day_15_data.csv,1,300,130.0,Training at home,,,,,,,,,,,,,
1,14,3264,A,54.64922969544192,79.86086861039092,2.732461484772096,1.254451590678519,A,1018.0701999925076,Correct,sub_001_day_15_data.csv,1,300,130.0,Training at home,,,,,,,,,,,,,
1,14,3265,A,14.619411427846774,36.2253177363075,0.7309705713923387,0.5690259603716985,A,834.8122001625597,Correct,sub_001_day_15_data.csv,1,300,130.0,Training at home,,,,,,,,,,,,,
1,14,3266,B,58.126890649467654,26.48083626961,2.906344532473383,0.4159600034276046,B,644.1859002225101,Correct,sub_001_day_15_data.csv,1,300,130.0,Training at home,,,,,,,,,,,,,
1,14,3267,B,57.82797509633112,41.90385319604478,2.891398754816556,0.6582241867889972,B,619.8819000273943,Correct,sub_001_day_15_data.csv,1,300,130.0,Training at home,,,,,,,,,,,,,
1,14,3268,B,59.69011277590165,37.01892621964847,2.9845056387950826,0.581491933277151,B,509.6028000116348,Correct,sub_001_day_15_data.csv,1,300,130.0,Training at home,,,,,,,,,,,,,
1,14,3269,A,51.88571033355956,64.00111263279344,2.5942855166779784,1.005327126343784,A,1006.6766003146768,Correct,sub_001_day_15_data.csv,1,300,130.0,Training at home,,,,,,,,,,,,,
1,14,3270,B,83.03814553091455,61.506563723952624,4.151907276545727,0.96614284371361,B,1748.3912999741733,Correct,sub_001_day_15_data.csv,1,300,130.0,Training at home,,,,,,,,,,,,,
1,14,3271,B,68.6150369012351,55.757420144069386,3.430751845061755,0.8758355075386397,B,1319.979399908334,Correct,sub_001_day_15_data.csv,1,300,130.0,Training at home,,,,,,,,,,,,,
1,14,3272,B,73.91803653059652,55.39804741541395,3.695901826529826,0.8701904939174173,B,1167.0639999210837,Correct,sub_001_day_15_data.csv,1,300,130.0,Training at home,,,,,,,,,,,,,
1,14,3273,A,48.67223497001159,71.32653615585254,2.4336117485005793,1.1203946099661657,A,1160.7941999100149,Correct,sub_001_day_15_data.csv,1,300,130.0,Training at home,,,,,,,,,,,,,
1,14,3274,B,66.19728741344112,48.846255662324815,3.309864370672056,0.7672751897206423,B,1174.552500247955,Correct,sub_001_day_15_data.csv,1,300,130.0,Training at home,,,,,,,,,,,,,
1,14,3275,B,38.5716515060258,17.912133837437356,1.9285825753012904,0.2813631403690517,B,863.5232001543045,Correct,sub_001_day_15_data.csv,1,300,131.0,Training at home,,,,,,,,,,,,,
1,14,3276,A,15.249167538380853,43.72426602475906,0.7624583769190426,0.6868191646349443,A,1506.9701001048088,Correct,sub_001_day_15_data.csv,1,300,131.0,Training at home,,,,,,,,,,,,,
1,14,3277,A,31.65101815622606,54.38780157113759,1.582550907811303,0.8543215893039262,A,1149.9092997983098,Correct,sub_001_day_15_data.csv,1,300,131.0,Training at home,,,,,,,,,,,,,
1,14,3278,A,39.021861676282505,57.141072727054535,1.9510930838141252,0.8975698714877731,A,1477.206700015813,Correct,sub_001_day_15_data.csv,1,300,131.0,Training at home,,,,,,,,,,,,,
1,14,3279,A,31.97213749410757,43.68955020130766,1.5986068747053788,0.6862738497553532,A,3624.7205999679863,Correct,sub_001_day_15_data.csv,1,300,131.0,Training at home,,,,,,,,,,,,,
1,14,3280,A,36.861527026334215,68.27227567405504,1.8430763513167108,1.072418398507342,A,1286.183999851346,Correct,sub_001_day_15_data.csv,1,300,131.0,Training at home,,,,,,,,,,,,,
1,14,3281,A,44.73284737027631,66.14737965992613,2.2366423685138157,1.0390406099691942,A,2681.377500295639,Correct,sub_001_day_15_data.csv,1,300,131.0,Training at home,,,,,,,,,,,,,
1,14,3282,B,48.57236729538178,35.42127691914394,2.428618364769089,0.5563961167497615,B,2932.3952002450824,Correct,sub_001_day_15_data.csv,1,300,131.0,Training at home,,,,,,,,,,,,,
1,14,3283,B,37.35483527098313,23.904043483097237,1.8677417635491564,0.3754838369879463,B,928.9254997856916,Correct,sub_001_day_15_data.csv,1,300,131.0,Training at home,,,,,,,,,,,,,
1,14,3284,B,35.82510928278502,11.018994619576612,1.7912554641392513,0.1730859627340367,B,4435.649199876934,Correct,sub_001_day_15_data.csv,1,300,131.0,Training at home,,,,,,,,,,,,,
1,14,3285,B,74.36571969459695,52.25726373976222,3.7182859847298473,0.8208551793077064,A,526.2326998636127,Incorrect,sub_001_day_15_data.csv,0,300,131.0,Training at home,,,,,,,,,,,,,
1,14,3286,A,32.461822909766695,64.65132327089178,1.6230911454883346,1.0155406111634622,A,563.0922997370362,Correct,sub_001_day_15_data.csv,1,300,131.0,Training at home,,,,,,,,,,,,,
1,14,3287,B,47.36740569932777,31.737810598866428,2.3683702849663884,0.4985363630921152,B,1700.9351002052426,Correct,sub_001_day_15_data.csv,1,300,131.0,Training at home,,,,,,,,,,,,,
1,14,3288,B,81.04674099143327,51.67517829954683,4.052337049571663,0.8117118025939951,B,1372.686699964106,Correct,sub_001_day_15_data.csv,1,300,131.0,Training at home,,,,,,,,,,,,,
1,14,3289,A,23.209468281670407,40.94131715247879,1.1604734140835204,0.6431047059725858,B,1799.113200046122,Incorrect,sub_001_day_15_data.csv,0,300,131.0,Training at home,,,,,,,,,,,,,
1,14,3290,A,30.857979020275184,52.52174632465873,1.5428989510137592,0.8250096620362729,A,1544.9021002277732,Correct,sub_001_day_15_data.csv,1,300,131.0,Training at home,,,,,,,,,,,,,
1,14,3291,B,47.9001849476678,32.4978934526842,2.39500924738339,0.5104757166404826,B,1602.9914999380708,Correct,sub_001_day_15_data.csv,1,300,131.0,Training at home,,,,,,,,,,,,,
1,14,3292,B,36.37383500019338,19.32980009291698,1.8186917500096689,0.3036317898363364,A,1841.1469999700785,Incorrect,sub_001_day_15_data.csv,0,300,131.0,Training at home,,,,,,,,,,,,,
1,14,3293,B,60.93357093804092,30.482873694957973,3.046678546902046,0.4788238603019276,B,1037.5282997265458,Correct,sub_001_day_15_data.csv,1,300,131.0,Training at home,,,,,,,,,,,,,
1,14,3294,B,81.60014013938087,66.97334182634671,4.080007006969043,1.052014793340044,B,2132.707799784839,Correct,sub_001_day_15_data.csv,1,300,131.0,Training at home,,,,,,,,,,,,,
1,14,3295,A,20.176631828494592,43.500991672141154,1.0088315914247297,0.683311979305347,A,1401.7259003594518,Correct,sub_001_day_15_data.csv,1,300,131.0,Training at home,,,,,,,,,,,,,
1,14,3296,A,26.092123393567334,42.73660274368669,1.304606169678367,0.6713049860947574,A,2583.783000241965,Correct,sub_001_day_15_data.csv,1,300,131.0,Training at home,,,,,,,,,,,,,
1,14,3297,B,59.26706615068441,40.01669830107866,2.9633533075342204,0.6285808270179394,B,1857.3559001088145,Correct,sub_001_day_15_data.csv,1,300,131.0,Training at home,,,,,,,,,,,,,
1,14,3298,A,19.78948256806932,43.75586316020605,0.989474128403466,0.6873154912779179,A,942.2360002063216,Correct,sub_001_day_15_data.csv,1,300,131.0,Training at home,,,,,,,,,,,,,
1,14,3299,A,14.805167760224505,33.75790348555947,0.7402583880112252,0.5302679079541345,A,617.0382001437247,Correct,sub_001_day_15_data.csv,1,300,131.0,Training at home,,,,,,,,,,,,,
