subject,day,trial,cat,x,y,xt,yt,resp,rt,fb,f_name,acc,n_trials,block,session_type,ns_left_digit,ns_right_digit,ns_left_size,ns_right_size,ns_congruent,ns_cue,ns_correct_side,ns_resp,ns_rt,ns_fb,acc_stroop,acc_stroop_mean,resp_key
17,12,2400,B,72.56233459146404,50.75259403336906,3.6281167295732017,0.797219882829287,B,577.7944940055022,Correct,sub_017_day_09_data.csv,1,300,96.0,Training at home,,,,,,,,,,,,,
17,12,2401,B,56.588690934741386,44.39647557593162,2.8294345467370694,0.6973782075731273,B,327.6485370006412,Correct,sub_017_day_09_data.csv,1,300,96.0,Training at home,,,,,,,,,,,,,
17,12,2402,B,55.57546607784,46.71162257562311,2.7787733038919997,0.7337444516041833,B,481.6564350039698,Correct,sub_017_day_09_data.csv,1,300,96.0,Training at home,,,,,,,,,,,,,
17,12,2403,A,37.650855583352154,58.9579091611454,1.8825427791676077,0.9261086714583436,B,485.7303240132751,Incorrect,sub_017_day_09_data.csv,0,300,96.0,Training at home,,,,,,,,,,,,,
17,12,2404,B,64.23866501916292,46.198841509787755,3.211933250958146,0.725689705457542,B,435.7185769913485,Correct,sub_017_day_09_data.csv,1,300,96.0,Training at home,,,,,,,,,,,,,
17,12,2405,B,63.53140338601313,46.97358329611962,3.1765701693006565,0.7378593209793881,B,402.144388994202,Correct,sub_017_day_09_data.csv,1,300,96.0,Training at home,,,,,,,,,,,,,
17,12,2406,A,21.254282631608685,50.656688367877095,1.0627141315804345,0.7957134001585511,A,599.3828430073336,Correct,sub_017_day_09_data.csv,1,300,96.0,Training at home,,,,,,,,,,,,,
17,12,2407,B,66.62250671867153,57.15167715653527,3.331125335933576,0.897736445476534,A,380.3436139860423,Incorrect,sub_017_day_09_data.csv,0,300,96.0,Training at home,,,,,,,,,,,,,
17,12,2408,A,52.60700050613419,81.43393552820947,2.6303500253067096,1.2791612680416389,A,403.2612789887935,Correct,sub_017_day_09_data.csv,1,300,96.0,Training at home,,,,,,,,,,,,,
17,12,2409,A,61.1258202459925,72.25733304068005,3.0562910122996247,1.1350155332429572,B,466.1929029971361,Incorrect,sub_017_day_09_data.csv,0,300,96.0,Training at home,,,,,,,,,,,,,
17,12,2410,A,63.43897128239087,75.68365673890722,3.1719485641195435,1.1888361000388128,A,687.5213680032175,Correct,sub_017_day_09_data.csv,1,300,96.0,Training at home,,,,,,,,,,,,,
17,12,2411,B,67.8525673313456,47.184322452272085,3.39262836656728,0.7411696039033496,B,573.5210639977595,Correct,sub_017_day_09_data.csv,1,300,96.0,Training at home,,,,,,,,,,,,,
17,12,2412,B,53.07497490498698,22.55652827631575,2.653748745249349,0.35431711761682,B,387.6143460074673,Correct,sub_017_day_09_data.csv,1,300,96.0,Training at home,,,,,,,,,,,,,
17,12,2413,A,32.25336896781616,62.557020347283256,1.6126684483908078,0.9826433777674616,A,402.8236529993592,Correct,sub_017_day_09_data.csv,1,300,96.0,Training at home,,,,,,,,,,,,,
17,12,2414,A,20.33802629638137,33.64008408978297,1.0169013148190684,0.5284172052130253,A,513.9219429984223,Correct,sub_017_day_09_data.csv,1,300,96.0,Training at home,,,,,,,,,,,,,
17,12,2415,A,36.833831927751945,67.49352460997507,1.841691596387597,1.060185805397898,A,439.0949980006553,Correct,sub_017_day_09_data.csv,1,300,96.0,Training at home,,,,,,,,,,,,,
17,12,2416,B,53.41470132826523,23.987844901014743,2.6707350664132616,0.3768001865823964,B,396.5814520051936,Correct,sub_017_day_09_data.csv,1,300,96.0,Training at home,,,,,,,,,,,,,
17,12,2417,B,45.882170618050765,31.596887457019356,2.2941085309025384,0.4963227475563774,B,444.78059600805864,Correct,sub_017_day_09_data.csv,1,300,96.0,Training at home,,,,,,,,,,,,,
17,12,2418,A,51.469422377954,77.0376574158891,2.5734711188977,1.2101046929376222,A,1046.734817995457,Correct,sub_017_day_09_data.csv,1,300,96.0,Training at home,,,,,,,,,,,,,
17,12,2419,A,48.48224037162454,69.02573912881465,2.424112018581227,1.0842537747784482,A,614.620873995591,Correct,sub_017_day_09_data.csv,1,300,96.0,Training at home,,,,,,,,,,,,,
17,12,2420,A,30.818359890016513,56.86998902054953,1.5409179945008256,0.893311698583453,A,424.72034800448455,Correct,sub_017_day_09_data.csv,1,300,96.0,Training at home,,,,,,,,,,,,,
17,12,2421,B,84.50742758634601,55.68607815224617,4.2253713793173,0.8747148701516183,B,415.1811909978278,Correct,sub_017_day_09_data.csv,1,300,96.0,Training at home,,,,,,,,,,,,,
17,12,2422,B,82.51904917399864,67.81041540451463,4.125952458699931,1.0651635143584763,B,569.8937010020018,Correct,sub_017_day_09_data.csv,1,300,96.0,Training at home,,,,,,,,,,,,,
17,12,2423,A,46.55849465775414,58.21734962788515,2.327924732887707,0.9144759895121624,A,454.9415950023103,Correct,sub_017_day_09_data.csv,1,300,96.0,Training at home,,,,,,,,,,,,,
17,12,2424,A,41.99578947682937,62.432811828363455,2.0997894738414686,0.980692314914703,A,424.1076660109684,Correct,sub_017_day_09_data.csv,1,300,96.0,Training at home,,,,,,,,,,,,,
17,12,2425,B,59.01228456552711,44.40122216340454,2.950614228276356,0.6974527667948,B,455.51500300643966,Correct,sub_017_day_09_data.csv,1,300,97.0,Training at home,,,,,,,,,,,,,
17,12,2426,A,57.08975639965537,83.2994152587295,2.854487819982769,1.3084641551257508,B,511.1922649957706,Incorrect,sub_017_day_09_data.csv,0,300,97.0,Training at home,,,,,,,,,,,,,
17,12,2427,B,86.8389086660479,66.69482337649583,4.341945433302396,1.0476398357603407,B,513.5795059904922,Correct,sub_017_day_09_data.csv,1,300,97.0,Training at home,,,,,,,,,,,,,
17,12,2428,B,76.26743590771127,62.3638523819494,3.813371795385564,0.9796091024634528,A,839.8666120046983,Incorrect,sub_017_day_09_data.csv,0,300,97.0,Training at home,,,,,,,,,,,,,
17,12,2429,B,60.91470854664172,40.08558033914628,3.045735427332086,0.629662823541727,B,621.826239002985,Correct,sub_017_day_09_data.csv,1,300,97.0,Training at home,,,,,,,,,,,,,
17,12,2430,B,66.2483223272269,43.0059113152336,3.3124161163613453,0.6755352752443602,B,511.9500930013601,Correct,sub_017_day_09_data.csv,1,300,97.0,Training at home,,,,,,,,,,,,,
17,12,2431,B,52.93171110404335,44.654067007686066,2.6465855552021673,0.7014244443212644,B,577.3830950056436,Correct,sub_017_day_09_data.csv,1,300,97.0,Training at home,,,,,,,,,,,,,
17,12,2432,B,88.37611395729505,67.45276138842405,4.4188056978647525,1.0595454982110912,B,608.3405240060529,Correct,sub_017_day_09_data.csv,1,300,97.0,Training at home,,,,,,,,,,,,,
17,12,2433,A,28.886306199491436,53.296716279822505,1.4443153099745718,0.8371828616257495,A,758.4995979996165,Correct,sub_017_day_09_data.csv,1,300,97.0,Training at home,,,,,,,,,,,,,
17,12,2434,B,44.30307949641818,24.76689701114108,2.215153974820909,0.3890375085120791,B,376.664964001975,Correct,sub_017_day_09_data.csv,1,300,97.0,Training at home,,,,,,,,,,,,,
17,12,2435,A,31.209402376954884,45.725476181828384,1.560470118847744,0.7182541002736356,A,1041.1086289968807,Correct,sub_017_day_09_data.csv,1,300,97.0,Training at home,,,,,,,,,,,,,
17,12,2436,B,46.329876949454096,29.462020062000164,2.316493847472705,0.462788328933474,B,779.9089549953351,Correct,sub_017_day_09_data.csv,1,300,97.0,Training at home,,,,,,,,,,,,,
17,12,2437,A,34.00056573827875,49.631261122534944,1.7000282869139374,0.7796060266547624,A,859.5328490046086,Correct,sub_017_day_09_data.csv,1,300,97.0,Training at home,,,,,,,,,,,,,
17,12,2438,B,38.634454857672424,18.210878759952134,1.9317227428836212,0.2860558146384002,B,993.511786000454,Correct,sub_017_day_09_data.csv,1,300,97.0,Training at home,,,,,,,,,,,,,
17,12,2439,A,38.400756748730906,68.4101422723066,1.9200378374365457,1.0745840019685549,A,936.0197219939436,Correct,sub_017_day_09_data.csv,1,300,97.0,Training at home,,,,,,,,,,,,,
17,12,2440,A,54.388956316150754,84.1958353912174,2.7194478158075377,1.3225450896395203,A,440.753520000726,Correct,sub_017_day_09_data.csv,1,300,97.0,Training at home,,,,,,,,,,,,,
17,12,2441,A,51.69994942294805,72.15465845885844,2.584997471147403,1.1334027246831513,A,545.5752099951496,Correct,sub_017_day_09_data.csv,1,300,97.0,Training at home,,,,,,,,,,,,,
17,12,2442,A,57.43194004663468,74.28942007171088,2.871597002331734,1.166935481683665,A,797.8870250080945,Correct,sub_017_day_09_data.csv,1,300,97.0,Training at home,,,,,,,,,,,,,
17,12,2443,B,35.77448628974982,12.786181252561928,1.7887243144874907,0.2008448654525804,B,776.5660440054489,Correct,sub_017_day_09_data.csv,1,300,97.0,Training at home,,,,,,,,,,,,,
17,12,2444,A,52.73387727314674,68.04720197431496,2.636693863657337,1.0688829490992435,A,713.8191880076192,Correct,sub_017_day_09_data.csv,1,300,97.0,Training at home,,,,,,,,,,,,,
17,12,2445,A,39.88843114952297,48.221057050277736,1.9944215574761488,0.7574545928874342,B,720.2989630022785,Incorrect,sub_017_day_09_data.csv,0,300,97.0,Training at home,,,,,,,,,,,,,
17,12,2446,B,41.6825302191415,24.00700270375275,2.084126510957075,0.3771011166440998,B,855.0100680004107,Correct,sub_017_day_09_data.csv,1,300,97.0,Training at home,,,,,,,,,,,,,
17,12,2447,B,76.90494339378822,52.85159660697118,3.845247169689411,0.8301909381547594,B,470.9685300040291,Correct,sub_017_day_09_data.csv,1,300,97.0,Training at home,,,,,,,,,,,,,
17,12,2448,B,84.10811610874688,68.79528718537586,4.205405805437344,1.080633844115884,A,599.0547519904794,Incorrect,sub_017_day_09_data.csv,0,300,97.0,Training at home,,,,,,,,,,,,,
17,12,2449,A,17.940209896693627,35.46798407256841,0.8970104948346814,0.5571297910001036,A,679.4485869904747,Correct,sub_017_day_09_data.csv,1,300,97.0,Training at home,,,,,,,,,,,,,
17,12,2450,A,30.148022519968677,48.223899974158705,1.5074011259984337,0.7574992494313301,A,799.4275580131216,Correct,sub_017_day_09_data.csv,1,300,98.0,Training at home,,,,,,,,,,,,,
17,12,2451,B,81.86141871970094,66.40806136053611,4.093070935985047,1.0431353885470025,B,622.0859890017891,Correct,sub_017_day_09_data.csv,1,300,98.0,Training at home,,,,,,,,,,,,,
17,12,2452,B,49.2448250196843,20.76806025343675,2.462241250984215,0.3262239276075354,B,643.4278639935656,Correct,sub_017_day_09_data.csv,1,300,98.0,Training at home,,,,,,,,,,,,,
17,12,2453,B,62.43628368803377,40.562571935258624,3.121814184401688,0.6371553900125801,B,818.2825249969028,Correct,sub_017_day_09_data.csv,1,300,98.0,Training at home,,,,,,,,,,,,,
17,12,2454,B,76.97284768571231,60.43538202667478,3.8486423842856152,0.9493167609594704,B,479.0296380087966,Correct,sub_017_day_09_data.csv,1,300,98.0,Training at home,,,,,,,,,,,,,
17,12,2455,B,74.66091999421215,50.38213263714216,3.7330459997106074,0.7914006888251619,B,847.7928820066154,Correct,sub_017_day_09_data.csv,1,300,98.0,Training at home,,,,,,,,,,,,,
17,12,2456,A,38.31231206401309,49.823303913321624,1.9156156032006544,0.7826226277583139,A,870.995691002463,Correct,sub_017_day_09_data.csv,1,300,98.0,Training at home,,,,,,,,,,,,,
17,12,2457,B,47.36111165025631,38.81724656101095,2.3680555825128153,0.6097398831432782,B,503.4237780055264,Correct,sub_017_day_09_data.csv,1,300,98.0,Training at home,,,,,,,,,,,,,
17,12,2458,A,41.17965643498216,52.478495798530986,2.0589828217491077,0.8243302843605387,B,562.7579550055088,Incorrect,sub_017_day_09_data.csv,0,300,98.0,Training at home,,,,,,,,,,,,,
17,12,2459,A,34.340152006343374,64.14489629295369,1.7170076003171686,1.0075856747961125,A,436.2881139968522,Correct,sub_017_day_09_data.csv,1,300,98.0,Training at home,,,,,,,,,,,,,
17,12,2460,A,45.89185493432823,52.96424389560543,2.2945927467164116,0.8319603976268604,A,640.6488600041484,Correct,sub_017_day_09_data.csv,1,300,98.0,Training at home,,,,,,,,,,,,,
17,12,2461,A,62.45342087890934,78.40580014544369,3.1226710439454672,1.2315954286787771,B,582.7698419889202,Incorrect,sub_017_day_09_data.csv,0,300,98.0,Training at home,,,,,,,,,,,,,
17,12,2462,A,57.186489126394115,79.37930288182778,2.8593244563197056,1.2468871739031462,A,458.3907819906017,Correct,sub_017_day_09_data.csv,1,300,98.0,Training at home,,,,,,,,,,,,,
17,12,2463,B,69.75501860525905,60.212377751099304,3.487750930262953,0.9458138179901354,B,895.3463680081768,Correct,sub_017_day_09_data.csv,1,300,98.0,Training at home,,,,,,,,,,,,,
17,12,2464,A,20.401215856929536,50.97478681087288,1.0200607928464769,0.8007100788167206,A,499.8009330010973,Correct,sub_017_day_09_data.csv,1,300,98.0,Training at home,,,,,,,,,,,,,
17,12,2465,A,66.61219043419227,85.06343166238284,3.330609521709613,1.3361732599983966,A,690.4270780069055,Correct,sub_017_day_09_data.csv,1,300,98.0,Training at home,,,,,,,,,,,,,
17,12,2466,A,21.88045162009002,48.42795560934466,1.094022581004501,0.760704547853449,A,732.5433469959535,Correct,sub_017_day_09_data.csv,1,300,98.0,Training at home,,,,,,,,,,,,,
17,12,2467,A,26.598688883662973,45.92203667953016,1.3299344441831489,0.7213416653514647,A,518.4211669984506,Correct,sub_017_day_09_data.csv,1,300,98.0,Training at home,,,,,,,,,,,,,
17,12,2468,B,65.38253519619226,38.9514307649999,3.2691267598096134,0.6118476436906757,B,505.8897249982692,Correct,sub_017_day_09_data.csv,1,300,98.0,Training at home,,,,,,,,,,,,,
17,12,2469,B,75.72226352060333,53.7282994747094,3.7861131760301663,0.843962154598097,B,708.6476769909495,Correct,sub_017_day_09_data.csv,1,300,98.0,Training at home,,,,,,,,,,,,,
17,12,2470,B,34.1175338110083,11.544251956404675,1.7058766905504148,0.1813366856871526,B,937.3024460073792,Correct,sub_017_day_09_data.csv,1,300,98.0,Training at home,,,,,,,,,,,,,
17,12,2471,B,45.67776580444249,34.51523287807081,2.2838882902221243,0.5421640102334407,B,725.3608199971495,Correct,sub_017_day_09_data.csv,1,300,98.0,Training at home,,,,,,,,,,,,,
17,12,2472,B,46.726782884196055,19.475870404893445,2.3363391442098025,0.3059262569314006,B,592.5054879917298,Correct,sub_017_day_09_data.csv,1,300,98.0,Training at home,,,,,,,,,,,,,
17,12,2473,A,57.83007445358207,79.38339374831284,2.891503722679104,1.2469514330836275,A,575.979871005984,Correct,sub_017_day_09_data.csv,1,300,98.0,Training at home,,,,,,,,,,,,,
17,12,2474,B,62.22032496515705,44.43809555818284,3.1110162482578523,0.6980319727255421,B,841.4807320077671,Correct,sub_017_day_09_data.csv,1,300,98.0,Training at home,,,,,,,,,,,,,
17,12,2475,A,38.21179624765878,49.97281834562166,1.910589812382939,0.7849711949689113,A,1075.6450429908,Correct,sub_017_day_09_data.csv,1,300,99.0,Training at home,,,,,,,,,,,,,
17,12,2476,B,76.9208474544306,48.357801750851976,3.84604237272153,0.759602573621141,B,718.5576109914109,Correct,sub_017_day_09_data.csv,1,300,99.0,Training at home,,,,,,,,,,,,,
17,12,2477,B,32.53444240754174,20.30267361051507,1.626722120377087,0.3189136513151275,A,849.4351060071494,Incorrect,sub_017_day_09_data.csv,0,300,99.0,Training at home,,,,,,,,,,,,,
17,12,2478,B,75.26975143423851,52.756940259922175,3.763487571711926,0.8287040797322354,B,682.5401280075312,Correct,sub_017_day_09_data.csv,1,300,99.0,Training at home,,,,,,,,,,,,,
17,12,2479,B,61.444954775473626,32.00170432230278,3.0722477387736813,0.5026815960064958,B,489.8474469955545,Correct,sub_017_day_09_data.csv,1,300,99.0,Training at home,,,,,,,,,,,,,
17,12,2480,B,75.21002122150941,49.564163907579335,3.7605010610754706,0.778552066066858,B,490.370787010761,Correct,sub_017_day_09_data.csv,1,300,99.0,Training at home,,,,,,,,,,,,,
17,12,2481,A,51.45227352674796,73.71784652250736,2.5726136763373977,1.157957225367845,A,1099.9150780116906,Correct,sub_017_day_09_data.csv,1,300,99.0,Training at home,,,,,,,,,,,,,
17,12,2482,A,62.402614106586256,79.97225353444271,3.120130705329313,1.2562012209741278,A,633.5135900008027,Correct,sub_017_day_09_data.csv,1,300,99.0,Training at home,,,,,,,,,,,,,
17,12,2483,A,42.91894398012201,66.31719587611909,2.1459471990061005,1.0417080768554552,A,874.144512010389,Correct,sub_017_day_09_data.csv,1,300,99.0,Training at home,,,,,,,,,,,,,
17,12,2484,B,73.36744027480125,49.78174780474197,3.6683720137400626,0.7819698659311859,B,546.4773050043732,Correct,sub_017_day_09_data.csv,1,300,99.0,Training at home,,,,,,,,,,,,,
17,12,2485,A,42.5504847855179,64.3603580329524,2.1275242392758953,1.0109701398936604,A,448.35893499839585,Correct,sub_017_day_09_data.csv,1,300,99.0,Training at home,,,,,,,,,,,,,
17,12,2486,B,44.96810605721619,33.37436457154201,2.2484053028608093,0.5242432927809192,B,759.0321089955978,Correct,sub_017_day_09_data.csv,1,300,99.0,Training at home,,,,,,,,,,,,,
17,12,2487,B,57.26292348559827,36.0439209710869,2.8631461742799136,0.5661765866466884,B,736.5476400009356,Correct,sub_017_day_09_data.csv,1,300,99.0,Training at home,,,,,,,,,,,,,
17,12,2488,B,56.624386969620666,26.71055345061523,2.8312193484810333,0.4195683924688515,B,412.6386290008668,Correct,sub_017_day_09_data.csv,1,300,99.0,Training at home,,,,,,,,,,,,,
17,12,2489,B,54.11910804701718,30.711344545511174,2.7059554023508587,0.4824126720302143,B,437.6945020048879,Correct,sub_017_day_09_data.csv,1,300,99.0,Training at home,,,,,,,,,,,,,
17,12,2490,B,80.02822539690183,59.04539790627177,4.001411269845091,0.9274829414531478,B,485.66171000129543,Correct,sub_017_day_09_data.csv,1,300,99.0,Training at home,,,,,,,,,,,,,
17,12,2491,A,34.24459046227695,52.441529120188704,1.7122295231138478,0.8237496131350003,A,715.7780389970867,Correct,sub_017_day_09_data.csv,1,300,99.0,Training at home,,,,,,,,,,,,,
17,12,2492,A,26.96613380048109,44.77860918197989,1.3483066900240543,0.7033807482203823,A,484.12743100197986,Correct,sub_017_day_09_data.csv,1,300,99.0,Training at home,,,,,,,,,,,,,
17,12,2493,A,51.57819935986984,78.04140242150876,2.578909967993492,1.225871482616283,A,466.9910480006365,Correct,sub_017_day_09_data.csv,1,300,99.0,Training at home,,,,,,,,,,,,,
17,12,2494,B,37.15593690332486,22.13018472511148,1.8577968451662428,0.3476201287749764,B,419.7160899930168,Correct,sub_017_day_09_data.csv,1,300,99.0,Training at home,,,,,,,,,,,,,
17,12,2495,A,45.790765315597106,55.73684273480551,2.2895382657798553,0.8755122783497733,A,762.5094639952295,Correct,sub_017_day_09_data.csv,1,300,99.0,Training at home,,,,,,,,,,,,,
17,12,2496,A,15.42010876485951,34.11729295808888,0.7710054382429754,0.535913184587514,A,495.6506169983186,Correct,sub_017_day_09_data.csv,1,300,99.0,Training at home,,,,,,,,,,,,,
17,12,2497,B,46.5598665828849,17.038081851262124,2.327993329144245,0.2676335638759334,B,325.85881400154904,Correct,sub_017_day_09_data.csv,1,300,99.0,Training at home,,,,,,,,,,,,,
17,12,2498,A,37.50942450998373,59.48331952226927,1.875471225499186,0.9343617981114772,A,516.5674110030523,Correct,sub_017_day_09_data.csv,1,300,99.0,Training at home,,,,,,,,,,,,,
17,12,2499,B,76.89189875656268,62.60097173854825,3.844594937828134,0.9833337646070274,B,1112.485605000984,Correct,sub_017_day_09_data.csv,1,300,99.0,Training at home,,,,,,,,,,,,,
17,12,2500,B,49.18400015364116,32.853301857207306,2.459200007682058,0.5160584588038519,B,468.38868300255854,Correct,sub_017_day_09_data.csv,1,300,100.0,Training at home,,,,,,,,,,,,,
17,12,2501,A,52.91595364716615,79.95848850044725,2.645797682358307,1.2559850003257451,A,482.8169909887947,Correct,sub_017_day_09_data.csv,1,300,100.0,Training at home,,,,,,,,,,,,,
17,12,2502,A,34.71251450638063,53.6701471910729,1.7356257253190313,0.8430487006627874,A,476.9787149998592,Correct,sub_017_day_09_data.csv,1,300,100.0,Training at home,,,,,,,,,,,,,
17,12,2503,A,39.84111272796068,70.90400213760078,1.992055636398034,1.113757461128008,A,659.3986149964621,Correct,sub_017_day_09_data.csv,1,300,100.0,Training at home,,,,,,,,,,,,,
17,12,2504,B,57.12111758457526,30.67566299441768,2.8560558792287627,0.4818521875362943,B,700.306326005375,Correct,sub_017_day_09_data.csv,1,300,100.0,Training at home,,,,,,,,,,,,,
17,12,2505,B,80.31562615161327,67.66918614435997,4.015781307580664,1.0629450903276074,B,901.8820990022504,Correct,sub_017_day_09_data.csv,1,300,100.0,Training at home,,,,,,,,,,,,,
17,12,2506,B,52.25216376199348,35.19959318799357,2.6126081880996743,0.5529139168437497,B,514.2193799983943,Correct,sub_017_day_09_data.csv,1,300,100.0,Training at home,,,,,,,,,,,,,
17,12,2507,B,66.8162080655776,51.145505155369875,3.34081040327888,0.8033917163012445,B,631.7783790000249,Correct,sub_017_day_09_data.csv,1,300,100.0,Training at home,,,,,,,,,,,,,
17,12,2508,B,56.89028195658326,32.35274858626743,2.844514097829163,0.5081957864102766,B,554.8848870093934,Correct,sub_017_day_09_data.csv,1,300,100.0,Training at home,,,,,,,,,,,,,
17,12,2509,B,54.128755742373514,46.91097022898344,2.706437787118676,0.7368757972207193,B,860.8462100091856,Correct,sub_017_day_09_data.csv,1,300,100.0,Training at home,,,,,,,,,,,,,
17,12,2510,A,42.82720441475123,71.28732611206948,2.1413602207375617,1.1197787000386863,A,680.568966010469,Correct,sub_017_day_09_data.csv,1,300,100.0,Training at home,,,,,,,,,,,,,
17,12,2511,A,30.377779019877956,55.2774116715528,1.5188889509938976,0.8682955520840449,A,471.45000300952233,Correct,sub_017_day_09_data.csv,1,300,100.0,Training at home,,,,,,,,,,,,,
17,12,2512,A,41.20088888018108,64.55698988382073,2.060044444009054,1.014058825784409,A,596.8630529969232,Correct,sub_017_day_09_data.csv,1,300,100.0,Training at home,,,,,,,,,,,,,
17,12,2513,A,59.68289069037717,73.35863284325556,2.984144534518858,1.1523147100888131,B,740.1566170010483,Incorrect,sub_017_day_09_data.csv,0,300,100.0,Training at home,,,,,,,,,,,,,
17,12,2514,B,73.84191964885076,45.94359725146498,3.692095982442538,0.721680338023453,B,530.2937409869628,Correct,sub_017_day_09_data.csv,1,300,100.0,Training at home,,,,,,,,,,,,,
17,12,2515,B,83.12913749625265,58.95981381707984,4.1564568748126325,0.9261385897238,B,701.9199560018023,Correct,sub_017_day_09_data.csv,1,300,100.0,Training at home,,,,,,,,,,,,,
17,12,2516,B,63.79435389173587,53.83913829563632,3.1897176945867933,0.8457032067258797,B,933.4533040091628,Correct,sub_017_day_09_data.csv,1,300,100.0,Training at home,,,,,,,,,,,,,
17,12,2517,A,62.551418698612736,86.14834593638304,3.127570934930637,1.3532150535632652,A,571.2756159919081,Correct,sub_017_day_09_data.csv,1,300,100.0,Training at home,,,,,,,,,,,,,
17,12,2518,A,19.440290396958876,40.33576573019055,0.9720145198479436,0.6335927264744279,A,473.4066969976993,Correct,sub_017_day_09_data.csv,1,300,100.0,Training at home,,,,,,,,,,,,,
17,12,2519,B,66.72211754229846,38.78074845018901,3.3361058771149232,0.6091665721591377,B,635.7828800100833,Correct,sub_017_day_09_data.csv,1,300,100.0,Training at home,,,,,,,,,,,,,
17,12,2520,A,44.91222838842106,59.98587038807256,2.2456114194210532,0.9422558486517916,A,1190.9490070102038,Correct,sub_017_day_09_data.csv,1,300,100.0,Training at home,,,,,,,,,,,,,
17,12,2521,B,71.64387438981333,54.449170536656474,3.582193719490667,0.855285570760089,A,1144.1769049997674,Incorrect,sub_017_day_09_data.csv,0,300,100.0,Training at home,,,,,,,,,,,,,
17,12,2522,A,53.96208964485986,73.35405190568221,2.698104482242993,1.152242752889678,A,763.6198269901797,Correct,sub_017_day_09_data.csv,1,300,100.0,Training at home,,,,,,,,,,,,,
17,12,2523,A,41.77909129935022,55.78884186333904,2.088954564967511,0.8763290787507431,A,946.688982003252,Correct,sub_017_day_09_data.csv,1,300,100.0,Training at home,,,,,,,,,,,,,
17,12,2524,A,18.140784995813434,42.22585573817564,0.9070392497906716,0.6632821908929749,A,764.9864659906598,Correct,sub_017_day_09_data.csv,1,300,100.0,Training at home,,,,,,,,,,,,,
17,12,2525,A,63.5218926564027,84.01892330193716,3.176094632820135,1.3197661610394502,A,1301.816652994603,Correct,sub_017_day_09_data.csv,1,300,101.0,Training at home,,,,,,,,,,,,,
17,12,2526,B,86.19226417037385,66.79848656429061,4.309613208518693,1.0492681733064595,B,995.3308420081156,Correct,sub_017_day_09_data.csv,1,300,101.0,Training at home,,,,,,,,,,,,,
17,12,2527,B,80.07318176263553,58.03787694084109,4.003659088131776,0.911656839136474,B,706.7467379965819,Correct,sub_017_day_09_data.csv,1,300,101.0,Training at home,,,,,,,,,,,,,
17,12,2528,B,68.87134222795515,52.718913440730816,3.4435671113977575,0.8281067558531807,B,540.9658900025534,Correct,sub_017_day_09_data.csv,1,300,101.0,Training at home,,,,,,,,,,,,,
17,12,2529,B,36.34116667385119,15.03906412364276,1.8170583336925596,0.2362330668385096,A,514.8160910030128,Incorrect,sub_017_day_09_data.csv,0,300,101.0,Training at home,,,,,,,,,,,,,
17,12,2530,A,21.725392973047622,50.08544628798022,1.086269648652381,0.7867403505504242,A,461.0813409963157,Correct,sub_017_day_09_data.csv,1,300,101.0,Training at home,,,,,,,,,,,,,
17,12,2531,A,30.794122492545743,52.13568243578895,1.5397061246272872,0.8189453846508248,B,903.663150005741,Incorrect,sub_017_day_09_data.csv,0,300,101.0,Training at home,,,,,,,,,,,,,
17,12,2532,B,66.76916418141695,51.48070709872765,3.338458209070848,0.8086570561148534,B,552.1948310051812,Correct,sub_017_day_09_data.csv,1,300,101.0,Training at home,,,,,,,,,,,,,
17,12,2533,B,76.34694624868186,60.609770998182725,3.817347312434093,0.9520560565182528,B,644.2715110024437,Correct,sub_017_day_09_data.csv,1,300,101.0,Training at home,,,,,,,,,,,,,
17,12,2534,A,34.19983302040173,44.25137105796287,1.7099916510200863,0.6950989111348608,B,1124.685564005631,Incorrect,sub_017_day_09_data.csv,0,300,101.0,Training at home,,,,,,,,,,,,,
17,12,2535,A,19.686343476341907,49.489927407611056,0.9843171738170952,0.7773859618522152,A,545.2186579932459,Correct,sub_017_day_09_data.csv,1,300,101.0,Training at home,,,,,,,,,,,,,
17,12,2536,B,38.835883175856694,14.11150168337695,1.9417941587928345,0.2216629500980851,B,502.1877690014662,Correct,sub_017_day_09_data.csv,1,300,101.0,Training at home,,,,,,,,,,,,,
17,12,2537,B,74.54439797673778,61.25323743095373,3.727219898836889,0.962163603608378,B,584.3703470018227,Correct,sub_017_day_09_data.csv,1,300,101.0,Training at home,,,,,,,,,,,,,
17,12,2538,A,14.953031352300108,31.94713192559821,0.7476515676150055,0.5018243748036164,A,495.3734739974607,Correct,sub_017_day_09_data.csv,1,300,101.0,Training at home,,,,,,,,,,,,,
17,12,2539,B,57.28800608041327,47.03461238536234,2.864400304020663,0.738817963671489,B,713.6794139951235,Correct,sub_017_day_09_data.csv,1,300,101.0,Training at home,,,,,,,,,,,,,
17,12,2540,B,50.18412416911144,27.46259847873968,2.509206208455572,0.431381488146474,B,369.6371920086676,Correct,sub_017_day_09_data.csv,1,300,101.0,Training at home,,,,,,,,,,,,,
17,12,2541,B,48.75006067578098,30.88797741885264,2.437503033789049,0.4851872147165743,B,738.2929010054795,Correct,sub_017_day_09_data.csv,1,300,101.0,Training at home,,,,,,,,,,,,,
17,12,2542,A,22.871197507478655,34.23974674979017,1.1435598753739329,0.537836684249579,A,756.4730150043033,Correct,sub_017_day_09_data.csv,1,300,101.0,Training at home,,,,,,,,,,,,,
17,12,2543,B,53.64257971739955,22.71887725374074,2.6821289858699777,0.3568672893908008,B,1000.4170580068604,Correct,sub_017_day_09_data.csv,1,300,101.0,Training at home,,,,,,,,,,,,,
17,12,2544,A,25.088531842700235,42.116546378679786,1.2544265921350115,0.661565163489171,A,1364.8310429998671,Correct,sub_017_day_09_data.csv,1,300,101.0,Training at home,,,,,,,,,,,,,
17,12,2545,A,29.409562106087925,52.105140675287366,1.4704781053043965,0.8184656357987274,A,721.6426310042152,Correct,sub_017_day_09_data.csv,1,300,101.0,Training at home,,,,,,,,,,,,,
17,12,2546,B,73.36434998676802,47.370594883647215,3.668217499338401,0.7440955644132218,B,411.1161680048099,Correct,sub_017_day_09_data.csv,1,300,101.0,Training at home,,,,,,,,,,,,,
17,12,2547,A,60.99761644042349,77.62786283109526,3.0498808220211746,1.2193756179202249,A,596.2992270069662,Correct,sub_017_day_09_data.csv,1,300,101.0,Training at home,,,,,,,,,,,,,
17,12,2548,A,50.26435081352899,81.10639930234638,2.51321754067645,1.2740163410368583,A,451.71244400262367,Correct,sub_017_day_09_data.csv,1,300,101.0,Training at home,,,,,,,,,,,,,
17,12,2549,B,58.01210212222237,50.72350147209702,2.9006051061111187,0.7967628979454552,B,618.1118919921573,Correct,sub_017_day_09_data.csv,1,300,101.0,Training at home,,,,,,,,,,,,,
17,12,2550,B,66.28711931555863,57.948808356881855,3.3143559657779313,0.9102577530913142,A,959.5587429939768,Incorrect,sub_017_day_09_data.csv,0,300,102.0,Training at home,,,,,,,,,,,,,
17,12,2551,A,63.09760453646497,76.9249960588534,3.1548802268232485,1.208335012479588,A,772.7859169972362,Correct,sub_017_day_09_data.csv,1,300,102.0,Training at home,,,,,,,,,,,,,
17,12,2552,A,28.564545414698536,54.60378332296224,1.4282272707349266,0.8577142227281352,A,1222.2927380062174,Correct,sub_017_day_09_data.csv,1,300,102.0,Training at home,,,,,,,,,,,,,
17,12,2553,A,57.32600321961988,79.10929954992622,2.866300160980994,1.2426459714834126,B,634.3468999984907,Incorrect,sub_017_day_09_data.csv,0,300,102.0,Training at home,,,,,,,,,,,,,
17,12,2554,A,62.04278071104104,88.53407608402989,3.102139035552052,1.3906900150897403,A,496.8844859977253,Correct,sub_017_day_09_data.csv,1,300,102.0,Training at home,,,,,,,,,,,,,
17,12,2555,B,68.26574385807831,48.390472016879066,3.413287192903915,0.7601157569598486,B,516.0138409992214,Correct,sub_017_day_09_data.csv,1,300,102.0,Training at home,,,,,,,,,,,,,
17,12,2556,A,20.8689709169691,41.73181927690392,1.043448545848455,0.6555218843062913,A,560.134162005852,Correct,sub_017_day_09_data.csv,1,300,102.0,Training at home,,,,,,,,,,,,,
17,12,2557,B,69.46826989909196,44.965819973423194,3.4734134949545985,0.7063214484557375,B,844.7791270009475,Correct,sub_017_day_09_data.csv,1,300,102.0,Training at home,,,,,,,,,,,,,
17,12,2558,A,61.82893038511052,74.93801491163802,3.0914465192555256,1.1771235856050215,B,862.7612900017994,Incorrect,sub_017_day_09_data.csv,0,300,102.0,Training at home,,,,,,,,,,,,,
17,12,2559,A,49.51725371020926,59.697940041307035,2.4758626855104633,0.9377330493410708,A,1276.610811997671,Correct,sub_017_day_09_data.csv,1,300,102.0,Training at home,,,,,,,,,,,,,
17,12,2560,A,45.04481994041794,59.56619614253805,2.252240997020897,0.935663621018431,A,1415.1125560019864,Correct,sub_017_day_09_data.csv,1,300,102.0,Training at home,,,,,,,,,,,,,
17,12,2561,A,39.76760895708783,48.853760690460035,1.9883804478543912,0.7673930784269154,A,1029.4228550046682,Correct,sub_017_day_09_data.csv,1,300,102.0,Training at home,,,,,,,,,,,,,
17,12,2562,B,70.84599685930084,54.30164715103069,3.542299842965042,0.8529682788375158,B,1020.7539480034028,Correct,sub_017_day_09_data.csv,1,300,102.0,Training at home,,,,,,,,,,,,,
17,12,2563,B,79.92656586785823,64.4134485271118,3.996328293392912,1.0118040834257935,B,626.3962020020699,Correct,sub_017_day_09_data.csv,1,300,102.0,Training at home,,,,,,,,,,,,,
17,12,2564,A,51.207347219966266,80.08906964751493,2.5603673609983133,1.2580361641873712,A,976.0846450080862,Correct,sub_017_day_09_data.csv,1,300,102.0,Training at home,,,,,,,,,,,,,
17,12,2565,A,16.65501902199682,43.63712602490723,0.8327509510998411,0.6854503727181027,A,704.1197409998858,Correct,sub_017_day_09_data.csv,1,300,102.0,Training at home,,,,,,,,,,,,,
17,12,2566,B,38.830150185681326,24.965052393388653,1.9415075092840663,0.3921501259777704,B,776.9549010117771,Correct,sub_017_day_09_data.csv,1,300,102.0,Training at home,,,,,,,,,,,,,
17,12,2567,B,41.762885820944874,31.15172137061691,2.0881442910472434,0.4893300950230312,B,1687.81405199843,Correct,sub_017_day_09_data.csv,1,300,102.0,Training at home,,,,,,,,,,,,,
17,12,2568,B,71.9222565064737,60.497557141255264,3.5961128253236847,0.9502934053754812,B,882.2764450014802,Correct,sub_017_day_09_data.csv,1,300,102.0,Training at home,,,,,,,,,,,,,
17,12,2569,B,77.72455728310652,50.98784284539136,3.886227864155326,0.8009151625273618,B,776.9490529899485,Correct,sub_017_day_09_data.csv,1,300,102.0,Training at home,,,,,,,,,,,,,
17,12,2570,A,27.859925390255093,43.37112854733894,1.3929962695127545,0.6812720941110928,A,1210.026447995915,Correct,sub_017_day_09_data.csv,1,300,102.0,Training at home,,,,,,,,,,,,,
17,12,2571,A,15.353751553065848,30.458943174518772,0.7676875776532924,0.4784479605658858,A,915.4060340079012,Correct,sub_017_day_09_data.csv,1,300,102.0,Training at home,,,,,,,,,,,,,
17,12,2572,B,71.95420854100824,56.13031544357018,3.597710427050412,0.8816929332059888,B,800.7060360105243,Correct,sub_017_day_09_data.csv,1,300,102.0,Training at home,,,,,,,,,,,,,
17,12,2573,A,44.840268165790114,58.66911596726225,2.242013408289506,0.9215723185767938,A,1048.2107659918256,Correct,sub_017_day_09_data.csv,1,300,102.0,Training at home,,,,,,,,,,,,,
17,12,2574,A,20.192474306917777,42.82399267264182,1.009623715345889,0.6726777038887733,A,569.0982450032607,Correct,sub_017_day_09_data.csv,1,300,102.0,Training at home,,,,,,,,,,,,,
17,12,2575,A,17.54818210407366,47.61091752156739,0.877409105203683,0.7478705435821282,A,490.5635470058769,Correct,sub_017_day_09_data.csv,1,300,103.0,Training at home,,,,,,,,,,,,,
17,12,2576,B,85.17576218399512,55.70512435409261,4.258788109199756,0.875014047190616,B,875.3160609921906,Correct,sub_017_day_09_data.csv,1,300,103.0,Training at home,,,,,,,,,,,,,
17,12,2577,A,29.690738498975787,46.391720547791046,1.4845369249487894,0.728719442301655,A,1282.2359840065474,Correct,sub_017_day_09_data.csv,1,300,103.0,Training at home,,,,,,,,,,,,,
17,12,2578,A,44.69077425441237,52.9023913581247,2.234538712720618,0.8309888202400836,B,987.0305040094536,Incorrect,sub_017_day_09_data.csv,0,300,103.0,Training at home,,,,,,,,,,,,,
17,12,2579,A,34.75414155324759,59.380861274628785,1.7377070776623795,0.9327523877210422,A,857.8630480042193,Correct,sub_017_day_09_data.csv,1,300,103.0,Training at home,,,,,,,,,,,,,
17,12,2580,B,34.30763094706626,23.082089817800902,1.715381547353313,0.3625726190055154,B,590.0523719901685,Correct,sub_017_day_09_data.csv,1,300,103.0,Training at home,,,,,,,,,,,,,
17,12,2581,A,41.44114824567394,67.72796131893375,2.0720574122836974,1.0638683286108797,A,748.0816170136677,Correct,sub_017_day_09_data.csv,1,300,103.0,Training at home,,,,,,,,,,,,,
17,12,2582,B,37.89433610617675,22.180638272040625,1.8947168053088377,0.3484126512368771,B,1017.3647140036336,Correct,sub_017_day_09_data.csv,1,300,103.0,Training at home,,,,,,,,,,,,,
17,12,2583,B,83.35916465932698,69.14642809286346,4.167958232966349,1.0861495525925735,B,1076.2887390010292,Correct,sub_017_day_09_data.csv,1,300,103.0,Training at home,,,,,,,,,,,,,
17,12,2584,B,84.42168322133168,55.20127388744291,4.221084161066584,0.8670995825679436,B,623.9530150050996,Correct,sub_017_day_09_data.csv,1,300,103.0,Training at home,,,,,,,,,,,,,
17,12,2585,A,67.77451373469138,89.91974270658265,3.3887256867345688,1.4124560154984225,A,756.0851339949295,Correct,sub_017_day_09_data.csv,1,300,103.0,Training at home,,,,,,,,,,,,,
17,12,2586,B,37.68664622004381,15.934505061303646,1.8843323110021908,0.2502986201959045,B,1003.9067019970388,Correct,sub_017_day_09_data.csv,1,300,103.0,Training at home,,,,,,,,,,,,,
17,12,2587,A,57.67248845418136,74.09230856546228,2.883624422709068,1.163839261383822,A,1403.3059799985494,Correct,sub_017_day_09_data.csv,1,300,103.0,Training at home,,,,,,,,,,,,,
17,12,2588,A,53.51217492313232,82.18041806582373,2.675608746156616,1.2908869883226486,A,559.0815729956375,Correct,sub_017_day_09_data.csv,1,300,103.0,Training at home,,,,,,,,,,,,,
17,12,2589,B,70.36709443140606,38.203873193515655,3.5183547215703026,0.600105036817124,B,766.8484939931659,Correct,sub_017_day_09_data.csv,1,300,103.0,Training at home,,,,,,,,,,,,,
17,12,2590,A,38.10441364187757,63.760770253485816,1.9052206820938784,1.0015518370778882,A,998.0431820004014,Correct,sub_017_day_09_data.csv,1,300,103.0,Training at home,,,,,,,,,,,,,
17,12,2591,B,42.54736426569674,23.5337613468856,2.127368213284837,0.3696674587935562,B,1044.4013359956443,Correct,sub_017_day_09_data.csv,1,300,103.0,Training at home,,,,,,,,,,,,,
17,12,2592,A,25.44812718960086,49.134512868070146,1.272406359480043,0.7718031233202116,A,892.5660109962337,Correct,sub_017_day_09_data.csv,1,300,103.0,Training at home,,,,,,,,,,,,,
17,12,2593,B,46.19627969104228,20.584393677018394,2.3098139845521137,0.3233388997716059,B,2786.8772290094057,Correct,sub_017_day_09_data.csv,1,300,103.0,Training at home,,,,,,,,,,,,,
17,12,2594,A,35.49914492000961,58.01771459555315,1.7749572460004803,0.9113401297572956,A,836.0053499927744,Correct,sub_017_day_09_data.csv,1,300,103.0,Training at home,,,,,,,,,,,,,
17,12,2595,A,26.60335023815609,39.62414560915016,1.3301675119078045,0.6224146237523921,A,1134.0991610049969,Correct,sub_017_day_09_data.csv,1,300,103.0,Training at home,,,,,,,,,,,,,
17,12,2596,B,86.3652759839728,64.00457937217391,4.31826379919864,1.0053815817586316,B,640.5306660017231,Correct,sub_017_day_09_data.csv,1,300,103.0,Training at home,,,,,,,,,,,,,
17,12,2597,A,36.4686197986852,59.32806151799097,1.82343098993426,0.9319230110832186,A,847.441082005389,Correct,sub_017_day_09_data.csv,1,300,103.0,Training at home,,,,,,,,,,,,,
17,12,2598,B,68.39932621529393,55.91072093808012,3.4199663107646963,0.8782435507799077,B,1107.6083380030468,Correct,sub_017_day_09_data.csv,1,300,103.0,Training at home,,,,,,,,,,,,,
17,12,2599,B,56.22921509753156,49.19018360100948,2.811460754876578,0.7726775971483224,B,1491.4364159922116,Correct,sub_017_day_09_data.csv,1,300,103.0,Training at home,,,,,,,,,,,,,
17,12,2600,A,53.22384211293256,60.37917502461147,2.661192105646628,0.9484338634356586,B,1262.148989000707,Incorrect,sub_017_day_09_data.csv,0,300,104.0,Training at home,,,,,,,,,,,,,
17,12,2601,A,62.80230036354771,72.44528636278527,3.140115018177385,1.1379678971226752,A,897.0733470050618,Correct,sub_017_day_09_data.csv,1,300,104.0,Training at home,,,,,,,,,,,,,
17,12,2602,A,14.356927202211596,37.83177122501507,0.7178463601105798,0.5942600727639853,A,788.4312230016803,Correct,sub_017_day_09_data.csv,1,300,104.0,Training at home,,,,,,,,,,,,,
17,12,2603,B,51.347221974202114,26.149947916901457,2.567361098710106,0.4107624213374666,B,825.9430530015379,Correct,sub_017_day_09_data.csv,1,300,104.0,Training at home,,,,,,,,,,,,,
17,12,2604,A,49.396157564096214,78.0841554461981,2.4698078782048105,1.2265430455576969,A,1090.9669029933866,Correct,sub_017_day_09_data.csv,1,300,104.0,Training at home,,,,,,,,,,,,,
17,12,2605,A,48.88855225280013,67.18181465003782,2.444427612640007,1.0552894767969498,A,835.1045500021428,Correct,sub_017_day_09_data.csv,1,300,104.0,Training at home,,,,,,,,,,,,,
17,12,2606,A,55.01817099428333,73.29451684982884,2.750908549714166,1.151307578419178,A,604.1386559954844,Correct,sub_017_day_09_data.csv,1,300,104.0,Training at home,,,,,,,,,,,,,
17,12,2607,B,81.72250247871898,55.43542301793099,4.086125123935949,0.8707775885088725,B,1190.207347011892,Correct,sub_017_day_09_data.csv,1,300,104.0,Training at home,,,,,,,,,,,,,
17,12,2608,B,85.84918833676957,57.50548261422899,4.292459416838478,0.9032940086099868,B,939.1083130030892,Correct,sub_017_day_09_data.csv,1,300,104.0,Training at home,,,,,,,,,,,,,
17,12,2609,A,59.58514199821353,68.87942136337868,2.9792570999106767,1.0819554206935318,A,929.6335219987668,Correct,sub_017_day_09_data.csv,1,300,104.0,Training at home,,,,,,,,,,,,,
17,12,2610,A,15.721090814199329,30.482994948312683,0.7860545407099664,0.4788257649451695,A,765.7737340050517,Correct,sub_017_day_09_data.csv,1,300,104.0,Training at home,,,,,,,,,,,,,
17,12,2611,A,50.49266247146942,58.37032545739374,2.524633123573471,0.9168789282229672,B,1329.7383830067702,Incorrect,sub_017_day_09_data.csv,0,300,104.0,Training at home,,,,,,,,,,,,,
17,12,2612,B,55.763623175598816,39.39049718975647,2.788181158779941,0.6187444829629416,B,1527.1822899958352,Correct,sub_017_day_09_data.csv,1,300,104.0,Training at home,,,,,,,,,,,,,
17,12,2613,B,53.777862959147754,43.25974607424713,2.688893147957387,0.6795225023150734,B,1212.801046000095,Correct,sub_017_day_09_data.csv,1,300,104.0,Training at home,,,,,,,,,,,,,
17,12,2614,B,39.82076545832851,24.164089614573363,1.9910382729164255,0.3795686320691455,B,825.9153919934761,Correct,sub_017_day_09_data.csv,1,300,104.0,Training at home,,,,,,,,,,,,,
17,12,2615,A,48.30794916842525,69.52653749072941,2.4153974584212623,1.0921202970520545,A,1340.5679510033224,Correct,sub_017_day_09_data.csv,1,300,104.0,Training at home,,,,,,,,,,,,,
17,12,2616,B,57.31049588272482,43.45092646069668,2.865524794136241,0.6825255568029752,B,987.5849750096676,Correct,sub_017_day_09_data.csv,1,300,104.0,Training at home,,,,,,,,,,,,,
17,12,2617,A,41.22130968738348,71.24903338111693,2.0610654843691742,1.1191771992274544,A,866.0694510035682,Correct,sub_017_day_09_data.csv,1,300,104.0,Training at home,,,,,,,,,,,,,
17,12,2618,A,64.29443713724939,78.70688993272728,3.21472185686247,1.236324935997782,A,875.5968149926048,Correct,sub_017_day_09_data.csv,1,300,104.0,Training at home,,,,,,,,,,,,,
17,12,2619,A,16.089274015825595,36.96677637246687,0.8044637007912797,0.5806727653931932,A,460.9894159948454,Correct,sub_017_day_09_data.csv,1,300,104.0,Training at home,,,,,,,,,,,,,
17,12,2620,B,87.37129015713475,68.22083123242355,4.368564507856737,1.0716103111078548,B,470.5370970041258,Correct,sub_017_day_09_data.csv,1,300,104.0,Training at home,,,,,,,,,,,,,
17,12,2621,A,16.991058009519843,41.27450000646237,0.8495529004759922,0.6483383300044703,A,501.0442810016684,Correct,sub_017_day_09_data.csv,1,300,104.0,Training at home,,,,,,,,,,,,,
17,12,2622,A,23.984266454055177,55.199181996135664,1.1992133227027588,0.867066723216129,A,437.2621600050479,Correct,sub_017_day_09_data.csv,1,300,104.0,Training at home,,,,,,,,,,,,,
17,12,2623,A,24.284312436477023,50.6059733401204,1.2142156218238511,0.794916770365416,A,428.07766199985053,Correct,sub_017_day_09_data.csv,1,300,104.0,Training at home,,,,,,,,,,,,,
17,12,2624,B,76.1410981616547,47.968984653180186,3.8070549080827343,0.753495048932962,B,433.42791599570774,Correct,sub_017_day_09_data.csv,1,300,104.0,Training at home,,,,,,,,,,,,,
17,12,2625,A,35.70246635393495,61.11526614676302,1.7851233176967474,0.9599963557442786,A,559.7150349931326,Correct,sub_017_day_09_data.csv,1,300,105.0,Training at home,,,,,,,,,,,,,
17,12,2626,B,74.00420971066998,48.29424674301492,3.7002104855334994,0.7586042538925425,B,518.0846940056654,Correct,sub_017_day_09_data.csv,1,300,105.0,Training at home,,,,,,,,,,,,,
17,12,2627,A,31.962971575725103,49.61747168464884,1.5981485787862553,0.7793894226709617,A,640.6418280093931,Correct,sub_017_day_09_data.csv,1,300,105.0,Training at home,,,,,,,,,,,,,
17,12,2628,A,46.184126185283006,67.43403710614668,2.30920630926415,1.0592513778728594,B,1995.136666999315,Incorrect,sub_017_day_09_data.csv,0,300,105.0,Training at home,,,,,,,,,,,,,
17,12,2629,B,78.04625116640719,64.2122984618972,3.902312558320359,1.008644425590057,B,705.81632599351,Correct,sub_017_day_09_data.csv,1,300,105.0,Training at home,,,,,,,,,,,,,
17,12,2630,B,69.80202856188865,50.061435891005154,3.490101428094432,0.7863631961166908,B,539.1304669901729,Correct,sub_017_day_09_data.csv,1,300,105.0,Training at home,,,,,,,,,,,,,
17,12,2631,B,69.05098743018549,55.42886670916424,3.4525493715092743,0.8706746022515912,B,451.0969370021485,Correct,sub_017_day_09_data.csv,1,300,105.0,Training at home,,,,,,,,,,,,,
17,12,2632,B,62.74161976900316,40.06317732573611,3.137080988450158,0.6293109178299887,B,1099.6754539955873,Correct,sub_017_day_09_data.csv,1,300,105.0,Training at home,,,,,,,,,,,,,
17,12,2633,B,55.400067497678315,34.08974840928873,2.7700033748839155,0.5354805158267292,B,1053.7204720021691,Correct,sub_017_day_09_data.csv,1,300,105.0,Training at home,,,,,,,,,,,,,
17,12,2634,B,40.738594138145245,29.119643358608784,2.0369297069072623,0.4574102882528009,B,772.6841509866063,Correct,sub_017_day_09_data.csv,1,300,105.0,Training at home,,,,,,,,,,,,,
17,12,2635,B,80.91469721911986,52.60687568299951,4.045734860955992,0.8263468708701138,B,453.991741000209,Correct,sub_017_day_09_data.csv,1,300,105.0,Training at home,,,,,,,,,,,,,
17,12,2636,B,58.87141243905229,27.278212373629465,2.9435706219526145,0.4284851579802825,B,446.73436699667946,Correct,sub_017_day_09_data.csv,1,300,105.0,Training at home,,,,,,,,,,,,,
17,12,2637,B,51.275113829933424,42.95528195950979,2.563755691496671,0.6747399911843707,B,529.9689029925503,Correct,sub_017_day_09_data.csv,1,300,105.0,Training at home,,,,,,,,,,,,,
17,12,2638,A,38.508784434027945,62.36355815100251,1.9254392217013971,0.9796044806945466,A,777.5989619985921,Correct,sub_017_day_09_data.csv,1,300,105.0,Training at home,,,,,,,,,,,,,
17,12,2639,A,32.53983570826216,59.2538916195146,1.626991785413108,0.9307579530423644,A,795.3310589946341,Correct,sub_017_day_09_data.csv,1,300,105.0,Training at home,,,,,,,,,,,,,
17,12,2640,B,85.75800615456507,66.39041856245163,4.287900307728253,1.0428582561227473,B,1203.4362550039075,Correct,sub_017_day_09_data.csv,1,300,105.0,Training at home,,,,,,,,,,,,,
17,12,2641,A,42.65908577120515,61.27276757147967,2.1329542885602577,0.9624703823383772,A,505.8371869963594,Correct,sub_017_day_09_data.csv,1,300,105.0,Training at home,,,,,,,,,,,,,
17,12,2642,B,75.71775919976535,48.622501388493745,3.7858879599882673,0.7637604658062572,B,1506.8348969944054,Correct,sub_017_day_09_data.csv,1,300,105.0,Training at home,,,,,,,,,,,,,
17,12,2643,B,76.3116386572465,43.99231461014793,3.815581932862325,0.6910296619682583,B,701.9129499967676,Correct,sub_017_day_09_data.csv,1,300,105.0,Training at home,,,,,,,,,,,,,
17,12,2644,A,54.60246329582927,75.63854925627881,2.730123164791463,1.1881275533585762,A,1189.7005460050425,Correct,sub_017_day_09_data.csv,1,300,105.0,Training at home,,,,,,,,,,,,,
17,12,2645,A,31.377490499848456,53.6333834605818,1.5688745249924227,0.8424712173346406,A,956.0455280006864,Correct,sub_017_day_09_data.csv,1,300,105.0,Training at home,,,,,,,,,,,,,
17,12,2646,A,62.68755757172849,77.13509297340009,3.134377878586424,1.211635207095997,A,1081.7902730050264,Correct,sub_017_day_09_data.csv,1,300,105.0,Training at home,,,,,,,,,,,,,
17,12,2647,B,46.1771525447749,35.36307150021227,2.308857627238745,0.5554818281671873,B,1068.8715759897605,Correct,sub_017_day_09_data.csv,1,300,105.0,Training at home,,,,,,,,,,,,,
17,12,2648,A,22.5089221828163,52.88300969614958,1.1254461091408148,0.8306843738057066,A,755.365339005948,Correct,sub_017_day_09_data.csv,1,300,105.0,Training at home,,,,,,,,,,,,,
17,12,2649,A,43.94470968198334,55.87620638066196,2.197235484099167,0.8777013973797737,A,2473.1924689986045,Correct,sub_017_day_09_data.csv,1,300,105.0,Training at home,,,,,,,,,,,,,
17,12,2650,A,46.47853214807882,55.02502280784929,2.323926607403941,0.8643310370837507,A,472.638711988111,Correct,sub_017_day_09_data.csv,1,300,106.0,Training at home,,,,,,,,,,,,,
17,12,2651,A,36.59308367086345,56.948758729623535,1.8296541835431728,0.8945490102802146,A,472.52495599968825,Correct,sub_017_day_09_data.csv,1,300,106.0,Training at home,,,,,,,,,,,,,
17,12,2652,B,37.98509812531539,24.11371985307294,1.8992549062657695,0.3787774257056815,B,652.9766869934974,Correct,sub_017_day_09_data.csv,1,300,106.0,Training at home,,,,,,,,,,,,,
17,12,2653,B,65.72038058101136,39.18232362995877,3.286019029050568,0.6154745003322811,B,656.8864799919538,Correct,sub_017_day_09_data.csv,1,300,106.0,Training at home,,,,,,,,,,,,,
17,12,2654,A,58.13841699235888,77.65885384474419,2.9069208496179444,1.219862423624259,A,466.8058630049927,Correct,sub_017_day_09_data.csv,1,300,106.0,Training at home,,,,,,,,,,,,,
17,12,2655,B,66.66328508925042,56.47168201265925,3.333164254462521,0.8870551067341459,B,396.3276479917113,Correct,sub_017_day_09_data.csv,1,300,106.0,Training at home,,,,,,,,,,,,,
17,12,2656,A,50.20785123693263,69.48134499221766,2.510392561846632,1.0914104149454449,A,930.697402000078,Correct,sub_017_day_09_data.csv,1,300,106.0,Training at home,,,,,,,,,,,,,
17,12,2657,B,88.22136067329528,62.0142180433223,4.4110680336647645,0.9741170591150846,B,985.8827129937708,Correct,sub_017_day_09_data.csv,1,300,106.0,Training at home,,,,,,,,,,,,,
17,12,2658,A,46.00510358440822,64.07145001460651,2.300255179220411,1.0064319833536672,A,1123.5745449957903,Correct,sub_017_day_09_data.csv,1,300,106.0,Training at home,,,,,,,,,,,,,
17,12,2659,B,65.86412374704074,38.54624700087262,3.2932061873520366,0.605483032006995,B,735.406445004628,Correct,sub_017_day_09_data.csv,1,300,106.0,Training at home,,,,,,,,,,,,,
17,12,2660,B,69.28921134914664,39.92110577413289,3.4644605674573317,0.6270792631159848,B,691.4405930001521,Correct,sub_017_day_09_data.csv,1,300,106.0,Training at home,,,,,,,,,,,,,
17,12,2661,A,48.75990508818218,72.23090864963167,2.437995254409109,1.1346004598789914,A,526.4528789994074,Correct,sub_017_day_09_data.csv,1,300,106.0,Training at home,,,,,,,,,,,,,
17,12,2662,A,36.8216655578657,55.188689712918155,1.8410832778932849,0.8669019108167514,A,549.9916950066108,Correct,sub_017_day_09_data.csv,1,300,106.0,Training at home,,,,,,,,,,,,,
17,12,2663,A,36.10015335275544,50.854305858134914,1.805007667637772,0.7988175684366251,A,966.8066090089268,Correct,sub_017_day_09_data.csv,1,300,106.0,Training at home,,,,,,,,,,,,,
17,12,2664,B,73.91724522604302,46.1032805069988,3.695862261302151,0.7241886367358846,B,1006.2802860047668,Correct,sub_017_day_09_data.csv,1,300,106.0,Training at home,,,,,,,,,,,,,
17,12,2665,B,88.74349811592539,69.13378820360666,4.43717490579627,1.0859510056764168,B,678.6281539971242,Correct,sub_017_day_09_data.csv,1,300,106.0,Training at home,,,,,,,,,,,,,
17,12,2666,B,36.51737975195833,22.63066476725973,1.8258689875979168,0.3554816508933827,B,949.5878869929584,Correct,sub_017_day_09_data.csv,1,300,106.0,Training at home,,,,,,,,,,,,,
17,12,2667,B,44.51052283645559,15.894897589925291,2.2255261418227796,0.249676467490357,B,882.2663000028115,Correct,sub_017_day_09_data.csv,1,300,106.0,Training at home,,,,,,,,,,,,,
17,12,2668,B,44.10924619862156,18.328916443421075,2.2054623099310784,0.287909946234564,B,491.3286000082735,Correct,sub_017_day_09_data.csv,1,300,106.0,Training at home,,,,,,,,,,,,,
17,12,2669,B,57.83094902933125,26.083689528190316,2.8915474514665624,0.4097216370013986,B,669.645504996879,Correct,sub_017_day_09_data.csv,1,300,106.0,Training at home,,,,,,,,,,,,,
17,12,2670,A,43.39437079160727,55.03274756362281,2.169718539580364,0.8644523772636951,A,893.2236149994424,Correct,sub_017_day_09_data.csv,1,300,106.0,Training at home,,,,,,,,,,,,,
17,12,2671,A,15.509846468780658,44.37809036585389,0.775492323439033,0.6970894133685529,A,1140.101634999155,Correct,sub_017_day_09_data.csv,1,300,106.0,Training at home,,,,,,,,,,,,,
17,12,2672,A,36.43785328309884,64.29036289595737,1.8218926641549416,1.0098706588528077,A,911.903986998368,Correct,sub_017_day_09_data.csv,1,300,106.0,Training at home,,,,,,,,,,,,,
17,12,2673,B,48.38143707382843,32.0847157591814,2.4190718536914217,0.5039855366078048,B,631.9948989985278,Correct,sub_017_day_09_data.csv,1,300,106.0,Training at home,,,,,,,,,,,,,
17,12,2674,B,72.50266207784149,47.73701709987269,3.6251331038920744,0.7498513111262519,B,763.0590879998636,Correct,sub_017_day_09_data.csv,1,300,106.0,Training at home,,,,,,,,,,,,,
17,12,2675,B,66.50043112907986,57.10454301825559,3.3250215564539927,0.8969960641637704,B,551.6133620112669,Correct,sub_017_day_09_data.csv,1,300,107.0,Training at home,,,,,,,,,,,,,
17,12,2676,B,59.599620063867185,31.91018157720375,2.9799810031933593,0.5012439600882983,B,747.1928720042342,Correct,sub_017_day_09_data.csv,1,300,107.0,Training at home,,,,,,,,,,,,,
17,12,2677,A,21.60650104034398,49.06318890467096,1.0803250520171988,0.7706827691230127,A,646.5767899935599,Correct,sub_017_day_09_data.csv,1,300,107.0,Training at home,,,,,,,,,,,,,
17,12,2678,A,22.59380288207919,38.99965161127888,1.1296901441039595,0.6126050949727753,A,1206.1321020009927,Correct,sub_017_day_09_data.csv,1,300,107.0,Training at home,,,,,,,,,,,,,
17,12,2679,B,48.517918467775104,29.935963780359593,2.4258959233887554,0.4702330194525391,B,1003.2814919977682,Correct,sub_017_day_09_data.csv,1,300,107.0,Training at home,,,,,,,,,,,,,
17,12,2680,B,75.34462553124435,52.1919393581567,3.767231276562218,0.8198290663209454,B,694.5105339982547,Correct,sub_017_day_09_data.csv,1,300,107.0,Training at home,,,,,,,,,,,,,
17,12,2681,A,37.29066770507187,69.222697840438,1.864533385253594,1.0873475949859304,A,746.794285994838,Correct,sub_017_day_09_data.csv,1,300,107.0,Training at home,,,,,,,,,,,,,
17,12,2682,B,38.57002103407134,14.796146458932643,1.928501051703567,0.2324173250841071,B,377.35254201106727,Correct,sub_017_day_09_data.csv,1,300,107.0,Training at home,,,,,,,,,,,,,
17,12,2683,B,49.67103848986092,33.0942417040109,2.483551924493046,0.519843133067228,B,319.93416900513694,Correct,sub_017_day_09_data.csv,1,300,107.0,Training at home,,,,,,,,,,,,,
17,12,2684,A,65.71245523641237,87.49488427778007,3.285622761820618,1.3743664283688148,A,768.2335980061907,Correct,sub_017_day_09_data.csv,1,300,107.0,Training at home,,,,,,,,,,,,,
17,12,2685,B,50.39350777664677,22.906186500027896,2.5196753888323387,0.3598095361512267,B,369.12651899911,Correct,sub_017_day_09_data.csv,1,300,107.0,Training at home,,,,,,,,,,,,,
17,12,2686,B,56.01615513086209,37.98603042668353,2.8008077565431044,0.5966831706375366,B,468.65438199893106,Correct,sub_017_day_09_data.csv,1,300,107.0,Training at home,,,,,,,,,,,,,
17,12,2687,A,10.67997515574967,34.80097327696647,0.5339987577874835,0.5466524099234628,A,479.3989900063025,Correct,sub_017_day_09_data.csv,1,300,107.0,Training at home,,,,,,,,,,,,,
17,12,2688,A,22.85163264355076,51.21907909525737,1.142581632177538,0.8045474130464754,A,586.8434100120794,Correct,sub_017_day_09_data.csv,1,300,107.0,Training at home,,,,,,,,,,,,,
17,12,2689,B,67.74300476471859,43.40746611790651,3.3871502382359298,0.6818428833348147,B,462.648196000373,Correct,sub_017_day_09_data.csv,1,300,107.0,Training at home,,,,,,,,,,,,,
17,12,2690,A,59.42502601313693,84.29632464438993,2.971251300656846,1.3241235711371782,A,563.5868520039367,Correct,sub_017_day_09_data.csv,1,300,107.0,Training at home,,,,,,,,,,,,,
17,12,2691,A,23.508809249285218,51.93751578121936,1.175440462464261,0.8158325901199135,A,575.9338330099126,Correct,sub_017_day_09_data.csv,1,300,107.0,Training at home,,,,,,,,,,,,,
17,12,2692,B,57.61598467835656,30.297449987699423,2.8807992339178283,0.4759112315193033,B,667.4570169998333,Correct,sub_017_day_09_data.csv,1,300,107.0,Training at home,,,,,,,,,,,,,
17,12,2693,A,44.04423891363123,54.11313378188465,2.2022119456815616,0.8500071177594524,B,657.3913739994168,Incorrect,sub_017_day_09_data.csv,0,300,107.0,Training at home,,,,,,,,,,,,,
17,12,2694,B,55.777615879391725,36.26819735392739,2.7888807939695863,0.5696995118302154,B,516.0994570032926,Correct,sub_017_day_09_data.csv,1,300,107.0,Training at home,,,,,,,,,,,,,
17,12,2695,A,22.56442784300377,37.19434529950297,1.1282213921501885,0.5842474097400029,A,647.237112003495,Correct,sub_017_day_09_data.csv,1,300,107.0,Training at home,,,,,,,,,,,,,
17,12,2696,A,41.77798535085851,57.12561762224209,2.088899267542925,0.8973271032690768,A,538.6883809987921,Correct,sub_017_day_09_data.csv,1,300,107.0,Training at home,,,,,,,,,,,,,
17,12,2697,A,35.994052983817724,65.28277155377418,1.799702649190886,1.0254593775965886,A,648.393829993438,Correct,sub_017_day_09_data.csv,1,300,107.0,Training at home,,,,,,,,,,,,,
17,12,2698,A,23.780651721333637,54.86516065312643,1.189032586066682,0.8618199282294289,A,489.3899360031355,Correct,sub_017_day_09_data.csv,1,300,107.0,Training at home,,,,,,,,,,,,,
17,12,2699,B,59.101291526953545,48.39453604830389,2.9550645763476773,0.7601795946161896,B,423.1182999938028,Correct,sub_017_day_09_data.csv,1,300,107.0,Training at home,,,,,,,,,,,,,
