subject,day,trial,cat,x,y,xt,yt,resp,rt,fb,f_name,acc,n_trials,block,session_type,ns_left_digit,ns_right_digit,ns_left_size,ns_right_size,ns_congruent,ns_cue,ns_correct_side,ns_resp,ns_rt,ns_fb,acc_stroop,acc_stroop_mean,resp_key
17,2,0,A,50.52726700695346,78.16240628457548,2.526363350347673,1.2277722068526151,A,1142.052089999197,Correct,sub_017_day_01_data.csv,1,300,0.0,Training at home,,,,,,,,,,,,,
17,2,1,B,70.14771840743845,38.38341149901556,3.5073859203719224,0.6029252179251063,A,817.4239979998674,Incorrect,sub_017_day_01_data.csv,0,300,0.0,Training at home,,,,,,,,,,,,,
17,2,2,B,69.91688057442151,48.00733902527091,3.4958440287210752,0.7540975180009285,B,1281.4184500020929,Correct,sub_017_day_01_data.csv,1,300,0.0,Training at home,,,,,,,,,,,,,
17,2,3,A,25.396411381294,55.00432802663278,1.2698205690647,0.8640059642205634,A,1170.2548099856358,Correct,sub_017_day_01_data.csv,1,300,0.0,Training at home,,,,,,,,,,,,,
17,2,4,B,48.36719734223587,21.99217689394227,2.4183598671117936,0.3454523068322811,B,1428.824155998882,Correct,sub_017_day_01_data.csv,1,300,0.0,Training at home,,,,,,,,,,,,,
17,2,5,B,64.88372995428912,38.13694403571213,3.2441864977144563,0.5990537160647916,B,2090.4110459960066,Correct,sub_017_day_01_data.csv,1,300,0.0,Training at home,,,,,,,,,,,,,
17,2,6,B,71.3937608271708,53.968961703910786,3.56968804135854,0.847742468054375,B,1488.7807049963158,Correct,sub_017_day_01_data.csv,1,300,0.0,Training at home,,,,,,,,,,,,,
17,2,7,A,52.72555299567986,68.67098398337751,2.6362776497839935,1.0786812939848056,A,1431.6989459912293,Correct,sub_017_day_01_data.csv,1,300,0.0,Training at home,,,,,,,,,,,,,
17,2,8,B,43.09081221753104,27.847676215749267,2.154540610876552,0.4374302750947256,A,2465.5028879933525,Incorrect,sub_017_day_01_data.csv,0,300,0.0,Training at home,,,,,,,,,,,,,
17,2,9,A,25.397767386014895,49.50285407777819,1.2698883693007448,0.7775890135123775,A,1546.9946840021294,Correct,sub_017_day_01_data.csv,1,300,0.0,Training at home,,,,,,,,,,,,,
17,2,10,A,41.32931265682469,60.61587473724275,2.0664656328412345,0.9521519338272048,A,1074.289926997153,Correct,sub_017_day_01_data.csv,1,300,0.0,Training at home,,,,,,,,,,,,,
17,2,11,A,13.689883901924322,39.9208011589335,0.684494195096216,0.6270744782316219,A,734.6373489999678,Correct,sub_017_day_01_data.csv,1,300,0.0,Training at home,,,,,,,,,,,,,
17,2,12,B,66.69522682003726,58.6183000620007,3.334761341001863,0.9207741042035176,B,784.9111569812521,Correct,sub_017_day_01_data.csv,1,300,0.0,Training at home,,,,,,,,,,,,,
17,2,13,B,37.275268914373974,22.240809837981473,1.863763445718699,0.3493578239844509,A,2522.451397991972,Incorrect,sub_017_day_01_data.csv,0,300,0.0,Training at home,,,,,,,,,,,,,
17,2,14,B,74.20743157617949,42.20220352459224,3.7103715788089744,0.6629106627908014,B,1458.3214510057587,Correct,sub_017_day_01_data.csv,1,300,0.0,Training at home,,,,,,,,,,,,,
17,2,15,A,24.291495581629253,55.57294705482887,1.2145747790814625,0.8729378110289245,A,720.1176160015166,Correct,sub_017_day_01_data.csv,1,300,0.0,Training at home,,,,,,,,,,,,,
17,2,16,B,46.45674203500349,20.370552934554446,2.3228371017501743,0.3199798972437912,A,1862.1749009762425,Incorrect,sub_017_day_01_data.csv,0,300,0.0,Training at home,,,,,,,,,,,,,
17,2,17,A,61.474403149796686,80.55135671462588,3.0737201574898343,1.265297752456798,A,1337.171163992025,Correct,sub_017_day_01_data.csv,1,300,0.0,Training at home,,,,,,,,,,,,,
17,2,18,B,65.67049486143294,43.0454432437535,3.2835247430716468,0.676156241325462,B,1283.9177360001486,Correct,sub_017_day_01_data.csv,1,300,0.0,Training at home,,,,,,,,,,,,,
17,2,19,A,42.93619688212328,58.310153139076675,2.1468098441061643,0.9159337436570956,B,4231.664218008518,Incorrect,sub_017_day_01_data.csv,0,300,0.0,Training at home,,,,,,,,,,,,,
17,2,20,B,62.47558603918644,30.03482245874332,3.1237793019593223,0.4717858879413087,B,798.2766540080775,Correct,sub_017_day_01_data.csv,1,300,0.0,Training at home,,,,,,,,,,,,,
17,2,21,B,35.58610720837913,10.971143648651625,1.7793053604189566,0.1723343214404112,B,1086.4717249933165,Correct,sub_017_day_01_data.csv,1,300,0.0,Training at home,,,,,,,,,,,,,
17,2,22,B,47.06132883484328,16.669916341142788,2.353066441742164,0.2618504335664531,B,557.8334140009247,Correct,sub_017_day_01_data.csv,1,300,0.0,Training at home,,,,,,,,,,,,,
17,2,23,B,56.14618571989504,44.13999741875544,2.807309285994752,0.6933494581011727,B,1751.383533992339,Correct,sub_017_day_01_data.csv,1,300,0.0,Training at home,,,,,,,,,,,,,
17,2,24,B,55.89177497672462,48.065037691461626,2.794588748836231,0.7550038465300618,A,1099.2085170000792,Incorrect,sub_017_day_01_data.csv,0,300,0.0,Training at home,,,,,,,,,,,,,
17,2,25,B,60.10546212245511,51.42751262162143,3.0052731061227553,0.8078214792224113,A,1992.7967640105635,Incorrect,sub_017_day_01_data.csv,0,300,1.0,Training at home,,,,,,,,,,,,,
17,2,26,A,60.797433705252985,86.45031109998436,3.039871685262649,1.3579583112613152,A,1062.4720570049249,Correct,sub_017_day_01_data.csv,1,300,1.0,Training at home,,,,,,,,,,,,,
17,2,27,B,62.88891927999486,40.44183283276996,3.144445963999743,0.6352588246256831,B,815.7305739878211,Correct,sub_017_day_01_data.csv,1,300,1.0,Training at home,,,,,,,,,,,,,
17,2,28,A,64.1112355394584,85.25585898637465,3.20556177697292,1.3391959013354098,A,1596.560499019688,Correct,sub_017_day_01_data.csv,1,300,1.0,Training at home,,,,,,,,,,,,,
17,2,29,B,44.41480501986767,15.613853303143706,2.2207402509933836,0.2452618341569249,B,665.339163999306,Correct,sub_017_day_01_data.csv,1,300,1.0,Training at home,,,,,,,,,,,,,
17,2,30,B,36.73548165627416,18.681813459545776,1.836774082813708,0.2934532396012196,B,2316.7201500036754,Correct,sub_017_day_01_data.csv,1,300,1.0,Training at home,,,,,,,,,,,,,
17,2,31,A,43.36304577169446,54.36915536321169,2.168152288584723,0.8540286953547397,B,1570.3871520236137,Incorrect,sub_017_day_01_data.csv,0,300,1.0,Training at home,,,,,,,,,,,,,
17,2,32,B,82.39479359121387,66.91864766822732,4.119739679560694,1.0511556595133331,B,1260.9011979948264,Correct,sub_017_day_01_data.csv,1,300,1.0,Training at home,,,,,,,,,,,,,
17,2,33,B,47.32229007791189,36.148719715239224,2.366114503895594,0.5678227614703603,B,2409.272531978786,Correct,sub_017_day_01_data.csv,1,300,1.0,Training at home,,,,,,,,,,,,,
17,2,34,A,42.55627088571025,51.50031180984089,2.1278135442855124,0.8089650061968989,A,1632.035207003355,Correct,sub_017_day_01_data.csv,1,300,1.0,Training at home,,,,,,,,,,,,,
17,2,35,A,52.010665193082595,58.97501208872791,2.6005332596541297,0.9263773236165842,A,1318.3810299960896,Correct,sub_017_day_01_data.csv,1,300,1.0,Training at home,,,,,,,,,,,,,
17,2,36,A,47.55909967964324,60.86745611110758,2.377954983982162,0.9561037648067736,B,807.5886120204814,Incorrect,sub_017_day_01_data.csv,0,300,1.0,Training at home,,,,,,,,,,,,,
17,2,37,A,38.27868307402675,47.02014612678163,1.9139341537013377,0.7385907282130788,A,712.040637008613,Correct,sub_017_day_01_data.csv,1,300,1.0,Training at home,,,,,,,,,,,,,
17,2,38,A,13.185760572497257,35.03742881885818,0.6592880286248628,0.5503666448900009,A,1252.8026590007355,Correct,sub_017_day_01_data.csv,1,300,1.0,Training at home,,,,,,,,,,,,,
17,2,39,B,66.56655661605822,50.86461694335338,3.328327830802911,0.7989795345844897,B,642.3360839835368,Correct,sub_017_day_01_data.csv,1,300,1.0,Training at home,,,,,,,,,,,,,
17,2,40,A,36.55611717264436,47.82850840438285,1.827805858632218,0.7512884531768342,A,2372.871260973625,Correct,sub_017_day_01_data.csv,1,300,1.0,Training at home,,,,,,,,,,,,,
17,2,41,B,47.71925920830195,18.920705467072068,2.385962960415098,0.2972057464804492,B,762.4773769930471,Correct,sub_017_day_01_data.csv,1,300,1.0,Training at home,,,,,,,,,,,,,
17,2,42,A,21.3520197780827,38.27324094379795,1.0676009889041351,0.6011946628905386,A,620.7920290180482,Correct,sub_017_day_01_data.csv,1,300,1.0,Training at home,,,,,,,,,,,,,
17,2,43,A,47.84617204897405,58.74427288075966,2.3923086024487024,0.9227528806133434,B,2084.4786890083924,Incorrect,sub_017_day_01_data.csv,0,300,1.0,Training at home,,,,,,,,,,,,,
17,2,44,B,39.86615691409912,28.895172273430173,1.993307845704956,0.4538843046920985,A,667.331570002716,Incorrect,sub_017_day_01_data.csv,0,300,1.0,Training at home,,,,,,,,,,,,,
17,2,45,A,27.779746455967377,39.98876642165017,1.388987322798369,0.6281420740818718,A,2445.987074985169,Correct,sub_017_day_01_data.csv,1,300,1.0,Training at home,,,,,,,,,,,,,
17,2,46,B,51.26308249077004,36.97565288604868,2.5631541245385017,0.5808121973424838,B,663.0880070151761,Correct,sub_017_day_01_data.csv,1,300,1.0,Training at home,,,,,,,,,,,,,
17,2,47,B,80.50692436407297,62.83656366181201,4.025346218203649,0.9870344338838796,B,545.5565360025503,Correct,sub_017_day_01_data.csv,1,300,1.0,Training at home,,,,,,,,,,,,,
17,2,48,A,38.87228223854757,56.91947156246569,1.9436141119273784,0.8940889685342768,A,696.0429880127776,Correct,sub_017_day_01_data.csv,1,300,1.0,Training at home,,,,,,,,,,,,,
17,2,49,A,43.67454403889138,66.50663719003099,2.1837272019445693,1.0446838140558157,B,1157.2113939910196,Incorrect,sub_017_day_01_data.csv,0,300,1.0,Training at home,,,,,,,,,,,,,
17,2,50,B,32.92825713270321,20.717481183789737,1.6464128566351603,0.325429433439393,B,1458.487405005144,Correct,sub_017_day_01_data.csv,1,300,2.0,Training at home,,,,,,,,,,,,,
17,2,51,A,14.038421790387588,32.17677246725101,0.7019210895193794,0.5054315599967305,A,654.4879809953272,Correct,sub_017_day_01_data.csv,1,300,2.0,Training at home,,,,,,,,,,,,,
17,2,52,A,16.555018140545585,39.34739404442007,0.8277509070272793,0.6180674203392643,A,786.4656739984639,Correct,sub_017_day_01_data.csv,1,300,2.0,Training at home,,,,,,,,,,,,,
17,2,53,B,73.26317522137829,44.46652149427778,3.6631587610689142,0.6984784862855785,B,588.2864749873988,Correct,sub_017_day_01_data.csv,1,300,2.0,Training at home,,,,,,,,,,,,,
17,2,54,A,44.36699889918549,52.77934420267333,2.2183499449592743,0.829056000042028,B,747.4547669989988,Incorrect,sub_017_day_01_data.csv,0,300,2.0,Training at home,,,,,,,,,,,,,
17,2,55,A,24.195791222241823,53.84213377833773,1.2097895611120912,0.8457502596581234,A,801.686579012312,Correct,sub_017_day_01_data.csv,1,300,2.0,Training at home,,,,,,,,,,,,,
17,2,56,A,44.74001887084203,68.66257616933368,2.2370009435421014,1.0785492243506414,B,488.2940679963213,Incorrect,sub_017_day_01_data.csv,0,300,2.0,Training at home,,,,,,,,,,,,,
17,2,57,A,35.96724682999956,46.38576811683076,1.798362341499978,0.7286259417347758,A,1743.4820709750056,Correct,sub_017_day_01_data.csv,1,300,2.0,Training at home,,,,,,,,,,,,,
17,2,58,B,59.59267278937822,30.104027730384384,2.979633639468911,0.4728729618061949,B,445.8646720158867,Correct,sub_017_day_01_data.csv,1,300,2.0,Training at home,,,,,,,,,,,,,
17,2,59,A,60.11626737291853,81.69770201614844,3.005813368645926,1.2833045023454996,A,1750.6013080128469,Correct,sub_017_day_01_data.csv,1,300,2.0,Training at home,,,,,,,,,,,,,
17,2,60,A,25.148319541004646,50.083956161943426,1.2574159770502322,0.7867169437053736,A,807.2164429759141,Correct,sub_017_day_01_data.csv,1,300,2.0,Training at home,,,,,,,,,,,,,
17,2,61,B,70.59588198221152,39.94815923254397,3.529794099110576,0.6275042178469771,B,585.0565239961725,Correct,sub_017_day_01_data.csv,1,300,2.0,Training at home,,,,,,,,,,,,,
17,2,62,A,35.85759905224333,61.11587106241998,1.7928799526121666,0.960005857737198,A,762.9229790181853,Correct,sub_017_day_01_data.csv,1,300,2.0,Training at home,,,,,,,,,,,,,
17,2,63,A,10.484981918803133,32.149506933821684,0.5242490959401566,0.5050032739991417,A,1037.9960190039128,Correct,sub_017_day_01_data.csv,1,300,2.0,Training at home,,,,,,,,,,,,,
17,2,64,A,24.77519466694327,55.035262711077074,1.2387597333471634,0.8644918851075201,A,897.5515500060283,Correct,sub_017_day_01_data.csv,1,300,2.0,Training at home,,,,,,,,,,,,,
17,2,65,B,69.20119575325337,42.677671722177855,3.4600597876626686,0.6703792997735539,B,408.683490997646,Correct,sub_017_day_01_data.csv,1,300,2.0,Training at home,,,,,,,,,,,,,
17,2,66,A,52.38925923656469,74.7400665563853,2.619462961828235,1.1740142201117612,B,777.2908069891855,Incorrect,sub_017_day_01_data.csv,0,300,2.0,Training at home,,,,,,,,,,,,,
17,2,67,B,32.92848158284061,18.824213594899177,1.6464240791420306,0.2956900556967017,B,866.9655330013484,Correct,sub_017_day_01_data.csv,1,300,2.0,Training at home,,,,,,,,,,,,,
17,2,68,A,64.44859904173876,78.9473069802262,3.222429952086938,1.240101398148884,A,1821.428877010476,Correct,sub_017_day_01_data.csv,1,300,2.0,Training at home,,,,,,,,,,,,,
17,2,69,B,52.31080039046646,43.77592340270699,2.615540019523323,0.6876305968302688,B,688.5627750016283,Correct,sub_017_day_01_data.csv,1,300,2.0,Training at home,,,,,,,,,,,,,
17,2,70,B,75.34000705673505,43.880107797084314,3.767000352836752,0.6892671214702415,B,503.10840900056064,Correct,sub_017_day_01_data.csv,1,300,2.0,Training at home,,,,,,,,,,,,,
17,2,71,A,41.625206988538594,53.51046612971798,2.0812603494269295,0.8405404364164374,A,2432.7142809925135,Correct,sub_017_day_01_data.csv,1,300,2.0,Training at home,,,,,,,,,,,,,
17,2,72,A,58.82536506124987,84.21478630300342,2.941268253062493,1.3228427698657494,A,2174.6514779806603,Correct,sub_017_day_01_data.csv,1,300,2.0,Training at home,,,,,,,,,,,,,
17,2,73,A,60.55609854688768,69.41313340730358,3.027804927344385,1.0903389498751657,B,1417.2960410069209,Incorrect,sub_017_day_01_data.csv,0,300,2.0,Training at home,,,,,,,,,,,,,
17,2,74,B,36.97348671988257,22.98601416947479,1.848674335994129,0.3610634662506645,B,875.0860120053403,Correct,sub_017_day_01_data.csv,1,300,2.0,Training at home,,,,,,,,,,,,,
17,2,75,B,54.90536114140675,40.62295100347773,2.7452680570703376,0.6381038221983188,B,739.5533900125884,Correct,sub_017_day_01_data.csv,1,300,3.0,Training at home,,,,,,,,,,,,,
17,2,76,A,18.24495955556994,46.34572848809989,0.9122479777784972,0.727997000717409,A,533.2574999774806,Correct,sub_017_day_01_data.csv,1,300,3.0,Training at home,,,,,,,,,,,,,
17,2,77,B,63.54760653356547,31.778897655822853,3.1773803266782736,0.4991817570735748,B,652.5790879968554,Correct,sub_017_day_01_data.csv,1,300,3.0,Training at home,,,,,,,,,,,,,
17,2,78,A,24.459730546858093,43.537661383192585,1.2229865273429048,0.6838879857795893,A,707.0721900090575,Correct,sub_017_day_01_data.csv,1,300,3.0,Training at home,,,,,,,,,,,,,
17,2,79,B,52.43103295316784,36.221392752722224,2.6215516476583924,0.5689643068737135,B,2760.7946830103174,Correct,sub_017_day_01_data.csv,1,300,3.0,Training at home,,,,,,,,,,,,,
17,2,80,A,16.560834963670004,44.290083569583885,0.8280417481835002,0.6957070058454137,A,564.5059309899807,Correct,sub_017_day_01_data.csv,1,300,3.0,Training at home,,,,,,,,,,,,,
17,2,81,A,61.86737959717259,72.43291943258086,3.0933689798586297,1.137773637837287,B,547.0488329883665,Incorrect,sub_017_day_01_data.csv,0,300,3.0,Training at home,,,,,,,,,,,,,
17,2,82,A,35.626033605200064,51.55768235481695,1.7813016802600032,0.8098661806100452,A,1849.084285000572,Correct,sub_017_day_01_data.csv,1,300,3.0,Training at home,,,,,,,,,,,,,
17,2,83,A,32.922811363260365,60.46374586848541,1.6461405681630183,0.9497622991447696,A,547.6528209983371,Correct,sub_017_day_01_data.csv,1,300,3.0,Training at home,,,,,,,,,,,,,
17,2,84,B,49.2680513864415,24.139167138727508,2.463402569322075,0.3791771507340124,B,714.1295400215313,Correct,sub_017_day_01_data.csv,1,300,3.0,Training at home,,,,,,,,,,,,,
17,2,85,A,43.673047893714575,73.79396321310138,2.1836523946857285,1.1591528635477737,A,1414.3433440185618,Correct,sub_017_day_01_data.csv,1,300,3.0,Training at home,,,,,,,,,,,,,
17,2,86,B,83.29123259798692,65.5412160149176,4.164561629899346,1.029519013699034,B,732.9192089964636,Correct,sub_017_day_01_data.csv,1,300,3.0,Training at home,,,,,,,,,,,,,
17,2,87,A,30.374321612980175,63.63943228372917,1.5187160806490088,0.9996458647059432,A,552.4440360022709,Correct,sub_017_day_01_data.csv,1,300,3.0,Training at home,,,,,,,,,,,,,
17,2,88,A,34.86008900623159,43.869347766452975,1.7430044503115796,0.6890981033043223,A,608.9847979892511,Correct,sub_017_day_01_data.csv,1,300,3.0,Training at home,,,,,,,,,,,,,
17,2,89,A,51.13537894126572,78.09401521493703,2.556768947063286,1.2266979224428785,A,1286.429168016184,Correct,sub_017_day_01_data.csv,1,300,3.0,Training at home,,,,,,,,,,,,,
17,2,90,A,54.86307723351778,83.25150222730943,2.743153861675889,1.3077115389881482,A,1125.2053980133496,Correct,sub_017_day_01_data.csv,1,300,3.0,Training at home,,,,,,,,,,,,,
17,2,91,B,61.261112518394654,35.01438941301438,3.063055625919733,0.550004742749291,B,483.1239349732641,Correct,sub_017_day_01_data.csv,1,300,3.0,Training at home,,,,,,,,,,,,,
17,2,92,A,41.56705574705954,55.847893136905,2.0783527873529772,0.8772566539868427,A,879.9775489897002,Correct,sub_017_day_01_data.csv,1,300,3.0,Training at home,,,,,,,,,,,,,
17,2,93,A,45.19504697735594,64.26194271164927,2.2597523488677975,1.0094242356416274,A,801.8398349813651,Correct,sub_017_day_01_data.csv,1,300,3.0,Training at home,,,,,,,,,,,,,
17,2,94,B,55.39108989442662,27.46124517614476,2.7695544947213313,0.4313602305190226,B,488.1155590119306,Correct,sub_017_day_01_data.csv,1,300,3.0,Training at home,,,,,,,,,,,,,
17,2,95,B,77.45549053804565,51.03791703386632,3.8727745269022824,0.8017017260405991,B,674.2351110151503,Correct,sub_017_day_01_data.csv,1,300,3.0,Training at home,,,,,,,,,,,,,
17,2,96,B,72.68777834885204,52.56428448305899,3.6343889174426014,0.8256778498659104,B,680.9946870198473,Correct,sub_017_day_01_data.csv,1,300,3.0,Training at home,,,,,,,,,,,,,
17,2,97,B,69.34420479287981,41.67657947455667,3.46721023964399,0.654654179520092,B,542.4213029909879,Correct,sub_017_day_01_data.csv,1,300,3.0,Training at home,,,,,,,,,,,,,
17,2,98,A,24.467167321398183,35.3379898654656,1.2233583660699094,0.5550878467698865,A,502.4926459882408,Correct,sub_017_day_01_data.csv,1,300,3.0,Training at home,,,,,,,,,,,,,
17,2,99,A,31.258272151820055,42.10890996389654,1.5629136075910028,0.6614452109662571,A,448.0831270047929,Correct,sub_017_day_01_data.csv,1,300,3.0,Training at home,,,,,,,,,,,,,
17,2,100,B,75.09677823846968,57.963808974614466,3.754838911923484,0.9104933822436548,B,529.0987390035298,Correct,sub_017_day_01_data.csv,1,300,4.0,Training at home,,,,,,,,,,,,,
17,2,101,A,24.364133746503008,41.92054527271588,1.2182066873251505,0.6584863853162127,A,475.53050200804137,Correct,sub_017_day_01_data.csv,1,300,4.0,Training at home,,,,,,,,,,,,,
17,2,102,A,56.59712926475389,74.31108695490305,2.829856463237695,1.1672758242889787,B,455.9373239753768,Incorrect,sub_017_day_01_data.csv,0,300,4.0,Training at home,,,,,,,,,,,,,
17,2,103,B,67.2735121476235,43.738455238409486,3.363675607381175,0.6870420482817662,B,540.0045459973626,Correct,sub_017_day_01_data.csv,1,300,4.0,Training at home,,,,,,,,,,,,,
17,2,104,B,42.27752960532195,14.856033001558238,2.1138764802660974,0.2333580206959144,B,1179.4803969969507,Correct,sub_017_day_01_data.csv,1,300,4.0,Training at home,,,,,,,,,,,,,
17,2,105,B,64.25995159294071,46.17529983788938,3.2129975796470354,0.7253199137400963,B,582.7304930135142,Correct,sub_017_day_01_data.csv,1,300,4.0,Training at home,,,,,,,,,,,,,
17,2,106,A,18.99871295892329,33.729888406198285,0.9499356479461644,0.5298278481165803,A,347.2835349966772,Correct,sub_017_day_01_data.csv,1,300,4.0,Training at home,,,,,,,,,,,,,
17,2,107,A,47.21309194123743,72.09179290092932,2.3606545970618713,1.1324152348083818,A,1482.0559000072535,Correct,sub_017_day_01_data.csv,1,300,4.0,Training at home,,,,,,,,,,,,,
17,2,108,A,12.52409475753554,35.23562267478138,0.626204737876777,0.5534798666987756,A,529.180034995079,Correct,sub_017_day_01_data.csv,1,300,4.0,Training at home,,,,,,,,,,,,,
17,2,109,A,56.84372817698804,65.57223974746712,2.842186408849402,1.0300063333503566,B,458.911772002466,Incorrect,sub_017_day_01_data.csv,0,300,4.0,Training at home,,,,,,,,,,,,,
17,2,110,B,78.39288969041029,65.66236309994044,3.9196444845205143,1.031421987660592,B,572.669668996241,Correct,sub_017_day_01_data.csv,1,300,4.0,Training at home,,,,,,,,,,,,,
17,2,111,A,60.97485857545004,76.66825826510996,3.0487429287725023,1.2043021846459716,B,535.1111950003542,Incorrect,sub_017_day_01_data.csv,0,300,4.0,Training at home,,,,,,,,,,,,,
17,2,112,B,36.087199094626186,17.821079960991973,1.8043599547313096,0.2799328694224433,B,893.8068739953451,Correct,sub_017_day_01_data.csv,1,300,4.0,Training at home,,,,,,,,,,,,,
17,2,113,A,45.01034774744379,57.35302177173247,2.2505173873721898,0.9008991592962508,B,1343.873932986753,Incorrect,sub_017_day_01_data.csv,0,300,4.0,Training at home,,,,,,,,,,,,,
17,2,114,B,37.07007195195662,25.173602621038047,1.853503597597831,0.3954260252932094,B,875.7291380024981,Correct,sub_017_day_01_data.csv,1,300,4.0,Training at home,,,,,,,,,,,,,
17,2,115,B,31.381921099679506,11.434989374257494,1.5690960549839752,0.1796203930602234,B,768.771266011754,Correct,sub_017_day_01_data.csv,1,300,4.0,Training at home,,,,,,,,,,,,,
17,2,116,B,69.34389079902606,48.59685156112661,3.4671945399513024,0.7633575592601451,B,694.9052419804502,Correct,sub_017_day_01_data.csv,1,300,4.0,Training at home,,,,,,,,,,,,,
17,2,117,B,33.40007519510182,19.83146112378456,1.670003759755091,0.3115118628821657,A,635.4442450101487,Incorrect,sub_017_day_01_data.csv,0,300,4.0,Training at home,,,,,,,,,,,,,
17,2,118,A,19.70906724437064,45.22561738781401,0.985453362218532,0.7104023366980966,B,821.9618590082973,Incorrect,sub_017_day_01_data.csv,0,300,4.0,Training at home,,,,,,,,,,,,,
17,2,119,A,50.651642483357264,58.02599425301449,2.532582124167863,0.9114701863125692,B,547.3254710086621,Incorrect,sub_017_day_01_data.csv,0,300,4.0,Training at home,,,,,,,,,,,,,
17,2,120,B,68.84139690315493,52.12953686399892,3.4420698451577465,0.8188488502348865,B,850.3550509922206,Correct,sub_017_day_01_data.csv,1,300,4.0,Training at home,,,,,,,,,,,,,
17,2,121,B,52.03389047294009,26.399110157980367,2.601694523647004,0.414676252668094,B,870.3177080024034,Correct,sub_017_day_01_data.csv,1,300,4.0,Training at home,,,,,,,,,,,,,
17,2,122,A,54.48234231181808,68.15593025739264,2.724117115590904,1.070590848976015,A,1993.2158430165143,Correct,sub_017_day_01_data.csv,1,300,4.0,Training at home,,,,,,,,,,,,,
17,2,123,B,66.67927263145894,58.1571611961804,3.3339636315729475,0.9135305518377886,B,650.9844370011706,Correct,sub_017_day_01_data.csv,1,300,4.0,Training at home,,,,,,,,,,,,,
17,2,124,B,38.04281183385396,24.434318892763574,1.902140591692698,0.3838133836448817,B,1226.8423690111376,Correct,sub_017_day_01_data.csv,1,300,4.0,Training at home,,,,,,,,,,,,,
17,2,125,A,31.366192822861535,63.53788227272753,1.5683096411430768,0.9980507208632698,A,704.3435999948997,Correct,sub_017_day_01_data.csv,1,300,5.0,Training at home,,,,,,,,,,,,,
17,2,126,A,18.242622810902425,35.837689746205356,0.9121311405451212,0.562937114141545,A,566.6253569943365,Correct,sub_017_day_01_data.csv,1,300,5.0,Training at home,,,,,,,,,,,,,
17,2,127,A,42.58688279480574,69.73431090231784,2.129344139740287,1.095383994169342,A,997.165603999747,Correct,sub_017_day_01_data.csv,1,300,5.0,Training at home,,,,,,,,,,,,,
17,2,128,A,45.787074690895665,77.58280559206929,2.2893537345447834,1.21866786046465,A,1821.8016579921823,Correct,sub_017_day_01_data.csv,1,300,5.0,Training at home,,,,,,,,,,,,,
17,2,129,B,67.02014452262858,43.09129404343776,3.351007226131429,0.6768764640027083,B,602.797653991729,Correct,sub_017_day_01_data.csv,1,300,5.0,Training at home,,,,,,,,,,,,,
17,2,130,B,40.81287819021242,14.048107634578894,2.0406439095106212,0.2206671587081587,B,617.2011620074045,Correct,sub_017_day_01_data.csv,1,300,5.0,Training at home,,,,,,,,,,,,,
17,2,131,A,60.536597967107326,72.27060962096031,3.0268298983553668,1.1352240812783236,B,618.7012050068006,Incorrect,sub_017_day_01_data.csv,0,300,5.0,Training at home,,,,,,,,,,,,,
17,2,132,A,35.184122009989764,64.84160308820364,1.7592061004994883,1.0185295195444288,A,811.6353650111705,Correct,sub_017_day_01_data.csv,1,300,5.0,Training at home,,,,,,,,,,,,,
17,2,133,A,45.17339403381602,53.28843715702695,2.258669701690801,0.8370528134689862,A,2693.7082090007607,Correct,sub_017_day_01_data.csv,1,300,5.0,Training at home,,,,,,,,,,,,,
17,2,134,B,61.3476579233217,39.95573897258289,3.0673828961660847,0.6276232801250891,B,648.1971809989773,Correct,sub_017_day_01_data.csv,1,300,5.0,Training at home,,,,,,,,,,,,,
17,2,135,B,42.009239543740485,27.737574494360945,2.1004619771870243,0.4357008012994197,B,1000.2394030161668,Correct,sub_017_day_01_data.csv,1,300,5.0,Training at home,,,,,,,,,,,,,
17,2,136,A,26.259977908975394,36.85340519593032,1.3129988954487697,0.578891935116513,A,587.9790479957592,Correct,sub_017_day_01_data.csv,1,300,5.0,Training at home,,,,,,,,,,,,,
17,2,137,B,40.55282297207685,24.2271678469613,2.0276411486038426,0.3805594626265023,B,620.6866689899471,Correct,sub_017_day_01_data.csv,1,300,5.0,Training at home,,,,,,,,,,,,,
17,2,138,A,15.913090693429384,30.877046550918053,0.7956545346714692,0.4850155130445711,A,520.8901049918495,Correct,sub_017_day_01_data.csv,1,300,5.0,Training at home,,,,,,,,,,,,,
17,2,139,A,12.499978274027942,38.43977013426485,0.624998913701397,0.6038104972974339,A,498.3274170081131,Correct,sub_017_day_01_data.csv,1,300,5.0,Training at home,,,,,,,,,,,,,
17,2,140,A,64.83118257878112,86.87733216342092,3.2415591289390564,1.3646659424404168,B,461.47867501713336,Incorrect,sub_017_day_01_data.csv,0,300,5.0,Training at home,,,,,,,,,,,,,
17,2,141,B,33.18860752375774,19.171469078768716,1.659430376187887,0.3011447320819184,B,762.9088599933311,Correct,sub_017_day_01_data.csv,1,300,5.0,Training at home,,,,,,,,,,,,,
17,2,142,B,39.45875016724701,30.4606081940343,1.9729375083623504,0.478474114631276,B,788.3192299923394,Correct,sub_017_day_01_data.csv,1,300,5.0,Training at home,,,,,,,,,,,,,
17,2,143,A,23.467350672217982,36.154766857827056,1.173367533610899,0.5679177497640061,A,654.5170969911851,Correct,sub_017_day_01_data.csv,1,300,5.0,Training at home,,,,,,,,,,,,,
17,2,144,B,35.019442132012315,21.88285090384816,1.750972106600616,0.3437350181956508,B,516.0825759812724,Correct,sub_017_day_01_data.csv,1,300,5.0,Training at home,,,,,,,,,,,,,
17,2,145,B,37.204925904389,14.532190701435312,1.86024629521945,0.2282711177409754,B,838.4370969724841,Correct,sub_017_day_01_data.csv,1,300,5.0,Training at home,,,,,,,,,,,,,
17,2,146,A,62.64273106838442,81.03456208284072,3.132136553419221,1.272887924631592,A,820.4929990170058,Correct,sub_017_day_01_data.csv,1,300,5.0,Training at home,,,,,,,,,,,,,
17,2,147,B,62.49976730865359,46.850222596491015,3.1249883654326793,0.7359215756409136,B,546.0646949941292,Correct,sub_017_day_01_data.csv,1,300,5.0,Training at home,,,,,,,,,,,,,
17,2,148,A,52.42629626115037,62.20540291263215,2.621314813057518,0.9771201840195914,A,1337.421901000198,Correct,sub_017_day_01_data.csv,1,300,5.0,Training at home,,,,,,,,,,,,,
17,2,149,B,35.77133605080191,12.019852165387125,1.7885668025400951,0.1888073963000777,B,384.64132699300535,Correct,sub_017_day_01_data.csv,1,300,5.0,Training at home,,,,,,,,,,,,,
17,2,150,B,38.49935871544912,26.040312900812424,1.924967935772456,0.4090402785318591,B,394.5982239965815,Correct,sub_017_day_01_data.csv,1,300,6.0,Training at home,,,,,,,,,,,,,
17,2,151,B,41.989566751687846,24.587207383190407,2.0994783375843924,0.3862149504365985,B,421.8896320089698,Correct,sub_017_day_01_data.csv,1,300,6.0,Training at home,,,,,,,,,,,,,
17,2,152,A,27.50922197358029,57.81645193411378,1.3754610986790143,0.908178703264196,A,535.3722820000257,Correct,sub_017_day_01_data.csv,1,300,6.0,Training at home,,,,,,,,,,,,,
17,2,153,A,53.589107149105686,80.5145612268572,2.6794553574552844,1.2647197702865007,B,504.61846799589694,Incorrect,sub_017_day_01_data.csv,0,300,6.0,Training at home,,,,,,,,,,,,,
17,2,154,A,53.17188056917119,65.20415379063132,2.65859402845856,1.024224452660932,B,357.0827020157594,Incorrect,sub_017_day_01_data.csv,0,300,6.0,Training at home,,,,,,,,,,,,,
17,2,155,A,28.78544938263784,39.47464228690994,1.439272469131892,0.6200662310582062,A,671.6861499880906,Correct,sub_017_day_01_data.csv,1,300,6.0,Training at home,,,,,,,,,,,,,
17,2,156,B,87.26515385887365,60.29635669298658,4.363257692943682,0.947132956124582,B,517.8062659979332,Correct,sub_017_day_01_data.csv,1,300,6.0,Training at home,,,,,,,,,,,,,
17,2,157,B,71.19552448221367,61.90625838758372,3.5597762241106836,0.9724212328083228,B,440.0027900119312,Correct,sub_017_day_01_data.csv,1,300,6.0,Training at home,,,,,,,,,,,,,
17,2,158,A,65.60525797986551,88.16857412643472,3.280262898993276,1.384948723765472,A,614.8383560066577,Correct,sub_017_day_01_data.csv,1,300,6.0,Training at home,,,,,,,,,,,,,
17,2,159,A,21.599774472141668,38.139312801459305,1.079988723607083,0.5990909245501386,A,2142.5410640076734,Correct,sub_017_day_01_data.csv,1,300,6.0,Training at home,,,,,,,,,,,,,
17,2,160,B,41.24651571086376,31.247025782850585,2.062325785543188,0.4908271332296713,B,617.9820170218591,Correct,sub_017_day_01_data.csv,1,300,6.0,Training at home,,,,,,,,,,,,,
17,2,161,B,46.31043674433977,17.2156844839446,2.315521837216989,0.2704233395064007,B,404.17014801641926,Correct,sub_017_day_01_data.csv,1,300,6.0,Training at home,,,,,,,,,,,,,
17,2,162,A,34.45083590176138,67.48649485638957,1.7225417950880688,1.060075382286794,A,2253.2760850153863,Correct,sub_017_day_01_data.csv,1,300,6.0,Training at home,,,,,,,,,,,,,
17,2,163,A,41.33923526074051,58.62899412428493,2.0669617630370256,0.9209420861410637,A,508.1110390019603,Correct,sub_017_day_01_data.csv,1,300,6.0,Training at home,,,,,,,,,,,,,
17,2,164,A,21.962407293015826,41.57035859768117,1.098120364650791,0.6529856658878423,A,610.6268219882622,Correct,sub_017_day_01_data.csv,1,300,6.0,Training at home,,,,,,,,,,,,,
17,2,165,A,50.860350553648686,78.01250624582532,2.5430175276824345,1.2254175825500633,B,372.3320400167722,Incorrect,sub_017_day_01_data.csv,0,300,6.0,Training at home,,,,,,,,,,,,,
17,2,166,B,79.83244017197688,63.41883570535235,3.991622008598844,0.996180741755765,B,493.50406700978056,Correct,sub_017_day_01_data.csv,1,300,6.0,Training at home,,,,,,,,,,,,,
17,2,167,B,83.00340788101225,67.0789096419082,4.150170394050613,1.0536730487091617,B,388.0846720130649,Correct,sub_017_day_01_data.csv,1,300,6.0,Training at home,,,,,,,,,,,,,
17,2,168,B,66.04003226162394,55.5613824633454,3.3020016130811967,0.8727561548506935,B,361.8715649936348,Correct,sub_017_day_01_data.csv,1,300,6.0,Training at home,,,,,,,,,,,,,
17,2,169,B,81.26644352811437,59.61395318128936,4.063322176405718,0.9364137868289226,B,430.48350798198953,Correct,sub_017_day_01_data.csv,1,300,6.0,Training at home,,,,,,,,,,,,,
17,2,170,A,35.54805298966973,59.17162659175617,1.7774026494834865,0.9294657370080982,A,552.3994749819394,Correct,sub_017_day_01_data.csv,1,300,6.0,Training at home,,,,,,,,,,,,,
17,2,171,B,45.03801007533324,37.06877417736638,2.2519005037666617,0.5822749431659662,B,586.7816639947705,Correct,sub_017_day_01_data.csv,1,300,6.0,Training at home,,,,,,,,,,,,,
17,2,172,A,67.88635811722577,83.2413345187395,3.394317905861288,1.3075518249954123,A,922.8370869823266,Correct,sub_017_day_01_data.csv,1,300,6.0,Training at home,,,,,,,,,,,,,
17,2,173,A,68.73705866795713,89.45157235937121,3.4368529333978564,1.405102012881282,B,472.1605590020772,Incorrect,sub_017_day_01_data.csv,0,300,6.0,Training at home,,,,,,,,,,,,,
17,2,174,B,65.68365782088262,51.36029349409276,3.284182891044131,0.8067656036362872,B,562.641540018376,Correct,sub_017_day_01_data.csv,1,300,6.0,Training at home,,,,,,,,,,,,,
17,2,175,A,24.527227765543095,54.814454556329935,1.226361388277155,0.8610234387234885,A,518.5196100210305,Correct,sub_017_day_01_data.csv,1,300,7.0,Training at home,,,,,,,,,,,,,
17,2,176,B,69.11528156757912,38.09758975761694,3.455764078378956,0.5984355405100357,B,641.6071720013861,Correct,sub_017_day_01_data.csv,1,300,7.0,Training at home,,,,,,,,,,,,,
17,2,177,B,37.23761526371829,20.226240169236956,1.8618807631859144,0.3177130376270879,B,791.0834130016156,Correct,sub_017_day_01_data.csv,1,300,7.0,Training at home,,,,,,,,,,,,,
17,2,178,B,66.46461231629407,47.78487597981697,3.323230615814703,0.7506030766544617,B,412.0586669887416,Correct,sub_017_day_01_data.csv,1,300,7.0,Training at home,,,,,,,,,,,,,
17,2,179,A,31.28778844197139,55.55217205486122,1.5643894220985697,0.8726114780925411,A,678.4195429936517,Correct,sub_017_day_01_data.csv,1,300,7.0,Training at home,,,,,,,,,,,,,
17,2,180,A,33.07423471526174,61.22783914465248,1.653711735763087,0.9617646482600888,A,595.1132680056617,Correct,sub_017_day_01_data.csv,1,300,7.0,Training at home,,,,,,,,,,,,,
17,2,181,A,21.78035903082516,46.61985402420747,1.089017951541258,0.7323029545693936,A,710.3868410049472,Correct,sub_017_day_01_data.csv,1,300,7.0,Training at home,,,,,,,,,,,,,
17,2,182,B,59.39060877305245,43.21391517557088,2.9695304386526225,0.6788025922421298,B,583.3659269846976,Correct,sub_017_day_01_data.csv,1,300,7.0,Training at home,,,,,,,,,,,,,
17,2,183,A,47.665745053450216,73.31559387272453,2.383287252672511,1.1516386555206213,B,619.8980009939987,Incorrect,sub_017_day_01_data.csv,0,300,7.0,Training at home,,,,,,,,,,,,,
17,2,184,A,32.59934097422208,48.362201135682234,1.6299670487111042,0.7596716789964564,B,615.1428729936015,Incorrect,sub_017_day_01_data.csv,0,300,7.0,Training at home,,,,,,,,,,,,,
17,2,185,B,54.63970421627404,26.2741173156544,2.731985210813702,0.4127128696920812,B,593.906969006639,Correct,sub_017_day_01_data.csv,1,300,7.0,Training at home,,,,,,,,,,,,,
17,2,186,A,40.74308626222565,60.18146203756773,2.037154313111283,0.9453281950975788,A,727.7774809917901,Correct,sub_017_day_01_data.csv,1,300,7.0,Training at home,,,,,,,,,,,,,
17,2,187,A,41.37945606997796,66.21882447171913,2.068972803498898,1.0401628624485242,A,1278.7521760037637,Correct,sub_017_day_01_data.csv,1,300,7.0,Training at home,,,,,,,,,,,,,
17,2,188,A,45.12967878949507,52.19907792809165,2.2564839394747533,0.8199411987152693,B,1014.6445519931148,Incorrect,sub_017_day_01_data.csv,0,300,7.0,Training at home,,,,,,,,,,,,,
17,2,189,A,39.46598621718192,56.55555649921809,1.973299310859096,0.8883726040881302,A,756.8216880026739,Correct,sub_017_day_01_data.csv,1,300,7.0,Training at home,,,,,,,,,,,,,
17,2,190,B,73.50439182181616,57.92555013848102,3.675219591090808,0.909892413850996,B,624.088083015522,Correct,sub_017_day_01_data.csv,1,300,7.0,Training at home,,,,,,,,,,,,,
17,2,191,A,60.347196257222265,74.17513628821875,3.0173598128611134,1.1651403162104486,B,623.3206370088737,Incorrect,sub_017_day_01_data.csv,0,300,7.0,Training at home,,,,,,,,,,,,,
17,2,192,A,68.63357175092854,85.94747950428591,3.431678587546427,1.3500598510261197,B,1301.9344730128068,Incorrect,sub_017_day_01_data.csv,0,300,7.0,Training at home,,,,,,,,,,,,,
17,2,193,A,29.6967093941134,41.47573227486441,1.4848354697056698,0.6514992790848556,A,2371.54526199447,Correct,sub_017_day_01_data.csv,1,300,7.0,Training at home,,,,,,,,,,,,,
17,2,194,A,38.51997348139537,63.8801477582085,1.9259986740697683,1.0034270145370914,A,1209.6935289737305,Correct,sub_017_day_01_data.csv,1,300,7.0,Training at home,,,,,,,,,,,,,
17,2,195,A,55.249397507396154,82.08209069813857,2.762469875369808,1.289342465642816,A,1001.0974229953716,Correct,sub_017_day_01_data.csv,1,300,7.0,Training at home,,,,,,,,,,,,,
17,2,196,A,60.60421371540752,80.63925039048914,3.030210685770376,1.2666783830887427,B,655.8236080163624,Incorrect,sub_017_day_01_data.csv,0,300,7.0,Training at home,,,,,,,,,,,,,
17,2,197,A,60.86932124857299,86.96769031486848,3.04346606242865,1.366085284964315,A,916.9328580028376,Correct,sub_017_day_01_data.csv,1,300,7.0,Training at home,,,,,,,,,,,,,
17,2,198,B,55.56326682573812,35.85597996563066,2.778163341286906,0.5632244162364404,B,613.67958097253,Correct,sub_017_day_01_data.csv,1,300,7.0,Training at home,,,,,,,,,,,,,
17,2,199,A,33.809276479745904,50.389479713767045,1.6904638239872951,0.7915160964349123,A,558.3935090107843,Correct,sub_017_day_01_data.csv,1,300,7.0,Training at home,,,,,,,,,,,,,
17,2,200,B,50.231214936727014,19.694830173022307,2.5115607468363508,0.3093656689263274,B,588.5621900088154,Correct,sub_017_day_01_data.csv,1,300,8.0,Training at home,,,,,,,,,,,,,
17,2,201,B,60.75307753614251,34.36557301646653,3.0376538768071257,0.5398131586246744,B,667.853291000938,Correct,sub_017_day_01_data.csv,1,300,8.0,Training at home,,,,,,,,,,,,,
17,2,202,B,77.30904640504608,62.02232139917486,3.865452320252304,0.9742443463311636,A,1390.543295012321,Incorrect,sub_017_day_01_data.csv,0,300,8.0,Training at home,,,,,,,,,,,,,
17,2,203,B,69.89135717731844,60.42733388787123,3.4945678588659224,0.9491903410907692,B,1437.5399079872295,Correct,sub_017_day_01_data.csv,1,300,8.0,Training at home,,,,,,,,,,,,,
17,2,204,A,48.74174822307121,63.34942905209392,2.437087411153561,0.9950905045958304,A,671.2591109971981,Correct,sub_017_day_01_data.csv,1,300,8.0,Training at home,,,,,,,,,,,,,
17,2,205,B,43.957664404133915,26.06043559414652,2.1978832202066956,0.4093563650596033,B,613.6641620250884,Correct,sub_017_day_01_data.csv,1,300,8.0,Training at home,,,,,,,,,,,,,
17,2,206,A,32.98679793108927,49.961382644191296,1.6493398965544634,0.7847915633908998,A,689.9714909959584,Correct,sub_017_day_01_data.csv,1,300,8.0,Training at home,,,,,,,,,,,,,
17,2,207,B,50.92507701128942,37.23020108293139,2.546253850564471,0.5848106310690402,B,694.4602120202035,Correct,sub_017_day_01_data.csv,1,300,8.0,Training at home,,,,,,,,,,,,,
17,2,208,A,28.0227353005687,41.02184309678944,1.401136765028435,0.6443696045479343,A,681.5138979873154,Correct,sub_017_day_01_data.csv,1,300,8.0,Training at home,,,,,,,,,,,,,
17,2,209,B,53.82265569927499,46.86035247126004,2.6911327849637496,0.7360806953416942,A,858.4683709777892,Incorrect,sub_017_day_01_data.csv,0,300,8.0,Training at home,,,,,,,,,,,,,
17,2,210,B,66.30406370665507,38.80361573836815,3.315203185332754,0.6095257706818933,B,658.1931170076132,Correct,sub_017_day_01_data.csv,1,300,8.0,Training at home,,,,,,,,,,,,,
17,2,211,B,45.79045430110274,28.619973430366116,2.2895227150551367,0.4495614913738662,B,641.579360992182,Correct,sub_017_day_01_data.csv,1,300,8.0,Training at home,,,,,,,,,,,,,
17,2,212,B,68.13097376222858,58.31568001386704,3.4065486881114286,0.9160205596032892,B,601.8509550194722,Correct,sub_017_day_01_data.csv,1,300,8.0,Training at home,,,,,,,,,,,,,
17,2,213,B,35.8597102119542,10.555378873449596,1.79298551059771,0.1658035036234307,A,499.3206920044031,Incorrect,sub_017_day_01_data.csv,0,300,8.0,Training at home,,,,,,,,,,,,,
17,2,214,B,35.18934700461273,14.092393018883516,1.7594673502306364,0.2213627918981227,B,560.948313010158,Correct,sub_017_day_01_data.csv,1,300,8.0,Training at home,,,,,,,,,,,,,
17,2,215,B,61.70182360290385,39.011387243771544,3.0850911801451923,0.6127894378568962,B,608.1263890082482,Correct,sub_017_day_01_data.csv,1,300,8.0,Training at home,,,,,,,,,,,,,
17,2,216,B,46.7607105738854,29.49747545362864,2.33803552869427,0.4633452609228248,B,620.016457978636,Correct,sub_017_day_01_data.csv,1,300,8.0,Training at home,,,,,,,,,,,,,
17,2,217,A,31.21259816726494,42.5818541987332,1.560629908363247,0.6688742016348594,A,670.37422399153,Correct,sub_017_day_01_data.csv,1,300,8.0,Training at home,,,,,,,,,,,,,
17,2,218,B,69.46150945962819,39.613749922712856,3.4730754729814093,0.6222513286916896,B,513.3363020140678,Correct,sub_017_day_01_data.csv,1,300,8.0,Training at home,,,,,,,,,,,,,
17,2,219,A,15.88473759503428,39.449485778140925,0.7942368797517141,0.6196710735425127,A,719.0483169979416,Correct,sub_017_day_01_data.csv,1,300,8.0,Training at home,,,,,,,,,,,,,
17,2,220,B,51.21272663260859,25.95443880119593,2.5606363316304295,0.4076913713294151,B,645.8620369958226,Correct,sub_017_day_01_data.csv,1,300,8.0,Training at home,,,,,,,,,,,,,
17,2,221,B,56.14578851556627,25.576024584224687,2.8072894257783134,0.4017472547091611,B,569.3913050054107,Correct,sub_017_day_01_data.csv,1,300,8.0,Training at home,,,,,,,,,,,,,
17,2,222,A,43.60442077049029,61.95603390104099,2.1802210385245147,0.9732031047453528,A,864.5906099991407,Correct,sub_017_day_01_data.csv,1,300,8.0,Training at home,,,,,,,,,,,,,
17,2,223,A,39.9226016176315,72.62055117918831,1.996130080881575,1.140720950420898,A,866.3466619909741,Correct,sub_017_day_01_data.csv,1,300,8.0,Training at home,,,,,,,,,,,,,
17,2,224,A,22.280302802129317,44.40344256488834,1.1140151401064655,0.6974876447797476,A,649.674654006958,Correct,sub_017_day_01_data.csv,1,300,8.0,Training at home,,,,,,,,,,,,,
17,2,225,B,54.5762159119414,26.96621163170552,2.7288107955970697,0.4235842617865684,B,461.62465601810254,Correct,sub_017_day_01_data.csv,1,300,9.0,Training at home,,,,,,,,,,,,,
17,2,226,B,86.20238266994568,64.95573859395556,4.310119133497284,1.020322355876349,B,481.1296099796891,Correct,sub_017_day_01_data.csv,1,300,9.0,Training at home,,,,,,,,,,,,,
17,2,227,A,25.484135247891594,44.59343369002281,1.27420676239458,0.7004720183945963,A,619.8573389847297,Correct,sub_017_day_01_data.csv,1,300,9.0,Training at home,,,,,,,,,,,,,
17,2,228,B,70.82721851340685,42.30492233116594,3.541360925670342,0.6645241660313885,B,1709.8296539916191,Correct,sub_017_day_01_data.csv,1,300,9.0,Training at home,,,,,,,,,,,,,
17,2,229,A,48.55215512581729,69.16622149359415,2.4276077562908647,1.0864604666041993,A,920.4023719939868,Correct,sub_017_day_01_data.csv,1,300,9.0,Training at home,,,,,,,,,,,,,
17,2,230,B,58.37765722330514,40.489176268241465,2.918882861165257,0.6360024935710479,B,1533.941875997698,Correct,sub_017_day_01_data.csv,1,300,9.0,Training at home,,,,,,,,,,,,,
17,2,231,A,44.295540615805024,64.8351041966096,2.214777030790251,1.0184274351939877,A,662.8704780014232,Correct,sub_017_day_01_data.csv,1,300,9.0,Training at home,,,,,,,,,,,,,
17,2,232,B,47.47447435728493,35.44649185959697,2.3737237178642463,0.5567921921082012,B,661.6902629903052,Correct,sub_017_day_01_data.csv,1,300,9.0,Training at home,,,,,,,,,,,,,
17,2,233,B,81.51806375935827,68.0892995758548,4.0759031879679135,1.0695442166779,B,671.1122039996553,Correct,sub_017_day_01_data.csv,1,300,9.0,Training at home,,,,,,,,,,,,,
17,2,234,A,38.5863478951678,51.99419995334523,1.9293173947583897,0.8167229830135407,A,1001.8873949884436,Correct,sub_017_day_01_data.csv,1,300,9.0,Training at home,,,,,,,,,,,,,
17,2,235,B,50.236686038527694,22.36536005130674,2.5118343019263847,0.3513142541603795,B,515.3349750034977,Correct,sub_017_day_01_data.csv,1,300,9.0,Training at home,,,,,,,,,,,,,
17,2,236,B,39.000849569029725,17.692526166901274,1.9500424784514865,0.2779135511469111,B,564.0727500140201,Correct,sub_017_day_01_data.csv,1,300,9.0,Training at home,,,,,,,,,,,,,
17,2,237,B,64.13151200992179,53.20863492928984,3.2065756004960893,0.835799283006991,B,593.314238009043,Correct,sub_017_day_01_data.csv,1,300,9.0,Training at home,,,,,,,,,,,,,
17,2,238,B,69.10834080145406,54.262090313588416,3.455417040072703,0.8523469214879762,B,1170.3964119951706,Correct,sub_017_day_01_data.csv,1,300,9.0,Training at home,,,,,,,,,,,,,
17,2,239,B,48.90197279588439,20.33190805588754,2.445098639794219,0.3193728649091971,B,704.8808829858899,Correct,sub_017_day_01_data.csv,1,300,9.0,Training at home,,,,,,,,,,,,,
17,2,240,B,69.50191693437267,38.102155674689534,3.4750958467186335,0.5985072617676965,B,1139.366577990586,Correct,sub_017_day_01_data.csv,1,300,9.0,Training at home,,,,,,,,,,,,,
17,2,241,A,51.666520597351465,63.27772957276975,2.583326029867573,0.9939642518082752,A,783.1382820149884,Correct,sub_017_day_01_data.csv,1,300,9.0,Training at home,,,,,,,,,,,,,
17,2,242,B,83.30487216559627,60.35123785979734,4.165243608279813,0.9479950274769476,B,826.8688889802434,Correct,sub_017_day_01_data.csv,1,300,9.0,Training at home,,,,,,,,,,,,,
17,2,243,A,56.605378683081,78.85490723866376,2.83026893415405,1.2386499864024532,A,650.7436789979693,Correct,sub_017_day_01_data.csv,1,300,9.0,Training at home,,,,,,,,,,,,,
17,2,244,B,40.761240809261146,18.92975383309748,2.0380620404630574,0.2973478778816114,B,614.7118890075944,Correct,sub_017_day_01_data.csv,1,300,9.0,Training at home,,,,,,,,,,,,,
17,2,245,B,64.54070878742175,36.895164219655186,3.2270354393710874,0.5795478843272885,B,658.7646970001515,Correct,sub_017_day_01_data.csv,1,300,9.0,Training at home,,,,,,,,,,,,,
17,2,246,A,49.953534179800016,68.42110021810218,2.4976767089900007,1.0747561289786038,A,550.6733039801475,Correct,sub_017_day_01_data.csv,1,300,9.0,Training at home,,,,,,,,,,,,,
17,2,247,A,25.416894811788037,37.39213901230923,1.270844740589402,0.5873543461153948,A,1175.36942998413,Correct,sub_017_day_01_data.csv,1,300,9.0,Training at home,,,,,,,,,,,,,
17,2,248,B,42.32677762246162,33.6052480438985,2.116338881123081,0.5278700018838715,B,534.2086059972644,Correct,sub_017_day_01_data.csv,1,300,9.0,Training at home,,,,,,,,,,,,,
17,2,249,B,73.19162110828898,48.53986249534087,3.6595810554144497,0.7624623771081079,B,752.762983989669,Correct,sub_017_day_01_data.csv,1,300,9.0,Training at home,,,,,,,,,,,,,
17,2,250,A,54.03230550543184,67.72070638227193,2.701615275271592,1.0637543683322843,A,623.548108007526,Correct,sub_017_day_01_data.csv,1,300,10.0,Training at home,,,,,,,,,,,,,
17,2,251,A,36.04111040548565,62.20377449125401,1.8020555202742825,0.9770946048363988,A,779.8614359926432,Correct,sub_017_day_01_data.csv,1,300,10.0,Training at home,,,,,,,,,,,,,
17,2,252,B,37.060109343888634,23.473844254199395,1.8530054671944316,0.368726283302519,B,636.4542380033527,Correct,sub_017_day_01_data.csv,1,300,10.0,Training at home,,,,,,,,,,,,,
17,2,253,A,32.96279598462358,60.58821755711397,1.6481397992311793,0.9517174958576468,A,625.8670370152686,Correct,sub_017_day_01_data.csv,1,300,10.0,Training at home,,,,,,,,,,,,,
17,2,254,A,36.690619113732474,51.60063684150899,1.834530955686624,0.8105409081091973,A,620.4843719897326,Correct,sub_017_day_01_data.csv,1,300,10.0,Training at home,,,,,,,,,,,,,
17,2,255,B,77.40058222848714,48.85462235666041,3.870029111424357,0.76740661344794,B,419.45196499000303,Correct,sub_017_day_01_data.csv,1,300,10.0,Training at home,,,,,,,,,,,,,
17,2,256,A,65.64305267143465,87.92736619322814,3.2821526335717324,1.381159838410725,A,761.0553760023322,Correct,sub_017_day_01_data.csv,1,300,10.0,Training at home,,,,,,,,,,,,,
17,2,257,B,82.81736141013187,52.488329582798315,4.140868070506594,0.8244847530825951,B,404.7724670090247,Correct,sub_017_day_01_data.csv,1,300,10.0,Training at home,,,,,,,,,,,,,
17,2,258,A,33.359822245194955,57.023956377790576,1.6679911122597475,0.8957302121754585,A,543.8221200020052,Correct,sub_017_day_01_data.csv,1,300,10.0,Training at home,,,,,,,,,,,,,
17,2,259,A,38.13437157487841,66.1389658194007,1.9067185787439205,1.0389084456712785,A,568.6314130143728,Correct,sub_017_day_01_data.csv,1,300,10.0,Training at home,,,,,,,,,,,,,
17,2,260,B,75.69614645937375,52.9748288293141,3.784807322968687,0.8321266653767498,B,409.5855380001012,Correct,sub_017_day_01_data.csv,1,300,10.0,Training at home,,,,,,,,,,,,,
17,2,261,B,68.12175501255976,58.843569755193855,3.406087750627988,0.9243126322695778,B,648.9817730034702,Correct,sub_017_day_01_data.csv,1,300,10.0,Training at home,,,,,,,,,,,,,
17,2,262,B,49.658410737073226,21.994659568283783,2.482920536853661,0.3454913045896439,B,648.0027069919743,Correct,sub_017_day_01_data.csv,1,300,10.0,Training at home,,,,,,,,,,,,,
17,2,263,A,29.87917564298384,47.98672434218988,1.493958782149192,0.7537737033163111,A,627.7783279947471,Correct,sub_017_day_01_data.csv,1,300,10.0,Training at home,,,,,,,,,,,,,
17,2,264,B,68.56385553081469,56.3461624038856,3.4281927765407345,0.885083449330122,B,480.33771201153286,Correct,sub_017_day_01_data.csv,1,300,10.0,Training at home,,,,,,,,,,,,,
17,2,265,A,27.949177194734677,54.052153279174064,1.397458859736734,0.8490492382628135,A,540.5652269837447,Correct,sub_017_day_01_data.csv,1,300,10.0,Training at home,,,,,,,,,,,,,
17,2,266,A,65.11848134337833,84.59723713272784,3.255924067168917,1.328850293450857,B,440.224752004724,Incorrect,sub_017_day_01_data.csv,0,300,10.0,Training at home,,,,,,,,,,,,,
17,2,267,B,47.089177082314414,18.024085752404623,2.354458854115721,0.2831216769371341,B,550.9410849772394,Correct,sub_017_day_01_data.csv,1,300,10.0,Training at home,,,,,,,,,,,,,
17,2,268,B,53.27691810852159,25.96697347610222,2.6638459054260797,0.4078882655424187,B,531.0908420069609,Correct,sub_017_day_01_data.csv,1,300,10.0,Training at home,,,,,,,,,,,,,
17,2,269,A,37.33381078892564,68.44097489572468,1.8666905394462816,1.0750683196846609,A,419.4879970164038,Correct,sub_017_day_01_data.csv,1,300,10.0,Training at home,,,,,,,,,,,,,
17,2,270,B,40.29281577088788,30.31922435717367,2.0146407885443938,0.4762532625151876,B,599.0989049896598,Correct,sub_017_day_01_data.csv,1,300,10.0,Training at home,,,,,,,,,,,,,
17,2,271,A,36.24328508622238,60.138331374862666,1.812164254311119,0.9446507002320856,B,1882.4861539760605,Incorrect,sub_017_day_01_data.csv,0,300,10.0,Training at home,,,,,,,,,,,,,
17,2,272,A,23.134595688903534,53.49076348622216,1.1567297844451767,0.8402309480161233,A,662.2680159925949,Correct,sub_017_day_01_data.csv,1,300,10.0,Training at home,,,,,,,,,,,,,
17,2,273,A,16.770046061139286,37.63543051640179,0.8385023030569643,0.5911759601250849,A,547.9608430177905,Correct,sub_017_day_01_data.csv,1,300,10.0,Training at home,,,,,,,,,,,,,
17,2,274,B,60.27360303610363,51.08091942788795,3.0136801518051817,0.8023772060663247,B,505.03648500307463,Correct,sub_017_day_01_data.csv,1,300,10.0,Training at home,,,,,,,,,,,,,
17,2,275,B,56.5843642440128,36.309386664405885,2.8292182122006397,0.5703465120062435,B,861.5357579838019,Correct,sub_017_day_01_data.csv,1,300,11.0,Training at home,,,,,,,,,,,,,
17,2,276,B,81.9621439843233,57.354213716071165,4.098107199216165,0.9009178823141404,B,522.0713460003026,Correct,sub_017_day_01_data.csv,1,300,11.0,Training at home,,,,,,,,,,,,,
17,2,277,A,55.63215285353869,82.07019487625709,2.781607642676935,1.2891556065096597,A,586.2577070074622,Correct,sub_017_day_01_data.csv,1,300,11.0,Training at home,,,,,,,,,,,,,
17,2,278,B,55.947620097725085,34.43579698351321,2.797381004886254,0.5409162341195732,B,577.787474001525,Correct,sub_017_day_01_data.csv,1,300,11.0,Training at home,,,,,,,,,,,,,
17,2,279,B,84.746847610134,67.94540869936931,4.2373423805067,1.067283984075473,B,1031.5019190020394,Correct,sub_017_day_01_data.csv,1,300,11.0,Training at home,,,,,,,,,,,,,
17,2,280,B,54.19889461495166,24.155895421497977,2.7099447307475835,0.3794399179853068,B,1218.4306380222552,Correct,sub_017_day_01_data.csv,1,300,11.0,Training at home,,,,,,,,,,,,,
17,2,281,B,52.89325971040824,46.16878726051747,2.644662985520412,0.7252176144139584,B,720.6472989928443,Correct,sub_017_day_01_data.csv,1,300,11.0,Training at home,,,,,,,,,,,,,
17,2,282,B,40.44988560992425,14.210901250724032,2.0224942804962125,0.2232243148508231,B,437.21313402056694,Correct,sub_017_day_01_data.csv,1,300,11.0,Training at home,,,,,,,,,,,,,
17,2,283,A,44.5929322735171,63.015457345115216,2.2296466136758553,0.9898444892900746,B,1132.0114439877216,Incorrect,sub_017_day_01_data.csv,0,300,11.0,Training at home,,,,,,,,,,,,,
17,2,284,B,63.61924512592827,30.628599198749832,3.1809622562964135,0.4811129111626934,B,554.6829579980113,Correct,sub_017_day_01_data.csv,1,300,11.0,Training at home,,,,,,,,,,,,,
17,2,285,B,69.07976558672821,37.87875763334976,3.4539882793364107,0.5949981335401995,B,1440.6128749833442,Correct,sub_017_day_01_data.csv,1,300,11.0,Training at home,,,,,,,,,,,,,
17,2,286,A,39.66447617177587,62.29784299922595,1.9832238085887937,0.978572229504293,A,501.25284199020825,Correct,sub_017_day_01_data.csv,1,300,11.0,Training at home,,,,,,,,,,,,,
17,2,287,A,53.84132533536254,70.46368724725276,2.6920662667681268,1.1068410110040905,A,717.2570510010701,Correct,sub_017_day_01_data.csv,1,300,11.0,Training at home,,,,,,,,,,,,,
17,2,288,B,61.64967263581707,49.06781166326436,3.082483631790854,0.7707553832451943,A,846.0662720026448,Incorrect,sub_017_day_01_data.csv,0,300,11.0,Training at home,,,,,,,,,,,,,
17,2,289,A,26.157837464103892,40.784444387277155,1.3078918732051945,0.640640554339057,A,417.8293799923267,Correct,sub_017_day_01_data.csv,1,300,11.0,Training at home,,,,,,,,,,,,,
17,2,290,B,63.46461950016029,54.65530877412665,3.1732309750080145,0.8585235826223901,B,583.0400999984704,Correct,sub_017_day_01_data.csv,1,300,11.0,Training at home,,,,,,,,,,,,,
17,2,291,A,61.03779641873011,71.95482998381146,3.0518898209365055,1.1302638263372236,A,1009.794116980629,Correct,sub_017_day_01_data.csv,1,300,11.0,Training at home,,,,,,,,,,,,,
17,2,292,B,51.26495290191822,43.994888265620695,2.563247645095911,0.6910700888538889,B,481.6247890121303,Correct,sub_017_day_01_data.csv,1,300,11.0,Training at home,,,,,,,,,,,,,
17,2,293,A,23.837018259053213,49.5624869308134,1.1918509129526609,0.7785257241774175,A,622.2274199826643,Correct,sub_017_day_01_data.csv,1,300,11.0,Training at home,,,,,,,,,,,,,
17,2,294,A,19.602218530312328,46.51288838576404,0.9801109265156164,0.7306227422497916,A,405.93040801468305,Correct,sub_017_day_01_data.csv,1,300,11.0,Training at home,,,,,,,,,,,,,
17,2,295,B,52.25996962916696,23.08938528567339,2.612998481458348,0.362687215946879,B,890.0152769929264,Correct,sub_017_day_01_data.csv,1,300,11.0,Training at home,,,,,,,,,,,,,
17,2,296,B,48.734756733162136,38.920954299063666,2.4367378366581067,0.6113689204832125,B,1248.071012989385,Correct,sub_017_day_01_data.csv,1,300,11.0,Training at home,,,,,,,,,,,,,
17,2,297,A,29.137398319706794,60.08771163350942,1.4568699159853398,0.9438555671942758,A,576.2374929909129,Correct,sub_017_day_01_data.csv,1,300,11.0,Training at home,,,,,,,,,,,,,
17,2,298,A,51.92241190455478,82.25896901616272,2.596120595227739,1.292120863765236,A,724.5704630040564,Correct,sub_017_day_01_data.csv,1,300,11.0,Training at home,,,,,,,,,,,,,
17,2,299,B,33.58737671149312,19.432613496847345,1.679368835574656,0.3052467790087274,B,524.0432290011086,Correct,sub_017_day_01_data.csv,1,300,11.0,Training at home,,,,,,,,,,,,,
