subject,day,trial,cat,x,y,xt,yt,resp,rt,fb,f_name,acc,n_trials,block,session_type,ns_left_digit,ns_right_digit,ns_left_size,ns_right_size,ns_congruent,ns_cue,ns_correct_side,ns_resp,ns_rt,ns_fb,acc_stroop,acc_stroop_mean,resp_key
17,15,3300,B,53.78780730581785,40.04075451785357,2.6893903652908926,0.6289587011874054,B,1109.766587003833,Correct,sub_017_day_12_data.csv,1,300,132.0,Training at home,,,,,,,,,,,,,
17,15,3301,A,27.15296450848417,59.707035156663,1.3576482254242086,0.9378759150789998,A,370.52066100295633,Correct,sub_017_day_12_data.csv,1,300,132.0,Training at home,,,,,,,,,,,,,
17,15,3302,B,55.704018601719376,38.28651867188248,2.785200930085969,0.6014032289555723,B,469.3049810011871,Correct,sub_017_day_12_data.csv,1,300,132.0,Training at home,,,,,,,,,,,,,
17,15,3303,A,30.19991341325119,44.47145990906729,1.5099956706625592,0.6985560587236941,A,830.8920660056174,Correct,sub_017_day_12_data.csv,1,300,132.0,Training at home,,,,,,,,,,,,,
17,15,3304,B,72.29980285685033,46.08884410345424,3.6149901428425166,0.7239618702392856,B,466.68453799793497,Correct,sub_017_day_12_data.csv,1,300,132.0,Training at home,,,,,,,,,,,,,
17,15,3305,B,57.68179231992568,48.29909550963261,2.8840896159962837,0.7586804181404678,B,797.5900640012696,Correct,sub_017_day_12_data.csv,1,300,132.0,Training at home,,,,,,,,,,,,,
17,15,3306,B,53.56328510304835,35.79126005170249,2.6781642551524176,0.5622077982057518,B,505.32199899316765,Correct,sub_017_day_12_data.csv,1,300,132.0,Training at home,,,,,,,,,,,,,
17,15,3307,A,31.812241826528044,49.95546084894496,1.590612091326402,0.7846985440486901,A,587.9804540018085,Correct,sub_017_day_12_data.csv,1,300,132.0,Training at home,,,,,,,,,,,,,
17,15,3308,A,31.86572624590124,44.73889958113509,1.5932863122950618,0.7027569912689272,A,1232.7016160124913,Correct,sub_017_day_12_data.csv,1,300,132.0,Training at home,,,,,,,,,,,,,
17,15,3309,B,71.3728989542338,41.15456112535379,3.56864494771169,0.6464543344656177,B,766.5847600146662,Correct,sub_017_day_12_data.csv,1,300,132.0,Training at home,,,,,,,,,,,,,
17,15,3310,A,56.47736650463892,73.13894570675326,2.823868325231946,1.148863872618194,A,955.637160979677,Correct,sub_017_day_12_data.csv,1,300,132.0,Training at home,,,,,,,,,,,,,
17,15,3311,A,55.827488826659994,70.40158676221054,2.7913744413329997,1.1058655388661256,A,4531.189483997878,Correct,sub_017_day_12_data.csv,1,300,132.0,Training at home,,,,,,,,,,,,,
17,15,3312,A,47.03208670110535,69.71436275183578,2.3516043350552676,1.095070649354306,A,452.2293980116956,Correct,sub_017_day_12_data.csv,1,300,132.0,Training at home,,,,,,,,,,,,,
17,15,3313,A,33.146403680202546,52.63956301699536,1.6573201840101277,0.826860322311848,A,1039.7145619790535,Correct,sub_017_day_12_data.csv,1,300,132.0,Training at home,,,,,,,,,,,,,
17,15,3314,A,23.502718481542527,35.20589205184866,1.1751359240771264,0.5530128591658151,A,520.6254360091407,Correct,sub_017_day_12_data.csv,1,300,132.0,Training at home,,,,,,,,,,,,,
17,15,3315,A,54.530120391851334,66.12683598887831,2.7265060195925668,1.038717910738986,B,655.9843250142876,Incorrect,sub_017_day_12_data.csv,0,300,132.0,Training at home,,,,,,,,,,,,,
17,15,3316,B,83.71093860092712,56.15482190469652,4.185546930046356,0.8820778797971888,B,840.7587280089501,Correct,sub_017_day_12_data.csv,1,300,132.0,Training at home,,,,,,,,,,,,,
17,15,3317,A,61.75515687507383,87.2931164920903,3.0877578437536912,1.3711970674025444,A,696.3862279953901,Correct,sub_017_day_12_data.csv,1,300,132.0,Training at home,,,,,,,,,,,,,
17,15,3318,B,70.36980423641344,60.86053576538352,3.518490211820672,0.9559950602703384,A,1054.8883209994528,Incorrect,sub_017_day_12_data.csv,0,300,132.0,Training at home,,,,,,,,,,,,,
17,15,3319,B,44.254587181752115,33.9925304410581,2.212729359087606,0.5339534195527776,B,1241.0046079894528,Correct,sub_017_day_12_data.csv,1,300,132.0,Training at home,,,,,,,,,,,,,
17,15,3320,A,35.44033003850632,61.20836509568686,1.7720165019253158,0.9614587506142588,A,2319.1479569941293,Correct,sub_017_day_12_data.csv,1,300,132.0,Training at home,,,,,,,,,,,,,
17,15,3321,A,18.530639302852823,32.18488380896163,0.9265319651426412,0.5055589726543747,A,1157.647015992552,Correct,sub_017_day_12_data.csv,1,300,132.0,Training at home,,,,,,,,,,,,,
17,15,3322,A,45.99076431624619,76.59111536533504,2.2995382158123094,1.2030904268099245,A,1179.650649020914,Correct,sub_017_day_12_data.csv,1,300,132.0,Training at home,,,,,,,,,,,,,
17,15,3323,B,85.72731600542784,61.275013711938854,4.286365800271392,0.9625056646302048,B,1037.34760399675,Correct,sub_017_day_12_data.csv,1,300,132.0,Training at home,,,,,,,,,,,,,
17,15,3324,B,77.25740436498118,50.507966341465846,3.8628702182490593,0.7933772800305481,B,516.3485840021167,Correct,sub_017_day_12_data.csv,1,300,132.0,Training at home,,,,,,,,,,,,,
17,15,3325,B,69.94577815443068,45.108509885676,3.497288907721534,0.7085628163561114,B,817.0243159984238,Correct,sub_017_day_12_data.csv,1,300,133.0,Training at home,,,,,,,,,,,,,
17,15,3326,A,34.21934145991454,48.951636659744864,1.710967072995727,0.7689305105572563,A,462.3056410055142,Correct,sub_017_day_12_data.csv,1,300,133.0,Training at home,,,,,,,,,,,,,
17,15,3327,A,38.68282809713615,48.875508946494634,1.9341414048568075,0.7677346992338486,A,1087.4710610078182,Correct,sub_017_day_12_data.csv,1,300,133.0,Training at home,,,,,,,,,,,,,
17,15,3328,A,47.88270891358829,77.9486580216607,2.3941354456794146,1.2244146569901615,A,820.4304910032079,Correct,sub_017_day_12_data.csv,1,300,133.0,Training at home,,,,,,,,,,,,,
17,15,3329,A,36.8758476771104,69.73189260558404,1.84379238385552,1.095346007653076,A,1543.7456440122332,Correct,sub_017_day_12_data.csv,1,300,133.0,Training at home,,,,,,,,,,,,,
17,15,3330,A,51.82144929442168,66.45294979163553,2.591072464721084,1.0438404943738675,A,878.0063609883655,Correct,sub_017_day_12_data.csv,1,300,133.0,Training at home,,,,,,,,,,,,,
17,15,3331,B,30.549437962239015,12.91296041642331,1.5274718981119508,0.2028363079016563,A,698.0818159936462,Incorrect,sub_017_day_12_data.csv,0,300,133.0,Training at home,,,,,,,,,,,,,
17,15,3332,A,27.68589845723323,38.26018015864851,1.3842949228616614,0.6009895045571606,A,722.9906349966768,Correct,sub_017_day_12_data.csv,1,300,133.0,Training at home,,,,,,,,,,,,,
17,15,3333,B,68.7866981245696,40.47273106202865,3.43933490622848,0.6357441728759231,B,598.7447240040638,Correct,sub_017_day_12_data.csv,1,300,133.0,Training at home,,,,,,,,,,,,,
17,15,3334,B,52.58440870152729,42.6284433623077,2.6292204350763644,0.6696060225049721,B,610.4510010045487,Correct,sub_017_day_12_data.csv,1,300,133.0,Training at home,,,,,,,,,,,,,
17,15,3335,A,17.894373473799657,43.75362448854012,0.8947186736899829,0.6872803263056205,A,405.3827449970413,Correct,sub_017_day_12_data.csv,1,300,133.0,Training at home,,,,,,,,,,,,,
17,15,3336,A,22.5224028524453,47.519079272737045,1.126120142622265,0.7464279517429084,A,452.2775990189984,Correct,sub_017_day_12_data.csv,1,300,133.0,Training at home,,,,,,,,,,,,,
17,15,3337,B,78.48499435642923,57.131969418787826,3.9242497178214615,0.8974268770559027,B,451.5248000097926,Correct,sub_017_day_12_data.csv,1,300,133.0,Training at home,,,,,,,,,,,,,
17,15,3338,A,26.501038440430623,47.06819155806632,1.325051922021531,0.7393454240828915,A,514.9437930085696,Correct,sub_017_day_12_data.csv,1,300,133.0,Training at home,,,,,,,,,,,,,
17,15,3339,B,72.63095343794669,56.78529072090544,3.6315476718973345,0.8919812608037857,B,501.35492798290215,Correct,sub_017_day_12_data.csv,1,300,133.0,Training at home,,,,,,,,,,,,,
17,15,3340,B,69.77528615668692,40.648300343134174,3.4887643078343458,0.6385020086945089,B,581.1952369986102,Correct,sub_017_day_12_data.csv,1,300,133.0,Training at home,,,,,,,,,,,,,
17,15,3341,A,20.32928477024272,43.00843670138177,1.016464238512136,0.675574943917213,A,401.9395580107812,Correct,sub_017_day_12_data.csv,1,300,133.0,Training at home,,,,,,,,,,,,,
17,15,3342,B,73.02765639243313,41.45663415300483,3.6513828196216567,0.6511992864881984,B,384.56315000075847,Correct,sub_017_day_12_data.csv,1,300,133.0,Training at home,,,,,,,,,,,,,
17,15,3343,A,36.11393777163439,44.372692832232474,1.8056968885817195,0.6970046291086901,B,649.3634170037694,Incorrect,sub_017_day_12_data.csv,0,300,133.0,Training at home,,,,,,,,,,,,,
17,15,3344,A,44.88793925691692,67.2788762741466,2.244396962845846,1.056814117223178,A,1191.2720830005128,Correct,sub_017_day_12_data.csv,1,300,133.0,Training at home,,,,,,,,,,,,,
17,15,3345,A,57.93674880858572,77.85519593257735,2.896837440429286,1.2229465579278946,A,1530.1754580286797,Correct,sub_017_day_12_data.csv,1,300,133.0,Training at home,,,,,,,,,,,,,
17,15,3346,B,86.52765250979533,66.34658960876713,4.326382625489766,1.0421697925281987,B,1143.6387109861244,Correct,sub_017_day_12_data.csv,1,300,133.0,Training at home,,,,,,,,,,,,,
17,15,3347,A,58.06557008353814,74.6547990673167,2.9032785041769067,1.1726748415255217,A,730.7986440137029,Correct,sub_017_day_12_data.csv,1,300,133.0,Training at home,,,,,,,,,,,,,
17,15,3348,B,54.310950412532655,40.96406932928662,2.715547520626633,0.643462096330149,B,524.7910129837692,Correct,sub_017_day_12_data.csv,1,300,133.0,Training at home,,,,,,,,,,,,,
17,15,3349,A,63.27239066886608,86.88634172562968,3.163619533443304,1.3648074643126524,A,1121.5158090053592,Correct,sub_017_day_12_data.csv,1,300,133.0,Training at home,,,,,,,,,,,,,
17,15,3350,B,38.10597132180595,14.38121924184548,1.9052985660902977,0.2258996635992297,B,972.6505230064504,Correct,sub_017_day_12_data.csv,1,300,134.0,Training at home,,,,,,,,,,,,,
17,15,3351,B,43.406412345547935,16.654721183597545,2.170320617277397,0.2616117485898818,B,797.6265760080423,Correct,sub_017_day_12_data.csv,1,300,134.0,Training at home,,,,,,,,,,,,,
17,15,3352,B,51.856854403286384,27.870249069518437,2.5928427201643194,0.4377848486525844,B,583.8190990034491,Correct,sub_017_day_12_data.csv,1,300,134.0,Training at home,,,,,,,,,,,,,
17,15,3353,A,45.607659977272235,70.66473287753003,2.2803829988636117,1.1099990283796672,A,618.0952729773708,Correct,sub_017_day_12_data.csv,1,300,134.0,Training at home,,,,,,,,,,,,,
17,15,3354,B,70.42346519467414,47.85313476301953,3.5211732597337067,0.7516752831137226,B,1038.881993008545,Correct,sub_017_day_12_data.csv,1,300,134.0,Training at home,,,,,,,,,,,,,
17,15,3355,A,34.41235478258532,64.61751626621165,1.720617739129266,1.0150095719757473,A,715.0067039765418,Correct,sub_017_day_12_data.csv,1,300,134.0,Training at home,,,,,,,,,,,,,
17,15,3356,A,61.436369715283725,77.3447140341683,3.0718184857641866,1.2149279270187323,A,1011.91925801686,Correct,sub_017_day_12_data.csv,1,300,134.0,Training at home,,,,,,,,,,,,,
17,15,3357,B,64.10815093923303,54.163177682723315,3.2054075469616516,0.850793205515611,B,880.7116709940601,Correct,sub_017_day_12_data.csv,1,300,134.0,Training at home,,,,,,,,,,,,,
17,15,3358,A,26.66380245430149,45.81200197516243,1.3331901227150746,0.719613244257057,A,622.2943359753117,Correct,sub_017_day_12_data.csv,1,300,134.0,Training at home,,,,,,,,,,,,,
17,15,3359,A,69.6103273051316,85.64985650196849,3.4805163652565803,1.3453847998380208,A,1412.3196650180034,Correct,sub_017_day_12_data.csv,1,300,134.0,Training at home,,,,,,,,,,,,,
17,15,3360,B,73.80097358848992,56.805727128349666,3.690048679424496,0.8923022751412486,B,1182.60495600407,Correct,sub_017_day_12_data.csv,1,300,134.0,Training at home,,,,,,,,,,,,,
17,15,3361,B,58.27048156820358,36.09329665821784,2.913524078410179,0.566952178126471,B,1305.6416820036247,Correct,sub_017_day_12_data.csv,1,300,134.0,Training at home,,,,,,,,,,,,,
17,15,3362,A,22.88042630315441,48.46757550185602,1.1440213151577203,0.7613268956696975,A,1055.9666350018233,Correct,sub_017_day_12_data.csv,1,300,134.0,Training at home,,,,,,,,,,,,,
17,15,3363,A,59.193696954736104,75.77923281308702,2.9596848477368054,1.1903374055013238,A,474.8827389848884,Correct,sub_017_day_12_data.csv,1,300,134.0,Training at home,,,,,,,,,,,,,
17,15,3364,A,42.28794373185268,55.52091421985088,2.114397186592634,0.8721204811683632,A,1124.9949899793137,Correct,sub_017_day_12_data.csv,1,300,134.0,Training at home,,,,,,,,,,,,,
17,15,3365,B,51.71309987546957,20.99784872479032,2.585654993773478,0.3298334364749554,B,1123.6807119857986,Correct,sub_017_day_12_data.csv,1,300,134.0,Training at home,,,,,,,,,,,,,
17,15,3366,A,41.16873082576252,69.75297616175106,2.058436541288126,1.0956771873789055,A,1716.1353700212203,Correct,sub_017_day_12_data.csv,1,300,134.0,Training at home,,,,,,,,,,,,,
17,15,3367,B,48.29904401952521,39.3855110553048,2.4149522009762605,0.6186661609461256,B,1150.120363017777,Correct,sub_017_day_12_data.csv,1,300,134.0,Training at home,,,,,,,,,,,,,
17,15,3368,B,57.3513688679575,26.93641886791108,2.867568443397875,0.4231162781472347,B,565.8775400079321,Correct,sub_017_day_12_data.csv,1,300,134.0,Training at home,,,,,,,,,,,,,
17,15,3369,B,82.22679787095956,66.0912472517353,4.111339893547978,1.0381588841631912,B,666.9817630026955,Correct,sub_017_day_12_data.csv,1,300,134.0,Training at home,,,,,,,,,,,,,
17,15,3370,B,72.70767202130868,47.90230855077921,3.635383601065434,0.7524477031655975,B,778.9258240081836,Correct,sub_017_day_12_data.csv,1,300,134.0,Training at home,,,,,,,,,,,,,
17,15,3371,B,66.82635372813482,51.19354256649811,3.341317686406741,0.804146286190734,B,800.401955988491,Correct,sub_017_day_12_data.csv,1,300,134.0,Training at home,,,,,,,,,,,,,
17,15,3372,B,47.723087074519825,31.309298999176303,2.386154353725991,0.4918053186242926,B,759.2780159902759,Correct,sub_017_day_12_data.csv,1,300,134.0,Training at home,,,,,,,,,,,,,
17,15,3373,B,79.46375123788721,51.72179534973424,3.9731875618943606,0.8124440615059991,B,960.0326389772816,Correct,sub_017_day_12_data.csv,1,300,134.0,Training at home,,,,,,,,,,,,,
17,15,3374,B,82.52884141076832,57.89296801484891,4.126442070538416,0.9093806150497912,B,631.1652539880015,Correct,sub_017_day_12_data.csv,1,300,134.0,Training at home,,,,,,,,,,,,,
17,15,3375,A,33.844739339022034,59.30669026161131,1.6922369669511017,0.9315873121730172,A,628.4782360016834,Correct,sub_017_day_12_data.csv,1,300,135.0,Training at home,,,,,,,,,,,,,
17,15,3376,A,65.91966229511166,85.07572596159731,3.2959831147555834,1.3363663783988629,A,1664.1880100069102,Correct,sub_017_day_12_data.csv,1,300,135.0,Training at home,,,,,,,,,,,,,
17,15,3377,B,75.10803660020834,63.50996443812812,3.755401830010417,0.9976121885428616,B,634.4398430082947,Correct,sub_017_day_12_data.csv,1,300,135.0,Training at home,,,,,,,,,,,,,
17,15,3378,A,21.448320413775416,36.820720294445564,1.072416020688771,0.5783785218845741,A,676.3549809984397,Correct,sub_017_day_12_data.csv,1,300,135.0,Training at home,,,,,,,,,,,,,
17,15,3379,A,30.84545437219029,45.02245390017887,1.5422727186095144,0.7072110520969352,A,1076.5777280030306,Correct,sub_017_day_12_data.csv,1,300,135.0,Training at home,,,,,,,,,,,,,
17,15,3380,A,61.82590386528892,74.66763700994912,3.091295193264446,1.1728764994568277,A,771.2321779981721,Correct,sub_017_day_12_data.csv,1,300,135.0,Training at home,,,,,,,,,,,,,
17,15,3381,B,54.90898492309423,25.551088483630103,2.7454492461547115,0.4013555593569755,B,880.3099520155229,Correct,sub_017_day_12_data.csv,1,300,135.0,Training at home,,,,,,,,,,,,,
17,15,3382,A,38.579394803621504,66.54307782416583,1.9289697401810753,1.0452562221982662,A,1546.6023749904707,Correct,sub_017_day_12_data.csv,1,300,135.0,Training at home,,,,,,,,,,,,,
17,15,3383,B,62.05595387147854,49.10029753662651,3.102797693573927,0.7712656701506944,B,578.8423100020736,Correct,sub_017_day_12_data.csv,1,300,135.0,Training at home,,,,,,,,,,,,,
17,15,3384,A,23.741882219494418,44.447233206839655,1.1870941109747206,0.6981755065749989,A,519.0715650096536,Correct,sub_017_day_12_data.csv,1,300,135.0,Training at home,,,,,,,,,,,,,
17,15,3385,A,22.049215952708003,35.46525549034358,1.1024607976354002,0.5570869305307423,A,512.3490650148597,Correct,sub_017_day_12_data.csv,1,300,135.0,Training at home,,,,,,,,,,,,,
17,15,3386,A,50.09527878702347,75.81102844007742,2.504763939351174,1.1908368500421704,A,885.9058849920984,Correct,sub_017_day_12_data.csv,1,300,135.0,Training at home,,,,,,,,,,,,,
17,15,3387,A,50.61587328380834,70.6168010005142,2.5307936641904174,1.1092461162161389,A,678.2643760088831,Correct,sub_017_day_12_data.csv,1,300,135.0,Training at home,,,,,,,,,,,,,
17,15,3388,A,63.403017216657105,75.45343242093705,3.170150860832855,1.1852197449087487,A,514.5666539901868,Correct,sub_017_day_12_data.csv,1,300,135.0,Training at home,,,,,,,,,,,,,
17,15,3389,A,40.26170962260806,54.78934358407324,2.013085481130403,0.8606289964936578,A,753.0236619932111,Correct,sub_017_day_12_data.csv,1,300,135.0,Training at home,,,,,,,,,,,,,
17,15,3390,A,61.4673296893142,71.24799305226999,3.07336648446571,1.11916085778014,A,839.4696789910085,Correct,sub_017_day_12_data.csv,1,300,135.0,Training at home,,,,,,,,,,,,,
17,15,3391,B,71.72163433971645,45.972044799736125,3.5860817169858223,0.7221271910667593,B,431.2073639885057,Correct,sub_017_day_12_data.csv,1,300,135.0,Training at home,,,,,,,,,,,,,
17,15,3392,A,57.342550826591136,77.31279909951819,2.867127541329557,1.2144266083975497,A,496.60822399891913,Correct,sub_017_day_12_data.csv,1,300,135.0,Training at home,,,,,,,,,,,,,
17,15,3393,A,39.81507470097621,67.97852604430292,1.9907537350488105,1.0678041901132225,A,553.6507579963654,Correct,sub_017_day_12_data.csv,1,300,135.0,Training at home,,,,,,,,,,,,,
17,15,3394,B,49.24775756476557,40.78356008812335,2.462387878238278,0.6406266638004311,B,684.7876450046897,Correct,sub_017_day_12_data.csv,1,300,135.0,Training at home,,,,,,,,,,,,,
17,15,3395,A,55.118348628534775,84.79029592961308,2.7559174314267385,1.331882853940885,A,508.249436999904,Correct,sub_017_day_12_data.csv,1,300,135.0,Training at home,,,,,,,,,,,,,
17,15,3396,B,45.249172273552645,30.31722616360328,2.262458613677632,0.4762218749639817,B,514.7998269821983,Correct,sub_017_day_12_data.csv,1,300,135.0,Training at home,,,,,,,,,,,,,
17,15,3397,B,68.76104888282728,40.923814043503285,3.438052444141364,0.6428297677797236,B,384.9403439962771,Correct,sub_017_day_12_data.csv,1,300,135.0,Training at home,,,,,,,,,,,,,
17,15,3398,A,34.7209719212937,66.79318931846225,1.7360485960646852,1.0491849643635662,A,550.0354359974153,Correct,sub_017_day_12_data.csv,1,300,135.0,Training at home,,,,,,,,,,,,,
17,15,3399,A,40.538932758268395,55.34783271451296,2.02694663791342,0.8694017232401536,A,475.3603030112572,Correct,sub_017_day_12_data.csv,1,300,135.0,Training at home,,,,,,,,,,,,,
17,15,3400,A,32.191727339355516,53.510484152152145,1.6095863669677757,0.8405407195121711,A,474.79200598900206,Correct,sub_017_day_12_data.csv,1,300,136.0,Training at home,,,,,,,,,,,,,
17,15,3401,B,68.58418402111688,55.5754598656049,3.429209201055844,0.8729772821682936,B,427.27342899888754,Correct,sub_017_day_12_data.csv,1,300,136.0,Training at home,,,,,,,,,,,,,
17,15,3402,A,42.369156807984005,52.72566940812763,2.1184578403992003,0.8282128783408892,B,516.4510690083262,Incorrect,sub_017_day_12_data.csv,0,300,136.0,Training at home,,,,,,,,,,,,,
17,15,3403,A,59.78273667667828,77.24082975106333,2.989136833833914,1.2132961165156024,A,611.7670439998619,Correct,sub_017_day_12_data.csv,1,300,136.0,Training at home,,,,,,,,,,,,,
17,15,3404,B,79.25225682446435,51.48056965904179,3.9626128412232178,0.8086548972173165,B,857.6441319892183,Correct,sub_017_day_12_data.csv,1,300,136.0,Training at home,,,,,,,,,,,,,
17,15,3405,A,66.49461271331204,88.48149496398986,3.324730635665602,1.389864072787564,A,523.180095013231,Correct,sub_017_day_12_data.csv,1,300,136.0,Training at home,,,,,,,,,,,,,
17,15,3406,B,59.74744161398408,27.86821634145639,2.987372080699204,0.437752918634852,B,1259.6642060088925,Correct,sub_017_day_12_data.csv,1,300,136.0,Training at home,,,,,,,,,,,,,
17,15,3407,B,78.75609331184357,63.03129985597663,3.9378046655921786,0.9900933428687578,B,472.7884950116277,Correct,sub_017_day_12_data.csv,1,300,136.0,Training at home,,,,,,,,,,,,,
17,15,3408,A,36.67862328186997,55.1930591530084,1.8339311640934983,0.8669705458211904,A,698.7087019952014,Correct,sub_017_day_12_data.csv,1,300,136.0,Training at home,,,,,,,,,,,,,
17,15,3409,A,20.86305633766737,48.7718925116307,1.0431528168833686,0.7661070960810502,A,569.0848950180225,Correct,sub_017_day_12_data.csv,1,300,136.0,Training at home,,,,,,,,,,,,,
17,15,3410,A,58.97885244450649,81.79973834037428,2.9489426222253248,1.2849072851784358,A,989.717798976926,Correct,sub_017_day_12_data.csv,1,300,136.0,Training at home,,,,,,,,,,,,,
17,15,3411,A,21.654939397598273,38.48656648098808,1.0827469698799137,0.6045455725928366,A,621.4264580048621,Correct,sub_017_day_12_data.csv,1,300,136.0,Training at home,,,,,,,,,,,,,
17,15,3412,A,42.68839748324356,71.9265484376498,2.134419874162178,1.1298195808489553,A,542.5442889973056,Correct,sub_017_day_12_data.csv,1,300,136.0,Training at home,,,,,,,,,,,,,
17,15,3413,B,70.19293713407292,38.63324119133245,3.509646856703646,0.606849533555263,B,531.8786959978752,Correct,sub_017_day_12_data.csv,1,300,136.0,Training at home,,,,,,,,,,,,,
17,15,3414,A,28.34093110133106,60.64589276223309,1.4170465550665527,0.9526234558611294,A,671.1890239967033,Correct,sub_017_day_12_data.csv,1,300,136.0,Training at home,,,,,,,,,,,,,
17,15,3415,A,40.452274555556734,54.12589328761264,2.0226137277778364,0.8502075436067448,A,612.6387339900248,Correct,sub_017_day_12_data.csv,1,300,136.0,Training at home,,,,,,,,,,,,,
17,15,3416,A,66.21696262020248,78.80763952542921,3.310848131010124,1.2379075068992051,A,642.4062120204326,Correct,sub_017_day_12_data.csv,1,300,136.0,Training at home,,,,,,,,,,,,,
17,15,3417,B,62.57843016136318,42.06218595781933,3.1289215080681587,0.6607112719950649,B,544.7586850204971,Correct,sub_017_day_12_data.csv,1,300,136.0,Training at home,,,,,,,,,,,,,
17,15,3418,B,51.1399969078461,32.96433806967008,2.556999845392305,0.5178026115506292,B,646.9738839950878,Correct,sub_017_day_12_data.csv,1,300,136.0,Training at home,,,,,,,,,,,,,
17,15,3419,B,71.02604148750406,57.48877666791595,3.551302074375203,0.9030315922189452,B,827.7103140135296,Correct,sub_017_day_12_data.csv,1,300,136.0,Training at home,,,,,,,,,,,,,
17,15,3420,B,81.2687165771884,50.87920472014603,4.06343582885942,0.7992086788465094,B,486.6234099899884,Correct,sub_017_day_12_data.csv,1,300,136.0,Training at home,,,,,,,,,,,,,
17,15,3421,B,36.96192874414804,15.922316007425003,1.848096437207402,0.2501071549853078,B,653.155264997622,Correct,sub_017_day_12_data.csv,1,300,136.0,Training at home,,,,,,,,,,,,,
17,15,3422,B,32.99562752709908,11.980597510604015,1.6497813763549545,0.1881907856246487,B,457.37776000169106,Correct,sub_017_day_12_data.csv,1,300,136.0,Training at home,,,,,,,,,,,,,
17,15,3423,B,44.24954941129829,18.479472400635345,2.2124774705649144,0.2902748736802567,B,491.8838440207765,Correct,sub_017_day_12_data.csv,1,300,136.0,Training at home,,,,,,,,,,,,,
17,15,3424,B,60.686933240680155,37.47034101774013,3.0343466620340074,0.5885827403441835,B,496.87036901013926,Correct,sub_017_day_12_data.csv,1,300,136.0,Training at home,,,,,,,,,,,,,
17,15,3425,A,59.42848407071014,72.86398532739169,2.9714242035355074,1.144544805079041,A,1191.2604849785566,Correct,sub_017_day_12_data.csv,1,300,137.0,Training at home,,,,,,,,,,,,,
17,15,3426,A,64.99035998289767,78.59934896321242,3.2495179991448833,1.234635686398843,A,618.3161800145172,Correct,sub_017_day_12_data.csv,1,300,137.0,Training at home,,,,,,,,,,,,,
17,15,3427,B,71.04063247615372,49.98780691271846,3.5520316238076863,0.7852066348303068,B,561.8954390229192,Correct,sub_017_day_12_data.csv,1,300,137.0,Training at home,,,,,,,,,,,,,
17,15,3428,A,10.834723664109571,32.081701343480255,0.5417361832054786,0.5039381862766968,A,555.9524080017582,Correct,sub_017_day_12_data.csv,1,300,137.0,Training at home,,,,,,,,,,,,,
17,15,3429,B,41.54526594739018,19.52774840889384,2.077263297369509,0.3067411547126533,B,691.7439489916433,Correct,sub_017_day_12_data.csv,1,300,137.0,Training at home,,,,,,,,,,,,,
17,15,3430,B,65.52841443179348,39.33707422905571,3.2764207215896737,0.617905317058589,B,648.1830200063996,Correct,sub_017_day_12_data.csv,1,300,137.0,Training at home,,,,,,,,,,,,,
17,15,3431,A,48.892062936028886,79.76762645506878,2.444603146801444,1.2529869463276944,A,687.0117379876319,Correct,sub_017_day_12_data.csv,1,300,137.0,Training at home,,,,,,,,,,,,,
17,15,3432,A,43.489592797772325,52.67169741292588,2.174479639888616,0.8273650882227623,B,658.4872259991243,Incorrect,sub_017_day_12_data.csv,0,300,137.0,Training at home,,,,,,,,,,,,,
17,15,3433,B,68.18722428731789,54.94999803676003,3.409361214365895,0.8631525507352944,B,514.1349160112441,Correct,sub_017_day_12_data.csv,1,300,137.0,Training at home,,,,,,,,,,,,,
17,15,3434,A,45.523818827474514,77.53398449724449,2.276190941373726,1.2179009805004408,A,526.822601997992,Correct,sub_017_day_12_data.csv,1,300,137.0,Training at home,,,,,,,,,,,,,
17,15,3435,B,65.76327610715161,42.4226171770162,3.288163805357581,0.6663729123468313,B,524.0502840024419,Correct,sub_017_day_12_data.csv,1,300,137.0,Training at home,,,,,,,,,,,,,
17,15,3436,B,63.59018169220058,43.94255229478028,3.1795090846100287,0.6902479973463351,B,503.3085420145653,Correct,sub_017_day_12_data.csv,1,300,137.0,Training at home,,,,,,,,,,,,,
17,15,3437,A,39.36033597176583,71.85801700823227,1.9680167985882917,1.1287430916729646,A,1124.7634159808513,Correct,sub_017_day_12_data.csv,1,300,137.0,Training at home,,,,,,,,,,,,,
17,15,3438,A,58.94797573092621,85.79368700811109,2.9473987865463105,1.3476440841453192,A,766.4678999863099,Correct,sub_017_day_12_data.csv,1,300,137.0,Training at home,,,,,,,,,,,,,
17,15,3439,A,23.281427200995186,36.61800873480518,1.1640713600497592,0.575194336151754,A,465.10786400176585,Correct,sub_017_day_12_data.csv,1,300,137.0,Training at home,,,,,,,,,,,,,
17,15,3440,A,21.667238318337628,53.605719470328566,1.0833619159168812,0.8420366723918977,A,464.9103199772071,Correct,sub_017_day_12_data.csv,1,300,137.0,Training at home,,,,,,,,,,,,,
17,15,3441,B,39.691382332634674,18.498759753672072,1.9845691166317336,0.2905778387132935,B,477.37307401257567,Correct,sub_017_day_12_data.csv,1,300,137.0,Training at home,,,,,,,,,,,,,
17,15,3442,A,53.30803401524439,77.15805336944553,2.6654017007622195,1.2119958681536962,A,1135.041856992757,Correct,sub_017_day_12_data.csv,1,300,137.0,Training at home,,,,,,,,,,,,,
17,15,3443,A,31.272994264520676,60.46124166764398,1.5636497132260336,0.9497229632499372,A,567.3018239904195,Correct,sub_017_day_12_data.csv,1,300,137.0,Training at home,,,,,,,,,,,,,
17,15,3444,A,56.59103932569439,77.37400780682476,2.8295519662847193,1.2153880725236,A,602.2522559796926,Correct,sub_017_day_12_data.csv,1,300,137.0,Training at home,,,,,,,,,,,,,
17,15,3445,B,89.14598187872649,66.3439718791509,4.457299093936324,1.0421286733275414,B,700.6041150016245,Correct,sub_017_day_12_data.csv,1,300,137.0,Training at home,,,,,,,,,,,,,
17,15,3446,A,46.46580179487393,77.25190667481783,2.323290089743697,1.21347011242706,A,1741.0905860015191,Correct,sub_017_day_12_data.csv,1,300,137.0,Training at home,,,,,,,,,,,,,
17,15,3447,B,86.89460744906299,64.96503633353481,4.344730372453149,1.0204684044281347,B,896.2905649968889,Correct,sub_017_day_12_data.csv,1,300,137.0,Training at home,,,,,,,,,,,,,
17,15,3448,A,65.02459906655955,83.33651819468515,3.251229953327977,1.309046966680875,A,984.857318981085,Correct,sub_017_day_12_data.csv,1,300,137.0,Training at home,,,,,,,,,,,,,
17,15,3449,B,44.02230133506788,30.601058445277037,2.201115066753394,0.4806803020187712,B,556.0897109971847,Correct,sub_017_day_12_data.csv,1,300,137.0,Training at home,,,,,,,,,,,,,
17,15,3450,B,72.29030163731896,50.0381610442512,3.614515081865948,0.7859975956788128,B,643.1139000051189,Correct,sub_017_day_12_data.csv,1,300,138.0,Training at home,,,,,,,,,,,,,
17,15,3451,B,82.2113040644722,53.26473873227302,4.11056520322361,0.836680559483443,B,623.5360790160485,Correct,sub_017_day_12_data.csv,1,300,138.0,Training at home,,,,,,,,,,,,,
17,15,3452,B,88.10691597798643,67.145177888254,4.405345798899321,1.0547139878885927,B,407.86596699035726,Correct,sub_017_day_12_data.csv,1,300,138.0,Training at home,,,,,,,,,,,,,
17,15,3453,B,47.740415789115715,36.898924660865944,2.3870207894557858,0.5796069531996986,B,523.8326450053137,Correct,sub_017_day_12_data.csv,1,300,138.0,Training at home,,,,,,,,,,,,,
17,15,3454,B,63.32434530444995,49.66432077505971,3.166217265222498,0.7801253264622725,B,508.2731500151567,Correct,sub_017_day_12_data.csv,1,300,138.0,Training at home,,,,,,,,,,,,,
17,15,3455,B,42.64457525547988,23.84229361054828,2.1322287627739938,0.3745138722581467,B,693.5797229816671,Correct,sub_017_day_12_data.csv,1,300,138.0,Training at home,,,,,,,,,,,,,
17,15,3456,B,43.317627732572355,22.386227612469032,2.1658813866286177,0.3516420410446085,B,547.836298996117,Correct,sub_017_day_12_data.csv,1,300,138.0,Training at home,,,,,,,,,,,,,
17,15,3457,A,60.39965374244786,86.6340382308073,3.019982687122393,1.3608442902836075,A,464.20976900844835,Correct,sub_017_day_12_data.csv,1,300,138.0,Training at home,,,,,,,,,,,,,
17,15,3458,A,34.58626581388925,47.09013233449157,1.7293132906944624,0.7396900689930495,B,2329.6143040060997,Incorrect,sub_017_day_12_data.csv,0,300,138.0,Training at home,,,,,,,,,,,,,
17,15,3459,B,83.2615662486033,54.27126578227697,4.163078312430165,0.8524910494131023,B,416.66617000009865,Correct,sub_017_day_12_data.csv,1,300,138.0,Training at home,,,,,,,,,,,,,
17,15,3460,B,32.95118671515241,21.204511272800165,1.6475593357576204,0.3330796841879547,A,718.6336939921603,Incorrect,sub_017_day_12_data.csv,0,300,138.0,Training at home,,,,,,,,,,,,,
17,15,3461,A,40.093995173167734,72.41971041179431,2.004699758658387,1.1375661510239663,A,933.6168830050156,Correct,sub_017_day_12_data.csv,1,300,138.0,Training at home,,,,,,,,,,,,,
17,15,3462,B,54.442100732063935,31.812052217158104,2.7221050366031965,0.4997025477051939,B,677.4694969935808,Correct,sub_017_day_12_data.csv,1,300,138.0,Training at home,,,,,,,,,,,,,
17,15,3463,B,56.342221139120994,31.433631096967616,2.81711105695605,0.4937583226494257,B,826.6530270047951,Correct,sub_017_day_12_data.csv,1,300,138.0,Training at home,,,,,,,,,,,,,
17,15,3464,B,76.11516715304468,53.7556748152698,3.805758357652234,0.8443921654420673,B,697.1816809964366,Correct,sub_017_day_12_data.csv,1,300,138.0,Training at home,,,,,,,,,,,,,
17,15,3465,B,57.27769960184415,33.44787708080702,2.863884980092207,0.5253980245761887,B,417.5382490211632,Correct,sub_017_day_12_data.csv,1,300,138.0,Training at home,,,,,,,,,,,,,
17,15,3466,B,50.2892972360992,19.27352508019883,2.51446486180496,0.3027478240036563,B,352.2113460057881,Correct,sub_017_day_12_data.csv,1,300,138.0,Training at home,,,,,,,,,,,,,
17,15,3467,B,47.80336422510079,32.592040747721335,2.3901682112550393,0.5119545788927027,B,455.74835399747826,Correct,sub_017_day_12_data.csv,1,300,138.0,Training at home,,,,,,,,,,,,,
17,15,3468,B,47.27476133271064,25.658278009946653,2.363738066635532,0.4030392884990647,B,477.0162509812508,Correct,sub_017_day_12_data.csv,1,300,138.0,Training at home,,,,,,,,,,,,,
17,15,3469,A,52.60261365298901,80.99216553056908,2.6301306826494506,1.2722219611458212,A,525.8765869948547,Correct,sub_017_day_12_data.csv,1,300,138.0,Training at home,,,,,,,,,,,,,
17,15,3470,B,60.018069278284734,50.89880813911298,3.000903463914237,0.7995166086315686,B,443.68288401165046,Correct,sub_017_day_12_data.csv,1,300,138.0,Training at home,,,,,,,,,,,,,
17,15,3471,A,51.60690546799844,78.07042337412629,2.5803452733999217,1.2263273426740002,B,590.078666980844,Incorrect,sub_017_day_12_data.csv,0,300,138.0,Training at home,,,,,,,,,,,,,
17,15,3472,A,17.282328253049897,33.06616350173171,0.8641164126524948,0.5194020816971964,A,579.6697479963768,Correct,sub_017_day_12_data.csv,1,300,138.0,Training at home,,,,,,,,,,,,,
17,15,3473,B,77.37745303547341,53.99629831055791,3.8688726517736702,0.8481718704674586,B,570.4564579937141,Correct,sub_017_day_12_data.csv,1,300,138.0,Training at home,,,,,,,,,,,,,
17,15,3474,A,34.872213909531865,47.01569883282951,1.7436106954765933,0.738520870283037,A,841.6924430057406,Correct,sub_017_day_12_data.csv,1,300,138.0,Training at home,,,,,,,,,,,,,
17,15,3475,B,42.65901504690888,17.70239026815946,2.132950752345444,0.278068496087146,B,601.6086979943793,Correct,sub_017_day_12_data.csv,1,300,139.0,Training at home,,,,,,,,,,,,,
17,15,3476,B,55.989649323921,25.83172568051326,2.79948246619605,0.4057637981372362,B,560.8007269911468,Correct,sub_017_day_12_data.csv,1,300,139.0,Training at home,,,,,,,,,,,,,
17,15,3477,B,49.40030644374751,20.889531623841737,2.4700153221873755,0.3281319954319643,B,388.92303401371464,Correct,sub_017_day_12_data.csv,1,300,139.0,Training at home,,,,,,,,,,,,,
17,15,3478,B,47.61561656576952,31.013356348749056,2.380780828288476,0.487156662341962,B,448.01474499399774,Correct,sub_017_day_12_data.csv,1,300,139.0,Training at home,,,,,,,,,,,,,
17,15,3479,B,60.63866321122604,48.17223136864958,3.031933160561302,0.7566876408738865,A,969.8927180143072,Incorrect,sub_017_day_12_data.csv,0,300,139.0,Training at home,,,,,,,,,,,,,
17,15,3480,B,43.414502600913195,30.554492870521948,2.1707251300456596,0.4799488516809673,B,446.20578599278815,Correct,sub_017_day_12_data.csv,1,300,139.0,Training at home,,,,,,,,,,,,,
17,15,3481,B,39.844264339101514,22.33103756497271,1.992213216955076,0.3507751178057798,B,934.6104959840886,Correct,sub_017_day_12_data.csv,1,300,139.0,Training at home,,,,,,,,,,,,,
17,15,3482,B,78.22598505767789,66.63811155941062,3.911299252883895,1.0467490086207072,A,874.6118419803679,Incorrect,sub_017_day_12_data.csv,0,300,139.0,Training at home,,,,,,,,,,,,,
17,15,3483,B,77.84961754172953,51.63683642701795,3.892480877086476,0.811109529868687,B,2793.2366740133148,Correct,sub_017_day_12_data.csv,1,300,139.0,Training at home,,,,,,,,,,,,,
17,15,3484,B,87.21455447286527,59.342775768154056,4.360727723643264,0.9321541419842958,A,928.7545980187132,Incorrect,sub_017_day_12_data.csv,0,300,139.0,Training at home,,,,,,,,,,,,,
17,15,3485,A,30.613188062271323,63.30006646203412,1.5306594031135663,0.9943151188443602,A,631.6733669955283,Correct,sub_017_day_12_data.csv,1,300,139.0,Training at home,,,,,,,,,,,,,
17,15,3486,B,77.38633721079815,53.48120635851305,3.8693168605399073,0.8400808250051216,A,575.030661013443,Incorrect,sub_017_day_12_data.csv,0,300,139.0,Training at home,,,,,,,,,,,,,
17,15,3487,A,57.95116331299744,70.77829087636556,2.8975581656498717,1.1117827932541575,A,1027.9811039799824,Correct,sub_017_day_12_data.csv,1,300,139.0,Training at home,,,,,,,,,,,,,
17,15,3488,B,48.25254351171559,39.41982695026595,2.4126271755857793,0.6192051937636822,A,632.1454690187238,Incorrect,sub_017_day_12_data.csv,0,300,139.0,Training at home,,,,,,,,,,,,,
17,15,3489,A,34.66630469711427,63.36895982291806,1.7333152348557137,0.9953972932265306,A,555.871054995805,Correct,sub_017_day_12_data.csv,1,300,139.0,Training at home,,,,,,,,,,,,,
17,15,3490,B,41.88437001306184,20.692093120298185,2.094218500653092,0.3250306386706234,A,692.6350159919821,Incorrect,sub_017_day_12_data.csv,0,300,139.0,Training at home,,,,,,,,,,,,,
17,15,3491,B,40.09134539113004,17.33346941393535,2.0045672695565018,0.2722735008602133,B,362.6174379896838,Correct,sub_017_day_12_data.csv,1,300,139.0,Training at home,,,,,,,,,,,,,
17,15,3492,A,52.104563370362406,64.25279569040886,2.60522816851812,1.009280554567972,A,2592.904474004172,Correct,sub_017_day_12_data.csv,1,300,139.0,Training at home,,,,,,,,,,,,,
17,15,3493,B,52.19060781378688,24.94772468792321,2.609530390689344,0.3918779430168013,B,1125.8923029818106,Correct,sub_017_day_12_data.csv,1,300,139.0,Training at home,,,,,,,,,,,,,
17,15,3494,B,55.50974084042222,41.114260196145345,2.77548704202111,0.6458212889499474,B,1767.4298040219585,Correct,sub_017_day_12_data.csv,1,300,139.0,Training at home,,,,,,,,,,,,,
17,15,3495,A,38.04062392415996,62.78094791522553,1.902031196207998,0.98616082377938,A,1842.191270989133,Correct,sub_017_day_12_data.csv,1,300,139.0,Training at home,,,,,,,,,,,,,
17,15,3496,B,65.81591500659538,49.88032960099114,3.290795750329769,0.7835183851655564,B,1623.7710530112963,Correct,sub_017_day_12_data.csv,1,300,139.0,Training at home,,,,,,,,,,,,,
17,15,3497,A,15.002575096709652,44.566970386837454,0.7501287548354826,0.700056333800212,A,1171.9242590188514,Correct,sub_017_day_12_data.csv,1,300,139.0,Training at home,,,,,,,,,,,,,
17,15,3498,A,28.25007859197264,49.338792729785936,1.4125039295986317,0.775011943884425,A,1431.6651079861913,Correct,sub_017_day_12_data.csv,1,300,139.0,Training at home,,,,,,,,,,,,,
17,15,3499,B,42.676409636184474,30.02685814180464,2.1338204818092237,0.4716607847433816,B,400.4919700091705,Correct,sub_017_day_12_data.csv,1,300,139.0,Training at home,,,,,,,,,,,,,
17,15,3500,A,53.6951586287549,70.07284566890488,2.6847579314377454,1.1007016858478147,B,1623.8170769938731,Incorrect,sub_017_day_12_data.csv,0,300,140.0,Training at home,,,,,,,,,,,,,
17,15,3501,A,53.96487045101581,76.4652308488017,2.698243522550791,1.201113037448215,A,574.5541799988132,Correct,sub_017_day_12_data.csv,1,300,140.0,Training at home,,,,,,,,,,,,,
17,15,3502,A,54.320432868986174,68.50072047955776,2.716021643449309,1.0760068011209327,A,526.6982849861961,Correct,sub_017_day_12_data.csv,1,300,140.0,Training at home,,,,,,,,,,,,,
17,15,3503,A,32.56386464678511,43.34947782161051,1.6281932323392556,0.6809320053066262,A,1703.9467779977713,Correct,sub_017_day_12_data.csv,1,300,140.0,Training at home,,,,,,,,,,,,,
17,15,3504,B,51.298032817405804,31.75825075022101,2.5649016408702905,0.4988574362387843,B,617.4460670154076,Correct,sub_017_day_12_data.csv,1,300,140.0,Training at home,,,,,,,,,,,,,
17,15,3505,A,29.135570929080373,47.07557077933981,1.4567785464540186,0.7394613366196015,B,415.7130919920746,Incorrect,sub_017_day_12_data.csv,0,300,140.0,Training at home,,,,,,,,,,,,,
17,15,3506,B,47.675372539867155,19.881150960922657,2.383768626993358,0.3122923890187213,B,385.56249198154546,Correct,sub_017_day_12_data.csv,1,300,140.0,Training at home,,,,,,,,,,,,,
17,15,3507,B,37.81098083662677,18.37563522486235,1.8905490418313384,0.2886438031373669,B,323.5258749919012,Correct,sub_017_day_12_data.csv,1,300,140.0,Training at home,,,,,,,,,,,,,
17,15,3508,A,38.025588726539816,57.28183079792347,1.9012794363269907,0.8997808940946497,B,34.5528649922926,Incorrect,sub_017_day_12_data.csv,0,300,140.0,Training at home,,,,,,,,,,,,,
17,15,3509,B,42.10665986497144,22.512021449363232,2.105332993248572,0.3536180060138769,B,3003.302047989564,Correct,sub_017_day_12_data.csv,1,300,140.0,Training at home,,,,,,,,,,,,,
17,15,3510,B,65.55438022190768,37.90538177512104,3.2777190110953836,0.5954163445811835,B,2500.3767940215766,Correct,sub_017_day_12_data.csv,1,300,140.0,Training at home,,,,,,,,,,,,,
17,15,3511,A,23.626787508936868,37.93553458395018,1.1813393754468435,0.595889983794697,B,21.44352000323124,Incorrect,sub_017_day_12_data.csv,0,300,140.0,Training at home,,,,,,,,,,,,,
17,15,3512,B,39.298344905530485,15.432062011862431,1.964917245276524,0.2424062632310457,B,0.0738200033083558,Correct,sub_017_day_12_data.csv,1,300,140.0,Training at home,,,,,,,,,,,,,
17,15,3513,A,43.78876656638987,65.06818666727199,2.189438328319494,1.022088686081555,A,750.7043940131553,Correct,sub_017_day_12_data.csv,1,300,140.0,Training at home,,,,,,,,,,,,,
17,15,3514,A,57.93298074520045,69.81016433375001,2.8966490372600227,1.0965754970840262,A,2552.894391992595,Correct,sub_017_day_12_data.csv,1,300,140.0,Training at home,,,,,,,,,,,,,
17,15,3515,A,28.60693705103203,60.46337335210306,1.430346852551602,0.9497564476711192,A,402.44279301259667,Correct,sub_017_day_12_data.csv,1,300,140.0,Training at home,,,,,,,,,,,,,
17,15,3516,B,78.11682472850379,51.62165093836056,3.9058412364251898,0.8108709967706511,B,489.4492080202326,Correct,sub_017_day_12_data.csv,1,300,140.0,Training at home,,,,,,,,,,,,,
17,15,3517,A,39.59298529889559,56.2061815387133,1.9796492649447797,0.8828846350417797,A,510.9108359902166,Correct,sub_017_day_12_data.csv,1,300,140.0,Training at home,,,,,,,,,,,,,
17,15,3518,B,40.39265486096693,28.1577595479433,2.0196327430483465,0.4423010526868326,A,536.7558670113795,Incorrect,sub_017_day_12_data.csv,0,300,140.0,Training at home,,,,,,,,,,,,,
17,15,3519,A,22.472509641719512,52.7905702997279,1.1236254820859757,0.8292323391622034,A,435.98443700466305,Correct,sub_017_day_12_data.csv,1,300,140.0,Training at home,,,,,,,,,,,,,
17,15,3520,A,39.048476388819246,53.71702653869843,1.9524238194409624,0.8437850797333147,A,916.8757179868408,Correct,sub_017_day_12_data.csv,1,300,140.0,Training at home,,,,,,,,,,,,,
17,15,3521,A,53.66077581070427,74.57964678093343,2.6830387905352135,1.1714943521715109,A,738.8452750165015,Correct,sub_017_day_12_data.csv,1,300,140.0,Training at home,,,,,,,,,,,,,
17,15,3522,B,85.53555768047832,58.49879717104061,4.2767778840239155,0.9188969571819028,B,1159.801878995495,Correct,sub_017_day_12_data.csv,1,300,140.0,Training at home,,,,,,,,,,,,,
17,15,3523,A,46.12922799585341,54.27719226717968,2.3064613997926706,0.852584142420262,A,641.5715180046391,Correct,sub_017_day_12_data.csv,1,300,140.0,Training at home,,,,,,,,,,,,,
17,15,3524,B,41.42000055376906,27.12007932569987,2.071000027688453,0.4260012098719556,B,933.806797984289,Correct,sub_017_day_12_data.csv,1,300,140.0,Training at home,,,,,,,,,,,,,
17,15,3525,B,70.08211787547522,60.335037430355875,3.504105893773761,0.947740551726356,B,925.1205799810124,Correct,sub_017_day_12_data.csv,1,300,141.0,Training at home,,,,,,,,,,,,,
17,15,3526,A,40.43639250968396,66.58568745878969,2.021819625484198,1.0459255327737986,A,1132.5790339906234,Correct,sub_017_day_12_data.csv,1,300,141.0,Training at home,,,,,,,,,,,,,
17,15,3527,A,47.93447915156068,74.9608871058253,2.396723957578034,1.177482861191173,A,1028.431871003704,Correct,sub_017_day_12_data.csv,1,300,141.0,Training at home,,,,,,,,,,,,,
17,15,3528,A,23.064886396673884,37.72181919652034,1.153244319833694,0.5925329503391537,A,394.89545300602913,Correct,sub_017_day_12_data.csv,1,300,141.0,Training at home,,,,,,,,,,,,,
17,15,3529,B,83.61500375611344,66.17162418032963,4.180750187805672,1.0394214420051413,B,508.6934430000838,Correct,sub_017_day_12_data.csv,1,300,141.0,Training at home,,,,,,,,,,,,,
17,15,3530,A,21.995023673773083,41.80146197590206,1.0997511836886542,0.656615829264035,A,413.4999079979025,Correct,sub_017_day_12_data.csv,1,300,141.0,Training at home,,,,,,,,,,,,,
17,15,3531,A,65.37829777297694,81.5729728219635,3.2689148886488466,1.281345260744802,B,440.98108500475064,Incorrect,sub_017_day_12_data.csv,0,300,141.0,Training at home,,,,,,,,,,,,,
17,15,3532,B,40.68124042843913,14.91180631078512,2.0340620214219567,0.2342341057885822,B,805.793175008148,Correct,sub_017_day_12_data.csv,1,300,141.0,Training at home,,,,,,,,,,,,,
17,15,3533,B,42.0423309759813,28.867030630067735,2.1021165487990654,0.4534422567918617,B,550.1682939939201,Correct,sub_017_day_12_data.csv,1,300,141.0,Training at home,,,,,,,,,,,,,
17,15,3534,A,12.524288486635822,38.03080741066787,0.6262144243317911,0.5973865258572123,A,509.92008502362296,Correct,sub_017_day_12_data.csv,1,300,141.0,Training at home,,,,,,,,,,,,,
17,15,3535,B,47.07077103042805,21.051954979128077,2.3535385515214022,0.3306833355306591,B,655.5844550020993,Correct,sub_017_day_12_data.csv,1,300,141.0,Training at home,,,,,,,,,,,,,
17,15,3536,A,32.9509682606178,47.88388553569189,1.64754841303089,0.7521583151213208,A,549.7578729991801,Correct,sub_017_day_12_data.csv,1,300,141.0,Training at home,,,,,,,,,,,,,
17,15,3537,B,38.42085921752782,12.912780856219918,1.921042960876391,0.202833487376577,B,1026.8220930011012,Correct,sub_017_day_12_data.csv,1,300,141.0,Training at home,,,,,,,,,,,,,
17,15,3538,B,83.22953478568661,66.81686877004911,4.16147673928433,1.0495569203192978,B,666.9691139832139,Correct,sub_017_day_12_data.csv,1,300,141.0,Training at home,,,,,,,,,,,,,
17,15,3539,B,38.01180806383739,21.68995314768563,1.9005904031918697,0.3407049873273799,B,433.6366069910582,Correct,sub_017_day_12_data.csv,1,300,141.0,Training at home,,,,,,,,,,,,,
17,15,3540,B,44.402004572892714,30.964588843411967,2.2201002286446356,0.4863906241594575,B,630.1713949942496,Correct,sub_017_day_12_data.csv,1,300,141.0,Training at home,,,,,,,,,,,,,
17,15,3541,B,57.99693741941997,43.536072136533775,2.8998468709709986,0.683863021951449,B,664.860074990429,Correct,sub_017_day_12_data.csv,1,300,141.0,Training at home,,,,,,,,,,,,,
17,15,3542,A,35.70938526884039,54.04811227242888,1.7854692634420195,0.8489857622772945,B,281.3103130029049,Incorrect,sub_017_day_12_data.csv,0,300,141.0,Training at home,,,,,,,,,,,,,
17,15,3543,A,50.98074522215258,79.76640465471684,2.5490372611076286,1.2529677543326454,A,1226.0559780115727,Correct,sub_017_day_12_data.csv,1,300,141.0,Training at home,,,,,,,,,,,,,
17,15,3544,B,51.8006835546209,37.7096920471993,2.590034177731045,0.5923424575230739,B,509.5101780025289,Correct,sub_017_day_12_data.csv,1,300,141.0,Training at home,,,,,,,,,,,,,
17,15,3545,B,79.83188326169201,63.77368049509539,3.991594163084601,1.0017546306788718,B,450.31757501419634,Correct,sub_017_day_12_data.csv,1,300,141.0,Training at home,,,,,,,,,,,,,
17,15,3546,A,31.24289137434724,63.18624771855571,1.5621445687173618,0.9925272582025972,A,407.3051479936112,Correct,sub_017_day_12_data.csv,1,300,141.0,Training at home,,,,,,,,,,,,,
17,15,3547,A,34.84394322670988,47.22631372566757,1.742197161335494,0.7418292012834202,A,905.5966510204598,Correct,sub_017_day_12_data.csv,1,300,141.0,Training at home,,,,,,,,,,,,,
17,15,3548,B,79.2529880478395,64.27207212123628,3.9626494023919743,1.0095833480353462,B,767.0131600170862,Correct,sub_017_day_12_data.csv,1,300,141.0,Training at home,,,,,,,,,,,,,
17,15,3549,A,17.240215451217505,45.79529807690828,0.8620107725608753,0.7193508600368492,A,414.3576940114144,Correct,sub_017_day_12_data.csv,1,300,141.0,Training at home,,,,,,,,,,,,,
17,15,3550,A,26.28063974501873,47.71865607690793,1.3140319872509365,0.7495628968519595,A,457.63322099810466,Correct,sub_017_day_12_data.csv,1,300,142.0,Training at home,,,,,,,,,,,,,
17,15,3551,A,44.65343239351208,67.38335325961317,2.232671619675604,1.0584552378732328,B,329.47957201395184,Incorrect,sub_017_day_12_data.csv,0,300,142.0,Training at home,,,,,,,,,,,,,
17,15,3552,B,67.45001504153025,52.8522643866138,3.3725007520765127,0.8302014276128568,B,569.6487819950562,Correct,sub_017_day_12_data.csv,1,300,142.0,Training at home,,,,,,,,,,,,,
17,15,3553,A,58.16790460564256,84.66895370407661,2.908395230282128,1.3299768147193072,A,588.4295669966377,Correct,sub_017_day_12_data.csv,1,300,142.0,Training at home,,,,,,,,,,,,,
17,15,3554,B,58.03011212872168,26.628581780388423,2.901505606436084,0.4182807844839163,B,459.3731859931722,Correct,sub_017_day_12_data.csv,1,300,142.0,Training at home,,,,,,,,,,,,,
17,15,3555,B,70.96984674222216,41.711113725781786,3.548492337111108,0.6551966422698223,B,396.9247000059113,Correct,sub_017_day_12_data.csv,1,300,142.0,Training at home,,,,,,,,,,,,,
17,15,3556,A,48.637566556737184,60.1061222896424,2.431878327836859,0.9441447611045514,A,528.261443017982,Correct,sub_017_day_12_data.csv,1,300,142.0,Training at home,,,,,,,,,,,,,
17,15,3557,A,51.58044749237954,70.94319617686338,2.579022374618977,1.1143731196570674,B,328.19997999467887,Incorrect,sub_017_day_12_data.csv,0,300,142.0,Training at home,,,,,,,,,,,,,
17,15,3558,A,50.25129194865357,71.24742384606971,2.5125645974326782,1.119151916710054,B,265.8780259953346,Incorrect,sub_017_day_12_data.csv,0,300,142.0,Training at home,,,,,,,,,,,,,
17,15,3559,B,52.653476207931696,23.763502904076265,2.6326738103965845,0.3732762307350286,B,568.2571030047256,Correct,sub_017_day_12_data.csv,1,300,142.0,Training at home,,,,,,,,,,,,,
17,15,3560,B,67.70823919679904,52.023043589884814,3.385411959839952,0.8171760577968186,B,752.7264560048934,Correct,sub_017_day_12_data.csv,1,300,142.0,Training at home,,,,,,,,,,,,,
17,15,3561,A,33.96601724030606,64.04814699756356,1.6983008620153028,1.0060659404179244,A,420.0272260059137,Correct,sub_017_day_12_data.csv,1,300,142.0,Training at home,,,,,,,,,,,,,
17,15,3562,B,75.71967116412137,50.96590704602672,3.785983558206068,0.8005705957966891,B,469.5751459803432,Correct,sub_017_day_12_data.csv,1,300,142.0,Training at home,,,,,,,,,,,,,
17,15,3563,B,57.838841273718685,32.24600577989053,2.891942063685934,0.5065190743285906,B,493.85027601965703,Correct,sub_017_day_12_data.csv,1,300,142.0,Training at home,,,,,,,,,,,,,
17,15,3564,A,37.61146444989073,69.52489348683386,1.8805732224945364,1.0920944730992506,A,437.6912909792736,Correct,sub_017_day_12_data.csv,1,300,142.0,Training at home,,,,,,,,,,,,,
17,15,3565,A,29.69254517964286,58.50433744262149,1.484627258982143,0.9189839835643898,A,317.617301014252,Correct,sub_017_day_12_data.csv,1,300,142.0,Training at home,,,,,,,,,,,,,
17,15,3566,A,19.80368170464928,50.77696006970147,0.990184085232464,0.7976026236329818,B,241.15898401942104,Incorrect,sub_017_day_12_data.csv,0,300,142.0,Training at home,,,,,,,,,,,,,
17,15,3567,B,57.292415556071525,33.97855280723518,2.864620777803576,0.5337338593941144,B,408.16542401444167,Correct,sub_017_day_12_data.csv,1,300,142.0,Training at home,,,,,,,,,,,,,
17,15,3568,A,24.983744380394462,37.320217778853674,1.249187219019723,0.5862246100220894,A,414.4039350212552,Correct,sub_017_day_12_data.csv,1,300,142.0,Training at home,,,,,,,,,,,,,
17,15,3569,A,44.07433222261874,50.919550984123845,2.2037166111309374,0.7998424364790719,A,543.5619449999649,Correct,sub_017_day_12_data.csv,1,300,142.0,Training at home,,,,,,,,,,,,,
17,15,3570,B,62.0237823360854,41.914091068987915,3.10118911680427,0.65838500292113,B,546.7631109931972,Correct,sub_017_day_12_data.csv,1,300,142.0,Training at home,,,,,,,,,,,,,
17,15,3571,A,33.39991824937608,43.537006776300615,1.6699959124688035,0.6838777032385753,A,422.6317380089313,Correct,sub_017_day_12_data.csv,1,300,142.0,Training at home,,,,,,,,,,,,,
17,15,3572,A,25.85428821556993,56.07368217392029,1.2927144107784967,0.8808033398865845,A,506.8015439901501,Correct,sub_017_day_12_data.csv,1,300,142.0,Training at home,,,,,,,,,,,,,
17,15,3573,B,80.69329178227281,50.16007638323825,4.034664589113641,0.7879126373454208,B,583.8419339852408,Correct,sub_017_day_12_data.csv,1,300,142.0,Training at home,,,,,,,,,,,,,
17,15,3574,A,36.441107611558664,68.709259064281,1.8220553805779331,1.0792825175497156,A,460.765200026799,Correct,sub_017_day_12_data.csv,1,300,142.0,Training at home,,,,,,,,,,,,,
17,15,3575,A,49.84766604881822,77.44917431539025,2.4923833024409108,1.2165687852791265,A,438.5097830090672,Correct,sub_017_day_12_data.csv,1,300,143.0,Training at home,,,,,,,,,,,,,
17,15,3576,B,54.82384097444942,44.29025687532061,2.7411920487224712,0.6957097281255602,B,550.776396994479,Correct,sub_017_day_12_data.csv,1,300,143.0,Training at home,,,,,,,,,,,,,
17,15,3577,A,22.4030452211114,41.6722593690734,1.12015226105557,0.6545863194618471,A,539.3752369855065,Correct,sub_017_day_12_data.csv,1,300,143.0,Training at home,,,,,,,,,,,,,
17,15,3578,A,36.975886387109696,48.98057268652717,1.848794319355485,0.769385036603073,A,584.9854539847001,Correct,sub_017_day_12_data.csv,1,300,143.0,Training at home,,,,,,,,,,,,,
17,15,3579,A,49.171750258295795,77.37794833118373,2.45858751291479,1.215449970135487,A,532.7064110024367,Correct,sub_017_day_12_data.csv,1,300,143.0,Training at home,,,,,,,,,,,,,
17,15,3580,B,71.58959722012472,50.89092515216218,3.5794798610062357,0.7993927829621037,B,623.9807670062874,Correct,sub_017_day_12_data.csv,1,300,143.0,Training at home,,,,,,,,,,,,,
17,15,3581,B,57.43569141529935,40.35007939725819,2.8717845707649676,0.633817565030956,B,710.2600839862134,Correct,sub_017_day_12_data.csv,1,300,143.0,Training at home,,,,,,,,,,,,,
17,15,3582,B,80.23913831016819,56.788939861749895,4.011956915508409,0.8920385813741302,B,551.2164999963716,Correct,sub_017_day_12_data.csv,1,300,143.0,Training at home,,,,,,,,,,,,,
17,15,3583,B,49.97666553010896,33.86341697363904,2.498833276505448,0.5319253099491615,B,676.1137030262034,Correct,sub_017_day_12_data.csv,1,300,143.0,Training at home,,,,,,,,,,,,,
17,15,3584,B,75.40126717496001,51.52346171453568,3.7700633587480006,0.8093286440495013,B,315.7700700103305,Correct,sub_017_day_12_data.csv,1,300,143.0,Training at home,,,,,,,,,,,,,
17,15,3585,A,54.72267938326682,84.08201522218769,2.7361339691633413,1.32075720660525,B,258.4129050082993,Incorrect,sub_017_day_12_data.csv,0,300,143.0,Training at home,,,,,,,,,,,,,
17,15,3586,A,38.15435351093557,62.45209232213587,1.9077176755467784,0.980995172202668,A,713.7995999946725,Correct,sub_017_day_12_data.csv,1,300,143.0,Training at home,,,,,,,,,,,,,
17,15,3587,B,57.32335830361865,44.06385190146196,2.8661679151809323,0.6921533671125076,A,2925.162875006208,Incorrect,sub_017_day_12_data.csv,0,300,143.0,Training at home,,,,,,,,,,,,,
17,15,3588,B,46.30795637697516,24.51979922458242,2.315397818848758,0.3851561055572243,A,545.1263860159088,Incorrect,sub_017_day_12_data.csv,0,300,143.0,Training at home,,,,,,,,,,,,,
17,15,3589,A,61.43855372761483,77.8714958895396,3.071927686380741,1.2232025970531268,A,1451.505629986059,Correct,sub_017_day_12_data.csv,1,300,143.0,Training at home,,,,,,,,,,,,,
17,15,3590,B,50.93136671237296,39.02998414934576,2.546568335618648,0.6130815573665536,B,974.5074759994168,Correct,sub_017_day_12_data.csv,1,300,143.0,Training at home,,,,,,,,,,,,,
17,15,3591,B,47.36970189831385,21.510937280950312,2.3684850949156924,0.3378930126683215,B,1959.4331929984037,Correct,sub_017_day_12_data.csv,1,300,143.0,Training at home,,,,,,,,,,,,,
17,15,3592,A,31.417609677645608,51.92300404457663,1.5708804838822803,0.8156046402937752,B,1106.0316929942928,Incorrect,sub_017_day_12_data.csv,0,300,143.0,Training at home,,,,,,,,,,,,,
17,15,3593,B,83.05932027349715,59.67359437711613,4.152966013674858,0.9373506285422264,B,812.2374020167626,Correct,sub_017_day_12_data.csv,1,300,143.0,Training at home,,,,,,,,,,,,,
17,15,3594,B,71.69600790378736,46.6609822072815,3.584800395189368,0.732948994558398,B,1030.57289699791,Correct,sub_017_day_12_data.csv,1,300,143.0,Training at home,,,,,,,,,,,,,
17,15,3595,A,28.36734916779782,41.343742728016075,1.4183674583898909,0.6494259921312087,A,645.9887949749827,Correct,sub_017_day_12_data.csv,1,300,143.0,Training at home,,,,,,,,,,,,,
17,15,3596,B,65.8140166628023,54.9398642290472,3.2907008331401153,0.8629933692559766,B,1103.8924710010178,Correct,sub_017_day_12_data.csv,1,300,143.0,Training at home,,,,,,,,,,,,,
17,15,3597,B,70.87837375914665,37.85991559794715,3.543918687957333,0.5947021635402019,B,689.1049340192694,Correct,sub_017_day_12_data.csv,1,300,143.0,Training at home,,,,,,,,,,,,,
17,15,3598,A,58.97922408110847,69.38798683140602,2.9489612040554234,1.0899439483846525,A,654.0358590136748,Correct,sub_017_day_12_data.csv,1,300,143.0,Training at home,,,,,,,,,,,,,
17,15,3599,A,39.12638172776551,56.314997186743796,1.9563190863882756,0.8845939072440209,A,603.7272440153174,Correct,sub_017_day_12_data.csv,1,300,143.0,Training at home,,,,,,,,,,,,,
