subject,day,trial,cat,x,y,xt,yt,resp,rt,fb,f_name,acc,n_trials,block,session_type,ns_left_digit,ns_right_digit,ns_left_size,ns_right_size,ns_congruent,ns_cue,ns_correct_side,ns_resp,ns_rt,ns_fb,acc_stroop,acc_stroop_mean,resp_key
17,20,4500,A,55.594405979994946,63.03476952243643,2.779720298999747,0.9901478442620604,B,1809.9012919701636,Incorrect,sub_017_day_17_data.csv,0,300,180.0,Training at home,,,,,,,,,,,,,
17,20,4501,A,35.39872925093608,47.180122446165214,1.769936462546804,0.7411036303616977,A,1155.226125032641,Correct,sub_017_day_17_data.csv,1,300,180.0,Training at home,,,,,,,,,,,,,
17,20,4502,A,36.61585517565765,48.62046781777826,1.8307927587828825,0.7637285225521556,A,645.7297920132987,Correct,sub_017_day_17_data.csv,1,300,180.0,Training at home,,,,,,,,,,,,,
17,20,4503,A,62.615339201745144,80.48979069974831,3.130766960087257,1.264330675756547,A,722.8630829486065,Correct,sub_017_day_17_data.csv,1,300,180.0,Training at home,,,,,,,,,,,,,
17,20,4504,B,74.70302474838915,50.006266503046184,3.735151237419458,0.7854965973971163,B,932.9511660034768,Correct,sub_017_day_17_data.csv,1,300,180.0,Training at home,,,,,,,,,,,,,
17,20,4505,A,48.31101555842915,56.17283144441213,2.4155507779214576,0.8823607729855144,A,1029.1789579787292,Correct,sub_017_day_17_data.csv,1,300,180.0,Training at home,,,,,,,,,,,,,
17,20,4506,B,73.83487947904487,43.04776703230819,3.691743973952243,0.6761927433107215,B,619.1261250060052,Correct,sub_017_day_17_data.csv,1,300,180.0,Training at home,,,,,,,,,,,,,
17,20,4507,A,48.50389479044652,68.39305032711042,2.425194739522326,1.0743155223212355,A,572.4694170057774,Correct,sub_017_day_17_data.csv,1,300,180.0,Training at home,,,,,,,,,,,,,
17,20,4508,B,68.75285397111364,41.79994207172618,3.4376426985556816,0.6565919546650694,B,529.3702090275474,Correct,sub_017_day_17_data.csv,1,300,180.0,Training at home,,,,,,,,,,,,,
17,20,4509,A,11.46016353650836,37.27740505575349,0.573008176825418,0.5855521093402309,A,630.4930829792283,Correct,sub_017_day_17_data.csv,1,300,180.0,Training at home,,,,,,,,,,,,,
17,20,4510,B,56.728602788588205,31.45311767263368,2.8364301394294102,0.4940644170642063,B,784.0663749957457,Correct,sub_017_day_17_data.csv,1,300,180.0,Training at home,,,,,,,,,,,,,
17,20,4511,B,87.91199267920658,62.09281667589893,4.395599633960329,0.9753516835485094,B,918.2419590069912,Correct,sub_017_day_17_data.csv,1,300,180.0,Training at home,,,,,,,,,,,,,
17,20,4512,A,29.611580534496305,50.192987077983126,1.4805790267248151,0.7884295973295959,A,838.1673750118352,Correct,sub_017_day_17_data.csv,1,300,180.0,Training at home,,,,,,,,,,,,,
17,20,4513,A,36.502742526321946,66.08524312934071,1.8251371263160976,1.0380645716291603,A,988.9338330249302,Correct,sub_017_day_17_data.csv,1,300,180.0,Training at home,,,,,,,,,,,,,
17,20,4514,A,24.015808296827384,54.35893817101345,1.2007904148413693,0.8538682040749882,A,1081.5945000504144,Correct,sub_017_day_17_data.csv,1,300,180.0,Training at home,,,,,,,,,,,,,
17,20,4515,A,43.04290762699978,68.02093161572637,2.152145381349989,1.0684702952714982,A,639.2566249705851,Correct,sub_017_day_17_data.csv,1,300,180.0,Training at home,,,,,,,,,,,,,
17,20,4516,B,51.01194658993943,25.27959241403588,2.5505973294969717,0.3970909090683969,B,566.1900840350427,Correct,sub_017_day_17_data.csv,1,300,180.0,Training at home,,,,,,,,,,,,,
17,20,4517,B,46.10964518426225,22.31409415822919,2.305482259213113,0.3505089713950187,B,891.107292030938,Correct,sub_017_day_17_data.csv,1,300,180.0,Training at home,,,,,,,,,,,,,
17,20,4518,A,54.030333218657546,68.50174155219548,2.7015166609328776,1.07602284009242,A,1660.5920830043033,Correct,sub_017_day_17_data.csv,1,300,180.0,Training at home,,,,,,,,,,,,,
17,20,4519,A,29.2274690020629,43.104001826326126,1.461373450103145,0.6770760773895359,A,2016.6556669864804,Correct,sub_017_day_17_data.csv,1,300,180.0,Training at home,,,,,,,,,,,,,
17,20,4520,B,83.88451536824479,57.5218290774629,4.19422576841224,0.903550778254026,B,695.4732079757378,Correct,sub_017_day_17_data.csv,1,300,180.0,Training at home,,,,,,,,,,,,,
17,20,4521,A,54.01213461780475,75.6763946517238,2.7006067308902373,1.188722027440087,A,754.9147909739986,Correct,sub_017_day_17_data.csv,1,300,180.0,Training at home,,,,,,,,,,,,,
17,20,4522,B,42.13764275399112,25.869620688644765,2.106882137699556,0.4063590515330046,B,873.3471669838764,Correct,sub_017_day_17_data.csv,1,300,180.0,Training at home,,,,,,,,,,,,,
17,20,4523,B,78.49033049607986,57.599672187172146,3.9245165248039937,0.9047735349620016,B,715.4307919554412,Correct,sub_017_day_17_data.csv,1,300,180.0,Training at home,,,,,,,,,,,,,
17,20,4524,B,45.605564864576834,31.16222276644187,2.2802782432288415,0.4894950505629119,B,1471.522959007416,Correct,sub_017_day_17_data.csv,1,300,180.0,Training at home,,,,,,,,,,,,,
17,20,4525,A,56.88006141785749,67.5254729328721,2.844003070892875,1.060687648480437,A,1203.4455829998478,Correct,sub_017_day_17_data.csv,1,300,181.0,Training at home,,,,,,,,,,,,,
17,20,4526,B,48.955952287642575,25.93943734887276,2.4477976143821287,0.4074557290673568,B,1266.756750002969,Correct,sub_017_day_17_data.csv,1,300,181.0,Training at home,,,,,,,,,,,,,
17,20,4527,B,56.06763485263623,30.968959539794472,2.8033817426318115,0.4864592788976893,B,721.4868330047466,Correct,sub_017_day_17_data.csv,1,300,181.0,Training at home,,,,,,,,,,,,,
17,20,4528,B,33.588079683591076,19.58703137162672,1.6794039841795538,0.3076723693136766,B,916.6560840094462,Correct,sub_017_day_17_data.csv,1,300,181.0,Training at home,,,,,,,,,,,,,
17,20,4529,B,55.54637638094261,38.85115252879708,2.7773188190471303,0.6102724768398271,B,969.30745895952,Correct,sub_017_day_17_data.csv,1,300,181.0,Training at home,,,,,,,,,,,,,
17,20,4530,A,15.042464885213867,35.0602545322276,0.7521232442606933,0.5507251903571725,A,888.4125000331551,Correct,sub_017_day_17_data.csv,1,300,181.0,Training at home,,,,,,,,,,,,,
17,20,4531,A,42.189544891845266,71.16648663847116,2.1094772445922634,1.1178805580260858,A,903.839791950304,Correct,sub_017_day_17_data.csv,1,300,181.0,Training at home,,,,,,,,,,,,,
17,20,4532,B,59.4051584481673,43.338571616105504,2.970257922408365,0.680760691031161,B,1629.5776250190102,Correct,sub_017_day_17_data.csv,1,300,181.0,Training at home,,,,,,,,,,,,,
17,20,4533,B,46.47660186902621,19.942371927667978,2.3238300934513108,0.3132540457155851,B,690.8624999923632,Correct,sub_017_day_17_data.csv,1,300,181.0,Training at home,,,,,,,,,,,,,
17,20,4534,B,82.83046421391283,52.98465303848225,4.141523210695642,0.8322809836934997,B,571.5273339883424,Correct,sub_017_day_17_data.csv,1,300,181.0,Training at home,,,,,,,,,,,,,
17,20,4535,A,36.14883249409634,53.638591740341035,1.8074416247048168,0.8425530288017877,A,923.0753749725408,Correct,sub_017_day_17_data.csv,1,300,181.0,Training at home,,,,,,,,,,,,,
17,20,4536,B,34.779428360459534,13.773020933289573,1.7389714180229765,0.2163461069088048,B,729.8246669815853,Correct,sub_017_day_17_data.csv,1,300,181.0,Training at home,,,,,,,,,,,,,
17,20,4537,A,58.063234148255034,71.0261773534946,2.903161707412752,1.115676584931522,A,572.1468339907005,Correct,sub_017_day_17_data.csv,1,300,181.0,Training at home,,,,,,,,,,,,,
17,20,4538,B,59.30889337604506,30.55159746702565,2.965444668802253,0.4799033707892016,B,840.3414170024917,Correct,sub_017_day_17_data.csv,1,300,181.0,Training at home,,,,,,,,,,,,,
17,20,4539,B,50.019519243863485,25.828180408595145,2.5009759621931744,0.4057081091361716,B,1536.8687909794971,Correct,sub_017_day_17_data.csv,1,300,181.0,Training at home,,,,,,,,,,,,,
17,20,4540,A,56.68050773462636,68.97979941753746,2.834025386731318,1.083532155481166,A,1010.1816669921392,Correct,sub_017_day_17_data.csv,1,300,181.0,Training at home,,,,,,,,,,,,,
17,20,4541,B,56.85431715828714,46.44554758961924,2.842715857914357,0.7295649554975145,A,1816.3557079969903,Incorrect,sub_017_day_17_data.csv,0,300,181.0,Training at home,,,,,,,,,,,,,
17,20,4542,B,75.34316919403568,45.41988552520024,3.767158459701784,0.7134538934642923,B,1594.4863749900833,Correct,sub_017_day_17_data.csv,1,300,181.0,Training at home,,,,,,,,,,,,,
17,20,4543,A,18.886470621199766,34.7360005074713,0.9443235310599882,0.5456318200468159,A,569.6829170337878,Correct,sub_017_day_17_data.csv,1,300,181.0,Training at home,,,,,,,,,,,,,
17,20,4544,A,32.509194138775435,61.00092776936229,1.6254597069387715,0.9582003327119508,A,784.6395000233315,Correct,sub_017_day_17_data.csv,1,300,181.0,Training at home,,,,,,,,,,,,,
17,20,4545,A,33.348574959931085,50.0634857419908,1.6674287479965542,0.7863953951006782,A,566.7061250424013,Correct,sub_017_day_17_data.csv,1,300,181.0,Training at home,,,,,,,,,,,,,
17,20,4546,B,64.5927494286288,40.08252046065002,3.22963747143144,0.6296147590827033,B,764.3347500124946,Correct,sub_017_day_17_data.csv,1,300,181.0,Training at home,,,,,,,,,,,,,
17,20,4547,B,81.63811663308022,54.90415413076591,4.081905831654011,0.8624324363438794,B,1179.9122910015285,Correct,sub_017_day_17_data.csv,1,300,181.0,Training at home,,,,,,,,,,,,,
17,20,4548,B,67.94920441074832,58.290804078508856,3.3974602205374165,0.9156298093244268,B,1017.5178329809568,Correct,sub_017_day_17_data.csv,1,300,181.0,Training at home,,,,,,,,,,,,,
17,20,4549,B,46.28289861161968,20.211561538783496,2.314144930580984,0.3174824662391012,B,1141.0782089806162,Correct,sub_017_day_17_data.csv,1,300,181.0,Training at home,,,,,,,,,,,,,
17,20,4550,B,44.10079260404754,31.936678649196843,2.205039630202377,0.501660175121874,B,641.9086669920944,Correct,sub_017_day_17_data.csv,1,300,182.0,Training at home,,,,,,,,,,,,,
17,20,4551,B,39.429125062389915,13.50695128478714,1.9714562531194957,0.2121666946434124,B,1037.6983340247534,Correct,sub_017_day_17_data.csv,1,300,182.0,Training at home,,,,,,,,,,,,,
17,20,4552,B,42.38231454627015,30.162264101228708,2.1191157273135075,0.4737877365802762,B,1656.6140840295702,Correct,sub_017_day_17_data.csv,1,300,182.0,Training at home,,,,,,,,,,,,,
17,20,4553,A,19.458399323526,39.48907163403743,0.9729199661763,0.6202928867128653,A,739.6032910328358,Correct,sub_017_day_17_data.csv,1,300,182.0,Training at home,,,,,,,,,,,,,
17,20,4554,B,77.2014743090408,54.65706987609681,3.86007371545204,0.8585512459474487,B,908.8284579920582,Correct,sub_017_day_17_data.csv,1,300,182.0,Training at home,,,,,,,,,,,,,
17,20,4555,A,50.27307355957786,77.61984928276958,2.5136536779788927,1.2192497413974794,A,761.295665986836,Correct,sub_017_day_17_data.csv,1,300,182.0,Training at home,,,,,,,,,,,,,
17,20,4556,A,59.06182832961293,83.4717778015298,2.9530914164806465,1.311171619616828,A,865.8639169880189,Correct,sub_017_day_17_data.csv,1,300,182.0,Training at home,,,,,,,,,,,,,
17,20,4557,A,46.76248809334639,77.95419939970168,2.3381244046673197,1.2245017007528836,A,675.693458004389,Correct,sub_017_day_17_data.csv,1,300,182.0,Training at home,,,,,,,,,,,,,
17,20,4558,A,56.453319136713674,65.88775153919146,2.822665956835684,1.0349623809853672,A,1568.204541981686,Correct,sub_017_day_17_data.csv,1,300,182.0,Training at home,,,,,,,,,,,,,
17,20,4559,B,61.59222580992222,53.795214381733146,3.079611290496111,0.8450132514997042,A,2419.9066250002943,Incorrect,sub_017_day_17_data.csv,0,300,182.0,Training at home,,,,,,,,,,,,,
17,20,4560,A,29.171423062691424,58.60272626225743,1.458571153134571,0.920529471529208,A,912.2314999694936,Correct,sub_017_day_17_data.csv,1,300,182.0,Training at home,,,,,,,,,,,,,
17,20,4561,B,82.87718311686349,55.600852626040925,4.143859155843175,0.8733761507164947,B,700.013708032202,Correct,sub_017_day_17_data.csv,1,300,182.0,Training at home,,,,,,,,,,,,,
17,20,4562,B,43.843295793124256,19.252163449541136,2.1921647896562124,0.3024122762939418,B,1159.4672499923036,Correct,sub_017_day_17_data.csv,1,300,182.0,Training at home,,,,,,,,,,,,,
17,20,4563,B,73.03094866721781,61.54410447212836,3.6515474333608906,0.966732532407006,B,1240.882291982416,Correct,sub_017_day_17_data.csv,1,300,182.0,Training at home,,,,,,,,,,,,,
17,20,4564,A,38.69752515720365,51.19483322697115,1.9348762578601824,0.8041665598380362,A,848.1292080250569,Correct,sub_017_day_17_data.csv,1,300,182.0,Training at home,,,,,,,,,,,,,
17,20,4565,A,47.27482623252929,62.82634627533184,2.3637413116264643,0.9868739395523548,A,758.6532920249738,Correct,sub_017_day_17_data.csv,1,300,182.0,Training at home,,,,,,,,,,,,,
17,20,4566,B,64.37072819281711,43.9298045867052,3.2185364096408557,0.6900477568161413,B,940.6441670143976,Correct,sub_017_day_17_data.csv,1,300,182.0,Training at home,,,,,,,,,,,,,
17,20,4567,B,89.49365785140556,65.44604550232798,4.474682892570278,1.0280240787830843,B,1070.330832968466,Correct,sub_017_day_17_data.csv,1,300,182.0,Training at home,,,,,,,,,,,,,
17,20,4568,A,54.9184359400639,63.20870972475493,2.745921797003195,0.9928800905708992,A,1524.0168750169687,Correct,sub_017_day_17_data.csv,1,300,182.0,Training at home,,,,,,,,,,,,,
17,20,4569,B,34.91010725874511,23.560085920923964,1.7455053629372554,0.3700809642355951,B,1111.1281249905005,Correct,sub_017_day_17_data.csv,1,300,182.0,Training at home,,,,,,,,,,,,,
17,20,4570,B,34.77303467944758,23.412712496313866,1.7386517339723793,0.3677660278951479,B,837.0139170438051,Correct,sub_017_day_17_data.csv,1,300,182.0,Training at home,,,,,,,,,,,,,
17,20,4571,A,25.22381618965374,57.2332549755359,1.2611908094826871,0.8990178668608754,A,826.552625047043,Correct,sub_017_day_17_data.csv,1,300,182.0,Training at home,,,,,,,,,,,,,
17,20,4572,B,70.97738208456872,61.108971057945894,3.548869104228436,0.9598974727203706,B,1155.5027079884894,Correct,sub_017_day_17_data.csv,1,300,182.0,Training at home,,,,,,,,,,,,,
17,20,4573,B,49.29267046634507,22.73047328380209,2.4646335233172536,0.3570494394050585,B,608.358290977776,Correct,sub_017_day_17_data.csv,1,300,182.0,Training at home,,,,,,,,,,,,,
17,20,4574,A,36.8098016634607,68.70878756652657,1.840490083173035,1.0792751112803078,A,1435.9249590197578,Correct,sub_017_day_17_data.csv,1,300,182.0,Training at home,,,,,,,,,,,,,
17,20,4575,A,45.09245935594896,58.069393472548995,2.254622967797448,0.9121518996588752,A,1082.5045420206152,Correct,sub_017_day_17_data.csv,1,300,183.0,Training at home,,,,,,,,,,,,,
17,20,4576,A,28.035926934599935,45.23999307542345,1.4017963467299968,0.710628149471017,A,1153.837957943324,Correct,sub_017_day_17_data.csv,1,300,183.0,Training at home,,,,,,,,,,,,,
17,20,4577,A,36.42892555671738,44.48131565136389,1.821446277835869,0.6987108723616674,A,973.8801670027896,Correct,sub_017_day_17_data.csv,1,300,183.0,Training at home,,,,,,,,,,,,,
17,20,4578,A,46.64567254631925,73.10902533707161,2.332283627315962,1.148393884550271,A,642.8268749732524,Correct,sub_017_day_17_data.csv,1,300,183.0,Training at home,,,,,,,,,,,,,
17,20,4579,B,41.24604206716334,16.16649151481006,2.0623021033581668,0.253942654886245,B,676.3468750286847,Correct,sub_017_day_17_data.csv,1,300,183.0,Training at home,,,,,,,,,,,,,
17,20,4580,A,39.37638938725195,48.35877684343972,1.968819469362597,0.7596178903396922,A,643.1195409968495,Correct,sub_017_day_17_data.csv,1,300,183.0,Training at home,,,,,,,,,,,,,
17,20,4581,B,38.67786027680744,12.781600298618454,1.9338930138403725,0.2007729079963041,B,626.0789589723572,Correct,sub_017_day_17_data.csv,1,300,183.0,Training at home,,,,,,,,,,,,,
17,20,4582,B,37.38990346743354,22.950982934429305,1.8694951733716771,0.360513196897339,B,717.1527090249583,Correct,sub_017_day_17_data.csv,1,300,183.0,Training at home,,,,,,,,,,,,,
17,20,4583,A,48.54285924386333,67.97686724106497,2.427142962193167,1.0677781336928918,A,732.0694589870982,Correct,sub_017_day_17_data.csv,1,300,183.0,Training at home,,,,,,,,,,,,,
17,20,4584,B,60.35065657975685,48.81731846031427,3.017532828987843,0.7668206452143836,B,1045.4781660228036,Correct,sub_017_day_17_data.csv,1,300,183.0,Training at home,,,,,,,,,,,,,
17,20,4585,A,55.69391703100227,77.240394657438,2.7846958515501137,1.2132892820809178,A,815.2872080099769,Correct,sub_017_day_17_data.csv,1,300,183.0,Training at home,,,,,,,,,,,,,
17,20,4586,B,84.33835035605588,65.32847513679202,4.216917517802795,1.0261772877998463,B,1035.888499987777,Correct,sub_017_day_17_data.csv,1,300,183.0,Training at home,,,,,,,,,,,,,
17,20,4587,B,61.002714805798135,27.90204157116458,3.0501357402899067,0.4382842441006382,B,688.4454590035602,Correct,sub_017_day_17_data.csv,1,300,183.0,Training at home,,,,,,,,,,,,,
17,20,4588,A,36.75597047974949,59.64966923184552,1.8377985239874743,0.9369748132391352,A,650.3497500088997,Correct,sub_017_day_17_data.csv,1,300,183.0,Training at home,,,,,,,,,,,,,
17,20,4589,A,17.977554683144533,39.31847169919507,0.8988777341572266,0.6176131092028472,A,765.1264590094797,Correct,sub_017_day_17_data.csv,1,300,183.0,Training at home,,,,,,,,,,,,,
17,20,4590,B,73.11458615896339,45.20872919802396,3.6557293079481696,0.7101370576332123,B,1211.4848340279425,Correct,sub_017_day_17_data.csv,1,300,183.0,Training at home,,,,,,,,,,,,,
17,20,4591,B,80.74708394469043,50.02386623838875,4.037354197234522,0.785773053393403,B,861.2452080124058,Correct,sub_017_day_17_data.csv,1,300,183.0,Training at home,,,,,,,,,,,,,
17,20,4592,A,38.0338332639786,46.75240514611092,1.90169166319893,0.7343850627233786,A,735.325040994212,Correct,sub_017_day_17_data.csv,1,300,183.0,Training at home,,,,,,,,,,,,,
17,20,4593,B,53.68496163802162,40.111455374886965,2.6842480819010808,0.6300692676526987,B,1296.9545830274,Correct,sub_017_day_17_data.csv,1,300,183.0,Training at home,,,,,,,,,,,,,
17,20,4594,B,59.73466716939557,31.313948399114125,2.986733358469778,0.4918783512277339,B,673.0137080303393,Correct,sub_017_day_17_data.csv,1,300,183.0,Training at home,,,,,,,,,,,,,
17,20,4595,B,70.49735563248916,43.88223418196004,3.5248677816244585,0.6893005226457627,B,916.8325420469046,Correct,sub_017_day_17_data.csv,1,300,183.0,Training at home,,,,,,,,,,,,,
17,20,4596,A,23.994104830038527,45.40768858971928,1.1997052415019265,0.7132623044497758,A,1729.5788750052452,Correct,sub_017_day_17_data.csv,1,300,183.0,Training at home,,,,,,,,,,,,,
17,20,4597,A,21.8090454225632,42.93201799455532,1.09045227112816,0.6743745616773991,A,563.2827910012566,Correct,sub_017_day_17_data.csv,1,300,183.0,Training at home,,,,,,,,,,,,,
17,20,4598,A,12.54083820744497,31.546213830797765,0.6270419103722485,0.495526768097035,A,737.5920839840546,Correct,sub_017_day_17_data.csv,1,300,183.0,Training at home,,,,,,,,,,,,,
17,20,4599,A,57.07690044122508,81.1088559689354,2.853845022061254,1.2740549302654005,A,898.0272500193678,Correct,sub_017_day_17_data.csv,1,300,183.0,Training at home,,,,,,,,,,,,,
17,20,4600,A,42.101149968686464,53.33309846234073,2.105057498434323,0.8377543516123537,A,994.8536250158212,Correct,sub_017_day_17_data.csv,1,300,184.0,Training at home,,,,,,,,,,,,,
17,20,4601,B,63.057458436560744,34.36922259430417,3.152872921828037,0.5398704860592916,B,585.2029999950901,Correct,sub_017_day_17_data.csv,1,300,184.0,Training at home,,,,,,,,,,,,,
17,20,4602,B,82.21639835575468,52.88779414019454,4.110819917787734,0.8307595276770224,B,873.2532919966616,Correct,sub_017_day_17_data.csv,1,300,184.0,Training at home,,,,,,,,,,,,,
17,20,4603,A,54.877763504091995,69.68980239570364,2.7438881752045994,1.0946848561823346,A,807.5846249703318,Correct,sub_017_day_17_data.csv,1,300,184.0,Training at home,,,,,,,,,,,,,
17,20,4604,B,46.63442185498224,27.029827468900592,2.331721092749112,0.4245835370204885,B,912.913334032055,Correct,sub_017_day_17_data.csv,1,300,184.0,Training at home,,,,,,,,,,,,,
17,20,4605,A,26.504665187648765,44.57522712494728,1.3252332593824383,0.7001860303391542,A,862.6217080163769,Correct,sub_017_day_17_data.csv,1,300,184.0,Training at home,,,,,,,,,,,,,
17,20,4606,A,29.780355953071385,53.91701657880971,1.4890177976535697,0.8469265159373384,A,808.0475419992581,Correct,sub_017_day_17_data.csv,1,300,184.0,Training at home,,,,,,,,,,,,,
17,20,4607,A,47.10408078375288,66.89075946217683,2.355204039187644,1.0507175925970833,A,993.6756670358592,Correct,sub_017_day_17_data.csv,1,300,184.0,Training at home,,,,,,,,,,,,,
17,20,4608,B,52.71254006689463,29.231418528266424,2.6356270033447315,0.4591660485120518,B,782.7017920208164,Correct,sub_017_day_17_data.csv,1,300,184.0,Training at home,,,,,,,,,,,,,
17,20,4609,A,44.794769094632606,75.13077502629314,2.2397384547316306,1.18015145440555,A,993.7057080096564,Correct,sub_017_day_17_data.csv,1,300,184.0,Training at home,,,,,,,,,,,,,
17,20,4610,B,61.4597199019731,44.087909879246,3.0729859950986556,0.6925312689438405,B,2443.650125002023,Correct,sub_017_day_17_data.csv,1,300,184.0,Training at home,,,,,,,,,,,,,
17,20,4611,B,52.17837850160167,36.70442504135948,2.6089189250800837,0.5765517603208609,B,1143.3096660184674,Correct,sub_017_day_17_data.csv,1,300,184.0,Training at home,,,,,,,,,,,,,
17,20,4612,A,38.07462365341927,62.82551313481579,1.903731182670964,0.9868608526117316,A,839.1831670305692,Correct,sub_017_day_17_data.csv,1,300,184.0,Training at home,,,,,,,,,,,,,
17,20,4613,A,66.14708456749072,82.66037655341383,3.307354228374536,1.2984261586158543,A,950.4360419814476,Correct,sub_017_day_17_data.csv,1,300,184.0,Training at home,,,,,,,,,,,,,
17,20,4614,B,76.54311359515037,49.48852580630163,3.8271556797575186,0.7773639455503305,B,997.0212500193156,Correct,sub_017_day_17_data.csv,1,300,184.0,Training at home,,,,,,,,,,,,,
17,20,4615,B,46.08664678512221,36.95649649478169,2.304332339256111,0.5805112894521155,B,1512.7165419980884,Correct,sub_017_day_17_data.csv,1,300,184.0,Training at home,,,,,,,,,,,,,
17,20,4616,A,14.416565135327208,40.49448167409625,0.7208282567663603,0.6360858306913364,A,552.1385000320151,Correct,sub_017_day_17_data.csv,1,300,184.0,Training at home,,,,,,,,,,,,,
17,20,4617,B,44.44630899722888,33.54305061332842,2.222315449861444,0.5268930069291158,B,899.7238329611719,Correct,sub_017_day_17_data.csv,1,300,184.0,Training at home,,,,,,,,,,,,,
17,20,4618,A,34.391784737867326,63.90752832549084,1.7195892368933663,1.0038571074822182,A,917.7696669939904,Correct,sub_017_day_17_data.csv,1,300,184.0,Training at home,,,,,,,,,,,,,
17,20,4619,A,25.23801683017082,42.45959406240016,1.261900841508541,0.6669537439042057,A,638.5642919922248,Correct,sub_017_day_17_data.csv,1,300,184.0,Training at home,,,,,,,,,,,,,
17,20,4620,A,26.682417000708448,56.53319736065274,1.3341208500354225,0.8880213875608427,A,544.1572499694303,Correct,sub_017_day_17_data.csv,1,300,184.0,Training at home,,,,,,,,,,,,,
17,20,4621,B,66.7279094853319,56.521539271222,3.3363954742665953,0.8878382627202902,B,1258.519458991941,Correct,sub_017_day_17_data.csv,1,300,184.0,Training at home,,,,,,,,,,,,,
17,20,4622,B,85.85158387918297,57.12060102546411,4.292579193959148,0.8972483027511583,B,750.8577080443501,Correct,sub_017_day_17_data.csv,1,300,184.0,Training at home,,,,,,,,,,,,,
17,20,4623,A,65.47774536347934,83.4000720073574,3.2738872681739672,1.3100452676358687,A,796.1440840153955,Correct,sub_017_day_17_data.csv,1,300,184.0,Training at home,,,,,,,,,,,,,
17,20,4624,B,76.66393833804594,58.441372779445416,3.833196916902297,0.9179949369480412,B,1165.7822080305775,Correct,sub_017_day_17_data.csv,1,300,184.0,Training at home,,,,,,,,,,,,,
17,20,4625,A,47.04603065325092,69.00440330910708,2.352301532662546,1.08391863250619,A,621.8654999975115,Correct,sub_017_day_17_data.csv,1,300,185.0,Training at home,,,,,,,,,,,,,
17,20,4626,B,56.25207679497501,31.43643018056874,2.8126038397487503,0.493802290551816,B,851.0560839786194,Correct,sub_017_day_17_data.csv,1,300,185.0,Training at home,,,,,,,,,,,,,
17,20,4627,B,48.33937170914623,29.86839931251462,2.4169685854573113,0.4691717192734117,B,860.6663329992443,Correct,sub_017_day_17_data.csv,1,300,185.0,Training at home,,,,,,,,,,,,,
17,20,4628,A,38.23530421585052,46.549943929225435,1.911765210792526,0.7312048093653571,A,2072.39954196848,Correct,sub_017_day_17_data.csv,1,300,185.0,Training at home,,,,,,,,,,,,,
17,20,4629,B,76.59469106062336,59.466835247128415,3.829734553031168,0.9341028637230662,B,976.6269159736112,Correct,sub_017_day_17_data.csv,1,300,185.0,Training at home,,,,,,,,,,,,,
17,20,4630,B,71.58691656829122,47.86529457073706,3.5793458284145605,0.7518662889266949,B,1258.2841250114143,Correct,sub_017_day_17_data.csv,1,300,185.0,Training at home,,,,,,,,,,,,,
17,20,4631,B,86.06907341030033,67.30197353268058,4.303453670515017,1.05717692811182,B,1757.162916008383,Correct,sub_017_day_17_data.csv,1,300,185.0,Training at home,,,,,,,,,,,,,
17,20,4632,A,60.40467423668918,79.16344603942977,3.020233711834459,1.243496502551623,A,914.3971249577588,Correct,sub_017_day_17_data.csv,1,300,185.0,Training at home,,,,,,,,,,,,,
17,20,4633,A,31.44087224585988,57.596648114435354,1.572043612292994,0.9047260329385326,A,721.0634999792092,Correct,sub_017_day_17_data.csv,1,300,185.0,Training at home,,,,,,,,,,,,,
17,20,4634,A,53.38657273635067,70.00124988665102,2.6693286368175335,1.099577061930031,A,2066.995417000726,Correct,sub_017_day_17_data.csv,1,300,185.0,Training at home,,,,,,,,,,,,,
17,20,4635,A,43.9060574435921,53.019159586734155,2.195302872179605,0.8328230112859444,A,1437.3419170151465,Correct,sub_017_day_17_data.csv,1,300,185.0,Training at home,,,,,,,,,,,,,
17,20,4636,B,45.62394153429925,26.28135703120001,2.2811970767149625,0.412826590877942,B,2185.3216669987887,Correct,sub_017_day_17_data.csv,1,300,185.0,Training at home,,,,,,,,,,,,,
17,20,4637,B,39.321419274901515,25.311544308126987,1.966070963745076,0.3975928082471214,B,1038.6740420362912,Correct,sub_017_day_17_data.csv,1,300,185.0,Training at home,,,,,,,,,,,,,
17,20,4638,B,64.00452970183588,33.0303763841585,3.2002264850917936,0.5188399389688907,B,2328.5304580349475,Correct,sub_017_day_17_data.csv,1,300,185.0,Training at home,,,,,,,,,,,,,
17,20,4639,B,53.61075961725613,46.13983707184252,2.6805379808628067,0.7247628659136522,B,1814.7242499981076,Correct,sub_017_day_17_data.csv,1,300,185.0,Training at home,,,,,,,,,,,,,
17,20,4640,B,36.73380672384983,19.531044303580742,1.8366903361924916,0.3067929265053302,B,582.1654580067843,Correct,sub_017_day_17_data.csv,1,300,185.0,Training at home,,,,,,,,,,,,,
17,20,4641,A,58.173644965422305,75.93852394916644,2.908682248271115,1.1928395448157694,A,585.8295000507496,Correct,sub_017_day_17_data.csv,1,300,185.0,Training at home,,,,,,,,,,,,,
17,20,4642,B,46.710097575785994,37.70716743730505,2.3355048787893,0.5923028010435891,B,1161.2085420056246,Correct,sub_017_day_17_data.csv,1,300,185.0,Training at home,,,,,,,,,,,,,
17,20,4643,B,39.94738234722198,20.71578070212335,1.997369117361099,0.3254027223358396,B,1404.656249971595,Correct,sub_017_day_17_data.csv,1,300,185.0,Training at home,,,,,,,,,,,,,
17,20,4644,B,51.48481888799258,20.526183549260693,2.5742409443996292,0.3224245372229653,B,1073.3786250348203,Correct,sub_017_day_17_data.csv,1,300,185.0,Training at home,,,,,,,,,,,,,
17,20,4645,B,81.94888919871921,59.06238396258478,4.097444459935961,0.9277497578017798,B,1080.9053750126625,Correct,sub_017_day_17_data.csv,1,300,185.0,Training at home,,,,,,,,,,,,,
17,20,4646,A,58.574251149931825,73.45375480118122,2.928712557496591,1.1538088823098849,A,680.1642499631271,Correct,sub_017_day_17_data.csv,1,300,185.0,Training at home,,,,,,,,,,,,,
17,20,4647,A,55.989402226656594,67.47872763964887,2.7994701113328295,1.059953375131537,A,1149.5135419536382,Correct,sub_017_day_17_data.csv,1,300,185.0,Training at home,,,,,,,,,,,,,
17,20,4648,B,44.045656289127734,31.091239052983237,2.202282814456387,0.488380040999281,B,2594.535666983574,Correct,sub_017_day_17_data.csv,1,300,185.0,Training at home,,,,,,,,,,,,,
17,20,4649,A,47.54127563900881,70.74809686295202,2.3770637819504405,1.1113085068005455,A,1094.231957977172,Correct,sub_017_day_17_data.csv,1,300,185.0,Training at home,,,,,,,,,,,,,
17,20,4650,B,86.86991818732199,63.270219513347,4.3434959093661,0.9938462840707224,B,1553.3677079947663,Correct,sub_017_day_17_data.csv,1,300,186.0,Training at home,,,,,,,,,,,,,
17,20,4651,A,48.53816335255544,77.2801172764473,2.426908167627772,1.2139132435212223,A,848.9068750059232,Correct,sub_017_day_17_data.csv,1,300,186.0,Training at home,,,,,,,,,,,,,
17,20,4652,B,82.84657741165758,58.36650795184234,4.142328870582879,0.9168189629859904,B,763.7085830210708,Correct,sub_017_day_17_data.csv,1,300,186.0,Training at home,,,,,,,,,,,,,
17,20,4653,A,20.601918699523857,46.64183959778356,1.030095934976193,0.7326483031515516,A,672.4907910102047,Correct,sub_017_day_17_data.csv,1,300,186.0,Training at home,,,,,,,,,,,,,
17,20,4654,A,31.81510144527476,64.20734597306858,1.5907550722637378,1.0085666320774522,A,1326.5538749983534,Correct,sub_017_day_17_data.csv,1,300,186.0,Training at home,,,,,,,,,,,,,
17,20,4655,B,77.48240260210439,55.03562049374657,3.874120130105219,0.8644975051445504,B,809.6567910397425,Correct,sub_017_day_17_data.csv,1,300,186.0,Training at home,,,,,,,,,,,,,
17,20,4656,A,13.011874878865113,35.53695817108739,0.6505937439432556,0.5582132336060796,A,671.1259169969708,Correct,sub_017_day_17_data.csv,1,300,186.0,Training at home,,,,,,,,,,,,,
17,20,4657,A,26.169319690426548,54.48257348110744,1.3084659845213276,0.8558102629845662,A,1021.0413750028238,Correct,sub_017_day_17_data.csv,1,300,186.0,Training at home,,,,,,,,,,,,,
17,20,4658,A,20.362317276237057,37.53391069810591,1.018115863811853,0.5895812905483244,A,630.7759169721976,Correct,sub_017_day_17_data.csv,1,300,186.0,Training at home,,,,,,,,,,,,,
17,20,4659,A,57.087517428778376,65.72293455782739,2.854375871438919,1.032373441896166,A,794.0033330232836,Correct,sub_017_day_17_data.csv,1,300,186.0,Training at home,,,,,,,,,,,,,
17,20,4660,A,46.48199419295868,68.75141040681159,2.3240997096479337,1.0799446292898809,A,966.4766670321114,Correct,sub_017_day_17_data.csv,1,300,186.0,Training at home,,,,,,,,,,,,,
17,20,4661,B,77.71913759912219,58.824880877942185,3.8859568799561095,0.9240190680721894,B,975.7933340151794,Correct,sub_017_day_17_data.csv,1,300,186.0,Training at home,,,,,,,,,,,,,
17,20,4662,B,61.24501957112362,51.56873442749073,3.062250978556181,0.8100397861616396,B,1523.0972500285134,Correct,sub_017_day_17_data.csv,1,300,186.0,Training at home,,,,,,,,,,,,,
17,20,4663,B,73.11012745528191,62.52858807330606,3.655506372764096,0.9821967646522032,B,1117.181624984369,Correct,sub_017_day_17_data.csv,1,300,186.0,Training at home,,,,,,,,,,,,,
17,20,4664,B,42.23319672773275,17.828925478739293,2.1116598363866372,0.2800561065270363,B,983.3643329911864,Correct,sub_017_day_17_data.csv,1,300,186.0,Training at home,,,,,,,,,,,,,
17,20,4665,A,29.030082159938942,39.950100925449334,1.4515041079969473,0.6275347178878122,A,782.7193750417791,Correct,sub_017_day_17_data.csv,1,300,186.0,Training at home,,,,,,,,,,,,,
17,20,4666,A,60.27629159829897,80.01211277615688,3.013814579914948,1.2568273284788625,A,625.6954169948585,Correct,sub_017_day_17_data.csv,1,300,186.0,Training at home,,,,,,,,,,,,,
17,20,4667,A,24.987107678154864,51.03275459582285,1.2493553839077434,0.8016206346534392,A,897.4739160039462,Correct,sub_017_day_17_data.csv,1,300,186.0,Training at home,,,,,,,,,,,,,
17,20,4668,A,42.39958045119436,67.4852903611964,2.119979022559718,1.0600564621205435,A,2045.916917035356,Correct,sub_017_day_17_data.csv,1,300,186.0,Training at home,,,,,,,,,,,,,
17,20,4669,B,62.104003448967674,34.15424910851162,3.1052001724483835,0.5364936904408792,B,925.4865829716437,Correct,sub_017_day_17_data.csv,1,300,186.0,Training at home,,,,,,,,,,,,,
17,20,4670,B,53.51729756175884,21.63942657742829,2.6758648780879417,0.3399113178177221,B,776.459833025001,Correct,sub_017_day_17_data.csv,1,300,186.0,Training at home,,,,,,,,,,,,,
17,20,4671,A,52.892276931432,79.20652846758247,2.6446138465716,1.2441732397505396,A,693.7112089945003,Correct,sub_017_day_17_data.csv,1,300,186.0,Training at home,,,,,,,,,,,,,
17,20,4672,A,48.080855261306795,66.26062881013821,2.40404276306534,1.0408195234608522,A,2188.085792004131,Correct,sub_017_day_17_data.csv,1,300,186.0,Training at home,,,,,,,,,,,,,
17,20,4673,A,41.16904278641997,71.27321098684956,2.0584521393209987,1.1195569801702094,A,839.8637080099434,Correct,sub_017_day_17_data.csv,1,300,186.0,Training at home,,,,,,,,,,,,,
17,20,4674,A,47.38542503927215,55.82050791091515,2.3692712519636077,0.8768264878629098,A,1566.1448749597184,Correct,sub_017_day_17_data.csv,1,300,186.0,Training at home,,,,,,,,,,,,,
17,20,4675,A,15.303629306351766,34.70616530128579,0.7651814653175883,0.5451631697239622,A,938.7335000210442,Correct,sub_017_day_17_data.csv,1,300,187.0,Training at home,,,,,,,,,,,,,
17,20,4676,B,42.95134231913485,28.154602699765995,2.1475671159567424,0.442251465031621,B,966.2377920467408,Correct,sub_017_day_17_data.csv,1,300,187.0,Training at home,,,,,,,,,,,,,
17,20,4677,A,22.46319746476791,51.73968865493931,1.1231598732383956,0.8127251288869025,A,1316.620374971535,Correct,sub_017_day_17_data.csv,1,300,187.0,Training at home,,,,,,,,,,,,,
17,20,4678,A,29.69574033564063,42.477785760454935,1.4847870167820316,0.6672394984290317,A,761.6125000058673,Correct,sub_017_day_17_data.csv,1,300,187.0,Training at home,,,,,,,,,,,,,
17,20,4679,A,44.388618024718305,73.2509918129447,2.2194309012359152,1.1506238887385658,A,895.8301669918001,Correct,sub_017_day_17_data.csv,1,300,187.0,Training at home,,,,,,,,,,,,,
17,20,4680,A,19.533494279774295,46.92328568697636,0.9766747139887147,0.7370692479825001,A,832.6636250130832,Correct,sub_017_day_17_data.csv,1,300,187.0,Training at home,,,,,,,,,,,,,
17,20,4681,B,63.363498971092774,47.506899933112706,3.1681749485546384,0.7462366391234615,B,1243.6037909938022,Correct,sub_017_day_17_data.csv,1,300,187.0,Training at home,,,,,,,,,,,,,
17,20,4682,A,52.07644761243518,68.94651982850459,2.603822380621759,1.083009400919065,A,2207.804000005126,Correct,sub_017_day_17_data.csv,1,300,187.0,Training at home,,,,,,,,,,,,,
17,20,4683,B,60.83273495156357,42.726142935150754,3.041636747578179,0.6711406838064853,B,1523.4832080313936,Correct,sub_017_day_17_data.csv,1,300,187.0,Training at home,,,,,,,,,,,,,
17,20,4684,A,17.018482164717444,46.36893313321223,0.8509241082358722,0.7283614984304794,A,719.2201670259237,Correct,sub_017_day_17_data.csv,1,300,187.0,Training at home,,,,,,,,,,,,,
17,20,4685,A,51.368589358575946,59.959537146852426,2.568429467928797,0.9418422070659792,A,1328.5107089905068,Correct,sub_017_day_17_data.csv,1,300,187.0,Training at home,,,,,,,,,,,,,
17,20,4686,B,49.236950201184435,38.8114442772473,2.4618475100592216,0.6096487410830487,B,880.7636250276119,Correct,sub_017_day_17_data.csv,1,300,187.0,Training at home,,,,,,,,,,,,,
17,20,4687,B,56.73215722314412,35.75233586977359,2.8366078611572063,0.5615963785857778,B,1282.6128750457428,Correct,sub_017_day_17_data.csv,1,300,187.0,Training at home,,,,,,,,,,,,,
17,20,4688,B,86.16276722658027,64.18099818389788,4.308138361329013,1.008152761972967,B,1485.3766669984907,Correct,sub_017_day_17_data.csv,1,300,187.0,Training at home,,,,,,,,,,,,,
17,20,4689,A,66.80060465240176,81.67576998580265,3.340030232620088,1.2829599948184367,A,1185.265000036452,Correct,sub_017_day_17_data.csv,1,300,187.0,Training at home,,,,,,,,,,,,,
17,20,4690,B,56.5348170563467,30.394671513152957,2.826740852817335,0.4774383836699814,B,1292.981708946172,Correct,sub_017_day_17_data.csv,1,300,187.0,Training at home,,,,,,,,,,,,,
17,20,4691,A,31.34813279410736,58.010593595120625,1.567406639705368,0.9112282733440704,A,1157.8440409502946,Correct,sub_017_day_17_data.csv,1,300,187.0,Training at home,,,,,,,,,,,,,
17,20,4692,B,75.03307975610724,53.84984215139138,3.7516539878053616,0.8458713424989057,B,1179.1639160364866,Correct,sub_017_day_17_data.csv,1,300,187.0,Training at home,,,,,,,,,,,,,
17,20,4693,A,58.861614556327766,70.85815635945178,2.943080727816388,1.113037317328853,A,1445.6334579735994,Correct,sub_017_day_17_data.csv,1,300,187.0,Training at home,,,,,,,,,,,,,
17,20,4694,B,72.64058005917914,60.17426589787263,3.632029002958957,0.9452151583995771,B,565.1729999808595,Correct,sub_017_day_17_data.csv,1,300,187.0,Training at home,,,,,,,,,,,,,
17,20,4695,A,18.826102463062927,37.7703841665026,0.9413051231531464,0.5932958071037442,A,797.4025000003166,Correct,sub_017_day_17_data.csv,1,300,187.0,Training at home,,,,,,,,,,,,,
17,20,4696,B,42.47856760766915,33.44975328926644,2.123928380383458,0.5254274959897524,B,1110.5042500421405,Correct,sub_017_day_17_data.csv,1,300,187.0,Training at home,,,,,,,,,,,,,
17,20,4697,B,37.054480856349656,23.688864908514397,1.8527240428174827,0.3721038198423493,B,1294.677291996777,Correct,sub_017_day_17_data.csv,1,300,187.0,Training at home,,,,,,,,,,,,,
17,20,4698,B,70.42403719415051,52.72179244255382,3.5212018597075256,0.8281519791080648,B,1941.4581669843756,Correct,sub_017_day_17_data.csv,1,300,187.0,Training at home,,,,,,,,,,,,,
17,20,4699,A,44.33861955445253,67.1017196205038,2.2169309777226265,1.0540313470150842,A,642.3179999692366,Correct,sub_017_day_17_data.csv,1,300,187.0,Training at home,,,,,,,,,,,,,
17,20,4700,A,56.04653650455721,81.91322509685423,2.80232682522786,1.2866899309806217,A,1716.5735840098932,Correct,sub_017_day_17_data.csv,1,300,188.0,Training at home,,,,,,,,,,,,,
17,20,4701,A,24.411893156136003,39.452058778600346,1.2205946578068,0.6197114901392178,A,2714.5385000039823,Correct,sub_017_day_17_data.csv,1,300,188.0,Training at home,,,,,,,,,,,,,
17,20,4702,A,47.69548050267595,66.66408185174289,2.3847740251337974,1.0471569490187207,A,991.0684160422534,Correct,sub_017_day_17_data.csv,1,300,188.0,Training at home,,,,,,,,,,,,,
17,20,4703,A,25.671059936203015,52.794204381561606,1.283552996810151,0.8292894231861602,A,563.806249992922,Correct,sub_017_day_17_data.csv,1,300,188.0,Training at home,,,,,,,,,,,,,
17,20,4704,A,22.806021963568984,51.5639830187081,1.1403010981784492,0.8099651512070111,A,1237.932334013749,Correct,sub_017_day_17_data.csv,1,300,188.0,Training at home,,,,,,,,,,,,,
17,20,4705,A,45.66597774526655,64.43392543292991,2.2832988872633275,1.0121257339102256,A,1496.8318750034086,Correct,sub_017_day_17_data.csv,1,300,188.0,Training at home,,,,,,,,,,,,,
17,20,4706,A,37.90118055799228,52.32190255748322,1.895059027899614,0.8218705234821515,A,1762.785792001523,Correct,sub_017_day_17_data.csv,1,300,188.0,Training at home,,,,,,,,,,,,,
17,20,4707,A,31.53479169657279,42.02554942970227,1.5767395848286396,0.6601357867571368,A,824.7559999581426,Correct,sub_017_day_17_data.csv,1,300,188.0,Training at home,,,,,,,,,,,,,
17,20,4708,B,60.1603019347251,39.93021336143528,3.008015096736255,0.6272223247627904,B,901.105083001312,Correct,sub_017_day_17_data.csv,1,300,188.0,Training at home,,,,,,,,,,,,,
17,20,4709,B,52.32252417953198,45.4799006277041,2.616126208976599,0.7143966084899451,B,1114.159708027728,Correct,sub_017_day_17_data.csv,1,300,188.0,Training at home,,,,,,,,,,,,,
17,20,4710,A,58.731218387884795,73.919296334324,2.9365609193942395,1.161121591612196,A,1851.3995840330608,Correct,sub_017_day_17_data.csv,1,300,188.0,Training at home,,,,,,,,,,,,,
17,20,4711,B,67.22857491561274,48.81236026939048,3.361428745780637,0.7667427621334771,B,1011.7934999871068,Correct,sub_017_day_17_data.csv,1,300,188.0,Training at home,,,,,,,,,,,,,
17,20,4712,B,33.740424426693735,20.111747540238312,1.687021221334687,0.3159145916163263,B,1038.4627919993363,Correct,sub_017_day_17_data.csv,1,300,188.0,Training at home,,,,,,,,,,,,,
17,20,4713,B,33.57953043154777,16.177999575501904,1.6789765215773884,0.2541234230808779,B,882.2015419718809,Correct,sub_017_day_17_data.csv,1,300,188.0,Training at home,,,,,,,,,,,,,
17,20,4714,A,36.92135653716152,66.6778388561734,1.846067826858076,1.047373043538992,A,922.5526659865864,Correct,sub_017_day_17_data.csv,1,300,188.0,Training at home,,,,,,,,,,,,,
17,20,4715,A,11.493938967013955,31.27873041103602,0.5746969483506978,0.491325148364632,A,813.1200000061654,Correct,sub_017_day_17_data.csv,1,300,188.0,Training at home,,,,,,,,,,,,,
17,20,4716,A,36.67819924494267,56.29410613554451,1.8339099622471335,0.8842657513791536,A,1555.7423339923844,Correct,sub_017_day_17_data.csv,1,300,188.0,Training at home,,,,,,,,,,,,,
17,20,4717,B,48.9186244285423,31.02988575229964,2.445931221427115,0.4874163056057757,B,1450.1225830172189,Correct,sub_017_day_17_data.csv,1,300,188.0,Training at home,,,,,,,,,,,,,
17,20,4718,A,24.09695059886314,47.82457234675573,1.204847529943157,0.7512266257282068,A,881.1806660378352,Correct,sub_017_day_17_data.csv,1,300,188.0,Training at home,,,,,,,,,,,,,
17,20,4719,B,46.52132627714357,32.21264926187529,2.3260663138571784,0.5059951113688604,B,1015.441750001628,Correct,sub_017_day_17_data.csv,1,300,188.0,Training at home,,,,,,,,,,,,,
17,20,4720,B,67.50021184686021,46.621136242964106,3.3750105923430107,0.7323230956145245,B,1381.740000040736,Correct,sub_017_day_17_data.csv,1,300,188.0,Training at home,,,,,,,,,,,,,
17,20,4721,B,68.71415511580821,57.5993361602378,3.435707755790411,0.90476825666326,B,2972.3606670158915,Correct,sub_017_day_17_data.csv,1,300,188.0,Training at home,,,,,,,,,,,,,
17,20,4722,A,33.07208931548433,54.527380085161624,1.6536044657742164,0.8565140834752107,A,991.974417003803,Correct,sub_017_day_17_data.csv,1,300,188.0,Training at home,,,,,,,,,,,,,
17,20,4723,A,45.36677910420821,53.172037536477546,2.2683389552104107,0.8352244125049929,B,1802.814082999248,Incorrect,sub_017_day_17_data.csv,0,300,188.0,Training at home,,,,,,,,,,,,,
17,20,4724,B,71.54912341900717,59.10236322609004,3.5774561709503585,0.9283777506044,B,827.3719170247205,Correct,sub_017_day_17_data.csv,1,300,188.0,Training at home,,,,,,,,,,,,,
17,20,4725,B,36.84312379471076,10.922814653567537,1.8421561897355383,0.1715751713608535,B,1126.788082998246,Correct,sub_017_day_17_data.csv,1,300,189.0,Training at home,,,,,,,,,,,,,
17,20,4726,B,88.40566249847294,63.58066905434394,4.420283124923646,0.998722814057254,B,820.7495000096969,Correct,sub_017_day_17_data.csv,1,300,189.0,Training at home,,,,,,,,,,,,,
17,20,4727,B,70.66092571724691,45.18055572137126,3.533046285862346,0.7096945096968214,B,945.3323750058188,Correct,sub_017_day_17_data.csv,1,300,189.0,Training at home,,,,,,,,,,,,,
17,20,4728,B,57.959253722011695,49.61181714492723,2.8979626861005845,0.7793006013687176,B,1260.120166989509,Correct,sub_017_day_17_data.csv,1,300,189.0,Training at home,,,,,,,,,,,,,
17,20,4729,A,38.270250745424306,66.29727698876992,1.9135125372712152,1.0413951917046362,A,567.4008750356734,Correct,sub_017_day_17_data.csv,1,300,189.0,Training at home,,,,,,,,,,,,,
17,20,4730,B,83.31175571527378,63.11054920778716,4.165587785763688,0.9913381887760064,B,1111.4987500477582,Correct,sub_017_day_17_data.csv,1,300,189.0,Training at home,,,,,,,,,,,,,
17,20,4731,A,53.079975482968,73.65043419936634,2.6539987741484,1.1568983150721388,A,926.7122500459664,Correct,sub_017_day_17_data.csv,1,300,189.0,Training at home,,,,,,,,,,,,,
17,20,4732,B,44.85109317399556,17.53102642293433,2.242554658699778,0.2753767191008952,B,531.1162089928985,Correct,sub_017_day_17_data.csv,1,300,189.0,Training at home,,,,,,,,,,,,,
17,20,4733,B,71.28756048226788,40.12566777439466,3.5643780241133936,0.6302925155021147,B,1053.9172089775093,Correct,sub_017_day_17_data.csv,1,300,189.0,Training at home,,,,,,,,,,,,,
17,20,4734,A,31.499465336013223,46.97789675442276,1.5749732668006613,0.7379270766239715,A,1304.0231249760836,Correct,sub_017_day_17_data.csv,1,300,189.0,Training at home,,,,,,,,,,,,,
17,20,4735,B,61.75144817810842,39.65451866403975,3.0875724089054213,0.6228917225829331,B,2636.6268749698065,Correct,sub_017_day_17_data.csv,1,300,189.0,Training at home,,,,,,,,,,,,,
17,20,4736,A,35.361898778521144,52.5053529486982,1.7680949389260574,0.8247521554888473,A,833.8908330188133,Correct,sub_017_day_17_data.csv,1,300,189.0,Training at home,,,,,,,,,,,,,
17,20,4737,B,58.707797651410864,33.617809763078455,2.935389882570543,0.5280673209073324,B,2210.738957975991,Correct,sub_017_day_17_data.csv,1,300,189.0,Training at home,,,,,,,,,,,,,
17,20,4738,B,61.15772567455792,49.729375224376,3.0578862837278957,0.7811471993625496,A,3115.5898750294,Incorrect,sub_017_day_17_data.csv,0,300,189.0,Training at home,,,,,,,,,,,,,
17,20,4739,B,39.784018941752485,22.83616772001766,1.9892009470876244,0.3587096837267592,B,857.3103750240989,Correct,sub_017_day_17_data.csv,1,300,189.0,Training at home,,,,,,,,,,,,,
17,20,4740,A,21.83528240962042,42.25753191459516,1.091764120481021,0.6637797591086418,A,741.4682499947958,Correct,sub_017_day_17_data.csv,1,300,189.0,Training at home,,,,,,,,,,,,,
17,20,4741,A,15.39166600291091,41.81350486409143,0.7695833001455454,0.6568049985093535,A,585.9218330006115,Correct,sub_017_day_17_data.csv,1,300,189.0,Training at home,,,,,,,,,,,,,
17,20,4742,B,53.5528011348456,40.75892395345809,2.6776400567422804,0.6402396803020448,B,1485.167792008724,Correct,sub_017_day_17_data.csv,1,300,189.0,Training at home,,,,,,,,,,,,,
17,20,4743,B,47.41982077159736,32.53801460171393,2.370991038579868,0.5111059381757096,B,1136.4822090254163,Correct,sub_017_day_17_data.csv,1,300,189.0,Training at home,,,,,,,,,,,,,
17,20,4744,A,42.87741222733432,71.11354310429311,2.143870611366716,1.117048922935942,A,641.7876249761321,Correct,sub_017_day_17_data.csv,1,300,189.0,Training at home,,,,,,,,,,,,,
17,20,4745,B,85.28357102201683,57.80302615063829,4.264178551100842,0.9079678115505196,B,621.3362920098007,Correct,sub_017_day_17_data.csv,1,300,189.0,Training at home,,,,,,,,,,,,,
17,20,4746,B,82.03206693533116,54.17519457306579,4.101603346766558,0.8509819663877056,B,748.7504160380922,Correct,sub_017_day_17_data.csv,1,300,189.0,Training at home,,,,,,,,,,,,,
17,20,4747,B,58.767048779719666,30.135225559030715,2.938352438985983,0.4733630161526113,B,878.0641669873148,Correct,sub_017_day_17_data.csv,1,300,189.0,Training at home,,,,,,,,,,,,,
17,20,4748,A,16.807457268558423,36.44932530758756,0.8403728634279212,0.5725446630731079,A,1382.6534160180015,Correct,sub_017_day_17_data.csv,1,300,189.0,Training at home,,,,,,,,,,,,,
17,20,4749,A,17.4571122980973,48.03604906749178,0.872855614904865,0.7545484942895553,A,496.1107079870999,Correct,sub_017_day_17_data.csv,1,300,189.0,Training at home,,,,,,,,,,,,,
17,20,4750,A,32.565910565138424,58.19935205446662,1.6282955282569214,0.914193284289992,A,711.3130000070669,Correct,sub_017_day_17_data.csv,1,300,190.0,Training at home,,,,,,,,,,,,,
17,20,4751,B,71.72417436157727,46.42086084055304,3.5862087180788635,0.7291771769499776,B,1488.913125009276,Correct,sub_017_day_17_data.csv,1,300,190.0,Training at home,,,,,,,,,,,,,
17,20,4752,B,79.64060895607955,58.68251031394472,3.982030447803977,0.92178271648248,B,879.2010410106741,Correct,sub_017_day_17_data.csv,1,300,190.0,Training at home,,,,,,,,,,,,,
17,20,4753,A,25.26967146146561,44.2965909499632,1.2634835730732803,0.6958092235373826,A,737.539249996189,Correct,sub_017_day_17_data.csv,1,300,190.0,Training at home,,,,,,,,,,,,,
17,20,4754,A,62.703024662323344,83.2404545866651,3.1351512331161673,1.3075380030547097,A,907.5393750099464,Correct,sub_017_day_17_data.csv,1,300,190.0,Training at home,,,,,,,,,,,,,
17,20,4755,A,48.62062213684414,77.90074234234656,2.431031106842207,1.2236619992595366,A,902.5313750025816,Correct,sub_017_day_17_data.csv,1,300,190.0,Training at home,,,,,,,,,,,,,
17,20,4756,A,23.81068483607109,48.68568883277687,1.1905342418035545,0.7647530118600524,A,997.4338330212048,Correct,sub_017_day_17_data.csv,1,300,190.0,Training at home,,,,,,,,,,,,,
17,20,4757,A,65.52027952202712,87.58123605561585,3.276013976101356,1.375722838923181,A,1961.0892499913464,Correct,sub_017_day_17_data.csv,1,300,190.0,Training at home,,,,,,,,,,,,,
17,20,4758,B,56.35381929551257,23.895768399261,2.8176909647756285,0.3753538522750074,B,755.6537080090493,Correct,sub_017_day_17_data.csv,1,300,190.0,Training at home,,,,,,,,,,,,,
17,20,4759,B,45.53344151684932,37.30113433982381,2.276672075842466,0.5859248480627821,B,1195.9216250106692,Correct,sub_017_day_17_data.csv,1,300,190.0,Training at home,,,,,,,,,,,,,
17,20,4760,B,57.68921423144274,42.13970733347629,2.884460711572137,0.6619289749163652,B,1164.8419590201229,Correct,sub_017_day_17_data.csv,1,300,190.0,Training at home,,,,,,,,,,,,,
17,20,4761,B,88.06709328286034,62.57105590390599,4.403354664143017,0.9828638477753366,B,1747.2249579732306,Correct,sub_017_day_17_data.csv,1,300,190.0,Training at home,,,,,,,,,,,,,
17,20,4762,B,31.776075202749333,18.411465163805858,1.5888037601374665,0.2892066185021843,B,963.1743340287358,Correct,sub_017_day_17_data.csv,1,300,190.0,Training at home,,,,,,,,,,,,,
17,20,4763,A,45.59868551649883,76.58040785784993,2.279934275824942,1.202922233675657,A,842.9355830303393,Correct,sub_017_day_17_data.csv,1,300,190.0,Training at home,,,,,,,,,,,,,
17,20,4764,A,24.02492615385301,55.1603089098148,1.2012463076926505,0.8664561062040889,A,1649.7962080175057,Correct,sub_017_day_17_data.csv,1,300,190.0,Training at home,,,,,,,,,,,,,
17,20,4765,A,59.3514178815711,70.45596348405142,2.967570894078555,1.1067196864154334,A,1795.5092090414837,Correct,sub_017_day_17_data.csv,1,300,190.0,Training at home,,,,,,,,,,,,,
17,20,4766,B,48.860710336225225,20.516313310824145,2.4430355168112614,0.3222694958801581,B,794.311125006061,Correct,sub_017_day_17_data.csv,1,300,190.0,Training at home,,,,,,,,,,,,,
17,20,4767,A,51.744870206406546,77.69930197596639,2.587243510320327,1.2204977813837543,A,2173.475791991222,Correct,sub_017_day_17_data.csv,1,300,190.0,Training at home,,,,,,,,,,,,,
17,20,4768,B,61.64924862912339,42.92226547051237,3.08246243145617,0.6742213693879625,B,842.8513340186328,Correct,sub_017_day_17_data.csv,1,300,190.0,Training at home,,,,,,,,,,,,,
17,20,4769,A,21.708209670062253,35.079455148644314,1.0854104835031126,0.5510267929345681,A,802.5360000319779,Correct,sub_017_day_17_data.csv,1,300,190.0,Training at home,,,,,,,,,,,,,
17,20,4770,B,33.83524625959727,10.374019387346316,1.6917623129798636,0.1629547154774263,B,578.8011249969713,Correct,sub_017_day_17_data.csv,1,300,190.0,Training at home,,,,,,,,,,,,,
17,20,4771,A,40.819454344073,72.89390983407856,2.04097271720365,1.14501485813089,A,720.7697920384817,Correct,sub_017_day_17_data.csv,1,300,190.0,Training at home,,,,,,,,,,,,,
17,20,4772,B,38.36574001088184,24.19510978950175,1.9182870005440915,0.3800558958374859,B,1524.325750011485,Correct,sub_017_day_17_data.csv,1,300,190.0,Training at home,,,,,,,,,,,,,
17,20,4773,A,43.39616580663824,52.58509225902661,2.169808290331912,0.8260046976464975,A,1869.4189169909805,Correct,sub_017_day_17_data.csv,1,300,190.0,Training at home,,,,,,,,,,,,,
17,20,4774,A,31.69702288011972,54.551863002857154,1.584851144005986,0.8568986602470645,A,1515.7434580032714,Correct,sub_017_day_17_data.csv,1,300,190.0,Training at home,,,,,,,,,,,,,
17,20,4775,B,83.07006927738453,68.87782397017487,4.153503463869226,1.0819303288997617,B,721.5106670046225,Correct,sub_017_day_17_data.csv,1,300,191.0,Training at home,,,,,,,,,,,,,
17,20,4776,A,41.8445647222932,61.73617040957388,2.09222823611466,0.9697494970974244,A,1096.1747919791378,Correct,sub_017_day_17_data.csv,1,300,191.0,Training at home,,,,,,,,,,,,,
17,20,4777,B,41.92798655061934,33.27485248164423,2.0963993275309667,0.5226801605280881,B,1553.5126670147292,Correct,sub_017_day_17_data.csv,1,300,191.0,Training at home,,,,,,,,,,,,,
17,20,4778,B,72.47874903917312,49.46822362596115,3.623937451958656,0.7770450396472829,B,1052.7858749846928,Correct,sub_017_day_17_data.csv,1,300,191.0,Training at home,,,,,,,,,,,,,
17,20,4779,A,61.6350119919949,83.52510907938719,3.0817505995997454,1.312009345370445,A,773.8142090383917,Correct,sub_017_day_17_data.csv,1,300,191.0,Training at home,,,,,,,,,,,,,
17,20,4780,A,48.366269848402574,76.53907443375581,2.4183134924201286,1.2022729697682482,A,726.8551670131274,Correct,sub_017_day_17_data.csv,1,300,191.0,Training at home,,,,,,,,,,,,,
17,20,4781,B,38.5102944911863,23.735343031956557,1.925514724559315,0.3728338964981421,B,1042.4053329625167,Correct,sub_017_day_17_data.csv,1,300,191.0,Training at home,,,,,,,,,,,,,
17,20,4782,A,55.04067633933837,74.55730195916814,2.7520338169669185,1.1711433605319927,A,694.8118339641951,Correct,sub_017_day_17_data.csv,1,300,191.0,Training at home,,,,,,,,,,,,,
17,20,4783,A,46.52721214767855,63.39181201422344,2.3263606073839274,0.9957562546081478,A,1346.5324589633385,Correct,sub_017_day_17_data.csv,1,300,191.0,Training at home,,,,,,,,,,,,,
17,20,4784,A,13.221916240181226,38.33359065162022,0.6610958120090613,0.6021426338842423,A,764.8296249681152,Correct,sub_017_day_17_data.csv,1,300,191.0,Training at home,,,,,,,,,,,,,
17,20,4785,A,41.68826015021981,62.024073107092136,2.0844130075109906,0.9742718620947846,A,878.2441670191474,Correct,sub_017_day_17_data.csv,1,300,191.0,Training at home,,,,,,,,,,,,,
17,20,4786,B,63.94916800279145,49.349187896020034,3.1974584001395727,0.7751752307737944,B,2197.5102919968776,Correct,sub_017_day_17_data.csv,1,300,191.0,Training at home,,,,,,,,,,,,,
17,20,4787,B,80.79363612019341,61.16961955710906,4.03968180600967,0.9608501371174818,B,1015.9899579593912,Correct,sub_017_day_17_data.csv,1,300,191.0,Training at home,,,,,,,,,,,,,
17,20,4788,B,45.315353644045416,17.56362376366708,2.265767682202271,0.2758887569317581,B,1205.4933340405114,Correct,sub_017_day_17_data.csv,1,300,191.0,Training at home,,,,,,,,,,,,,
17,20,4789,B,77.70075094696134,47.54213121847099,3.8850375473480665,0.746790050859752,B,558.1498749670573,Correct,sub_017_day_17_data.csv,1,300,191.0,Training at home,,,,,,,,,,,,,
17,20,4790,A,58.04213375351295,83.6956428702639,2.9021066876756474,1.31468808389348,A,1016.7619999847376,Correct,sub_017_day_17_data.csv,1,300,191.0,Training at home,,,,,,,,,,,,,
17,20,4791,A,29.69291639382923,39.14243073370051,1.4846458196914614,0.6148478641832044,B,2772.579708020203,Incorrect,sub_017_day_17_data.csv,0,300,191.0,Training at home,,,,,,,,,,,,,
17,20,4792,B,47.59466960657041,33.054839379488484,2.379733480328521,0.5192242028009582,B,634.461082983762,Correct,sub_017_day_17_data.csv,1,300,191.0,Training at home,,,,,,,,,,,,,
17,20,4793,A,36.38161928697657,63.8779245993039,1.8190809643488288,1.0033920932386793,A,1118.987250025384,Correct,sub_017_day_17_data.csv,1,300,191.0,Training at home,,,,,,,,,,,,,
17,20,4794,B,44.4638449139609,30.23988737194815,2.2231922456980446,0.4750070400654752,B,944.9005830101668,Correct,sub_017_day_17_data.csv,1,300,191.0,Training at home,,,,,,,,,,,,,
17,20,4795,B,87.94599543730502,64.64872960969875,4.39729977186525,1.0154998700287126,B,949.3392910226248,Correct,sub_017_day_17_data.csv,1,300,191.0,Training at home,,,,,,,,,,,,,
17,20,4796,B,39.93497050655858,23.30575213588077,1.996748525327929,0.3660858984823383,B,776.2050830060616,Correct,sub_017_day_17_data.csv,1,300,191.0,Training at home,,,,,,,,,,,,,
17,20,4797,A,57.35706942476461,75.54069929655775,2.8678534712382304,1.1865905297855073,A,1704.7979169874452,Correct,sub_017_day_17_data.csv,1,300,191.0,Training at home,,,,,,,,,,,,,
17,20,4798,B,61.4024773764626,53.89609966625629,3.0701238688231296,0.8465979538432704,B,1257.4373329989612,Correct,sub_017_day_17_data.csv,1,300,191.0,Training at home,,,,,,,,,,,,,
17,20,4799,A,61.540811464383765,75.57989502766004,3.077040573219188,1.1872062148899225,A,651.470375014469,Correct,sub_017_day_17_data.csv,1,300,191.0,Training at home,,,,,,,,,,,,,
