subject,day,trial,cat,x,y,xt,yt,resp,rt,fb,f_name,acc,n_trials,block,session_type,ns_left_digit,ns_right_digit,ns_left_size,ns_right_size,ns_congruent,ns_cue,ns_correct_side,ns_resp,ns_rt,ns_fb,acc_stroop,acc_stroop_mean,resp_key
17,17,3600,B,50.3346658610938,29.667095054986504,2.51673329305469,0.4660096393904784,B,472.7725530028693,Correct,sub_017_day_13_data.csv,1,300,144.0,Training at home,,,,,,,,,,,,,
17,17,3601,A,48.67997839977106,56.749957179193714,2.4339989199885532,0.8914262428284515,B,638.6187210009666,Incorrect,sub_017_day_13_data.csv,0,300,144.0,Training at home,,,,,,,,,,,,,
17,17,3602,B,50.00387605790026,20.52587079076465,2.5001938028950126,0.3224196244239977,B,508.37064299412305,Correct,sub_017_day_13_data.csv,1,300,144.0,Training at home,,,,,,,,,,,,,
17,17,3603,B,56.5112553733429,44.31234477052932,2.8255627686671447,0.696056683972165,B,498.6623910008347,Correct,sub_017_day_13_data.csv,1,300,144.0,Training at home,,,,,,,,,,,,,
17,17,3604,B,69.34469622854799,58.24500887699544,3.4672348114273994,0.9149104599812058,B,578.9182630032883,Correct,sub_017_day_13_data.csv,1,300,144.0,Training at home,,,,,,,,,,,,,
17,17,3605,B,67.29833928740013,36.36919121488782,3.3649169643700065,0.5712859196884701,B,532.3928739962867,Correct,sub_017_day_13_data.csv,1,300,144.0,Training at home,,,,,,,,,,,,,
17,17,3606,B,51.24390927685783,44.235313009844454,2.562195463842891,0.6948466719048617,B,497.0640440005809,Correct,sub_017_day_13_data.csv,1,300,144.0,Training at home,,,,,,,,,,,,,
17,17,3607,A,19.633751372368938,48.44039163948369,0.9816875686184467,0.7608998925580721,A,706.2284249986988,Correct,sub_017_day_13_data.csv,1,300,144.0,Training at home,,,,,,,,,,,,,
17,17,3608,A,30.858079518067825,47.939837249487816,1.5429039759033911,0.7530372025864062,A,531.4865100008319,Correct,sub_017_day_13_data.csv,1,300,144.0,Training at home,,,,,,,,,,,,,
17,17,3609,A,10.458821231673312,35.08291249783916,0.5229410615836656,0.5510811008487252,A,601.8880409974372,Correct,sub_017_day_13_data.csv,1,300,144.0,Training at home,,,,,,,,,,,,,
17,17,3610,B,44.31995769974391,31.038741850978543,2.2159978849871953,0.4875554168785213,B,956.0621309938142,Correct,sub_017_day_13_data.csv,1,300,144.0,Training at home,,,,,,,,,,,,,
17,17,3611,B,62.184392704243635,49.51300877849539,3.109219635212182,0.7777485231782403,B,722.2155929994187,Correct,sub_017_day_13_data.csv,1,300,144.0,Training at home,,,,,,,,,,,,,
17,17,3612,A,39.07631592740153,60.61262109120179,1.9538157963700769,0.9521008256747064,A,537.0811559987487,Correct,sub_017_day_13_data.csv,1,300,144.0,Training at home,,,,,,,,,,,,,
17,17,3613,A,37.83987692959877,61.57162070428347,1.8919938464799384,0.9671647563709708,A,604.17987099936,Correct,sub_017_day_13_data.csv,1,300,144.0,Training at home,,,,,,,,,,,,,
17,17,3614,B,39.224623206083635,12.880647185916583,1.9612311603041817,0.2023287328637879,B,545.6206829985604,Correct,sub_017_day_13_data.csv,1,300,144.0,Training at home,,,,,,,,,,,,,
17,17,3615,B,72.79179399451317,48.22616935714099,3.6395896997256583,0.7575348968158566,B,1396.5264319995183,Correct,sub_017_day_13_data.csv,1,300,144.0,Training at home,,,,,,,,,,,,,
17,17,3616,A,47.12774037883789,76.30320757716177,2.3563870189418945,1.1985679818487422,A,550.6459329990321,Correct,sub_017_day_13_data.csv,1,300,144.0,Training at home,,,,,,,,,,,,,
17,17,3617,B,38.83591654460217,25.860530100589088,1.9417958272301088,0.4062162569097419,B,467.5672170051257,Correct,sub_017_day_13_data.csv,1,300,144.0,Training at home,,,,,,,,,,,,,
17,17,3618,A,49.625263351839905,57.51848777740165,2.4812631675919956,0.9034982932353968,A,533.4502010009601,Correct,sub_017_day_13_data.csv,1,300,144.0,Training at home,,,,,,,,,,,,,
17,17,3619,B,85.75496902714607,66.84103684274446,4.287748451357304,1.0499365515174537,B,579.4600340013858,Correct,sub_017_day_13_data.csv,1,300,144.0,Training at home,,,,,,,,,,,,,
17,17,3620,B,85.79734107412352,65.32555503495371,4.2898670537061765,1.0261314189474315,B,749.6409160012263,Correct,sub_017_day_13_data.csv,1,300,144.0,Training at home,,,,,,,,,,,,,
17,17,3621,A,57.548848186102305,84.68296536598926,2.8774424093051154,1.3301969093899535,A,500.6377469981089,Correct,sub_017_day_13_data.csv,1,300,144.0,Training at home,,,,,,,,,,,,,
17,17,3622,A,57.49299186778576,81.26853633744435,2.8746495933892877,1.2765631836285516,A,793.2754209978157,Correct,sub_017_day_13_data.csv,1,300,144.0,Training at home,,,,,,,,,,,,,
17,17,3623,B,66.31666268923493,53.67913982299038,3.3158331344617467,0.8431899565946294,B,941.4198110025608,Correct,sub_017_day_13_data.csv,1,300,144.0,Training at home,,,,,,,,,,,,,
17,17,3624,B,46.85097203771499,32.845078221462956,2.34254860188575,0.5159292822356506,B,498.49936900136527,Correct,sub_017_day_13_data.csv,1,300,144.0,Training at home,,,,,,,,,,,,,
17,17,3625,B,83.82200890449604,66.36327227045732,4.191100445224802,1.0424318431652395,B,554.1035649948753,Correct,sub_017_day_13_data.csv,1,300,145.0,Training at home,,,,,,,,,,,,,
17,17,3626,B,63.211023968057,31.943019622320932,3.16055119840285,0.5017597788947902,B,1232.942180999089,Correct,sub_017_day_13_data.csv,1,300,145.0,Training at home,,,,,,,,,,,,,
17,17,3627,B,49.282145690345985,35.7718033058124,2.4641072845172993,0.5619021723559966,B,1015.4614269995365,Correct,sub_017_day_13_data.csv,1,300,145.0,Training at home,,,,,,,,,,,,,
17,17,3628,A,23.83155402711647,48.01636466494029,1.1915777013558235,0.7542392924173249,A,998.8759600018966,Correct,sub_017_day_13_data.csv,1,300,145.0,Training at home,,,,,,,,,,,,,
17,17,3629,A,23.982518618343104,48.694194624163885,1.1991259309171551,0.7648866205187244,A,1142.243652997422,Correct,sub_017_day_13_data.csv,1,300,145.0,Training at home,,,,,,,,,,,,,
17,17,3630,B,68.9719026380024,42.55885752676884,3.44859513190012,0.6685129707563584,B,1307.458040995698,Correct,sub_017_day_13_data.csv,1,300,145.0,Training at home,,,,,,,,,,,,,
17,17,3631,B,66.08736225941736,40.02999139217718,3.3043681129708684,0.6287896344046324,B,482.5053000022308,Correct,sub_017_day_13_data.csv,1,300,145.0,Training at home,,,,,,,,,,,,,
17,17,3632,A,49.913166508067214,70.27969733129578,2.4956583254033604,1.103950904162565,A,477.61164999974426,Correct,sub_017_day_13_data.csv,1,300,145.0,Training at home,,,,,,,,,,,,,
17,17,3633,B,87.73171808908334,64.53974644533145,4.386585904454168,1.0137879664860063,A,1243.84207699768,Incorrect,sub_017_day_13_data.csv,0,300,145.0,Training at home,,,,,,,,,,,,,
17,17,3634,A,46.05798698006889,59.23218897299323,2.302899349003445,0.9304170486679894,A,759.0887370024575,Correct,sub_017_day_13_data.csv,1,300,145.0,Training at home,,,,,,,,,,,,,
17,17,3635,A,59.21362046397756,82.6363003981118,2.9606810231988785,1.2980479712527369,A,1027.674211996782,Correct,sub_017_day_13_data.csv,1,300,145.0,Training at home,,,,,,,,,,,,,
17,17,3636,B,46.29129397184401,39.21888532876077,2.314564698592201,0.6160488101540769,B,673.2961460002116,Correct,sub_017_day_13_data.csv,1,300,145.0,Training at home,,,,,,,,,,,,,
17,17,3637,B,67.61910132904941,41.47957867906259,3.3809550664524703,0.6515596982607142,B,554.7270280003431,Correct,sub_017_day_13_data.csv,1,300,145.0,Training at home,,,,,,,,,,,,,
17,17,3638,A,37.07961297383692,48.6136989268609,1.8539806486918464,0.763622197062261,B,1217.5821069977246,Incorrect,sub_017_day_13_data.csv,0,300,145.0,Training at home,,,,,,,,,,,,,
17,17,3639,A,30.4836144506721,52.41652935565807,1.5241807225336048,0.8233569177520456,A,863.947248995828,Correct,sub_017_day_13_data.csv,1,300,145.0,Training at home,,,,,,,,,,,,,
17,17,3640,B,49.08925716472272,28.341960966086265,2.454462858236136,0.4451944817969264,B,692.467177999788,Correct,sub_017_day_13_data.csv,1,300,145.0,Training at home,,,,,,,,,,,,,
17,17,3641,A,55.548542039585826,78.25581095888742,2.777427101979291,1.2292394040457617,A,730.4858950010384,Correct,sub_017_day_13_data.csv,1,300,145.0,Training at home,,,,,,,,,,,,,
17,17,3642,B,60.6280162271658,40.483917376085856,3.03140081135829,0.6359198870862376,B,577.8198269981658,Correct,sub_017_day_13_data.csv,1,300,145.0,Training at home,,,,,,,,,,,,,
17,17,3643,A,51.0839749958725,65.21249727249143,2.554198749793625,1.0243555117675174,A,714.8977049946552,Correct,sub_017_day_13_data.csv,1,300,145.0,Training at home,,,,,,,,,,,,,
17,17,3644,A,43.781239016168406,54.92678088436737,2.18906195080842,0.8627878565583239,A,975.4739859999972,Correct,sub_017_day_13_data.csv,1,300,145.0,Training at home,,,,,,,,,,,,,
17,17,3645,A,28.857449898555306,43.473919333629354,1.4428724949277651,0.6828867280064262,A,670.4227360023651,Correct,sub_017_day_13_data.csv,1,300,145.0,Training at home,,,,,,,,,,,,,
17,17,3646,A,29.67533461188598,60.239041105131335,1.483766730594299,0.9462326449758708,A,630.6607320002513,Correct,sub_017_day_13_data.csv,1,300,145.0,Training at home,,,,,,,,,,,,,
17,17,3647,A,36.58112895968125,51.71128265971139,1.8290564479840623,0.8122789285572728,A,655.3411330023664,Correct,sub_017_day_13_data.csv,1,300,145.0,Training at home,,,,,,,,,,,,,
17,17,3648,B,56.02320692351954,38.007886771741255,2.8011603461759766,0.597026489302875,B,466.8778249979368,Correct,sub_017_day_13_data.csv,1,300,145.0,Training at home,,,,,,,,,,,,,
17,17,3649,B,55.0435522087858,41.412267326356336,2.75217761043929,0.6505023740048885,B,893.5994330022368,Correct,sub_017_day_13_data.csv,1,300,145.0,Training at home,,,,,,,,,,,,,
17,17,3650,B,59.4811543541871,28.48346382971433,2.974057717709355,0.4474172035811057,B,477.80880800564773,Correct,sub_017_day_13_data.csv,1,300,146.0,Training at home,,,,,,,,,,,,,
17,17,3651,A,48.03712912411483,71.43298476991978,2.401856456205741,1.1220667008858578,A,755.7359269994777,Correct,sub_017_day_13_data.csv,1,300,146.0,Training at home,,,,,,,,,,,,,
17,17,3652,A,55.12230029671443,62.65284744542726,2.756115014835722,0.9841486263051816,A,1021.500469003513,Correct,sub_017_day_13_data.csv,1,300,146.0,Training at home,,,,,,,,,,,,,
17,17,3653,A,30.00224762815442,60.52312384044837,1.5001123814077209,0.9506950061472894,A,630.6327670026803,Correct,sub_017_day_13_data.csv,1,300,146.0,Training at home,,,,,,,,,,,,,
17,17,3654,B,58.64431114124397,30.78957074468186,2.9322155570621984,0.4836414462933788,B,991.7992990012864,Correct,sub_017_day_13_data.csv,1,300,146.0,Training at home,,,,,,,,,,,,,
17,17,3655,A,19.9349409609921,36.71821013067968,0.996747048049605,0.576768295997548,A,586.4068689988926,Correct,sub_017_day_13_data.csv,1,300,146.0,Training at home,,,,,,,,,,,,,
17,17,3656,B,62.19211510303497,29.355061571530676,3.109605755151749,0.461108228893984,B,535.5374549981207,Correct,sub_017_day_13_data.csv,1,300,146.0,Training at home,,,,,,,,,,,,,
17,17,3657,B,67.09533445217834,48.52781992666828,3.354766722608917,0.762273212881747,B,681.0194560021046,Correct,sub_017_day_13_data.csv,1,300,146.0,Training at home,,,,,,,,,,,,,
17,17,3658,A,65.59719220871418,79.34601851223975,3.279859610435709,1.2463643442482606,A,949.1129519956304,Correct,sub_017_day_13_data.csv,1,300,146.0,Training at home,,,,,,,,,,,,,
17,17,3659,A,37.11385823663977,63.64844076344673,1.8556929118319885,0.9997873695744468,A,579.6926929979236,Correct,sub_017_day_13_data.csv,1,300,146.0,Training at home,,,,,,,,,,,,,
17,17,3660,A,64.2086468979173,77.2598782578943,3.2104323448958656,1.2135953297612123,A,824.5390599986422,Correct,sub_017_day_13_data.csv,1,300,146.0,Training at home,,,,,,,,,,,,,
17,17,3661,B,61.35839966996911,47.665638842637456,3.0679199834984554,0.7487301040834705,B,521.1057839987916,Correct,sub_017_day_13_data.csv,1,300,146.0,Training at home,,,,,,,,,,,,,
17,17,3662,B,68.72334482477987,51.09443452352567,3.4361672412389934,0.8025895006921647,B,622.0591439996497,Correct,sub_017_day_13_data.csv,1,300,146.0,Training at home,,,,,,,,,,,,,
17,17,3663,A,20.4041722743125,40.81437794225656,1.020208613715625,0.6411107495211525,A,550.7837120021577,Correct,sub_017_day_13_data.csv,1,300,146.0,Training at home,,,,,,,,,,,,,
17,17,3664,A,42.02631100609917,48.79282472219592,2.101315550304958,0.7664358984757256,A,1277.0478590027778,Correct,sub_017_day_13_data.csv,1,300,146.0,Training at home,,,,,,,,,,,,,
17,17,3665,A,56.11637096207764,71.66756001082375,2.805818548103882,1.1257514001535476,A,925.77195699414,Correct,sub_017_day_13_data.csv,1,300,146.0,Training at home,,,,,,,,,,,,,
17,17,3666,A,45.50248888111752,68.03322183252459,2.275124444055876,1.0686633495455198,A,538.3049369993387,Correct,sub_017_day_13_data.csv,1,300,146.0,Training at home,,,,,,,,,,,,,
17,17,3667,A,52.75164922865284,70.56068412630077,2.6375824614326415,1.108364634417282,A,742.9478760022903,Correct,sub_017_day_13_data.csv,1,300,146.0,Training at home,,,,,,,,,,,,,
17,17,3668,B,47.86903538228505,30.603668589989525,2.3934517691142525,0.4807213020760389,B,541.5105519932695,Correct,sub_017_day_13_data.csv,1,300,146.0,Training at home,,,,,,,,,,,,,
17,17,3669,B,84.66781303122701,60.02643255107921,4.233390651561351,0.9428929976183684,B,583.2305849980912,Correct,sub_017_day_13_data.csv,1,300,146.0,Training at home,,,,,,,,,,,,,
17,17,3670,A,23.599863319855327,50.3686214911876,1.1799931659927665,0.7911884562407996,A,583.4575310000218,Correct,sub_017_day_13_data.csv,1,300,146.0,Training at home,,,,,,,,,,,,,
17,17,3671,B,53.82984272533138,22.59192431645353,2.691492136266569,0.3548731173151351,B,484.7875749983359,Correct,sub_017_day_13_data.csv,1,300,146.0,Training at home,,,,,,,,,,,,,
17,17,3672,B,67.66153176282064,45.36542838184692,3.383076588141032,0.7125984826568209,B,649.6384330021101,Correct,sub_017_day_13_data.csv,1,300,146.0,Training at home,,,,,,,,,,,,,
17,17,3673,A,56.601798321909,66.4208082974116,2.83008991609545,1.043335616963221,A,707.6580560024013,Correct,sub_017_day_13_data.csv,1,300,146.0,Training at home,,,,,,,,,,,,,
17,17,3674,B,63.493573756285095,53.25328127430487,3.1746786878142546,0.8365005861545353,B,641.4634979955736,Correct,sub_017_day_13_data.csv,1,300,146.0,Training at home,,,,,,,,,,,,,
17,17,3675,B,43.44683444516208,22.416979415591367,2.1723417222581043,0.3521250892384773,B,511.1396730062552,Correct,sub_017_day_13_data.csv,1,300,147.0,Training at home,,,,,,,,,,,,,
17,17,3676,B,83.31481847516234,61.79188266818988,4.165740923758117,0.9706246232093388,B,715.1339490010287,Correct,sub_017_day_13_data.csv,1,300,147.0,Training at home,,,,,,,,,,,,,
17,17,3677,A,60.556276387879535,86.90001158060457,3.0278138193939763,1.3650221898924764,A,1335.146403995168,Correct,sub_017_day_13_data.csv,1,300,147.0,Training at home,,,,,,,,,,,,,
17,17,3678,B,49.90919624139829,20.482421359591825,2.4954598120699143,0.3217371223551217,B,593.1801659971825,Correct,sub_017_day_13_data.csv,1,300,147.0,Training at home,,,,,,,,,,,,,
17,17,3679,A,20.781923101800857,51.577371283118154,1.0390961550900428,0.8101754535725858,A,509.95281099312706,Correct,sub_017_day_13_data.csv,1,300,147.0,Training at home,,,,,,,,,,,,,
17,17,3680,B,46.12063200991272,30.20893199155053,2.306031600495636,0.474520794087244,B,487.12885299755726,Correct,sub_017_day_13_data.csv,1,300,147.0,Training at home,,,,,,,,,,,,,
17,17,3681,B,82.95148626575573,52.28635305136224,4.147574313287787,0.8213121131458093,B,401.9853720019455,Correct,sub_017_day_13_data.csv,1,300,147.0,Training at home,,,,,,,,,,,,,
17,17,3682,B,79.1223582800639,48.55680870187338,3.9561179140031952,0.7627285674978517,B,658.3057700045174,Correct,sub_017_day_13_data.csv,1,300,147.0,Training at home,,,,,,,,,,,,,
17,17,3683,B,43.964355679153016,32.401655881151136,2.198217783957651,0.5089640204018445,B,521.0860810038866,Correct,sub_017_day_13_data.csv,1,300,147.0,Training at home,,,,,,,,,,,,,
17,17,3684,B,65.0594777267606,52.14481663281998,3.2529738863380304,0.8190888642822706,B,590.2686700064805,Correct,sub_017_day_13_data.csv,1,300,147.0,Training at home,,,,,,,,,,,,,
17,17,3685,A,48.6069406413616,72.52835386873765,2.43034703206808,1.1392727184549354,A,765.3340260003461,Correct,sub_017_day_13_data.csv,1,300,147.0,Training at home,,,,,,,,,,,,,
17,17,3686,A,26.1718049312018,42.611514945382325,1.30859024656009,0.669340111553724,A,538.9788739994401,Correct,sub_017_day_13_data.csv,1,300,147.0,Training at home,,,,,,,,,,,,,
17,17,3687,A,53.19937409613091,66.231268137765,2.6599687048065452,1.0403583270976915,A,845.6327780004358,Correct,sub_017_day_13_data.csv,1,300,147.0,Training at home,,,,,,,,,,,,,
17,17,3688,A,56.631739935263184,84.3095277543664,2.831586996763159,1.324330965103711,A,1111.8480090008234,Correct,sub_017_day_13_data.csv,1,300,147.0,Training at home,,,,,,,,,,,,,
17,17,3689,B,70.6989918207835,57.792292987993136,3.534949591039175,0.9077992154259408,B,498.3753069973318,Correct,sub_017_day_13_data.csv,1,300,147.0,Training at home,,,,,,,,,,,,,
17,17,3690,B,65.04415425592138,57.199997968287505,3.2522077127960696,0.8984954670126156,B,596.4301810017787,Correct,sub_017_day_13_data.csv,1,300,147.0,Training at home,,,,,,,,,,,,,
17,17,3691,A,56.373037805666726,69.0705202256477,2.8186518902833364,1.0849571946026002,A,701.6707170041627,Correct,sub_017_day_13_data.csv,1,300,147.0,Training at home,,,,,,,,,,,,,
17,17,3692,B,73.37403689194765,42.12051077591176,3.6687018445973822,0.6616274360952705,B,457.56797800277127,Correct,sub_017_day_13_data.csv,1,300,147.0,Training at home,,,,,,,,,,,,,
17,17,3693,A,45.152768087465894,52.61346255261588,2.2576384043732944,0.8264503371760985,B,1109.2642309959049,Incorrect,sub_017_day_13_data.csv,0,300,147.0,Training at home,,,,,,,,,,,,,
17,17,3694,B,65.98108874003285,44.473766247081194,3.2990544370016424,0.6985922865964999,B,903.5804090017336,Correct,sub_017_day_13_data.csv,1,300,147.0,Training at home,,,,,,,,,,,,,
17,17,3695,A,17.218521389233533,34.72822692324388,0.8609260694616766,0.5455097128713112,A,408.5375840004417,Correct,sub_017_day_13_data.csv,1,300,147.0,Training at home,,,,,,,,,,,,,
17,17,3696,A,58.94765878870297,72.91136838850039,2.947382939435148,1.1452890964624596,A,886.6562799958047,Correct,sub_017_day_13_data.csv,1,300,147.0,Training at home,,,,,,,,,,,,,
17,17,3697,B,59.64979496301308,36.480880890273966,2.9824897481506536,0.5730403370068449,B,489.2383810001774,Correct,sub_017_day_13_data.csv,1,300,147.0,Training at home,,,,,,,,,,,,,
17,17,3698,A,61.15068506465288,79.66729126341241,3.057534253232644,1.2514108848226737,A,890.8623480019742,Correct,sub_017_day_13_data.csv,1,300,147.0,Training at home,,,,,,,,,,,,,
17,17,3699,A,51.1596315635015,77.73457915137917,2.557981578175075,1.2210519139593357,A,931.4833770040424,Correct,sub_017_day_13_data.csv,1,300,147.0,Training at home,,,,,,,,,,,,,
17,17,3700,A,25.73605889423972,40.4301932143844,1.2868029447119858,0.6350759899276296,A,478.8984929982689,Correct,sub_017_day_13_data.csv,1,300,148.0,Training at home,,,,,,,,,,,,,
17,17,3701,A,67.34050651360778,88.50131728030684,3.3670253256803893,1.390175441004157,A,1158.387034003681,Correct,sub_017_day_13_data.csv,1,300,148.0,Training at home,,,,,,,,,,,,,
17,17,3702,A,57.3915816518315,69.39627967625651,2.8695790825915752,1.0900742120869509,A,644.8619719958515,Correct,sub_017_day_13_data.csv,1,300,148.0,Training at home,,,,,,,,,,,,,
17,17,3703,B,85.27466481520315,57.57505775195298,4.263733240760158,0.9043868923177178,A,900.5502950021764,Incorrect,sub_017_day_13_data.csv,0,300,148.0,Training at home,,,,,,,,,,,,,
17,17,3704,A,68.66596019331179,84.69648964367498,3.4332980096655894,1.3304093482470665,A,624.0703549992759,Correct,sub_017_day_13_data.csv,1,300,148.0,Training at home,,,,,,,,,,,,,
17,17,3705,B,67.30388788153434,39.73052141606099,3.3651943940767173,0.6240855710199458,B,576.340829997207,Correct,sub_017_day_13_data.csv,1,300,148.0,Training at home,,,,,,,,,,,,,
17,17,3706,B,37.4428875219067,23.0952045560097,1.872144376095335,0.362778624831568,B,902.9701550025492,Correct,sub_017_day_13_data.csv,1,300,148.0,Training at home,,,,,,,,,,,,,
17,17,3707,B,66.59934403033064,56.29328060993852,3.329967201516532,0.8842527840532581,B,685.7728670001961,Correct,sub_017_day_13_data.csv,1,300,148.0,Training at home,,,,,,,,,,,,,
17,17,3708,A,63.84217556754167,76.72702924179603,3.192108778377084,1.205225356988978,A,628.9868090025266,Correct,sub_017_day_13_data.csv,1,300,148.0,Training at home,,,,,,,,,,,,,
17,17,3709,B,50.36548608368403,19.435539926599542,2.5182743041842017,0.3052927472597811,B,931.9117940030992,Correct,sub_017_day_13_data.csv,1,300,148.0,Training at home,,,,,,,,,,,,,
17,17,3710,A,30.585090507890214,58.122486103147864,1.529254525394511,0.9129858767501208,A,732.7201170046465,Correct,sub_017_day_13_data.csv,1,300,148.0,Training at home,,,,,,,,,,,,,
17,17,3711,B,47.244629126701874,36.68024747936041,2.3622314563350937,0.5761719800650709,B,992.9486609980812,Correct,sub_017_day_13_data.csv,1,300,148.0,Training at home,,,,,,,,,,,,,
17,17,3712,B,46.01943205358429,34.71455859621018,2.300971602679214,0.5452950112923315,B,998.4677329994156,Correct,sub_017_day_13_data.csv,1,300,148.0,Training at home,,,,,,,,,,,,,
17,17,3713,B,56.382137054706114,47.8759735968755,2.819106852735306,0.7520340346770149,B,597.3519179970026,Correct,sub_017_day_13_data.csv,1,300,148.0,Training at home,,,,,,,,,,,,,
17,17,3714,A,25.087804443318184,54.41071942812336,1.2543902221659091,0.8546815821596389,A,762.5076940021245,Correct,sub_017_day_13_data.csv,1,300,148.0,Training at home,,,,,,,,,,,,,
17,17,3715,A,50.191308694526455,61.56517542171916,2.5095654347263228,0.9670635141091992,A,674.4992999956594,Correct,sub_017_day_13_data.csv,1,300,148.0,Training at home,,,,,,,,,,,,,
17,17,3716,B,88.12488166945504,68.82326571929659,4.406244083472751,1.081073329899002,B,545.9001580020413,Correct,sub_017_day_13_data.csv,1,300,148.0,Training at home,,,,,,,,,,,,,
17,17,3717,A,35.0238490199966,65.22397772022128,1.7511924509998298,1.0245358462187577,A,716.2263840000378,Correct,sub_017_day_13_data.csv,1,300,148.0,Training at home,,,,,,,,,,,,,
17,17,3718,B,85.92907112071131,66.74474731596332,4.296453556035566,1.0484240391676871,B,578.0454980049399,Correct,sub_017_day_13_data.csv,1,300,148.0,Training at home,,,,,,,,,,,,,
17,17,3719,A,22.96536550288707,41.94927329706238,1.1482682751443536,0.6589376440674083,A,602.82855299738,Correct,sub_017_day_13_data.csv,1,300,148.0,Training at home,,,,,,,,,,,,,
17,17,3720,B,50.93868219972513,40.17760782127084,2.5469341099862564,0.6311083878505814,B,527.8044480000972,Correct,sub_017_day_13_data.csv,1,300,148.0,Training at home,,,,,,,,,,,,,
17,17,3721,B,68.33461939294739,40.561580228379235,3.4167309696473693,0.6371398123173461,B,1452.9881429989473,Correct,sub_017_day_13_data.csv,1,300,148.0,Training at home,,,,,,,,,,,,,
17,17,3722,B,67.50422833529088,42.04637253769813,3.3752114167645435,0.6604628753726605,B,868.9262830012012,Correct,sub_017_day_13_data.csv,1,300,148.0,Training at home,,,,,,,,,,,,,
17,17,3723,A,43.90796864578768,66.83031830942599,2.195398432289384,1.0497681851898006,A,992.122659998131,Correct,sub_017_day_13_data.csv,1,300,148.0,Training at home,,,,,,,,,,,,,
17,17,3724,B,71.70380197004012,41.74953519916198,3.5851900985020055,0.6558001653623787,B,478.45794200111413,Correct,sub_017_day_13_data.csv,1,300,148.0,Training at home,,,,,,,,,,,,,
17,17,3725,B,44.98875146760332,17.974382540061317,2.249437573380166,0.2823409407033464,B,583.6719690050813,Correct,sub_017_day_13_data.csv,1,300,149.0,Training at home,,,,,,,,,,,,,
17,17,3726,B,61.853522332548536,32.46691814406165,3.092676116627427,0.5099891576304263,B,547.0146149964421,Correct,sub_017_day_13_data.csv,1,300,149.0,Training at home,,,,,,,,,,,,,
17,17,3727,A,23.65935139800259,50.689365040547585,1.1829675699001294,0.7962266841325779,A,931.0723730013706,Correct,sub_017_day_13_data.csv,1,300,149.0,Training at home,,,,,,,,,,,,,
17,17,3728,B,82.49747064786914,62.02283355403923,4.124873532393456,0.974252391240961,B,599.7036730041145,Correct,sub_017_day_13_data.csv,1,300,149.0,Training at home,,,,,,,,,,,,,
17,17,3729,A,15.547229828915114,45.56012103204659,0.7773614914457556,0.7156567076546969,A,812.4490699992748,Correct,sub_017_day_13_data.csv,1,300,149.0,Training at home,,,,,,,,,,,,,
17,17,3730,B,61.1581642444261,50.05854843367414,3.057908212221305,0.7863178400429977,B,1080.717659999209,Correct,sub_017_day_13_data.csv,1,300,149.0,Training at home,,,,,,,,,,,,,
17,17,3731,A,30.938239236118,52.71312844471682,1.5469119618059,0.8280158853482875,A,909.3551870028024,Correct,sub_017_day_13_data.csv,1,300,149.0,Training at home,,,,,,,,,,,,,
17,17,3732,A,25.125558321311264,49.73744669293275,1.256277916065563,0.7812739856941573,A,1071.1538460018346,Correct,sub_017_day_13_data.csv,1,300,149.0,Training at home,,,,,,,,,,,,,
17,17,3733,A,20.21140142303023,37.77506099163456,1.0105700711515115,0.5933692705011274,A,651.8926740027382,Correct,sub_017_day_13_data.csv,1,300,149.0,Training at home,,,,,,,,,,,,,
17,17,3734,A,35.64104422991323,47.31943251434659,1.7820522114956614,0.7432919077955462,A,1487.3342420032714,Correct,sub_017_day_13_data.csv,1,300,149.0,Training at home,,,,,,,,,,,,,
17,17,3735,A,65.72656514327298,79.8911783994792,3.2863282571636487,1.254927695732177,A,1145.9227529994678,Correct,sub_017_day_13_data.csv,1,300,149.0,Training at home,,,,,,,,,,,,,
17,17,3736,B,68.21693229327468,41.78266444905883,3.410846614663734,0.6563205584028532,B,629.4371699987096,Correct,sub_017_day_13_data.csv,1,300,149.0,Training at home,,,,,,,,,,,,,
17,17,3737,A,61.37865310332246,82.89380937988923,3.068932655166123,1.3020929128796634,A,673.1520270041074,Correct,sub_017_day_13_data.csv,1,300,149.0,Training at home,,,,,,,,,,,,,
17,17,3738,B,82.15591419019543,67.67254945842734,4.107795709509771,1.0629979211414362,B,1538.681745994836,Correct,sub_017_day_13_data.csv,1,300,149.0,Training at home,,,,,,,,,,,,,
17,17,3739,A,53.91099741411304,70.56296269199336,2.695549870705652,1.108400426043485,A,611.8081140011782,Correct,sub_017_day_13_data.csv,1,300,149.0,Training at home,,,,,,,,,,,,,
17,17,3740,B,88.37363861703662,67.00420797098833,4.418681930851831,1.0524996376062978,B,1309.0349300036903,Correct,sub_017_day_13_data.csv,1,300,149.0,Training at home,,,,,,,,,,,,,
17,17,3741,B,36.16318852645785,19.300431944932857,1.8081594263228924,0.3031704760465541,B,621.4137720016879,Correct,sub_017_day_13_data.csv,1,300,149.0,Training at home,,,,,,,,,,,,,
17,17,3742,A,37.687377382467,45.602888008195464,1.8843688691233496,0.7163284897451246,A,623.0766720036627,Correct,sub_017_day_13_data.csv,1,300,149.0,Training at home,,,,,,,,,,,,,
17,17,3743,A,42.56229219211527,66.07986103322656,2.1281146096057637,1.037980029861095,A,701.6234010006883,Correct,sub_017_day_13_data.csv,1,300,149.0,Training at home,,,,,,,,,,,,,
17,17,3744,A,36.626513972443554,65.39370504650131,1.8313256986221775,1.0272019168255313,A,1116.769109001325,Correct,sub_017_day_13_data.csv,1,300,149.0,Training at home,,,,,,,,,,,,,
17,17,3745,B,50.480656259456346,38.47032125509184,2.524032812972817,0.6042903931811789,B,837.7237780005089,Correct,sub_017_day_13_data.csv,1,300,149.0,Training at home,,,,,,,,,,,,,
17,17,3746,A,22.5737649491538,35.57434607970198,1.1286882474576898,0.558800521501263,A,551.0811370040756,Correct,sub_017_day_13_data.csv,1,300,149.0,Training at home,,,,,,,,,,,,,
17,17,3747,B,71.90181574307124,56.96506022673832,3.595090787153562,0.8948050735981062,B,1045.2555480005683,Correct,sub_017_day_13_data.csv,1,300,149.0,Training at home,,,,,,,,,,,,,
17,17,3748,B,35.81233368306773,21.435822903019893,1.7906166841533864,0.3367131187788956,B,832.6162260054844,Correct,sub_017_day_13_data.csv,1,300,149.0,Training at home,,,,,,,,,,,,,
17,17,3749,B,86.90145207757637,69.7272525980766,4.345072603878818,1.0952731225855863,B,562.1760559952236,Correct,sub_017_day_13_data.csv,1,300,149.0,Training at home,,,,,,,,,,,,,
17,17,3750,B,65.07396443639468,57.02045779950095,3.253698221819734,0.8956752566361952,B,1003.6560829976224,Correct,sub_017_day_13_data.csv,1,300,150.0,Training at home,,,,,,,,,,,,,
17,17,3751,B,54.03524204608732,36.76826175139382,2.701762102304366,0.577554505017227,B,525.9173169979476,Correct,sub_017_day_13_data.csv,1,300,150.0,Training at home,,,,,,,,,,,,,
17,17,3752,B,35.52435215496811,13.340320382363554,1.7762176077484058,0.2095492625488376,B,685.361053001543,Correct,sub_017_day_13_data.csv,1,300,150.0,Training at home,,,,,,,,,,,,,
17,17,3753,A,30.763323627288145,56.3215695076101,1.5381661813644072,0.884697145018774,A,616.6278480013716,Correct,sub_017_day_13_data.csv,1,300,150.0,Training at home,,,,,,,,,,,,,
17,17,3754,B,77.38375557365953,62.58283823966761,3.869187778682977,0.9830489242726907,B,616.2804569976288,Correct,sub_017_day_13_data.csv,1,300,150.0,Training at home,,,,,,,,,,,,,
17,17,3755,B,39.71119701484229,30.375868745392353,1.9855598507421144,0.4771430304846621,B,490.4318219996639,Correct,sub_017_day_13_data.csv,1,300,150.0,Training at home,,,,,,,,,,,,,
17,17,3756,B,60.83680568097078,47.87939064498709,3.041840284048539,0.7520877095432366,B,510.68081599805737,Correct,sub_017_day_13_data.csv,1,300,150.0,Training at home,,,,,,,,,,,,,
17,17,3757,A,65.59330472655014,83.25010313362209,3.2796652363275074,1.3076895620758988,A,763.8574059965322,Correct,sub_017_day_13_data.csv,1,300,150.0,Training at home,,,,,,,,,,,,,
17,17,3758,A,49.67067582918554,80.47129581420072,2.483533791459277,1.2640401587737204,A,534.5944479995524,Correct,sub_017_day_13_data.csv,1,300,150.0,Training at home,,,,,,,,,,,,,
17,17,3759,A,32.402569201864814,63.599058376773456,1.6201284600932409,0.9990116728584992,A,1059.3847620039014,Correct,sub_017_day_13_data.csv,1,300,150.0,Training at home,,,,,,,,,,,,,
17,17,3760,A,57.97745642319085,72.64975694695349,2.8988728211595425,1.1411797135481656,A,686.4838550027343,Correct,sub_017_day_13_data.csv,1,300,150.0,Training at home,,,,,,,,,,,,,
17,17,3761,B,36.74452237107798,19.071992042299296,1.837226118553899,0.2995821504470523,B,617.2653499961598,Correct,sub_017_day_13_data.csv,1,300,150.0,Training at home,,,,,,,,,,,,,
17,17,3762,B,37.623434638769666,15.20399061973908,1.881171731938483,0.2388237261811021,B,559.3501969997305,Correct,sub_017_day_13_data.csv,1,300,150.0,Training at home,,,,,,,,,,,,,
17,17,3763,B,54.42616584018157,24.685741840639665,2.7213082920090783,0.3877627260748387,B,719.9536690022796,Correct,sub_017_day_13_data.csv,1,300,150.0,Training at home,,,,,,,,,,,,,
17,17,3764,A,36.01895731530579,55.306606526166824,1.8009478657652895,0.8687541437879349,A,644.0684119952493,Correct,sub_017_day_13_data.csv,1,300,150.0,Training at home,,,,,,,,,,,,,
17,17,3765,A,39.07703082559604,69.43674427145952,1.953851541279802,1.0907098284620518,A,607.9642609984148,Correct,sub_017_day_13_data.csv,1,300,150.0,Training at home,,,,,,,,,,,,,
17,17,3766,B,46.83262871758616,39.65577231147934,2.341631435879308,0.6229114148308651,B,594.4702699998743,Correct,sub_017_day_13_data.csv,1,300,150.0,Training at home,,,,,,,,,,,,,
17,17,3767,A,18.30543153227751,38.089021112064145,0.9152715766138756,0.5983009445404363,A,692.0357210037764,Correct,sub_017_day_13_data.csv,1,300,150.0,Training at home,,,,,,,,,,,,,
17,17,3768,A,24.08341630961899,35.69018845182782,1.2041708154809496,0.5606201692274878,A,508.3778260013787,Correct,sub_017_day_13_data.csv,1,300,150.0,Training at home,,,,,,,,,,,,,
17,17,3769,B,70.31420352947187,57.80599007871781,3.5157101764735934,0.9080143688239218,B,1135.8855970029254,Correct,sub_017_day_13_data.csv,1,300,150.0,Training at home,,,,,,,,,,,,,
17,17,3770,B,87.89158805234611,64.67865274963889,4.394579402617305,1.015969901611754,B,1109.369551006239,Correct,sub_017_day_13_data.csv,1,300,150.0,Training at home,,,,,,,,,,,,,
17,17,3771,A,28.179716881960125,38.344942747618646,1.4089858440980063,0.6023209521911997,B,745.1329979958246,Incorrect,sub_017_day_13_data.csv,0,300,150.0,Training at home,,,,,,,,,,,,,
17,17,3772,B,75.98435694947702,43.41256749451099,3.799217847473851,0.6819230155711339,B,713.084479997633,Correct,sub_017_day_13_data.csv,1,300,150.0,Training at home,,,,,,,,,,,,,
17,17,3773,A,24.0899364372666,47.077949078256225,1.20449682186333,0.7394986948516207,A,529.308844001207,Correct,sub_017_day_13_data.csv,1,300,150.0,Training at home,,,,,,,,,,,,,
17,17,3774,B,57.56487050393868,40.79740997460164,2.878243525196934,0.6408442173084974,B,2446.417195998947,Correct,sub_017_day_13_data.csv,1,300,150.0,Training at home,,,,,,,,,,,,,
17,17,3775,A,22.74721140027301,39.32426539543616,1.1373605700136502,0.6177041163705879,A,748.5032949989545,Correct,sub_017_day_13_data.csv,1,300,151.0,Training at home,,,,,,,,,,,,,
17,17,3776,B,61.368758836356726,32.52206563225344,3.068437941817836,0.5108554123492625,B,869.018474004406,Correct,sub_017_day_13_data.csv,1,300,151.0,Training at home,,,,,,,,,,,,,
17,17,3777,B,83.21774552674887,63.72900283242185,4.160887276337444,1.001052835594698,B,1027.2640469993348,Correct,sub_017_day_13_data.csv,1,300,151.0,Training at home,,,,,,,,,,,,,
17,17,3778,A,61.8934136204613,86.54928980031332,3.094670681023065,1.3595130650503915,A,434.8537019977812,Correct,sub_017_day_13_data.csv,1,300,151.0,Training at home,,,,,,,,,,,,,
17,17,3779,B,56.59583907922599,27.16393174653971,2.8297919539612995,0.4266900420877186,B,447.3651429943857,Correct,sub_017_day_13_data.csv,1,300,151.0,Training at home,,,,,,,,,,,,,
17,17,3780,A,60.745196819267214,79.93637436535184,3.0372598409633604,1.255637632303964,A,911.2720439952682,Correct,sub_017_day_13_data.csv,1,300,151.0,Training at home,,,,,,,,,,,,,
17,17,3781,A,49.13976832401603,59.467471441364616,2.4569884162008013,0.9341128570387596,B,954.0469499988832,Incorrect,sub_017_day_13_data.csv,0,300,151.0,Training at home,,,,,,,,,,,,,
17,17,3782,B,86.56003951187034,58.610313155544816,4.3280019755935175,0.920648646170284,B,652.73610100121,Correct,sub_017_day_13_data.csv,1,300,151.0,Training at home,,,,,,,,,,,,,
17,17,3783,A,24.25356527969307,55.898652593225776,1.2126782639846538,0.8780539816622308,A,485.39785200409824,Correct,sub_017_day_13_data.csv,1,300,151.0,Training at home,,,,,,,,,,,,,
17,17,3784,A,44.661140997796785,70.94237702920081,2.233057049889839,1.1143602525156728,A,721.043669997016,Correct,sub_017_day_13_data.csv,1,300,151.0,Training at home,,,,,,,,,,,,,
17,17,3785,B,42.50158975303257,23.054892404314103,2.1250794876516284,0.3621454030334816,B,921.6843159956624,Correct,sub_017_day_13_data.csv,1,300,151.0,Training at home,,,,,,,,,,,,,
17,17,3786,B,38.62323217552986,11.691876417240934,1.931161608776493,0.1836555652954193,B,527.1702749960241,Correct,sub_017_day_13_data.csv,1,300,151.0,Training at home,,,,,,,,,,,,,
17,17,3787,A,20.692950168115452,50.78091966323403,1.034647508405773,0.7976648207827475,A,541.3901179999812,Correct,sub_017_day_13_data.csv,1,300,151.0,Training at home,,,,,,,,,,,,,
17,17,3788,A,51.86639598986044,64.79980726864592,2.593319799493022,1.0178729923460623,A,809.8571570008062,Correct,sub_017_day_13_data.csv,1,300,151.0,Training at home,,,,,,,,,,,,,
17,17,3789,B,67.07471290074567,52.50273641794926,3.3537356450372835,0.8247110551199535,B,1069.8422360001132,Correct,sub_017_day_13_data.csv,1,300,151.0,Training at home,,,,,,,,,,,,,
17,17,3790,A,29.703698886362847,46.00433339728536,1.4851849443181424,0.7226343791710361,A,525.5819320009323,Correct,sub_017_day_13_data.csv,1,300,151.0,Training at home,,,,,,,,,,,,,
17,17,3791,A,13.80878759703701,40.95850393987517,0.6904393798518506,0.6433746753977022,A,535.0327100022696,Correct,sub_017_day_13_data.csv,1,300,151.0,Training at home,,,,,,,,,,,,,
17,17,3792,A,33.5133281098348,63.19698485840704,1.67566640549174,0.9926959168009848,A,591.1241710055037,Correct,sub_017_day_13_data.csv,1,300,151.0,Training at home,,,,,,,,,,,,,
17,17,3793,A,66.46683688033664,88.26295383680592,3.323341844016832,1.3864312367892226,A,679.7977059977711,Correct,sub_017_day_13_data.csv,1,300,151.0,Training at home,,,,,,,,,,,,,
17,17,3794,B,40.18925232022245,19.418058455907993,2.009462616011122,0.3050181489602885,B,815.9947919994011,Correct,sub_017_day_13_data.csv,1,300,151.0,Training at home,,,,,,,,,,,,,
17,17,3795,A,37.48239303576534,56.994554494132466,1.874119651788267,0.8952683684669483,A,730.6892740016337,Correct,sub_017_day_13_data.csv,1,300,151.0,Training at home,,,,,,,,,,,,,
17,17,3796,B,43.358332806659085,22.375779289373565,2.167916640332954,0.3514779191692131,B,935.4802370071412,Correct,sub_017_day_13_data.csv,1,300,151.0,Training at home,,,,,,,,,,,,,
17,17,3797,B,73.15550033194303,40.147313721899195,3.657775016597151,0.630632529250416,B,502.7379019957152,Correct,sub_017_day_13_data.csv,1,300,151.0,Training at home,,,,,,,,,,,,,
17,17,3798,B,52.94023901986552,24.421424731575293,2.647011950993276,0.3836108426345652,B,467.9028299942729,Correct,sub_017_day_13_data.csv,1,300,151.0,Training at home,,,,,,,,,,,,,
17,17,3799,B,50.05291428207388,37.22301367046644,2.502645714103694,0.5846977314580492,B,489.46878699644,Correct,sub_017_day_13_data.csv,1,300,151.0,Training at home,,,,,,,,,,,,,
17,17,3800,A,44.55375931693736,71.64370168490598,2.227687965846868,1.1253766344463965,A,944.6350810030708,Correct,sub_017_day_13_data.csv,1,300,152.0,Training at home,,,,,,,,,,,,,
17,17,3801,A,50.84402229509544,61.413528077440056,2.5422011147547723,0.964681443195581,A,848.4836799980258,Correct,sub_017_day_13_data.csv,1,300,152.0,Training at home,,,,,,,,,,,,,
17,17,3802,B,46.69385399829909,19.031447888805683,2.3346926999149544,0.2989452843732446,B,808.2427280023694,Correct,sub_017_day_13_data.csv,1,300,152.0,Training at home,,,,,,,,,,,,,
17,17,3803,A,38.220983350016986,54.92792437424332,1.9110491675008492,0.8628058184552928,A,461.3503540022066,Correct,sub_017_day_13_data.csv,1,300,152.0,Training at home,,,,,,,,,,,,,
17,17,3804,A,44.41238592014695,67.23206120622395,2.2206192960073476,1.0560787478558624,A,1047.0436550021986,Correct,sub_017_day_13_data.csv,1,300,152.0,Training at home,,,,,,,,,,,,,
17,17,3805,A,20.791671396303073,39.13499319555943,1.0395835698151537,0.6147310356072803,A,1923.5145610000473,Correct,sub_017_day_13_data.csv,1,300,152.0,Training at home,,,,,,,,,,,,,
17,17,3806,B,34.274496197604684,12.23016108066587,1.7137248098802342,0.1921109210161985,B,541.0615799992229,Correct,sub_017_day_13_data.csv,1,300,152.0,Training at home,,,,,,,,,,,,,
17,17,3807,B,81.03119468419612,60.25830880552519,4.051559734209806,0.9465353013059156,B,990.4756739997538,Correct,sub_017_day_13_data.csv,1,300,152.0,Training at home,,,,,,,,,,,,,
17,17,3808,B,47.868615114769746,20.439146208275623,2.3934307557384873,0.3210573578678319,B,534.8091880005086,Correct,sub_017_day_13_data.csv,1,300,152.0,Training at home,,,,,,,,,,,,,
17,17,3809,A,53.605694622721195,76.8678304460212,2.6802847311360596,1.2074370571330302,A,964.447102000122,Correct,sub_017_day_13_data.csv,1,300,152.0,Training at home,,,,,,,,,,,,,
17,17,3810,A,23.60052587649986,40.61531692423945,1.180026293824993,0.6379839063620593,A,771.7157549996045,Correct,sub_017_day_13_data.csv,1,300,152.0,Training at home,,,,,,,,,,,,,
17,17,3811,B,52.47539496599748,36.66188201826114,2.623769748299874,0.5758834960767246,B,1136.5393199957907,Correct,sub_017_day_13_data.csv,1,300,152.0,Training at home,,,,,,,,,,,,,
17,17,3812,A,49.5254716558677,67.44699820149141,2.476273582793385,1.0594549702824472,A,731.7246640013764,Correct,sub_017_day_13_data.csv,1,300,152.0,Training at home,,,,,,,,,,,,,
17,17,3813,A,45.65200827598375,66.03595538875653,2.282600413799188,1.037290361610504,A,670.4134729952784,Correct,sub_017_day_13_data.csv,1,300,152.0,Training at home,,,,,,,,,,,,,
17,17,3814,A,43.4816667107236,74.46978928929386,2.17408333553618,1.1697687147281273,A,586.3126379990717,Correct,sub_017_day_13_data.csv,1,300,152.0,Training at home,,,,,,,,,,,,,
17,17,3815,B,60.794386618689174,30.773736997818354,3.0397193309344583,0.4833927303792527,B,965.3616519935896,Correct,sub_017_day_13_data.csv,1,300,152.0,Training at home,,,,,,,,,,,,,
17,17,3816,B,54.88621350512659,24.423938549029337,2.7443106752563295,0.3836503295867956,B,693.520418004482,Correct,sub_017_day_13_data.csv,1,300,152.0,Training at home,,,,,,,,,,,,,
17,17,3817,A,61.64447925558736,71.27144343863262,3.082223962779368,1.1195292155877434,A,1013.55880999472,Correct,sub_017_day_13_data.csv,1,300,152.0,Training at home,,,,,,,,,,,,,
17,17,3818,A,39.05135246077293,69.08181248918774,1.9525676230386464,1.0851345730634991,A,724.8600879975129,Correct,sub_017_day_13_data.csv,1,300,152.0,Training at home,,,,,,,,,,,,,
17,17,3819,A,15.276344516347248,41.48624087934255,0.7638172258173624,0.6516643478579957,A,515.4145810010959,Correct,sub_017_day_13_data.csv,1,300,152.0,Training at home,,,,,,,,,,,,,
17,17,3820,B,65.56694228578047,43.01765365888725,3.2783471142890233,0.6757197235471514,B,809.1110179957468,Correct,sub_017_day_13_data.csv,1,300,152.0,Training at home,,,,,,,,,,,,,
17,17,3821,B,75.21343280950408,47.98983626266802,3.760671640475204,0.7538225852488746,B,840.4343579968554,Correct,sub_017_day_13_data.csv,1,300,152.0,Training at home,,,,,,,,,,,,,
17,17,3822,A,15.391992409063732,43.21773603649042,0.7695996204531866,0.6788626101851059,A,503.13318699772935,Correct,sub_017_day_13_data.csv,1,300,152.0,Training at home,,,,,,,,,,,,,
17,17,3823,A,47.11178289397032,57.53141985733295,2.355589144698516,0.9037014298719358,B,1665.4528740036767,Incorrect,sub_017_day_13_data.csv,0,300,152.0,Training at home,,,,,,,,,,,,,
17,17,3824,B,45.97319811137142,23.129500841042884,2.2986599055685706,0.3633173496170964,B,1024.707144999411,Correct,sub_017_day_13_data.csv,1,300,152.0,Training at home,,,,,,,,,,,,,
17,17,3825,B,74.98717403038488,52.16791513194179,3.749358701519244,0.8194516946580208,B,936.227456004417,Correct,sub_017_day_13_data.csv,1,300,153.0,Training at home,,,,,,,,,,,,,
17,17,3826,A,57.721815200796215,70.31101976535994,2.8860907600398105,1.1044429158063076,A,1233.1563209954766,Correct,sub_017_day_13_data.csv,1,300,153.0,Training at home,,,,,,,,,,,,,
17,17,3827,B,61.978860011462,44.05642882882053,3.0989430005730996,0.6920367657601209,B,808.5632880029152,Correct,sub_017_day_13_data.csv,1,300,153.0,Training at home,,,,,,,,,,,,,
17,17,3828,A,35.84061558278819,58.92591020550427,1.7920307791394094,0.9256060330385204,B,746.2402790042688,Incorrect,sub_017_day_13_data.csv,0,300,153.0,Training at home,,,,,,,,,,,,,
17,17,3829,A,44.124152233985775,72.58049390568227,2.2062076116992886,1.1400917322400508,A,718.7359330055187,Correct,sub_017_day_13_data.csv,1,300,153.0,Training at home,,,,,,,,,,,,,
17,17,3830,A,56.9341062518519,72.12121902558071,2.8467053125925954,1.1328774592935238,A,1134.188185002131,Correct,sub_017_day_13_data.csv,1,300,153.0,Training at home,,,,,,,,,,,,,
17,17,3831,B,45.971469776190126,34.2555100357245,2.2985734888095064,0.5380842933660175,B,681.9306949983002,Correct,sub_017_day_13_data.csv,1,300,153.0,Training at home,,,,,,,,,,,,,
17,17,3832,A,37.21767245073093,48.57380308641029,1.8608836225365464,0.762995514665919,A,929.3266710010356,Correct,sub_017_day_13_data.csv,1,300,153.0,Training at home,,,,,,,,,,,,,
17,17,3833,A,35.064480225830124,55.08325525799898,1.7532240112915063,0.8652457502717046,A,566.5669459995115,Correct,sub_017_day_13_data.csv,1,300,153.0,Training at home,,,,,,,,,,,,,
17,17,3834,B,84.80908131391492,56.26450105483587,4.240454065695746,0.8838007158588377,B,1014.9263620041892,Correct,sub_017_day_13_data.csv,1,300,153.0,Training at home,,,,,,,,,,,,,
17,17,3835,B,54.72864331309815,24.46661269579422,2.7364321656549073,0.3843206535166694,B,855.2820830009296,Correct,sub_017_day_13_data.csv,1,300,153.0,Training at home,,,,,,,,,,,,,
17,17,3836,A,39.980787308784656,67.74817887363305,1.9990393654392329,1.064185905217464,A,574.5482959973742,Correct,sub_017_day_13_data.csv,1,300,153.0,Training at home,,,,,,,,,,,,,
17,17,3837,B,55.66819099960281,37.428395809523884,2.7834095499801403,0.5879238665542561,B,589.8860199959017,Correct,sub_017_day_13_data.csv,1,300,153.0,Training at home,,,,,,,,,,,,,
17,17,3838,A,31.819797642661083,43.16716805352331,1.590989882133054,0.6780682901661241,A,942.07277699752,Correct,sub_017_day_13_data.csv,1,300,153.0,Training at home,,,,,,,,,,,,,
17,17,3839,A,15.488947076159914,42.932084099082246,0.7744473538079957,0.6743756000448797,A,665.1921789962216,Correct,sub_017_day_13_data.csv,1,300,153.0,Training at home,,,,,,,,,,,,,
17,17,3840,B,65.05608957848759,45.79725567999914,3.252804478924379,0.7193816099942936,B,1058.5882980012684,Correct,sub_017_day_13_data.csv,1,300,153.0,Training at home,,,,,,,,,,,,,
17,17,3841,B,67.67363969771763,44.590146674279715,3.383681984885882,0.7004203860720425,B,861.5025789986248,Correct,sub_017_day_13_data.csv,1,300,153.0,Training at home,,,,,,,,,,,,,
17,17,3842,B,81.55767065322544,66.88609123765158,4.077883532661272,1.0506442642977143,A,865.0147160005872,Incorrect,sub_017_day_13_data.csv,0,300,153.0,Training at home,,,,,,,,,,,,,
17,17,3843,B,61.02241535637289,44.17235770545678,3.0511207678186447,0.6938577722960175,B,804.3367499994929,Correct,sub_017_day_13_data.csv,1,300,153.0,Training at home,,,,,,,,,,,,,
17,17,3844,A,47.664046327837504,58.34434563598364,2.383202316391875,0.9164708381425496,A,1154.6068759998889,Correct,sub_017_day_13_data.csv,1,300,153.0,Training at home,,,,,,,,,,,,,
17,17,3845,A,59.00007622755078,73.77230050964057,2.950003811377539,1.158812586597527,A,928.5587729973486,Correct,sub_017_day_13_data.csv,1,300,153.0,Training at home,,,,,,,,,,,,,
17,17,3846,B,55.30278505917464,40.347280359057855,2.765139252958732,0.6337735978417195,B,868.587821998517,Correct,sub_017_day_13_data.csv,1,300,153.0,Training at home,,,,,,,,,,,,,
17,17,3847,A,44.30108064256496,60.70719959328806,2.215054032128248,0.9535864613114152,A,531.5874139996595,Correct,sub_017_day_13_data.csv,1,300,153.0,Training at home,,,,,,,,,,,,,
17,17,3848,A,67.38217059582342,80.39926094087862,3.369108529791171,1.2629086376295655,A,844.3251139979111,Correct,sub_017_day_13_data.csv,1,300,153.0,Training at home,,,,,,,,,,,,,
17,17,3849,B,55.638911382008835,46.01353464915528,2.7819455691004418,0.7227789120974282,B,469.28479000052903,Correct,sub_017_day_13_data.csv,1,300,153.0,Training at home,,,,,,,,,,,,,
17,17,3850,A,26.522919704623195,57.1002894769685,1.3261459852311597,0.896929249693474,A,807.1909659993253,Correct,sub_017_day_13_data.csv,1,300,154.0,Training at home,,,,,,,,,,,,,
17,17,3851,B,60.85366199511626,47.789197584188685,3.042683099755813,0.7506709602571914,B,1229.8210089938948,Correct,sub_017_day_13_data.csv,1,300,154.0,Training at home,,,,,,,,,,,,,
17,17,3852,A,35.348274505804945,45.603629813874,1.767413725290247,0.716340142001475,A,593.1527950015152,Correct,sub_017_day_13_data.csv,1,300,154.0,Training at home,,,,,,,,,,,,,
17,17,3853,B,61.21479904467539,35.26317954619159,3.060739952233769,0.5539127290226667,B,909.7197619994404,Correct,sub_017_day_13_data.csv,1,300,154.0,Training at home,,,,,,,,,,,,,
17,17,3854,A,35.80559897681602,58.90372065901971,1.790279948840801,0.9252574804574084,A,672.5621779987705,Correct,sub_017_day_13_data.csv,1,300,154.0,Training at home,,,,,,,,,,,,,
17,17,3855,A,41.604613006678896,52.99620750543245,2.0802306503339447,0.8324624808359342,A,580.5511970029329,Correct,sub_017_day_13_data.csv,1,300,154.0,Training at home,,,,,,,,,,,,,
17,17,3856,B,67.74399646335952,56.38634358436802,3.387199823167976,0.8857146138372027,B,882.6042329965276,Correct,sub_017_day_13_data.csv,1,300,154.0,Training at home,,,,,,,,,,,,,
17,17,3857,A,36.18096437176301,63.126605936798015,1.809048218588151,0.9915904072855124,A,423.0990610012668,Correct,sub_017_day_13_data.csv,1,300,154.0,Training at home,,,,,,,,,,,,,
17,17,3858,A,34.855004125228845,48.97222537368959,1.7427502062614422,0.7692539173196343,B,1126.140383996244,Incorrect,sub_017_day_13_data.csv,0,300,154.0,Training at home,,,,,,,,,,,,,
17,17,3859,A,51.87157769441681,76.34381964499707,2.59357888472084,1.1992059147185343,A,1170.191707002232,Correct,sub_017_day_13_data.csv,1,300,154.0,Training at home,,,,,,,,,,,,,
17,17,3860,B,67.67348893743282,57.71032760201977,3.383674446871641,0.9065117061538278,B,1460.7361030066386,Correct,sub_017_day_13_data.csv,1,300,154.0,Training at home,,,,,,,,,,,,,
17,17,3861,A,24.520854952856695,43.791969345489136,1.2260427476428348,0.6878826459100904,A,634.7450510002091,Correct,sub_017_day_13_data.csv,1,300,154.0,Training at home,,,,,,,,,,,,,
17,17,3862,B,67.23088679021608,34.124506231697104,3.361544339510804,0.5360264904243937,B,961.371429002611,Correct,sub_017_day_13_data.csv,1,300,154.0,Training at home,,,,,,,,,,,,,
17,17,3863,A,19.443194636270796,32.05888176443479,0.9721597318135398,0.5035797371672607,A,480.2808039967203,Correct,sub_017_day_13_data.csv,1,300,154.0,Training at home,,,,,,,,,,,,,
17,17,3864,B,55.17591450069023,42.036665563744926,2.7587957250345116,0.6603103985823604,B,938.2603760022904,Correct,sub_017_day_13_data.csv,1,300,154.0,Training at home,,,,,,,,,,,,,
17,17,3865,B,59.094289600834955,33.36138469256948,2.9547144800417477,0.5240394053187962,B,672.9123740005889,Correct,sub_017_day_13_data.csv,1,300,154.0,Training at home,,,,,,,,,,,,,
17,17,3866,B,63.195651058545586,44.09847565179706,3.159782552927279,0.6926972357109701,B,734.4865910054068,Correct,sub_017_day_13_data.csv,1,300,154.0,Training at home,,,,,,,,,,,,,
17,17,3867,B,50.271619595547115,42.44972909424536,2.513580979777356,0.6667987853467906,B,1020.1543180010048,Correct,sub_017_day_13_data.csv,1,300,154.0,Training at home,,,,,,,,,,,,,
17,17,3868,B,63.57548811900482,47.05723807629977,3.178774405950241,0.7391733671936461,B,585.2285490036593,Correct,sub_017_day_13_data.csv,1,300,154.0,Training at home,,,,,,,,,,,,,
17,17,3869,A,11.781436255115343,32.15561519361083,0.5890718127557673,0.5050992223195405,A,466.4088920035283,Correct,sub_017_day_13_data.csv,1,300,154.0,Training at home,,,,,,,,,,,,,
17,17,3870,A,20.77859179134071,39.811985538499016,1.0389295895670356,0.6253652064628579,A,1129.574443999445,Correct,sub_017_day_13_data.csv,1,300,154.0,Training at home,,,,,,,,,,,,,
17,17,3871,A,52.32298178176637,82.70369743773567,2.6161490890883186,1.2991066414755168,B,704.6051199940848,Incorrect,sub_017_day_13_data.csv,0,300,154.0,Training at home,,,,,,,,,,,,,
17,17,3872,B,41.57254667240739,19.725593087109115,2.0786273336203696,0.309848891650818,B,798.1318890015245,Correct,sub_017_day_13_data.csv,1,300,154.0,Training at home,,,,,,,,,,,,,
17,17,3873,B,68.94021320539957,40.17712632436484,3.447010660269979,0.6311008245148684,B,571.4771780039882,Correct,sub_017_day_13_data.csv,1,300,154.0,Training at home,,,,,,,,,,,,,
17,17,3874,B,67.51166691816869,52.04297480293933,3.375583345908434,0.8174891365593644,B,484.82282199984184,Correct,sub_017_day_13_data.csv,1,300,154.0,Training at home,,,,,,,,,,,,,
17,17,3875,A,49.006815615368126,76.11413728145382,2.450340780768406,1.1955980725887017,A,1180.6507750006858,Correct,sub_017_day_13_data.csv,1,300,155.0,Training at home,,,,,,,,,,,,,
17,17,3876,B,66.5876757286849,34.70087885367648,3.329383786434245,0.5450801303990971,B,1144.6523459962918,Correct,sub_017_day_13_data.csv,1,300,155.0,Training at home,,,,,,,,,,,,,
17,17,3877,A,30.9884907311736,63.79605072043504,1.54942453655868,1.002106021356803,A,825.9777499988559,Correct,sub_017_day_13_data.csv,1,300,155.0,Training at home,,,,,,,,,,,,,
17,17,3878,A,28.186742786737245,52.10997456961914,1.409337139336862,0.8185415664333321,A,948.2516269999904,Correct,sub_017_day_13_data.csv,1,300,155.0,Training at home,,,,,,,,,,,,,
17,17,3879,B,55.13884798903415,25.72729529710225,2.7569423994517077,0.4041234095105582,B,818.6761629985995,Correct,sub_017_day_13_data.csv,1,300,155.0,Training at home,,,,,,,,,,,,,
17,17,3880,B,80.68077994575354,66.94617068329669,4.034038997287677,1.0515879900230662,A,1265.86886599398,Incorrect,sub_017_day_13_data.csv,0,300,155.0,Training at home,,,,,,,,,,,,,
17,17,3881,A,57.349637988250734,80.7884884592153,2.8674818994125366,1.2690226091904728,A,1137.2528319989217,Correct,sub_017_day_13_data.csv,1,300,155.0,Training at home,,,,,,,,,,,,,
17,17,3882,A,28.380593622559868,54.13855068832916,1.4190296811279932,0.8504063655922677,A,1108.7621100014076,Correct,sub_017_day_13_data.csv,1,300,155.0,Training at home,,,,,,,,,,,,,
17,17,3883,B,65.06889775703395,46.80719857151099,3.2534448878516975,0.735245755836888,B,1277.7439870042144,Correct,sub_017_day_13_data.csv,1,300,155.0,Training at home,,,,,,,,,,,,,
17,17,3884,B,68.28743505481698,42.81998975210124,3.414371752740849,0.6726148261599575,B,545.9446250024484,Correct,sub_017_day_13_data.csv,1,300,155.0,Training at home,,,,,,,,,,,,,
17,17,3885,B,30.21056546570154,13.523136492024877,1.510528273285077,0.212420931284187,B,455.25133200135315,Correct,sub_017_day_13_data.csv,1,300,155.0,Training at home,,,,,,,,,,,,,
17,17,3886,A,43.38812781686333,50.81954068440947,2.1694063908431667,0.7982714783647421,B,955.0569050043124,Incorrect,sub_017_day_13_data.csv,0,300,155.0,Training at home,,,,,,,,,,,,,
17,17,3887,B,62.29724708294763,47.905538274139545,3.114862354147381,0.7524984355415073,B,917.1819219991448,Correct,sub_017_day_13_data.csv,1,300,155.0,Training at home,,,,,,,,,,,,,
17,17,3888,A,41.23001784784975,65.46410046607227,2.0615008923924876,1.028307685490384,A,558.3487350013456,Correct,sub_017_day_13_data.csv,1,300,155.0,Training at home,,,,,,,,,,,,,
17,17,3889,B,59.059488402906375,49.88528737255225,2.9529744201453187,0.783596261659129,A,1604.2115470045246,Incorrect,sub_017_day_13_data.csv,0,300,155.0,Training at home,,,,,,,,,,,,,
17,17,3890,A,42.22857860645535,60.32406555981084,2.111428930322768,0.947568205986854,A,979.7444329960854,Correct,sub_017_day_13_data.csv,1,300,155.0,Training at home,,,,,,,,,,,,,
17,17,3891,B,45.45013114232552,38.288958607714264,2.2725065571162757,0.601441555377994,B,680.4918550042203,Correct,sub_017_day_13_data.csv,1,300,155.0,Training at home,,,,,,,,,,,,,
17,17,3892,A,40.19861054652021,54.885103411656885,2.00993052732601,0.8621331883478869,A,880.5621319988859,Correct,sub_017_day_13_data.csv,1,300,155.0,Training at home,,,,,,,,,,,,,
17,17,3893,A,48.810653248216624,75.35634648646322,2.440532662410831,1.1836947226161991,A,733.8380319997668,Correct,sub_017_day_13_data.csv,1,300,155.0,Training at home,,,,,,,,,,,,,
17,17,3894,A,59.79415309911886,70.00083843843808,2.9897076549559425,1.0995705989166151,A,527.9984009976033,Correct,sub_017_day_13_data.csv,1,300,155.0,Training at home,,,,,,,,,,,,,
17,17,3895,B,86.0994311042329,57.50698240317849,4.304971555211646,0.9033175672397152,B,953.7600430048768,Correct,sub_017_day_13_data.csv,1,300,155.0,Training at home,,,,,,,,,,,,,
17,17,3896,B,47.870106662731466,22.056337587105364,2.393505333136573,0.3464601406437332,B,697.6297829969553,Correct,sub_017_day_13_data.csv,1,300,155.0,Training at home,,,,,,,,,,,,,
17,17,3897,A,56.91680107166417,67.99754774489939,2.8458400535832085,1.0681029822874857,A,561.8698780017439,Correct,sub_017_day_13_data.csv,1,300,155.0,Training at home,,,,,,,,,,,,,
17,17,3898,B,69.36869767484737,60.2332259954228,3.468434883742368,0.94614130144617,A,1015.523674999713,Incorrect,sub_017_day_13_data.csv,0,300,155.0,Training at home,,,,,,,,,,,,,
17,17,3899,A,59.09051781875249,73.17281347121693,2.954525890937624,1.1493958662183568,A,615.364644996589,Correct,sub_017_day_13_data.csv,1,300,155.0,Training at home,,,,,,,,,,,,,
