subject,day,trial,cat,x,y,xt,yt,resp,rt,fb,f_name,acc,n_trials,block,session_type,ns_left_digit,ns_right_digit,ns_left_size,ns_right_size,ns_congruent,ns_cue,ns_correct_side,ns_resp,ns_rt,ns_fb,acc_stroop,acc_stroop_mean,resp_key
17,7,1200,B,37.35089841039725,12.942236410339252,1.8675449205198624,0.2032961741387206,B,825.5183869914617,Correct,sub_017_day_05_data.csv,1,300,48.0,Training at home,,,,,,,,,,,,,
17,7,1201,B,57.88402041579198,32.14430268159558,2.8942010207895987,0.5049215257963369,B,337.4961400113534,Correct,sub_017_day_05_data.csv,1,300,48.0,Training at home,,,,,,,,,,,,,
17,7,1202,A,27.33408961147084,47.04148784936742,1.366704480573542,0.738925963207531,A,424.28466500132345,Correct,sub_017_day_05_data.csv,1,300,48.0,Training at home,,,,,,,,,,,,,
17,7,1203,A,49.97167955123423,68.10946192484876,2.4985839775617116,1.069860926115293,A,425.0980780052487,Correct,sub_017_day_05_data.csv,1,300,48.0,Training at home,,,,,,,,,,,,,
17,7,1204,B,72.05609279487513,50.64190887453248,3.602804639743756,0.7954812444199749,B,397.3745209805202,Correct,sub_017_day_05_data.csv,1,300,48.0,Training at home,,,,,,,,,,,,,
17,7,1205,B,72.28810669901901,49.27326365605656,3.6144053349509506,0.7739826156013012,B,386.858445010148,Correct,sub_017_day_05_data.csv,1,300,48.0,Training at home,,,,,,,,,,,,,
17,7,1206,B,35.742333526591295,12.589154043578375,1.7871166763295647,0.1977499692910803,B,359.7715959767811,Correct,sub_017_day_05_data.csv,1,300,48.0,Training at home,,,,,,,,,,,,,
17,7,1207,B,74.87556936913795,60.13362135721635,3.7437784684568975,0.944576715447906,B,497.5224740046542,Correct,sub_017_day_05_data.csv,1,300,48.0,Training at home,,,,,,,,,,,,,
17,7,1208,A,24.362510163548052,56.65136877629992,1.2181255081774025,0.8898776198171501,A,457.19225698849186,Correct,sub_017_day_05_data.csv,1,300,48.0,Training at home,,,,,,,,,,,,,
17,7,1209,B,36.32557435817066,22.44734148004373,1.8162787179085331,0.352602015431634,B,440.95901199034415,Correct,sub_017_day_05_data.csv,1,300,48.0,Training at home,,,,,,,,,,,,,
17,7,1210,A,57.01150134448585,68.22377692421139,2.8505750672242924,1.071656581926257,A,632.4323170119897,Correct,sub_017_day_05_data.csv,1,300,48.0,Training at home,,,,,,,,,,,,,
17,7,1211,A,65.66173643721687,80.46425862611673,3.2830868218608433,1.2639296188817877,A,391.5302529931069,Correct,sub_017_day_05_data.csv,1,300,48.0,Training at home,,,,,,,,,,,,,
17,7,1212,A,42.29662208924176,72.35908025076196,2.114831104462088,1.1366137746815403,A,319.58213698817417,Correct,sub_017_day_05_data.csv,1,300,48.0,Training at home,,,,,,,,,,,,,
17,7,1213,B,67.90973661783943,48.461651717066914,3.3954868308919712,0.761233845075823,B,1081.1188119987492,Correct,sub_017_day_05_data.csv,1,300,48.0,Training at home,,,,,,,,,,,,,
17,7,1214,B,79.80902599368466,61.9409635340942,3.9904512996842327,0.9729663799749182,B,1912.093499006005,Correct,sub_017_day_05_data.csv,1,300,48.0,Training at home,,,,,,,,,,,,,
17,7,1215,A,52.77221464995884,74.45149200908654,2.638610732497942,1.169481301722727,A,1041.3028400216715,Correct,sub_017_day_05_data.csv,1,300,48.0,Training at home,,,,,,,,,,,,,
17,7,1216,B,38.28993193245424,23.076694760169303,1.914496596622712,0.3624878736384097,B,859.1507170058321,Correct,sub_017_day_05_data.csv,1,300,48.0,Training at home,,,,,,,,,,,,,
17,7,1217,A,55.50930732447476,72.23932024241631,2.775465366223738,1.1347325888694777,A,953.6509190220386,Correct,sub_017_day_05_data.csv,1,300,48.0,Training at home,,,,,,,,,,,,,
17,7,1218,A,38.60173824008599,45.716848742299575,1.9300869120042996,0.7181185807704207,B,662.809333007317,Incorrect,sub_017_day_05_data.csv,0,300,48.0,Training at home,,,,,,,,,,,,,
17,7,1219,B,75.87952693514806,46.46646497463109,3.793976346757403,0.7298935250129424,B,859.8776029830333,Correct,sub_017_day_05_data.csv,1,300,48.0,Training at home,,,,,,,,,,,,,
17,7,1220,B,82.29746096240868,63.27954111617326,4.114873048120433,0.993992707465516,B,716.6234540054575,Correct,sub_017_day_05_data.csv,1,300,48.0,Training at home,,,,,,,,,,,,,
17,7,1221,A,46.41715615566588,77.84072857297971,2.3208578077832938,1.222719305174751,A,479.0038790088147,Correct,sub_017_day_05_data.csv,1,300,48.0,Training at home,,,,,,,,,,,,,
17,7,1222,A,51.327987303597,70.6676250147435,2.56639936517985,1.1100444579647826,A,463.90364301623777,Correct,sub_017_day_05_data.csv,1,300,48.0,Training at home,,,,,,,,,,,,,
17,7,1223,B,65.83186483778695,39.96381437426943,3.291593241889347,0.627750128238155,B,1062.0723309984896,Correct,sub_017_day_05_data.csv,1,300,48.0,Training at home,,,,,,,,,,,,,
17,7,1224,B,82.69614974971091,62.83968102250363,4.134807487485546,0.9870834012711168,B,749.2243729939219,Correct,sub_017_day_05_data.csv,1,300,48.0,Training at home,,,,,,,,,,,,,
17,7,1225,A,24.93709004707634,39.92875727346072,1.246854502353817,0.627199452586371,A,385.2175179927144,Correct,sub_017_day_05_data.csv,1,300,49.0,Training at home,,,,,,,,,,,,,
17,7,1226,B,70.89963421808517,54.039686150896586,3.5449817109042585,0.848853405069774,B,570.0681880116463,Correct,sub_017_day_05_data.csv,1,300,49.0,Training at home,,,,,,,,,,,,,
17,7,1227,B,88.45696287492919,61.96577755282503,4.42284814374646,0.973356157669672,B,429.10570799722336,Correct,sub_017_day_05_data.csv,1,300,49.0,Training at home,,,,,,,,,,,,,
17,7,1228,A,24.243992852698575,45.634048946991385,1.2121996426349286,0.7168179646271259,A,423.62154700094834,Correct,sub_017_day_05_data.csv,1,300,49.0,Training at home,,,,,,,,,,,,,
17,7,1229,B,62.80777155784125,32.972658315716835,3.1403885778920624,0.517933305669912,B,479.5725980075076,Correct,sub_017_day_05_data.csv,1,300,49.0,Training at home,,,,,,,,,,,,,
17,7,1230,A,15.019703105944046,34.89290049729367,0.7509851552972023,0.5480963993236871,A,469.79244000976905,Correct,sub_017_day_05_data.csv,1,300,49.0,Training at home,,,,,,,,,,,,,
17,7,1231,B,65.13587462149118,54.1038490345076,3.2567937310745596,0.8498612732887015,B,550.3117649932392,Correct,sub_017_day_05_data.csv,1,300,49.0,Training at home,,,,,,,,,,,,,
17,7,1232,A,34.852604218798874,59.37156638601543,1.742630210939944,0.9326063839521238,A,429.684750008164,Correct,sub_017_day_05_data.csv,1,300,49.0,Training at home,,,,,,,,,,,,,
17,7,1233,A,41.767561097630626,49.27113315835119,2.0883780548815314,0.7739491498216029,A,557.90047798655,Correct,sub_017_day_05_data.csv,1,300,49.0,Training at home,,,,,,,,,,,,,
17,7,1234,A,46.89046010394586,58.79474653132574,2.344523005197293,0.9235457188624348,B,525.4361660045106,Incorrect,sub_017_day_05_data.csv,0,300,49.0,Training at home,,,,,,,,,,,,,
17,7,1235,B,69.07790224933072,37.28010037574802,3.453895112466536,0.5855944473277004,B,627.8558270132635,Correct,sub_017_day_05_data.csv,1,300,49.0,Training at home,,,,,,,,,,,,,
17,7,1236,B,73.00000504641528,57.980988296441026,3.650000252320764,0.9107632343998744,B,555.3788030229043,Correct,sub_017_day_05_data.csv,1,300,49.0,Training at home,,,,,,,,,,,,,
17,7,1237,A,54.69223325146204,66.4996345876871,2.734611662573102,1.044573817435417,A,542.2917400137521,Correct,sub_017_day_05_data.csv,1,300,49.0,Training at home,,,,,,,,,,,,,
17,7,1238,B,46.623729714231914,22.425072465967073,2.3311864857115956,0.3522522145765044,B,368.83692897390574,Correct,sub_017_day_05_data.csv,1,300,49.0,Training at home,,,,,,,,,,,,,
17,7,1239,A,35.81908626180207,55.943526109407316,1.7909543130901031,0.8787588532061139,A,607.5339980015997,Correct,sub_017_day_05_data.csv,1,300,49.0,Training at home,,,,,,,,,,,,,
17,7,1240,A,45.99199823339279,71.30255639939024,2.2995999116696395,1.1200179368324814,A,479.397498012986,Correct,sub_017_day_05_data.csv,1,300,49.0,Training at home,,,,,,,,,,,,,
17,7,1241,A,12.53389310423541,34.265104451476304,0.6266946552117705,0.5382350020962244,A,561.1997880041599,Correct,sub_017_day_05_data.csv,1,300,49.0,Training at home,,,,,,,,,,,,,
17,7,1242,A,15.05634591568458,39.41351477649971,0.752817295784229,0.6191060423700212,A,611.5526939975098,Correct,sub_017_day_05_data.csv,1,300,49.0,Training at home,,,,,,,,,,,,,
17,7,1243,B,83.21596272818859,65.56424909636068,4.160798136409429,1.0298808164962898,B,623.583556007361,Correct,sub_017_day_05_data.csv,1,300,49.0,Training at home,,,,,,,,,,,,,
17,7,1244,B,49.694406115248746,41.84972275748519,2.4847203057624374,0.6573739078484252,B,618.8177909934893,Correct,sub_017_day_05_data.csv,1,300,49.0,Training at home,,,,,,,,,,,,,
17,7,1245,B,83.8826429959258,63.61555226849944,4.194132149796291,0.9992707583038768,B,453.7874639790971,Correct,sub_017_day_05_data.csv,1,300,49.0,Training at home,,,,,,,,,,,,,
17,7,1246,A,40.60529031822837,65.19855445338473,2.0302645159114183,1.0241364984771375,A,496.0612840077374,Correct,sub_017_day_05_data.csv,1,300,49.0,Training at home,,,,,,,,,,,,,
17,7,1247,A,58.62677002143048,77.67620217171559,2.931338501071524,1.220134930507086,A,506.1279750079848,Correct,sub_017_day_05_data.csv,1,300,49.0,Training at home,,,,,,,,,,,,,
17,7,1248,B,54.9232727462915,46.86100942101213,2.746163637314575,0.7360910146842687,B,363.1839079898782,Correct,sub_017_day_05_data.csv,1,300,49.0,Training at home,,,,,,,,,,,,,
17,7,1249,A,50.11645118036989,72.31093317538486,2.505822559018495,1.1358574821900576,A,485.39307998726144,Correct,sub_017_day_05_data.csv,1,300,49.0,Training at home,,,,,,,,,,,,,
17,7,1250,B,57.96966816221364,37.46085583712248,2.898483408110682,0.5884337474754516,A,470.89754600892775,Incorrect,sub_017_day_05_data.csv,0,300,50.0,Training at home,,,,,,,,,,,,,
17,7,1251,B,64.37522256061065,40.67823681425634,3.2187611280305326,0.6389722496832678,B,497.51871899934486,Correct,sub_017_day_05_data.csv,1,300,50.0,Training at home,,,,,,,,,,,,,
17,7,1252,B,46.480738436100744,38.33147006825181,2.324036921805037,0.6021093238385846,B,519.477800000459,Correct,sub_017_day_05_data.csv,1,300,50.0,Training at home,,,,,,,,,,,,,
17,7,1253,A,15.22908761445899,30.522766930598248,0.7614543807229495,0.4794505017820047,A,554.9883799976669,Correct,sub_017_day_05_data.csv,1,300,50.0,Training at home,,,,,,,,,,,,,
17,7,1254,A,41.570089381894086,51.85457967570386,2.0785044690947045,0.8145298328208892,B,849.7934230254032,Incorrect,sub_017_day_05_data.csv,0,300,50.0,Training at home,,,,,,,,,,,,,
17,7,1255,A,18.505289154506055,42.313349324541925,0.9252644577253027,0.6646565369337977,A,526.4666239963844,Correct,sub_017_day_05_data.csv,1,300,50.0,Training at home,,,,,,,,,,,,,
17,7,1256,B,75.76975369999978,54.8751774408563,3.788487684999989,0.8619772715631525,B,426.8296390073374,Correct,sub_017_day_05_data.csv,1,300,50.0,Training at home,,,,,,,,,,,,,
17,7,1257,A,58.603508042191606,84.94821741060713,2.9301754021095805,1.3343634787635594,A,560.8513030165341,Correct,sub_017_day_05_data.csv,1,300,50.0,Training at home,,,,,,,,,,,,,
17,7,1258,A,48.75565094087007,59.122497001809826,2.4377825470435033,0.9286940112138516,A,677.3070890048984,Correct,sub_017_day_05_data.csv,1,300,50.0,Training at home,,,,,,,,,,,,,
17,7,1259,A,33.496660969952,43.5565836811621,1.6748330484976004,0.6841852165410397,B,746.1263089790009,Incorrect,sub_017_day_05_data.csv,0,300,50.0,Training at home,,,,,,,,,,,,,
17,7,1260,A,34.13446976688587,66.7429220802076,1.7067234883442937,1.048395368431481,A,497.4311050027609,Correct,sub_017_day_05_data.csv,1,300,50.0,Training at home,,,,,,,,,,,,,
17,7,1261,B,33.5013440541941,22.01485448501258,1.675067202709705,0.3458085255998192,B,484.44283098797314,Correct,sub_017_day_05_data.csv,1,300,50.0,Training at home,,,,,,,,,,,,,
17,7,1262,B,82.17632732155144,61.957709289974936,4.108816366077572,0.9732294216931868,B,619.3197559914552,Correct,sub_017_day_05_data.csv,1,300,50.0,Training at home,,,,,,,,,,,,,
17,7,1263,A,23.762292120250585,36.690369363447815,1.1881146060125292,0.5763309742485183,B,863.8982510019559,Incorrect,sub_017_day_05_data.csv,0,300,50.0,Training at home,,,,,,,,,,,,,
17,7,1264,A,42.18018282799843,66.37324314464477,2.1090091413999215,1.0425884652907256,A,503.3592450199649,Correct,sub_017_day_05_data.csv,1,300,50.0,Training at home,,,,,,,,,,,,,
17,7,1265,A,40.44476960748945,58.55499194811127,2.0222384803744724,0.9197796626759792,A,607.3883709905203,Correct,sub_017_day_05_data.csv,1,300,50.0,Training at home,,,,,,,,,,,,,
17,7,1266,B,70.24236670757071,49.158438381376115,3.5121183353785352,0.7721789444043886,B,435.6867790047545,Correct,sub_017_day_05_data.csv,1,300,50.0,Training at home,,,,,,,,,,,,,
17,7,1267,B,76.74428780170904,55.397174601434905,3.837214390085452,0.8701767837874949,B,469.01932498440146,Correct,sub_017_day_05_data.csv,1,300,50.0,Training at home,,,,,,,,,,,,,
17,7,1268,B,41.87310140747252,27.462340444554084,2.093655070373626,0.4313774349549648,B,474.363990011625,Correct,sub_017_day_05_data.csv,1,300,50.0,Training at home,,,,,,,,,,,,,
17,7,1269,B,73.07482572159999,58.37362624915269,3.65374128608,0.916930776938672,B,443.5231770039536,Correct,sub_017_day_05_data.csv,1,300,50.0,Training at home,,,,,,,,,,,,,
17,7,1270,A,24.275920289436876,52.54536570142447,1.2137960144718436,0.825380674338921,A,514.3261640041601,Correct,sub_017_day_05_data.csv,1,300,50.0,Training at home,,,,,,,,,,,,,
17,7,1271,B,82.25616423667991,53.2291986475817,4.112808211833996,0.8361222971385721,B,445.9269700164441,Correct,sub_017_day_05_data.csv,1,300,50.0,Training at home,,,,,,,,,,,,,
17,7,1272,B,54.478898034037606,28.338067643197085,2.72394490170188,0.4451333256239929,B,409.8493370111101,Correct,sub_017_day_05_data.csv,1,300,50.0,Training at home,,,,,,,,,,,,,
17,7,1273,B,68.21088419718785,57.222142710301554,3.4105442098593928,0.8988433158067505,B,791.7950920236763,Correct,sub_017_day_05_data.csv,1,300,50.0,Training at home,,,,,,,,,,,,,
17,7,1274,B,87.94555523224284,64.50890711699282,4.397277761612142,1.0133035434492548,B,480.16277101123706,Correct,sub_017_day_05_data.csv,1,300,50.0,Training at home,,,,,,,,,,,,,
17,7,1275,B,88.33545656028141,66.05059622570494,4.416772828014071,1.0375203393395018,B,514.5288489875384,Correct,sub_017_day_05_data.csv,1,300,51.0,Training at home,,,,,,,,,,,,,
17,7,1276,A,51.789521593849514,69.82203397448559,2.5894760796924756,1.0967619449647044,A,612.0764719962608,Correct,sub_017_day_05_data.csv,1,300,51.0,Training at home,,,,,,,,,,,,,
17,7,1277,A,15.01570396954478,37.63803632099564,0.750785198477239,0.5912168920079285,A,510.13819899526425,Correct,sub_017_day_05_data.csv,1,300,51.0,Training at home,,,,,,,,,,,,,
17,7,1278,B,55.715075720480485,30.327246953423995,2.7857537860240247,0.4763792811624013,B,355.03183500259183,Correct,sub_017_day_05_data.csv,1,300,51.0,Training at home,,,,,,,,,,,,,
17,7,1279,B,86.76401056412391,62.865556727206155,4.338200528206196,0.9874898558901164,B,454.730485973414,Correct,sub_017_day_05_data.csv,1,300,51.0,Training at home,,,,,,,,,,,,,
17,7,1280,B,59.227983269026694,37.10961685850248,2.961399163451335,0.5829164985010166,B,404.8977179918438,Correct,sub_017_day_05_data.csv,1,300,51.0,Training at home,,,,,,,,,,,,,
17,7,1281,A,15.966977824712105,38.21952279450302,0.7983488912356052,0.6003508601745917,A,546.5521500154864,Correct,sub_017_day_05_data.csv,1,300,51.0,Training at home,,,,,,,,,,,,,
17,7,1282,B,43.90046091582291,26.84887168254583,2.1950230457911455,0.4217410901753051,B,430.2326450124383,Correct,sub_017_day_05_data.csv,1,300,51.0,Training at home,,,,,,,,,,,,,
17,7,1283,A,44.29558232542007,62.4697738657484,2.2147791162710035,0.981272913240254,A,1521.287877985742,Correct,sub_017_day_05_data.csv,1,300,51.0,Training at home,,,,,,,,,,,,,
17,7,1284,B,66.40598376869143,49.75543788189493,3.3202991884345714,0.781556590629522,B,1450.896684982581,Correct,sub_017_day_05_data.csv,1,300,51.0,Training at home,,,,,,,,,,,,,
17,7,1285,B,69.41052282796025,59.03864950098633,3.4705261413980124,0.927376937750807,B,1002.8445259958972,Correct,sub_017_day_05_data.csv,1,300,51.0,Training at home,,,,,,,,,,,,,
17,7,1286,A,69.16283965639846,83.63824513605883,3.4581419828199227,1.3137864823929235,A,1394.9783090210983,Correct,sub_017_day_05_data.csv,1,300,51.0,Training at home,,,,,,,,,,,,,
17,7,1287,B,74.7226976304182,52.62130053884731,3.73613488152091,0.8265734559759166,B,504.67084400588647,Correct,sub_017_day_05_data.csv,1,300,51.0,Training at home,,,,,,,,,,,,,
17,7,1288,A,30.28755580355717,48.95567371386008,1.5143777901778583,0.7689939244550088,A,2227.2107340104412,Correct,sub_017_day_05_data.csv,1,300,51.0,Training at home,,,,,,,,,,,,,
17,7,1289,A,13.069991475958208,36.108108738819475,0.6534995737979103,0.5671848457444835,A,1560.793086013291,Correct,sub_017_day_05_data.csv,1,300,51.0,Training at home,,,,,,,,,,,,,
17,7,1290,B,58.15039971739595,47.20184535491309,2.9075199858697975,0.7414448530143823,B,601.790398999583,Correct,sub_017_day_05_data.csv,1,300,51.0,Training at home,,,,,,,,,,,,,
17,7,1291,A,55.53580855110657,64.96913919234261,2.776790427555329,1.0205328519835812,A,1074.182626005495,Correct,sub_017_day_05_data.csv,1,300,51.0,Training at home,,,,,,,,,,,,,
17,7,1292,B,38.66126837261715,12.919660344201876,1.9330634186308575,0.2029415501210999,B,420.9297350025736,Correct,sub_017_day_05_data.csv,1,300,51.0,Training at home,,,,,,,,,,,,,
17,7,1293,A,34.93852043452039,53.2732535343035,1.7469260217260196,0.8368143096809719,B,1097.220249008387,Incorrect,sub_017_day_05_data.csv,0,300,51.0,Training at home,,,,,,,,,,,,,
17,7,1294,B,48.7496169731003,38.55949883703497,2.437480848655015,0.6056911913626662,B,1411.1315680202097,Correct,sub_017_day_05_data.csv,1,300,51.0,Training at home,,,,,,,,,,,,,
17,7,1295,A,22.08644980848984,51.66052641622816,1.1043224904244922,0.8114816513490191,A,708.0546260112897,Correct,sub_017_day_05_data.csv,1,300,51.0,Training at home,,,,,,,,,,,,,
17,7,1296,A,29.29295270036184,52.06301607587648,1.464647635018092,0.8178039441385043,B,774.6659490221646,Incorrect,sub_017_day_05_data.csv,0,300,51.0,Training at home,,,,,,,,,,,,,
17,7,1297,A,36.72167966316327,44.18593107490696,1.8360839831581637,0.6940709822847633,A,1246.3577640010044,Correct,sub_017_day_05_data.csv,1,300,51.0,Training at home,,,,,,,,,,,,,
17,7,1298,B,63.45598373414745,51.26202790649296,3.172799186707373,0.8052220513957663,B,412.2858580085449,Correct,sub_017_day_05_data.csv,1,300,51.0,Training at home,,,,,,,,,,,,,
17,7,1299,A,23.523921156364867,42.509404506379106,1.176196057818243,0.6677361645285873,A,540.2523299853783,Correct,sub_017_day_05_data.csv,1,300,51.0,Training at home,,,,,,,,,,,,,
17,7,1300,B,76.18814142683061,51.38061856174707,3.8094070713415302,0.8070848690524198,B,731.3319520035293,Correct,sub_017_day_05_data.csv,1,300,52.0,Training at home,,,,,,,,,,,,,
17,7,1301,B,40.07577934127527,18.396744779976107,2.003788967063764,0.2889753912536966,B,1150.9538190148303,Correct,sub_017_day_05_data.csv,1,300,52.0,Training at home,,,,,,,,,,,,,
17,7,1302,A,57.11629127792031,66.0215387204447,2.8558145638960157,1.0370639051142154,A,792.1288700017612,Correct,sub_017_day_05_data.csv,1,300,52.0,Training at home,,,,,,,,,,,,,
17,7,1303,A,50.762611348644974,79.05454034205326,2.538130567432249,1.241785815857562,A,706.2474690028466,Correct,sub_017_day_05_data.csv,1,300,52.0,Training at home,,,,,,,,,,,,,
17,7,1304,A,21.539997530511847,35.76709241819037,1.0769998765255924,0.5618281739062703,A,439.24543299362995,Correct,sub_017_day_05_data.csv,1,300,52.0,Training at home,,,,,,,,,,,,,
17,7,1305,A,54.85972115739768,81.60350589411141,2.7429860578698837,1.281824873120559,A,1010.3785160172264,Correct,sub_017_day_05_data.csv,1,300,52.0,Training at home,,,,,,,,,,,,,
17,7,1306,B,38.99645552940099,20.923851814476865,1.949822776470049,0.3286710957258099,B,458.64281099056825,Correct,sub_017_day_05_data.csv,1,300,52.0,Training at home,,,,,,,,,,,,,
17,7,1307,A,26.507261741184855,40.99822283546517,1.3253630870592428,0.6439985783506734,A,875.8084500150289,Correct,sub_017_day_05_data.csv,1,300,52.0,Training at home,,,,,,,,,,,,,
17,7,1308,A,43.31525442065962,56.92721769871848,2.165762721032981,0.894210644558004,B,1901.7028889793437,Incorrect,sub_017_day_05_data.csv,0,300,52.0,Training at home,,,,,,,,,,,,,
17,7,1309,A,42.3605671226409,65.81510195499474,2.118028356132045,1.0338212039853736,A,1457.8899589832872,Correct,sub_017_day_05_data.csv,1,300,52.0,Training at home,,,,,,,,,,,,,
17,7,1310,B,34.570077882480305,20.774503119589607,1.7285038941240152,0.3263251319124047,B,927.555663016392,Correct,sub_017_day_05_data.csv,1,300,52.0,Training at home,,,,,,,,,,,,,
17,7,1311,B,72.8095963887464,41.135988256688854,3.64047981943732,0.6461625925268485,B,1901.3887289911509,Correct,sub_017_day_05_data.csv,1,300,52.0,Training at home,,,,,,,,,,,,,
17,7,1312,A,51.42969279585912,72.87538408573766,2.571484639792956,1.14472385635644,A,1233.75648498768,Correct,sub_017_day_05_data.csv,1,300,52.0,Training at home,,,,,,,,,,,,,
17,7,1313,B,80.24349306148133,50.34264847067921,4.012174653074067,0.7907804729886962,B,1446.8747020000592,Correct,sub_017_day_05_data.csv,1,300,52.0,Training at home,,,,,,,,,,,,,
17,7,1314,A,44.2859051852801,70.17029595384676,2.2142952592640053,1.102232431344133,A,1402.7040109795053,Correct,sub_017_day_05_data.csv,1,300,52.0,Training at home,,,,,,,,,,,,,
17,7,1315,A,40.45253076308297,55.990238047655055,2.022626538154148,0.8794926026162841,A,951.001431007171,Correct,sub_017_day_05_data.csv,1,300,52.0,Training at home,,,,,,,,,,,,,
17,7,1316,A,42.22737485083434,71.59606856751705,2.1113687425417167,1.1246284151881134,A,1082.083754998166,Correct,sub_017_day_05_data.csv,1,300,52.0,Training at home,,,,,,,,,,,,,
17,7,1317,B,47.653493811047134,35.700069874577615,2.382674690552357,0.5607753862530767,B,704.7220180102158,Correct,sub_017_day_05_data.csv,1,300,52.0,Training at home,,,,,,,,,,,,,
17,7,1318,A,54.316135033445576,80.65855532354576,2.715806751672279,1.2669816242680862,A,1063.8120330113452,Correct,sub_017_day_05_data.csv,1,300,52.0,Training at home,,,,,,,,,,,,,
17,7,1319,B,69.64941309434786,60.304850108913115,3.482470654717394,0.9472663703899756,A,1019.1856239980552,Incorrect,sub_017_day_05_data.csv,0,300,52.0,Training at home,,,,,,,,,,,,,
17,7,1320,A,16.54420505830049,41.84339507565504,0.8272102529150246,0.657274512854666,A,544.4953840051312,Correct,sub_017_day_05_data.csv,1,300,52.0,Training at home,,,,,,,,,,,,,
17,7,1321,A,26.40142873063452,56.06546763044156,1.320071436531726,0.8806743061393577,A,566.7370159935672,Correct,sub_017_day_05_data.csv,1,300,52.0,Training at home,,,,,,,,,,,,,
17,7,1322,B,44.82834189299013,27.79006938505111,2.2414170946495067,0.4365253891141359,B,655.2185640030075,Correct,sub_017_day_05_data.csv,1,300,52.0,Training at home,,,,,,,,,,,,,
17,7,1323,B,63.23512431575133,42.369924542967695,3.1617562157875665,0.6655452183867059,A,593.8956989848521,Incorrect,sub_017_day_05_data.csv,0,300,52.0,Training at home,,,,,,,,,,,,,
17,7,1324,B,42.36855781713689,28.53342209106419,2.1184278908568444,0.4482019461153199,B,901.5964420104864,Correct,sub_017_day_05_data.csv,1,300,52.0,Training at home,,,,,,,,,,,,,
17,7,1325,A,48.639552811941094,56.45546991454838,2.431977640597055,0.886800447692524,B,483.2589440047741,Incorrect,sub_017_day_05_data.csv,0,300,53.0,Training at home,,,,,,,,,,,,,
17,7,1326,A,55.069822683799416,67.36274418229941,2.753491134189971,1.058131511243802,A,1809.623363020364,Correct,sub_017_day_05_data.csv,1,300,53.0,Training at home,,,,,,,,,,,,,
17,7,1327,B,46.39723362017391,25.321893559399673,2.319861681008695,0.3977553739059635,B,711.2092220049817,Correct,sub_017_day_05_data.csv,1,300,53.0,Training at home,,,,,,,,,,,,,
17,7,1328,B,82.89966837996717,54.30627951066254,4.1449834189983585,0.8530410437724568,B,1256.2926269893069,Correct,sub_017_day_05_data.csv,1,300,53.0,Training at home,,,,,,,,,,,,,
17,7,1329,A,49.88071445534826,67.5934859109552,2.494035722767413,1.06175599384191,A,1111.3594429916702,Correct,sub_017_day_05_data.csv,1,300,53.0,Training at home,,,,,,,,,,,,,
17,7,1330,A,54.731512308787984,77.28851634548816,2.7365756154393988,1.2140451757892012,B,1033.5626270098146,Incorrect,sub_017_day_05_data.csv,0,300,53.0,Training at home,,,,,,,,,,,,,
17,7,1331,B,53.95826477130792,33.644390646577165,2.697913238565397,0.5284848524489598,B,1013.593999989098,Correct,sub_017_day_05_data.csv,1,300,53.0,Training at home,,,,,,,,,,,,,
17,7,1332,A,34.24264592664199,52.0524774666066,1.7121322963320995,0.8176384040511977,A,867.5911389873363,Correct,sub_017_day_05_data.csv,1,300,53.0,Training at home,,,,,,,,,,,,,
17,7,1333,B,57.94482458141496,38.668038924177246,2.8972412290707483,0.6073961350645969,B,1495.1765410078224,Correct,sub_017_day_05_data.csv,1,300,53.0,Training at home,,,,,,,,,,,,,
17,7,1334,A,41.89879565128915,67.13366205020411,2.094939782564458,1.0545330975275056,A,537.8791989933234,Correct,sub_017_day_05_data.csv,1,300,53.0,Training at home,,,,,,,,,,,,,
17,7,1335,A,34.86756267774578,65.03183180139092,1.7433781338872891,1.021517625183684,B,852.129960025195,Incorrect,sub_017_day_05_data.csv,0,300,53.0,Training at home,,,,,,,,,,,,,
17,7,1336,A,31.470459033139548,61.140361254067685,1.5735229516569773,0.9603905487680254,A,784.1025340021588,Correct,sub_017_day_05_data.csv,1,300,53.0,Training at home,,,,,,,,,,,,,
17,7,1337,A,27.905220098649817,56.58611445011845,1.395261004932491,0.8888526072584167,A,639.9249579990283,Correct,sub_017_day_05_data.csv,1,300,53.0,Training at home,,,,,,,,,,,,,
17,7,1338,B,52.36177197746072,37.338386377718,2.618088598873036,0.5865100017056804,B,1091.3314890058246,Correct,sub_017_day_05_data.csv,1,300,53.0,Training at home,,,,,,,,,,,,,
17,7,1339,A,25.858306606038433,54.745296963123806,1.2929153303019216,0.8599371137897067,B,176.33886900148354,Incorrect,sub_017_day_05_data.csv,0,300,53.0,Training at home,,,,,,,,,,,,,
17,7,1340,A,50.262479060872074,57.203659323527994,2.513123953043604,0.8985529794462441,A,802.7148979890626,Correct,sub_017_day_05_data.csv,1,300,53.0,Training at home,,,,,,,,,,,,,
17,7,1341,A,61.29795849745854,75.72238720975957,3.064897924872927,1.1894444768523118,A,1464.2452689877246,Correct,sub_017_day_05_data.csv,1,300,53.0,Training at home,,,,,,,,,,,,,
17,7,1342,B,62.62483310039213,52.629095588785255,3.1312416550196063,0.8266959003340136,B,658.1552930001635,Correct,sub_017_day_05_data.csv,1,300,53.0,Training at home,,,,,,,,,,,,,
17,7,1343,B,83.73034272226565,67.24629645096825,4.186517136113282,1.056302354557416,B,583.6512520036194,Correct,sub_017_day_05_data.csv,1,300,53.0,Training at home,,,,,,,,,,,,,
17,7,1344,A,64.79091596230879,83.57634860413356,3.239545798115439,1.312814213943028,A,398.9971489936579,Correct,sub_017_day_05_data.csv,1,300,53.0,Training at home,,,,,,,,,,,,,
17,7,1345,A,16.06844284893193,36.28185434299,0.8034221424465966,0.5699140353127616,A,587.1756449923851,Correct,sub_017_day_05_data.csv,1,300,53.0,Training at home,,,,,,,,,,,,,
17,7,1346,B,84.07233334083651,60.8559231273442,4.203616667041826,0.9559226051214488,B,318.61380400368944,Correct,sub_017_day_05_data.csv,1,300,53.0,Training at home,,,,,,,,,,,,,
17,7,1347,B,59.21891091387283,37.89340921112208,2.9609455456936415,0.5952282799856646,B,410.4979909898248,Correct,sub_017_day_05_data.csv,1,300,53.0,Training at home,,,,,,,,,,,,,
17,7,1348,B,65.75246267381688,39.52361192909813,3.2876231336908437,0.620835444398943,B,364.5335740002338,Correct,sub_017_day_05_data.csv,1,300,53.0,Training at home,,,,,,,,,,,,,
17,7,1349,A,36.61032757469124,45.865211540518686,1.830516378734562,0.7204490581551765,A,819.096334016649,Correct,sub_017_day_05_data.csv,1,300,53.0,Training at home,,,,,,,,,,,,,
17,7,1350,B,81.65178695318653,67.51888680124443,4.082589347659326,1.060584193766752,B,491.87864901614375,Correct,sub_017_day_05_data.csv,1,300,54.0,Training at home,,,,,,,,,,,,,
17,7,1351,A,53.43309587015513,73.60569549082223,2.671654793507756,1.1561955610816723,A,426.7274820012972,Correct,sub_017_day_05_data.csv,1,300,54.0,Training at home,,,,,,,,,,,,,
17,7,1352,A,61.21626682347781,73.44088314008977,3.06081334117389,1.1536066947302623,A,519.6588620019611,Correct,sub_017_day_05_data.csv,1,300,54.0,Training at home,,,,,,,,,,,,,
17,7,1353,B,56.08296721674226,28.63825029672382,2.8041483608371127,0.4498485837192663,A,147.0750959997531,Incorrect,sub_017_day_05_data.csv,0,300,54.0,Training at home,,,,,,,,,,,,,
17,7,1354,B,70.4076487594878,42.398797262615126,3.52038243797439,0.6659987500063735,B,356.2347239931114,Correct,sub_017_day_05_data.csv,1,300,54.0,Training at home,,,,,,,,,,,,,
17,7,1355,B,75.47767704758654,62.56490757384581,3.773883852379327,0.982767270032592,B,350.34401901066303,Correct,sub_017_day_05_data.csv,1,300,54.0,Training at home,,,,,,,,,,,,,
17,7,1356,B,39.35175272843976,21.75606051798649,1.967587636421988,0.3417433994718065,A,410.2632949943654,Incorrect,sub_017_day_05_data.csv,0,300,54.0,Training at home,,,,,,,,,,,,,
17,7,1357,A,66.33066970977471,84.35858155349496,3.3165334854887356,1.325101500378576,A,507.5722470064647,Correct,sub_017_day_05_data.csv,1,300,54.0,Training at home,,,,,,,,,,,,,
17,7,1358,A,39.60902953323037,54.159599856031846,1.9804514766615184,0.8507370051453623,B,908.6638540029526,Incorrect,sub_017_day_05_data.csv,0,300,54.0,Training at home,,,,,,,,,,,,,
17,7,1359,A,36.82419620769767,51.62379453313424,1.8412098103848833,0.8109046682786173,A,692.3790940199979,Correct,sub_017_day_05_data.csv,1,300,54.0,Training at home,,,,,,,,,,,,,
17,7,1360,B,77.73983489479245,61.048727094764395,3.886991744739623,0.9589511627596,B,310.57185400277376,Correct,sub_017_day_05_data.csv,1,300,54.0,Training at home,,,,,,,,,,,,,
17,7,1361,B,44.60132125053117,18.80985590773241,2.230066062526558,0.2954645256740735,B,357.34744599903934,Correct,sub_017_day_05_data.csv,1,300,54.0,Training at home,,,,,,,,,,,,,
17,7,1362,A,38.97018813807421,53.63511890887493,1.9485094069037103,0.8424984776926823,A,404.9491790065076,Correct,sub_017_day_05_data.csv,1,300,54.0,Training at home,,,,,,,,,,,,,
17,7,1363,A,30.4753530671143,45.11665309939277,1.523767653355715,0.7086907296580576,B,332.6160770084243,Incorrect,sub_017_day_05_data.csv,0,300,54.0,Training at home,,,,,,,,,,,,,
17,7,1364,A,42.06848035630505,69.76666720593043,2.103424017815253,1.0958922457979747,A,512.6632509927731,Correct,sub_017_day_05_data.csv,1,300,54.0,Training at home,,,,,,,,,,,,,
17,7,1365,A,21.456285420149303,46.3945562916022,1.072814271007465,0.728763986061278,A,559.2732999939471,Correct,sub_017_day_05_data.csv,1,300,54.0,Training at home,,,,,,,,,,,,,
17,7,1366,A,33.36593121210558,50.78834267644849,1.6682965606052789,0.7977814212016577,A,431.5252270025667,Correct,sub_017_day_05_data.csv,1,300,54.0,Training at home,,,,,,,,,,,,,
17,7,1367,B,61.48742581225613,33.6347441594567,3.0743712906128065,0.5283333257836069,B,349.96002601110376,Correct,sub_017_day_05_data.csv,1,300,54.0,Training at home,,,,,,,,,,,,,
17,7,1368,B,40.484141477979136,32.27781704197186,2.024207073898957,0.507018764464871,B,699.325459980173,Correct,sub_017_day_05_data.csv,1,300,54.0,Training at home,,,,,,,,,,,,,
17,7,1369,B,87.27164420720989,59.88042879701459,4.363582210360494,0.9405995760125386,B,371.7560049844906,Correct,sub_017_day_05_data.csv,1,300,54.0,Training at home,,,,,,,,,,,,,
17,7,1370,B,39.476309663357135,18.771967689228703,1.973815483167857,0.2948693789295293,A,307.3849130014423,Incorrect,sub_017_day_05_data.csv,0,300,54.0,Training at home,,,,,,,,,,,,,
17,7,1371,A,40.63481032424784,63.21461610863412,2.031740516212392,0.9929728678319196,A,535.3469619876705,Correct,sub_017_day_05_data.csv,1,300,54.0,Training at home,,,,,,,,,,,,,
17,7,1372,A,16.137504554562927,38.53569552314962,0.8068752277281463,0.6053172897824997,A,538.1881320208777,Correct,sub_017_day_05_data.csv,1,300,54.0,Training at home,,,,,,,,,,,,,
17,7,1373,A,26.95993565155888,58.1581866655584,1.347996782577944,0.9135466598731106,A,492.3510570079088,Correct,sub_017_day_05_data.csv,1,300,54.0,Training at home,,,,,,,,,,,,,
17,7,1374,A,26.88859167214366,52.87728924995013,1.3444295836071831,0.8305945172469293,A,480.2899929927662,Correct,sub_017_day_05_data.csv,1,300,54.0,Training at home,,,,,,,,,,,,,
17,7,1375,B,37.688316804879655,21.338300928149888,1.8844158402439828,0.3351812471798198,B,419.5392190013081,Correct,sub_017_day_05_data.csv,1,300,55.0,Training at home,,,,,,,,,,,,,
17,7,1376,A,36.0213987428832,50.80884994793993,1.80106993714416,0.798103548668971,B,391.6390349913854,Incorrect,sub_017_day_05_data.csv,0,300,55.0,Training at home,,,,,,,,,,,,,
17,7,1377,B,60.9835032848552,45.06446612443467,3.04917516424276,0.7078709785723503,B,441.2382080045063,Correct,sub_017_day_05_data.csv,1,300,55.0,Training at home,,,,,,,,,,,,,
17,7,1378,A,17.25101340546321,37.031563641952765,0.8625506702731605,0.5816904414425085,A,424.24402001779526,Correct,sub_017_day_05_data.csv,1,300,55.0,Training at home,,,,,,,,,,,,,
17,7,1379,A,62.95941618084424,87.32521072194493,3.1479708090422123,1.3717012023862143,A,658.0874680075794,Correct,sub_017_day_05_data.csv,1,300,55.0,Training at home,,,,,,,,,,,,,
17,7,1380,A,39.31221598986308,71.40890765622859,1.965610799493154,1.1216884984683984,A,427.7179529890418,Correct,sub_017_day_05_data.csv,1,300,55.0,Training at home,,,,,,,,,,,,,
17,7,1381,A,58.298324422027136,69.33060694342615,2.9149162211013566,1.0890426272119451,B,381.4857350080274,Incorrect,sub_017_day_05_data.csv,0,300,55.0,Training at home,,,,,,,,,,,,,
17,7,1382,B,64.09208605312125,33.697373109025236,3.2046043026560627,0.5293170990229396,B,446.3759349891916,Correct,sub_017_day_05_data.csv,1,300,55.0,Training at home,,,,,,,,,,,,,
17,7,1383,B,72.45737056277044,57.17979762685977,3.622868528138522,0.8981781607914687,B,625.2869270101655,Correct,sub_017_day_05_data.csv,1,300,55.0,Training at home,,,,,,,,,,,,,
17,7,1384,A,53.10849608112674,67.49801978788261,2.6554248040563366,1.0602564154873524,B,444.1989589831792,Incorrect,sub_017_day_05_data.csv,0,300,55.0,Training at home,,,,,,,,,,,,,
17,7,1385,B,62.834958313468405,49.53239853683704,3.1417479156734203,0.7780530967900453,A,374.8964069818612,Incorrect,sub_017_day_05_data.csv,0,300,55.0,Training at home,,,,,,,,,,,,,
17,7,1386,A,48.3412603475412,77.64902104398644,2.41706301737706,1.219707970351135,A,472.9253860132303,Correct,sub_017_day_05_data.csv,1,300,55.0,Training at home,,,,,,,,,,,,,
17,7,1387,A,52.3899254549603,68.66318567939167,2.619496272748015,1.0785587985122438,A,603.2967659994029,Correct,sub_017_day_05_data.csv,1,300,55.0,Training at home,,,,,,,,,,,,,
17,7,1388,B,67.41506057245876,42.50748202179322,3.3707530286229375,0.6677059662113289,B,633.8897749956232,Correct,sub_017_day_05_data.csv,1,300,55.0,Training at home,,,,,,,,,,,,,
17,7,1389,B,50.4949264230272,26.224091454264904,2.52474632115136,0.4119270652989275,B,475.3956019994803,Correct,sub_017_day_05_data.csv,1,300,55.0,Training at home,,,,,,,,,,,,,
17,7,1390,B,85.36075111011439,65.47171534525333,4.268037555505719,1.02842729973285,B,388.9075389888603,Correct,sub_017_day_05_data.csv,1,300,55.0,Training at home,,,,,,,,,,,,,
17,7,1391,B,51.61256028412412,36.631477686547534,2.580628014206206,0.5754059059509808,B,384.7567600023467,Correct,sub_017_day_05_data.csv,1,300,55.0,Training at home,,,,,,,,,,,,,
17,7,1392,A,17.308701451953535,45.08859078050872,0.8654350725976768,0.7082499277838133,A,418.1000370008406,Correct,sub_017_day_05_data.csv,1,300,55.0,Training at home,,,,,,,,,,,,,
17,7,1393,A,42.927648860827055,61.77325793533212,2.1463824430413525,0.9703320665897338,B,299.4987250131089,Incorrect,sub_017_day_05_data.csv,0,300,55.0,Training at home,,,,,,,,,,,,,
17,7,1394,B,47.62902530412906,22.533346941757355,2.381451265206453,0.3539529860650747,B,423.156826000195,Correct,sub_017_day_05_data.csv,1,300,55.0,Training at home,,,,,,,,,,,,,
17,7,1395,B,49.675685256264984,21.6865589717721,2.48378426281325,0.3406516717368052,B,428.2354640017729,Correct,sub_017_day_05_data.csv,1,300,55.0,Training at home,,,,,,,,,,,,,
17,7,1396,B,56.25039066670997,32.52865952696511,2.8125195333354984,0.5109589890051861,A,372.6087890099734,Incorrect,sub_017_day_05_data.csv,0,300,55.0,Training at home,,,,,,,,,,,,,
17,7,1397,B,66.62114284008729,35.339072781950655,3.331057142004364,0.5551048571822559,B,694.1505259892438,Correct,sub_017_day_05_data.csv,1,300,55.0,Training at home,,,,,,,,,,,,,
17,7,1398,B,39.22086158375417,20.83811682585972,1.9610430791877087,0.3273243736738337,B,1115.012498019496,Correct,sub_017_day_05_data.csv,1,300,55.0,Training at home,,,,,,,,,,,,,
17,7,1399,B,49.96932263568833,26.475628015834985,2.498466131784417,0.4158781923686165,B,565.0651150208432,Correct,sub_017_day_05_data.csv,1,300,55.0,Training at home,,,,,,,,,,,,,
17,7,1400,B,59.85501421091367,37.40101009450001,2.9927507105456836,0.5874936927485946,B,366.26824099221267,Correct,sub_017_day_05_data.csv,1,300,56.0,Training at home,,,,,,,,,,,,,
17,7,1401,A,39.79395126768185,48.30188701968134,1.9896975633840923,0.7587242670777753,A,1039.712119003525,Correct,sub_017_day_05_data.csv,1,300,56.0,Training at home,,,,,,,,,,,,,
17,7,1402,B,37.2187967833627,14.864007180340206,1.860939839168135,0.2334832788033136,B,1259.9396840087138,Correct,sub_017_day_05_data.csv,1,300,56.0,Training at home,,,,,,,,,,,,,
17,7,1403,A,46.58652340755669,58.61353014256896,2.3293261703778345,0.9206991784842928,A,2031.5360439999497,Correct,sub_017_day_05_data.csv,1,300,56.0,Training at home,,,,,,,,,,,,,
17,7,1404,A,33.571359273289396,60.71308080536003,1.67856796366447,0.9536788431746128,A,1191.3174939982127,Correct,sub_017_day_05_data.csv,1,300,56.0,Training at home,,,,,,,,,,,,,
17,7,1405,B,84.02009067853146,65.11173822584558,4.201004533926573,1.022772792363891,B,1032.7017160016112,Correct,sub_017_day_05_data.csv,1,300,56.0,Training at home,,,,,,,,,,,,,
17,7,1406,B,64.28694730076303,56.00005335396438,3.2143473650381513,0.8796467810872548,B,1161.932623013854,Correct,sub_017_day_05_data.csv,1,300,56.0,Training at home,,,,,,,,,,,,,
17,7,1407,A,61.374854558283545,84.1317262809677,3.0687427279141777,1.3215380660905771,A,2708.8905650016386,Correct,sub_017_day_05_data.csv,1,300,56.0,Training at home,,,,,,,,,,,,,
17,7,1408,A,46.98954421734236,70.32623973947993,2.3494772108671182,1.1046819906007237,A,2453.154260001611,Correct,sub_017_day_05_data.csv,1,300,56.0,Training at home,,,,,,,,,,,,,
17,7,1409,A,54.33403900341446,67.86173303572262,2.7167019501707226,1.0659696098244895,A,2080.6317050009966,Correct,sub_017_day_05_data.csv,1,300,56.0,Training at home,,,,,,,,,,,,,
17,7,1410,A,24.38629982273659,55.958280702760696,1.2193149911368295,0.8789906178165424,A,4306.593543995405,Correct,sub_017_day_05_data.csv,1,300,56.0,Training at home,,,,,,,,,,,,,
17,7,1411,B,52.176514647390455,38.190197142453904,2.6088257323695228,0.5998902139093955,B,3028.988556994591,Correct,sub_017_day_05_data.csv,1,300,56.0,Training at home,,,,,,,,,,,,,
17,7,1412,B,36.550497278563654,10.964166953319506,1.8275248639281827,0.1722247317664027,B,6528.107115998864,Correct,sub_017_day_05_data.csv,1,300,56.0,Training at home,,,,,,,,,,,,,
17,7,1413,A,47.558469656084334,75.33301702852091,2.3779234828042166,1.1833282643477807,A,3565.247010992607,Correct,sub_017_day_05_data.csv,1,300,56.0,Training at home,,,,,,,,,,,,,
17,7,1414,A,30.488125659144153,43.95925633758645,1.5244062829572076,0.6905103838371607,A,884.9997790239286,Correct,sub_017_day_05_data.csv,1,300,56.0,Training at home,,,,,,,,,,,,,
17,7,1415,A,39.81835084978904,69.10194867101362,1.9909175424894523,1.0854508714679767,A,847.0823650131933,Correct,sub_017_day_05_data.csv,1,300,56.0,Training at home,,,,,,,,,,,,,
17,7,1416,A,26.76414055494329,50.842376500197375,1.3382070277471645,0.7986301825203321,A,704.7775989922229,Correct,sub_017_day_05_data.csv,1,300,56.0,Training at home,,,,,,,,,,,,,
17,7,1417,A,29.39054384606803,55.44820885681225,1.4695271923034017,0.8709784279963693,A,830.1149749895558,Correct,sub_017_day_05_data.csv,1,300,56.0,Training at home,,,,,,,,,,,,,
17,7,1418,B,39.38514429170409,26.527135448206614,1.9692572145852043,0.4166872692243364,B,941.7430980247444,Correct,sub_017_day_05_data.csv,1,300,56.0,Training at home,,,,,,,,,,,,,
17,7,1419,B,78.71937429464649,60.249646716275635,3.935968714732324,0.9463992375261596,A,3063.8250570045784,Incorrect,sub_017_day_05_data.csv,0,300,56.0,Training at home,,,,,,,,,,,,,
17,7,1420,A,50.97489640373796,76.62705893217522,2.5487448201868976,1.203655027037569,A,1279.6216290153095,Correct,sub_017_day_05_data.csv,1,300,56.0,Training at home,,,,,,,,,,,,,
17,7,1421,B,77.38525496019604,51.83622988479639,3.869262748009802,0.8142415949793401,B,1425.8778799849097,Correct,sub_017_day_05_data.csv,1,300,56.0,Training at home,,,,,,,,,,,,,
17,7,1422,A,28.42404355639902,60.625973524300605,1.421202177819951,0.9523105652033604,A,1034.842930996092,Correct,sub_017_day_05_data.csv,1,300,56.0,Training at home,,,,,,,,,,,,,
17,7,1423,B,67.60997805409758,46.43856907663616,3.3804989027048795,0.7294553372719114,B,845.7931290031411,Correct,sub_017_day_05_data.csv,1,300,56.0,Training at home,,,,,,,,,,,,,
17,7,1424,B,89.52787658947524,67.82733205871656,4.4763938294737615,1.0654292405412973,B,471.6277600091416,Correct,sub_017_day_05_data.csv,1,300,56.0,Training at home,,,,,,,,,,,,,
17,7,1425,A,20.043833670279614,51.19910445510917,1.0021916835139806,0.8042336521327372,A,679.0403529885225,Correct,sub_017_day_05_data.csv,1,300,57.0,Training at home,,,,,,,,,,,,,
17,7,1426,B,55.98832285415996,45.98238640219371,2.7994161427079978,0.7222896365782947,B,504.3366640165914,Correct,sub_017_day_05_data.csv,1,300,57.0,Training at home,,,,,,,,,,,,,
17,7,1427,A,60.999523719407456,85.66101305212547,3.049976185970373,1.345560046518084,A,475.54813299211673,Correct,sub_017_day_05_data.csv,1,300,57.0,Training at home,,,,,,,,,,,,,
17,7,1428,B,76.66418880859217,56.51912680258587,3.833209440429608,0.8878003677515687,B,545.1096809993032,Correct,sub_017_day_05_data.csv,1,300,57.0,Training at home,,,,,,,,,,,,,
17,7,1429,A,56.86088311575026,82.40580231581278,2.8430441557875135,1.294427315842651,A,1085.2268250018824,Correct,sub_017_day_05_data.csv,1,300,57.0,Training at home,,,,,,,,,,,,,
17,7,1430,B,77.08843782975373,56.88647391928316,3.854421891487686,0.8935706427672367,B,1390.5516959785018,Correct,sub_017_day_05_data.csv,1,300,57.0,Training at home,,,,,,,,,,,,,
17,7,1431,B,83.039557166523,67.13009753299986,4.151977858326149,1.0544771062221932,B,1746.9709200086072,Correct,sub_017_day_05_data.csv,1,300,57.0,Training at home,,,,,,,,,,,,,
17,7,1432,B,44.09177787820379,17.14561214454564,2.2045888939101896,0.2693226457730227,B,3913.971255009528,Correct,sub_017_day_05_data.csv,1,300,57.0,Training at home,,,,,,,,,,,,,
17,7,1433,A,56.20492507600092,76.57605488005638,2.8102462538000457,1.2028538572603695,A,1318.5520750121211,Correct,sub_017_day_05_data.csv,1,300,57.0,Training at home,,,,,,,,,,,,,
17,7,1434,B,45.492965974999464,24.79653687159137,2.274648298749973,0.3895030903512995,B,1674.045648018364,Correct,sub_017_day_05_data.csv,1,300,57.0,Training at home,,,,,,,,,,,,,
17,7,1435,B,59.54897883866363,52.23986939148805,2.9774489419331815,0.8205819495239458,B,5242.681111005368,Correct,sub_017_day_05_data.csv,1,300,57.0,Training at home,,,,,,,,,,,,,
17,7,1436,B,44.40078626223747,15.186233890398402,2.220039313111873,0.2385448041288597,B,3990.7651790126697,Correct,sub_017_day_05_data.csv,1,300,57.0,Training at home,,,,,,,,,,,,,
17,7,1437,A,50.153359061461856,67.04477778743703,2.507667953073093,1.0531369067928615,A,1209.797546005575,Correct,sub_017_day_05_data.csv,1,300,57.0,Training at home,,,,,,,,,,,,,
17,7,1438,A,25.794849835635063,40.6602066825598,1.289742491781753,0.6386890330368625,A,1193.806959025096,Correct,sub_017_day_05_data.csv,1,300,57.0,Training at home,,,,,,,,,,,,,
17,7,1439,B,38.50552760659753,24.645686297881294,1.9252763803298765,0.3871335350805124,B,1659.2914759821724,Correct,sub_017_day_05_data.csv,1,300,57.0,Training at home,,,,,,,,,,,,,
17,7,1440,A,56.48184552366836,66.97983748330914,2.8240922761834177,1.0521168268810113,A,2031.4281519968065,Correct,sub_017_day_05_data.csv,1,300,57.0,Training at home,,,,,,,,,,,,,
17,7,1441,B,56.43582387325882,27.86260809639308,2.821791193662941,0.4376648245274,B,1136.2260219757443,Correct,sub_017_day_05_data.csv,1,300,57.0,Training at home,,,,,,,,,,,,,
17,7,1442,A,45.07472168501192,54.75226878274794,2.253736084250596,0.8600466268762735,A,906.5765269915572,Correct,sub_017_day_05_data.csv,1,300,57.0,Training at home,,,,,,,,,,,,,
17,7,1443,A,54.21750861814078,66.1647287027692,2.710875430907039,1.0393131280969072,A,1208.2946890150197,Correct,sub_017_day_05_data.csv,1,300,57.0,Training at home,,,,,,,,,,,,,
17,7,1444,B,56.79702171870087,34.48795901570204,2.839851085935043,0.541735593405177,B,876.1590399954002,Correct,sub_017_day_05_data.csv,1,300,57.0,Training at home,,,,,,,,,,,,,
17,7,1445,B,42.42229823618494,31.72177306271903,2.121114911809247,0.4982844460634035,B,776.4912830025423,Correct,sub_017_day_05_data.csv,1,300,57.0,Training at home,,,,,,,,,,,,,
17,7,1446,B,62.05806325797994,50.88117374309043,3.102903162898997,0.799239608186594,B,971.0471360012888,Correct,sub_017_day_05_data.csv,1,300,57.0,Training at home,,,,,,,,,,,,,
17,7,1447,B,53.477439986992835,43.0129636742415,2.673871999349642,0.6756460534406087,B,1177.6869320019614,Correct,sub_017_day_05_data.csv,1,300,57.0,Training at home,,,,,,,,,,,,,
17,7,1448,A,58.786119422854775,71.39223707159509,2.9393059711427387,1.1214266375373203,A,2848.438577988418,Correct,sub_017_day_05_data.csv,1,300,57.0,Training at home,,,,,,,,,,,,,
17,7,1449,B,71.98328870108247,58.99049938549754,3.599164435054123,0.9266205975053616,B,1688.180116994772,Correct,sub_017_day_05_data.csv,1,300,57.0,Training at home,,,,,,,,,,,,,
17,7,1450,B,46.66510290142412,35.10482225961087,2.333255145071206,0.5514252585818447,B,2329.565146006644,Correct,sub_017_day_05_data.csv,1,300,58.0,Training at home,,,,,,,,,,,,,
17,7,1451,A,15.39454445341508,37.243561445973185,0.769727222670754,0.5850204951609471,A,2075.407262018416,Correct,sub_017_day_05_data.csv,1,300,58.0,Training at home,,,,,,,,,,,,,
17,7,1452,A,62.381256411558105,75.84471499169592,3.119062820577905,1.1913659971576178,A,3111.3132299797144,Correct,sub_017_day_05_data.csv,1,300,58.0,Training at home,,,,,,,,,,,,,
17,7,1453,A,28.287298508387124,42.20582206116015,1.4143649254193562,0.6629675026302937,A,3980.106025992427,Correct,sub_017_day_05_data.csv,1,300,58.0,Training at home,,,,,,,,,,,,,
17,7,1454,B,56.06375866311697,36.38460574548518,2.8031879331558485,0.5715280505688861,B,1221.0796940198634,Correct,sub_017_day_05_data.csv,1,300,58.0,Training at home,,,,,,,,,,,,,
17,7,1455,A,22.939187243427927,45.02300052507249,1.1469593621713965,0.7072196384606856,A,1572.6429859932978,Correct,sub_017_day_05_data.csv,1,300,58.0,Training at home,,,,,,,,,,,,,
17,7,1456,B,80.53876758603839,49.05831221987388,4.026938379301919,0.7706061663373508,B,868.9266500005033,Correct,sub_017_day_05_data.csv,1,300,58.0,Training at home,,,,,,,,,,,,,
17,7,1457,A,33.67649647657308,66.60111784036849,1.683824823828654,1.046167912640849,A,822.9815440136008,Correct,sub_017_day_05_data.csv,1,300,58.0,Training at home,,,,,,,,,,,,,
17,7,1458,A,32.70933200721487,47.16908417139023,1.6354666003607434,0.7409302415469908,A,4176.840494008502,Correct,sub_017_day_05_data.csv,1,300,58.0,Training at home,,,,,,,,,,,,,
17,7,1459,B,86.92376096421573,68.86011299740737,4.346188048210786,1.08165212559009,B,887.7750799874775,Correct,sub_017_day_05_data.csv,1,300,58.0,Training at home,,,,,,,,,,,,,
17,7,1460,B,51.69176160789264,29.141342483347643,2.584588080394632,0.4577511373071454,B,1260.98046900006,Correct,sub_017_day_05_data.csv,1,300,58.0,Training at home,,,,,,,,,,,,,
17,7,1461,B,73.65562919251326,57.846301965958986,3.682781459625663,0.9086475864679676,B,2709.319036017405,Correct,sub_017_day_05_data.csv,1,300,58.0,Training at home,,,,,,,,,,,,,
17,7,1462,B,64.18096787747498,45.61438075116183,3.2090483938737493,0.7165090173294886,B,3782.293008000124,Correct,sub_017_day_05_data.csv,1,300,58.0,Training at home,,,,,,,,,,,,,
17,7,1463,A,27.213886382295563,57.21134457905052,1.360694319114778,0.8986736991576968,A,2014.5155339851044,Correct,sub_017_day_05_data.csv,1,300,58.0,Training at home,,,,,,,,,,,,,
17,7,1464,A,31.14382118874451,56.5125146657718,1.5571910594372256,0.8876965045493707,A,4803.025233995868,Correct,sub_017_day_05_data.csv,1,300,58.0,Training at home,,,,,,,,,,,,,
17,7,1465,A,15.649547257673015,41.013335195283176,0.7824773628836509,0.6442359627435866,A,1007.1502749924548,Correct,sub_017_day_05_data.csv,1,300,58.0,Training at home,,,,,,,,,,,,,
17,7,1466,A,55.86542717701453,79.96056147314329,2.793271358850726,1.25601756250471,A,978.8829490134958,Correct,sub_017_day_05_data.csv,1,300,58.0,Training at home,,,,,,,,,,,,,
17,7,1467,A,41.03370220694973,70.57458100777826,2.0516851103474862,1.1085829261210698,A,887.2657809988596,Correct,sub_017_day_05_data.csv,1,300,58.0,Training at home,,,,,,,,,,,,,
17,7,1468,A,33.34848884412739,64.52709198137906,1.667424442206369,1.0135891906310666,A,923.9788820268586,Correct,sub_017_day_05_data.csv,1,300,58.0,Training at home,,,,,,,,,,,,,
17,7,1469,B,63.71781617634051,37.309919646224515,3.1858908088170255,0.586062847333022,B,2149.020618002396,Correct,sub_017_day_05_data.csv,1,300,58.0,Training at home,,,,,,,,,,,,,
17,7,1470,B,46.96341032146514,24.783003758509544,2.348170516073257,0.389290512708109,B,1598.6874510126654,Correct,sub_017_day_05_data.csv,1,300,58.0,Training at home,,,,,,,,,,,,,
17,7,1471,B,48.98161026369911,40.435818243699,2.4490805131849553,0.6351643476814846,B,2179.1395689942874,Correct,sub_017_day_05_data.csv,1,300,58.0,Training at home,,,,,,,,,,,,,
17,7,1472,B,36.88395880474052,20.696736417328328,1.8441979402370263,0.325103575409815,B,1445.4954680113588,Correct,sub_017_day_05_data.csv,1,300,58.0,Training at home,,,,,,,,,,,,,
17,7,1473,A,56.89361175765245,69.128008550325,2.8446805878826225,1.085860219094967,A,1369.837373989867,Correct,sub_017_day_05_data.csv,1,300,58.0,Training at home,,,,,,,,,,,,,
17,7,1474,B,62.148579286498574,47.33452962968161,3.107428964324929,0.7435290527286806,B,1025.514606008073,Correct,sub_017_day_05_data.csv,1,300,58.0,Training at home,,,,,,,,,,,,,
17,7,1475,A,13.057713659093114,37.618238264856984,0.6528856829546557,0.5909059048693257,A,636.6868100012653,Correct,sub_017_day_05_data.csv,1,300,59.0,Training at home,,,,,,,,,,,,,
17,7,1476,B,42.34302301414476,25.522016464848285,2.117151150707238,0.4008988971538256,B,1190.3049859975,Correct,sub_017_day_05_data.csv,1,300,59.0,Training at home,,,,,,,,,,,,,
17,7,1477,A,20.043258914033483,36.89390056327886,1.0021629457016743,0.579528034859346,A,1407.0308879890945,Correct,sub_017_day_05_data.csv,1,300,59.0,Training at home,,,,,,,,,,,,,
17,7,1478,A,16.35570106405788,44.15827397597172,0.817785053202894,0.6936365455905905,A,755.1728260004893,Correct,sub_017_day_05_data.csv,1,300,59.0,Training at home,,,,,,,,,,,,,
17,7,1479,A,48.77117170459806,75.90599666458354,2.438558585229903,1.192328607424335,A,1065.678161015967,Correct,sub_017_day_05_data.csv,1,300,59.0,Training at home,,,,,,,,,,,,,
17,7,1480,A,46.70133751250371,77.7957994662697,2.3350668756251856,1.2220135604168882,A,1534.5512210042216,Correct,sub_017_day_05_data.csv,1,300,59.0,Training at home,,,,,,,,,,,,,
17,7,1481,B,84.24361455485784,67.5476329071569,4.212180727742893,1.0610357365425214,B,1779.0276279847603,Correct,sub_017_day_05_data.csv,1,300,59.0,Training at home,,,,,,,,,,,,,
17,7,1482,A,52.93842638082041,73.48652678088855,2.646921319041021,1.1543236633633454,A,1691.2653160106856,Correct,sub_017_day_05_data.csv,1,300,59.0,Training at home,,,,,,,,,,,,,
17,7,1483,B,46.187051839613915,21.54604404618443,2.3093525919806956,0.3384444684470756,B,1576.105115993414,Correct,sub_017_day_05_data.csv,1,300,59.0,Training at home,,,,,,,,,,,,,
17,7,1484,A,30.917642738565284,61.111229076662745,1.5458821369282645,0.9599329415954332,A,2764.2748059879523,Correct,sub_017_day_05_data.csv,1,300,59.0,Training at home,,,,,,,,,,,,,
17,7,1485,B,42.317874910617086,22.45231935699505,2.115893745530854,0.3526802077399378,B,1106.907070003217,Correct,sub_017_day_05_data.csv,1,300,59.0,Training at home,,,,,,,,,,,,,
17,7,1486,B,47.8993097960024,36.521669289910186,2.39496548980012,0.573681039690089,B,2352.6619199838024,Correct,sub_017_day_05_data.csv,1,300,59.0,Training at home,,,,,,,,,,,,,
17,7,1487,B,55.81338228888674,33.24292194387985,2.790669114444337,0.5221785968137593,B,3881.6456539789215,Correct,sub_017_day_05_data.csv,1,300,59.0,Training at home,,,,,,,,,,,,,
17,7,1488,B,66.680273213733,52.79633309881078,3.3340136606866504,0.8293228609985178,A,2540.945687011117,Incorrect,sub_017_day_05_data.csv,0,300,59.0,Training at home,,,,,,,,,,,,,
17,7,1489,B,80.82452137766965,60.54454345973464,4.041226068883483,0.9510314647402516,B,1212.100475007901,Correct,sub_017_day_05_data.csv,1,300,59.0,Training at home,,,,,,,,,,,,,
17,7,1490,B,65.16624219255075,39.865633799867545,3.258312109627538,0.6262079113818242,B,792.1890660072677,Correct,sub_017_day_05_data.csv,1,300,59.0,Training at home,,,,,,,,,,,,,
17,7,1491,B,80.9621417853771,67.12830397186889,4.048107089268854,1.0544489330298292,B,2008.1778290041257,Correct,sub_017_day_05_data.csv,1,300,59.0,Training at home,,,,,,,,,,,,,
17,7,1492,A,26.543533959659392,38.50547133590777,1.3271766979829696,0.604842529359501,A,1240.8239229989704,Correct,sub_017_day_05_data.csv,1,300,59.0,Training at home,,,,,,,,,,,,,
17,7,1493,B,75.8860134982477,49.54023481195635,3.7943006749123858,0.7781761887117771,B,1114.837298024213,Correct,sub_017_day_05_data.csv,1,300,59.0,Training at home,,,,,,,,,,,,,
17,7,1494,B,65.19102642008978,32.17200405447029,3.259551321004489,0.5053566579439246,B,4829.56363298581,Correct,sub_017_day_05_data.csv,1,300,59.0,Training at home,,,,,,,,,,,,,
17,7,1495,A,33.61807032009268,47.83493622647569,1.6809035160046335,0.7513894211701615,A,2141.0558600036893,Correct,sub_017_day_05_data.csv,1,300,59.0,Training at home,,,,,,,,,,,,,
17,7,1496,B,45.00508248752517,17.68663532644546,2.2502541243762586,0.2778210180414139,B,1304.358391003916,Correct,sub_017_day_05_data.csv,1,300,59.0,Training at home,,,,,,,,,,,,,
17,7,1497,A,19.980181581075858,32.30959947425413,0.9990090790537928,0.5075180017437271,A,1286.20662400499,Correct,sub_017_day_05_data.csv,1,300,59.0,Training at home,,,,,,,,,,,,,
17,7,1498,A,30.475661726587976,47.69602205766023,1.5237830863293989,0.7492073625090107,A,1143.4719109965954,Correct,sub_017_day_05_data.csv,1,300,59.0,Training at home,,,,,,,,,,,,,
17,7,1499,B,68.30170135076389,36.309777613247554,3.4150850675381945,0.5703526530162881,B,1030.4906080127694,Correct,sub_017_day_05_data.csv,1,300,59.0,Training at home,,,,,,,,,,,,,
