subject,day,trial,cat,x,y,xt,yt,resp,rt,fb,f_name,acc,n_trials,block,session_type,ns_left_digit,ns_right_digit,ns_left_size,ns_right_size,ns_congruent,ns_cue,ns_correct_side,ns_resp,ns_rt,ns_fb,acc_stroop,acc_stroop_mean,resp_key
17,14,3000,A,50.01124426555489,68.41111913510497,2.5005622132777447,1.0745993464935093,B,572.6749020104762,Incorrect,sub_017_day_11_data.csv,0,300,120.0,Training at home,,,,,,,,,,,,,
17,14,3001,A,15.931909762423423,43.69043360004983,0.7965954881211712,0.6862877261503461,A,3648.931336007081,Correct,sub_017_day_11_data.csv,1,300,120.0,Training at home,,,,,,,,,,,,,
17,14,3002,B,84.25071298087416,64.05907336720682,4.212535649043708,1.0062375714309326,B,460.48901401809417,Correct,sub_017_day_11_data.csv,1,300,120.0,Training at home,,,,,,,,,,,,,
17,14,3003,B,61.26556322262791,40.326376928003896,3.0632781611313953,0.6334452475145498,B,517.876363999676,Correct,sub_017_day_11_data.csv,1,300,120.0,Training at home,,,,,,,,,,,,,
17,14,3004,A,20.586168747491673,33.39596713484438,1.0293084373745836,0.5245826250517663,A,455.0053289858624,Correct,sub_017_day_11_data.csv,1,300,120.0,Training at home,,,,,,,,,,,,,
17,14,3005,B,33.758550402316665,20.607172562735865,1.6879275201158332,0.3236967096717407,A,526.7598019854631,Incorrect,sub_017_day_11_data.csv,0,300,120.0,Training at home,,,,,,,,,,,,,
17,14,3006,A,50.06095593939777,80.84581313872907,2.5030477969698888,1.2699230631506222,A,577.127180993557,Correct,sub_017_day_11_data.csv,1,300,120.0,Training at home,,,,,,,,,,,,,
17,14,3007,A,33.590916077236216,45.521848324907346,1.6795458038618107,0.7150555213767887,B,807.2272799909115,Incorrect,sub_017_day_11_data.csv,0,300,120.0,Training at home,,,,,,,,,,,,,
17,14,3008,B,40.001070715211966,27.779825503643636,2.0000535357605984,0.4363644786012661,B,530.3569739917293,Correct,sub_017_day_11_data.csv,1,300,120.0,Training at home,,,,,,,,,,,,,
17,14,3009,A,65.92213234996586,84.16159853023336,3.296106617498294,1.322007298284773,A,564.398041984532,Correct,sub_017_day_11_data.csv,1,300,120.0,Training at home,,,,,,,,,,,,,
17,14,3010,B,55.649432858196214,41.18860598809557,2.7824716429098104,0.6469891099190279,B,394.85171998967417,Correct,sub_017_day_11_data.csv,1,300,120.0,Training at home,,,,,,,,,,,,,
17,14,3011,B,37.26425905902797,15.093916991911884,1.863212952951398,0.2370946936784225,B,345.3265230054967,Correct,sub_017_day_11_data.csv,1,300,120.0,Training at home,,,,,,,,,,,,,
17,14,3012,B,51.36990719334822,32.78211515971729,2.568495359667411,0.5149402607745122,B,372.3305570019875,Correct,sub_017_day_11_data.csv,1,300,120.0,Training at home,,,,,,,,,,,,,
17,14,3013,A,20.427240560364087,34.40176252579678,1.0213620280182043,0.540381622107919,A,591.5035989892203,Correct,sub_017_day_11_data.csv,1,300,120.0,Training at home,,,,,,,,,,,,,
17,14,3014,B,50.478221297924485,35.19771719057961,2.523911064896224,0.5528844487452803,B,449.3092820048332,Correct,sub_017_day_11_data.csv,1,300,120.0,Training at home,,,,,,,,,,,,,
17,14,3015,B,62.74390287795932,55.034395540475806,3.1371951438979657,0.8644782636235683,B,467.9352209786885,Correct,sub_017_day_11_data.csv,1,300,120.0,Training at home,,,,,,,,,,,,,
17,14,3016,B,73.23066727156969,55.47422098907836,3.6615333635784846,0.8713870256145264,B,456.534074008232,Correct,sub_017_day_11_data.csv,1,300,120.0,Training at home,,,,,,,,,,,,,
17,14,3017,B,31.788786503943495,18.62669328087025,1.5894393251971746,0.2925874138592617,B,381.84879400068894,Correct,sub_017_day_11_data.csv,1,300,120.0,Training at home,,,,,,,,,,,,,
17,14,3018,A,22.833809824622634,38.79334797073476,1.1416904912311316,0.6093644849650641,A,472.47888598940335,Correct,sub_017_day_11_data.csv,1,300,120.0,Training at home,,,,,,,,,,,,,
17,14,3019,B,81.14627722281337,53.06500453122413,4.057313861140668,0.8335431419900142,B,332.4544839852024,Correct,sub_017_day_11_data.csv,1,300,120.0,Training at home,,,,,,,,,,,,,
17,14,3020,A,44.83258644886512,54.22023688738392,2.241629322443256,0.8516894894065181,B,519.166882004356,Incorrect,sub_017_day_11_data.csv,0,300,120.0,Training at home,,,,,,,,,,,,,
17,14,3021,B,66.32093950017085,52.00840039750317,3.316046975008543,0.8169460430687622,B,523.6109370016493,Correct,sub_017_day_11_data.csv,1,300,120.0,Training at home,,,,,,,,,,,,,
17,14,3022,A,19.326325554014076,38.819892302643765,0.9663162777007038,0.6097814423556631,A,425.6381190207321,Correct,sub_017_day_11_data.csv,1,300,120.0,Training at home,,,,,,,,,,,,,
17,14,3023,B,33.03847413602528,19.73153882724892,1.651923706801264,0.3099422871185349,B,422.4615190178156,Correct,sub_017_day_11_data.csv,1,300,120.0,Training at home,,,,,,,,,,,,,
17,14,3024,B,85.30768976147203,59.347147492107055,4.265384488073602,0.9322228128635672,B,360.54283200064674,Correct,sub_017_day_11_data.csv,1,300,120.0,Training at home,,,,,,,,,,,,,
17,14,3025,A,41.824946492474176,70.65412553889716,2.091247324623709,1.1098324086940514,A,714.5343309966847,Correct,sub_017_day_11_data.csv,1,300,121.0,Training at home,,,,,,,,,,,,,
17,14,3026,A,24.59601301581196,42.63466994537674,1.229800650790598,0.6697038294431056,A,740.3946880076546,Correct,sub_017_day_11_data.csv,1,300,121.0,Training at home,,,,,,,,,,,,,
17,14,3027,A,48.92345561416473,62.043693722769234,2.4461727807082365,0.9745800620051348,B,520.0888330000453,Incorrect,sub_017_day_11_data.csv,0,300,121.0,Training at home,,,,,,,,,,,,,
17,14,3028,A,24.117574886559176,56.20678399159861,1.2058787443279586,0.882894098349573,A,486.9092730223201,Correct,sub_017_day_11_data.csv,1,300,121.0,Training at home,,,,,,,,,,,,,
17,14,3029,B,50.4140906896086,21.50338321689133,2.52070453448043,0.3377743537075592,B,431.4031960093416,Correct,sub_017_day_11_data.csv,1,300,121.0,Training at home,,,,,,,,,,,,,
17,14,3030,B,54.51637069016124,26.382958842646698,2.725818534508062,0.4144225484001035,B,730.3960470017046,Correct,sub_017_day_11_data.csv,1,300,121.0,Training at home,,,,,,,,,,,,,
17,14,3031,B,42.766421301867936,27.90286450140177,2.138321065093397,0.438297170658576,B,1003.655746986624,Correct,sub_017_day_11_data.csv,1,300,121.0,Training at home,,,,,,,,,,,,,
17,14,3032,A,42.108576214533365,67.70012309518292,2.1054288107266683,1.0634310468147568,A,1455.6219259975478,Correct,sub_017_day_11_data.csv,1,300,121.0,Training at home,,,,,,,,,,,,,
17,14,3033,A,18.803302904156237,37.63404122414823,0.940165145207812,0.5911541371733976,A,556.610252999235,Correct,sub_017_day_11_data.csv,1,300,121.0,Training at home,,,,,,,,,,,,,
17,14,3034,B,40.9452230365178,18.300606541358313,2.0472611518258903,0.2874652553328429,B,316.4706249954179,Correct,sub_017_day_11_data.csv,1,300,121.0,Training at home,,,,,,,,,,,,,
17,14,3035,B,47.19263548407048,40.170264949091504,2.359631774203524,0.6309930462841071,A,649.3716450058855,Incorrect,sub_017_day_11_data.csv,0,300,121.0,Training at home,,,,,,,,,,,,,
17,14,3036,A,45.0533090217465,75.59129063657241,2.2526654510873247,1.187385216696134,A,637.0741809951141,Correct,sub_017_day_11_data.csv,1,300,121.0,Training at home,,,,,,,,,,,,,
17,14,3037,A,34.694356015687184,54.95228974768205,1.734717800784359,0.8631885488462783,A,611.0767039936036,Correct,sub_017_day_11_data.csv,1,300,121.0,Training at home,,,,,,,,,,,,,
17,14,3038,B,83.32901490338776,55.61106940860527,4.166450745169388,0.8735366355617319,B,1192.3401179956272,Correct,sub_017_day_11_data.csv,1,300,121.0,Training at home,,,,,,,,,,,,,
17,14,3039,A,42.886193147318295,56.80096358694356,2.144309657365915,0.8922274496078163,A,500.05529599729925,Correct,sub_017_day_11_data.csv,1,300,121.0,Training at home,,,,,,,,,,,,,
17,14,3040,A,25.477897569574928,37.26153616162736,1.2738948784787465,0.5853028413341947,A,619.7017189988401,Correct,sub_017_day_11_data.csv,1,300,121.0,Training at home,,,,,,,,,,,,,
17,14,3041,A,57.291868262663584,68.92592296588349,2.864593413133179,1.082685866157578,A,1018.0651109840256,Correct,sub_017_day_11_data.csv,1,300,121.0,Training at home,,,,,,,,,,,,,
17,14,3042,A,36.81644528742563,45.95390573353667,1.8408222643712815,0.7218422632811834,A,851.4516509894747,Correct,sub_017_day_11_data.csv,1,300,121.0,Training at home,,,,,,,,,,,,,
17,14,3043,B,60.60273216941538,31.32143012461401,3.030136608470769,0.491995873897067,B,1011.2021370150616,Correct,sub_017_day_11_data.csv,1,300,121.0,Training at home,,,,,,,,,,,,,
17,14,3044,B,34.25795188099975,22.3278110116806,1.712897594049987,0.3507244352251853,B,1794.3853460019454,Correct,sub_017_day_11_data.csv,1,300,121.0,Training at home,,,,,,,,,,,,,
17,14,3045,A,61.17807908667494,87.97219097367011,3.058903954333747,1.3818639444154015,A,1523.3488180092536,Correct,sub_017_day_11_data.csv,1,300,121.0,Training at home,,,,,,,,,,,,,
17,14,3046,B,69.86795745249293,58.55671654652622,3.493397872624646,0.9198067526045334,B,1819.0963380038736,Correct,sub_017_day_11_data.csv,1,300,121.0,Training at home,,,,,,,,,,,,,
17,14,3047,B,58.6557874176335,37.05418279015568,2.932789370881675,0.5820457421916321,B,1114.0485249925405,Correct,sub_017_day_11_data.csv,1,300,121.0,Training at home,,,,,,,,,,,,,
17,14,3048,A,20.644780298180308,47.38889954394127,1.0322390149090157,0.744383093344753,A,843.8851730024908,Correct,sub_017_day_11_data.csv,1,300,121.0,Training at home,,,,,,,,,,,,,
17,14,3049,A,35.290984565385024,66.51798307334337,1.7645492282692512,1.0448620347741289,A,818.799748987658,Correct,sub_017_day_11_data.csv,1,300,121.0,Training at home,,,,,,,,,,,,,
17,14,3050,A,50.63654210621871,72.20175820150305,2.531827105310936,1.1341425657105428,A,671.5405760041904,Correct,sub_017_day_11_data.csv,1,300,122.0,Training at home,,,,,,,,,,,,,
17,14,3051,B,89.43899732793948,64.75692519715261,4.471949866396974,1.017199402342192,B,834.555238019675,Correct,sub_017_day_11_data.csv,1,300,122.0,Training at home,,,,,,,,,,,,,
17,14,3052,B,47.50007575990644,17.99982333998034,2.375003787995322,0.2827405638539816,B,550.1136509992648,Correct,sub_017_day_11_data.csv,1,300,122.0,Training at home,,,,,,,,,,,,,
17,14,3053,A,52.80505272411981,63.88379495741222,2.6402526362059904,1.0034843046082147,A,690.0067839887924,Correct,sub_017_day_11_data.csv,1,300,122.0,Training at home,,,,,,,,,,,,,
17,14,3054,B,71.13237735140248,50.811576633358555,3.5566188675701245,0.7981463793433703,B,669.326947972877,Correct,sub_017_day_11_data.csv,1,300,122.0,Training at home,,,,,,,,,,,,,
17,14,3055,B,65.7541921828809,41.4029838333938,3.287709609144045,0.6503565492384347,B,491.25085899140686,Correct,sub_017_day_11_data.csv,1,300,122.0,Training at home,,,,,,,,,,,,,
17,14,3056,A,31.776573888562258,52.84830812959532,1.588828694428113,0.8301392828729319,A,463.9218069787603,Correct,sub_017_day_11_data.csv,1,300,122.0,Training at home,,,,,,,,,,,,,
17,14,3057,A,46.920036085366704,71.56447012556801,2.346001804268335,1.1241320680226534,A,462.0577990135643,Correct,sub_017_day_11_data.csv,1,300,122.0,Training at home,,,,,,,,,,,,,
17,14,3058,B,72.19011323125355,47.24021910771294,3.6095056615626775,0.7420476265138158,B,557.0956529991236,Correct,sub_017_day_11_data.csv,1,300,122.0,Training at home,,,,,,,,,,,,,
17,14,3059,B,39.63321499499361,24.800618421739763,1.9816607497496803,0.3895672031911066,B,481.3936580030713,Correct,sub_017_day_11_data.csv,1,300,122.0,Training at home,,,,,,,,,,,,,
17,14,3060,B,88.82482381139309,67.76352424904971,4.441241190569655,1.0644269498108418,B,466.377745004138,Correct,sub_017_day_11_data.csv,1,300,122.0,Training at home,,,,,,,,,,,,,
17,14,3061,A,41.31807327041225,52.47024559596888,2.0659036635206123,0.8242006904817402,A,528.9313490211498,Correct,sub_017_day_11_data.csv,1,300,122.0,Training at home,,,,,,,,,,,,,
17,14,3062,B,34.500036510669446,14.745965939232477,1.7250018255334725,0.2316290913238902,B,481.46599301253445,Correct,sub_017_day_11_data.csv,1,300,122.0,Training at home,,,,,,,,,,,,,
17,14,3063,B,41.585042469423215,21.780323797949183,2.0792521234711607,0.3421245261822205,B,583.2783450023271,Correct,sub_017_day_11_data.csv,1,300,122.0,Training at home,,,,,,,,,,,,,
17,14,3064,B,47.65594888902919,39.72352879788957,2.3827974444514597,0.6239757312305623,B,619.7953730006702,Correct,sub_017_day_11_data.csv,1,300,122.0,Training at home,,,,,,,,,,,,,
17,14,3065,B,36.724761595475194,24.65903913488103,1.83623807977376,0.3873432809536273,B,613.57036800473,Correct,sub_017_day_11_data.csv,1,300,122.0,Training at home,,,,,,,,,,,,,
17,14,3066,A,38.03288036011874,49.18492847516127,1.9016440180059369,0.7725950498245303,A,742.7625169802923,Correct,sub_017_day_11_data.csv,1,300,122.0,Training at home,,,,,,,,,,,,,
17,14,3067,B,38.7157439095659,21.97885923380244,1.935787195478295,0.3452431135159897,B,506.02995697408915,Correct,sub_017_day_11_data.csv,1,300,122.0,Training at home,,,,,,,,,,,,,
17,14,3068,A,22.391545650839504,52.79748195194015,1.1195772825419752,0.8293409071412744,A,586.2251359794755,Correct,sub_017_day_11_data.csv,1,300,122.0,Training at home,,,,,,,,,,,,,
17,14,3069,B,65.09498273647202,53.41461741844718,3.2547491368236012,0.8390348483805152,B,436.07295901165344,Correct,sub_017_day_11_data.csv,1,300,122.0,Training at home,,,,,,,,,,,,,
17,14,3070,B,61.654901300075615,50.04672344567704,3.082745065003781,0.7861320935658952,B,599.6939309989102,Correct,sub_017_day_11_data.csv,1,300,122.0,Training at home,,,,,,,,,,,,,
17,14,3071,A,25.13756150513855,46.8937341637549,1.2568780752569275,0.7366050537412254,A,440.62962400494143,Correct,sub_017_day_11_data.csv,1,300,122.0,Training at home,,,,,,,,,,,,,
17,14,3072,A,21.679068323464435,45.88239961853769,1.0839534161732218,0.7207190478533457,A,485.80732199479826,Correct,sub_017_day_11_data.csv,1,300,122.0,Training at home,,,,,,,,,,,,,
17,14,3073,B,44.22998570995092,25.220862476061978,2.211499285497546,0.3961683813599739,B,548.7004550232086,Correct,sub_017_day_11_data.csv,1,300,122.0,Training at home,,,,,,,,,,,,,
17,14,3074,B,50.2830949490092,42.40748535901499,2.5141547474504597,0.666135222305491,B,814.2116740054917,Correct,sub_017_day_11_data.csv,1,300,122.0,Training at home,,,,,,,,,,,,,
17,14,3075,B,54.01297481942299,36.55712204681855,2.7006487409711495,0.5742379302933531,B,492.5843369856011,Correct,sub_017_day_11_data.csv,1,300,123.0,Training at home,,,,,,,,,,,,,
17,14,3076,B,78.46414673623337,52.606552361488,3.923207336811669,0.8263417921476873,B,433.5431430081371,Correct,sub_017_day_11_data.csv,1,300,123.0,Training at home,,,,,,,,,,,,,
17,14,3077,A,67.12555707644445,89.91587004660228,3.3562778538222227,1.4123951838977011,A,468.6330779804848,Correct,sub_017_day_11_data.csv,1,300,123.0,Training at home,,,,,,,,,,,,,
17,14,3078,B,58.28410249764511,28.94412731364928,2.9142051248822556,0.4546532886656412,B,490.11698897811584,Correct,sub_017_day_11_data.csv,1,300,123.0,Training at home,,,,,,,,,,,,,
17,14,3079,A,43.23038882161879,62.27245082395275,2.1615194410809395,0.978173370147808,A,494.1360770026222,Correct,sub_017_day_11_data.csv,1,300,123.0,Training at home,,,,,,,,,,,,,
17,14,3080,A,18.9225443841385,32.42931118153214,0.9461272192069252,0.5093984288443936,A,475.1278519979678,Correct,sub_017_day_11_data.csv,1,300,123.0,Training at home,,,,,,,,,,,,,
17,14,3081,B,52.24801188123324,41.877893791560375,2.612400594061662,0.6578164174168984,B,474.6049789828248,Correct,sub_017_day_11_data.csv,1,300,123.0,Training at home,,,,,,,,,,,,,
17,14,3082,B,50.45420584018017,35.73648677469112,2.5227102920090085,0.5613474215823923,B,624.4598930061329,Correct,sub_017_day_11_data.csv,1,300,123.0,Training at home,,,,,,,,,,,,,
17,14,3083,B,43.22610005576638,35.43060785715966,2.161305002788319,0.5565426867813679,B,486.3879590120632,Correct,sub_017_day_11_data.csv,1,300,123.0,Training at home,,,,,,,,,,,,,
17,14,3084,B,80.56875967003884,51.93240301403664,4.028437983501942,0.8157522789608096,B,509.4566869956907,Correct,sub_017_day_11_data.csv,1,300,123.0,Training at home,,,,,,,,,,,,,
17,14,3085,B,65.50164620717815,34.003274092719174,3.2750823103589077,0.5341221804384335,B,416.8239269929472,Correct,sub_017_day_11_data.csv,1,300,123.0,Training at home,,,,,,,,,,,,,
17,14,3086,B,53.77043921155723,30.055557930080973,2.6885219605778614,0.4721115999634241,B,426.9325099885464,Correct,sub_017_day_11_data.csv,1,300,123.0,Training at home,,,,,,,,,,,,,
17,14,3087,A,21.56615149773166,48.04409904474655,1.078307574886583,0.7546749430365807,A,497.0487190003041,Correct,sub_017_day_11_data.csv,1,300,123.0,Training at home,,,,,,,,,,,,,
17,14,3088,B,47.979710489541674,38.62699226694335,2.3989855244770837,0.6067513756804949,B,581.7691420088522,Correct,sub_017_day_11_data.csv,1,300,123.0,Training at home,,,,,,,,,,,,,
17,14,3089,B,49.83900560347429,40.01074983747512,2.4919502801737146,0.6284873887701541,B,477.76067501399666,Correct,sub_017_day_11_data.csv,1,300,123.0,Training at home,,,,,,,,,,,,,
17,14,3090,B,46.52999005623512,19.365978759247085,2.3264995028117563,0.3042000829981331,B,413.4224479785189,Correct,sub_017_day_11_data.csv,1,300,123.0,Training at home,,,,,,,,,,,,,
17,14,3091,B,38.92326275542538,16.23277451434114,1.946163137771269,0.2549838258081687,B,443.4381290047895,Correct,sub_017_day_11_data.csv,1,300,123.0,Training at home,,,,,,,,,,,,,
17,14,3092,B,61.77753776829581,40.79522101908529,3.08887688841479,0.6408098332756512,B,442.6805570255965,Correct,sub_017_day_11_data.csv,1,300,123.0,Training at home,,,,,,,,,,,,,
17,14,3093,A,20.36788965516732,36.89884264792568,1.018394482758366,0.5796056649434452,A,620.0172889803071,Correct,sub_017_day_11_data.csv,1,300,123.0,Training at home,,,,,,,,,,,,,
17,14,3094,A,17.872717838256456,43.009788675888174,0.8936358919128228,0.6755961806830988,A,535.4856470075902,Correct,sub_017_day_11_data.csv,1,300,123.0,Training at home,,,,,,,,,,,,,
17,14,3095,B,32.62700832489616,15.79244887995387,1.631350416244808,0.2480672069172771,B,443.7798469734844,Correct,sub_017_day_11_data.csv,1,300,123.0,Training at home,,,,,,,,,,,,,
17,14,3096,B,58.465666777994386,29.360531506020877,2.9232833388997195,0.4611941504240343,B,603.1299220048822,Correct,sub_017_day_11_data.csv,1,300,123.0,Training at home,,,,,,,,,,,,,
17,14,3097,A,54.61671197004993,66.07838227496109,2.7308355985024964,1.037956801580579,A,537.9885039874353,Correct,sub_017_day_11_data.csv,1,300,123.0,Training at home,,,,,,,,,,,,,
17,14,3098,B,71.29433149258509,59.97186023432056,3.5647165746292546,0.9420357776712768,B,553.5926890152041,Correct,sub_017_day_11_data.csv,1,300,123.0,Training at home,,,,,,,,,,,,,
17,14,3099,A,55.64926411246287,68.37541127630108,2.782463205623144,1.0740384487590409,A,530.4310369829182,Correct,sub_017_day_11_data.csv,1,300,123.0,Training at home,,,,,,,,,,,,,
17,14,3100,B,66.10296504163036,50.129860159915125,3.3051482520815174,0.7874380020193652,B,509.2765169974882,Correct,sub_017_day_11_data.csv,1,300,124.0,Training at home,,,,,,,,,,,,,
17,14,3101,A,18.818403096254823,49.839260746519855,0.9409201548127412,0.7828732771080646,A,452.9370589880273,Correct,sub_017_day_11_data.csv,1,300,124.0,Training at home,,,,,,,,,,,,,
17,14,3102,B,73.02524111702223,50.52545420700005,3.651262055851112,0.7936519787799944,B,551.2142259976827,Correct,sub_017_day_11_data.csv,1,300,124.0,Training at home,,,,,,,,,,,,,
17,14,3103,B,69.79821061548166,42.823832588464825,3.489910530774083,0.6726751892924014,B,620.9034550120123,Correct,sub_017_day_11_data.csv,1,300,124.0,Training at home,,,,,,,,,,,,,
17,14,3104,B,68.18926496460581,47.50706937369355,3.4094632482302902,0.7462393006898813,B,420.0869270134717,Correct,sub_017_day_11_data.csv,1,300,124.0,Training at home,,,,,,,,,,,,,
17,14,3105,B,65.1400670624451,46.61093056070504,3.257003353122255,0.7321627851324747,B,470.4892919980921,Correct,sub_017_day_11_data.csv,1,300,124.0,Training at home,,,,,,,,,,,,,
17,14,3106,A,53.561914910540494,68.56945265490832,2.678095745527025,1.0770864436066656,A,712.9375980002806,Correct,sub_017_day_11_data.csv,1,300,124.0,Training at home,,,,,,,,,,,,,
17,14,3107,A,36.09494493683067,53.54047801845992,1.8047472468415335,0.8410118620623974,A,833.7192879989743,Correct,sub_017_day_11_data.csv,1,300,124.0,Training at home,,,,,,,,,,,,,
17,14,3108,A,51.50084400659036,67.77537902046909,2.575042200329518,1.0646131641248475,A,615.566250984557,Correct,sub_017_day_11_data.csv,1,300,124.0,Training at home,,,,,,,,,,,,,
17,14,3109,A,33.779818339823684,54.180120233584134,1.6889909169911843,0.8510593384821982,A,580.4856300237589,Correct,sub_017_day_11_data.csv,1,300,124.0,Training at home,,,,,,,,,,,,,
17,14,3110,A,39.46080756160752,56.90517125877352,1.973040378080376,0.8938643398891597,A,519.4190019974485,Correct,sub_017_day_11_data.csv,1,300,124.0,Training at home,,,,,,,,,,,,,
17,14,3111,B,32.760064385126356,20.08890401723906,1.638003219256318,0.3155557663961436,B,657.9749409866054,Correct,sub_017_day_11_data.csv,1,300,124.0,Training at home,,,,,,,,,,,,,
17,14,3112,A,37.10712402219345,63.16228230564309,1.8553562011096727,0.9921508103768646,A,525.7696250046138,Correct,sub_017_day_11_data.csv,1,300,124.0,Training at home,,,,,,,,,,,,,
17,14,3113,A,63.15358345450787,83.18058247217188,3.157679172725393,1.306597534079475,A,654.4339560205117,Correct,sub_017_day_11_data.csv,1,300,124.0,Training at home,,,,,,,,,,,,,
17,14,3114,A,43.01727142669862,51.9903028527836,2.150863571334931,0.816661767501067,B,558.2740389800165,Incorrect,sub_017_day_11_data.csv,0,300,124.0,Training at home,,,,,,,,,,,,,
17,14,3115,A,23.74374041540879,46.29207148909314,1.1871870207704396,0.7271541585479426,A,624.9106809846126,Correct,sub_017_day_11_data.csv,1,300,124.0,Training at home,,,,,,,,,,,,,
17,14,3116,B,84.75013247540421,60.98410866905279,4.23750662377021,0.9579361389020892,B,640.8137819962576,Correct,sub_017_day_11_data.csv,1,300,124.0,Training at home,,,,,,,,,,,,,
17,14,3117,B,49.66776117360426,42.28330345698435,2.4833880586802133,0.6641845775498496,B,712.768329976825,Correct,sub_017_day_11_data.csv,1,300,124.0,Training at home,,,,,,,,,,,,,
17,14,3118,B,58.64923140278181,41.95371564377652,2.9324615701390906,0.6590074242864175,B,642.8285779838916,Correct,sub_017_day_11_data.csv,1,300,124.0,Training at home,,,,,,,,,,,,,
17,14,3119,A,50.55317777277864,80.73913830970922,2.527658888638932,1.2682474188547634,A,565.2434999938123,Correct,sub_017_day_11_data.csv,1,300,124.0,Training at home,,,,,,,,,,,,,
17,14,3120,A,38.06015242989242,66.57380823955805,1.9030076214946208,1.045738934434456,A,601.9161440199241,Correct,sub_017_day_11_data.csv,1,300,124.0,Training at home,,,,,,,,,,,,,
17,14,3121,A,40.96728254393621,54.817455095699586,2.0483641271968107,0.8610705710856909,B,582.2993089968804,Incorrect,sub_017_day_11_data.csv,0,300,124.0,Training at home,,,,,,,,,,,,,
17,14,3122,A,47.570775378425616,72.16398559623187,2.3785387689212807,1.1335492350144083,A,1523.5927799949422,Correct,sub_017_day_11_data.csv,1,300,124.0,Training at home,,,,,,,,,,,,,
17,14,3123,A,66.0732928989992,80.19714146097553,3.3036646449499596,1.2597337522635106,A,680.8858120057266,Correct,sub_017_day_11_data.csv,1,300,124.0,Training at home,,,,,,,,,,,,,
17,14,3124,B,64.20903595164806,33.69973116202548,3.2104517975824027,0.5293541392328514,B,434.5135829935316,Correct,sub_017_day_11_data.csv,1,300,124.0,Training at home,,,,,,,,,,,,,
17,14,3125,B,46.21852302863334,28.5820096360524,2.310926151431667,0.4489651574872744,B,523.0334129882976,Correct,sub_017_day_11_data.csv,1,300,125.0,Training at home,,,,,,,,,,,,,
17,14,3126,A,61.17100676045386,80.87095746398262,3.058550338022693,1.2703180292881022,A,616.7333330085967,Correct,sub_017_day_11_data.csv,1,300,125.0,Training at home,,,,,,,,,,,,,
17,14,3127,A,43.913201186672296,64.25894981758782,2.195660059333614,1.0093772233716451,A,761.1982439993881,Correct,sub_017_day_11_data.csv,1,300,125.0,Training at home,,,,,,,,,,,,,
17,14,3128,B,58.34863207331114,36.86790657871702,2.9174316036655568,0.5791197223046609,B,431.91027600551024,Correct,sub_017_day_11_data.csv,1,300,125.0,Training at home,,,,,,,,,,,,,
17,14,3129,A,35.004136759945524,48.55313708247063,1.7502068379972764,0.7626708938351393,A,1002.8654079942498,Correct,sub_017_day_11_data.csv,1,300,125.0,Training at home,,,,,,,,,,,,,
17,14,3130,B,78.08565998034581,51.66067237686234,3.90428299901729,0.8114839440932994,B,499.49091201415285,Correct,sub_017_day_11_data.csv,1,300,125.0,Training at home,,,,,,,,,,,,,
17,14,3131,A,38.782562682624814,60.4634035466478,1.9391281341312407,0.9497569219659188,A,673.1675310002174,Correct,sub_017_day_11_data.csv,1,300,125.0,Training at home,,,,,,,,,,,,,
17,14,3132,B,50.891010736532614,24.96100083809642,2.544550536826631,0.3920864842960619,B,507.4586279806681,Correct,sub_017_day_11_data.csv,1,300,125.0,Training at home,,,,,,,,,,,,,
17,14,3133,A,23.32858388921581,51.95325067222417,1.1664291944607903,0.8160797532098424,A,575.6436309893616,Correct,sub_017_day_11_data.csv,1,300,125.0,Training at home,,,,,,,,,,,,,
17,14,3134,A,52.41701086704359,65.13374130116398,2.620850543352179,1.0231184158627742,A,673.317569977371,Correct,sub_017_day_11_data.csv,1,300,125.0,Training at home,,,,,,,,,,,,,
17,14,3135,A,56.69358254074027,71.33655997139772,2.8346791270370137,1.120552063692554,A,751.0816190042533,Correct,sub_017_day_11_data.csv,1,300,125.0,Training at home,,,,,,,,,,,,,
17,14,3136,B,56.97942274524665,26.490550164354147,2.8489711372623328,0.4161125889294343,B,496.0990390100051,Correct,sub_017_day_11_data.csv,1,300,125.0,Training at home,,,,,,,,,,,,,
17,14,3137,A,69.30529873642226,85.33158681708181,3.465264936821113,1.3403854313185193,A,553.4229920012876,Correct,sub_017_day_11_data.csv,1,300,125.0,Training at home,,,,,,,,,,,,,
17,14,3138,A,52.631534663024816,66.41996364265178,2.631576733151241,1.04332234915728,A,572.4706340115517,Correct,sub_017_day_11_data.csv,1,300,125.0,Training at home,,,,,,,,,,,,,
17,14,3139,B,54.930786128017,37.129564352756915,2.74653930640085,0.583229833008053,B,830.3593690216076,Correct,sub_017_day_11_data.csv,1,300,125.0,Training at home,,,,,,,,,,,,,
17,14,3140,A,54.995333980844855,84.09725150241042,2.7497666990422425,1.3209965375353288,A,502.3267710057553,Correct,sub_017_day_11_data.csv,1,300,125.0,Training at home,,,,,,,,,,,,,
17,14,3141,A,13.870189768365917,36.773962118522434,0.6935094884182957,0.5776440461746971,A,563.7199670018163,Correct,sub_017_day_11_data.csv,1,300,125.0,Training at home,,,,,,,,,,,,,
17,14,3142,A,61.94434495888119,72.94676397442406,3.097217247944059,1.145845089025996,B,468.0615850083995,Incorrect,sub_017_day_11_data.csv,0,300,125.0,Training at home,,,,,,,,,,,,,
17,14,3143,B,41.85091159319346,17.60520171128305,2.092545579659673,0.2765418618056664,B,437.71574698621407,Correct,sub_017_day_11_data.csv,1,300,125.0,Training at home,,,,,,,,,,,,,
17,14,3144,A,18.551060284657176,34.90258507902519,0.9275530142328589,0.5482485243777913,A,525.0854379846714,Correct,sub_017_day_11_data.csv,1,300,125.0,Training at home,,,,,,,,,,,,,
17,14,3145,A,58.942847041577295,80.2236069250641,2.9471423520788647,1.2601494708012833,A,785.9759230050258,Correct,sub_017_day_11_data.csv,1,300,125.0,Training at home,,,,,,,,,,,,,
17,14,3146,B,32.06731804496255,14.812583183937992,1.6033659022481277,0.2326755125567365,B,662.0731069997419,Correct,sub_017_day_11_data.csv,1,300,125.0,Training at home,,,,,,,,,,,,,
17,14,3147,A,37.86304381267168,50.16515633458601,1.893152190633584,0.7879924330345943,A,825.9811910102144,Correct,sub_017_day_11_data.csv,1,300,125.0,Training at home,,,,,,,,,,,,,
17,14,3148,B,66.91726581028315,49.34487469799826,3.3458632905141577,0.775107479217701,B,731.9217330077663,Correct,sub_017_day_11_data.csv,1,300,125.0,Training at home,,,,,,,,,,,,,
17,14,3149,A,12.79031041494734,36.21820156776851,0.639515520747367,0.5689141798576793,A,537.2376269951928,Correct,sub_017_day_11_data.csv,1,300,125.0,Training at home,,,,,,,,,,,,,
17,14,3150,B,50.5852817082585,35.80709051634549,2.5292640854129247,0.5624564625628787,B,538.4795150021091,Correct,sub_017_day_11_data.csv,1,300,126.0,Training at home,,,,,,,,,,,,,
17,14,3151,A,58.579905335765105,78.19157170518832,2.928995266788255,1.2282303362082958,A,748.7193749984726,Correct,sub_017_day_11_data.csv,1,300,126.0,Training at home,,,,,,,,,,,,,
17,14,3152,A,37.81885500135319,62.25942634468804,1.8909427500676597,0.977968782105934,A,1163.369579997379,Correct,sub_017_day_11_data.csv,1,300,126.0,Training at home,,,,,,,,,,,,,
17,14,3153,A,48.13796785838234,55.33817402078618,2.4068983929191172,0.869250004833877,A,832.7982519986108,Correct,sub_017_day_11_data.csv,1,300,126.0,Training at home,,,,,,,,,,,,,
17,14,3154,B,52.26529748509169,33.20522117961268,2.6132648742545848,0.5215863945934769,B,844.56730200327,Correct,sub_017_day_11_data.csv,1,300,126.0,Training at home,,,,,,,,,,,,,
17,14,3155,B,62.00026280158147,33.121679989611486,3.100013140079074,0.5202741326495774,B,456.7378720093984,Correct,sub_017_day_11_data.csv,1,300,126.0,Training at home,,,,,,,,,,,,,
17,14,3156,B,76.16154363042757,61.13412752876872,3.8080771815213783,0.9602926296400068,B,506.53995099128224,Correct,sub_017_day_11_data.csv,1,300,126.0,Training at home,,,,,,,,,,,,,
17,14,3157,B,53.9892741983682,39.85929835039752,2.69946370991841,0.626108394374263,B,681.5592779894359,Correct,sub_017_day_11_data.csv,1,300,126.0,Training at home,,,,,,,,,,,,,
17,14,3158,A,47.86701307057747,78.39230349937499,2.3933506535288736,1.2313834238580894,A,577.5578409957234,Correct,sub_017_day_11_data.csv,1,300,126.0,Training at home,,,,,,,,,,,,,
17,14,3159,A,22.98367361865572,33.920170626387694,1.1491836809327858,0.5328167942418592,A,604.3784859939478,Correct,sub_017_day_11_data.csv,1,300,126.0,Training at home,,,,,,,,,,,,,
17,14,3160,A,29.031192013529168,62.22403030542242,1.4515596006764584,0.9774127824213186,A,764.2063690000214,Correct,sub_017_day_11_data.csv,1,300,126.0,Training at home,,,,,,,,,,,,,
17,14,3161,A,30.319590262433664,58.48765019146624,1.515979513121683,0.9187218608362002,A,645.258898002794,Correct,sub_017_day_11_data.csv,1,300,126.0,Training at home,,,,,,,,,,,,,
17,14,3162,A,27.171110297497396,56.67955657617979,1.3585555148748698,0.8903203927422676,A,444.9650210153777,Correct,sub_017_day_11_data.csv,1,300,126.0,Training at home,,,,,,,,,,,,,
17,14,3163,B,50.777039956968935,42.68064123289802,2.5388519978484467,0.6704259447388702,B,604.1038660041522,Correct,sub_017_day_11_data.csv,1,300,126.0,Training at home,,,,,,,,,,,,,
17,14,3164,A,47.63074033533459,59.98937622103058,2.3815370167667296,0.9423109181471192,B,782.1972819801886,Incorrect,sub_017_day_11_data.csv,0,300,126.0,Training at home,,,,,,,,,,,,,
17,14,3165,A,42.38444492098592,60.06296720189432,2.119222246049296,0.9434668825713792,A,873.722213000292,Correct,sub_017_day_11_data.csv,1,300,126.0,Training at home,,,,,,,,,,,,,
17,14,3166,A,51.758637931557296,59.71323673314283,2.5879318965778646,0.9379733292145483,B,967.065309989266,Incorrect,sub_017_day_11_data.csv,0,300,126.0,Training at home,,,,,,,,,,,,,
17,14,3167,A,65.50328889489133,76.64590826206467,3.2751644447445667,1.203951111619098,A,690.9901580074802,Correct,sub_017_day_11_data.csv,1,300,126.0,Training at home,,,,,,,,,,,,,
17,14,3168,B,47.38039082123523,29.799069690896083,2.369019541061762,0.468082692123647,B,550.8883679867722,Correct,sub_017_day_11_data.csv,1,300,126.0,Training at home,,,,,,,,,,,,,
17,14,3169,A,57.96026523774002,66.37217182374275,2.898013261887001,1.0425716370213485,A,771.9897399947513,Correct,sub_017_day_11_data.csv,1,300,126.0,Training at home,,,,,,,,,,,,,
17,14,3170,B,57.63397472307305,41.75367098728661,2.8816987361536524,0.6558651301703244,B,792.9028020007536,Correct,sub_017_day_11_data.csv,1,300,126.0,Training at home,,,,,,,,,,,,,
17,14,3171,B,61.5767113354291,42.74071799935826,3.0788355667714553,0.6713696283796847,B,616.2948299897835,Correct,sub_017_day_11_data.csv,1,300,126.0,Training at home,,,,,,,,,,,,,
17,14,3172,A,22.528966848900826,45.17207852152215,1.126448342445041,0.7095613501529764,A,454.86065102159046,Correct,sub_017_day_11_data.csv,1,300,126.0,Training at home,,,,,,,,,,,,,
17,14,3173,A,48.94975886041319,55.825537727050246,2.4474879430206595,0.8769054960300043,B,774.4702729978599,Incorrect,sub_017_day_11_data.csv,0,300,126.0,Training at home,,,,,,,,,,,,,
17,14,3174,A,30.32339058137126,45.974262438095785,1.516169529068563,0.7221620256486544,A,654.9292259733193,Correct,sub_017_day_11_data.csv,1,300,126.0,Training at home,,,,,,,,,,,,,
17,14,3175,B,56.29460090314851,45.98130946426676,2.8147300451574258,0.7222727200768962,B,397.4525429948699,Correct,sub_017_day_11_data.csv,1,300,127.0,Training at home,,,,,,,,,,,,,
17,14,3176,B,52.498471273463096,20.892970290149552,2.624923563673155,0.3281860098760182,B,492.19907898805104,Correct,sub_017_day_11_data.csv,1,300,127.0,Training at home,,,,,,,,,,,,,
17,14,3177,B,79.59897643890463,50.30758445658617,3.9799488219452313,0.7902296887432958,B,553.8511869963259,Correct,sub_017_day_11_data.csv,1,300,127.0,Training at home,,,,,,,,,,,,,
17,14,3178,A,58.52456922894842,68.0234000540101,2.9262284614474208,1.0685090694093884,A,574.6534199861344,Correct,sub_017_day_11_data.csv,1,300,127.0,Training at home,,,,,,,,,,,,,
17,14,3179,B,47.80401527991498,25.087432959655303,2.390200763995749,0.3940724754173977,B,407.55734901176766,Correct,sub_017_day_11_data.csv,1,300,127.0,Training at home,,,,,,,,,,,,,
17,14,3180,B,65.59822482741278,43.62080079442363,3.279911241370639,0.6851939365973254,B,591.8372510059271,Correct,sub_017_day_11_data.csv,1,300,127.0,Training at home,,,,,,,,,,,,,
17,14,3181,A,14.083859468499424,36.32396425926474,0.7041929734249712,0.5705754963308216,A,689.4320799910929,Correct,sub_017_day_11_data.csv,1,300,127.0,Training at home,,,,,,,,,,,,,
17,14,3182,B,60.04335036209625,46.84655993276108,3.0021675181048124,0.7358640426535807,B,514.3152279779315,Correct,sub_017_day_11_data.csv,1,300,127.0,Training at home,,,,,,,,,,,,,
17,14,3183,A,39.51317716179421,46.78327428015935,1.9756588580897103,0.7348699539471245,B,718.0765790108126,Incorrect,sub_017_day_11_data.csv,0,300,127.0,Training at home,,,,,,,,,,,,,
17,14,3184,B,69.37337947526369,53.57247380774942,3.4686689737631844,0.8415144507452859,B,805.3179180133156,Correct,sub_017_day_11_data.csv,1,300,127.0,Training at home,,,,,,,,,,,,,
17,14,3185,A,40.02617626449637,70.43370981193719,2.0013088132248185,1.1063701265512862,A,536.8218460062053,Correct,sub_017_day_11_data.csv,1,300,127.0,Training at home,,,,,,,,,,,,,
17,14,3186,A,55.38163299562269,63.88339232138232,2.7690816497811346,1.0034779800162463,A,1083.527210023021,Correct,sub_017_day_11_data.csv,1,300,127.0,Training at home,,,,,,,,,,,,,
17,14,3187,B,67.03873715379802,35.80332201605456,3.351936857689901,0.5623972670987334,B,3221.5756630175747,Correct,sub_017_day_11_data.csv,1,300,127.0,Training at home,,,,,,,,,,,,,
17,14,3188,A,13.81626792552622,37.66850277027552,0.690813396276311,0.5916954578741218,A,478.40454199467786,Correct,sub_017_day_11_data.csv,1,300,127.0,Training at home,,,,,,,,,,,,,
17,14,3189,A,44.967448698087864,75.64513628658358,2.248372434904393,1.188231022188648,A,769.0935010032263,Correct,sub_017_day_11_data.csv,1,300,127.0,Training at home,,,,,,,,,,,,,
17,14,3190,A,58.48706618506051,71.28575473093828,2.9243533092530254,1.1197540168415978,A,849.416819983162,Correct,sub_017_day_11_data.csv,1,300,127.0,Training at home,,,,,,,,,,,,,
17,14,3191,A,34.155687587084515,47.75874156604009,1.7077843793542258,0.750192558242825,B,864.2039519909304,Incorrect,sub_017_day_11_data.csv,0,300,127.0,Training at home,,,,,,,,,,,,,
17,14,3192,A,16.309348838923867,36.60004160332258,0.8154674419461934,0.574912109110395,A,568.1236089731101,Correct,sub_017_day_11_data.csv,1,300,127.0,Training at home,,,,,,,,,,,,,
17,14,3193,A,38.770871926566976,63.77731396101746,1.9385435963283488,1.001811705028111,A,711.2810649850871,Correct,sub_017_day_11_data.csv,1,300,127.0,Training at home,,,,,,,,,,,,,
17,14,3194,A,48.68042446499643,70.3889932097695,2.4340212232498213,1.1056677198069684,A,760.4540509928484,Correct,sub_017_day_11_data.csv,1,300,127.0,Training at home,,,,,,,,,,,,,
17,14,3195,B,57.40501870687293,37.17614746078837,2.8702509353436465,0.583961558757918,B,578.6459580122028,Correct,sub_017_day_11_data.csv,1,300,127.0,Training at home,,,,,,,,,,,,,
17,14,3196,A,38.61432952102885,57.63770921231898,1.9307164760514424,0.9053710191558302,A,498.53222400997765,Correct,sub_017_day_11_data.csv,1,300,127.0,Training at home,,,,,,,,,,,,,
17,14,3197,A,42.88217640528299,57.94111155761376,2.1441088202641496,0.9101368520511304,A,492.2783260117285,Correct,sub_017_day_11_data.csv,1,300,127.0,Training at home,,,,,,,,,,,,,
17,14,3198,A,24.3093710835559,37.82443947067912,1.215468554177795,0.5941449058361867,A,543.9574409974739,Correct,sub_017_day_11_data.csv,1,300,127.0,Training at home,,,,,,,,,,,,,
17,14,3199,A,47.205125905166696,57.755954245418835,2.360256295258335,0.90722840779238,A,1241.662537009688,Correct,sub_017_day_11_data.csv,1,300,127.0,Training at home,,,,,,,,,,,,,
17,14,3200,B,76.69695490637976,48.54117106503694,3.834847745318988,0.7624829320728275,B,580.4932140163146,Correct,sub_017_day_11_data.csv,1,300,128.0,Training at home,,,,,,,,,,,,,
17,14,3201,B,65.99255776897814,51.33543789604578,3.2996278884489074,0.8063751728151625,B,548.1686390121467,Correct,sub_017_day_11_data.csv,1,300,128.0,Training at home,,,,,,,,,,,,,
17,14,3202,A,21.63692325187601,33.78562966314797,1.0818461625938005,0.5307034297332553,A,442.39037300576456,Correct,sub_017_day_11_data.csv,1,300,128.0,Training at home,,,,,,,,,,,,,
17,14,3203,B,81.39201306101027,57.551060272047096,4.0696006530505136,0.9040099407848328,B,480.4721509863157,Correct,sub_017_day_11_data.csv,1,300,128.0,Training at home,,,,,,,,,,,,,
17,14,3204,B,64.95112743926403,43.78173163346816,3.2475563719632015,0.6877218323057172,B,506.4057850104291,Correct,sub_017_day_11_data.csv,1,300,128.0,Training at home,,,,,,,,,,,,,
17,14,3205,A,65.27998109476282,82.5578888810735,3.2639990547381412,1.2968162860233146,A,597.7811059856322,Correct,sub_017_day_11_data.csv,1,300,128.0,Training at home,,,,,,,,,,,,,
17,14,3206,B,73.78251269589006,42.24978702057828,3.6891256347945034,0.6636581025979106,B,587.9503379983362,Correct,sub_017_day_11_data.csv,1,300,128.0,Training at home,,,,,,,,,,,,,
17,14,3207,B,56.46362884299231,25.281748609048172,2.8231814421496155,0.3971247785004484,B,555.2271209890023,Correct,sub_017_day_11_data.csv,1,300,128.0,Training at home,,,,,,,,,,,,,
17,14,3208,A,40.17446021175418,56.53135457243125,2.008723010587709,0.8879924411111488,A,754.6489789965563,Correct,sub_017_day_11_data.csv,1,300,128.0,Training at home,,,,,,,,,,,,,
17,14,3209,A,60.71080522431012,80.55392298262917,3.035540261215506,1.265338063300329,A,548.1694149784744,Correct,sub_017_day_11_data.csv,1,300,128.0,Training at home,,,,,,,,,,,,,
17,14,3210,A,60.43905348709168,76.87556394160089,3.021952674354584,1.2075585345975288,A,520.2909990039188,Correct,sub_017_day_11_data.csv,1,300,128.0,Training at home,,,,,,,,,,,,,
17,14,3211,B,43.44308737999267,31.899331113102175,2.1721543689996334,0.5010735213967505,B,536.5338789997622,Correct,sub_017_day_11_data.csv,1,300,128.0,Training at home,,,,,,,,,,,,,
17,14,3212,A,35.18509592375471,65.7930654183079,1.7592547961877356,1.033475054876544,A,541.9294949970208,Correct,sub_017_day_11_data.csv,1,300,128.0,Training at home,,,,,,,,,,,,,
17,14,3213,B,45.08979605257385,24.439817814045412,2.254489802628693,0.3838997604983901,B,553.8475310022477,Correct,sub_017_day_11_data.csv,1,300,128.0,Training at home,,,,,,,,,,,,,
17,14,3214,B,65.09888961183887,32.011628654374476,3.2549444805919436,0.5028374870501368,B,520.322466007201,Correct,sub_017_day_11_data.csv,1,300,128.0,Training at home,,,,,,,,,,,,,
17,14,3215,A,43.08836891054548,66.62380153725391,2.1544184455272744,1.0465242273183064,A,809.7812210035045,Correct,sub_017_day_11_data.csv,1,300,128.0,Training at home,,,,,,,,,,,,,
17,14,3216,A,46.690134337760135,61.58428492225995,2.3345067168880065,0.9673636854417628,B,850.9260879945941,Incorrect,sub_017_day_11_data.csv,0,300,128.0,Training at home,,,,,,,,,,,,,
17,14,3217,A,49.67541976876721,58.88589062108642,2.4837709884383603,0.924977406876486,A,667.2799809894059,Correct,sub_017_day_11_data.csv,1,300,128.0,Training at home,,,,,,,,,,,,,
17,14,3218,B,40.21196421829066,15.533810997436728,2.010598210914533,0.2440045325589978,B,631.6779100161511,Correct,sub_017_day_11_data.csv,1,300,128.0,Training at home,,,,,,,,,,,,,
17,14,3219,A,32.63499814229199,52.992252592887034,1.631749907114599,0.8324003572149429,A,656.6245449939743,Correct,sub_017_day_11_data.csv,1,300,128.0,Training at home,,,,,,,,,,,,,
17,14,3220,A,51.32569123865554,82.28782254728945,2.5662845619327768,1.2925740939723251,A,702.5016190018505,Correct,sub_017_day_11_data.csv,1,300,128.0,Training at home,,,,,,,,,,,,,
17,14,3221,A,14.35029972104629,38.24111884686229,0.7175149860523146,0.6006900901717839,A,491.3222799950745,Correct,sub_017_day_11_data.csv,1,300,128.0,Training at home,,,,,,,,,,,,,
17,14,3222,A,27.81942067070326,41.3490035333208,1.390971033535163,0.649508628667695,B,580.3112800058443,Incorrect,sub_017_day_11_data.csv,0,300,128.0,Training at home,,,,,,,,,,,,,
17,14,3223,B,89.48395507560747,64.67804845196282,4.474197753780373,1.0159604093260557,B,449.8797639971599,Correct,sub_017_day_11_data.csv,1,300,128.0,Training at home,,,,,,,,,,,,,
17,14,3224,A,20.13735352319319,38.852073021689705,1.0068676761596596,0.6102869359083728,A,595.3926569782197,Correct,sub_017_day_11_data.csv,1,300,128.0,Training at home,,,,,,,,,,,,,
17,14,3225,A,19.273589006562755,50.06332413240025,0.9636794503281378,0.786392856543166,A,532.8209259896539,Correct,sub_017_day_11_data.csv,1,300,129.0,Training at home,,,,,,,,,,,,,
17,14,3226,B,50.31071412462484,37.770328794810574,2.515535706231242,0.5932949373272396,B,460.53254799335264,Correct,sub_017_day_11_data.csv,1,300,129.0,Training at home,,,,,,,,,,,,,
17,14,3227,A,55.02683830284502,83.72229371482297,2.751341915142251,1.3151067143808737,A,415.54025799268857,Correct,sub_017_day_11_data.csv,1,300,129.0,Training at home,,,,,,,,,,,,,
17,14,3228,B,60.861857622479846,41.73414856235628,3.043092881123993,0.6555584726366177,B,541.4037020236719,Correct,sub_017_day_11_data.csv,1,300,129.0,Training at home,,,,,,,,,,,,,
17,14,3229,B,46.78117684868835,39.786496360571995,2.3390588424344174,0.6249648233922501,B,806.4084210200235,Correct,sub_017_day_11_data.csv,1,300,129.0,Training at home,,,,,,,,,,,,,
17,14,3230,A,44.24253108992742,55.951531129576,2.21212655449637,0.8788845957688829,A,911.9981430121696,Correct,sub_017_day_11_data.csv,1,300,129.0,Training at home,,,,,,,,,,,,,
17,14,3231,A,65.51174919241134,77.77207195956586,3.275587459620567,1.221640849613144,A,939.7475000005217,Correct,sub_017_day_11_data.csv,1,300,129.0,Training at home,,,,,,,,,,,,,
17,14,3232,B,73.95833133174762,41.027586308866546,3.6979165665873808,0.6444598187122815,B,502.2205370187294,Correct,sub_017_day_11_data.csv,1,300,129.0,Training at home,,,,,,,,,,,,,
17,14,3233,B,65.26221576280508,50.948815829613416,3.2631107881402546,0.8003021275970643,B,811.7335819988512,Correct,sub_017_day_11_data.csv,1,300,129.0,Training at home,,,,,,,,,,,,,
17,14,3234,A,63.89127140134302,88.376696107035,3.1945635700671513,1.3882178961919942,A,406.3035580038558,Correct,sub_017_day_11_data.csv,1,300,129.0,Training at home,,,,,,,,,,,,,
17,14,3235,B,34.70134094381762,15.050281264228222,1.7350670471908811,0.2364092652707974,A,553.7740169966128,Incorrect,sub_017_day_11_data.csv,0,300,129.0,Training at home,,,,,,,,,,,,,
17,14,3236,A,54.23544568460008,80.70466995786632,2.7117722842300043,1.2677059912501083,A,460.56717401370406,Correct,sub_017_day_11_data.csv,1,300,129.0,Training at home,,,,,,,,,,,,,
17,14,3237,A,41.92265709986973,70.75220079174223,2.096132854993486,1.1113729711632363,A,663.5065860173199,Correct,sub_017_day_11_data.csv,1,300,129.0,Training at home,,,,,,,,,,,,,
17,14,3238,B,82.89020803468911,55.14789615072459,4.144510401734456,0.866261127040246,B,572.2742510261014,Correct,sub_017_day_11_data.csv,1,300,129.0,Training at home,,,,,,,,,,,,,
17,14,3239,A,40.85431762377012,69.40763819775678,2.042715881188506,1.090252631325455,A,599.4301949976943,Correct,sub_017_day_11_data.csv,1,300,129.0,Training at home,,,,,,,,,,,,,
17,14,3240,A,29.393504977919164,43.73570427684551,1.4696752488959584,0.6869988362785678,B,518.2032629963942,Incorrect,sub_017_day_11_data.csv,0,300,129.0,Training at home,,,,,,,,,,,,,
17,14,3241,B,36.8729578995508,26.175785553781136,1.8436478949775397,0.4111682779885032,B,508.2732040027622,Correct,sub_017_day_11_data.csv,1,300,129.0,Training at home,,,,,,,,,,,,,
17,14,3242,B,75.38793853318532,60.658858697923534,3.769396926659266,0.9528271243026896,B,486.531686008675,Correct,sub_017_day_11_data.csv,1,300,129.0,Training at home,,,,,,,,,,,,,
17,14,3243,A,32.586018000824936,65.43235588431496,1.6293009000412468,1.0278090427661837,A,501.6154930053745,Correct,sub_017_day_11_data.csv,1,300,129.0,Training at home,,,,,,,,,,,,,
17,14,3244,B,53.868114620045134,27.643532262638224,2.6934057310022568,0.4342235893778833,B,429.4744379876647,Correct,sub_017_day_11_data.csv,1,300,129.0,Training at home,,,,,,,,,,,,,
17,14,3245,A,28.108791814575262,57.10980425924193,1.4054395907287631,0.8970787075439276,A,652.8176639985759,Correct,sub_017_day_11_data.csv,1,300,129.0,Training at home,,,,,,,,,,,,,
17,14,3246,B,65.26129460241219,32.785186542638975,3.2630647301206097,0.5149885059446278,B,432.5434420024976,Correct,sub_017_day_11_data.csv,1,300,129.0,Training at home,,,,,,,,,,,,,
17,14,3247,A,48.79560194533005,58.710517432412594,2.4397800972665022,0.9222226512706144,A,760.2959009818733,Correct,sub_017_day_11_data.csv,1,300,129.0,Training at home,,,,,,,,,,,,,
17,14,3248,B,42.91335333290452,20.47750986066758,2.145667666645226,0.321659972710429,B,420.5323969945311,Correct,sub_017_day_11_data.csv,1,300,129.0,Training at home,,,,,,,,,,,,,
17,14,3249,A,16.542157915398512,45.08960734502025,0.8271078957699257,0.7082658959418199,A,576.7493750026915,Correct,sub_017_day_11_data.csv,1,300,129.0,Training at home,,,,,,,,,,,,,
17,14,3250,A,32.75150886414017,45.41495825077638,1.6375754432070084,0.7133764960186312,B,539.4691130204592,Incorrect,sub_017_day_11_data.csv,0,300,130.0,Training at home,,,,,,,,,,,,,
17,14,3251,A,20.59099590808085,33.074817823089305,1.0295497954040425,0.5195380234591905,A,452.4799849896226,Correct,sub_017_day_11_data.csv,1,300,130.0,Training at home,,,,,,,,,,,,,
17,14,3252,B,45.2506177732556,22.73120100585637,2.26253088866278,0.3570608704363565,B,541.2311789987143,Correct,sub_017_day_11_data.csv,1,300,130.0,Training at home,,,,,,,,,,,,,
17,14,3253,B,72.48097215284523,49.865648499883555,3.624048607642261,0.7832877749686253,B,493.44960099551827,Correct,sub_017_day_11_data.csv,1,300,130.0,Training at home,,,,,,,,,,,,,
17,14,3254,A,66.06277914768759,82.45962430739692,3.3031389573843795,1.2952727497094625,A,780.2654569968581,Correct,sub_017_day_11_data.csv,1,300,130.0,Training at home,,,,,,,,,,,,,
17,14,3255,B,58.60267674676976,47.84676622450286,2.930133837338488,0.7515752463446321,B,506.7752340110019,Correct,sub_017_day_11_data.csv,1,300,130.0,Training at home,,,,,,,,,,,,,
17,14,3256,B,43.35631873223475,18.90196830727174,2.167815936611737,0.29691142386256,B,711.5944859979209,Correct,sub_017_day_11_data.csv,1,300,130.0,Training at home,,,,,,,,,,,,,
17,14,3257,B,53.27420960610583,45.24037241451643,2.6637104803052916,0.7106341081155558,B,594.3003850115929,Correct,sub_017_day_11_data.csv,1,300,130.0,Training at home,,,,,,,,,,,,,
17,14,3258,A,30.413287858109097,43.48250297560362,1.5206643929054549,0.6830215595392634,A,545.1370629889425,Correct,sub_017_day_11_data.csv,1,300,130.0,Training at home,,,,,,,,,,,,,
17,14,3259,B,80.53843449846029,61.42993140627447,4.026921724923015,0.964939106082384,B,473.86362100951374,Correct,sub_017_day_11_data.csv,1,300,130.0,Training at home,,,,,,,,,,,,,
17,14,3260,B,79.56914520199561,53.59209933517273,3.978457260099781,0.8418227278091653,B,568.8522860000376,Correct,sub_017_day_11_data.csv,1,300,130.0,Training at home,,,,,,,,,,,,,
17,14,3261,B,52.136217129970305,26.892880292994057,2.606810856498515,0.4224323758116992,B,469.2412030126434,Correct,sub_017_day_11_data.csv,1,300,130.0,Training at home,,,,,,,,,,,,,
17,14,3262,A,12.589712453690789,36.78651417274827,0.6294856226845393,0.5778412133814138,A,537.5807540258393,Correct,sub_017_day_11_data.csv,1,300,130.0,Training at home,,,,,,,,,,,,,
17,14,3263,A,43.74029803449524,54.31481150940224,2.187014901724762,0.8531750640952621,B,555.4571000102442,Incorrect,sub_017_day_11_data.csv,0,300,130.0,Training at home,,,,,,,,,,,,,
17,14,3264,B,30.9798042210607,14.935432530662467,1.548990211053035,0.234605225582576,B,456.3232980144676,Correct,sub_017_day_11_data.csv,1,300,130.0,Training at home,,,,,,,,,,,,,
17,14,3265,A,15.76919821394505,31.06878115647639,0.7884599106972524,0.4880272731858761,A,715.9118649724405,Correct,sub_017_day_11_data.csv,1,300,130.0,Training at home,,,,,,,,,,,,,
17,14,3266,B,80.7065551081256,50.880359129991454,4.03532775540628,0.7992268122739575,B,366.3635599950794,Correct,sub_017_day_11_data.csv,1,300,130.0,Training at home,,,,,,,,,,,,,
17,14,3267,A,19.367557473824643,43.1413739781143,0.9683778736912322,0.6776631177770688,A,527.966229012236,Correct,sub_017_day_11_data.csv,1,300,130.0,Training at home,,,,,,,,,,,,,
17,14,3268,A,42.38908816365282,55.982592020081334,2.119454408182641,0.8793724990960103,A,1021.1357000225688,Correct,sub_017_day_11_data.csv,1,300,130.0,Training at home,,,,,,,,,,,,,
17,14,3269,A,45.568862446928506,66.18803257660429,2.278443122346425,1.0396791844911095,A,750.907701003598,Correct,sub_017_day_11_data.csv,1,300,130.0,Training at home,,,,,,,,,,,,,
17,14,3270,B,58.47671816887521,49.14672389478369,2.9238359084437606,0.7719949336792917,B,543.5597640171181,Correct,sub_017_day_11_data.csv,1,300,130.0,Training at home,,,,,,,,,,,,,
17,14,3271,A,51.32262436752596,82.18209870118523,2.5661312183762983,1.290913387681174,A,413.3228269929532,Correct,sub_017_day_11_data.csv,1,300,130.0,Training at home,,,,,,,,,,,,,
17,14,3272,B,63.182635458780496,33.69879148130651,3.159131772939025,0.5293393787626341,B,505.2364179864526,Correct,sub_017_day_11_data.csv,1,300,130.0,Training at home,,,,,,,,,,,,,
17,14,3273,B,67.42290451902853,45.18226970456726,3.3711452259514267,0.7097214328819059,B,397.4962630018126,Correct,sub_017_day_11_data.csv,1,300,130.0,Training at home,,,,,,,,,,,,,
17,14,3274,B,68.85741722301867,41.90472123465001,3.4428708611509338,0.6582378219075234,B,473.621576995356,Correct,sub_017_day_11_data.csv,1,300,130.0,Training at home,,,,,,,,,,,,,
17,14,3275,A,44.58574679008228,67.19395435910499,2.229287339504114,1.0554801669010605,A,511.0908350034151,Correct,sub_017_day_11_data.csv,1,300,131.0,Training at home,,,,,,,,,,,,,
17,14,3276,A,30.908144722548567,40.10735782728703,1.5454072361274285,0.6300049035255101,A,588.6066050152294,Correct,sub_017_day_11_data.csv,1,300,131.0,Training at home,,,,,,,,,,,,,
17,14,3277,B,43.70409517345573,20.246800422947395,2.1852047586727865,0.3180359973371512,B,651.9438279792666,Correct,sub_017_day_11_data.csv,1,300,131.0,Training at home,,,,,,,,,,,,,
17,14,3278,B,73.76726428328216,61.16690797650696,3.688363214164107,0.960807543708986,A,729.6094199991785,Incorrect,sub_017_day_11_data.csv,0,300,131.0,Training at home,,,,,,,,,,,,,
17,14,3279,B,70.55504902202263,60.658086705644095,3.527752451101131,0.952814997876321,B,516.4469190058298,Correct,sub_017_day_11_data.csv,1,300,131.0,Training at home,,,,,,,,,,,,,
17,14,3280,B,51.92948050816938,29.825957920285976,2.596474025408469,0.4685050514432435,B,429.38926702481695,Correct,sub_017_day_11_data.csv,1,300,131.0,Training at home,,,,,,,,,,,,,
17,14,3281,B,32.30544466036275,14.13038944924621,1.6152722330181375,0.221959638430573,B,753.1608260178473,Correct,sub_017_day_11_data.csv,1,300,131.0,Training at home,,,,,,,,,,,,,
17,14,3282,B,75.0255013659367,46.84027114606093,3.751275068296835,0.7357652586230947,B,568.3799329854082,Correct,sub_017_day_11_data.csv,1,300,131.0,Training at home,,,,,,,,,,,,,
17,14,3283,A,18.926956203966338,48.60382183176537,0.9463478101983168,0.7634670480153065,A,719.4350970094092,Correct,sub_017_day_11_data.csv,1,300,131.0,Training at home,,,,,,,,,,,,,
17,14,3284,B,37.462379541780365,15.293272076438036,1.8731189770890184,0.2402261560234383,B,477.783033013111,Correct,sub_017_day_11_data.csv,1,300,131.0,Training at home,,,,,,,,,,,,,
17,14,3285,B,46.68196833928947,24.70747811372756,2.3340984169644736,0.3881041586540855,B,364.20911698951386,Correct,sub_017_day_11_data.csv,1,300,131.0,Training at home,,,,,,,,,,,,,
17,14,3286,B,39.63051307777924,29.62787334184473,1.9815256538889623,0.4653935461611413,B,408.4322940034326,Correct,sub_017_day_11_data.csv,1,300,131.0,Training at home,,,,,,,,,,,,,
17,14,3287,B,50.43768910446322,35.50863390166972,2.521884455223161,0.5577683170224753,B,421.7166210000869,Correct,sub_017_day_11_data.csv,1,300,131.0,Training at home,,,,,,,,,,,,,
17,14,3288,B,66.93863284755781,49.723041850227,3.3469316423778905,0.7810477149540549,B,477.4913330038544,Correct,sub_017_day_11_data.csv,1,300,131.0,Training at home,,,,,,,,,,,,,
17,14,3289,B,62.56114539921893,37.79126870880175,3.1280572699609466,0.5936238607270471,B,561.924640001962,Correct,sub_017_day_11_data.csv,1,300,131.0,Training at home,,,,,,,,,,,,,
17,14,3290,B,66.89515711846674,43.79065009639366,3.344757855923337,0.6878619231937574,B,426.6524979902897,Correct,sub_017_day_11_data.csv,1,300,131.0,Training at home,,,,,,,,,,,,,
17,14,3291,B,61.20830499990207,45.409020321926945,3.060415249995103,0.7132832232503767,B,386.53060799697414,Correct,sub_017_day_11_data.csv,1,300,131.0,Training at home,,,,,,,,,,,,,
17,14,3292,A,36.782137586196214,51.712677507858814,1.8391068793098104,0.812300838780737,A,637.6115529856179,Correct,sub_017_day_11_data.csv,1,300,131.0,Training at home,,,,,,,,,,,,,
17,14,3293,A,39.60060461903419,62.51768291712625,1.9800302309517095,0.9820254668594997,A,526.9392729969695,Correct,sub_017_day_11_data.csv,1,300,131.0,Training at home,,,,,,,,,,,,,
17,14,3294,A,36.373218826345585,56.06267764658504,1.8186609413172792,0.8806304811754213,A,620.15506500029,Correct,sub_017_day_11_data.csv,1,300,131.0,Training at home,,,,,,,,,,,,,
17,14,3295,B,59.13124320196823,38.46558444760033,2.956562160098412,0.6042159875830949,B,720.532129984349,Correct,sub_017_day_11_data.csv,1,300,131.0,Training at home,,,,,,,,,,,,,
17,14,3296,B,71.14294211420608,43.39485370074148,3.557147105710304,0.6816447679492663,B,449.8752879735548,Correct,sub_017_day_11_data.csv,1,300,131.0,Training at home,,,,,,,,,,,,,
17,14,3297,B,36.11560281491067,10.70411422887523,1.8057801407455336,0.1681398331231019,A,395.73246700456366,Incorrect,sub_017_day_11_data.csv,0,300,131.0,Training at home,,,,,,,,,,,,,
17,14,3298,A,60.45305425434999,78.21625566837592,3.0226527127174996,1.228618070995354,A,593.0197529960424,Correct,sub_017_day_11_data.csv,1,300,131.0,Training at home,,,,,,,,,,,,,
17,14,3299,B,56.75535067240722,34.802462860076766,2.8377675336203607,0.546675808240244,B,540.0003580143675,Correct,sub_017_day_11_data.csv,1,300,131.0,Training at home,,,,,,,,,,,,,
