subject,day,trial,cat,x,y,xt,yt,resp,rt,fb,f_name,acc,n_trials,block,session_type,ns_left_digit,ns_right_digit,ns_left_size,ns_right_size,ns_congruent,ns_cue,ns_correct_side,ns_resp,ns_rt,ns_fb,acc_stroop,acc_stroop_mean,resp_key
17,10,2100,B,53.55879326980083,27.96370123814917,2.677939663490042,0.4392527918847462,B,480.3821739988052,Correct,sub_017_day_08_data.csv,1,300,84.0,Training at home,,,,,,,,,,,,,
17,10,2101,B,37.011598397391786,20.570424779947547,1.8505799198695896,0.3231194768495232,B,421.2683779987856,Correct,sub_017_day_08_data.csv,1,300,84.0,Training at home,,,,,,,,,,,,,
17,10,2102,B,63.31249467594694,31.611697644439033,3.1656247337973467,0.4965553854363571,B,427.95386600482743,Correct,sub_017_day_08_data.csv,1,300,84.0,Training at home,,,,,,,,,,,,,
17,10,2103,B,42.47896451896531,24.17535548184854,2.123948225948266,0.3797455958984855,B,374.9504430015804,Correct,sub_017_day_08_data.csv,1,300,84.0,Training at home,,,,,,,,,,,,,
17,10,2104,A,18.329362406086744,33.94051919773905,0.9164681203043372,0.5331364288532017,A,714.760679002211,Correct,sub_017_day_08_data.csv,1,300,84.0,Training at home,,,,,,,,,,,,,
17,10,2105,A,57.37887927238057,65.65250888585342,2.868943963619029,1.0312671980276786,A,364.1504010010976,Correct,sub_017_day_08_data.csv,1,300,84.0,Training at home,,,,,,,,,,,,,
17,10,2106,B,55.122387297087585,31.096972733790835,2.756119364854379,0.488470105446797,B,436.09760099934647,Correct,sub_017_day_08_data.csv,1,300,84.0,Training at home,,,,,,,,,,,,,
17,10,2107,B,46.876537240459434,31.86613767008708,2.3438268620229716,0.5005521200131328,B,593.1878590054112,Correct,sub_017_day_08_data.csv,1,300,84.0,Training at home,,,,,,,,,,,,,
17,10,2108,B,39.47392173183039,30.30750206925667,1.9736960865915192,0.476069129247171,B,484.6816320059588,Correct,sub_017_day_08_data.csv,1,300,84.0,Training at home,,,,,,,,,,,,,
17,10,2109,A,43.72078275615651,67.77613564086295,2.186039137807825,1.064625049090202,A,531.2351419997867,Correct,sub_017_day_08_data.csv,1,300,84.0,Training at home,,,,,,,,,,,,,
17,10,2110,B,81.06142994950925,57.86544675502225,4.053071497475463,0.908948312111346,B,638.3831630009809,Correct,sub_017_day_08_data.csv,1,300,84.0,Training at home,,,,,,,,,,,,,
17,10,2111,B,83.06424428514032,64.2469230417703,4.153212214257016,1.009188307218872,B,373.2385359980981,Correct,sub_017_day_08_data.csv,1,300,84.0,Training at home,,,,,,,,,,,,,
17,10,2112,B,54.681703752534325,27.150406370734615,2.7340851876267163,0.4264775859813869,B,424.70621100073913,Correct,sub_017_day_08_data.csv,1,300,84.0,Training at home,,,,,,,,,,,,,
17,10,2113,A,30.27108518091017,57.183230259867656,1.5135542590455089,0.8982320804646691,A,418.8707049979712,Correct,sub_017_day_08_data.csv,1,300,84.0,Training at home,,,,,,,,,,,,,
17,10,2114,A,46.16634970769181,59.4412842709986,2.3083174853845905,0.9337015099285588,A,492.174901002727,Correct,sub_017_day_08_data.csv,1,300,84.0,Training at home,,,,,,,,,,,,,
17,10,2115,B,71.91695318814298,51.49992620352763,3.5958476594071493,0.8089589491070945,B,549.9875219975365,Correct,sub_017_day_08_data.csv,1,300,84.0,Training at home,,,,,,,,,,,,,
17,10,2116,A,65.17167977752271,83.17259190050075,3.258583988876136,1.3064720184731755,A,848.476445004053,Correct,sub_017_day_08_data.csv,1,300,84.0,Training at home,,,,,,,,,,,,,
17,10,2117,B,88.52293464201732,66.83189302561541,4.426146732100866,1.0497929207738617,A,556.7736349985353,Incorrect,sub_017_day_08_data.csv,0,300,84.0,Training at home,,,,,,,,,,,,,
17,10,2118,A,52.586303349391585,79.71034329686265,2.629315167469579,1.2520871445827204,A,598.4992180019617,Correct,sub_017_day_08_data.csv,1,300,84.0,Training at home,,,,,,,,,,,,,
17,10,2119,A,60.62067173977228,71.65911830443812,3.0310335869886136,1.1256187981397237,A,682.3315880028531,Correct,sub_017_day_08_data.csv,1,300,84.0,Training at home,,,,,,,,,,,,,
17,10,2120,B,49.64490338703803,26.021228412099823,2.482245169351901,0.4087405000841739,B,393.9118679991225,Correct,sub_017_day_08_data.csv,1,300,84.0,Training at home,,,,,,,,,,,,,
17,10,2121,A,53.283074088537,77.12730398777074,2.66415370442685,1.2115128579958367,A,768.4328140021535,Correct,sub_017_day_08_data.csv,1,300,84.0,Training at home,,,,,,,,,,,,,
17,10,2122,B,39.21021758682902,15.821903002154045,1.9605108793414507,0.2485298711868872,B,586.5208509931108,Correct,sub_017_day_08_data.csv,1,300,84.0,Training at home,,,,,,,,,,,,,
17,10,2123,B,72.84040401545128,57.80947945786989,3.642020200772564,0.9080691798634704,B,582.1633649975411,Correct,sub_017_day_08_data.csv,1,300,84.0,Training at home,,,,,,,,,,,,,
17,10,2124,A,69.13444670149454,88.13160344643391,3.456722335074727,1.3843679896820282,A,554.3356829948607,Correct,sub_017_day_08_data.csv,1,300,84.0,Training at home,,,,,,,,,,,,,
17,10,2125,A,55.65613841318556,78.48127193799162,2.7828069206592776,1.2327809368238862,A,1082.0925240041106,Correct,sub_017_day_08_data.csv,1,300,85.0,Training at home,,,,,,,,,,,,,
17,10,2126,A,20.756289711052247,34.389324612206956,1.0378144855526124,0.5401862478181201,A,690.6291600025725,Correct,sub_017_day_08_data.csv,1,300,85.0,Training at home,,,,,,,,,,,,,
17,10,2127,B,38.00547645536373,24.058976525956187,1.9002738227681863,0.3779175195341662,B,1175.618706998648,Correct,sub_017_day_08_data.csv,1,300,85.0,Training at home,,,,,,,,,,,,,
17,10,2128,B,50.258006698212704,24.98527078163432,2.5129003349106354,0.3924677156776704,B,670.8178879998741,Correct,sub_017_day_08_data.csv,1,300,85.0,Training at home,,,,,,,,,,,,,
17,10,2129,A,30.843809679802824,41.02102862330193,1.5421904839901412,0.6443568108283099,A,828.6062689949176,Correct,sub_017_day_08_data.csv,1,300,85.0,Training at home,,,,,,,,,,,,,
17,10,2130,B,39.48340784671174,28.27140357456631,1.974170392335587,0.4440861688826487,B,829.6342650064616,Correct,sub_017_day_08_data.csv,1,300,85.0,Training at home,,,,,,,,,,,,,
17,10,2131,A,46.18969242134536,61.92338274886841,2.309484621067268,0.9726902216463698,A,779.1192759978003,Correct,sub_017_day_08_data.csv,1,300,85.0,Training at home,,,,,,,,,,,,,
17,10,2132,B,34.04704621537233,12.82481138176876,1.7023523107686167,0.2014516661031975,B,897.1449570017285,Correct,sub_017_day_08_data.csv,1,300,85.0,Training at home,,,,,,,,,,,,,
17,10,2133,A,47.135114864787624,63.49994285779629,2.3567557432393813,0.9974547699271225,A,457.46163799776696,Correct,sub_017_day_08_data.csv,1,300,85.0,Training at home,,,,,,,,,,,,,
17,10,2134,A,25.952475652458048,38.224608931954286,1.2976237826229025,0.6004307530348518,A,502.8261620027479,Correct,sub_017_day_08_data.csv,1,300,85.0,Training at home,,,,,,,,,,,,,
17,10,2135,B,70.70996363337325,46.90966047268933,3.535498181668663,0.7368552236169615,B,1166.846631000226,Correct,sub_017_day_08_data.csv,1,300,85.0,Training at home,,,,,,,,,,,,,
17,10,2136,A,39.30836778291645,52.70176506553582,1.9654183891458223,0.8278373898055127,A,648.3644070031005,Correct,sub_017_day_08_data.csv,1,300,85.0,Training at home,,,,,,,,,,,,,
17,10,2137,A,34.90003460257614,53.05164172781088,1.745001730128807,0.8333332395648421,A,739.6414850009023,Correct,sub_017_day_08_data.csv,1,300,85.0,Training at home,,,,,,,,,,,,,
17,10,2138,A,48.54737355187908,78.11063793927661,2.4273686775939542,1.226959031586218,A,1025.19348700298,Correct,sub_017_day_08_data.csv,1,300,85.0,Training at home,,,,,,,,,,,,,
17,10,2139,A,34.86786277868184,53.31986274567817,1.7433931389340922,0.8375464454611933,A,927.3457119998056,Correct,sub_017_day_08_data.csv,1,300,85.0,Training at home,,,,,,,,,,,,,
17,10,2140,A,26.046125353024852,39.49013775456012,1.302306267651243,0.6203096332948751,A,685.6950590008637,Correct,sub_017_day_08_data.csv,1,300,85.0,Training at home,,,,,,,,,,,,,
17,10,2141,B,72.8426361075038,55.692426073751854,3.6421318053751897,0.8748145830694573,B,497.3698070025421,Correct,sub_017_day_08_data.csv,1,300,85.0,Training at home,,,,,,,,,,,,,
17,10,2142,B,79.03844052121566,48.9669236291438,3.951922026060783,0.769170637711053,B,657.7320569995209,Correct,sub_017_day_08_data.csv,1,300,85.0,Training at home,,,,,,,,,,,,,
17,10,2143,A,19.93890126246045,48.829518506232816,0.9969450631230226,0.7670122830875392,A,437.25997200090205,Correct,sub_017_day_08_data.csv,1,300,85.0,Training at home,,,,,,,,,,,,,
17,10,2144,B,52.04920608640508,33.81981687129148,2.602460304320254,0.5312404411430073,B,1277.1596249949653,Correct,sub_017_day_08_data.csv,1,300,85.0,Training at home,,,,,,,,,,,,,
17,10,2145,B,60.99222064341897,44.75929605138556,3.049611032170948,0.7030773782744176,B,510.79477200255496,Correct,sub_017_day_08_data.csv,1,300,85.0,Training at home,,,,,,,,,,,,,
17,10,2146,B,80.97743723900638,58.37091973893676,4.048871861950318,0.916888263175616,B,422.4089939962141,Correct,sub_017_day_08_data.csv,1,300,85.0,Training at home,,,,,,,,,,,,,
17,10,2147,B,62.78102678823155,40.03991800881429,3.1390513394115778,0.6289455613341431,B,1062.5859620049596,Correct,sub_017_day_08_data.csv,1,300,85.0,Training at home,,,,,,,,,,,,,
17,10,2148,A,56.28620710112067,67.3575968609354,2.8143103550560333,1.0580506573088877,A,1535.1116589954472,Correct,sub_017_day_08_data.csv,1,300,85.0,Training at home,,,,,,,,,,,,,
17,10,2149,A,47.86960114677109,74.44499680572267,2.393480057338554,1.1693792753068697,A,1365.1247329980831,Correct,sub_017_day_08_data.csv,1,300,85.0,Training at home,,,,,,,,,,,,,
17,10,2150,A,67.51021926222512,89.8451053517638,3.375510963111256,1.4112836146705108,A,857.8952710013255,Correct,sub_017_day_08_data.csv,1,300,86.0,Training at home,,,,,,,,,,,,,
17,10,2151,A,28.927365730378146,41.29955896470558,1.4463682865189071,0.6487319552000878,A,2050.584117998369,Correct,sub_017_day_08_data.csv,1,300,86.0,Training at home,,,,,,,,,,,,,
17,10,2152,B,63.27100566943124,46.06636822987677,3.1635502834715616,0.7236088200427155,B,1103.178987003048,Correct,sub_017_day_08_data.csv,1,300,86.0,Training at home,,,,,,,,,,,,,
17,10,2153,A,37.89947586288594,62.5733289850125,1.8949737931442971,0.9828995532498628,A,1127.1661270002369,Correct,sub_017_day_08_data.csv,1,300,86.0,Training at home,,,,,,,,,,,,,
17,10,2154,B,76.29234530873755,58.37477919165491,3.8146172654368775,0.916948887317147,B,3005.2429959978326,Correct,sub_017_day_08_data.csv,1,300,86.0,Training at home,,,,,,,,,,,,,
17,10,2155,A,57.059621656951606,76.52481684780511,2.85298108284758,1.2020490121318448,B,1830.085704998055,Incorrect,sub_017_day_08_data.csv,0,300,86.0,Training at home,,,,,,,,,,,,,
17,10,2156,A,38.56013530008145,48.74746633246616,1.9280067650040724,0.7657234105559574,A,5480.91198700422,Correct,sub_017_day_08_data.csv,1,300,86.0,Training at home,,,,,,,,,,,,,
17,10,2157,A,41.340920970395985,71.64956309779454,2.0670460485197992,1.1254687053047483,A,11695.2018019947,Correct,sub_017_day_08_data.csv,1,300,86.0,Training at home,,,,,,,,,,,,,
17,10,2158,A,42.21603865851611,54.99298587203299,2.1108019329258054,0.8638278020727307,A,1153.84971700405,Correct,sub_017_day_08_data.csv,1,300,86.0,Training at home,,,,,,,,,,,,,
17,10,2159,B,54.40896955541738,44.25299285981882,2.720448477770869,0.6951243863388419,B,4014.4846830007737,Correct,sub_017_day_08_data.csv,1,300,86.0,Training at home,,,,,,,,,,,,,
17,10,2160,A,37.39221016779039,49.80024089351075,1.8696105083895191,0.7822603546902768,A,761.8200739962049,Correct,sub_017_day_08_data.csv,1,300,86.0,Training at home,,,,,,,,,,,,,
17,10,2161,A,49.58100544960075,58.19991092026971,2.4790502724800376,0.9142020629334988,A,844.7519269975601,Correct,sub_017_day_08_data.csv,1,300,86.0,Training at home,,,,,,,,,,,,,
17,10,2162,B,41.60303235538958,30.03711363910236,2.080151617769479,0.4718218777182287,B,2973.384643002646,Correct,sub_017_day_08_data.csv,1,300,86.0,Training at home,,,,,,,,,,,,,
17,10,2163,A,55.09564533361693,70.53091280910428,2.7547822666808464,1.1078969876603213,A,3607.061937997059,Correct,sub_017_day_08_data.csv,1,300,86.0,Training at home,,,,,,,,,,,,,
17,10,2164,A,33.89914421764254,56.54232075986839,1.694957210882127,0.8881646975806008,A,3397.909912993782,Correct,sub_017_day_08_data.csv,1,300,86.0,Training at home,,,,,,,,,,,,,
17,10,2165,A,43.563157015077415,55.73265175143239,2.178157850753871,0.8754464465368915,A,618.7385189987253,Correct,sub_017_day_08_data.csv,1,300,86.0,Training at home,,,,,,,,,,,,,
17,10,2166,A,43.57984773675851,58.892812747395496,2.1789923868379253,0.9250861393822852,A,399.6366979990853,Correct,sub_017_day_08_data.csv,1,300,86.0,Training at home,,,,,,,,,,,,,
17,10,2167,B,80.49109752496801,49.23835456509275,4.024554876248401,0.7734342648827244,B,1064.9483439992764,Correct,sub_017_day_08_data.csv,1,300,86.0,Training at home,,,,,,,,,,,,,
17,10,2168,A,31.976326702840055,50.18813863712067,1.5988163351420028,0.7883534381986218,A,756.4734409970697,Correct,sub_017_day_08_data.csv,1,300,86.0,Training at home,,,,,,,,,,,,,
17,10,2169,B,63.96382563244778,42.20459090150096,3.198191281622389,0.6629481636195902,B,2220.9039489971474,Correct,sub_017_day_08_data.csv,1,300,86.0,Training at home,,,,,,,,,,,,,
17,10,2170,A,16.545337830114295,34.09072259172842,0.8272668915057148,0.5354958182487081,A,1059.6001029989566,Correct,sub_017_day_08_data.csv,1,300,86.0,Training at home,,,,,,,,,,,,,
17,10,2171,A,24.130245408463814,38.980837071440746,1.206512270423191,0.6123095568720945,A,1927.167633002682,Correct,sub_017_day_08_data.csv,1,300,86.0,Training at home,,,,,,,,,,,,,
17,10,2172,B,78.98936994159205,59.816566560560446,3.949468497079602,0.9395964303481078,B,1029.393799995887,Correct,sub_017_day_08_data.csv,1,300,86.0,Training at home,,,,,,,,,,,,,
17,10,2173,B,37.88175588750288,18.87493447736373,1.894087794375144,0.296486777455373,A,1135.1477069983955,Incorrect,sub_017_day_08_data.csv,0,300,86.0,Training at home,,,,,,,,,,,,,
17,10,2174,A,54.96133211514432,84.38890068367316,2.748066605757216,1.3255777521617311,A,917.6605020038552,Correct,sub_017_day_08_data.csv,1,300,86.0,Training at home,,,,,,,,,,,,,
17,10,2175,B,50.01968216662597,22.379281523819017,2.5009841083312985,0.351532932139238,B,1635.0075679947622,Correct,sub_017_day_08_data.csv,1,300,87.0,Training at home,,,,,,,,,,,,,
17,10,2176,A,41.512131937232326,66.45637736746687,2.075606596861616,1.0438943346091245,A,991.981780003698,Correct,sub_017_day_08_data.csv,1,300,87.0,Training at home,,,,,,,,,,,,,
17,10,2177,A,33.00448209315056,61.88452152761974,1.650224104657528,0.9720797910104478,A,713.2152909980505,Correct,sub_017_day_08_data.csv,1,300,87.0,Training at home,,,,,,,,,,,,,
17,10,2178,A,37.65442826786078,55.568685259653904,1.8827214133930392,0.8728708669068607,A,3932.0492440019734,Correct,sub_017_day_08_data.csv,1,300,87.0,Training at home,,,,,,,,,,,,,
17,10,2179,B,68.88625259265348,59.58789472189733,3.444312629632674,0.9360044615059732,B,1637.8950010039262,Correct,sub_017_day_08_data.csv,1,300,87.0,Training at home,,,,,,,,,,,,,
17,10,2180,B,60.28867076058262,34.14456078165088,3.0144335380291305,0.5363415065584228,B,4879.655676995753,Correct,sub_017_day_08_data.csv,1,300,87.0,Training at home,,,,,,,,,,,,,
17,10,2181,A,31.889076083455297,52.67678629003213,1.5944538041727645,0.8274450241174224,A,2222.215346999292,Correct,sub_017_day_08_data.csv,1,300,87.0,Training at home,,,,,,,,,,,,,
17,10,2182,B,59.66572919150637,46.28574869881682,2.983286459575319,0.7270548403905313,B,1607.674663006037,Correct,sub_017_day_08_data.csv,1,300,87.0,Training at home,,,,,,,,,,,,,
17,10,2183,B,47.63441611195898,23.4265695151896,2.381720805597949,0.3679836934386512,B,2759.9578619992826,Correct,sub_017_day_08_data.csv,1,300,87.0,Training at home,,,,,,,,,,,,,
17,10,2184,B,75.29785463498696,55.306984986275765,3.764892731749348,0.8687600886254246,B,1872.6450050016865,Correct,sub_017_day_08_data.csv,1,300,87.0,Training at home,,,,,,,,,,,,,
17,10,2185,A,15.789317285102278,33.49002608565295,0.7894658642551139,0.5260600995960892,A,1580.9006850031435,Correct,sub_017_day_08_data.csv,1,300,87.0,Training at home,,,,,,,,,,,,,
17,10,2186,B,44.60995959836209,16.78253008645137,2.230497979918104,0.2636193661412265,B,1358.1228299954091,Correct,sub_017_day_08_data.csv,1,300,87.0,Training at home,,,,,,,,,,,,,
17,10,2187,A,18.898689772499832,45.45245385102625,0.9449344886249916,0.7139654755300658,A,2934.731754998211,Correct,sub_017_day_08_data.csv,1,300,87.0,Training at home,,,,,,,,,,,,,
17,10,2188,B,83.95072118169068,54.8294797518767,4.197536059084534,0.8612594539432307,B,1143.934346997412,Correct,sub_017_day_08_data.csv,1,300,87.0,Training at home,,,,,,,,,,,,,
17,10,2189,B,31.881149160546062,15.478458960073697,1.594057458027303,0.2431350647892931,B,1750.9139600006165,Correct,sub_017_day_08_data.csv,1,300,87.0,Training at home,,,,,,,,,,,,,
17,10,2190,B,66.82608256899927,55.584862327784435,3.341304128449963,0.8731249756988381,B,2343.3093019993976,Correct,sub_017_day_08_data.csv,1,300,87.0,Training at home,,,,,,,,,,,,,
17,10,2191,B,61.38666967132591,52.18746696312918,3.0693334835662953,0.8197588141041333,B,4201.472890999867,Correct,sub_017_day_08_data.csv,1,300,87.0,Training at home,,,,,,,,,,,,,
17,10,2192,B,30.06195202271185,13.65410204293936,1.5030976011355923,0.2144781333473184,A,3014.165254004183,Incorrect,sub_017_day_08_data.csv,0,300,87.0,Training at home,,,,,,,,,,,,,
17,10,2193,A,34.91841498977954,60.28179142409496,1.745920749488977,0.9469041654158444,A,1504.569115000777,Correct,sub_017_day_08_data.csv,1,300,87.0,Training at home,,,,,,,,,,,,,
17,10,2194,B,79.60644972841924,63.69087439234361,3.980322486420962,1.0004539154584848,B,4374.518880998949,Correct,sub_017_day_08_data.csv,1,300,87.0,Training at home,,,,,,,,,,,,,
17,10,2195,B,54.29072158924099,26.155646450696267,2.7145360794620497,0.4108519336969967,B,2405.68840999913,Correct,sub_017_day_08_data.csv,1,300,87.0,Training at home,,,,,,,,,,,,,
17,10,2196,A,17.389024709769384,41.9960318958495,0.8694512354884693,0.6596721264196171,A,1153.1608539953595,Correct,sub_017_day_08_data.csv,1,300,87.0,Training at home,,,,,,,,,,,,,
17,10,2197,A,52.12080234185854,60.62734456682265,2.606040117092927,0.9523321014889355,B,1971.096455999941,Incorrect,sub_017_day_08_data.csv,0,300,87.0,Training at home,,,,,,,,,,,,,
17,10,2198,B,50.406431651298355,23.0504543667468,2.5203215825649177,0.3620756905023926,B,2105.457061996276,Correct,sub_017_day_08_data.csv,1,300,87.0,Training at home,,,,,,,,,,,,,
17,10,2199,A,44.81277998252353,66.59425602016229,2.2406389991261766,1.0460601274210986,A,825.0127700011944,Correct,sub_017_day_08_data.csv,1,300,87.0,Training at home,,,,,,,,,,,,,
17,10,2200,A,26.742593562422492,47.306446387419115,1.3371296781211246,0.7430879221907765,A,842.2281050006859,Correct,sub_017_day_08_data.csv,1,300,88.0,Training at home,,,,,,,,,,,,,
17,10,2201,B,44.978698949667965,28.271227423116446,2.248934947483398,0.4440834019021446,B,1054.4157010008348,Correct,sub_017_day_08_data.csv,1,300,88.0,Training at home,,,,,,,,,,,,,
17,10,2202,A,31.04066797386492,43.049523120225174,1.552033398693246,0.6762203278752168,A,1067.87550199806,Correct,sub_017_day_08_data.csv,1,300,88.0,Training at home,,,,,,,,,,,,,
17,10,2203,B,78.35293279668124,59.21537498458135,3.917646639834062,0.930152935155628,B,453.6596260004444,Correct,sub_017_day_08_data.csv,1,300,88.0,Training at home,,,,,,,,,,,,,
17,10,2204,A,23.067929150947812,46.34860892088078,1.1533964575473905,0.7280422464497269,A,1579.617370996857,Correct,sub_017_day_08_data.csv,1,300,88.0,Training at home,,,,,,,,,,,,,
17,10,2205,A,40.40472225828352,55.49787558861469,2.020236112914176,0.871758591195161,A,4055.3648700006306,Correct,sub_017_day_08_data.csv,1,300,88.0,Training at home,,,,,,,,,,,,,
17,10,2206,A,21.00307397604432,50.45993333975003,1.050153698802216,0.7926227794039469,A,794.0331159989,Correct,sub_017_day_08_data.csv,1,300,88.0,Training at home,,,,,,,,,,,,,
17,10,2207,B,44.842122879088976,34.66290258693332,2.242106143954449,0.5444836005960417,B,1959.0924160002032,Correct,sub_017_day_08_data.csv,1,300,88.0,Training at home,,,,,,,,,,,,,
17,10,2208,A,33.66578758698813,61.24299648381659,1.6832893793494066,0.9620027391869186,A,2284.865374997026,Correct,sub_017_day_08_data.csv,1,300,88.0,Training at home,,,,,,,,,,,,,
17,10,2209,B,70.59887450423913,53.88338603983375,3.5299437252119565,0.8463982486664227,B,3421.7598239993094,Correct,sub_017_day_08_data.csv,1,300,88.0,Training at home,,,,,,,,,,,,,
17,10,2210,B,32.200078608295385,11.909958221221018,1.610003930414769,0.1870811862617465,B,909.2362040028092,Correct,sub_017_day_08_data.csv,1,300,88.0,Training at home,,,,,,,,,,,,,
17,10,2211,B,61.72607331040248,42.00590453982427,3.0863036655201244,0.6598272055485304,B,2318.5145009992993,Correct,sub_017_day_08_data.csv,1,300,88.0,Training at home,,,,,,,,,,,,,
17,10,2212,A,27.976869028945615,47.63335771640837,1.3988434514472805,0.748223033338416,A,1117.4847750007757,Correct,sub_017_day_08_data.csv,1,300,88.0,Training at home,,,,,,,,,,,,,
17,10,2213,A,59.20273329410918,78.20164268958328,2.960136664705459,1.228388530861244,A,1500.0567179959037,Correct,sub_017_day_08_data.csv,1,300,88.0,Training at home,,,,,,,,,,,,,
17,10,2214,A,29.43183423381457,50.27807915951414,1.4715917116907289,0.7897662206206786,A,1016.76679400407,Correct,sub_017_day_08_data.csv,1,300,88.0,Training at home,,,,,,,,,,,,,
17,10,2215,A,65.54062216439516,86.28713478191379,3.2770311082197576,1.3553951436508636,A,599.4966939979349,Correct,sub_017_day_08_data.csv,1,300,88.0,Training at home,,,,,,,,,,,,,
17,10,2216,B,44.41725317608954,20.276260736534592,2.2208626588044766,0.3184987588608412,B,4716.137657000218,Correct,sub_017_day_08_data.csv,1,300,88.0,Training at home,,,,,,,,,,,,,
17,10,2217,B,48.50917488864378,33.42864257031598,2.4254587444321887,0.5250958895919186,B,1048.9812360028736,Correct,sub_017_day_08_data.csv,1,300,88.0,Training at home,,,,,,,,,,,,,
17,10,2218,A,45.915214610706954,74.8125735897985,2.295760730535348,1.1751531579292838,A,1378.7070589969517,Correct,sub_017_day_08_data.csv,1,300,88.0,Training at home,,,,,,,,,,,,,
17,10,2219,B,68.8651200202823,57.730246944239134,3.443256001014115,0.9068245984497314,B,958.909421999124,Correct,sub_017_day_08_data.csv,1,300,88.0,Training at home,,,,,,,,,,,,,
17,10,2220,A,45.54940597233885,61.29313970541047,2.277470298616943,0.962790387069852,A,842.5270809966605,Correct,sub_017_day_08_data.csv,1,300,88.0,Training at home,,,,,,,,,,,,,
17,10,2221,A,37.78953805294459,65.95286234713939,1.8894769026472296,1.03598513916496,A,1245.0120799985598,Correct,sub_017_day_08_data.csv,1,300,88.0,Training at home,,,,,,,,,,,,,
17,10,2222,B,61.49161166738393,34.61513150623973,3.074580583369196,0.5437332142152366,B,1039.750345000357,Correct,sub_017_day_08_data.csv,1,300,88.0,Training at home,,,,,,,,,,,,,
17,10,2223,B,49.60522310245631,38.31913247564481,2.4802611551228155,0.601915525387099,A,693.6124880012358,Incorrect,sub_017_day_08_data.csv,0,300,88.0,Training at home,,,,,,,,,,,,,
17,10,2224,A,67.40200804688087,82.78235752721672,3.370100402344043,1.3003422312717388,A,789.5452079974348,Correct,sub_017_day_08_data.csv,1,300,88.0,Training at home,,,,,,,,,,,,,
17,10,2225,B,56.04602783205182,43.50825002148015,2.802301391602591,0.6834259931901501,B,629.8319819979952,Correct,sub_017_day_08_data.csv,1,300,89.0,Training at home,,,,,,,,,,,,,
17,10,2226,B,63.552977901460046,32.148797581784294,3.177648895073002,0.5049921315233943,B,445.84919400222134,Correct,sub_017_day_08_data.csv,1,300,89.0,Training at home,,,,,,,,,,,,,
17,10,2227,B,78.51275502080196,63.51598865804195,3.9256377510400977,0.997706816767986,A,1111.9515169993974,Incorrect,sub_017_day_08_data.csv,0,300,89.0,Training at home,,,,,,,,,,,,,
17,10,2228,A,38.78292562447868,71.42543212595704,1.939146281223934,1.1219480642319153,A,507.08729199686786,Correct,sub_017_day_08_data.csv,1,300,89.0,Training at home,,,,,,,,,,,,,
17,10,2229,B,45.21797806933904,37.06844150233644,2.260898903466952,0.5822697175188158,B,1043.7023120030062,Correct,sub_017_day_08_data.csv,1,300,89.0,Training at home,,,,,,,,,,,,,
17,10,2230,A,20.90469198402893,34.24301770469396,1.0452345992014462,0.5378880642890588,A,537.3342149978271,Correct,sub_017_day_08_data.csv,1,300,89.0,Training at home,,,,,,,,,,,,,
17,10,2231,B,44.74520526238661,36.77248096615304,2.2372602631193304,0.5776207802876845,B,2039.566407998791,Correct,sub_017_day_08_data.csv,1,300,89.0,Training at home,,,,,,,,,,,,,
17,10,2232,A,64.65793828029382,89.48859682102321,3.232896914014691,1.405683591764927,A,1190.0700940022944,Correct,sub_017_day_08_data.csv,1,300,89.0,Training at home,,,,,,,,,,,,,
17,10,2233,B,74.5353230462035,60.81968348114667,3.726766152310175,0.9553533540901344,B,407.2195019980427,Correct,sub_017_day_08_data.csv,1,300,89.0,Training at home,,,,,,,,,,,,,
17,10,2234,B,78.90558310418726,66.0618887464552,3.945279155209363,1.0376977218406491,B,480.8600460019079,Correct,sub_017_day_08_data.csv,1,300,89.0,Training at home,,,,,,,,,,,,,
17,10,2235,A,34.29258937763382,52.029503323944105,1.7146294688816908,0.8172775270621426,A,571.0885000007693,Correct,sub_017_day_08_data.csv,1,300,89.0,Training at home,,,,,,,,,,,,,
17,10,2236,A,22.004298195714973,45.635580719430926,1.1002149097857483,0.7168420256523411,A,999.835805996554,Correct,sub_017_day_08_data.csv,1,300,89.0,Training at home,,,,,,,,,,,,,
17,10,2237,A,61.34596167247699,79.78149233318283,3.0672980836238493,1.253204751031788,A,1679.0289350028615,Correct,sub_017_day_08_data.csv,1,300,89.0,Training at home,,,,,,,,,,,,,
17,10,2238,B,78.08000147514373,56.22384757897149,3.9040000737571865,0.8831621325532454,B,2532.40115600056,Correct,sub_017_day_08_data.csv,1,300,89.0,Training at home,,,,,,,,,,,,,
17,10,2239,B,82.37395597622387,62.28940593504758,4.118697798811194,0.9784397004100898,B,1577.361313997244,Correct,sub_017_day_08_data.csv,1,300,89.0,Training at home,,,,,,,,,,,,,
17,10,2240,A,26.644230287143817,46.8872777232077,1.3322115143571909,0.7365036362102684,A,1006.917850994796,Correct,sub_017_day_08_data.csv,1,300,89.0,Training at home,,,,,,,,,,,,,
17,10,2241,B,53.09170282306282,22.801483127646055,2.6545851411531407,0.3581648594238223,B,484.5752059991355,Correct,sub_017_day_08_data.csv,1,300,89.0,Training at home,,,,,,,,,,,,,
17,10,2242,A,43.72790024205066,65.5069629790486,2.186395012102533,1.028980968269788,A,1112.0621369991568,Correct,sub_017_day_08_data.csv,1,300,89.0,Training at home,,,,,,,,,,,,,
17,10,2243,A,50.14762580346358,61.42169407020672,2.5073812901731793,0.964809714310006,A,1413.308301998768,Correct,sub_017_day_08_data.csv,1,300,89.0,Training at home,,,,,,,,,,,,,
17,10,2244,A,62.408862094182126,80.68419980260998,3.1204431047091066,1.267384446803253,A,1418.472526995174,Correct,sub_017_day_08_data.csv,1,300,89.0,Training at home,,,,,,,,,,,,,
17,10,2245,A,27.236715467000767,42.59129911020067,1.3618357733500384,0.6690225619572596,A,787.3847560040304,Correct,sub_017_day_08_data.csv,1,300,89.0,Training at home,,,,,,,,,,,,,
17,10,2246,A,34.65653741531693,65.85046705463343,1.7328268707658467,1.034376717671465,A,1515.4702290019486,Correct,sub_017_day_08_data.csv,1,300,89.0,Training at home,,,,,,,,,,,,,
17,10,2247,A,39.72249925748293,60.36321604157472,1.9861249628741464,0.9481831803163234,A,791.9674969962216,Correct,sub_017_day_08_data.csv,1,300,89.0,Training at home,,,,,,,,,,,,,
17,10,2248,B,74.63248544436017,43.572868735438696,3.731624272218008,0.6844410215754329,B,1920.094348002749,Correct,sub_017_day_08_data.csv,1,300,89.0,Training at home,,,,,,,,,,,,,
17,10,2249,A,62.24450971347942,75.44866102898112,3.112225485673971,1.185144796059168,A,1249.1223809993244,Correct,sub_017_day_08_data.csv,1,300,89.0,Training at home,,,,,,,,,,,,,
17,10,2250,A,58.598497968313566,78.7901587110778,2.929924898415678,1.2376329189094792,A,833.7581880041398,Correct,sub_017_day_08_data.csv,1,300,90.0,Training at home,,,,,,,,,,,,,
17,10,2251,A,45.70828624600364,56.89270028354701,2.285414312300182,0.8936684462683862,B,864.6285739960149,Incorrect,sub_017_day_08_data.csv,0,300,90.0,Training at home,,,,,,,,,,,,,
17,10,2252,B,49.946182250922554,34.31194828919706,2.497309112546128,0.5389708233784718,B,424.5203460013727,Correct,sub_017_day_08_data.csv,1,300,90.0,Training at home,,,,,,,,,,,,,
17,10,2253,A,66.02875273179077,89.40802901380448,3.3014376365895384,1.4044180356085565,A,448.9416289943619,Correct,sub_017_day_08_data.csv,1,300,90.0,Training at home,,,,,,,,,,,,,
17,10,2254,A,23.557726787250537,46.84838198310106,1.177886339362527,0.7358926633533935,A,509.7487329985597,Correct,sub_017_day_08_data.csv,1,300,90.0,Training at home,,,,,,,,,,,,,
17,10,2255,A,59.793799468178406,81.24208918417742,2.9896899734089204,1.276147752716493,A,517.5299500042456,Correct,sub_017_day_08_data.csv,1,300,90.0,Training at home,,,,,,,,,,,,,
17,10,2256,A,38.78180069897031,46.55181995637771,1.9390900349485152,0.7312342779309547,A,564.0420369963977,Correct,sub_017_day_08_data.csv,1,300,90.0,Training at home,,,,,,,,,,,,,
17,10,2257,A,44.52495661529207,52.94439857603936,2.2262478307646036,0.831648668076076,A,609.92908100161,Correct,sub_017_day_08_data.csv,1,300,90.0,Training at home,,,,,,,,,,,,,
17,10,2258,B,47.36342145306065,33.707147581929824,2.3681710726530327,0.5294706360842885,B,760.678356004064,Correct,sub_017_day_08_data.csv,1,300,90.0,Training at home,,,,,,,,,,,,,
17,10,2259,A,39.588477047677486,47.64472130808493,1.9794238523838743,0.7484015322190636,B,442.3361669978476,Incorrect,sub_017_day_08_data.csv,0,300,90.0,Training at home,,,,,,,,,,,,,
17,10,2260,B,71.68293662599778,58.54828545856874,3.5841468312998894,0.9196743173845884,B,554.6618750013295,Correct,sub_017_day_08_data.csv,1,300,90.0,Training at home,,,,,,,,,,,,,
17,10,2261,A,50.864387452584346,59.44421715586194,2.5432193726292174,0.9337475795762612,B,1315.9143759985454,Incorrect,sub_017_day_08_data.csv,0,300,90.0,Training at home,,,,,,,,,,,,,
17,10,2262,A,52.02254485998037,76.7547289545214,2.6011272429990187,1.2056604630590009,A,619.950323998637,Correct,sub_017_day_08_data.csv,1,300,90.0,Training at home,,,,,,,,,,,,,
17,10,2263,A,22.14657909027972,43.87304257910494,1.107328954513986,0.6891561412857413,A,680.0199690042064,Correct,sub_017_day_08_data.csv,1,300,90.0,Training at home,,,,,,,,,,,,,
17,10,2264,B,79.18210708987752,63.40148845134464,3.959105354493876,0.995908251727012,A,544.2058700064081,Incorrect,sub_017_day_08_data.csv,0,300,90.0,Training at home,,,,,,,,,,,,,
17,10,2265,B,58.17510641145931,36.69653539013882,2.9087553205729653,0.5764278299692898,B,584.3506029996206,Correct,sub_017_day_08_data.csv,1,300,90.0,Training at home,,,,,,,,,,,,,
17,10,2266,A,26.4568930545639,51.535430713520114,1.322844652728195,0.8095166526459029,A,479.0787530000671,Correct,sub_017_day_08_data.csv,1,300,90.0,Training at home,,,,,,,,,,,,,
17,10,2267,B,70.84037738606963,44.39965579840912,3.5420188693034818,0.6974281623909877,B,617.887303000316,Correct,sub_017_day_08_data.csv,1,300,90.0,Training at home,,,,,,,,,,,,,
17,10,2268,B,59.5860303198653,38.82449996271871,2.979301515993265,0.6098538193108715,B,666.0355999993044,Correct,sub_017_day_08_data.csv,1,300,90.0,Training at home,,,,,,,,,,,,,
17,10,2269,B,69.65005590238255,54.82712389264081,3.482502795119127,0.8612224481928891,B,571.4606420006021,Correct,sub_017_day_08_data.csv,1,300,90.0,Training at home,,,,,,,,,,,,,
17,10,2270,B,63.82473045201065,31.4767984130648,3.191236522600532,0.4944363932650562,B,493.0676730000414,Correct,sub_017_day_08_data.csv,1,300,90.0,Training at home,,,,,,,,,,,,,
17,10,2271,B,51.61237561433963,41.30437528091563,2.5806187807169816,0.6488076097182021,B,708.4226320002927,Correct,sub_017_day_08_data.csv,1,300,90.0,Training at home,,,,,,,,,,,,,
17,10,2272,A,49.058602455795736,62.32145849243997,2.4529301227897866,0.9789431808042532,A,671.6614920005668,Correct,sub_017_day_08_data.csv,1,300,90.0,Training at home,,,,,,,,,,,,,
17,10,2273,B,37.1892823512289,21.293697548779175,1.8594641175614448,0.3344806189350382,B,893.2775409994065,Correct,sub_017_day_08_data.csv,1,300,90.0,Training at home,,,,,,,,,,,,,
17,10,2274,B,48.9709386538228,20.280594735225247,2.44854693269114,0.3185668371530773,B,512.258473005204,Correct,sub_017_day_08_data.csv,1,300,90.0,Training at home,,,,,,,,,,,,,
17,10,2275,B,81.95368417504653,63.82893535604012,4.097684208752327,1.0026225720049675,B,687.3598810052499,Correct,sub_017_day_08_data.csv,1,300,91.0,Training at home,,,,,,,,,,,,,
17,10,2276,A,39.27855891556797,64.30429207222507,1.9639279457783985,1.0100894578419732,A,722.4221650030813,Correct,sub_017_day_08_data.csv,1,300,91.0,Training at home,,,,,,,,,,,,,
17,10,2277,B,51.7683139750668,42.44124252270161,2.58841569875334,0.6666654785927105,B,1030.5138219991932,Correct,sub_017_day_08_data.csv,1,300,91.0,Training at home,,,,,,,,,,,,,
17,10,2278,B,82.5732208194999,67.34950458955721,4.128661040974995,1.057923544207325,B,587.9058299979079,Correct,sub_017_day_08_data.csv,1,300,91.0,Training at home,,,,,,,,,,,,,
17,10,2279,B,67.9911692832874,45.04582847255999,3.39955846416437,0.707578219021302,B,398.6944220014266,Correct,sub_017_day_08_data.csv,1,300,91.0,Training at home,,,,,,,,,,,,,
17,10,2280,B,38.123234930460995,22.889710648405355,1.9061617465230496,0.3595507340791316,B,886.5507530063041,Correct,sub_017_day_08_data.csv,1,300,91.0,Training at home,,,,,,,,,,,,,
17,10,2281,B,41.14103781464782,29.218611377367267,2.0570518907323905,0.4589648742561608,B,829.934310997487,Correct,sub_017_day_08_data.csv,1,300,91.0,Training at home,,,,,,,,,,,,,
17,10,2282,B,54.78320658141828,43.827760714886,2.739160329070914,0.6884448554258861,B,626.0338919964852,Correct,sub_017_day_08_data.csv,1,300,91.0,Training at home,,,,,,,,,,,,,
17,10,2283,B,49.50087265315541,27.836638037340357,2.4750436326577705,0.4372568877937333,B,716.3617180049187,Correct,sub_017_day_08_data.csv,1,300,91.0,Training at home,,,,,,,,,,,,,
17,10,2284,A,13.501900396542723,32.571607462249275,0.6750950198271362,0.5116336135950641,A,431.03508000058355,Correct,sub_017_day_08_data.csv,1,300,91.0,Training at home,,,,,,,,,,,,,
17,10,2285,A,13.88831688026588,41.71998963421339,0.6944158440132939,0.6553360647134355,A,375.15072600217536,Correct,sub_017_day_08_data.csv,1,300,91.0,Training at home,,,,,,,,,,,,,
17,10,2286,B,74.04167686686353,42.211066304297205,3.7020838433431766,0.6630498790088588,B,632.4961529971915,Correct,sub_017_day_08_data.csv,1,300,91.0,Training at home,,,,,,,,,,,,,
17,10,2287,B,76.23830300589611,50.10553262969112,3.811915150294806,0.7870558660682064,B,411.5786949987523,Correct,sub_017_day_08_data.csv,1,300,91.0,Training at home,,,,,,,,,,,,,
17,10,2288,A,47.96925402541804,62.56881995955959,2.3984627012709017,0.982828725643674,A,587.3972879999201,Correct,sub_017_day_08_data.csv,1,300,91.0,Training at home,,,,,,,,,,,,,
17,10,2289,B,74.58747367937862,55.130790551818315,3.72937368396893,0.86599243292095,B,389.8642450003535,Correct,sub_017_day_08_data.csv,1,300,91.0,Training at home,,,,,,,,,,,,,
17,10,2290,B,77.87633716342845,58.34261683106058,3.893816858171422,0.9164436821383208,A,505.35211299575167,Incorrect,sub_017_day_08_data.csv,0,300,91.0,Training at home,,,,,,,,,,,,,
17,10,2291,A,41.17433096961817,58.61692446428338,2.058716548480908,0.9207524963651024,B,873.2898630041745,Incorrect,sub_017_day_08_data.csv,0,300,91.0,Training at home,,,,,,,,,,,,,
17,10,2292,B,70.24206398719204,60.15124239777121,3.5121031993596024,0.9448535061056846,B,584.9915029975818,Correct,sub_017_day_08_data.csv,1,300,91.0,Training at home,,,,,,,,,,,,,
17,10,2293,A,47.857143896796714,72.40929306250646,2.3928571948398356,1.1374025156840033,A,677.5484229947324,Correct,sub_017_day_08_data.csv,1,300,91.0,Training at home,,,,,,,,,,,,,
17,10,2294,A,65.33284410006769,78.0899052396578,3.2666422050033845,1.2266333631021602,B,504.9016539996955,Incorrect,sub_017_day_08_data.csv,0,300,91.0,Training at home,,,,,,,,,,,,,
17,10,2295,A,46.405238128150806,54.76164017606108,2.3202619064075405,0.8601938323782057,A,973.1986409969976,Correct,sub_017_day_08_data.csv,1,300,91.0,Training at home,,,,,,,,,,,,,
17,10,2296,A,49.17325711582315,59.38838189516875,2.4586628557911574,0.932870521352236,A,1037.794039999426,Correct,sub_017_day_08_data.csv,1,300,91.0,Training at home,,,,,,,,,,,,,
17,10,2297,B,59.533148664835366,42.162850926727245,2.976657433241769,0.6622925136290396,B,736.0589160016389,Correct,sub_017_day_08_data.csv,1,300,91.0,Training at home,,,,,,,,,,,,,
17,10,2298,A,27.624586843448984,55.13786356699219,1.3812293421724493,0.866103535583495,A,698.4309589970508,Correct,sub_017_day_08_data.csv,1,300,91.0,Training at home,,,,,,,,,,,,,
17,10,2299,A,66.47285258773258,80.57499916514996,3.323642629386629,1.265669127201194,B,639.0357080017566,Incorrect,sub_017_day_08_data.csv,0,300,91.0,Training at home,,,,,,,,,,,,,
17,10,2300,B,47.364053665709925,28.29701231979626,2.3682026832854963,0.4444884301120589,B,563.8126849953551,Correct,sub_017_day_08_data.csv,1,300,92.0,Training at home,,,,,,,,,,,,,
17,10,2301,B,51.226038489717965,33.16285187159134,2.561301924485898,0.5209208590593895,B,1212.64261000033,Correct,sub_017_day_08_data.csv,1,300,92.0,Training at home,,,,,,,,,,,,,
17,10,2302,A,18.75793621133959,48.26415866085282,0.9378968105669796,0.7581316314031371,A,454.1842050020932,Correct,sub_017_day_08_data.csv,1,300,92.0,Training at home,,,,,,,,,,,,,
17,10,2303,B,76.39093044449133,56.811324152500355,3.8195465222245666,0.8923901929910174,B,1250.105673003418,Correct,sub_017_day_08_data.csv,1,300,92.0,Training at home,,,,,,,,,,,,,
17,10,2304,A,38.70709042835887,60.50594747256721,1.9353545214179433,0.9504252003915352,A,844.0554600019823,Correct,sub_017_day_08_data.csv,1,300,92.0,Training at home,,,,,,,,,,,,,
17,10,2305,A,42.86654661412841,68.9568376560692,2.1433273307064207,1.083171472975455,A,2037.0405499998017,Correct,sub_017_day_08_data.csv,1,300,92.0,Training at home,,,,,,,,,,,,,
17,10,2306,A,53.8858312787917,75.96677488252215,2.694291563939585,1.193283309439206,B,423.6872210021829,Incorrect,sub_017_day_08_data.csv,0,300,92.0,Training at home,,,,,,,,,,,,,
17,10,2307,A,22.4003477201537,47.481989471572206,1.120017386007685,0.7458453465085956,A,570.508349002921,Correct,sub_017_day_08_data.csv,1,300,92.0,Training at home,,,,,,,,,,,,,
17,10,2308,B,66.36991288422706,55.38996566914841,3.318495644211353,0.8700635461439374,B,596.7254249990219,Correct,sub_017_day_08_data.csv,1,300,92.0,Training at home,,,,,,,,,,,,,
17,10,2309,A,31.776479999324476,43.67142950431363,1.588823999966224,0.6859892105125813,A,690.310474994476,Correct,sub_017_day_08_data.csv,1,300,92.0,Training at home,,,,,,,,,,,,,
17,10,2310,A,21.84395992206036,41.91540685209945,1.0921979961030182,0.6584056711939146,A,868.179681005131,Correct,sub_017_day_08_data.csv,1,300,92.0,Training at home,,,,,,,,,,,,,
17,10,2311,A,34.788711725649776,49.76583540155765,1.7394355862824886,0.7817199144864618,A,2179.895393004699,Correct,sub_017_day_08_data.csv,1,300,92.0,Training at home,,,,,,,,,,,,,
17,10,2312,B,48.98467091450111,27.998043263339746,2.449233545725056,0.4397922351549868,B,1582.203206999111,Correct,sub_017_day_08_data.csv,1,300,92.0,Training at home,,,,,,,,,,,,,
17,10,2313,A,27.67281260667444,39.15129160380718,1.383640630333722,0.614987050405362,A,996.399563999148,Correct,sub_017_day_08_data.csv,1,300,92.0,Training at home,,,,,,,,,,,,,
17,10,2314,A,36.814854749158805,65.94970308470586,1.84074273745794,1.0359355135867003,A,939.478804997634,Correct,sub_017_day_08_data.csv,1,300,92.0,Training at home,,,,,,,,,,,,,
17,10,2315,B,85.17722000670886,56.24609513349811,4.258861000335443,0.8835115963225514,B,913.2446799994796,Correct,sub_017_day_08_data.csv,1,300,92.0,Training at home,,,,,,,,,,,,,
17,10,2316,A,42.627024452255824,61.4592758958984,2.1313512226127913,0.9654000482475136,A,516.7953470008797,Correct,sub_017_day_08_data.csv,1,300,92.0,Training at home,,,,,,,,,,,,,
17,10,2317,B,63.02295509434276,43.251477526896686,3.151147754717138,0.6793926202770132,B,1139.679298001283,Correct,sub_017_day_08_data.csv,1,300,92.0,Training at home,,,,,,,,,,,,,
17,10,2318,B,42.38587620602639,24.42684556725257,2.1192938103013192,0.3836959929222653,B,1275.2116129995557,Correct,sub_017_day_08_data.csv,1,300,92.0,Training at home,,,,,,,,,,,,,
17,10,2319,B,63.30321200298002,31.147495906148592,3.1651606001490005,0.4892637215823728,B,971.35395299847,Correct,sub_017_day_08_data.csv,1,300,92.0,Training at home,,,,,,,,,,,,,
17,10,2320,B,77.91141862528067,64.65591990993697,3.895570931264034,1.0156128150007402,B,794.8884099969291,Correct,sub_017_day_08_data.csv,1,300,92.0,Training at home,,,,,,,,,,,,,
17,10,2321,A,22.31294575479047,48.669850953963355,1.1156472877395234,0.7645042310414073,A,1086.913248997007,Correct,sub_017_day_08_data.csv,1,300,92.0,Training at home,,,,,,,,,,,,,
17,10,2322,A,16.657352944587647,37.71996963273827,0.8328676472293823,0.5925038974592032,A,838.3833590050926,Correct,sub_017_day_08_data.csv,1,300,92.0,Training at home,,,,,,,,,,,,,
17,10,2323,B,81.93927902804306,66.07909855173867,4.096963951402153,1.037968052829891,B,1662.3489880003035,Correct,sub_017_day_08_data.csv,1,300,92.0,Training at home,,,,,,,,,,,,,
17,10,2324,A,24.004176520563473,37.030088432390535,1.2002088260281736,0.5816672689048924,A,986.9342279998818,Correct,sub_017_day_08_data.csv,1,300,92.0,Training at home,,,,,,,,,,,,,
17,10,2325,B,67.61327969797068,34.71637736682329,3.3806639848985345,0.545323580474315,B,1259.861729995464,Correct,sub_017_day_08_data.csv,1,300,93.0,Training at home,,,,,,,,,,,,,
17,10,2326,B,37.850270549099704,12.975918064616836,1.8925135274549856,0.2038252443269166,B,758.8731470023049,Correct,sub_017_day_08_data.csv,1,300,93.0,Training at home,,,,,,,,,,,,,
17,10,2327,A,42.77105924388393,64.40016771077654,2.1385529621941965,1.0115954688506308,A,938.201602002664,Correct,sub_017_day_08_data.csv,1,300,93.0,Training at home,,,,,,,,,,,,,
17,10,2328,B,74.9001370039579,64.69209042856468,3.7450068501978944,1.0161809801787267,B,687.7348440029891,Correct,sub_017_day_08_data.csv,1,300,93.0,Training at home,,,,,,,,,,,,,
17,10,2329,A,47.44958672961158,68.87107496291604,2.372479336480579,1.081824315741645,A,447.88805399730336,Correct,sub_017_day_08_data.csv,1,300,93.0,Training at home,,,,,,,,,,,,,
17,10,2330,B,63.719498633062535,32.033010954605324,3.185974931653127,0.5031733594367472,B,910.6825290000417,Correct,sub_017_day_08_data.csv,1,300,93.0,Training at home,,,,,,,,,,,,,
17,10,2331,B,56.0480049486916,47.21024256115037,2.80240024743458,0.741576756021511,B,1924.702445998264,Correct,sub_017_day_08_data.csv,1,300,93.0,Training at home,,,,,,,,,,,,,
17,10,2332,A,37.45341995798526,58.19599280480261,1.872670997899263,0.9141405173196616,A,723.9912020013435,Correct,sub_017_day_08_data.csv,1,300,93.0,Training at home,,,,,,,,,,,,,
17,10,2333,A,17.992624325758758,37.68601851063969,0.8996312162879379,0.591970594480373,A,583.3087709979736,Correct,sub_017_day_08_data.csv,1,300,93.0,Training at home,,,,,,,,,,,,,
17,10,2334,A,40.69818607707985,50.161156136451226,2.034909303853993,0.7879295980692288,A,879.1673360028653,Correct,sub_017_day_08_data.csv,1,300,93.0,Training at home,,,,,,,,,,,,,
17,10,2335,A,65.42998539013072,85.99623081462789,3.271499269506536,1.350825634818236,A,856.091670000751,Correct,sub_017_day_08_data.csv,1,300,93.0,Training at home,,,,,,,,,,,,,
17,10,2336,B,47.844704452792605,17.18749312782734,2.39223522263963,0.2699805107200371,B,1024.1924009969807,Correct,sub_017_day_08_data.csv,1,300,93.0,Training at home,,,,,,,,,,,,,
17,10,2337,B,45.13101866231781,34.48197878169245,2.2565509331158906,0.5416416561090206,B,937.9714379974756,Correct,sub_017_day_08_data.csv,1,300,93.0,Training at home,,,,,,,,,,,,,
17,10,2338,B,36.97989509422058,20.987261066606266,1.848994754711029,0.3296671259291066,B,869.1676930029644,Correct,sub_017_day_08_data.csv,1,300,93.0,Training at home,,,,,,,,,,,,,
17,10,2339,A,36.398921481480166,57.35693674950715,1.819946074074008,0.9009606556233304,A,1775.0744220029446,Correct,sub_017_day_08_data.csv,1,300,93.0,Training at home,,,,,,,,,,,,,
17,10,2340,A,63.289122485525496,73.72507455794909,3.1644561242762745,1.1580707630830631,B,1548.545876001299,Incorrect,sub_017_day_08_data.csv,0,300,93.0,Training at home,,,,,,,,,,,,,
17,10,2341,B,62.767089105867754,47.89382293230523,3.1383544552933875,0.7523144113823023,B,947.8417040008936,Correct,sub_017_day_08_data.csv,1,300,93.0,Training at home,,,,,,,,,,,,,
17,10,2342,A,46.81768491120079,73.04831339041363,2.3408842455600394,1.1474402235222418,A,1113.354912995419,Correct,sub_017_day_08_data.csv,1,300,93.0,Training at home,,,,,,,,,,,,,
17,10,2343,A,32.99667195849723,52.0109507771952,1.6498335979248615,0.8169861043392839,A,2222.915735001152,Correct,sub_017_day_08_data.csv,1,300,93.0,Training at home,,,,,,,,,,,,,
17,10,2344,B,54.121138536211305,43.34466155308793,2.7060569268105654,0.6808563515375851,B,1632.3838319949573,Correct,sub_017_day_08_data.csv,1,300,93.0,Training at home,,,,,,,,,,,,,
17,10,2345,B,62.368574609695216,40.308388303890425,3.1184287304847604,0.6331626828677345,B,1769.6649819990853,Correct,sub_017_day_08_data.csv,1,300,93.0,Training at home,,,,,,,,,,,,,
17,10,2346,B,49.43963385756151,21.945554686182575,2.471981692878076,0.3447199669053211,B,1511.6237129986985,Correct,sub_017_day_08_data.csv,1,300,93.0,Training at home,,,,,,,,,,,,,
17,10,2347,A,40.17481965025033,55.24025414575851,2.008740982512516,0.8677118830337405,A,1580.8921700008796,Correct,sub_017_day_08_data.csv,1,300,93.0,Training at home,,,,,,,,,,,,,
17,10,2348,B,46.30461745247774,30.378481767224855,2.315230872623887,0.4771840757356254,B,874.1580109999632,Correct,sub_017_day_08_data.csv,1,300,93.0,Training at home,,,,,,,,,,,,,
17,10,2349,A,44.35444751394392,54.188489535126216,2.217722375697196,0.8511908031633995,A,1536.5453680060457,Correct,sub_017_day_08_data.csv,1,300,93.0,Training at home,,,,,,,,,,,,,
17,10,2350,A,57.782623124389374,80.79131229851713,2.889131156219469,1.2690669659545006,B,2029.413153999485,Incorrect,sub_017_day_08_data.csv,0,300,94.0,Training at home,,,,,,,,,,,,,
17,10,2351,A,38.57424532517933,61.31483255287054,1.9287122662589664,0.963131137520932,A,1560.01174699486,Correct,sub_017_day_08_data.csv,1,300,94.0,Training at home,,,,,,,,,,,,,
17,10,2352,B,39.33138603033253,12.927647885432098,1.9665693015166263,0.2030670181253455,B,1396.737374001532,Correct,sub_017_day_08_data.csv,1,300,94.0,Training at home,,,,,,,,,,,,,
17,10,2353,A,20.583117810707517,33.89814118348821,1.029155890535376,0.5324707565619808,A,1389.701446001709,Correct,sub_017_day_08_data.csv,1,300,94.0,Training at home,,,,,,,,,,,,,
17,10,2354,A,64.44752195082846,87.6325713477279,3.222376097541422,1.376529211806027,A,1040.7753699983004,Correct,sub_017_day_08_data.csv,1,300,94.0,Training at home,,,,,,,,,,,,,
17,10,2355,B,65.53204090237747,49.3940243576919,3.276602045118874,0.7758795202668008,B,999.7634969986392,Correct,sub_017_day_08_data.csv,1,300,94.0,Training at home,,,,,,,,,,,,,
17,10,2356,B,41.78392655627775,20.1820562899402,2.0891963278138874,0.317018998874059,B,1053.8116410025395,Correct,sub_017_day_08_data.csv,1,300,94.0,Training at home,,,,,,,,,,,,,
17,10,2357,B,57.76454982457821,28.39319208205716,2.88822749122891,0.4459992182847732,B,600.4631410032744,Correct,sub_017_day_08_data.csv,1,300,94.0,Training at home,,,,,,,,,,,,,
17,10,2358,B,73.94088399942544,55.91649294457877,3.697044199971271,0.8783342172459707,B,1476.0043179994682,Correct,sub_017_day_08_data.csv,1,300,94.0,Training at home,,,,,,,,,,,,,
17,10,2359,B,41.34378516362422,13.372928430671358,2.0671892581812106,0.2100614685738961,B,627.2247849992709,Correct,sub_017_day_08_data.csv,1,300,94.0,Training at home,,,,,,,,,,,,,
17,10,2360,B,79.4558841137115,59.46172684370912,3.972794205685575,0.9340226211097978,B,572.6127899979474,Correct,sub_017_day_08_data.csv,1,300,94.0,Training at home,,,,,,,,,,,,,
17,10,2361,A,41.94600998980851,57.48544370412957,2.0973004994904256,0.9029792381462156,A,879.0619170031277,Correct,sub_017_day_08_data.csv,1,300,94.0,Training at home,,,,,,,,,,,,,
17,10,2362,B,53.64374198383225,37.83627248772629,2.6821870991916126,0.5943307784333126,B,795.5384950037114,Correct,sub_017_day_08_data.csv,1,300,94.0,Training at home,,,,,,,,,,,,,
17,10,2363,A,29.373385159869574,61.889545447765386,1.4686692579934788,0.9721587065635566,A,494.19862200011266,Correct,sub_017_day_08_data.csv,1,300,94.0,Training at home,,,,,,,,,,,,,
17,10,2364,B,60.423264489175274,41.68835685675587,3.021163224458764,0.6548391782070696,B,817.8318610007409,Correct,sub_017_day_08_data.csv,1,300,94.0,Training at home,,,,,,,,,,,,,
17,10,2365,B,40.24342703297102,14.004872562936235,2.012171351648551,0.2199880237909086,B,1285.3187009968678,Correct,sub_017_day_08_data.csv,1,300,94.0,Training at home,,,,,,,,,,,,,
17,10,2366,A,59.53132968473465,69.89617452280385,2.9765664842367325,1.0979265419743531,A,571.2555779973627,Correct,sub_017_day_08_data.csv,1,300,94.0,Training at home,,,,,,,,,,,,,
17,10,2367,B,74.03076582059836,63.88880009961558,3.701538291029918,1.0035629251980958,B,1085.999555005401,Correct,sub_017_day_08_data.csv,1,300,94.0,Training at home,,,,,,,,,,,,,
17,10,2368,B,63.074289186236626,31.03286797674085,3.153714459311831,0.487463150277755,B,646.3173290030682,Correct,sub_017_day_08_data.csv,1,300,94.0,Training at home,,,,,,,,,,,,,
17,10,2369,A,59.41273389726554,75.90635524376796,2.970636694863277,1.1923342399729924,A,912.9446759980056,Correct,sub_017_day_08_data.csv,1,300,94.0,Training at home,,,,,,,,,,,,,
17,10,2370,B,89.72990420245674,65.81828658715047,4.486495210122837,1.0338712280702975,B,2118.809861000045,Correct,sub_017_day_08_data.csv,1,300,94.0,Training at home,,,,,,,,,,,,,
17,10,2371,A,57.2331870356104,73.42866383656634,2.86165935178052,1.153414754359357,A,710.7149020012002,Correct,sub_017_day_08_data.csv,1,300,94.0,Training at home,,,,,,,,,,,,,
17,10,2372,A,55.46607682736239,65.95703981964735,2.77330384136812,1.036050758749668,A,821.7215539989411,Correct,sub_017_day_08_data.csv,1,300,94.0,Training at home,,,,,,,,,,,,,
17,10,2373,A,51.79226346756737,63.0168677335521,2.589613173378369,0.9898666436198348,B,1530.3541279936326,Incorrect,sub_017_day_08_data.csv,0,300,94.0,Training at home,,,,,,,,,,,,,
17,10,2374,A,48.03752352931576,74.19731430225796,2.4018761764657883,1.1654886876403323,A,1080.564053998387,Correct,sub_017_day_08_data.csv,1,300,94.0,Training at home,,,,,,,,,,,,,
17,10,2375,B,57.69870294733316,48.131184121831495,2.884935147366658,0.7560428722286175,B,2553.7925490061752,Correct,sub_017_day_08_data.csv,1,300,95.0,Training at home,,,,,,,,,,,,,
17,10,2376,B,54.935668201523605,39.5229826483922,2.7467834100761803,0.620825559680729,B,1101.558449001459,Correct,sub_017_day_08_data.csv,1,300,95.0,Training at home,,,,,,,,,,,,,
17,10,2377,B,69.40538717698702,41.27999538732286,3.4702693588493507,0.6484246512451703,B,1915.847352000128,Correct,sub_017_day_08_data.csv,1,300,95.0,Training at home,,,,,,,,,,,,,
17,10,2378,B,78.64588353385176,51.00680544261133,3.932294176692588,0.8012130263079582,B,1307.3267950021543,Correct,sub_017_day_08_data.csv,1,300,95.0,Training at home,,,,,,,,,,,,,
17,10,2379,A,49.83635840206934,73.38899417233331,2.4918179201034665,1.1527916247307324,A,1063.2409779937009,Correct,sub_017_day_08_data.csv,1,300,95.0,Training at home,,,,,,,,,,,,,
17,10,2380,A,19.652606357160277,39.98913329750463,0.982630317858014,0.6281478369543176,A,820.0363659998402,Correct,sub_017_day_08_data.csv,1,300,95.0,Training at home,,,,,,,,,,,,,
17,10,2381,B,74.75755394772536,58.850046702107754,3.737877697386267,0.9244143719137898,B,547.8501010002219,Correct,sub_017_day_08_data.csv,1,300,95.0,Training at home,,,,,,,,,,,,,
17,10,2382,A,65.3929421903043,88.6262708061536,3.269647109515215,1.3921382063983585,A,553.0867790002958,Correct,sub_017_day_08_data.csv,1,300,95.0,Training at home,,,,,,,,,,,,,
17,10,2383,A,42.25283267328922,65.36299638314439,2.112641633664461,1.0267195462695131,A,884.8056799979531,Correct,sub_017_day_08_data.csv,1,300,95.0,Training at home,,,,,,,,,,,,,
17,10,2384,B,78.09907297185981,49.30183900464526,3.9049536485929903,0.7744314761273015,B,1376.738967002893,Correct,sub_017_day_08_data.csv,1,300,95.0,Training at home,,,,,,,,,,,,,
17,10,2385,A,12.528535588894634,38.36641144896559,0.6264267794447317,0.6026581817633682,A,668.9517319973675,Correct,sub_017_day_08_data.csv,1,300,95.0,Training at home,,,,,,,,,,,,,
17,10,2386,B,57.264548760138545,30.26759955173162,2.863227438006927,0.4754423419675889,B,468.50262099906104,Correct,sub_017_day_08_data.csv,1,300,95.0,Training at home,,,,,,,,,,,,,
17,10,2387,B,69.17320980755521,60.25349276905227,3.4586604903777607,0.9464596511819016,B,576.6714560013497,Correct,sub_017_day_08_data.csv,1,300,95.0,Training at home,,,,,,,,,,,,,
17,10,2388,B,68.50528118020964,44.16605568826738,3.4252640590104817,0.6937587804414924,B,516.4544380022562,Correct,sub_017_day_08_data.csv,1,300,95.0,Training at home,,,,,,,,,,,,,
17,10,2389,B,36.12984229898381,23.283511704581382,1.8064921149491904,0.365736546604424,B,2513.0035749971285,Correct,sub_017_day_08_data.csv,1,300,95.0,Training at home,,,,,,,,,,,,,
17,10,2390,B,52.164781340939726,32.42064706426852,2.6082390670469864,0.5092623332086674,B,517.2069399995962,Correct,sub_017_day_08_data.csv,1,300,95.0,Training at home,,,,,,,,,,,,,
17,10,2391,B,77.79697791859532,51.65755763289356,3.8898488959297657,0.8114350178094488,B,464.85327800473897,Correct,sub_017_day_08_data.csv,1,300,95.0,Training at home,,,,,,,,,,,,,
17,10,2392,B,47.56937392151345,30.40896083010825,2.378468696075673,0.4776628397358392,B,588.621275004698,Correct,sub_017_day_08_data.csv,1,300,95.0,Training at home,,,,,,,,,,,,,
17,10,2393,B,80.27508447973203,54.98994781175538,4.013754223986601,0.8637800803334841,B,529.5260359998792,Correct,sub_017_day_08_data.csv,1,300,95.0,Training at home,,,,,,,,,,,,,
17,10,2394,A,33.44372137332832,56.788960312499995,1.672186068666416,0.8920389026137616,A,1046.1257389979437,Correct,sub_017_day_08_data.csv,1,300,95.0,Training at home,,,,,,,,,,,,,
17,10,2395,A,48.92736629092978,69.19514418003304,2.4463683145464894,1.0869147831003916,A,1198.0415910002191,Correct,sub_017_day_08_data.csv,1,300,95.0,Training at home,,,,,,,,,,,,,
17,10,2396,A,30.59764542270961,40.78354300700036,1.5298822711354805,0.6406263954907786,A,1033.3882720005931,Correct,sub_017_day_08_data.csv,1,300,95.0,Training at home,,,,,,,,,,,,,
17,10,2397,A,30.7823033741766,39.87390317009841,1.5391151687088298,0.6263378063456596,A,782.6492829990457,Correct,sub_017_day_08_data.csv,1,300,95.0,Training at home,,,,,,,,,,,,,
17,10,2398,B,59.46428715656147,48.52311602751763,2.9732143578280734,0.7621993242066725,B,849.0503920038464,Correct,sub_017_day_08_data.csv,1,300,95.0,Training at home,,,,,,,,,,,,,
17,10,2399,B,60.18451900880035,52.83643380392966,3.0092259504400176,0.8299527614015442,B,570.3436659969157,Correct,sub_017_day_08_data.csv,1,300,95.0,Training at home,,,,,,,,,,,,,
