subject,day,trial,cat,x,y,xt,yt,resp,rt,fb,f_name,acc,n_trials,block,session_type,ns_left_digit,ns_right_digit,ns_left_size,ns_right_size,ns_congruent,ns_cue,ns_correct_side,ns_resp,ns_rt,ns_fb,acc_stroop,acc_stroop_mean,resp_key
17,5,900,A,50.952681967650896,63.49629237004492,2.5476340983825447,0.997397428199614,A,977.813634002814,Correct,sub_017_day_04_data.csv,1,300,36.0,Training at home,,,,,,,,,,,,,
17,5,901,B,52.17970144091541,40.110106837649454,2.608985072045771,0.6300480848793063,A,450.6430829933379,Incorrect,sub_017_day_04_data.csv,0,300,36.0,Training at home,,,,,,,,,,,,,
17,5,902,B,73.57014247713865,58.897091300452175,3.678507123856932,0.9251533467365392,A,758.1291380047332,Incorrect,sub_017_day_04_data.csv,0,300,36.0,Training at home,,,,,,,,,,,,,
17,5,903,A,48.995007727382365,61.80865027913658,2.4497503863691183,0.970888008226181,A,451.7351620015688,Correct,sub_017_day_04_data.csv,1,300,36.0,Training at home,,,,,,,,,,,,,
17,5,904,A,48.3873261553821,57.86052888518732,2.419366307769105,0.9088710623926226,B,961.367560987128,Incorrect,sub_017_day_04_data.csv,0,300,36.0,Training at home,,,,,,,,,,,,,
17,5,905,A,34.597977708174035,57.28399156754166,1.7298988854087016,0.8998148353844428,A,555.5544319795445,Correct,sub_017_day_04_data.csv,1,300,36.0,Training at home,,,,,,,,,,,,,
17,5,906,B,36.86743142783397,24.06994178186916,1.8433715713916985,0.3780897613712708,B,378.1399980071001,Correct,sub_017_day_04_data.csv,1,300,36.0,Training at home,,,,,,,,,,,,,
17,5,907,B,48.05452195194695,25.000814119235542,2.4027260975973475,0.3927118698537717,B,333.22353099356405,Correct,sub_017_day_04_data.csv,1,300,36.0,Training at home,,,,,,,,,,,,,
17,5,908,A,57.14975094230992,74.28991927795592,2.8574875471154964,1.1669433231970254,A,508.9421489974484,Correct,sub_017_day_04_data.csv,1,300,36.0,Training at home,,,,,,,,,,,,,
17,5,909,A,32.52610755379075,47.71179834549056,1.6263053776895375,0.749455175858754,A,819.7217060078401,Correct,sub_017_day_04_data.csv,1,300,36.0,Training at home,,,,,,,,,,,,,
17,5,910,A,51.46505140892829,61.623987754488745,2.573252570446414,0.967987336072046,A,729.4573689869139,Correct,sub_017_day_04_data.csv,1,300,36.0,Training at home,,,,,,,,,,,,,
17,5,911,A,55.77088219202075,72.68202752149284,2.7885441096010375,1.141686618547665,A,915.9387149848044,Correct,sub_017_day_04_data.csv,1,300,36.0,Training at home,,,,,,,,,,,,,
17,5,912,A,63.8291871130739,75.19253376556652,3.191459355653695,1.1811215584135313,B,522.0044390007388,Incorrect,sub_017_day_04_data.csv,0,300,36.0,Training at home,,,,,,,,,,,,,
17,5,913,A,38.81290571934191,47.76617140315684,1.9406452859670955,0.7503092658513419,B,832.6585259928834,Incorrect,sub_017_day_04_data.csv,0,300,36.0,Training at home,,,,,,,,,,,,,
17,5,914,A,14.323424901154844,37.09457302300136,0.7161712450577423,0.582680190485556,A,602.6907519844826,Correct,sub_017_day_04_data.csv,1,300,36.0,Training at home,,,,,,,,,,,,,
17,5,915,B,38.86416358774058,30.09676793280967,1.9432081793870288,0.4727589251725586,B,732.9896390147042,Correct,sub_017_day_04_data.csv,1,300,36.0,Training at home,,,,,,,,,,,,,
17,5,916,B,85.09710219226818,63.0834329295141,4.254855109613409,0.9909122472729296,B,710.6048419955187,Correct,sub_017_day_04_data.csv,1,300,36.0,Training at home,,,,,,,,,,,,,
17,5,917,B,76.698060744814,60.58046323619425,3.834903037240701,0.951595691269472,B,815.1971509796567,Correct,sub_017_day_04_data.csv,1,300,36.0,Training at home,,,,,,,,,,,,,
17,5,918,B,65.7674610275245,55.77362795480999,3.2883730513762255,0.8760900992344068,B,487.59132099803537,Correct,sub_017_day_04_data.csv,1,300,36.0,Training at home,,,,,,,,,,,,,
17,5,919,B,53.06958322518486,24.899380849970377,2.6534791612592428,0.3911185597860066,B,780.82802798599,Correct,sub_017_day_04_data.csv,1,300,36.0,Training at home,,,,,,,,,,,,,
17,5,920,B,56.18960395050801,24.52025300446697,2.8094801975254007,0.3851632335149824,B,449.9534369970206,Correct,sub_017_day_04_data.csv,1,300,36.0,Training at home,,,,,,,,,,,,,
17,5,921,B,66.22077583327473,50.32859110211725,3.3110387916637363,0.7905596603596808,B,741.8440269830171,Correct,sub_017_day_04_data.csv,1,300,36.0,Training at home,,,,,,,,,,,,,
17,5,922,A,59.00721753645705,82.266622745456,2.9503608768228524,1.2922410882638378,A,638.3104439883027,Correct,sub_017_day_04_data.csv,1,300,36.0,Training at home,,,,,,,,,,,,,
17,5,923,A,39.11127588406363,51.38722802563534,1.9555637942031816,0.8071886902683976,A,605.1108190149534,Correct,sub_017_day_04_data.csv,1,300,36.0,Training at home,,,,,,,,,,,,,
17,5,924,B,74.14920142867528,52.4556170520807,3.707460071433764,0.823970905851681,B,799.0500460145995,Correct,sub_017_day_04_data.csv,1,300,36.0,Training at home,,,,,,,,,,,,,
17,5,925,B,79.55975792668555,63.246105649321095,3.9779878963342776,0.9934675043803552,B,639.6144420141354,Correct,sub_017_day_04_data.csv,1,300,37.0,Training at home,,,,,,,,,,,,,
17,5,926,A,45.527923992363014,63.33493558751732,2.2763961996181505,0.9948628417866358,A,592.3680800187867,Correct,sub_017_day_04_data.csv,1,300,37.0,Training at home,,,,,,,,,,,,,
17,5,927,B,71.45273805113844,48.25674774903256,3.5726369025569222,0.7580152210724823,B,600.4020700056572,Correct,sub_017_day_04_data.csv,1,300,37.0,Training at home,,,,,,,,,,,,,
17,5,928,A,18.11777186852624,41.13654951809352,0.905888593426312,0.6461714088003767,A,546.7379170004278,Correct,sub_017_day_04_data.csv,1,300,37.0,Training at home,,,,,,,,,,,,,
17,5,929,B,80.39846820963125,63.85061291809397,4.019923410481562,1.002963082353448,B,555.5292830104008,Correct,sub_017_day_04_data.csv,1,300,37.0,Training at home,,,,,,,,,,,,,
17,5,930,A,36.74188675558308,61.657291627848245,1.8370943377791544,0.9685104720914576,A,503.89148501562886,Correct,sub_017_day_04_data.csv,1,300,37.0,Training at home,,,,,,,,,,,,,
17,5,931,A,35.53342267012395,62.82362777941952,1.776671133506197,0.98683123751842,A,544.2874929867685,Correct,sub_017_day_04_data.csv,1,300,37.0,Training at home,,,,,,,,,,,,,
17,5,932,B,46.88949999768503,25.693354741127557,2.3444749998842513,0.4035902725040141,B,749.2419769987464,Correct,sub_017_day_04_data.csv,1,300,37.0,Training at home,,,,,,,,,,,,,
17,5,933,A,30.69549677024633,60.68826367965355,1.5347748385123166,0.9532890166755994,A,509.1835259809159,Correct,sub_017_day_04_data.csv,1,300,37.0,Training at home,,,,,,,,,,,,,
17,5,934,B,46.53954043738375,24.542562324117192,2.3269770218691876,0.385513667488581,B,484.8094540066086,Correct,sub_017_day_04_data.csv,1,300,37.0,Training at home,,,,,,,,,,,,,
17,5,935,A,42.22140950129748,53.748617642320085,2.111070475064874,0.8442813116285975,A,470.4444409871939,Correct,sub_017_day_04_data.csv,1,300,37.0,Training at home,,,,,,,,,,,,,
17,5,936,B,67.67085571990292,51.94259601955251,3.383542785995146,0.815912390317043,B,514.2500249785371,Correct,sub_017_day_04_data.csv,1,300,37.0,Training at home,,,,,,,,,,,,,
17,5,937,B,57.46283292239553,39.948755940987446,2.8731416461197763,0.6275135909212888,A,506.30506401648745,Incorrect,sub_017_day_04_data.csv,0,300,37.0,Training at home,,,,,,,,,,,,,
17,5,938,A,62.21640398399001,77.2144310624387,3.110820199199501,1.2128814468843647,A,529.8399269813672,Correct,sub_017_day_04_data.csv,1,300,37.0,Training at home,,,,,,,,,,,,,
17,5,939,B,59.383733720726,44.259144720349255,2.9691866860363003,0.6952210195380835,B,538.08423600276,Correct,sub_017_day_04_data.csv,1,300,37.0,Training at home,,,,,,,,,,,,,
17,5,940,B,51.59428149951876,25.11129153033749,2.5797140749759375,0.3944472449692993,B,629.6812809887342,Correct,sub_017_day_04_data.csv,1,300,37.0,Training at home,,,,,,,,,,,,,
17,5,941,B,40.66174712275004,31.65202583639441,2.0330873561375022,0.497188859194255,B,424.1189710155595,Correct,sub_017_day_04_data.csv,1,300,37.0,Training at home,,,,,,,,,,,,,
17,5,942,A,29.491143796390823,44.63504194253875,1.474557189819541,0.7011255992967601,A,1182.138798001688,Correct,sub_017_day_04_data.csv,1,300,37.0,Training at home,,,,,,,,,,,,,
17,5,943,A,48.78910958970071,76.54718269282351,2.4394554794850354,1.2024003340038505,A,536.5726810123306,Correct,sub_017_day_04_data.csv,1,300,37.0,Training at home,,,,,,,,,,,,,
17,5,944,B,77.28354536830112,46.922222313096285,3.864177268415056,0.7370525445446517,B,504.49594599194825,Correct,sub_017_day_04_data.csv,1,300,37.0,Training at home,,,,,,,,,,,,,
17,5,945,A,33.37878033704807,58.425889869332025,1.6689390168524034,0.9177517319646992,A,627.2731460048817,Correct,sub_017_day_04_data.csv,1,300,37.0,Training at home,,,,,,,,,,,,,
17,5,946,B,75.80991773479941,59.085075513989466,3.7904958867399703,0.9281061958577376,B,563.6767300020438,Correct,sub_017_day_04_data.csv,1,300,37.0,Training at home,,,,,,,,,,,,,
17,5,947,B,73.68697034046018,49.897262102077946,3.684348517023009,0.7837843602706622,B,847.7455250103958,Correct,sub_017_day_04_data.csv,1,300,37.0,Training at home,,,,,,,,,,,,,
17,5,948,A,33.723734265164836,56.020030557401064,1.6861867132582418,0.8799605822650345,A,512.5742389936931,Correct,sub_017_day_04_data.csv,1,300,37.0,Training at home,,,,,,,,,,,,,
17,5,949,A,44.99533944910132,63.08743553426429,2.249766972455066,0.9909751200413216,A,612.2238149982877,Correct,sub_017_day_04_data.csv,1,300,37.0,Training at home,,,,,,,,,,,,,
17,5,950,A,25.70149105086636,58.163662599095645,1.285074552543318,0.9136326756359714,A,570.1603970082942,Correct,sub_017_day_04_data.csv,1,300,38.0,Training at home,,,,,,,,,,,,,
17,5,951,A,34.873034384019995,57.954534359002594,1.743651719201,0.9103476969222992,A,680.5780709837563,Correct,sub_017_day_04_data.csv,1,300,38.0,Training at home,,,,,,,,,,,,,
17,5,952,B,73.92903545948658,48.49723153628869,3.6964517729743296,0.7617927315692389,B,561.2555789994076,Correct,sub_017_day_04_data.csv,1,300,38.0,Training at home,,,,,,,,,,,,,
17,5,953,B,66.50135006917166,56.88499388815878,3.3250675034585835,0.8935473944926996,B,680.0521979748737,Correct,sub_017_day_04_data.csv,1,300,38.0,Training at home,,,,,,,,,,,,,
17,5,954,A,50.20660324174466,63.822799003368,2.510330162087233,1.0025261824025944,A,663.675465999404,Correct,sub_017_day_04_data.csv,1,300,38.0,Training at home,,,,,,,,,,,,,
17,5,955,A,54.13488276655468,72.98142192084258,2.706744138327734,1.1463894947752808,A,503.0364249832928,Correct,sub_017_day_04_data.csv,1,300,38.0,Training at home,,,,,,,,,,,,,
17,5,956,A,25.16921585325132,48.60642159954618,1.258460792662566,0.7635078850721126,A,604.2516920133494,Correct,sub_017_day_04_data.csv,1,300,38.0,Training at home,,,,,,,,,,,,,
17,5,957,A,37.32889287681179,64.11071452905973,1.8664446438405895,1.0070487489044324,A,543.9437010209076,Correct,sub_017_day_04_data.csv,1,300,38.0,Training at home,,,,,,,,,,,,,
17,5,958,B,41.37605959674795,23.06145575583873,2.0688029798373977,0.362248499918145,B,692.9262740013655,Correct,sub_017_day_04_data.csv,1,300,38.0,Training at home,,,,,,,,,,,,,
17,5,959,B,51.008769487082546,38.95475280443397,2.5504384743541273,0.6118998261640808,B,677.9589189973194,Correct,sub_017_day_04_data.csv,1,300,38.0,Training at home,,,,,,,,,,,,,
17,5,960,B,79.76169464158008,61.87515265154037,3.988084732079004,0.9719326250491312,B,611.7172649828717,Correct,sub_017_day_04_data.csv,1,300,38.0,Training at home,,,,,,,,,,,,,
17,5,961,A,62.003785681419245,72.04434070749508,3.100189284070962,1.131669857496933,A,842.3156100034248,Correct,sub_017_day_04_data.csv,1,300,38.0,Training at home,,,,,,,,,,,,,
17,5,962,B,53.12830211783922,40.13932516959789,2.656415105891961,0.630507045364303,A,781.5988890070003,Incorrect,sub_017_day_04_data.csv,0,300,38.0,Training at home,,,,,,,,,,,,,
17,5,963,A,58.07008824679343,81.28750840234567,2.9035044123396716,1.2768611961271386,A,616.7842759750783,Correct,sub_017_day_04_data.csv,1,300,38.0,Training at home,,,,,,,,,,,,,
17,5,964,B,53.2527452510594,44.88148988556979,2.66263726255297,0.7049967945333533,B,812.7125040045939,Correct,sub_017_day_04_data.csv,1,300,38.0,Training at home,,,,,,,,,,,,,
17,5,965,A,48.72437718611448,69.67507651089495,2.436218859305724,1.0944535425246718,A,705.9199709910899,Correct,sub_017_day_04_data.csv,1,300,38.0,Training at home,,,,,,,,,,,,,
17,5,966,B,40.14081444039538,16.13846835516698,2.0070407220197692,0.2535024681239197,B,459.8044079903047,Correct,sub_017_day_04_data.csv,1,300,38.0,Training at home,,,,,,,,,,,,,
17,5,967,B,38.9413616287147,25.57787575010687,1.947068081435735,0.4017763327548413,B,441.3798849855084,Correct,sub_017_day_04_data.csv,1,300,38.0,Training at home,,,,,,,,,,,,,
17,5,968,B,56.194950880165536,27.20455536589669,2.809747544008277,0.4273281564083891,B,574.3660450098105,Correct,sub_017_day_04_data.csv,1,300,38.0,Training at home,,,,,,,,,,,,,
17,5,969,B,50.53861940790928,32.586202132335465,2.5269309703954637,0.5118628661366857,B,495.99901400506496,Correct,sub_017_day_04_data.csv,1,300,38.0,Training at home,,,,,,,,,,,,,
17,5,970,A,30.54661346610972,52.85867688909709,1.527330673305486,0.8303021549663201,A,466.2949389894493,Correct,sub_017_day_04_data.csv,1,300,38.0,Training at home,,,,,,,,,,,,,
17,5,971,B,55.35029107251283,41.049698224822464,2.7675145536256416,0.6448071518759011,B,563.568438985385,Correct,sub_017_day_04_data.csv,1,300,38.0,Training at home,,,,,,,,,,,,,
17,5,972,B,76.34428424290961,63.94816160148095,3.8172142121454806,1.004495373488927,B,617.3336440115236,Correct,sub_017_day_04_data.csv,1,300,38.0,Training at home,,,,,,,,,,,,,
17,5,973,B,32.27229351399937,12.743655997007128,1.6136146756999687,0.2001768803003655,B,714.2136440088507,Correct,sub_017_day_04_data.csv,1,300,38.0,Training at home,,,,,,,,,,,,,
17,5,974,A,67.51393539170502,84.1969262162289,3.3756967695852507,1.322562224278733,A,495.5376500147395,Correct,sub_017_day_04_data.csv,1,300,38.0,Training at home,,,,,,,,,,,,,
17,5,975,A,18.675804433049375,43.26561329607999,0.9337902216524688,0.6796146644201089,A,707.5805539789144,Correct,sub_017_day_04_data.csv,1,300,39.0,Training at home,,,,,,,,,,,,,
17,5,976,B,64.94943849809759,37.671931705842255,3.24747192490488,0.5917493194680521,B,488.6305429972708,Correct,sub_017_day_04_data.csv,1,300,39.0,Training at home,,,,,,,,,,,,,
17,5,977,A,23.42832103926297,44.8440999565893,1.1714160519631485,0.7044094749023364,A,1011.482211004477,Correct,sub_017_day_04_data.csv,1,300,39.0,Training at home,,,,,,,,,,,,,
17,5,978,A,21.38858020446527,33.269162493724224,1.0694290102232635,0.5225907824068455,A,1096.4433859917335,Correct,sub_017_day_04_data.csv,1,300,39.0,Training at home,,,,,,,,,,,,,
17,5,979,A,65.48620368054434,81.23728856085313,3.274310184027217,1.2760723447016515,A,785.3572249878198,Correct,sub_017_day_04_data.csv,1,300,39.0,Training at home,,,,,,,,,,,,,
17,5,980,B,83.26678086998935,64.38779757688937,4.163339043499468,1.0114011592419117,B,589.3089410092216,Correct,sub_017_day_04_data.csv,1,300,39.0,Training at home,,,,,,,,,,,,,
17,5,981,B,81.86077427565547,56.43981540310832,4.093038713782773,0.8865545472018457,B,451.4412009739317,Correct,sub_017_day_04_data.csv,1,300,39.0,Training at home,,,,,,,,,,,,,
17,5,982,A,68.4792679621879,83.59088940165627,3.4239633981093953,1.313042620256401,A,608.9924869884271,Correct,sub_017_day_04_data.csv,1,300,39.0,Training at home,,,,,,,,,,,,,
17,5,983,A,17.612943607408457,44.6276159713791,0.8806471803704228,0.7010089524145554,A,623.8118449982721,Correct,sub_017_day_04_data.csv,1,300,39.0,Training at home,,,,,,,,,,,,,
17,5,984,B,47.26234669333049,33.3060543086074,2.3631173346665246,0.5231702776799184,B,538.2794780016411,Correct,sub_017_day_04_data.csv,1,300,39.0,Training at home,,,,,,,,,,,,,
17,5,985,A,41.820508630913984,64.2976043255587,2.0910254315456993,1.0099844069629926,A,659.447571990313,Correct,sub_017_day_04_data.csv,1,300,39.0,Training at home,,,,,,,,,,,,,
17,5,986,A,44.12202636877055,61.244030646273515,2.2061013184385274,0.9620189837728051,A,664.8414249939378,Correct,sub_017_day_04_data.csv,1,300,39.0,Training at home,,,,,,,,,,,,,
17,5,987,A,58.73954570570177,73.20133853114444,2.936977285285088,1.1498439368119142,A,769.8698599997442,Correct,sub_017_day_04_data.csv,1,300,39.0,Training at home,,,,,,,,,,,,,
17,5,988,B,46.46010292933154,24.170576875675454,2.323005146466577,0.3796705337282468,B,518.7207659764681,Correct,sub_017_day_04_data.csv,1,300,39.0,Training at home,,,,,,,,,,,,,
17,5,989,B,35.234728951845796,10.904516643949735,1.76173644759229,0.1712877468979005,B,554.5661279757041,Correct,sub_017_day_04_data.csv,1,300,39.0,Training at home,,,,,,,,,,,,,
17,5,990,A,28.070597355470134,54.241465550719305,1.4035298677735069,0.852022948470418,A,687.7088350011036,Correct,sub_017_day_04_data.csv,1,300,39.0,Training at home,,,,,,,,,,,,,
17,5,991,A,48.446028527941614,59.158256077563976,2.422301426397081,0.9292557134622936,A,690.2962289750576,Correct,sub_017_day_04_data.csv,1,300,39.0,Training at home,,,,,,,,,,,,,
17,5,992,A,12.26958038095685,35.70788297914182,0.6134790190478425,0.5608981142125797,A,783.128844021121,Correct,sub_017_day_04_data.csv,1,300,39.0,Training at home,,,,,,,,,,,,,
17,5,993,B,75.03958479852224,60.81059026301067,3.751979239926112,0.9552105181536664,B,467.4027639848646,Correct,sub_017_day_04_data.csv,1,300,39.0,Training at home,,,,,,,,,,,,,
17,5,994,A,33.20891072578711,60.734608117213575,1.6604455362893558,0.954016993398466,A,1276.737407024484,Correct,sub_017_day_04_data.csv,1,300,39.0,Training at home,,,,,,,,,,,,,
17,5,995,B,58.90974123668839,29.884782843080156,2.9454870618344193,0.4694290711697345,B,430.0024010008201,Correct,sub_017_day_04_data.csv,1,300,39.0,Training at home,,,,,,,,,,,,,
17,5,996,B,60.56137381549195,29.255942570762684,3.0280686907745973,0.4595512712707646,B,529.1349129984155,Correct,sub_017_day_04_data.csv,1,300,39.0,Training at home,,,,,,,,,,,,,
17,5,997,A,64.36432207734391,77.61590863784632,3.2182161038671957,1.2191878418917728,A,433.4817380004097,Correct,sub_017_day_04_data.csv,1,300,39.0,Training at home,,,,,,,,,,,,,
17,5,998,A,57.60104120893051,67.0128939831724,2.880052060446525,1.0526360771666303,A,794.6524420112837,Correct,sub_017_day_04_data.csv,1,300,39.0,Training at home,,,,,,,,,,,,,
17,5,999,A,58.95112293598965,87.09386641079907,2.947556146799483,1.3680672544444856,A,526.3605030195322,Correct,sub_017_day_04_data.csv,1,300,39.0,Training at home,,,,,,,,,,,,,
17,5,1000,A,18.44404930767097,47.027861504403944,0.9222024653835484,0.7387119210813683,A,645.7649770018179,Correct,sub_017_day_04_data.csv,1,300,40.0,Training at home,,,,,,,,,,,,,
17,5,1001,A,26.125479125464324,55.762647697092646,1.3062739562732162,0.8759176217495104,A,577.1268850076012,Correct,sub_017_day_04_data.csv,1,300,40.0,Training at home,,,,,,,,,,,,,
17,5,1002,B,40.278638487809374,25.501032952282216,2.0139319243904685,0.4005692889092052,B,488.2659619906917,Correct,sub_017_day_04_data.csv,1,300,40.0,Training at home,,,,,,,,,,,,,
17,5,1003,B,62.53861312218173,51.59835743940861,3.126930656109087,0.8105051033447318,B,571.4568569965195,Correct,sub_017_day_04_data.csv,1,300,40.0,Training at home,,,,,,,,,,,,,
17,5,1004,A,43.73391179115662,54.871238642755706,2.1866955895578313,0.8619154010672685,A,649.0256279939786,Correct,sub_017_day_04_data.csv,1,300,40.0,Training at home,,,,,,,,,,,,,
17,5,1005,A,46.18884846569467,62.58618396195204,2.3094424232847333,0.9831014787554392,A,473.3909000060521,Correct,sub_017_day_04_data.csv,1,300,40.0,Training at home,,,,,,,,,,,,,
17,5,1006,B,73.72860774588808,48.71374689470673,3.686430387294404,0.7651937468662164,B,497.58657297934406,Correct,sub_017_day_04_data.csv,1,300,40.0,Training at home,,,,,,,,,,,,,
17,5,1007,A,16.12919697807913,30.89382903570706,0.8064598489039565,0.4852791316991818,A,461.1558979959227,Correct,sub_017_day_04_data.csv,1,300,40.0,Training at home,,,,,,,,,,,,,
17,5,1008,B,48.01733338283371,17.414731410043885,2.400866669141686,0.2735499613101664,B,464.14556200033985,Correct,sub_017_day_04_data.csv,1,300,40.0,Training at home,,,,,,,,,,,,,
17,5,1009,B,56.91015503773836,49.27162189606189,2.8455077518869185,0.7739568268956101,B,451.6715750214644,Correct,sub_017_day_04_data.csv,1,300,40.0,Training at home,,,,,,,,,,,,,
17,5,1010,B,76.59554589605555,49.462273149179666,3.8297772948027777,0.7769515697765724,B,529.5441730122548,Correct,sub_017_day_04_data.csv,1,300,40.0,Training at home,,,,,,,,,,,,,
17,5,1011,B,69.57974401793562,55.520903207677485,3.4789872008967815,0.8721203081895479,B,638.9915899781045,Correct,sub_017_day_04_data.csv,1,300,40.0,Training at home,,,,,,,,,,,,,
17,5,1012,B,46.154645551311035,20.578598442141494,2.3077322775655515,0.3232478684350304,B,619.7664520004764,Correct,sub_017_day_04_data.csv,1,300,40.0,Training at home,,,,,,,,,,,,,
17,5,1013,A,40.75649291005801,63.129915982803375,2.0378246455029,0.9916424013665798,A,667.638168000849,Correct,sub_017_day_04_data.csv,1,300,40.0,Training at home,,,,,,,,,,,,,
17,5,1014,A,50.54504618687498,71.06449173435439,2.5272523093437487,1.1162784258187015,A,625.7064619858284,Correct,sub_017_day_04_data.csv,1,300,40.0,Training at home,,,,,,,,,,,,,
17,5,1015,B,59.37579998518412,45.356837290478865,2.968789999259206,0.7124635341091798,B,954.3882300204132,Correct,sub_017_day_04_data.csv,1,300,40.0,Training at home,,,,,,,,,,,,,
17,5,1016,A,22.344954910615648,50.81206508072604,1.1172477455307823,0.798154051856677,A,711.2257969856728,Correct,sub_017_day_04_data.csv,1,300,40.0,Training at home,,,,,,,,,,,,,
17,5,1017,A,33.16841060297596,45.78719195684775,1.6584205301487982,0.7192235294006928,A,739.9349879997317,Correct,sub_017_day_04_data.csv,1,300,40.0,Training at home,,,,,,,,,,,,,
17,5,1018,A,26.491691223821434,46.930626898154216,1.3245845611910716,0.7371845634580241,A,519.9134510185104,Correct,sub_017_day_04_data.csv,1,300,40.0,Training at home,,,,,,,,,,,,,
17,5,1019,B,81.85171350490305,65.08795853128143,4.092585675245152,1.0223992617951545,B,514.7024499892723,Correct,sub_017_day_04_data.csv,1,300,40.0,Training at home,,,,,,,,,,,,,
17,5,1020,B,38.75985305781434,14.337359323887217,1.9379926528907168,0.225210713619006,B,716.931928996928,Correct,sub_017_day_04_data.csv,1,300,40.0,Training at home,,,,,,,,,,,,,
17,5,1021,A,12.803644256306889,30.90921231443437,0.6401822128153444,0.4855207716763708,A,505.7693140115589,Correct,sub_017_day_04_data.csv,1,300,40.0,Training at home,,,,,,,,,,,,,
17,5,1022,A,14.861429785110436,37.14305507912322,0.7430714892555217,0.5834417448422728,A,937.7704350044952,Correct,sub_017_day_04_data.csv,1,300,40.0,Training at home,,,,,,,,,,,,,
17,5,1023,A,62.37628028298885,79.83356166529305,3.1188140141494425,1.254022654187962,A,582.2171419858932,Correct,sub_017_day_04_data.csv,1,300,40.0,Training at home,,,,,,,,,,,,,
17,5,1024,A,55.68673846525148,76.06906491514674,2.784336923262574,1.1948900775143505,B,1318.7495869933628,Incorrect,sub_017_day_04_data.csv,0,300,40.0,Training at home,,,,,,,,,,,,,
17,5,1025,A,58.02538099875974,80.89570050124483,2.9012690499379867,1.2707066920085546,A,523.5448309977073,Correct,sub_017_day_04_data.csv,1,300,41.0,Training at home,,,,,,,,,,,,,
17,5,1026,A,51.77298973776105,74.04608967344726,2.5886494868880527,1.1631132567257647,A,733.0944949935656,Correct,sub_017_day_04_data.csv,1,300,41.0,Training at home,,,,,,,,,,,,,
17,5,1027,B,55.2948671970686,47.73179068935903,2.76474335985343,0.7497692148618801,B,670.3802809934132,Correct,sub_017_day_04_data.csv,1,300,41.0,Training at home,,,,,,,,,,,,,
17,5,1028,B,46.514284056188615,27.923259731721267,2.32571420280943,0.4386175381872761,B,652.6126810058486,Correct,sub_017_day_04_data.csv,1,300,41.0,Training at home,,,,,,,,,,,,,
17,5,1029,A,21.19081580134663,43.92172040840259,1.0595407900673317,0.6899207708403123,A,614.1780830221251,Correct,sub_017_day_04_data.csv,1,300,41.0,Training at home,,,,,,,,,,,,,
17,5,1030,A,66.24334551727269,88.18730618042869,3.3121672758636347,1.3852429661815426,A,648.6972959828563,Correct,sub_017_day_04_data.csv,1,300,41.0,Training at home,,,,,,,,,,,,,
17,5,1031,B,79.77655830004619,60.90861064108782,3.9888279150023096,0.956750218652013,B,521.3741360057611,Correct,sub_017_day_04_data.csv,1,300,41.0,Training at home,,,,,,,,,,,,,
17,5,1032,B,42.30318975352143,23.243817582153337,2.1151594876760713,0.3651130327873709,B,551.080393983284,Correct,sub_017_day_04_data.csv,1,300,41.0,Training at home,,,,,,,,,,,,,
17,5,1033,B,79.79714434989842,67.11191788281081,3.989857217494921,1.0541915409447995,B,601.8924280069768,Correct,sub_017_day_04_data.csv,1,300,41.0,Training at home,,,,,,,,,,,,,
17,5,1034,B,56.48526875215897,39.20758457611903,2.8242634376079483,0.6158712983466802,B,555.6264850019943,Correct,sub_017_day_04_data.csv,1,300,41.0,Training at home,,,,,,,,,,,,,
17,5,1035,A,56.138778857944665,84.40847212726348,2.8069389428972333,1.3258851796787487,A,577.7327750110999,Correct,sub_017_day_04_data.csv,1,300,41.0,Training at home,,,,,,,,,,,,,
17,5,1036,A,34.40992085362979,44.017352351768736,1.7204960426814897,0.6914229538939504,A,613.1091459828895,Correct,sub_017_day_04_data.csv,1,300,41.0,Training at home,,,,,,,,,,,,,
17,5,1037,B,77.38953224341205,45.350201471517366,3.869476612170603,0.7123592989086799,B,510.0696329900529,Correct,sub_017_day_04_data.csv,1,300,41.0,Training at home,,,,,,,,,,,,,
17,5,1038,B,50.05111308067113,33.74271137495259,2.5025556540335567,0.5300292708387591,B,634.6360000025015,Correct,sub_017_day_04_data.csv,1,300,41.0,Training at home,,,,,,,,,,,,,
17,5,1039,B,51.6638501742706,30.054118051875392,2.58319250871353,0.4720889824094605,B,656.4100200193934,Correct,sub_017_day_04_data.csv,1,300,41.0,Training at home,,,,,,,,,,,,,
17,5,1040,A,34.26050727079505,67.51563347278048,1.7130253635397523,1.0605330906027417,A,611.0359279846307,Correct,sub_017_day_04_data.csv,1,300,41.0,Training at home,,,,,,,,,,,,,
17,5,1041,B,83.94780608305282,57.932934889718695,4.197390304152641,0.9100084132521804,B,557.2149460203946,Correct,sub_017_day_04_data.csv,1,300,41.0,Training at home,,,,,,,,,,,,,
17,5,1042,A,49.47300493818015,70.67025346012268,2.473650246909008,1.1100857454882505,A,952.90337500046,Correct,sub_017_day_04_data.csv,1,300,41.0,Training at home,,,,,,,,,,,,,
17,5,1043,B,85.41689022148324,64.76026335575185,4.270844511074162,1.0172518380148514,B,576.8567759951111,Correct,sub_017_day_04_data.csv,1,300,41.0,Training at home,,,,,,,,,,,,,
17,5,1044,A,43.69917248459208,58.19682138981724,2.184958624229604,0.914153532702636,A,644.4702680164482,Correct,sub_017_day_04_data.csv,1,300,41.0,Training at home,,,,,,,,,,,,,
17,5,1045,A,22.9374573466925,39.22184135074582,1.146872867334625,0.6160952432388372,A,504.4889590062666,Correct,sub_017_day_04_data.csv,1,300,41.0,Training at home,,,,,,,,,,,,,
17,5,1046,B,49.9536961300201,33.1913668668688,2.4976848065010047,0.5213687715577935,B,902.3583469970616,Correct,sub_017_day_04_data.csv,1,300,41.0,Training at home,,,,,,,,,,,,,
17,5,1047,A,51.955660454503075,59.26553157997369,2.5977830227251535,0.930940793113696,B,691.8851179943886,Incorrect,sub_017_day_04_data.csv,0,300,41.0,Training at home,,,,,,,,,,,,,
17,5,1048,B,75.91912711215134,52.12406356200001,3.795956355607567,0.8187628758081332,B,528.4334979951382,Correct,sub_017_day_04_data.csv,1,300,41.0,Training at home,,,,,,,,,,,,,
17,5,1049,B,75.83084466734206,55.927912879680605,3.7915422333671023,0.8785136011670728,B,548.8243569852784,Correct,sub_017_day_04_data.csv,1,300,41.0,Training at home,,,,,,,,,,,,,
17,5,1050,A,36.50169145867865,47.62105717895933,1.8250845729339324,0.7480298169479905,A,758.9250869932584,Correct,sub_017_day_04_data.csv,1,300,42.0,Training at home,,,,,,,,,,,,,
17,5,1051,B,80.9419638780849,56.1668891254002,4.047098193904245,0.8822674312567486,B,660.1260630122852,Correct,sub_017_day_04_data.csv,1,300,42.0,Training at home,,,,,,,,,,,,,
17,5,1052,A,54.31172032003567,70.02160711046025,2.7155860160017835,1.0998968324538638,A,601.9865099806339,Correct,sub_017_day_04_data.csv,1,300,42.0,Training at home,,,,,,,,,,,,,
17,5,1053,B,60.03853184906712,44.234116951515546,3.001926592453356,0.6948278842645648,B,604.7756560146809,Correct,sub_017_day_04_data.csv,1,300,42.0,Training at home,,,,,,,,,,,,,
17,5,1054,B,77.32135698263427,63.146080896443465,3.8660678491317135,0.991896319236268,B,638.3345490030479,Correct,sub_017_day_04_data.csv,1,300,42.0,Training at home,,,,,,,,,,,,,
17,5,1055,B,65.36196032917474,47.69649723365226,3.2680980164587368,0.7492148265560391,B,643.821133999154,Correct,sub_017_day_04_data.csv,1,300,42.0,Training at home,,,,,,,,,,,,,
17,5,1056,B,65.28792895929803,43.967947178807535,3.2643964479649012,0.6906468992518291,B,576.6926550131757,Correct,sub_017_day_04_data.csv,1,300,42.0,Training at home,,,,,,,,,,,,,
17,5,1057,A,26.37543325342061,41.64141181120203,1.3187716626710306,0.6541017671558979,A,552.6931290223729,Correct,sub_017_day_04_data.csv,1,300,42.0,Training at home,,,,,,,,,,,,,
17,5,1058,A,40.64267096466371,47.9573145106327,2.032133548233185,0.7533117347624944,A,608.0328809912317,Correct,sub_017_day_04_data.csv,1,300,42.0,Training at home,,,,,,,,,,,,,
17,5,1059,B,65.8547722343131,54.36324457922407,3.292738611715655,0.8539358489769774,B,985.6011290103196,Correct,sub_017_day_04_data.csv,1,300,42.0,Training at home,,,,,,,,,,,,,
17,5,1060,B,89.01811237417422,62.972111010858114,4.4509056187087115,0.989163606663764,B,499.68233198160306,Correct,sub_017_day_04_data.csv,1,300,42.0,Training at home,,,,,,,,,,,,,
17,5,1061,A,43.33159458438478,67.5773596551963,2.1665797292192392,1.0615026832088,A,663.0780639825389,Correct,sub_017_day_04_data.csv,1,300,42.0,Training at home,,,,,,,,,,,,,
17,5,1062,B,66.58278526934276,39.885160118459986,3.3291392634671384,0.6265146300770325,B,636.8545240256935,Correct,sub_017_day_04_data.csv,1,300,42.0,Training at home,,,,,,,,,,,,,
17,5,1063,A,19.707404084940126,33.2706617017881,0.9853702042470064,0.5226143319120439,A,498.90496098669246,Correct,sub_017_day_04_data.csv,1,300,42.0,Training at home,,,,,,,,,,,,,
17,5,1064,A,30.825019184963065,51.95441605482805,1.5412509592481534,0.8160980589969772,A,484.96001900639385,Correct,sub_017_day_04_data.csv,1,300,42.0,Training at home,,,,,,,,,,,,,
17,5,1065,B,64.06636624856894,43.186436453649925,3.203318312428447,0.6783709574875452,B,505.1110939821229,Correct,sub_017_day_04_data.csv,1,300,42.0,Training at home,,,,,,,,,,,,,
17,5,1066,A,41.45513006461356,67.34445601139775,2.072756503230678,1.0578442413270408,A,725.1759940118063,Correct,sub_017_day_04_data.csv,1,300,42.0,Training at home,,,,,,,,,,,,,
17,5,1067,A,62.227991767192194,87.72955127793071,3.1113995883596095,1.3780525689873808,A,625.7006789965089,Correct,sub_017_day_04_data.csv,1,300,42.0,Training at home,,,,,,,,,,,,,
17,5,1068,A,68.91663566985453,89.1641773810863,3.445831783492727,1.4005876231189895,A,670.0753170007374,Correct,sub_017_day_04_data.csv,1,300,42.0,Training at home,,,,,,,,,,,,,
17,5,1069,B,65.17273222844469,46.85917413155761,3.2586366114222347,0.7360621860249311,B,527.8113980020862,Correct,sub_017_day_04_data.csv,1,300,42.0,Training at home,,,,,,,,,,,,,
17,5,1070,B,80.51830017249549,52.92260187724233,4.025915008624775,0.8313062863320095,B,646.7567619984038,Correct,sub_017_day_04_data.csv,1,300,42.0,Training at home,,,,,,,,,,,,,
17,5,1071,A,36.48375516020979,48.350069049519824,1.8241877580104895,0.7594811086326536,A,400.65378000144847,Correct,sub_017_day_04_data.csv,1,300,42.0,Training at home,,,,,,,,,,,,,
17,5,1072,B,30.440847106085567,14.885181522611326,1.5220423553042783,0.2338158845939313,B,381.56619400251657,Correct,sub_017_day_04_data.csv,1,300,42.0,Training at home,,,,,,,,,,,,,
17,5,1073,B,72.28227086642934,61.65360881552131,3.614113543321467,0.9684526226107032,B,787.6922599971294,Correct,sub_017_day_04_data.csv,1,300,42.0,Training at home,,,,,,,,,,,,,
17,5,1074,B,77.92074795003725,64.18509143282041,3.8960373975018623,1.008217058576689,B,370.19108099048026,Correct,sub_017_day_04_data.csv,1,300,42.0,Training at home,,,,,,,,,,,,,
17,5,1075,B,83.76746254988393,59.181185416864835,4.188373127494197,0.9296158866817898,B,488.56432002503425,Correct,sub_017_day_04_data.csv,1,300,43.0,Training at home,,,,,,,,,,,,,
17,5,1076,B,55.03132501700642,35.953079882962506,2.751566250850321,0.56474965817121,B,518.4972760034725,Correct,sub_017_day_04_data.csv,1,300,43.0,Training at home,,,,,,,,,,,,,
17,5,1077,B,79.76234390003916,54.32610619832536,3.9881171950019576,0.8533524806539895,B,383.9634159812704,Correct,sub_017_day_04_data.csv,1,300,43.0,Training at home,,,,,,,,,,,,,
17,5,1078,B,69.61429417982417,59.46331388745652,3.4807147089912087,0.9340475503346866,B,428.1027949764393,Correct,sub_017_day_04_data.csv,1,300,43.0,Training at home,,,,,,,,,,,,,
17,5,1079,A,59.12085486373963,84.88962571478477,2.956042743186982,1.333443122557775,A,549.3631559947971,Correct,sub_017_day_04_data.csv,1,300,43.0,Training at home,,,,,,,,,,,,,
17,5,1080,A,31.24868473237683,61.357097288685445,1.5624342366188415,0.963795030438642,A,654.5496660110075,Correct,sub_017_day_04_data.csv,1,300,43.0,Training at home,,,,,,,,,,,,,
17,5,1081,A,43.428936116944655,60.54744070451021,2.171446805847233,0.9510769745547644,A,497.84341698978096,Correct,sub_017_day_04_data.csv,1,300,43.0,Training at home,,,,,,,,,,,,,
17,5,1082,B,47.79942682461794,33.707422987656926,2.389971341230897,0.5294749621473336,B,688.6828179995064,Correct,sub_017_day_04_data.csv,1,300,43.0,Training at home,,,,,,,,,,,,,
17,5,1083,B,43.35792523982465,27.16823585619902,2.1678962619912325,0.4267576508841481,B,849.274999985937,Correct,sub_017_day_04_data.csv,1,300,43.0,Training at home,,,,,,,,,,,,,
17,5,1084,B,42.02093767865301,27.23525609247178,2.101046883932651,0.4278104022937299,B,902.060703985626,Correct,sub_017_day_04_data.csv,1,300,43.0,Training at home,,,,,,,,,,,,,
17,5,1085,B,79.83707559607575,49.890305910778295,3.991853779803787,0.7836750926732425,B,533.5866819950752,Correct,sub_017_day_04_data.csv,1,300,43.0,Training at home,,,,,,,,,,,,,
17,5,1086,B,61.333365279830545,28.260955311595964,3.0666682639915273,0.4439220479516966,B,620.9844530094415,Correct,sub_017_day_04_data.csv,1,300,43.0,Training at home,,,,,,,,,,,,,
17,5,1087,B,64.68223612875524,51.75365923257891,3.2341118064377614,0.8129445782072975,B,742.9284829995595,Correct,sub_017_day_04_data.csv,1,300,43.0,Training at home,,,,,,,,,,,,,
17,5,1088,A,47.526388938595474,63.14944436276129,2.3763194469297737,0.9919491524416412,A,894.857558014337,Correct,sub_017_day_04_data.csv,1,300,43.0,Training at home,,,,,,,,,,,,,
17,5,1089,A,37.63152503083295,51.65119037244778,1.8815762515416472,0.8113350011162491,A,797.5696639914531,Correct,sub_017_day_04_data.csv,1,300,43.0,Training at home,,,,,,,,,,,,,
17,5,1090,B,53.90021371007728,45.0226784703899,2.695010685503864,0.7072145796375612,A,1553.5370279976632,Incorrect,sub_017_day_04_data.csv,0,300,43.0,Training at home,,,,,,,,,,,,,
17,5,1091,A,27.457400444305833,43.538976100301014,1.372870022215292,0.6839086373076362,A,893.9875480136834,Correct,sub_017_day_04_data.csv,1,300,43.0,Training at home,,,,,,,,,,,,,
17,5,1092,B,55.76724379010389,36.05672413986152,2.7883621895051944,0.5663776983515134,B,844.8562700068578,Correct,sub_017_day_04_data.csv,1,300,43.0,Training at home,,,,,,,,,,,,,
17,5,1093,B,52.709064163804555,25.435774986107702,2.635453208190228,0.3995442191735949,B,891.6764390014578,Correct,sub_017_day_04_data.csv,1,300,43.0,Training at home,,,,,,,,,,,,,
17,5,1094,A,69.70583509651075,86.70261440290179,3.4852917548255378,1.3619214822759242,A,567.060256988043,Correct,sub_017_day_04_data.csv,1,300,43.0,Training at home,,,,,,,,,,,,,
17,5,1095,A,46.50206436034704,67.13017302483557,2.325103218017352,1.0544782920451758,A,856.2156109837815,Correct,sub_017_day_04_data.csv,1,300,43.0,Training at home,,,,,,,,,,,,,
17,5,1096,A,24.72749848995321,39.38263636203804,1.2363749244976605,0.6186210053698848,A,746.2789739947766,Correct,sub_017_day_04_data.csv,1,300,43.0,Training at home,,,,,,,,,,,,,
17,5,1097,B,49.15469407718688,27.573684700823048,2.457734703859344,0.4331264264425348,B,1716.8170849909077,Correct,sub_017_day_04_data.csv,1,300,43.0,Training at home,,,,,,,,,,,,,
17,5,1098,A,53.09645497308902,70.70302621217262,2.654822748654451,1.1106005386736404,A,648.5256449959707,Correct,sub_017_day_04_data.csv,1,300,43.0,Training at home,,,,,,,,,,,,,
17,5,1099,B,45.044454455363024,36.35352122397543,2.2522227227681513,0.5710397760468091,B,1490.6477610056754,Correct,sub_017_day_04_data.csv,1,300,43.0,Training at home,,,,,,,,,,,,,
17,5,1100,B,53.96842341814816,30.242673572428373,2.6984211709074084,0.4750508056002758,B,565.3683569980785,Correct,sub_017_day_04_data.csv,1,300,44.0,Training at home,,,,,,,,,,,,,
17,5,1101,B,60.410365907775464,28.347662464511984,3.020518295388773,0.4452840407247699,B,483.94044098677114,Correct,sub_017_day_04_data.csv,1,300,44.0,Training at home,,,,,,,,,,,,,
17,5,1102,B,70.73644222640084,53.37180695425881,3.5368221113200424,0.8383623831815605,B,521.2672119960189,Correct,sub_017_day_04_data.csv,1,300,44.0,Training at home,,,,,,,,,,,,,
17,5,1103,B,81.32148956479116,54.832324838339986,4.066074478239558,0.8613041444568902,B,711.1500299943145,Correct,sub_017_day_04_data.csv,1,300,44.0,Training at home,,,,,,,,,,,,,
17,5,1104,A,29.24767124676978,60.06840805139161,1.4623835623384889,0.9435523472354292,A,566.1530579964165,Correct,sub_017_day_04_data.csv,1,300,44.0,Training at home,,,,,,,,,,,,,
17,5,1105,B,71.68145691851291,39.65426062747634,3.5840728459256455,0.6228876693540731,B,407.4756279878784,Correct,sub_017_day_04_data.csv,1,300,44.0,Training at home,,,,,,,,,,,,,
17,5,1106,B,54.11597068681903,35.22937986981296,2.7057985343409516,0.5533818049476427,B,955.0650109886192,Correct,sub_017_day_04_data.csv,1,300,44.0,Training at home,,,,,,,,,,,,,
17,5,1107,A,38.095469258836275,70.911339272006,1.9047734629418136,1.113872712565737,A,701.7191930208355,Correct,sub_017_day_04_data.csv,1,300,44.0,Training at home,,,,,,,,,,,,,
17,5,1108,B,51.77536982012862,43.41198965379756,2.588768491006431,0.6819139388704326,B,561.6312240017578,Correct,sub_017_day_04_data.csv,1,300,44.0,Training at home,,,,,,,,,,,,,
17,5,1109,B,58.27740535135421,45.89455128072727,2.9138702675677104,0.720909925716664,B,527.5708939880133,Correct,sub_017_day_04_data.csv,1,300,44.0,Training at home,,,,,,,,,,,,,
17,5,1110,A,38.72558369287919,48.03140668740108,1.9362791846439595,0.7544755719536145,B,577.4125609896146,Incorrect,sub_017_day_04_data.csv,0,300,44.0,Training at home,,,,,,,,,,,,,
17,5,1111,A,55.35830169239467,74.96327840657,2.767915084619734,1.1775204236554333,A,581.6396700101905,Correct,sub_017_day_04_data.csv,1,300,44.0,Training at home,,,,,,,,,,,,,
17,5,1112,A,38.977726869516665,70.8199364548721,1.9488863434758332,1.112436960471611,A,469.0889559860807,Correct,sub_017_day_04_data.csv,1,300,44.0,Training at home,,,,,,,,,,,,,
17,5,1113,B,45.80011026364821,31.51949891625184,2.29000551318241,0.4951071312006411,B,573.3790720114484,Correct,sub_017_day_04_data.csv,1,300,44.0,Training at home,,,,,,,,,,,,,
17,5,1114,B,57.42560265502544,26.15301114546743,2.8712801327512723,0.4108105384192623,B,545.6996050197631,Correct,sub_017_day_04_data.csv,1,300,44.0,Training at home,,,,,,,,,,,,,
17,5,1115,B,86.0140640900351,65.76367241860068,4.3007032045017555,1.033013350716808,B,532.3166309972294,Correct,sub_017_day_04_data.csv,1,300,44.0,Training at home,,,,,,,,,,,,,
17,5,1116,B,74.67319095041988,55.50061543925442,3.733659547520994,0.8718016286683695,B,817.9021029791329,Correct,sub_017_day_04_data.csv,1,300,44.0,Training at home,,,,,,,,,,,,,
17,5,1117,B,69.38691793339189,56.432046520309584,3.4693458966695943,0.8864325138762101,B,513.3082320098765,Correct,sub_017_day_04_data.csv,1,300,44.0,Training at home,,,,,,,,,,,,,
17,5,1118,A,44.07280116739727,60.89276373425542,2.2036400583698637,0.956501296021579,A,513.8576289755292,Correct,sub_017_day_04_data.csv,1,300,44.0,Training at home,,,,,,,,,,,,,
17,5,1119,B,51.80074610990596,26.07153929538258,2.590037305495298,0.4095307815907576,B,644.9193560110871,Correct,sub_017_day_04_data.csv,1,300,44.0,Training at home,,,,,,,,,,,,,
17,5,1120,A,40.32554736776498,59.30121714669588,2.0162773683882493,0.9315013406849644,A,492.4637119984254,Correct,sub_017_day_04_data.csv,1,300,44.0,Training at home,,,,,,,,,,,,,
17,5,1121,A,24.781102673995992,50.99503916480784,1.2390551336997997,0.8010282020484205,A,721.3016070018057,Correct,sub_017_day_04_data.csv,1,300,44.0,Training at home,,,,,,,,,,,,,
17,5,1122,B,33.103854297590274,11.65304767161538,1.6551927148795136,0.1830456447853926,B,479.0556069929153,Correct,sub_017_day_04_data.csv,1,300,44.0,Training at home,,,,,,,,,,,,,
17,5,1123,A,61.32459246041789,81.22986151508962,3.0662296230208943,1.275955680939609,A,565.9089580003638,Correct,sub_017_day_04_data.csv,1,300,44.0,Training at home,,,,,,,,,,,,,
17,5,1124,B,77.24496443126296,60.30821291237517,3.862248221563147,0.9473191931832348,A,801.0420599894132,Incorrect,sub_017_day_04_data.csv,0,300,44.0,Training at home,,,,,,,,,,,,,
17,5,1125,A,34.472774209833226,50.53137041358604,1.7236387104916613,0.7937449103357327,A,535.486641980242,Correct,sub_017_day_04_data.csv,1,300,45.0,Training at home,,,,,,,,,,,,,
17,5,1126,A,40.68707535008122,59.06034523884773,2.034353767504061,0.9277177336042048,A,560.8842250076123,Correct,sub_017_day_04_data.csv,1,300,45.0,Training at home,,,,,,,,,,,,,
17,5,1127,B,67.57811023266032,52.18196062511113,3.378905511633016,0.8196723207488048,B,554.4828409911133,Correct,sub_017_day_04_data.csv,1,300,45.0,Training at home,,,,,,,,,,,,,
17,5,1128,B,53.895950358779096,37.97635903667505,2.694797517938955,0.5965312527985335,B,871.4642779959831,Correct,sub_017_day_04_data.csv,1,300,45.0,Training at home,,,,,,,,,,,,,
17,5,1129,A,32.46359843043362,50.42761814707454,1.6231799215216811,0.7921151735444038,B,641.690220014425,Incorrect,sub_017_day_04_data.csv,0,300,45.0,Training at home,,,,,,,,,,,,,
17,5,1130,A,30.30773542832862,41.76469182679642,1.5153867714164309,0.6560382451125266,A,543.2423390157055,Correct,sub_017_day_04_data.csv,1,300,45.0,Training at home,,,,,,,,,,,,,
17,5,1131,A,44.55454189948772,56.18616518183281,2.227727094974386,0.8825702188431429,B,425.0938479963224,Incorrect,sub_017_day_04_data.csv,0,300,45.0,Training at home,,,,,,,,,,,,,
17,5,1132,A,44.51991759586699,61.65939817180711,2.2259958797933495,0.9685435616065856,A,549.5700479950756,Correct,sub_017_day_04_data.csv,1,300,45.0,Training at home,,,,,,,,,,,,,
17,5,1133,A,22.729966936059014,50.711642979422734,1.1364983468029508,0.7965766251781142,A,723.74415199738,Correct,sub_017_day_04_data.csv,1,300,45.0,Training at home,,,,,,,,,,,,,
17,5,1134,B,36.68802365645796,15.146143769748711,1.834401182822898,0.2379150699862868,B,1837.710435996996,Correct,sub_017_day_04_data.csv,1,300,45.0,Training at home,,,,,,,,,,,,,
17,5,1135,A,56.51637585659071,81.10440258325704,2.8258187928295353,1.2739849766467468,A,913.9473199902568,Correct,sub_017_day_04_data.csv,1,300,45.0,Training at home,,,,,,,,,,,,,
17,5,1136,A,51.82816764143569,72.5820708115081,2.5914083820717844,1.14011650221884,A,1450.8354379795492,Correct,sub_017_day_04_data.csv,1,300,45.0,Training at home,,,,,,,,,,,,,
17,5,1137,B,48.520054981568066,25.761313868697737,2.4260027490784033,0.4046577719836083,B,415.5626769934315,Correct,sub_017_day_04_data.csv,1,300,45.0,Training at home,,,,,,,,,,,,,
17,5,1138,B,43.10442605936835,26.87637335124076,2.1552213029684175,0.4221730853769723,B,590.870434010867,Correct,sub_017_day_04_data.csv,1,300,45.0,Training at home,,,,,,,,,,,,,
17,5,1139,B,75.40331294900646,47.814479059632184,3.770165647450323,0.7510680807448173,B,491.1533319973387,Correct,sub_017_day_04_data.csv,1,300,45.0,Training at home,,,,,,,,,,,,,
17,5,1140,A,51.76715359691184,68.59949013370574,2.588357679845592,1.0775582712202774,A,592.4440920061897,Correct,sub_017_day_04_data.csv,1,300,45.0,Training at home,,,,,,,,,,,,,
17,5,1141,A,52.25222275145873,62.07140164177978,2.6126111375729364,0.975015296979184,A,521.3003579992801,Correct,sub_017_day_04_data.csv,1,300,45.0,Training at home,,,,,,,,,,,,,
17,5,1142,B,69.54572691466733,45.40730606926786,3.4772863457333667,0.7132562958325758,B,754.5772410230711,Correct,sub_017_day_04_data.csv,1,300,45.0,Training at home,,,,,,,,,,,,,
17,5,1143,B,76.97397102803961,48.25637106054644,3.8486985514019807,0.7580093040635789,B,546.5826099971309,Correct,sub_017_day_04_data.csv,1,300,45.0,Training at home,,,,,,,,,,,,,
17,5,1144,A,55.20451318310633,66.49543182303876,2.7602256591553163,1.0445078005626975,A,444.54377799411304,Correct,sub_017_day_04_data.csv,1,300,45.0,Training at home,,,,,,,,,,,,,
17,5,1145,A,19.188656186270464,42.59013639359124,0.9594328093135231,0.6690042980474675,A,469.5916599885095,Correct,sub_017_day_04_data.csv,1,300,45.0,Training at home,,,,,,,,,,,,,
17,5,1146,A,33.46976070816063,50.24597759302787,1.6734880354080317,0.7892619703934685,A,472.0067209855188,Correct,sub_017_day_04_data.csv,1,300,45.0,Training at home,,,,,,,,,,,,,
17,5,1147,B,68.48689409466148,41.64843260200585,3.4243447047330737,0.654212049479956,B,480.92212100164033,Correct,sub_017_day_04_data.csv,1,300,45.0,Training at home,,,,,,,,,,,,,
17,5,1148,A,39.12372375722063,64.90020234092093,1.9561861878610316,1.0194499944536417,A,508.0185589904431,Correct,sub_017_day_04_data.csv,1,300,45.0,Training at home,,,,,,,,,,,,,
17,5,1149,A,60.730608423743405,80.93489103335786,3.0365304211871704,1.2713222954474372,A,508.81721699261107,Correct,sub_017_day_04_data.csv,1,300,45.0,Training at home,,,,,,,,,,,,,
17,5,1150,B,71.05436503023769,39.90706220064926,3.5527182515118847,0.6268586671795531,B,507.1903389762156,Correct,sub_017_day_04_data.csv,1,300,46.0,Training at home,,,,,,,,,,,,,
17,5,1151,A,36.84373791733815,50.16657611952563,1.8421868958669076,0.7880147349642742,A,692.8507500269916,Correct,sub_017_day_04_data.csv,1,300,46.0,Training at home,,,,,,,,,,,,,
17,5,1152,B,65.37630068549363,41.15097110951379,3.2688150342746813,0.6463979426286717,B,456.21671999106184,Correct,sub_017_day_04_data.csv,1,300,46.0,Training at home,,,,,,,,,,,,,
17,5,1153,A,35.37582874816445,60.682586609205295,1.7687914374082223,0.9531998414615284,A,481.2851080205291,Correct,sub_017_day_04_data.csv,1,300,46.0,Training at home,,,,,,,,,,,,,
17,5,1154,B,61.14979212286448,48.34835162122859,3.0574896061432235,0.7594541313321396,A,481.59034602576867,Incorrect,sub_017_day_04_data.csv,0,300,46.0,Training at home,,,,,,,,,,,,,
17,5,1155,A,63.563226884167506,83.14812041999467,3.1781613442083754,1.306087621356273,A,648.064891982358,Correct,sub_017_day_04_data.csv,1,300,46.0,Training at home,,,,,,,,,,,,,
17,5,1156,B,59.85557625567199,29.068476837925807,2.9927788127835995,0.4566065664253638,B,387.4185510212555,Correct,sub_017_day_04_data.csv,1,300,46.0,Training at home,,,,,,,,,,,,,
17,5,1157,B,52.360563587483675,37.29435890131004,2.618028179374184,0.5858184197234836,B,617.0283469837159,Correct,sub_017_day_04_data.csv,1,300,46.0,Training at home,,,,,,,,,,,,,
17,5,1158,A,48.28254863257994,58.24396898903466,2.4141274316289967,0.9148941254593153,A,470.1528380101081,Correct,sub_017_day_04_data.csv,1,300,46.0,Training at home,,,,,,,,,,,,,
17,5,1159,A,34.140641435964554,60.214562764538606,1.7070320717982277,0.9458481401009796,A,461.55802701832727,Correct,sub_017_day_04_data.csv,1,300,46.0,Training at home,,,,,,,,,,,,,
17,5,1160,A,61.684667587913616,81.28445838834352,3.0842333793956804,1.2768132866192263,B,502.477264002664,Incorrect,sub_017_day_04_data.csv,0,300,46.0,Training at home,,,,,,,,,,,,,
17,5,1161,B,54.266698762654954,45.24725257976848,2.713334938132748,0.7107421814986123,B,1732.0173260231968,Correct,sub_017_day_04_data.csv,1,300,46.0,Training at home,,,,,,,,,,,,,
17,5,1162,B,88.50265932938667,66.4036388717751,4.4251329664693335,1.043065920255991,B,1093.567300005816,Correct,sub_017_day_04_data.csv,1,300,46.0,Training at home,,,,,,,,,,,,,
17,5,1163,A,39.92678973719281,66.35658283423595,1.996339486859641,1.0423267657467912,A,373.88711399398744,Correct,sub_017_day_04_data.csv,1,300,46.0,Training at home,,,,,,,,,,,,,
17,5,1164,B,68.77372079019399,39.77000416698733,3.438686039509699,0.6247057646212142,B,481.7586730059702,Correct,sub_017_day_04_data.csv,1,300,46.0,Training at home,,,,,,,,,,,,,
17,5,1165,A,55.33962294232582,78.82814606018829,2.766981147116291,1.2382296227939538,A,490.3556710050907,Correct,sub_017_day_04_data.csv,1,300,46.0,Training at home,,,,,,,,,,,,,
17,5,1166,A,64.49762467022546,80.65648563752632,3.2248812335112733,1.2669491137161168,A,558.4620370063931,Correct,sub_017_day_04_data.csv,1,300,46.0,Training at home,,,,,,,,,,,,,
17,5,1167,A,26.70252366902174,43.30521532165609,1.335126183451087,0.6802367315831948,A,596.421474008821,Correct,sub_017_day_04_data.csv,1,300,46.0,Training at home,,,,,,,,,,,,,
17,5,1168,A,40.05830687914109,50.502769605038345,2.0029153439570546,0.793295649885632,A,392.14563198038377,Correct,sub_017_day_04_data.csv,1,300,46.0,Training at home,,,,,,,,,,,,,
17,5,1169,B,36.97936002942773,20.396494625712457,1.848968001471386,0.3203873883756098,B,564.3947689968627,Correct,sub_017_day_04_data.csv,1,300,46.0,Training at home,,,,,,,,,,,,,
17,5,1170,A,23.517779486211182,49.82880429397723,1.1758889743105592,0.7827090275356121,A,557.025824993616,Correct,sub_017_day_04_data.csv,1,300,46.0,Training at home,,,,,,,,,,,,,
17,5,1171,A,59.1695039303861,85.96945756390312,2.958475196519305,1.3504050815792874,A,607.4049430026207,Correct,sub_017_day_04_data.csv,1,300,46.0,Training at home,,,,,,,,,,,,,
17,5,1172,B,76.79726777832626,53.5325005386432,3.839863388916313,0.8408865521024654,B,531.6931109991856,Correct,sub_017_day_04_data.csv,1,300,46.0,Training at home,,,,,,,,,,,,,
17,5,1173,A,38.526846691479534,47.712376255051666,1.9263423345739767,0.749464253640912,B,907.8932849806732,Incorrect,sub_017_day_04_data.csv,0,300,46.0,Training at home,,,,,,,,,,,,,
17,5,1174,A,51.043291437046136,73.71714804595793,2.552164571852307,1.157946253723863,A,561.3130359852221,Correct,sub_017_day_04_data.csv,1,300,46.0,Training at home,,,,,,,,,,,,,
17,5,1175,A,44.60473455349674,67.89794301735397,2.230236727674837,1.066538394885888,A,455.55036701262,Correct,sub_017_day_04_data.csv,1,300,47.0,Training at home,,,,,,,,,,,,,
17,5,1176,A,49.67263135788875,65.53506246018804,2.483631567894437,1.029422353887375,A,790.0909419986419,Correct,sub_017_day_04_data.csv,1,300,47.0,Training at home,,,,,,,,,,,,,
17,5,1177,B,41.73244223578389,21.779988965512675,2.0866221117891945,0.3421192666466069,B,415.15784501098096,Correct,sub_017_day_04_data.csv,1,300,47.0,Training at home,,,,,,,,,,,,,
17,5,1178,B,72.31128952278132,54.07823313198188,3.615564476139066,0.849458899632752,B,446.80750599945895,Correct,sub_017_day_04_data.csv,1,300,47.0,Training at home,,,,,,,,,,,,,
17,5,1179,A,44.401014017218806,58.24689802969992,2.2200507008609405,0.9149401347224954,A,529.0337899932638,Correct,sub_017_day_04_data.csv,1,300,47.0,Training at home,,,,,,,,,,,,,
17,5,1180,B,47.43386616917704,27.388321539059017,2.371693308458852,0.4302147487063144,B,472.69817400956526,Correct,sub_017_day_04_data.csv,1,300,47.0,Training at home,,,,,,,,,,,,,
17,5,1181,A,24.838572757481252,45.44676178741096,1.2419286378740626,0.713876064803878,A,508.7318559817504,Correct,sub_017_day_04_data.csv,1,300,47.0,Training at home,,,,,,,,,,,,,
17,5,1182,A,38.940117452544385,59.333881055483815,1.947005872627219,0.9320144241643928,A,553.3679439977277,Correct,sub_017_day_04_data.csv,1,300,47.0,Training at home,,,,,,,,,,,,,
17,5,1183,A,58.226085682820184,70.4519766846988,2.9113042841410093,1.106657061917646,B,553.4322199819144,Incorrect,sub_017_day_04_data.csv,0,300,47.0,Training at home,,,,,,,,,,,,,
17,5,1184,A,24.355388790409783,55.10093642391596,1.2177694395204892,0.865523485376463,A,727.1946739929263,Correct,sub_017_day_04_data.csv,1,300,47.0,Training at home,,,,,,,,,,,,,
17,5,1185,B,75.53941302753016,56.45106403203136,3.776970651376508,0.8867312402517836,B,482.4912649928592,Correct,sub_017_day_04_data.csv,1,300,47.0,Training at home,,,,,,,,,,,,,
17,5,1186,B,64.14156177588019,37.19969684859518,3.2070780887940096,0.58433147167657,B,393.0595639976673,Correct,sub_017_day_04_data.csv,1,300,47.0,Training at home,,,,,,,,,,,,,
17,5,1187,B,64.28539324507094,56.71219339531615,3.214269662253547,0.8908330506984441,B,585.2707699814346,Correct,sub_017_day_04_data.csv,1,300,47.0,Training at home,,,,,,,,,,,,,
17,5,1188,B,45.69821535164597,31.779273369125853,2.284910767582298,0.4991876587643377,A,485.7249219785445,Incorrect,sub_017_day_04_data.csv,0,300,47.0,Training at home,,,,,,,,,,,,,
17,5,1189,B,53.46580876160307,35.47013626182398,2.673290438080153,0.5571635975098757,B,372.1887579886243,Correct,sub_017_day_04_data.csv,1,300,47.0,Training at home,,,,,,,,,,,,,
17,5,1190,B,62.414565262208285,37.45266389879969,3.120728263110414,0.5883050688091838,B,391.86989099835046,Correct,sub_017_day_04_data.csv,1,300,47.0,Training at home,,,,,,,,,,,,,
17,5,1191,B,71.69338207087952,46.71852719379769,3.584669103543976,0.7338529090928491,B,467.4548170005437,Correct,sub_017_day_04_data.csv,1,300,47.0,Training at home,,,,,,,,,,,,,
17,5,1192,B,74.65604176161379,49.89186701637989,3.73280208808069,0.7836996144626898,B,1098.8280849996954,Correct,sub_017_day_04_data.csv,1,300,47.0,Training at home,,,,,,,,,,,,,
17,5,1193,B,34.232627504866855,16.747587107301925,1.7116313752433427,0.2630704831082743,A,664.2323409905657,Incorrect,sub_017_day_04_data.csv,0,300,47.0,Training at home,,,,,,,,,,,,,
17,5,1194,A,23.73801602777584,39.78406694727134,1.186900801388792,0.6249266622573607,A,632.6072340016253,Correct,sub_017_day_04_data.csv,1,300,47.0,Training at home,,,,,,,,,,,,,
17,5,1195,A,27.353408174542366,47.19003108366365,1.3676704087271183,0.7412592748755585,A,741.3888960145414,Correct,sub_017_day_04_data.csv,1,300,47.0,Training at home,,,,,,,,,,,,,
17,5,1196,A,64.74283084030986,77.18576356835484,3.237141542015493,1.2124311389403113,A,765.1676039968152,Correct,sub_017_day_04_data.csv,1,300,47.0,Training at home,,,,,,,,,,,,,
17,5,1197,B,43.325432974118606,32.52734709326232,2.1662716487059304,0.5109383733447911,B,901.663760014344,Correct,sub_017_day_04_data.csv,1,300,47.0,Training at home,,,,,,,,,,,,,
17,5,1198,A,40.346030294014064,67.72350330600715,2.017301514700703,1.0637983023075803,A,626.2998790189158,Correct,sub_017_day_04_data.csv,1,300,47.0,Training at home,,,,,,,,,,,,,
17,5,1199,A,21.61396697026496,34.90481406331685,1.080698348513248,0.5482835371811695,A,541.0122489847708,Correct,sub_017_day_04_data.csv,1,300,47.0,Training at home,,,,,,,,,,,,,
