subject,day,trial,cat,x,y,xt,yt,resp,rt,fb,f_name,acc,n_trials,block,session_type,ns_left_digit,ns_right_digit,ns_left_size,ns_right_size,ns_congruent,ns_cue,ns_correct_side,ns_resp,ns_rt,ns_fb,acc_stroop,acc_stroop_mean,resp_key
17,8,1500,A,44.337886448587966,75.95758698649426,2.216894322429398,1.1931389863058903,A,706.6938969946932,Correct,sub_017_day_06_data.csv,1,300,60.0,Training at home,,,,,,,,,,,,,
17,8,1501,A,24.647052351221205,35.935253424305905,1.2323526175610602,0.5644696408134344,B,427.4855999974534,Incorrect,sub_017_day_06_data.csv,0,300,60.0,Training at home,,,,,,,,,,,,,
17,8,1502,B,71.28121447739235,55.91416320238779,3.564060723869618,0.8782976217412112,B,511.5894860064145,Correct,sub_017_day_06_data.csv,1,300,60.0,Training at home,,,,,,,,,,,,,
17,8,1503,A,31.558031897827732,55.378833930908606,1.5779015948913866,0.8698886892085582,A,334.05194300576113,Correct,sub_017_day_06_data.csv,1,300,60.0,Training at home,,,,,,,,,,,,,
17,8,1504,B,48.47141784377533,19.27048876023992,2.423570892188766,0.302700129601272,B,634.4604769838043,Correct,sub_017_day_06_data.csv,1,300,60.0,Training at home,,,,,,,,,,,,,
17,8,1505,A,43.96401183019673,68.70272947598929,2.1982005915098366,1.0791799510166744,A,517.84283600864,Correct,sub_017_day_06_data.csv,1,300,60.0,Training at home,,,,,,,,,,,,,
17,8,1506,A,53.48638584543413,68.59963234119668,2.6743192922717065,1.0775605050103214,B,1000.0754930078984,Incorrect,sub_017_day_06_data.csv,0,300,60.0,Training at home,,,,,,,,,,,,,
17,8,1507,A,18.12942766895667,46.033541523150824,0.9064713834478334,0.7230931793392567,A,514.5313690009061,Correct,sub_017_day_06_data.csv,1,300,60.0,Training at home,,,,,,,,,,,,,
17,8,1508,B,77.90745913782078,64.66556020315005,3.895372956891039,1.0157642443724233,B,592.6514139864594,Correct,sub_017_day_06_data.csv,1,300,60.0,Training at home,,,,,,,,,,,,,
17,8,1509,B,65.92653733556699,42.4989107681202,3.2963268667783496,0.6675713292734728,B,707.9438299988396,Correct,sub_017_day_06_data.csv,1,300,60.0,Training at home,,,,,,,,,,,,,
17,8,1510,B,73.81628653481957,42.07451758644662,3.690814326740979,0.6609049767645763,B,1261.8800929922145,Correct,sub_017_day_06_data.csv,1,300,60.0,Training at home,,,,,,,,,,,,,
17,8,1511,A,29.10562046891752,49.361559027372664,1.4552810234458755,0.7753695560506644,A,1591.664381994633,Correct,sub_017_day_06_data.csv,1,300,60.0,Training at home,,,,,,,,,,,,,
17,8,1512,B,41.30226617275214,21.17168748137006,2.065113308637607,0.3325640892778559,B,1761.010271991836,Correct,sub_017_day_06_data.csv,1,300,60.0,Training at home,,,,,,,,,,,,,
17,8,1513,B,79.74175423851784,53.4434861951019,3.987087711925892,0.8394883180637982,B,1474.7107820003291,Correct,sub_017_day_06_data.csv,1,300,60.0,Training at home,,,,,,,,,,,,,
17,8,1514,B,68.00011543638891,42.492996380947595,3.4000057718194454,0.6674784262970131,B,711.5525029948913,Correct,sub_017_day_06_data.csv,1,300,60.0,Training at home,,,,,,,,,,,,,
17,8,1515,A,18.859177715415445,38.848126424038526,0.9429588857707722,0.6102249428974348,A,481.752530002268,Correct,sub_017_day_06_data.csv,1,300,60.0,Training at home,,,,,,,,,,,,,
17,8,1516,B,57.730240294379385,33.94768996694065,2.886512014718969,0.5332490670324234,B,1813.6483920097817,Correct,sub_017_day_06_data.csv,1,300,60.0,Training at home,,,,,,,,,,,,,
17,8,1517,B,55.23884463233206,45.04493762237425,2.761942231616603,0.7075642255793071,B,4198.150667012669,Correct,sub_017_day_06_data.csv,1,300,60.0,Training at home,,,,,,,,,,,,,
17,8,1518,A,35.94598448364966,68.09064426802112,1.797299224182483,1.0695653390530555,A,488.7374969839584,Correct,sub_017_day_06_data.csv,1,300,60.0,Training at home,,,,,,,,,,,,,
17,8,1519,B,54.2503495909144,42.242079855039925,2.71251747954572,0.6635370387247341,B,386.8982869898901,Correct,sub_017_day_06_data.csv,1,300,60.0,Training at home,,,,,,,,,,,,,
17,8,1520,B,58.077597155703224,46.26582061857505,2.903879857785161,0.7267418108380927,B,505.3004330256954,Correct,sub_017_day_06_data.csv,1,300,60.0,Training at home,,,,,,,,,,,,,
17,8,1521,A,25.92750507384016,38.28294817150159,1.296375253692008,0.601347143666741,A,383.8305070239585,Correct,sub_017_day_06_data.csv,1,300,60.0,Training at home,,,,,,,,,,,,,
17,8,1522,A,43.77590287038316,72.45341765009503,2.188795143519158,1.138095623085058,A,384.5708970038686,Correct,sub_017_day_06_data.csv,1,300,60.0,Training at home,,,,,,,,,,,,,
17,8,1523,B,84.84524678382297,68.9258238592371,4.242262339191148,1.0826843093940168,B,369.0863929805346,Correct,sub_017_day_06_data.csv,1,300,60.0,Training at home,,,,,,,,,,,,,
17,8,1524,A,26.01052722593434,45.450897989644695,1.300526361296717,0.7139410361166344,A,421.408349997364,Correct,sub_017_day_06_data.csv,1,300,60.0,Training at home,,,,,,,,,,,,,
17,8,1525,A,56.38804428939994,70.57118448795296,2.819402214469997,1.108529573712415,B,350.44494102476165,Incorrect,sub_017_day_06_data.csv,0,300,61.0,Training at home,,,,,,,,,,,,,
17,8,1526,B,82.36424827362885,63.66254846053058,4.118212413681443,1.0000089727620352,B,460.5148969858419,Correct,sub_017_day_06_data.csv,1,300,61.0,Training at home,,,,,,,,,,,,,
17,8,1527,B,60.40114373577936,52.64471614323092,3.0200571867889683,0.8269412674294714,A,442.29441200150177,Incorrect,sub_017_day_06_data.csv,0,300,61.0,Training at home,,,,,,,,,,,,,
17,8,1528,A,40.22322674203444,54.25886931845341,2.011161337101722,0.8522963262147092,A,571.5335730055813,Correct,sub_017_day_06_data.csv,1,300,61.0,Training at home,,,,,,,,,,,,,
17,8,1529,B,39.47982995817681,22.399169083480608,1.9739914979088404,0.3518453251958915,B,1225.11814700556,Correct,sub_017_day_06_data.csv,1,300,61.0,Training at home,,,,,,,,,,,,,
17,8,1530,A,29.36149846076951,44.07546524671156,1.4680749230384753,0.6923357891131064,A,964.635670010466,Correct,sub_017_day_06_data.csv,1,300,61.0,Training at home,,,,,,,,,,,,,
17,8,1531,A,43.993162517276154,55.40712404633125,2.1996581258638077,0.870333069302463,A,1164.2477590066846,Correct,sub_017_day_06_data.csv,1,300,61.0,Training at home,,,,,,,,,,,,,
17,8,1532,B,73.47308243284945,58.74726260526827,3.673654121642473,0.922799843096106,B,827.2626720136032,Correct,sub_017_day_06_data.csv,1,300,61.0,Training at home,,,,,,,,,,,,,
17,8,1533,B,82.99926125981746,54.44492386992279,4.149963062990873,0.855218864275025,B,716.974766983185,Correct,sub_017_day_06_data.csv,1,300,61.0,Training at home,,,,,,,,,,,,,
17,8,1534,B,79.62278792187612,61.4792001883089,3.9811393960938064,0.9657130183008372,B,466.40383297926746,Correct,sub_017_day_06_data.csv,1,300,61.0,Training at home,,,,,,,,,,,,,
17,8,1535,A,23.039116714609765,53.2559141090819,1.1519558357304882,0.8365419426265035,A,452.60938300634734,Correct,sub_017_day_06_data.csv,1,300,61.0,Training at home,,,,,,,,,,,,,
17,8,1536,B,63.86142196550599,41.55365909440679,3.1930710982752992,0.6527233507038153,B,485.6505809875671,Correct,sub_017_day_06_data.csv,1,300,61.0,Training at home,,,,,,,,,,,,,
17,8,1537,A,34.862443922131206,49.776861473517855,1.7431221961065604,0.7818931116198026,A,625.7761860033497,Correct,sub_017_day_06_data.csv,1,300,61.0,Training at home,,,,,,,,,,,,,
17,8,1538,B,87.67593163349747,66.02677236298233,4.383796581674874,1.0371461149789545,B,374.8343799961731,Correct,sub_017_day_06_data.csv,1,300,61.0,Training at home,,,,,,,,,,,,,
17,8,1539,B,43.98932537837662,34.23843375757114,2.1994662689188313,0.5378160598160313,A,484.1359179990832,Incorrect,sub_017_day_06_data.csv,0,300,61.0,Training at home,,,,,,,,,,,,,
17,8,1540,B,84.27410874848363,54.22646212107179,4.213705437424181,0.8517872751486215,B,396.8749899941031,Correct,sub_017_day_06_data.csv,1,300,61.0,Training at home,,,,,,,,,,,,,
17,8,1541,A,32.95427453052102,46.79505792253311,1.6477137265260509,0.7350550509686943,A,412.7767730096821,Correct,sub_017_day_06_data.csv,1,300,61.0,Training at home,,,,,,,,,,,,,
17,8,1542,B,89.05185141354161,64.3034394658051,4.452592570677081,1.0100760651316465,B,410.3619570087176,Correct,sub_017_day_06_data.csv,1,300,61.0,Training at home,,,,,,,,,,,,,
17,8,1543,A,49.27562815492966,80.44644019019869,2.4637814077464832,1.2636497275448944,A,403.50491300341673,Correct,sub_017_day_06_data.csv,1,300,61.0,Training at home,,,,,,,,,,,,,
17,8,1544,B,41.369211416839875,31.375818180662264,2.0684605708419936,0.4928501994836882,A,485.4654000082519,Incorrect,sub_017_day_06_data.csv,0,300,61.0,Training at home,,,,,,,,,,,,,
17,8,1545,A,61.2620625319547,71.73050447479704,3.063103126597735,1.126740129481561,B,1109.5409829868004,Incorrect,sub_017_day_06_data.csv,0,300,61.0,Training at home,,,,,,,,,,,,,
17,8,1546,A,49.309750682805955,58.52089639857272,2.4654875341402978,0.9192440910362272,A,923.0727819958702,Correct,sub_017_day_06_data.csv,1,300,61.0,Training at home,,,,,,,,,,,,,
17,8,1547,B,41.30032003293722,19.96433233969547,2.0650160016468613,0.3135989990610621,B,2360.7128160074353,Correct,sub_017_day_06_data.csv,1,300,61.0,Training at home,,,,,,,,,,,,,
17,8,1548,A,57.507948578558626,70.43608788172422,2.8753974289279314,1.106407481184149,A,2020.2874060196336,Correct,sub_017_day_06_data.csv,1,300,61.0,Training at home,,,,,,,,,,,,,
17,8,1549,B,76.77350429818671,45.97649030552765,3.838675214909335,0.72219702090844,B,474.6021409810055,Correct,sub_017_day_06_data.csv,1,300,61.0,Training at home,,,,,,,,,,,,,
17,8,1550,A,26.615284359688477,46.463356765351904,1.330764217984424,0.7298447013757557,A,636.3115489948541,Correct,sub_017_day_06_data.csv,1,300,62.0,Training at home,,,,,,,,,,,,,
17,8,1551,A,19.86390004020329,40.03431163813595,0.9931950020101644,0.6288574966694612,A,693.4041710046586,Correct,sub_017_day_06_data.csv,1,300,62.0,Training at home,,,,,,,,,,,,,
17,8,1552,B,48.49773322196133,38.88526329365433,2.424886661098067,0.6108082874812465,B,558.4698989987373,Correct,sub_017_day_06_data.csv,1,300,62.0,Training at home,,,,,,,,,,,,,
17,8,1553,A,60.961130169864106,79.9706496775014,3.048056508493205,1.2561760276482068,A,1063.7096310092602,Correct,sub_017_day_06_data.csv,1,300,62.0,Training at home,,,,,,,,,,,,,
17,8,1554,B,53.902406521518145,36.900364855548354,2.6951203260759073,0.5796295757248685,B,517.5137360056397,Correct,sub_017_day_06_data.csv,1,300,62.0,Training at home,,,,,,,,,,,,,
17,8,1555,B,54.43886188556289,27.514302800495855,2.7219430942781444,0.4321936577334143,B,451.1379020113963,Correct,sub_017_day_06_data.csv,1,300,62.0,Training at home,,,,,,,,,,,,,
17,8,1556,A,19.393866142920384,38.95239974372574,0.9696933071460192,0.6118628643729086,A,597.5704549928196,Correct,sub_017_day_06_data.csv,1,300,62.0,Training at home,,,,,,,,,,,,,
17,8,1557,A,17.716182440284914,38.1430826241919,0.8858091220142457,0.5991501407871488,A,470.7377879822161,Correct,sub_017_day_06_data.csv,1,300,62.0,Training at home,,,,,,,,,,,,,
17,8,1558,A,15.060509790293594,31.369081110138037,0.7530254895146797,0.49274437382736,A,614.6335429803003,Correct,sub_017_day_06_data.csv,1,300,62.0,Training at home,,,,,,,,,,,,,
17,8,1559,B,58.07243430503729,50.037853335113454,2.9036217152518646,0.7859927621949797,B,804.6826939971652,Correct,sub_017_day_06_data.csv,1,300,62.0,Training at home,,,,,,,,,,,,,
17,8,1560,A,44.7868649647764,72.0740203859747,2.2393432482388196,1.1321360647962957,A,597.9463160037994,Correct,sub_017_day_06_data.csv,1,300,62.0,Training at home,,,,,,,,,,,,,
17,8,1561,A,59.57187205519335,68.24723743027465,2.9785936027596676,1.072025098693746,A,1250.9304479754064,Correct,sub_017_day_06_data.csv,1,300,62.0,Training at home,,,,,,,,,,,,,
17,8,1562,B,31.82643389626904,16.176253716688763,1.591321694813452,0.25409599919477,B,749.523523991229,Correct,sub_017_day_06_data.csv,1,300,62.0,Training at home,,,,,,,,,,,,,
17,8,1563,A,43.77730921207999,71.63353057668482,2.1888654606039997,1.125216867052064,A,567.4526520015206,Correct,sub_017_day_06_data.csv,1,300,62.0,Training at home,,,,,,,,,,,,,
17,8,1564,B,56.32908731793864,31.441291603536214,2.816454365896932,0.4938786536052191,B,444.0766029874794,Correct,sub_017_day_06_data.csv,1,300,62.0,Training at home,,,,,,,,,,,,,
17,8,1565,A,27.549990082366367,60.632551518879175,1.3774995041183182,0.9524138921005774,A,462.455637025414,Correct,sub_017_day_06_data.csv,1,300,62.0,Training at home,,,,,,,,,,,,,
17,8,1566,B,82.19070269826193,63.40533495527652,4.109535134913097,0.9959686724694842,B,530.3637970064301,Correct,sub_017_day_06_data.csv,1,300,62.0,Training at home,,,,,,,,,,,,,
17,8,1567,B,54.23812609103434,45.76374162037992,2.7119063045517167,0.7188551723768349,B,807.9527220106684,Correct,sub_017_day_06_data.csv,1,300,62.0,Training at home,,,,,,,,,,,,,
17,8,1568,B,82.45409436493057,60.09850692528287,4.122704718246529,0.9440251392409198,B,670.2454350015614,Correct,sub_017_day_06_data.csv,1,300,62.0,Training at home,,,,,,,,,,,,,
17,8,1569,B,53.6488317226216,34.9830020735887,2.6824415861310804,0.5495117115745138,B,565.6166230037343,Correct,sub_017_day_06_data.csv,1,300,62.0,Training at home,,,,,,,,,,,,,
17,8,1570,A,45.07529433916049,71.7132141090321,2.253764716958025,1.1264685330512358,A,524.6810890093911,Correct,sub_017_day_06_data.csv,1,300,62.0,Training at home,,,,,,,,,,,,,
17,8,1571,A,60.79855849830935,72.75635877335557,3.039927924915468,1.1428542111215856,A,509.90736598032527,Correct,sub_017_day_06_data.csv,1,300,62.0,Training at home,,,,,,,,,,,,,
17,8,1572,A,58.373754006541745,68.39476094370872,2.9186877003270872,1.0743423926239273,B,371.9082869938575,Incorrect,sub_017_day_06_data.csv,0,300,62.0,Training at home,,,,,,,,,,,,,
17,8,1573,B,57.63733598005408,34.000764960144856,2.881866799002704,0.5340827670761217,B,579.5613579975907,Correct,sub_017_day_06_data.csv,1,300,62.0,Training at home,,,,,,,,,,,,,
17,8,1574,A,28.43216429586411,42.12795855297307,1.4216082147932054,0.6617444255037774,A,3038.3396210090723,Correct,sub_017_day_06_data.csv,1,300,62.0,Training at home,,,,,,,,,,,,,
17,8,1575,B,57.10415979799125,46.419051016764975,2.8552079898995624,0.7291487483043932,B,996.2732239800972,Correct,sub_017_day_06_data.csv,1,300,63.0,Training at home,,,,,,,,,,,,,
17,8,1576,A,28.603326608822563,55.049608448462095,1.430166330441128,0.8647172274234156,A,892.0296200085431,Correct,sub_017_day_06_data.csv,1,300,63.0,Training at home,,,,,,,,,,,,,
17,8,1577,A,43.27691056477684,55.11788101790562,2.1638455282388422,0.8657896504364431,B,1408.6023189884145,Incorrect,sub_017_day_06_data.csv,0,300,63.0,Training at home,,,,,,,,,,,,,
17,8,1578,B,76.3989722968164,46.413081685466146,3.81994861484082,0.7290549822676171,B,745.4451919766143,Correct,sub_017_day_06_data.csv,1,300,63.0,Training at home,,,,,,,,,,,,,
17,8,1579,B,48.196294881147736,21.896822474745676,2.4098147440573867,0.3439544831181044,B,623.2584149984177,Correct,sub_017_day_06_data.csv,1,300,63.0,Training at home,,,,,,,,,,,,,
17,8,1580,A,53.12441547349936,74.51749383817535,2.656220773674968,1.1705180560296715,A,1866.4258930075448,Correct,sub_017_day_06_data.csv,1,300,63.0,Training at home,,,,,,,,,,,,,
17,8,1581,A,41.74668624332172,60.141977030878465,2.087334312166086,0.9447079660628692,A,1681.0939440038055,Correct,sub_017_day_06_data.csv,1,300,63.0,Training at home,,,,,,,,,,,,,
17,8,1582,A,45.24853894227354,67.32512048272707,2.262426947113677,1.0575405195529155,A,2371.973720990354,Correct,sub_017_day_06_data.csv,1,300,63.0,Training at home,,,,,,,,,,,,,
17,8,1583,B,57.10398969896977,36.522266637987286,2.8551994849484883,0.5736904228117422,B,700.011937005911,Correct,sub_017_day_06_data.csv,1,300,63.0,Training at home,,,,,,,,,,,,,
17,8,1584,A,25.59406033097771,40.02797882475373,1.2797030165488856,0.6287580210694705,A,1511.7031869885975,Correct,sub_017_day_06_data.csv,1,300,63.0,Training at home,,,,,,,,,,,,,
17,8,1585,B,76.59607782205195,44.64923231840147,3.8298038911025976,0.7013485011995702,B,671.2667270039674,Correct,sub_017_day_06_data.csv,1,300,63.0,Training at home,,,,,,,,,,,,,
17,8,1586,A,44.45605264463901,70.35629981833925,2.2228026322319505,1.1051541732152776,A,1192.0756339968648,Correct,sub_017_day_06_data.csv,1,300,63.0,Training at home,,,,,,,,,,,,,
17,8,1587,B,62.94981899032864,52.363285352540096,3.147490949516432,0.8225205629068301,B,876.540991012007,Correct,sub_017_day_06_data.csv,1,300,63.0,Training at home,,,,,,,,,,,,,
17,8,1588,B,37.157668442252216,20.04073608259181,1.8578834221126104,0.3147991462480115,B,876.3304019812495,Correct,sub_017_day_06_data.csv,1,300,63.0,Training at home,,,,,,,,,,,,,
17,8,1589,A,28.08197370830911,43.60238759640687,1.4040986854154556,0.6849047027592328,A,1185.5543040146586,Correct,sub_017_day_06_data.csv,1,300,63.0,Training at home,,,,,,,,,,,,,
17,8,1590,A,62.66646568734327,75.21184508444198,3.1333232843671635,1.1814248999010826,A,1838.36089700344,Correct,sub_017_day_06_data.csv,1,300,63.0,Training at home,,,,,,,,,,,,,
17,8,1591,B,72.79661998072991,41.37773787508251,3.639830999036496,0.6499599866526169,B,846.91378599382,Correct,sub_017_day_06_data.csv,1,300,63.0,Training at home,,,,,,,,,,,,,
17,8,1592,B,38.39309850331543,25.559236095536463,1.9196549251657715,0.4014835417455221,B,1362.1153949934524,Correct,sub_017_day_06_data.csv,1,300,63.0,Training at home,,,,,,,,,,,,,
17,8,1593,A,52.432956166934275,61.25856272616155,2.621647808346714,0.9622472531498932,A,2448.561764002079,Correct,sub_017_day_06_data.csv,1,300,63.0,Training at home,,,,,,,,,,,,,
17,8,1594,A,38.43292862563742,55.057862020125135,1.9216464312818713,0.8648468742239281,B,1391.231768997386,Incorrect,sub_017_day_06_data.csv,0,300,63.0,Training at home,,,,,,,,,,,,,
17,8,1595,B,36.06444011833135,25.61779328261555,1.8032220059165671,0.4024033558892348,B,891.6453359997831,Correct,sub_017_day_06_data.csv,1,300,63.0,Training at home,,,,,,,,,,,,,
17,8,1596,B,65.88487579418779,42.86332607301448,3.2942437897093897,0.6732955514970308,B,1172.0165500009898,Correct,sub_017_day_06_data.csv,1,300,63.0,Training at home,,,,,,,,,,,,,
17,8,1597,B,52.65049258482651,32.40797380782228,2.632524629241326,0.5090632621619245,B,520.4080280091148,Correct,sub_017_day_06_data.csv,1,300,63.0,Training at home,,,,,,,,,,,,,
17,8,1598,B,81.66845997325768,52.800229750671306,4.083422998662884,0.829384069462811,B,514.2036910110619,Correct,sub_017_day_06_data.csv,1,300,63.0,Training at home,,,,,,,,,,,,,
17,8,1599,A,45.80025350429686,74.06408581348296,2.290012675214843,1.1633959394324105,A,888.2265319989529,Correct,sub_017_day_06_data.csv,1,300,63.0,Training at home,,,,,,,,,,,,,
17,8,1600,B,73.69730144628122,55.53607301162866,3.684865072314061,0.872358594912795,B,645.4461539979093,Correct,sub_017_day_06_data.csv,1,300,64.0,Training at home,,,,,,,,,,,,,
17,8,1601,A,51.809819183494064,82.38370016991453,2.590490959174703,1.2940801361467384,A,969.27656698972,Correct,sub_017_day_06_data.csv,1,300,64.0,Training at home,,,,,,,,,,,,,
17,8,1602,A,57.87844787674081,84.80823437148946,2.89392239383704,1.3321646303269634,A,588.0319139978383,Correct,sub_017_day_06_data.csv,1,300,64.0,Training at home,,,,,,,,,,,,,
17,8,1603,B,79.29888783972049,59.69865158499341,3.964944391986025,0.9377442262431596,B,611.1774359887931,Correct,sub_017_day_06_data.csv,1,300,64.0,Training at home,,,,,,,,,,,,,
17,8,1604,A,29.772272032465185,40.91368127031248,1.4886136016232592,0.64267060255064,A,1480.881458002841,Correct,sub_017_day_06_data.csv,1,300,64.0,Training at home,,,,,,,,,,,,,
17,8,1605,B,33.67392071574528,13.366869187963816,1.683696035787264,0.2099662902120144,B,649.8546870134305,Correct,sub_017_day_06_data.csv,1,300,64.0,Training at home,,,,,,,,,,,,,
17,8,1606,B,76.11114409883,63.80288706863384,3.805557204941499,1.0022134064631965,B,1130.898605013499,Correct,sub_017_day_06_data.csv,1,300,64.0,Training at home,,,,,,,,,,,,,
17,8,1607,B,53.78565209745824,40.75308159400525,2.689282604872912,0.6401479087343616,B,847.98546199454,Correct,sub_017_day_06_data.csv,1,300,64.0,Training at home,,,,,,,,,,,,,
17,8,1608,A,20.42824694636157,40.83124195554632,1.0214123473180785,0.6413756488224582,A,729.167095007142,Correct,sub_017_day_06_data.csv,1,300,64.0,Training at home,,,,,,,,,,,,,
17,8,1609,B,30.99390168749743,16.740632435141745,1.5496950843748716,0.2629612393734415,B,540.8227650041226,Correct,sub_017_day_06_data.csv,1,300,64.0,Training at home,,,,,,,,,,,,,
17,8,1610,B,38.6258851621736,13.121860297330633,1.93129425810868,0.2061176995576274,B,478.33426398574375,Correct,sub_017_day_06_data.csv,1,300,64.0,Training at home,,,,,,,,,,,,,
17,8,1611,A,25.8932821336034,48.9998680172873,1.29466410668017,0.7696881269498963,A,1350.2542070054917,Correct,sub_017_day_06_data.csv,1,300,64.0,Training at home,,,,,,,,,,,,,
17,8,1612,B,37.645380958908135,15.60827381725266,1.8822690479454067,0.2451741917974943,B,1102.4753590172622,Correct,sub_017_day_06_data.csv,1,300,64.0,Training at home,,,,,,,,,,,,,
17,8,1613,B,43.833278341436454,17.501080625058307,2.1916639170718226,0.2749063316078292,B,522.6044669980183,Correct,sub_017_day_06_data.csv,1,300,64.0,Training at home,,,,,,,,,,,,,
17,8,1614,B,40.81749016571072,15.853341375660044,2.040874508285536,0.2490237040031234,B,478.71075000148267,Correct,sub_017_day_06_data.csv,1,300,64.0,Training at home,,,,,,,,,,,,,
17,8,1615,A,56.10955708699842,79.62641923594782,2.805477854349921,1.2507688685165732,A,666.8372569838539,Correct,sub_017_day_06_data.csv,1,300,64.0,Training at home,,,,,,,,,,,,,
17,8,1616,B,80.62942585495435,53.76319276889046,4.031471292747717,0.8445102571813908,B,1107.3765309993178,Correct,sub_017_day_06_data.csv,1,300,64.0,Training at home,,,,,,,,,,,,,
17,8,1617,B,68.06425585805754,48.39513686939398,3.403212792902877,0.7601890322918033,B,607.0276469981764,Correct,sub_017_day_06_data.csv,1,300,64.0,Training at home,,,,,,,,,,,,,
17,8,1618,B,53.428089791696856,23.3188866392287,2.671404489584843,0.3662922147784703,B,1513.9276119880378,Correct,sub_017_day_06_data.csv,1,300,64.0,Training at home,,,,,,,,,,,,,
17,8,1619,B,81.66122008062212,54.86908270473722,4.083061004031106,0.8618815356720662,B,361.52987999957986,Correct,sub_017_day_06_data.csv,1,300,64.0,Training at home,,,,,,,,,,,,,
17,8,1620,A,29.971798617942888,54.534343430017536,1.4985899308971442,0.8566234634404294,A,1239.1777739976533,Correct,sub_017_day_06_data.csv,1,300,64.0,Training at home,,,,,,,,,,,,,
17,8,1621,B,56.53747490780142,40.140923618153515,2.8268737453900705,0.6305321537355005,B,374.33961598435417,Correct,sub_017_day_06_data.csv,1,300,64.0,Training at home,,,,,,,,,,,,,
17,8,1622,B,50.973839260720375,37.46230378588725,2.5486919630360187,0.5884564918014622,B,873.6055229965132,Correct,sub_017_day_06_data.csv,1,300,64.0,Training at home,,,,,,,,,,,,,
17,8,1623,B,74.56339776762105,47.06631736771535,3.728169888381053,0.7393159843697011,B,711.5660840063356,Correct,sub_017_day_06_data.csv,1,300,64.0,Training at home,,,,,,,,,,,,,
17,8,1624,B,46.82836657360889,21.766394997458207,2.3414183286804446,0.3419057330957416,B,943.4886449889746,Correct,sub_017_day_06_data.csv,1,300,64.0,Training at home,,,,,,,,,,,,,
17,8,1625,A,43.91037349692894,70.85127087723046,2.195518674846447,1.1129291604270384,A,798.4240420046262,Correct,sub_017_day_06_data.csv,1,300,65.0,Training at home,,,,,,,,,,,,,
17,8,1626,A,50.15199311519224,62.233483545066335,2.507599655759612,0.9775612735624084,A,1167.0068560051732,Correct,sub_017_day_06_data.csv,1,300,65.0,Training at home,,,,,,,,,,,,,
17,8,1627,A,40.92079416393693,64.76321153454656,2.0460397081968464,1.017298147899066,A,1372.8511710069142,Correct,sub_017_day_06_data.csv,1,300,65.0,Training at home,,,,,,,,,,,,,
17,8,1628,B,32.16407703333669,15.618672149106107,1.6082038516668344,0.2453375284122962,B,652.9911760007963,Correct,sub_017_day_06_data.csv,1,300,65.0,Training at home,,,,,,,,,,,,,
17,8,1629,A,22.554374771014928,53.4997517766444,1.1277187385507463,0.8403721357519177,A,1314.9141159956343,Correct,sub_017_day_06_data.csv,1,300,65.0,Training at home,,,,,,,,,,,,,
17,8,1630,A,21.72444402192999,46.65011011541686,1.0862222010964997,0.7327782161387424,A,982.2054470132572,Correct,sub_017_day_06_data.csv,1,300,65.0,Training at home,,,,,,,,,,,,,
17,8,1631,A,27.317940848219873,41.256245626356986,1.3658970424109935,0.6480515908722957,A,1538.8816640188452,Correct,sub_017_day_06_data.csv,1,300,65.0,Training at home,,,,,,,,,,,,,
17,8,1632,B,48.810579676621465,32.134331590314126,2.4405289838310735,0.5047649002607464,B,400.6912670156453,Correct,sub_017_day_06_data.csv,1,300,65.0,Training at home,,,,,,,,,,,,,
17,8,1633,A,18.81665028236265,45.62464885308141,0.9408325141181324,0.7166703082972727,A,1510.9393229940906,Correct,sub_017_day_06_data.csv,1,300,65.0,Training at home,,,,,,,,,,,,,
17,8,1634,A,53.61258042782565,66.28310222939255,2.6806290213912827,1.0411725351050043,A,1108.1042799924037,Correct,sub_017_day_06_data.csv,1,300,65.0,Training at home,,,,,,,,,,,,,
17,8,1635,A,45.86205807553063,61.63287562984388,2.2931029037765316,0.9681269464916548,B,3075.1244610000867,Incorrect,sub_017_day_06_data.csv,0,300,65.0,Training at home,,,,,,,,,,,,,
17,8,1636,B,49.38382497783061,30.85250321975804,2.469191248891531,0.4846299873002365,B,663.1180710101034,Correct,sub_017_day_06_data.csv,1,300,65.0,Training at home,,,,,,,,,,,,,
17,8,1637,B,32.00519114908961,12.033560576835225,1.600259557454481,0.1890227275235665,B,521.7450789932627,Correct,sub_017_day_06_data.csv,1,300,65.0,Training at home,,,,,,,,,,,,,
17,8,1638,B,68.99492447079498,57.30374789063643,3.4497462235397496,0.9001251669819251,B,2261.1509839771315,Correct,sub_017_day_06_data.csv,1,300,65.0,Training at home,,,,,,,,,,,,,
17,8,1639,A,40.43663404079712,72.66771296342435,2.0218317020398557,1.1414617659953283,A,1193.3608829858713,Correct,sub_017_day_06_data.csv,1,300,65.0,Training at home,,,,,,,,,,,,,
17,8,1640,B,36.52881516568307,19.914058540885023,1.8264407582841533,0.3128093000760074,A,1448.9618349762168,Incorrect,sub_017_day_06_data.csv,0,300,65.0,Training at home,,,,,,,,,,,,,
17,8,1641,B,51.17314738655882,26.55135751891288,2.558657369327941,0.4170677486212641,B,540.2227580198087,Correct,sub_017_day_06_data.csv,1,300,65.0,Training at home,,,,,,,,,,,,,
17,8,1642,A,29.465216336339395,60.40953435169697,1.4732608168169696,0.9489107466303572,B,1642.8103109938093,Incorrect,sub_017_day_06_data.csv,0,300,65.0,Training at home,,,,,,,,,,,,,
17,8,1643,B,57.09040332242222,33.513654017051365,2.854520166121111,0.5264312462745931,B,859.4472919940017,Correct,sub_017_day_06_data.csv,1,300,65.0,Training at home,,,,,,,,,,,,,
17,8,1644,A,36.46581038587797,48.00154106441467,1.8232905192938984,0.7540064438447694,B,1725.8545629738364,Incorrect,sub_017_day_06_data.csv,0,300,65.0,Training at home,,,,,,,,,,,,,
17,8,1645,A,17.223232291678965,31.87841134460132,0.8611616145839482,0.5007449144415651,A,498.58985099126585,Correct,sub_017_day_06_data.csv,1,300,65.0,Training at home,,,,,,,,,,,,,
17,8,1646,B,53.91657679841474,24.900942012742934,2.6958288399207366,0.3911430824734933,B,1129.270632984117,Correct,sub_017_day_06_data.csv,1,300,65.0,Training at home,,,,,,,,,,,,,
17,8,1647,A,41.1438293542314,70.32498419754762,2.05719146771157,1.1046622685941696,A,497.7306500077248,Correct,sub_017_day_06_data.csv,1,300,65.0,Training at home,,,,,,,,,,,,,
17,8,1648,A,20.17819040941856,38.85126552477591,1.008909520470928,0.6102742517765121,A,1169.35387099511,Correct,sub_017_day_06_data.csv,1,300,65.0,Training at home,,,,,,,,,,,,,
17,8,1649,A,55.747190869116075,81.17239611272434,2.7873595434558034,1.2750530165100773,A,1108.9188159967307,Correct,sub_017_day_06_data.csv,1,300,65.0,Training at home,,,,,,,,,,,,,
17,8,1650,B,73.43876341834881,41.31838205606195,3.671938170917441,0.6490276276277028,B,1086.9538090191782,Correct,sub_017_day_06_data.csv,1,300,66.0,Training at home,,,,,,,,,,,,,
17,8,1651,B,35.819097931552996,21.691138361106127,1.7909548965776496,0.3407236046162537,B,823.4711880213581,Correct,sub_017_day_06_data.csv,1,300,66.0,Training at home,,,,,,,,,,,,,
17,8,1652,A,30.13172618250701,48.1686037904353,1.5065863091253504,0.7566306590085451,A,637.5530780060217,Correct,sub_017_day_06_data.csv,1,300,66.0,Training at home,,,,,,,,,,,,,
17,8,1653,A,42.39068689462351,64.84398015315513,2.1195343447311754,1.0185668583933725,A,1246.346191997873,Correct,sub_017_day_06_data.csv,1,300,66.0,Training at home,,,,,,,,,,,,,
17,8,1654,A,58.43439700359236,66.37238297903038,2.9217198501796178,1.0425749538408502,B,1061.0653559851926,Incorrect,sub_017_day_06_data.csv,0,300,66.0,Training at home,,,,,,,,,,,,,
17,8,1655,B,80.52987753787737,64.52069358541013,4.026493876893869,1.0134886848622129,B,608.034939999925,Correct,sub_017_day_06_data.csv,1,300,66.0,Training at home,,,,,,,,,,,,,
17,8,1656,B,50.78458306507728,20.4979755181434,2.539229153253864,0.3219814465063137,B,2583.450658014044,Correct,sub_017_day_06_data.csv,1,300,66.0,Training at home,,,,,,,,,,,,,
17,8,1657,B,66.68849344075166,38.994368495507686,3.3344246720375827,0.6125221079843012,B,2103.261830023257,Correct,sub_017_day_06_data.csv,1,300,66.0,Training at home,,,,,,,,,,,,,
17,8,1658,A,52.163899745623105,74.34947214365818,2.6081949872811556,1.1678787774239774,A,448.15593797829933,Correct,sub_017_day_06_data.csv,1,300,66.0,Training at home,,,,,,,,,,,,,
17,8,1659,A,56.9092719979392,75.14445612159868,2.8454635998969597,1.1803663565480746,A,461.5572710172273,Correct,sub_017_day_06_data.csv,1,300,66.0,Training at home,,,,,,,,,,,,,
17,8,1660,A,25.912415940621592,47.09087165171978,1.2956207970310798,0.7397016821609135,A,465.2940520027187,Correct,sub_017_day_06_data.csv,1,300,66.0,Training at home,,,,,,,,,,,,,
17,8,1661,B,87.02794225795799,62.726633794823755,4.351397112897899,0.9853076595711776,B,628.4435949928593,Correct,sub_017_day_06_data.csv,1,300,66.0,Training at home,,,,,,,,,,,,,
17,8,1662,B,52.017461460832855,20.61443232680724,2.6008730730416425,0.3238107457791078,B,464.2586949921679,Correct,sub_017_day_06_data.csv,1,300,66.0,Training at home,,,,,,,,,,,,,
17,8,1663,B,38.79135738634294,23.704384730163557,1.939567869317147,0.3723476046307395,B,357.0320149883628,Correct,sub_017_day_06_data.csv,1,300,66.0,Training at home,,,,,,,,,,,,,
17,8,1664,B,54.38437180918747,39.669323474739045,2.7192185904593735,0.6231242760055866,B,1042.725815001177,Correct,sub_017_day_06_data.csv,1,300,66.0,Training at home,,,,,,,,,,,,,
17,8,1665,A,18.53840301455787,47.311078168957145,0.9269201507278936,0.743160678045041,A,1093.4574480052106,Correct,sub_017_day_06_data.csv,1,300,66.0,Training at home,,,,,,,,,,,,,
17,8,1666,B,51.03782899560688,31.054904800717058,2.551891449780344,0.4878093038993155,B,448.4796830220148,Correct,sub_017_day_06_data.csv,1,300,66.0,Training at home,,,,,,,,,,,,,
17,8,1667,A,20.79176697932859,50.95772618125849,1.0395883489664297,0.8004420910734096,A,1108.5879300080703,Correct,sub_017_day_06_data.csv,1,300,66.0,Training at home,,,,,,,,,,,,,
17,8,1668,B,62.299573581951975,38.92845111090704,3.1149786790975984,0.6114866801282748,B,770.2780899999198,Correct,sub_017_day_06_data.csv,1,300,66.0,Training at home,,,,,,,,,,,,,
17,8,1669,A,63.220049489654365,73.24914168487678,3.1610024744827183,1.1505948269948336,B,538.3507999940775,Incorrect,sub_017_day_06_data.csv,0,300,66.0,Training at home,,,,,,,,,,,,,
17,8,1670,B,48.409552300271585,30.904669911683527,2.420477615013579,0.4854494197808124,B,726.1487070063595,Correct,sub_017_day_06_data.csv,1,300,66.0,Training at home,,,,,,,,,,,,,
17,8,1671,A,15.23523422350053,37.9823167220963,0.7617617111750264,0.5966248359022924,A,466.3658630161081,Correct,sub_017_day_06_data.csv,1,300,66.0,Training at home,,,,,,,,,,,,,
17,8,1672,B,88.9336949656621,63.26528134599259,4.446684748283105,0.9937687155193086,B,1316.497846011771,Correct,sub_017_day_06_data.csv,1,300,66.0,Training at home,,,,,,,,,,,,,
17,8,1673,B,49.07358469561266,20.87960785936532,2.453679234780633,0.327976113304089,B,490.92657200526446,Correct,sub_017_day_06_data.csv,1,300,66.0,Training at home,,,,,,,,,,,,,
17,8,1674,B,68.42083604617297,58.23662565529945,3.421041802308648,0.914778776642738,B,384.9443089857232,Correct,sub_017_day_06_data.csv,1,300,66.0,Training at home,,,,,,,,,,,,,
17,8,1675,A,54.360347336419245,73.98888566113816,2.7180173668209626,1.162214698201634,B,574.7509659850039,Incorrect,sub_017_day_06_data.csv,0,300,67.0,Training at home,,,,,,,,,,,,,
17,8,1676,B,39.55113180375119,13.877097628083432,1.9775565901875596,0.2179809398076762,B,489.5440989930648,Correct,sub_017_day_06_data.csv,1,300,67.0,Training at home,,,,,,,,,,,,,
17,8,1677,A,67.18710738673589,85.40619756470124,3.3593553693367944,1.3415574142015196,A,534.6847189939581,Correct,sub_017_day_06_data.csv,1,300,67.0,Training at home,,,,,,,,,,,,,
17,8,1678,A,14.375298859393371,37.92857972527863,0.7187649429696685,0.5957807371301506,A,530.5579400155693,Correct,sub_017_day_06_data.csv,1,300,67.0,Training at home,,,,,,,,,,,,,
17,8,1679,B,74.22465069470545,58.37976769336454,3.711232534735272,0.917027246518764,B,1003.4852359967772,Correct,sub_017_day_06_data.csv,1,300,67.0,Training at home,,,,,,,,,,,,,
17,8,1680,A,30.463419184835256,44.45089467015072,1.5231709592417628,0.6982330207061959,A,957.623677997617,Correct,sub_017_day_06_data.csv,1,300,67.0,Training at home,,,,,,,,,,,,,
17,8,1681,A,26.049446378533226,47.94648466929792,1.3024723189266612,0.75314162001261,A,987.2209920140448,Correct,sub_017_day_06_data.csv,1,300,67.0,Training at home,,,,,,,,,,,,,
17,8,1682,A,23.500579641939968,52.448646792372294,1.1750289820969984,0.8238614172682134,A,948.3466889942064,Correct,sub_017_day_06_data.csv,1,300,67.0,Training at home,,,,,,,,,,,,,
17,8,1683,A,19.311128012335715,33.83565409272575,0.9655564006167856,0.5314892116355631,A,633.0270629841834,Correct,sub_017_day_06_data.csv,1,300,67.0,Training at home,,,,,,,,,,,,,
17,8,1684,A,32.17830625424215,42.454478960461785,1.6089153127121076,0.666873396070846,A,994.431107013952,Correct,sub_017_day_06_data.csv,1,300,67.0,Training at home,,,,,,,,,,,,,
17,8,1685,A,41.133507379004946,68.20052654806298,2.0566753689502475,1.0712913658717516,A,685.0517989951186,Correct,sub_017_day_06_data.csv,1,300,67.0,Training at home,,,,,,,,,,,,,
17,8,1686,B,31.720475999662597,14.710972614099632,1.58602379998313,0.2310794174580802,B,496.41454199445434,Correct,sub_017_day_06_data.csv,1,300,67.0,Training at home,,,,,,,,,,,,,
17,8,1687,A,29.629872046648664,62.862866883145465,1.4814936023324332,0.9874476039184146,A,1202.3835529980715,Correct,sub_017_day_06_data.csv,1,300,67.0,Training at home,,,,,,,,,,,,,
17,8,1688,A,24.719531998471396,42.2162096940293,1.23597659992357,0.6631306711858435,A,1444.3419449962676,Correct,sub_017_day_06_data.csv,1,300,67.0,Training at home,,,,,,,,,,,,,
17,8,1689,A,27.747796731261182,38.28861405084511,1.3873898365630593,0.6014361430913497,B,1983.5049459943548,Incorrect,sub_017_day_06_data.csv,0,300,67.0,Training at home,,,,,,,,,,,,,
17,8,1690,B,39.18086534323,15.907525321892424,1.9590432671615003,0.2498748234402542,B,454.1970300197136,Correct,sub_017_day_06_data.csv,1,300,67.0,Training at home,,,,,,,,,,,,,
17,8,1691,A,53.39589388661034,82.16976343126761,2.669794694330517,1.2907196257144078,A,590.9986439801287,Correct,sub_017_day_06_data.csv,1,300,67.0,Training at home,,,,,,,,,,,,,
17,8,1692,A,45.16652067521344,72.86825436437883,2.258326033760672,1.1446118629552244,A,1502.590460004285,Correct,sub_017_day_06_data.csv,1,300,67.0,Training at home,,,,,,,,,,,,,
17,8,1693,B,85.51928314647903,58.25083865344824,4.275964157323951,0.9150020338955868,B,1682.194466004148,Correct,sub_017_day_06_data.csv,1,300,67.0,Training at home,,,,,,,,,,,,,
17,8,1694,B,39.27855323289283,22.342954919348703,1.9639276616446415,0.3509623151705691,B,576.9906859786715,Correct,sub_017_day_06_data.csv,1,300,67.0,Training at home,,,,,,,,,,,,,
17,8,1695,B,71.22022945217574,41.16578114087289,3.5610114726087874,0.6466305780572575,B,560.6805089919362,Correct,sub_017_day_06_data.csv,1,300,67.0,Training at home,,,,,,,,,,,,,
17,8,1696,B,58.58562636434972,34.05030158807551,2.9292813182174857,0.5348608866080744,B,889.8498439812101,Correct,sub_017_day_06_data.csv,1,300,67.0,Training at home,,,,,,,,,,,,,
17,8,1697,A,21.43883742657627,34.526179740833655,1.0719418713288136,0.5423359631516188,A,643.8389779941645,Correct,sub_017_day_06_data.csv,1,300,67.0,Training at home,,,,,,,,,,,,,
17,8,1698,B,61.44242166784061,31.9539997105092,3.0721210833920303,0.5019322537167303,B,626.1715329892468,Correct,sub_017_day_06_data.csv,1,300,67.0,Training at home,,,,,,,,,,,,,
17,8,1699,B,57.456439161311664,30.88626528827431,2.8728219580655834,0.4851603206323399,B,511.6801809926983,Correct,sub_017_day_06_data.csv,1,300,67.0,Training at home,,,,,,,,,,,,,
17,8,1700,A,53.45154470374898,69.33166019280948,2.672577235187449,1.0890591716145708,A,659.0920359885786,Correct,sub_017_day_06_data.csv,1,300,68.0,Training at home,,,,,,,,,,,,,
17,8,1701,A,13.989506756605842,39.48094921100704,0.699475337830292,0.6201652999902573,A,493.1150060147047,Correct,sub_017_day_06_data.csv,1,300,68.0,Training at home,,,,,,,,,,,,,
17,8,1702,A,49.85453162745607,75.9936335017446,2.4927265813728035,1.1937052036433802,A,580.738974007545,Correct,sub_017_day_06_data.csv,1,300,68.0,Training at home,,,,,,,,,,,,,
17,8,1703,A,32.46152327400431,61.16373556793333,1.6230761637002156,0.9607577116316404,A,504.8533009830862,Correct,sub_017_day_06_data.csv,1,300,68.0,Training at home,,,,,,,,,,,,,
17,8,1704,B,34.965809488651786,14.082791093696514,1.7482904744325891,0.2212119652099836,B,523.7335950077977,Correct,sub_017_day_06_data.csv,1,300,68.0,Training at home,,,,,,,,,,,,,
17,8,1705,A,44.06885353385926,73.98103926344318,2.203442676692963,1.1620914472748558,A,1030.0121079781093,Correct,sub_017_day_06_data.csv,1,300,68.0,Training at home,,,,,,,,,,,,,
17,8,1706,A,66.18550830896872,84.8299861653199,3.309275415448436,1.332506306705464,A,457.2334940021392,Correct,sub_017_day_06_data.csv,1,300,68.0,Training at home,,,,,,,,,,,,,
17,8,1707,B,49.51372799077179,34.93692618660517,2.47568639953859,0.5487879532342383,B,532.7034459915012,Correct,sub_017_day_06_data.csv,1,300,68.0,Training at home,,,,,,,,,,,,,
17,8,1708,B,66.46636413164393,47.65556055374069,3.323318206582196,0.7485717946916765,A,748.5732659988571,Incorrect,sub_017_day_06_data.csv,0,300,68.0,Training at home,,,,,,,,,,,,,
17,8,1709,B,34.72932667250322,16.95935821683094,1.736466333625161,0.2663969759179689,A,892.3272999818437,Incorrect,sub_017_day_06_data.csv,0,300,68.0,Training at home,,,,,,,,,,,,,
17,8,1710,B,89.72696815951234,68.02414060699502,4.486348407975617,1.0685207019884733,B,845.4953809850849,Correct,sub_017_day_06_data.csv,1,300,68.0,Training at home,,,,,,,,,,,,,
17,8,1711,A,27.225477654784655,56.879436444481286,1.3612738827392326,0.8934600983715498,A,679.7424810065422,Correct,sub_017_day_06_data.csv,1,300,68.0,Training at home,,,,,,,,,,,,,
17,8,1712,B,89.42472903193988,64.03753240104766,4.471236451596994,1.0058992067257482,B,470.0949089892674,Correct,sub_017_day_06_data.csv,1,300,68.0,Training at home,,,,,,,,,,,,,
17,8,1713,B,38.71811485215352,26.723610058000567,1.935905742607676,0.4197734851780644,B,458.2621520094108,Correct,sub_017_day_06_data.csv,1,300,68.0,Training at home,,,,,,,,,,,,,
17,8,1714,A,27.795337330788655,52.76104628139933,1.3897668665394327,0.8287685769667759,B,1116.9186320039444,Incorrect,sub_017_day_06_data.csv,0,300,68.0,Training at home,,,,,,,,,,,,,
17,8,1715,A,43.04566560457348,56.294408938986145,2.152283280228674,0.8842705078044921,B,552.365840994753,Incorrect,sub_017_day_06_data.csv,0,300,68.0,Training at home,,,,,,,,,,,,,
17,8,1716,A,49.35691147569108,73.35786003053026,2.4678455737845537,1.1523025707749108,A,591.5076920064166,Correct,sub_017_day_06_data.csv,1,300,68.0,Training at home,,,,,,,,,,,,,
17,8,1717,B,68.68802665171981,56.35922483413179,3.4344013325859906,0.8852886335046192,B,1642.8368740016597,Correct,sub_017_day_06_data.csv,1,300,68.0,Training at home,,,,,,,,,,,,,
17,8,1718,B,58.305517183478216,43.86988085286908,2.915275859173911,0.6891064770061651,B,613.0324580008164,Correct,sub_017_day_06_data.csv,1,300,68.0,Training at home,,,,,,,,,,,,,
17,8,1719,A,40.401094006684914,55.89600087297935,2.0200547003342457,0.878012328538003,A,1588.7418719939888,Correct,sub_017_day_06_data.csv,1,300,68.0,Training at home,,,,,,,,,,,,,
17,8,1720,A,48.35698729594779,59.67905221867601,2.4178493647973895,0.937436360116971,B,1022.8850670100657,Incorrect,sub_017_day_06_data.csv,0,300,68.0,Training at home,,,,,,,,,,,,,
17,8,1721,A,31.25642875212171,44.74486251100168,1.5628214376060856,0.7028506567522411,A,564.9651980202179,Correct,sub_017_day_06_data.csv,1,300,68.0,Training at home,,,,,,,,,,,,,
17,8,1722,B,60.74935737300446,44.61281033141136,3.037467868650223,0.7007763859657837,B,585.5028970108833,Correct,sub_017_day_06_data.csv,1,300,68.0,Training at home,,,,,,,,,,,,,
17,8,1723,A,59.74378068771347,68.541005787019,2.9871890343856733,1.076639601250772,B,1109.8169659962878,Incorrect,sub_017_day_06_data.csv,0,300,68.0,Training at home,,,,,,,,,,,,,
17,8,1724,A,24.45270222961232,36.15758814891987,1.2226351114806162,0.5679620665008601,A,3138.344721024623,Correct,sub_017_day_06_data.csv,1,300,68.0,Training at home,,,,,,,,,,,,,
17,8,1725,B,42.42928693255841,23.874897547410765,2.1214643466279206,0.3750260137007731,B,963.9804299804382,Correct,sub_017_day_06_data.csv,1,300,69.0,Training at home,,,,,,,,,,,,,
17,8,1726,B,67.19473580267402,36.62058808608776,3.359736790133701,0.5752348525069559,B,1054.8573209962342,Correct,sub_017_day_06_data.csv,1,300,69.0,Training at home,,,,,,,,,,,,,
17,8,1727,A,39.50149875558874,62.99053863338321,1.975074937779437,0.9894530670815036,A,810.6271289871074,Correct,sub_017_day_06_data.csv,1,300,69.0,Training at home,,,,,,,,,,,,,
17,8,1728,B,65.82560275090667,34.108827833353324,3.2912801375453338,0.5357802147191093,B,576.443586993264,Correct,sub_017_day_06_data.csv,1,300,69.0,Training at home,,,,,,,,,,,,,
17,8,1729,B,74.63489322054328,64.07774165670662,3.731744661027164,1.006530812236671,A,568.4948940179311,Incorrect,sub_017_day_06_data.csv,0,300,69.0,Training at home,,,,,,,,,,,,,
17,8,1730,A,30.749185570703105,39.64724765976891,1.5374592785351553,0.6227775099149256,A,555.0321889750194,Correct,sub_017_day_06_data.csv,1,300,69.0,Training at home,,,,,,,,,,,,,
17,8,1731,B,68.94711467871034,49.33408307558913,3.447355733935517,0.7749379648092968,B,475.72711898828857,Correct,sub_017_day_06_data.csv,1,300,69.0,Training at home,,,,,,,,,,,,,
17,8,1732,B,57.80233607790435,31.465141200755017,2.8901168038952174,0.4942532822022874,B,1580.9930569957942,Correct,sub_017_day_06_data.csv,1,300,69.0,Training at home,,,,,,,,,,,,,
17,8,1733,B,51.90711613036059,26.936690767167963,2.5953558065180293,0.4231205491307744,B,774.8578150058165,Correct,sub_017_day_06_data.csv,1,300,69.0,Training at home,,,,,,,,,,,,,
17,8,1734,A,44.51943849288678,76.78241176114858,2.225971924644339,1.2060953035686546,A,503.1354090024251,Correct,sub_017_day_06_data.csv,1,300,69.0,Training at home,,,,,,,,,,,,,
17,8,1735,B,71.23264027065377,38.22539777153221,3.5616320135326887,0.6004431440979663,B,427.06251100753434,Correct,sub_017_day_06_data.csv,1,300,69.0,Training at home,,,,,,,,,,,,,
17,8,1736,B,66.08613121415247,41.07314316073335,3.304306560707624,0.6451754240680088,B,533.883355994476,Correct,sub_017_day_06_data.csv,1,300,69.0,Training at home,,,,,,,,,,,,,
17,8,1737,B,56.31609787188067,27.0206288263975,2.815804893594034,0.4244390450819348,B,661.3373569853138,Correct,sub_017_day_06_data.csv,1,300,69.0,Training at home,,,,,,,,,,,,,
17,8,1738,A,46.09326350049496,67.37338656370203,2.304663175024748,1.0582986813799578,A,662.8064670076128,Correct,sub_017_day_06_data.csv,1,300,69.0,Training at home,,,,,,,,,,,,,
17,8,1739,A,26.932014438134487,40.75351983755775,1.3466007219067244,0.6401547926479865,B,478.6549370037392,Incorrect,sub_017_day_06_data.csv,0,300,69.0,Training at home,,,,,,,,,,,,,
17,8,1740,A,35.44795056314739,57.68365185800986,1.7723975281573694,0.906092684546775,A,890.4748630011454,Correct,sub_017_day_06_data.csv,1,300,69.0,Training at home,,,,,,,,,,,,,
17,8,1741,B,73.65121369667277,46.80698647158791,3.6825606848336383,0.7352424241790871,B,2302.9612190148327,Correct,sub_017_day_06_data.csv,1,300,69.0,Training at home,,,,,,,,,,,,,
17,8,1742,A,34.27779541769133,62.98249982577278,1.7138897708845664,0.989326793786841,A,696.7078050074633,Correct,sub_017_day_06_data.csv,1,300,69.0,Training at home,,,,,,,,,,,,,
17,8,1743,A,61.06161648397246,77.92503956677459,3.0530808241986227,1.2240436591683652,A,898.4963739931118,Correct,sub_017_day_06_data.csv,1,300,69.0,Training at home,,,,,,,,,,,,,
17,8,1744,A,27.437722198806583,48.21208137775135,1.371886109940329,0.7573136033530845,A,741.4523090119474,Correct,sub_017_day_06_data.csv,1,300,69.0,Training at home,,,,,,,,,,,,,
17,8,1745,A,39.533499866171915,71.35190512255329,1.976674993308596,1.120793104763247,A,753.5508619912434,Correct,sub_017_day_06_data.csv,1,300,69.0,Training at home,,,,,,,,,,,,,
17,8,1746,A,37.30988265126464,49.46309468918278,1.865494132563232,0.7769644744967646,B,1074.9385330127552,Incorrect,sub_017_day_06_data.csv,0,300,69.0,Training at home,,,,,,,,,,,,,
17,8,1747,B,39.48701197307725,29.275017592125785,1.9743505986538623,0.4598509010056715,B,872.7072970068548,Correct,sub_017_day_06_data.csv,1,300,69.0,Training at home,,,,,,,,,,,,,
17,8,1748,B,57.59496622837407,30.478930221432783,2.8797483114187035,0.4787619163646457,B,550.8956990088336,Correct,sub_017_day_06_data.csv,1,300,69.0,Training at home,,,,,,,,,,,,,
17,8,1749,B,50.40624716667992,41.71828184127141,2.520312358333996,0.6553092387646337,B,607.9996850166935,Correct,sub_017_day_06_data.csv,1,300,69.0,Training at home,,,,,,,,,,,,,
17,8,1750,B,51.7328466331057,32.01015315162174,2.5866423316552853,0.5028143099070951,B,662.4040429887827,Correct,sub_017_day_06_data.csv,1,300,70.0,Training at home,,,,,,,,,,,,,
17,8,1751,B,32.6584416963276,12.39910895474988,1.63292208481638,0.1947647480165082,B,794.4309989979956,Correct,sub_017_day_06_data.csv,1,300,70.0,Training at home,,,,,,,,,,,,,
17,8,1752,B,68.37101195373485,53.18032224167996,3.4185505976867425,0.8353545483499982,B,1048.6731660203077,Correct,sub_017_day_06_data.csv,1,300,70.0,Training at home,,,,,,,,,,,,,
17,8,1753,A,43.87760442382723,60.96563983950222,2.1938802211913617,0.9576460312059067,B,766.0024469951168,Incorrect,sub_017_day_06_data.csv,0,300,70.0,Training at home,,,,,,,,,,,,,
17,8,1754,A,35.76440545621976,64.50709548986781,1.7882202728109882,1.01327508647692,A,634.0791590046138,Correct,sub_017_day_06_data.csv,1,300,70.0,Training at home,,,,,,,,,,,,,
17,8,1755,A,56.17285252863549,64.97280409782911,2.8086426264317743,1.0205904201843436,A,621.3899449794553,Correct,sub_017_day_06_data.csv,1,300,70.0,Training at home,,,,,,,,,,,,,
17,8,1756,B,82.69877040988311,55.004207399231184,4.134938520494155,0.86400406940977,B,675.0112550216727,Correct,sub_017_day_06_data.csv,1,300,70.0,Training at home,,,,,,,,,,,,,
17,8,1757,A,42.47591063597152,67.34603184932725,2.123795531798576,1.0578689945313535,A,490.4805019905325,Correct,sub_017_day_06_data.csv,1,300,70.0,Training at home,,,,,,,,,,,,,
17,8,1758,A,46.74984727020774,64.91389868640154,2.337492363510387,1.019665136145356,A,415.56653499719687,Correct,sub_017_day_06_data.csv,1,300,70.0,Training at home,,,,,,,,,,,,,
17,8,1759,B,51.465689480816295,28.08758529715397,2.5732844740408147,0.441198758133078,B,465.6788939901162,Correct,sub_017_day_06_data.csv,1,300,70.0,Training at home,,,,,,,,,,,,,
17,8,1760,A,61.07886480215668,70.23934339912876,3.053943240107834,1.103317026078368,B,415.4747219872661,Incorrect,sub_017_day_06_data.csv,0,300,70.0,Training at home,,,,,,,,,,,,,
17,8,1761,A,63.08352352537299,80.60820297109689,3.1541761762686495,1.2661906913653649,A,497.74572800379246,Correct,sub_017_day_06_data.csv,1,300,70.0,Training at home,,,,,,,,,,,,,
17,8,1762,A,18.39208403226679,36.122625864204515,0.9196042016133396,0.5674128802167878,A,569.9246620060876,Correct,sub_017_day_06_data.csv,1,300,70.0,Training at home,,,,,,,,,,,,,
17,8,1763,A,14.144011383020208,41.10756654405491,0.7072005691510103,0.6457161453087823,A,574.7409040050115,Correct,sub_017_day_06_data.csv,1,300,70.0,Training at home,,,,,,,,,,,,,
17,8,1764,A,33.50677727211315,55.46604613428611,1.6753388636056572,0.8712586152957289,A,499.64660897967406,Correct,sub_017_day_06_data.csv,1,300,70.0,Training at home,,,,,,,,,,,,,
17,8,1765,A,41.18910581779297,65.59686735878591,2.0594552908896486,1.0303931829643298,A,364.49672700837255,Correct,sub_017_day_06_data.csv,1,300,70.0,Training at home,,,,,,,,,,,,,
17,8,1766,B,72.72875547168259,49.61982653814571,3.636437773584129,0.7794264126231921,B,407.2676160139963,Correct,sub_017_day_06_data.csv,1,300,70.0,Training at home,,,,,,,,,,,,,
17,8,1767,A,34.81619329598229,50.984117568995515,1.7408096647991145,0.800856646022573,A,471.58115400816314,Correct,sub_017_day_06_data.csv,1,300,70.0,Training at home,,,,,,,,,,,,,
17,8,1768,B,38.74798438907625,23.464020115066734,1.9373992194538123,0.3685719660858839,B,833.9453620137647,Correct,sub_017_day_06_data.csv,1,300,70.0,Training at home,,,,,,,,,,,,,
17,8,1769,A,42.14187720135619,66.22344094859628,2.1070938600678093,1.040235377897738,A,523.5567519848701,Correct,sub_017_day_06_data.csv,1,300,70.0,Training at home,,,,,,,,,,,,,
17,8,1770,B,72.97920554495083,56.49080123221714,3.6489602772475416,0.887355430732673,B,508.72822297969833,Correct,sub_017_day_06_data.csv,1,300,70.0,Training at home,,,,,,,,,,,,,
17,8,1771,A,51.32491681572345,74.63844262294181,2.566245840786173,1.1724179150980865,A,643.9768199925311,Correct,sub_017_day_06_data.csv,1,300,70.0,Training at home,,,,,,,,,,,,,
17,8,1772,B,66.07871390562082,44.287509772418346,3.303935695281041,0.6956665767340783,B,574.843084992608,Correct,sub_017_day_06_data.csv,1,300,70.0,Training at home,,,,,,,,,,,,,
17,8,1773,A,43.89657732274854,69.65611615566453,2.1948288661374273,1.094155713961165,A,577.3301330045797,Correct,sub_017_day_06_data.csv,1,300,70.0,Training at home,,,,,,,,,,,,,
17,8,1774,A,58.78964452361061,82.95315381515904,2.9394822261805307,1.3030250930890388,A,543.1719280022662,Correct,sub_017_day_06_data.csv,1,300,70.0,Training at home,,,,,,,,,,,,,
17,8,1775,B,52.971469267706695,38.57390919065161,2.648573463385335,0.6059175486679546,A,512.5410530017689,Incorrect,sub_017_day_06_data.csv,0,300,71.0,Training at home,,,,,,,,,,,,,
17,8,1776,A,61.9646276920236,87.1141402553377,3.09823138460118,1.368385715249799,A,443.47814901266247,Correct,sub_017_day_06_data.csv,1,300,71.0,Training at home,,,,,,,,,,,,,
17,8,1777,A,32.25214002992121,58.693655406499715,1.6126070014960605,0.9219577831869518,A,722.6835309993476,Correct,sub_017_day_06_data.csv,1,300,71.0,Training at home,,,,,,,,,,,,,
17,8,1778,A,35.31114021631503,57.36126078644971,1.7655570108157517,0.9010285774367932,A,1371.3268100109417,Correct,sub_017_day_06_data.csv,1,300,71.0,Training at home,,,,,,,,,,,,,
17,8,1779,B,57.55193619905495,45.38233394576768,2.877596809952747,0.7128640346339122,A,193.79259800189175,Incorrect,sub_017_day_06_data.csv,0,300,71.0,Training at home,,,,,,,,,,,,,
17,8,1780,B,60.78647820695553,44.673032171285925,3.0393239103477767,0.7017223484144618,B,474.2360470118001,Correct,sub_017_day_06_data.csv,1,300,71.0,Training at home,,,,,,,,,,,,,
17,8,1781,A,53.517045622619975,83.59685719333851,2.675852281130999,1.3131363621089365,A,698.2424589805305,Correct,sub_017_day_06_data.csv,1,300,71.0,Training at home,,,,,,,,,,,,,
17,8,1782,B,61.77882757772938,40.69760372259674,3.088941378886469,0.6392764643680927,B,1409.252996003488,Correct,sub_017_day_06_data.csv,1,300,71.0,Training at home,,,,,,,,,,,,,
17,8,1783,B,77.70367402341094,52.40129299242375,3.885183701170547,0.8231175855180237,B,1129.3837839912158,Correct,sub_017_day_06_data.csv,1,300,71.0,Training at home,,,,,,,,,,,,,
17,8,1784,B,76.25167558728903,47.89969894689308,3.8125837793644513,0.7524067116036103,B,497.61778200627305,Correct,sub_017_day_06_data.csv,1,300,71.0,Training at home,,,,,,,,,,,,,
17,8,1785,A,34.043502471638085,64.96967816474015,1.7021751235819045,1.020541318142204,A,773.7597649975214,Correct,sub_017_day_06_data.csv,1,300,71.0,Training at home,,,,,,,,,,,,,
17,8,1786,B,83.87424260185608,59.67478701576842,4.193712130092804,0.9373693624663684,B,558.4726730012335,Correct,sub_017_day_06_data.csv,1,300,71.0,Training at home,,,,,,,,,,,,,
17,8,1787,A,60.26486722869013,78.48982759541416,3.0132433614345064,1.2329153287764127,A,851.8887549871579,Correct,sub_017_day_06_data.csv,1,300,71.0,Training at home,,,,,,,,,,,,,
17,8,1788,B,38.56372301587285,19.814361100022253,1.9281861507936424,0.3112432563370264,B,379.98011099989526,Correct,sub_017_day_06_data.csv,1,300,71.0,Training at home,,,,,,,,,,,,,
17,8,1789,B,49.352788349504735,39.62610351879313,2.4676394174752367,0.6224453785251457,B,452.5804950098973,Correct,sub_017_day_06_data.csv,1,300,71.0,Training at home,,,,,,,,,,,,,
17,8,1790,A,27.253511081559047,50.124596731081,1.3626755540779525,0.7873553242725749,A,392.071834008675,Correct,sub_017_day_06_data.csv,1,300,71.0,Training at home,,,,,,,,,,,,,
17,8,1791,A,37.74425856311552,57.17355204733155,1.887212928155776,0.8980800554576523,A,592.7916880173143,Correct,sub_017_day_06_data.csv,1,300,71.0,Training at home,,,,,,,,,,,,,
17,8,1792,B,59.28922278880051,34.945688525426995,2.9644611394400253,0.548925591730593,B,423.1175729946699,Correct,sub_017_day_06_data.csv,1,300,71.0,Training at home,,,,,,,,,,,,,
17,8,1793,B,52.000590338013325,30.462862774743307,2.6000295169006664,0.4785095295022377,B,503.1344180169981,Correct,sub_017_day_06_data.csv,1,300,71.0,Training at home,,,,,,,,,,,,,
17,8,1794,B,31.146401727471932,15.807337966990808,1.5573200863735963,0.2483010841495466,A,1652.40311800153,Incorrect,sub_017_day_06_data.csv,0,300,71.0,Training at home,,,,,,,,,,,,,
17,8,1795,B,79.45443145811205,55.66062309793928,3.9727215729056025,0.8743150230935819,B,849.2735759937204,Correct,sub_017_day_06_data.csv,1,300,71.0,Training at home,,,,,,,,,,,,,
17,8,1796,B,63.1137860605886,38.00746029933568,3.1556893030294297,0.5970197902899935,B,1930.669499997748,Correct,sub_017_day_06_data.csv,1,300,71.0,Training at home,,,,,,,,,,,,,
17,8,1797,A,31.869495996752946,48.01157057694718,1.5934747998376475,0.7541639870592257,A,1848.744542017812,Correct,sub_017_day_06_data.csv,1,300,71.0,Training at home,,,,,,,,,,,,,
17,8,1798,A,27.211127879787377,41.622371868410326,1.3605563939893688,0.6538026884339018,A,678.1903560040519,Correct,sub_017_day_06_data.csv,1,300,71.0,Training at home,,,,,,,,,,,,,
17,8,1799,A,19.114773439495256,49.39315529862227,0.9557386719747628,0.7758658691188575,A,621.180918009486,Correct,sub_017_day_06_data.csv,1,300,71.0,Training at home,,,,,,,,,,,,,
