subject,day,trial,cat,x,y,xt,yt,resp,rt,fb,f_name,acc,n_trials,block,session_type,ns_left_digit,ns_right_digit,ns_left_size,ns_right_size,ns_congruent,ns_cue,ns_correct_side,ns_resp,ns_rt,ns_fb,acc_stroop,acc_stroop_mean,resp_key
17,18,3900,A,62.408603841953976,79.6291617543219,3.120430192097699,1.250811947894455,B,722.5893260037992,Incorrect,sub_017_day_14_data.csv,0,300,156.0,Training at home,,,,,,,,,,,,,
17,18,3901,A,49.887373551731955,59.403240421582346,2.494368677586598,0.9331039185393568,B,668.2717020012205,Incorrect,sub_017_day_14_data.csv,0,300,156.0,Training at home,,,,,,,,,,,,,
17,18,3902,B,83.07941427159346,55.579806867119935,4.153970713579673,0.8730455647084177,B,605.1597689947812,Correct,sub_017_day_14_data.csv,1,300,156.0,Training at home,,,,,,,,,,,,,
17,18,3903,B,68.99629275302323,39.492368459559415,3.449814637651161,0.6203446731270655,A,1373.3057609933894,Incorrect,sub_017_day_14_data.csv,0,300,156.0,Training at home,,,,,,,,,,,,,
17,18,3904,B,47.812675319653955,17.609147986814197,2.3906337659826975,0.2766038497567548,B,656.2442709982861,Correct,sub_017_day_14_data.csv,1,300,156.0,Training at home,,,,,,,,,,,,,
17,18,3905,B,63.5603093889974,54.67700930046381,3.1780154694498703,0.8588644536929896,A,850.5926060024649,Incorrect,sub_017_day_14_data.csv,0,300,156.0,Training at home,,,,,,,,,,,,,
17,18,3906,A,44.84835666799164,55.253403602962806,2.242417833399582,0.8679184342244988,A,707.5511279981583,Correct,sub_017_day_14_data.csv,1,300,156.0,Training at home,,,,,,,,,,,,,
17,18,3907,A,31.258751661446155,58.827767606333865,1.5629375830723078,0.9240644126957304,A,488.5792099958053,Correct,sub_017_day_14_data.csv,1,300,156.0,Training at home,,,,,,,,,,,,,
17,18,3908,B,61.68011324240979,41.975223692753026,3.0840056621204894,0.6593452719297056,B,587.4481439968804,Correct,sub_017_day_14_data.csv,1,300,156.0,Training at home,,,,,,,,,,,,,
17,18,3909,A,45.84886618616249,54.323274139240475,2.2924433093081245,0.8533079947739113,A,1005.0617170054466,Correct,sub_017_day_14_data.csv,1,300,156.0,Training at home,,,,,,,,,,,,,
17,18,3910,B,65.30843847803128,56.04867435461857,3.265421923901564,0.8804105179795817,B,905.2597880072426,Correct,sub_017_day_14_data.csv,1,300,156.0,Training at home,,,,,,,,,,,,,
17,18,3911,B,85.39800745829356,68.54582287338481,4.2699003729146785,1.0767152678664649,B,478.3881899929838,Correct,sub_017_day_14_data.csv,1,300,156.0,Training at home,,,,,,,,,,,,,
17,18,3912,B,35.22920007558778,22.53265951090467,1.7614600037793888,0.3539421879264914,A,1067.2807869996177,Incorrect,sub_017_day_14_data.csv,0,300,156.0,Training at home,,,,,,,,,,,,,
17,18,3913,B,77.0564272063519,55.145579265307504,3.852821360317595,0.8662247334892185,B,592.4899899982847,Correct,sub_017_day_14_data.csv,1,300,156.0,Training at home,,,,,,,,,,,,,
17,18,3914,A,64.19526796307002,80.23200005975164,3.209763398153501,1.260281309852658,A,703.8397180003813,Correct,sub_017_day_14_data.csv,1,300,156.0,Training at home,,,,,,,,,,,,,
17,18,3915,A,59.57626128901633,81.17464096504165,2.9788130644508164,1.2750882785678197,A,2012.1561749983812,Correct,sub_017_day_14_data.csv,1,300,156.0,Training at home,,,,,,,,,,,,,
17,18,3916,B,31.845823659837514,18.397727599983615,1.5922911829918758,0.2889908293542735,B,621.7357970017474,Correct,sub_017_day_14_data.csv,1,300,156.0,Training at home,,,,,,,,,,,,,
17,18,3917,B,53.611942223540616,39.312063850213285,2.680597111177031,0.6175124549464147,B,889.8213899956318,Correct,sub_017_day_14_data.csv,1,300,156.0,Training at home,,,,,,,,,,,,,
17,18,3918,A,23.12928702332036,50.212903927947295,1.156464351166018,0.7887424504772463,A,502.9806949896738,Correct,sub_017_day_14_data.csv,1,300,156.0,Training at home,,,,,,,,,,,,,
17,18,3919,A,27.40304706451512,57.73841126695318,1.3701523532257562,0.9069528433310312,B,617.3542330070632,Incorrect,sub_017_day_14_data.csv,0,300,156.0,Training at home,,,,,,,,,,,,,
17,18,3920,A,34.77873714326432,59.79753865900445,1.7389368571632162,0.9392975407694002,A,523.3214440086158,Correct,sub_017_day_14_data.csv,1,300,156.0,Training at home,,,,,,,,,,,,,
17,18,3921,B,77.2328491683142,49.99397678809859,3.86164245841571,0.785303551006146,B,504.6934800047893,Correct,sub_017_day_14_data.csv,1,300,156.0,Training at home,,,,,,,,,,,,,
17,18,3922,B,37.222973495499744,11.420485997184052,1.861148674774987,0.1793925745458926,A,594.2307130026165,Incorrect,sub_017_day_14_data.csv,0,300,156.0,Training at home,,,,,,,,,,,,,
17,18,3923,B,46.06452022969339,22.887644385320893,2.3032260114846697,0.3595182772944989,B,565.3232719923835,Correct,sub_017_day_14_data.csv,1,300,156.0,Training at home,,,,,,,,,,,,,
17,18,3924,A,24.782154555313458,39.76517171459827,1.2391077277656728,0.6246298566365928,A,909.0504990017508,Correct,sub_017_day_14_data.csv,1,300,156.0,Training at home,,,,,,,,,,,,,
17,18,3925,A,37.39303672669773,55.26662276091457,1.8696518363348864,0.8681260802720383,A,921.9587489933474,Correct,sub_017_day_14_data.csv,1,300,157.0,Training at home,,,,,,,,,,,,,
17,18,3926,A,66.62639045871808,83.00306871072499,3.331319522935904,1.3038091544351122,A,939.2959219985642,Correct,sub_017_day_14_data.csv,1,300,157.0,Training at home,,,,,,,,,,,,,
17,18,3927,A,56.00571230889079,72.02720351477565,2.8002856154445395,1.1314006671031804,A,566.2013849942014,Correct,sub_017_day_14_data.csv,1,300,157.0,Training at home,,,,,,,,,,,,,
17,18,3928,A,58.42006880053509,71.89394679149183,2.9210034400267544,1.129307475388631,A,433.39831799676176,Correct,sub_017_day_14_data.csv,1,300,157.0,Training at home,,,,,,,,,,,,,
17,18,3929,A,37.75963827600485,62.0960924392172,1.8879819138002427,0.9754031391183872,A,809.843681010534,Correct,sub_017_day_14_data.csv,1,300,157.0,Training at home,,,,,,,,,,,,,
17,18,3930,A,16.73062363248388,45.77243641050597,0.836531181624194,0.7189917498207574,A,1218.604996000067,Correct,sub_017_day_14_data.csv,1,300,157.0,Training at home,,,,,,,,,,,,,
17,18,3931,B,47.800333625953755,25.13658750028312,2.3900166812976877,0.3948445931360324,B,733.5601079976186,Correct,sub_017_day_14_data.csv,1,300,157.0,Training at home,,,,,,,,,,,,,
17,18,3932,B,63.71130624606257,39.381837398149784,3.185565312303128,0.6186084552744756,B,639.312285988126,Correct,sub_017_day_14_data.csv,1,300,157.0,Training at home,,,,,,,,,,,,,
17,18,3933,A,26.799196304406134,44.21063028546689,1.339959815220307,0.694458956576986,A,513.7314969906583,Correct,sub_017_day_14_data.csv,1,300,157.0,Training at home,,,,,,,,,,,,,
17,18,3934,B,64.75235104043401,40.48991977859831,3.2376175520217005,0.6360141726044225,B,555.0739249883918,Correct,sub_017_day_14_data.csv,1,300,157.0,Training at home,,,,,,,,,,,,,
17,18,3935,A,50.37462057958087,79.52077811726672,2.518731028979043,1.2491094617047456,A,1125.971337009105,Correct,sub_017_day_14_data.csv,1,300,157.0,Training at home,,,,,,,,,,,,,
17,18,3936,B,51.80087602008612,30.563753858072864,2.5900438010043056,0.480094322933242,B,1055.748148006387,Correct,sub_017_day_14_data.csv,1,300,157.0,Training at home,,,,,,,,,,,,,
17,18,3937,B,44.78516053314948,33.27499373505651,2.239258026657474,0.5226823793314996,B,660.3424890054157,Correct,sub_017_day_14_data.csv,1,300,157.0,Training at home,,,,,,,,,,,,,
17,18,3938,A,12.700870916309531,31.048051311887473,0.6350435458154766,0.4877016495485231,A,804.20623999089,Correct,sub_017_day_14_data.csv,1,300,157.0,Training at home,,,,,,,,,,,,,
17,18,3939,B,76.63480530626623,56.39969865981997,3.831740265313312,0.8859243948718428,B,562.6604839926586,Correct,sub_017_day_14_data.csv,1,300,157.0,Training at home,,,,,,,,,,,,,
17,18,3940,A,27.870887631121224,55.742895850397275,1.393544381556061,0.8756073604671452,A,1338.9082869980484,Correct,sub_017_day_14_data.csv,1,300,157.0,Training at home,,,,,,,,,,,,,
17,18,3941,A,59.2641408541878,85.55647662240943,2.9632070427093904,1.3439179921199418,A,1534.3441919976613,Correct,sub_017_day_14_data.csv,1,300,157.0,Training at home,,,,,,,,,,,,,
17,18,3942,B,34.05412090203757,13.436187435369188,1.7027060451018785,0.2110551386960565,B,882.6401550031733,Correct,sub_017_day_14_data.csv,1,300,157.0,Training at home,,,,,,,,,,,,,
17,18,3943,A,58.66848952714034,71.94755364104331,2.9334244763570165,1.1301495298122963,A,701.1903109960258,Correct,sub_017_day_14_data.csv,1,300,157.0,Training at home,,,,,,,,,,,,,
17,18,3944,A,33.083329868171994,64.97317104150059,1.6541664934085998,1.0205961841220563,A,829.1275440133177,Correct,sub_017_day_14_data.csv,1,300,157.0,Training at home,,,,,,,,,,,,,
17,18,3945,A,48.154951764904254,59.49109979198086,2.4077475882452126,0.9344840103023216,A,1595.382329003769,Correct,sub_017_day_14_data.csv,1,300,157.0,Training at home,,,,,,,,,,,,,
17,18,3946,B,57.98817038790723,35.411074250470634,2.8994085193953616,0.5562358536050062,B,1873.267657996621,Correct,sub_017_day_14_data.csv,1,300,157.0,Training at home,,,,,,,,,,,,,
17,18,3947,A,41.53055738955094,64.66246048901695,2.0765278694775473,1.0157155541766796,A,653.8860029977513,Correct,sub_017_day_14_data.csv,1,300,157.0,Training at home,,,,,,,,,,,,,
17,18,3948,B,70.01298167585178,50.33414529242842,3.500649083792589,0.7906469053770719,B,575.7868080108892,Correct,sub_017_day_14_data.csv,1,300,157.0,Training at home,,,,,,,,,,,,,
17,18,3949,B,70.363071310266,61.10724408023557,3.5181535655132996,0.959870345417932,B,661.1743990069954,Correct,sub_017_day_14_data.csv,1,300,157.0,Training at home,,,,,,,,,,,,,
17,18,3950,B,62.497313594171445,36.915817924131886,3.124865679708572,0.5798723119585557,B,3355.942382986541,Correct,sub_017_day_14_data.csv,1,300,158.0,Training at home,,,,,,,,,,,,,
17,18,3951,B,59.865699992720714,51.00941055104149,2.993284999636036,0.801253947255488,A,891.5780459938105,Incorrect,sub_017_day_14_data.csv,0,300,158.0,Training at home,,,,,,,,,,,,,
17,18,3952,A,53.496673583804665,67.27841056263574,2.674833679190233,1.056806801843872,A,1397.0916340040276,Correct,sub_017_day_14_data.csv,1,300,158.0,Training at home,,,,,,,,,,,,,
17,18,3953,A,64.71343347430212,77.76184364881225,3.235671673715106,1.2214801836835332,A,1309.318223997252,Correct,sub_017_day_14_data.csv,1,300,158.0,Training at home,,,,,,,,,,,,,
17,18,3954,B,48.3620255116888,22.37352567873924,2.41810127558444,0.3514425195361489,B,793.1171350064687,Correct,sub_017_day_14_data.csv,1,300,158.0,Training at home,,,,,,,,,,,,,
17,18,3955,A,57.121117373366914,77.25671425169114,2.8560558686683457,1.2135456296679938,A,1583.590604001074,Correct,sub_017_day_14_data.csv,1,300,158.0,Training at home,,,,,,,,,,,,,
17,18,3956,A,35.29175595581564,57.63526545476377,1.7645877977907818,0.9053326327019172,A,598.0250779975904,Correct,sub_017_day_14_data.csv,1,300,158.0,Training at home,,,,,,,,,,,,,
17,18,3957,B,43.14946187954726,29.538585721643543,2.157473093977363,0.4639910195027385,B,1427.2865130042192,Correct,sub_017_day_14_data.csv,1,300,158.0,Training at home,,,,,,,,,,,,,
17,18,3958,A,29.134859062812012,42.77657911066317,1.4567429531406006,0.67193293339881,A,1068.908225002815,Correct,sub_017_day_14_data.csv,1,300,158.0,Training at home,,,,,,,,,,,,,
17,18,3959,A,60.75334229578009,72.35568983780985,3.0376671147890044,1.1365605181994254,A,480.8536450000247,Correct,sub_017_day_14_data.csv,1,300,158.0,Training at home,,,,,,,,,,,,,
17,18,3960,B,69.49350986615092,59.81283749161125,3.474675493307546,0.9395378542700304,A,1064.4817229913317,Incorrect,sub_017_day_14_data.csv,0,300,158.0,Training at home,,,,,,,,,,,,,
17,18,3961,B,65.36463419819206,53.021828884089125,3.268231709909603,0.8328649405107474,B,1450.44026299729,Correct,sub_017_day_14_data.csv,1,300,158.0,Training at home,,,,,,,,,,,,,
17,18,3962,A,48.85326046890585,60.210083506341896,2.442663023445293,0.9457777800777584,A,1950.724647991592,Correct,sub_017_day_14_data.csv,1,300,158.0,Training at home,,,,,,,,,,,,,
17,18,3963,B,58.68476817717347,49.13382859966433,2.9342384088586733,0.7717923748572276,B,1146.6142429999309,Correct,sub_017_day_14_data.csv,1,300,158.0,Training at home,,,,,,,,,,,,,
17,18,3964,A,42.132277979801074,64.07263344808037,2.106613898990054,1.0064505726832047,A,2072.6244149991544,Correct,sub_017_day_14_data.csv,1,300,158.0,Training at home,,,,,,,,,,,,,
17,18,3965,A,63.768087992164816,79.96800071157246,3.188404399608241,1.2561344177886968,A,2044.6780610072892,Correct,sub_017_day_14_data.csv,1,300,158.0,Training at home,,,,,,,,,,,,,
17,18,3966,A,31.15956180887597,52.3883908595121,1.5579780904437983,0.8229149192881694,A,882.894057998783,Correct,sub_017_day_14_data.csv,1,300,158.0,Training at home,,,,,,,,,,,,,
17,18,3967,B,50.468296935595895,27.979388271816177,2.523414846779795,0.4394992032333706,B,983.836367013282,Correct,sub_017_day_14_data.csv,1,300,158.0,Training at home,,,,,,,,,,,,,
17,18,3968,B,36.39859073164613,16.00254789074626,1.8199295365823065,0.2513674344614364,B,1460.5576210014988,Correct,sub_017_day_14_data.csv,1,300,158.0,Training at home,,,,,,,,,,,,,
17,18,3969,B,68.99798880966281,41.12846806580017,3.449899440483141,0.6460444656446012,B,1278.3218690019569,Correct,sub_017_day_14_data.csv,1,300,158.0,Training at home,,,,,,,,,,,,,
17,18,3970,B,54.06332886274056,29.61046767380995,2.703166443137028,0.4651201385669969,B,1780.9759860101622,Correct,sub_017_day_14_data.csv,1,300,158.0,Training at home,,,,,,,,,,,,,
17,18,3971,B,77.49540894221259,51.28885442939949,3.874770447110629,0.8056434414321889,A,972.6706640067276,Incorrect,sub_017_day_14_data.csv,0,300,158.0,Training at home,,,,,,,,,,,,,
17,18,3972,B,70.07285453440285,42.29038491295567,3.5036427267201424,0.6642958128001308,B,823.7523629941279,Correct,sub_017_day_14_data.csv,1,300,158.0,Training at home,,,,,,,,,,,,,
17,18,3973,B,56.424755337038576,37.50239475234274,2.8212377668519286,0.5890862392299218,B,1524.790788986138,Correct,sub_017_day_14_data.csv,1,300,158.0,Training at home,,,,,,,,,,,,,
17,18,3974,B,46.62976600498749,16.26132378664319,2.3314883002493745,0.255432276728816,B,674.5407239941414,Correct,sub_017_day_14_data.csv,1,300,158.0,Training at home,,,,,,,,,,,,,
17,18,3975,A,42.59369059353229,57.184818915941115,2.1296845296766147,0.8982570350159164,A,1889.3662499904167,Correct,sub_017_day_14_data.csv,1,300,159.0,Training at home,,,,,,,,,,,,,
17,18,3976,A,27.888633228848946,40.29034895908647,1.3944316614424477,0.6328793215021761,A,1358.578214989393,Correct,sub_017_day_14_data.csv,1,300,159.0,Training at home,,,,,,,,,,,,,
17,18,3977,A,27.318975421587226,52.105819017864725,1.3659487710793612,0.8184762911790158,A,794.8569580039475,Correct,sub_017_day_14_data.csv,1,300,159.0,Training at home,,,,,,,,,,,,,
17,18,3978,B,56.14058222318591,25.64233936844865,2.8070291111592955,0.4027889249038731,B,580.7840320048854,Correct,sub_017_day_14_data.csv,1,300,159.0,Training at home,,,,,,,,,,,,,
17,18,3979,B,39.76244324298512,23.049179312965645,1.988122162149256,0.3620556620044335,A,737.044916008017,Incorrect,sub_017_day_14_data.csv,0,300,159.0,Training at home,,,,,,,,,,,,,
17,18,3980,A,36.81241285941396,46.40057435734691,1.8406206429706984,0.72885851761694,A,876.5022529987618,Correct,sub_017_day_14_data.csv,1,300,159.0,Training at home,,,,,,,,,,,,,
17,18,3981,B,69.07404860710629,43.5765801594592,3.4537024303553148,0.6844993204876187,B,1126.6834379930517,Correct,sub_017_day_14_data.csv,1,300,159.0,Training at home,,,,,,,,,,,,,
17,18,3982,B,52.40638187098395,43.78459878729987,2.6203190935491976,0.6877668694527893,B,809.0826709958492,Correct,sub_017_day_14_data.csv,1,300,159.0,Training at home,,,,,,,,,,,,,
17,18,3983,A,43.79928946404777,72.00769468318475,2.1899644732023886,1.1310942230931502,A,1582.473233997007,Correct,sub_017_day_14_data.csv,1,300,159.0,Training at home,,,,,,,,,,,,,
17,18,3984,B,54.26823990145928,34.020692829248574,2.7134119950729643,0.5343957933120114,B,1751.4917709922884,Correct,sub_017_day_14_data.csv,1,300,159.0,Training at home,,,,,,,,,,,,,
17,18,3985,B,62.23670144008394,41.75941075563649,3.111835072004197,0.655955290240731,B,518.4482710028533,Correct,sub_017_day_14_data.csv,1,300,159.0,Training at home,,,,,,,,,,,,,
17,18,3986,A,26.502587178733876,38.43832991614667,1.3251293589366937,0.6037878744041357,A,488.08005900355056,Correct,sub_017_day_14_data.csv,1,300,159.0,Training at home,,,,,,,,,,,,,
17,18,3987,B,37.93634976993819,27.995683402537463,1.8968174884969096,0.4397551665481869,B,833.2863440009532,Correct,sub_017_day_14_data.csv,1,300,159.0,Training at home,,,,,,,,,,,,,
17,18,3988,B,87.74112614138801,60.53248513335241,4.3870563070694,0.9508420529923666,A,904.2782059987076,Incorrect,sub_017_day_14_data.csv,0,300,159.0,Training at home,,,,,,,,,,,,,
17,18,3989,B,73.49794107323478,63.49147196698203,3.674897053661739,0.9973217094853652,B,1450.4118799959542,Correct,sub_017_day_14_data.csv,1,300,159.0,Training at home,,,,,,,,,,,,,
17,18,3990,A,12.840805189354658,37.73394020395275,0.6420402594677328,0.5927233466786727,A,1554.0787080099108,Correct,sub_017_day_14_data.csv,1,300,159.0,Training at home,,,,,,,,,,,,,
17,18,3991,B,69.17880223219775,54.00199265087212,3.4589401116098877,0.8482613169559492,B,1682.365550994291,Correct,sub_017_day_14_data.csv,1,300,159.0,Training at home,,,,,,,,,,,,,
17,18,3992,A,60.174963804850975,73.49143519400714,3.0087481902425486,1.154400764536316,A,1256.2846569926478,Correct,sub_017_day_14_data.csv,1,300,159.0,Training at home,,,,,,,,,,,,,
17,18,3993,B,55.16145354213877,41.482339515774825,2.7580726771069384,0.6516030653823789,B,750.2780709910439,Correct,sub_017_day_14_data.csv,1,300,159.0,Training at home,,,,,,,,,,,,,
17,18,3994,A,42.548123070190215,72.10381959935663,2.127406153509511,1.1326041497455126,A,2110.8699530013837,Correct,sub_017_day_14_data.csv,1,300,159.0,Training at home,,,,,,,,,,,,,
17,18,3995,A,18.30966986448736,45.96934468211747,0.915483493224368,0.7220847777183863,A,1436.5807910071453,Correct,sub_017_day_14_data.csv,1,300,159.0,Training at home,,,,,,,,,,,,,
17,18,3996,B,65.244570600219,43.357946656110464,3.26222853001095,0.6810650334478738,B,1568.933692004066,Correct,sub_017_day_14_data.csv,1,300,159.0,Training at home,,,,,,,,,,,,,
17,18,3997,B,48.391610619198715,38.490013719865715,2.419580530959936,0.6045997216945023,B,2087.0507810031995,Correct,sub_017_day_14_data.csv,1,300,159.0,Training at home,,,,,,,,,,,,,
17,18,3998,B,85.51985855613836,56.40145620535751,4.275992927806918,0.8859520023325881,B,965.7426509947982,Correct,sub_017_day_14_data.csv,1,300,159.0,Training at home,,,,,,,,,,,,,
17,18,3999,A,47.77741664723229,57.005460779691646,2.3888708323616146,0.8954396839999017,A,1446.740724000847,Correct,sub_017_day_14_data.csv,1,300,159.0,Training at home,,,,,,,,,,,,,
17,18,4000,B,34.648201580953256,12.961777810146454,1.7324100790476626,0.2036031297290964,B,1332.1568749961443,Correct,sub_017_day_14_data.csv,1,300,160.0,Training at home,,,,,,,,,,,,,
17,18,4001,A,57.39478111055088,68.43252000813322,2.869739055527544,1.0749355106209393,A,1530.075051006861,Correct,sub_017_day_14_data.csv,1,300,160.0,Training at home,,,,,,,,,,,,,
17,18,4002,A,28.911639740010777,41.954958382887355,1.4455819870005389,0.6590269451867221,A,1267.7659040055005,Correct,sub_017_day_14_data.csv,1,300,160.0,Training at home,,,,,,,,,,,,,
17,18,4003,A,55.3035866047205,79.74623171206221,2.765179330236025,1.2526508784904202,A,1456.1821890092688,Correct,sub_017_day_14_data.csv,1,300,160.0,Training at home,,,,,,,,,,,,,
17,18,4004,B,72.72688936504355,62.271178994499834,3.6363444682521777,0.9781533922974788,B,2672.533499993733,Correct,sub_017_day_14_data.csv,1,300,160.0,Training at home,,,,,,,,,,,,,
17,18,4005,A,32.45608989340296,42.553008738885424,1.622804494670148,0.6684210982111236,A,944.5214820007096,Correct,sub_017_day_14_data.csv,1,300,160.0,Training at home,,,,,,,,,,,,,
17,18,4006,A,11.1662101617356,36.614870199861045,0.55831050808678,0.5751450361601365,A,1008.6979890038492,Correct,sub_017_day_14_data.csv,1,300,160.0,Training at home,,,,,,,,,,,,,
17,18,4007,A,43.095567217080486,68.64188316808844,2.1547783608540243,1.0782241794471774,A,1221.5987039962783,Correct,sub_017_day_14_data.csv,1,300,160.0,Training at home,,,,,,,,,,,,,
17,18,4008,B,73.16178362006289,58.20766107235005,3.658089181003145,0.9143238020376976,B,1403.5149370029103,Correct,sub_017_day_14_data.csv,1,300,160.0,Training at home,,,,,,,,,,,,,
17,18,4009,B,51.238294874687455,33.77010933100062,2.561914743734373,0.5304596369259784,B,1290.192846005084,Correct,sub_017_day_14_data.csv,1,300,160.0,Training at home,,,,,,,,,,,,,
17,18,4010,B,43.6900722968016,31.707003921553486,2.1845036148400796,0.498052452936476,B,1286.8250989995431,Correct,sub_017_day_14_data.csv,1,300,160.0,Training at home,,,,,,,,,,,,,
17,18,4011,A,57.799492286378886,74.69356581481524,2.889974614318944,1.1732837881712466,A,1153.5867839993443,Correct,sub_017_day_14_data.csv,1,300,160.0,Training at home,,,,,,,,,,,,,
17,18,4012,B,52.40402505732972,28.47521361156597,2.6202012528664858,0.4472876094574786,B,1216.8658029986543,Correct,sub_017_day_14_data.csv,1,300,160.0,Training at home,,,,,,,,,,,,,
17,18,4013,A,30.111850390180095,43.77447856850315,1.505592519509005,0.6876079014276666,A,1158.4322459966645,Correct,sub_017_day_14_data.csv,1,300,160.0,Training at home,,,,,,,,,,,,,
17,18,4014,A,50.51952547365205,73.06706103307671,2.5259762736826024,1.147734710804554,A,976.5391230030218,Correct,sub_017_day_14_data.csv,1,300,160.0,Training at home,,,,,,,,,,,,,
17,18,4015,A,46.45866501162217,55.499357781175746,2.3229332505811087,0.8717818734214663,A,1536.4302829984808,Correct,sub_017_day_14_data.csv,1,300,160.0,Training at home,,,,,,,,,,,,,
17,18,4016,A,56.379440185463494,72.88845815416606,2.818972009273175,1.1449292233430757,A,977.1550769946772,Correct,sub_017_day_14_data.csv,1,300,160.0,Training at home,,,,,,,,,,,,,
17,18,4017,A,33.54122012225311,64.85758085534742,1.6770610061126552,1.0187804977238275,A,1643.109094002284,Correct,sub_017_day_14_data.csv,1,300,160.0,Training at home,,,,,,,,,,,,,
17,18,4018,B,46.46421911556888,16.906793757228705,2.323210955778444,0.2655712953173373,B,1235.580348991789,Correct,sub_017_day_14_data.csv,1,300,160.0,Training at home,,,,,,,,,,,,,
17,18,4019,A,43.74188099892084,69.56210463663206,2.187094049946042,1.0926789844734388,A,658.3055789960781,Correct,sub_017_day_14_data.csv,1,300,160.0,Training at home,,,,,,,,,,,,,
17,18,4020,B,60.43343758861582,47.991187120697745,3.0216718794307904,0.7538438044771858,B,1098.5855879989683,Correct,sub_017_day_14_data.csv,1,300,160.0,Training at home,,,,,,,,,,,,,
17,18,4021,A,30.020266641842618,50.25891991238824,1.501013332092131,0.7894652678705832,A,5261.869073990965,Correct,sub_017_day_14_data.csv,1,300,160.0,Training at home,,,,,,,,,,,,,
17,18,4022,B,51.85527547111285,39.06976032194208,2.5927637735556424,0.6137063600246361,B,1132.8992010094223,Correct,sub_017_day_14_data.csv,1,300,160.0,Training at home,,,,,,,,,,,,,
17,18,4023,A,36.06514071111242,52.1938021307403,1.8032570355556208,0.8198583266842652,A,841.5202670003055,Correct,sub_017_day_14_data.csv,1,300,160.0,Training at home,,,,,,,,,,,,,
17,18,4024,A,57.97064568967399,81.40091519244938,2.898532284483699,1.2786425858204238,A,1245.2679779962637,Correct,sub_017_day_14_data.csv,1,300,160.0,Training at home,,,,,,,,,,,,,
17,18,4025,A,28.02381370670961,54.30197379166699,1.4011906853354803,0.8529734096966324,A,823.3484710071934,Correct,sub_017_day_14_data.csv,1,300,161.0,Training at home,,,,,,,,,,,,,
17,18,4026,B,46.861078213829224,34.32490285853634,2.343053910691461,0.5391743132778053,B,698.8790680043167,Correct,sub_017_day_14_data.csv,1,300,161.0,Training at home,,,,,,,,,,,,,
17,18,4027,A,23.368137951066988,47.378486783572285,1.1684068975533493,0.7442195300873591,A,531.883564995951,Correct,sub_017_day_14_data.csv,1,300,161.0,Training at home,,,,,,,,,,,,,
17,18,4028,A,16.56143714716529,44.91387345119246,0.8280718573582645,0.7055054743926393,A,450.6860359979328,Correct,sub_017_day_14_data.csv,1,300,161.0,Training at home,,,,,,,,,,,,,
17,18,4029,A,50.19833681813426,59.07602131160112,2.509916840906713,0.9279639727792008,A,654.0843069960829,Correct,sub_017_day_14_data.csv,1,300,161.0,Training at home,,,,,,,,,,,,,
17,18,4030,A,17.622900844602377,35.653466124988356,0.8811450422301189,0.5600433362663798,A,489.5675900042989,Correct,sub_017_day_14_data.csv,1,300,161.0,Training at home,,,,,,,,,,,,,
17,18,4031,B,44.54682714178869,20.182636281755247,2.2273413570894345,0.3170281093641855,B,917.7783860068304,Correct,sub_017_day_14_data.csv,1,300,161.0,Training at home,,,,,,,,,,,,,
17,18,4032,B,71.18088765376308,52.94900082423598,3.559044382688154,0.8317209600216983,B,785.0307710032212,Correct,sub_017_day_14_data.csv,1,300,161.0,Training at home,,,,,,,,,,,,,
17,18,4033,B,58.41745035801919,41.24203818246664,2.920872517900959,0.6478284208655347,B,501.2522610049928,Correct,sub_017_day_14_data.csv,1,300,161.0,Training at home,,,,,,,,,,,,,
17,18,4034,A,20.35135574035886,43.41254698146921,1.017567787017943,0.6819226933530271,A,875.8642809989396,Correct,sub_017_day_14_data.csv,1,300,161.0,Training at home,,,,,,,,,,,,,
17,18,4035,B,61.531471949892016,51.99371657801623,3.0765735974946007,0.8167153901716281,B,1811.715974996332,Correct,sub_017_day_14_data.csv,1,300,161.0,Training at home,,,,,,,,,,,,,
17,18,4036,B,58.89645198334318,34.492687740534194,2.944822599167159,0.5418098720411447,B,952.3180620017228,Correct,sub_017_day_14_data.csv,1,300,161.0,Training at home,,,,,,,,,,,,,
17,18,4037,B,67.21827926199506,40.33984549054662,3.3609139630997533,0.6336568112002431,B,787.1436339919455,Correct,sub_017_day_14_data.csv,1,300,161.0,Training at home,,,,,,,,,,,,,
17,18,4038,A,28.863544643379015,53.79240850352178,1.4431772321689509,0.8449691768678258,A,755.4239930032054,Correct,sub_017_day_14_data.csv,1,300,161.0,Training at home,,,,,,,,,,,,,
17,18,4039,A,12.402024597710756,39.09772784385684,0.6201012298855378,0.6141456728315687,A,577.1622840111377,Correct,sub_017_day_14_data.csv,1,300,161.0,Training at home,,,,,,,,,,,,,
17,18,4040,A,32.477612836550605,59.083770326402046,1.6238806418275302,0.9280856940190564,A,655.158666006173,Correct,sub_017_day_14_data.csv,1,300,161.0,Training at home,,,,,,,,,,,,,
17,18,4041,B,46.04028525381605,26.89209422599695,2.3020142626908027,0.4224200283001825,B,899.1890670004068,Correct,sub_017_day_14_data.csv,1,300,161.0,Training at home,,,,,,,,,,,,,
17,18,4042,B,48.27900788197129,40.93666284044653,2.4139503940985647,0.6430315962101455,B,1276.8726049980614,Correct,sub_017_day_14_data.csv,1,300,161.0,Training at home,,,,,,,,,,,,,
17,18,4043,B,77.42356821934528,51.8454753802618,3.871178410967264,0.8143868228825049,B,932.2261100023752,Correct,sub_017_day_14_data.csv,1,300,161.0,Training at home,,,,,,,,,,,,,
17,18,4044,A,69.47665858462271,85.48791131535361,3.473832929231136,1.342840970795253,A,1017.0651799999176,Correct,sub_017_day_14_data.csv,1,300,161.0,Training at home,,,,,,,,,,,,,
17,18,4045,A,31.137516712237417,41.05578500962336,1.5568758356118706,0.6449027628679735,A,1462.9808370082171,Correct,sub_017_day_14_data.csv,1,300,161.0,Training at home,,,,,,,,,,,,,
17,18,4046,B,47.305016909764696,39.524342175344835,2.365250845488235,0.6208469150801628,B,1172.5707720033824,Correct,sub_017_day_14_data.csv,1,300,161.0,Training at home,,,,,,,,,,,,,
17,18,4047,A,25.4624686905578,53.05389881264838,1.27312343452789,0.833368693770562,A,991.0925879958086,Correct,sub_017_day_14_data.csv,1,300,161.0,Training at home,,,,,,,,,,,,,
17,18,4048,A,14.774718244177254,30.73837965938452,0.7387359122088627,0.4828373386058817,A,799.4064609956695,Correct,sub_017_day_14_data.csv,1,300,161.0,Training at home,,,,,,,,,,,,,
17,18,4049,B,46.61000767765036,28.851691910195484,2.3305003838825176,0.453201316743531,B,695.7353250036249,Correct,sub_017_day_14_data.csv,1,300,161.0,Training at home,,,,,,,,,,,,,
17,18,4050,A,28.024845208561175,45.766654723479846,1.4012422604280588,0.7189009312933246,B,1116.4571230037836,Incorrect,sub_017_day_14_data.csv,0,300,162.0,Training at home,,,,,,,,,,,,,
17,18,4051,B,50.13196989006377,41.45771094677331,2.5065984945031885,0.651216200725161,B,1302.712650009198,Correct,sub_017_day_14_data.csv,1,300,162.0,Training at home,,,,,,,,,,,,,
17,18,4052,A,52.92230098114508,61.905381870332064,2.646115049057254,0.97240746450753,B,998.553034994984,Incorrect,sub_017_day_14_data.csv,0,300,162.0,Training at home,,,,,,,,,,,,,
17,18,4053,A,23.28079748782037,45.567225585244195,1.1640398743910183,0.7157683057153602,A,1039.1005179990316,Correct,sub_017_day_14_data.csv,1,300,162.0,Training at home,,,,,,,,,,,,,
17,18,4054,B,85.86023983188215,60.59422788282856,4.293011991594108,0.9518119058332002,B,624.4977460009977,Correct,sub_017_day_14_data.csv,1,300,162.0,Training at home,,,,,,,,,,,,,
17,18,4055,A,39.66690052357915,59.29882302398173,1.9833450261789576,0.9314637338933114,A,1523.61515800294,Correct,sub_017_day_14_data.csv,1,300,162.0,Training at home,,,,,,,,,,,,,
17,18,4056,B,64.62629465573174,46.03087330557314,3.2313147327865868,0.7230512670755554,B,1311.5389059967129,Correct,sub_017_day_14_data.csv,1,300,162.0,Training at home,,,,,,,,,,,,,
17,18,4057,B,47.221313294124705,29.687050524592664,2.3610656647062354,0.4663230991740467,B,976.406752000912,Correct,sub_017_day_14_data.csv,1,300,162.0,Training at home,,,,,,,,,,,,,
17,18,4058,A,29.222504034035296,55.541101961133315,1.4611252017017649,0.8724375894668903,A,1368.658705992857,Correct,sub_017_day_14_data.csv,1,300,162.0,Training at home,,,,,,,,,,,,,
17,18,4059,A,53.61637471564907,63.15654020910221,2.6808187357824536,0.9920606137353194,A,926.160788993002,Correct,sub_017_day_14_data.csv,1,300,162.0,Training at home,,,,,,,,,,,,,
17,18,4060,A,31.63798823501768,43.9744689896625,1.581899411750884,0.6907493436171793,A,2310.000689001754,Correct,sub_017_day_14_data.csv,1,300,162.0,Training at home,,,,,,,,,,,,,
17,18,4061,B,72.03336745012014,60.051883295426144,3.6016683725060066,0.943292776975712,A,1264.0231889963616,Incorrect,sub_017_day_14_data.csv,0,300,162.0,Training at home,,,,,,,,,,,,,
17,18,4062,B,62.03694277600175,52.12879432574498,3.1018471388000877,0.8188371864712685,B,739.6684429986635,Correct,sub_017_day_14_data.csv,1,300,162.0,Training at home,,,,,,,,,,,,,
17,18,4063,B,76.87439784272483,65.49914271247255,3.8437198921362414,1.028858127809666,B,494.3406420061365,Correct,sub_017_day_14_data.csv,1,300,162.0,Training at home,,,,,,,,,,,,,
17,18,4064,A,35.35437127294633,44.35834970228604,1.7677185636473167,0.6967793277503441,A,532.5379429996246,Correct,sub_017_day_14_data.csv,1,300,162.0,Training at home,,,,,,,,,,,,,
17,18,4065,B,57.62563982992441,37.69272088892321,2.8812819914962207,0.5920758751922585,B,788.2124000025215,Correct,sub_017_day_14_data.csv,1,300,162.0,Training at home,,,,,,,,,,,,,
17,18,4066,A,27.76538286963026,54.055391310661626,1.3882691434815129,0.8491001011424805,A,552.563948003808,Correct,sub_017_day_14_data.csv,1,300,162.0,Training at home,,,,,,,,,,,,,
17,18,4067,B,62.54875505935848,53.68646615287751,3.127437752967924,0.8433050383153854,B,1581.1883389978902,Correct,sub_017_day_14_data.csv,1,300,162.0,Training at home,,,,,,,,,,,,,
17,18,4068,B,72.86994412858678,47.39117635943935,3.643497206429339,0.7444188574789646,B,787.8304379992187,Correct,sub_017_day_14_data.csv,1,300,162.0,Training at home,,,,,,,,,,,,,
17,18,4069,A,64.16750071397001,79.80950538409351,3.208375035698501,1.253644779006516,A,739.203595003346,Correct,sub_017_day_14_data.csv,1,300,162.0,Training at home,,,,,,,,,,,,,
17,18,4070,A,22.048510161901593,47.70607715812896,1.1024255080950796,0.7493653076578289,A,1144.59563800483,Correct,sub_017_day_14_data.csv,1,300,162.0,Training at home,,,,,,,,,,,,,
17,18,4071,B,62.19640310762413,46.777781167063054,3.1098201553812066,0.7347836683283813,B,675.7194660021923,Correct,sub_017_day_14_data.csv,1,300,162.0,Training at home,,,,,,,,,,,,,
17,18,4072,A,19.922461258182985,46.51311927511559,0.9961230629091492,0.7306263690512448,A,928.7095159961608,Correct,sub_017_day_14_data.csv,1,300,162.0,Training at home,,,,,,,,,,,,,
17,18,4073,A,40.67643497859197,67.10650644923585,2.0338217489295984,1.0541065383449773,A,528.3674279926345,Correct,sub_017_day_14_data.csv,1,300,162.0,Training at home,,,,,,,,,,,,,
17,18,4074,B,55.01293710603866,36.39910516132592,2.750646855301933,0.5717558068603192,B,934.3091679911596,Correct,sub_017_day_14_data.csv,1,300,162.0,Training at home,,,,,,,,,,,,,
17,18,4075,B,45.31036750585511,36.04716133483491,2.2655183752927557,0.5662274861614169,B,771.3853780005593,Correct,sub_017_day_14_data.csv,1,300,163.0,Training at home,,,,,,,,,,,,,
17,18,4076,B,68.83391822946908,46.96895220948853,3.4416959114734538,0.7377865760406962,B,552.9152730014175,Correct,sub_017_day_14_data.csv,1,300,163.0,Training at home,,,,,,,,,,,,,
17,18,4077,A,37.31403713461476,50.79218516018168,1.8657018567307375,0.7978417787949964,B,1339.088761000312,Incorrect,sub_017_day_14_data.csv,0,300,163.0,Training at home,,,,,,,,,,,,,
17,18,4078,B,80.48313209278719,57.99912424685897,4.0241566046393595,0.911048113242869,B,1491.7574889987009,Correct,sub_017_day_14_data.csv,1,300,163.0,Training at home,,,,,,,,,,,,,
17,18,4079,B,64.67063210275826,39.819647033747394,3.233531605137913,0.625485552948797,B,511.5766020026058,Correct,sub_017_day_14_data.csv,1,300,163.0,Training at home,,,,,,,,,,,,,
17,18,4080,B,78.75708316931154,48.8193060733291,3.9378541584655777,0.7668518665666113,B,509.949080995284,Correct,sub_017_day_14_data.csv,1,300,163.0,Training at home,,,,,,,,,,,,,
17,18,4081,B,66.74237451969498,58.773914450313455,3.337118725984749,0.9232184892990988,B,743.9355530077592,Correct,sub_017_day_14_data.csv,1,300,163.0,Training at home,,,,,,,,,,,,,
17,18,4082,A,17.2192035458909,45.49951744441903,0.860960177294545,0.7147047487263373,A,900.865261006402,Correct,sub_017_day_14_data.csv,1,300,163.0,Training at home,,,,,,,,,,,,,
17,18,4083,B,68.40560622170828,44.50018218496638,3.4202803110854143,0.6990072271784887,B,1414.8166209924966,Correct,sub_017_day_14_data.csv,1,300,163.0,Training at home,,,,,,,,,,,,,
17,18,4084,A,48.38034876889721,71.88649648601888,2.41901743844486,1.129190446263927,A,998.8260609970894,Correct,sub_017_day_14_data.csv,1,300,163.0,Training at home,,,,,,,,,,,,,
17,18,4085,B,57.33575930646009,48.836271418012515,2.8667879653230046,0.7671183575777266,B,709.5824999996694,Correct,sub_017_day_14_data.csv,1,300,163.0,Training at home,,,,,,,,,,,,,
17,18,4086,A,63.233952566051215,88.94621210692677,3.161697628302561,1.3971638325988032,A,1326.1802030028775,Correct,sub_017_day_14_data.csv,1,300,163.0,Training at home,,,,,,,,,,,,,
17,18,4087,A,47.61053921045149,63.40621761624545,2.3805269605225745,0.9959825372755622,A,628.6849409952993,Correct,sub_017_day_14_data.csv,1,300,163.0,Training at home,,,,,,,,,,,,,
17,18,4088,B,40.4082132431339,29.18407270546562,2.020410662156695,0.458422342066606,B,1797.4748189881211,Correct,sub_017_day_14_data.csv,1,300,163.0,Training at home,,,,,,,,,,,,,
17,18,4089,B,56.23414373601905,41.553085264536186,2.8117071868009527,0.6527143370052859,B,821.4135779999197,Correct,sub_017_day_14_data.csv,1,300,163.0,Training at home,,,,,,,,,,,,,
17,18,4090,A,47.944809494674345,72.77715517256065,2.3972404747337173,1.1431808801964047,A,656.821944998228,Correct,sub_017_day_14_data.csv,1,300,163.0,Training at home,,,,,,,,,,,,,
17,18,4091,A,25.915743344858257,56.545204696602575,1.2957871672429129,0.8882099983528886,A,942.1069649979472,Correct,sub_017_day_14_data.csv,1,300,163.0,Training at home,,,,,,,,,,,,,
17,18,4092,A,37.85823951299013,52.364880823124864,1.8929119756495068,0.8225456245001705,A,985.2995730034309,Correct,sub_017_day_14_data.csv,1,300,163.0,Training at home,,,,,,,,,,,,,
17,18,4093,B,88.20093108068811,62.80181557451107,4.410046554034405,0.9864886122049252,B,1279.6530770137906,Correct,sub_017_day_14_data.csv,1,300,163.0,Training at home,,,,,,,,,,,,,
17,18,4094,A,40.1890892109223,55.345196550222965,2.009454460546115,0.8693603144683181,A,1120.921217996511,Correct,sub_017_day_14_data.csv,1,300,163.0,Training at home,,,,,,,,,,,,,
17,18,4095,A,52.93125378756716,73.3724202856952,2.646562689378358,1.1525312827282137,A,1376.4278019953051,Correct,sub_017_day_14_data.csv,1,300,163.0,Training at home,,,,,,,,,,,,,
17,18,4096,B,39.37053014515324,29.938791122876935,1.968526507257662,0.4702774312449475,A,1069.3168940051692,Incorrect,sub_017_day_14_data.csv,0,300,163.0,Training at home,,,,,,,,,,,,,
17,18,4097,A,42.18404119709695,68.29534193949142,2.1092020598548475,1.072780722557546,A,2343.453765002778,Correct,sub_017_day_14_data.csv,1,300,163.0,Training at home,,,,,,,,,,,,,
17,18,4098,A,61.44304974146063,76.09387923314351,3.0721524870730317,1.195279859909963,A,1565.3580549987964,Correct,sub_017_day_14_data.csv,1,300,163.0,Training at home,,,,,,,,,,,,,
17,18,4099,A,55.03903141782638,63.30226146249258,2.751951570891319,0.9943495978309348,A,1068.7112690065987,Correct,sub_017_day_14_data.csv,1,300,163.0,Training at home,,,,,,,,,,,,,
17,18,4100,A,43.23217527393344,55.26688948380054,2.1616087636966723,0.868130269945334,B,1079.5884510007454,Incorrect,sub_017_day_14_data.csv,0,300,164.0,Training at home,,,,,,,,,,,,,
17,18,4101,A,26.43479766138731,42.034067351240104,1.3217398830693656,0.6602695859557723,A,1224.770092012477,Correct,sub_017_day_14_data.csv,1,300,164.0,Training at home,,,,,,,,,,,,,
17,18,4102,A,56.4222729871866,66.13121905951347,2.8211136493593303,1.038786759851524,A,1218.7727419950534,Correct,sub_017_day_14_data.csv,1,300,164.0,Training at home,,,,,,,,,,,,,
17,18,4103,A,60.35252474102079,69.79433418991303,3.017626237051039,1.0963268377661086,A,1779.314211991732,Correct,sub_017_day_14_data.csv,1,300,164.0,Training at home,,,,,,,,,,,,,
17,18,4104,A,40.880164422589736,63.40707056285227,2.0440082211294865,0.9959959353295316,A,695.7259740011068,Correct,sub_017_day_14_data.csv,1,300,164.0,Training at home,,,,,,,,,,,,,
17,18,4105,B,50.879710535818134,36.81323249420711,2.5439855267909066,0.5782609037934706,B,941.763858005288,Correct,sub_017_day_14_data.csv,1,300,164.0,Training at home,,,,,,,,,,,,,
17,18,4106,A,26.009418726189693,43.51358813371799,1.3004709363094846,0.6835098440611022,A,666.8966599972919,Correct,sub_017_day_14_data.csv,1,300,164.0,Training at home,,,,,,,,,,,,,
17,18,4107,B,45.20143547458609,21.27755700412594,2.260071773729305,0.3342270838525005,B,1164.4365440006368,Correct,sub_017_day_14_data.csv,1,300,164.0,Training at home,,,,,,,,,,,,,
17,18,4108,B,78.83075461435436,62.62169212674,3.941537730717718,0.9836592397036408,B,649.7617300046841,Correct,sub_017_day_14_data.csv,1,300,164.0,Training at home,,,,,,,,,,,,,
17,18,4109,B,72.9909471075618,40.089896832182326,3.6495473553780897,0.6297306268557836,B,576.0153440060094,Correct,sub_017_day_14_data.csv,1,300,164.0,Training at home,,,,,,,,,,,,,
17,18,4110,A,16.334093349453624,39.99227846768895,0.8167046674726812,0.6281972411720443,A,558.6741160077509,Correct,sub_017_day_14_data.csv,1,300,164.0,Training at home,,,,,,,,,,,,,
17,18,4111,A,46.6468239479,65.09315494866166,2.3323411973950003,1.0224808869284878,A,816.2828000058653,Correct,sub_017_day_14_data.csv,1,300,164.0,Training at home,,,,,,,,,,,,,
17,18,4112,A,48.25091419064594,67.74360343934069,2.412545709532297,1.0641140344636648,A,901.5494400082388,Correct,sub_017_day_14_data.csv,1,300,164.0,Training at home,,,,,,,,,,,,,
17,18,4113,B,67.8651893273015,50.45686343567856,3.3932594663650746,0.7925745574635562,B,735.3391450014897,Correct,sub_017_day_14_data.csv,1,300,164.0,Training at home,,,,,,,,,,,,,
17,18,4114,B,60.19361073222654,50.19868417861947,3.009680536611327,0.7885190871771256,B,1018.0622850020882,Correct,sub_017_day_14_data.csv,1,300,164.0,Training at home,,,,,,,,,,,,,
17,18,4115,B,37.7950778366184,16.930906484518204,1.88975389183092,0.2659500571518909,B,673.930819000816,Correct,sub_017_day_14_data.csv,1,300,164.0,Training at home,,,,,,,,,,,,,
17,18,4116,B,51.07845786087276,35.025245646737865,2.553922893043638,0.5501752720698477,B,1098.738829998183,Correct,sub_017_day_14_data.csv,1,300,164.0,Training at home,,,,,,,,,,,,,
17,18,4117,B,69.52511626358002,37.77886218003461,3.4762558131790007,0.5934289794288901,B,1229.7723139927257,Correct,sub_017_day_14_data.csv,1,300,164.0,Training at home,,,,,,,,,,,,,
17,18,4118,B,71.61962208353097,40.417710282932,3.5809811041765487,0.634879908498899,B,570.2814099931857,Correct,sub_017_day_14_data.csv,1,300,164.0,Training at home,,,,,,,,,,,,,
17,18,4119,A,42.966362701006496,50.642492242443886,2.148318135050325,0.7954904079416991,B,631.9807950058021,Incorrect,sub_017_day_14_data.csv,0,300,164.0,Training at home,,,,,,,,,,,,,
17,18,4120,A,36.99767593154491,62.27429294797802,1.8498837965772457,0.978202306164332,A,1367.078905008384,Correct,sub_017_day_14_data.csv,1,300,164.0,Training at home,,,,,,,,,,,,,
17,18,4121,B,75.92134728281786,47.928237561419515,3.7960673641408937,0.7528549951123097,B,917.9487060027895,Correct,sub_017_day_14_data.csv,1,300,164.0,Training at home,,,,,,,,,,,,,
17,18,4122,A,32.343725211302484,45.532642698961126,1.6171862605651242,0.715225079007926,A,891.6175199992722,Correct,sub_017_day_14_data.csv,1,300,164.0,Training at home,,,,,,,,,,,,,
17,18,4123,B,73.96267960432301,42.43294398147563,3.6981339802161504,0.6665351254119554,B,1549.168074008776,Correct,sub_017_day_14_data.csv,1,300,164.0,Training at home,,,,,,,,,,,,,
17,18,4124,A,23.605895366266235,54.7548210306727,1.1802947683133118,0.8600867174929263,A,637.0704260043567,Correct,sub_017_day_14_data.csv,1,300,164.0,Training at home,,,,,,,,,,,,,
17,18,4125,B,62.14241146453895,48.75237798196836,3.107120573226948,0.7658005625659229,A,1389.4690640008776,Incorrect,sub_017_day_14_data.csv,0,300,165.0,Training at home,,,,,,,,,,,,,
17,18,4126,B,67.88741502994615,57.35943528989655,3.394370751497308,0.9009999026039908,B,793.4385660046246,Correct,sub_017_day_14_data.csv,1,300,165.0,Training at home,,,,,,,,,,,,,
17,18,4127,B,72.8170810282992,59.145997982847504,3.64085405141496,0.9290631637607522,B,1362.951000002795,Correct,sub_017_day_14_data.csv,1,300,165.0,Training at home,,,,,,,,,,,,,
17,18,4128,A,15.572456662364685,38.228185792054816,0.7786228331182342,0.6004869382219256,A,1087.95104699675,Correct,sub_017_day_14_data.csv,1,300,165.0,Training at home,,,,,,,,,,,,,
17,18,4129,A,29.49619386396469,40.429401342818196,1.4748096931982346,0.6350635512381548,A,1982.8810740000335,Correct,sub_017_day_14_data.csv,1,300,165.0,Training at home,,,,,,,,,,,,,
17,18,4130,B,77.15862232995752,50.090208427652286,3.857931116497877,0.7868151540654699,B,1757.616285001859,Correct,sub_017_day_14_data.csv,1,300,165.0,Training at home,,,,,,,,,,,,,
17,18,4131,B,53.94008991929581,40.752551456826346,2.6970044959647903,0.6401395813590283,B,990.4359539941652,Correct,sub_017_day_14_data.csv,1,300,165.0,Training at home,,,,,,,,,,,,,
17,18,4132,B,43.53103150376758,35.66157212242508,2.1765515751883786,0.5601706649763659,B,1878.4352439979557,Correct,sub_017_day_14_data.csv,1,300,165.0,Training at home,,,,,,,,,,,,,
17,18,4133,B,75.09454565534514,63.07858869289002,3.754727282767257,0.9908361541819776,A,963.9916029991582,Incorrect,sub_017_day_14_data.csv,0,300,165.0,Training at home,,,,,,,,,,,,,
17,18,4134,B,58.300036998221614,46.40314871941436,2.915001849911081,0.7288989556017338,B,1650.0933160132265,Correct,sub_017_day_14_data.csv,1,300,165.0,Training at home,,,,,,,,,,,,,
17,18,4135,B,77.07127468243118,50.046820628243495,3.853563734121559,0.7861336201060795,B,863.4311250061728,Correct,sub_017_day_14_data.csv,1,300,165.0,Training at home,,,,,,,,,,,,,
17,18,4136,B,82.52964379443293,54.42713419205022,4.126482189721646,0.8549394246684541,B,862.5670729961712,Correct,sub_017_day_14_data.csv,1,300,165.0,Training at home,,,,,,,,,,,,,
17,18,4137,A,12.044364997277686,32.367801315225115,0.6022182498638843,0.5084322341238263,A,958.3550929964986,Correct,sub_017_day_14_data.csv,1,300,165.0,Training at home,,,,,,,,,,,,,
17,18,4138,B,73.32914605503296,44.348707731963465,3.666457302751649,0.6966278720346863,B,528.9118110085838,Correct,sub_017_day_14_data.csv,1,300,165.0,Training at home,,,,,,,,,,,,,
17,18,4139,A,58.695530457234746,84.5588601883319,2.9347765228617373,1.3282474698179496,A,1347.058693994768,Correct,sub_017_day_14_data.csv,1,300,165.0,Training at home,,,,,,,,,,,,,
17,18,4140,B,63.16223140206288,54.962836349147686,3.1581115701031437,0.8633542144747021,A,781.5594150015386,Incorrect,sub_017_day_14_data.csv,0,300,165.0,Training at home,,,,,,,,,,,,,
17,18,4141,B,48.717008201733314,34.52124690430747,2.435850410086666,0.5422584783366586,B,1122.8133010008603,Correct,sub_017_day_14_data.csv,1,300,165.0,Training at home,,,,,,,,,,,,,
17,18,4142,B,56.08517973977924,39.19991341955232,2.804258986988962,0.6157508001011075,B,1125.4048840055475,Correct,sub_017_day_14_data.csv,1,300,165.0,Training at home,,,,,,,,,,,,,
17,18,4143,B,39.62926188208155,13.477148549421363,1.9814630941040776,0.2116985543710025,B,864.1431230062153,Correct,sub_017_day_14_data.csv,1,300,165.0,Training at home,,,,,,,,,,,,,
17,18,4144,A,40.86733876140405,59.54689845060003,2.043366938070202,0.9353604935823124,A,990.688363002846,Correct,sub_017_day_14_data.csv,1,300,165.0,Training at home,,,,,,,,,,,,,
17,18,4145,A,39.90882226134001,59.48204036332065,1.995441113067001,0.9343417051296984,A,1366.39128200477,Correct,sub_017_day_14_data.csv,1,300,165.0,Training at home,,,,,,,,,,,,,
17,18,4146,A,44.068375395009795,68.9213230184345,2.20341876975049,1.0826136103520148,A,1105.0449199974537,Correct,sub_017_day_14_data.csv,1,300,165.0,Training at home,,,,,,,,,,,,,
17,18,4147,A,33.89437542224855,49.23097941290172,1.6947187711124274,0.7733184162630119,A,1607.1348319965182,Correct,sub_017_day_14_data.csv,1,300,165.0,Training at home,,,,,,,,,,,,,
17,18,4148,A,28.955505450987516,41.2681187096692,1.4477752725493758,0.6482380928288412,A,559.0679059969261,Correct,sub_017_day_14_data.csv,1,300,165.0,Training at home,,,,,,,,,,,,,
17,18,4149,A,38.07716203781976,66.27995514261133,1.903858101890988,1.041123100781444,A,962.7102219965308,Correct,sub_017_day_14_data.csv,1,300,165.0,Training at home,,,,,,,,,,,,,
17,18,4150,B,56.69571057829217,28.829672974194576,2.8347855289146087,0.4528554441056294,B,957.123264000984,Correct,sub_017_day_14_data.csv,1,300,166.0,Training at home,,,,,,,,,,,,,
17,18,4151,B,84.70887423989117,62.581942490126615,4.235443711994559,0.9830348538718036,B,955.0853610126068,Correct,sub_017_day_14_data.csv,1,300,166.0,Training at home,,,,,,,,,,,,,
17,18,4152,A,39.506797154524875,64.98695441505363,1.9753398577262435,1.0208126928475365,A,1311.8888559984043,Correct,sub_017_day_14_data.csv,1,300,166.0,Training at home,,,,,,,,,,,,,
17,18,4153,A,55.99617871918932,77.37642926248549,2.7998089359594656,1.2154261086601734,A,1352.6567639928544,Correct,sub_017_day_14_data.csv,1,300,166.0,Training at home,,,,,,,,,,,,,
17,18,4154,A,44.17075168418928,72.8136483790736,2.2085375842094637,1.14375411414384,A,473.56232699530665,Correct,sub_017_day_14_data.csv,1,300,166.0,Training at home,,,,,,,,,,,,,
17,18,4155,A,56.613467803248064,83.13566211575008,2.8306733901624033,1.305891926770819,A,662.9785020049894,Correct,sub_017_day_14_data.csv,1,300,166.0,Training at home,,,,,,,,,,,,,
17,18,4156,B,49.57747375763229,22.434126086332512,2.4788736878816144,0.3523944285126467,B,636.5599010023288,Correct,sub_017_day_14_data.csv,1,300,166.0,Training at home,,,,,,,,,,,,,
17,18,4157,B,54.11173278116289,42.590176785988795,2.7055866390581444,0.6690049325297647,B,1311.2052580108866,Correct,sub_017_day_14_data.csv,1,300,166.0,Training at home,,,,,,,,,,,,,
17,18,4158,A,48.61915545531156,67.61349596459765,2.430957772765578,1.0620703110295155,A,806.7331939964788,Correct,sub_017_day_14_data.csv,1,300,166.0,Training at home,,,,,,,,,,,,,
17,18,4159,A,46.95056206948118,67.8146735574482,2.347528103474059,1.0652304012683464,A,455.579083005432,Correct,sub_017_day_14_data.csv,1,300,166.0,Training at home,,,,,,,,,,,,,
17,18,4160,A,25.91022320331056,50.44259369521926,1.295511160165528,0.7923504089045783,A,517.3585209995508,Correct,sub_017_day_14_data.csv,1,300,166.0,Training at home,,,,,,,,,,,,,
17,18,4161,B,73.21856872765622,49.36387576224105,3.6609284363828114,0.7754059472368786,B,853.5710599971935,Correct,sub_017_day_14_data.csv,1,300,166.0,Training at home,,,,,,,,,,,,,
17,18,4162,B,70.17239260010768,60.87305431248056,3.508619630005384,0.9561917011483068,B,786.2880180036882,Correct,sub_017_day_14_data.csv,1,300,166.0,Training at home,,,,,,,,,,,,,
17,18,4163,A,21.68415723425273,34.65577430449133,1.0842078617126365,0.5443716297972795,A,1137.908247008454,Correct,sub_017_day_14_data.csv,1,300,166.0,Training at home,,,,,,,,,,,,,
17,18,4164,B,58.74784198951476,38.29018509669454,2.937392099475738,0.6014608210218448,B,1741.0629999940284,Correct,sub_017_day_14_data.csv,1,300,166.0,Training at home,,,,,,,,,,,,,
17,18,4165,B,44.73421024602108,17.68080900169729,2.2367105123010536,0.2777294983462824,B,825.0652620045003,Correct,sub_017_day_14_data.csv,1,300,166.0,Training at home,,,,,,,,,,,,,
17,18,4166,A,64.29328252276119,86.65622361966017,3.214664126138059,1.3611927775567936,A,576.4510529988911,Correct,sub_017_day_14_data.csv,1,300,166.0,Training at home,,,,,,,,,,,,,
17,18,4167,B,42.97648614862797,22.40398267037881,2.1488243074313984,0.3519209368420755,B,2267.6262199966004,Correct,sub_017_day_14_data.csv,1,300,166.0,Training at home,,,,,,,,,,,,,
17,18,4168,A,61.875571277324866,72.25339797806521,3.0937785638662434,1.1349537214239462,A,2043.1060340051772,Correct,sub_017_day_14_data.csv,1,300,166.0,Training at home,,,,,,,,,,,,,
17,18,4169,B,65.34295958310528,56.67128587637227,3.2671479791552644,0.8901904768934907,B,1498.0204469902674,Correct,sub_017_day_14_data.csv,1,300,166.0,Training at home,,,,,,,,,,,,,
17,18,4170,B,54.50645474654038,43.92478759779328,2.725322737327019,0.6899689501385972,B,2504.033553006593,Correct,sub_017_day_14_data.csv,1,300,166.0,Training at home,,,,,,,,,,,,,
17,18,4171,A,57.30327783306069,81.12517243409803,2.8651638916530344,1.274311228700838,A,697.317504993407,Correct,sub_017_day_14_data.csv,1,300,166.0,Training at home,,,,,,,,,,,,,
17,18,4172,A,47.69107002813468,73.99068928938976,2.384553501406734,1.1622430295279595,A,711.4844380121212,Correct,sub_017_day_14_data.csv,1,300,166.0,Training at home,,,,,,,,,,,,,
17,18,4173,B,64.55309383050916,50.2079957562683,3.227654691525458,0.7886653530968002,B,1277.686693996657,Correct,sub_017_day_14_data.csv,1,300,166.0,Training at home,,,,,,,,,,,,,
17,18,4174,B,78.85351695158066,48.162997630175006,3.942675847579033,0.7565425976491021,B,1088.7273069965886,Correct,sub_017_day_14_data.csv,1,300,166.0,Training at home,,,,,,,,,,,,,
17,18,4175,A,25.32870378728255,55.257903760522225,1.2664351893641277,0.8679891225341422,A,727.0711260061944,Correct,sub_017_day_14_data.csv,1,300,167.0,Training at home,,,,,,,,,,,,,
17,18,4176,A,26.84917960454769,39.26682370305448,1.3424589802273843,0.6168018243766076,A,937.0325930067338,Correct,sub_017_day_14_data.csv,1,300,167.0,Training at home,,,,,,,,,,,,,
17,18,4177,A,25.131066973934225,55.194916681069095,1.256553348696711,0.8669997238037369,A,1987.1763169940095,Correct,sub_017_day_14_data.csv,1,300,167.0,Training at home,,,,,,,,,,,,,
17,18,4178,A,38.73992254392053,50.82025734511493,1.9369961271960263,0.798282735644779,A,2061.8972290103557,Correct,sub_017_day_14_data.csv,1,300,167.0,Training at home,,,,,,,,,,,,,
17,18,4179,A,45.889215510010274,70.17607336671362,2.2944607755005135,1.1023231827332294,A,1064.603489008732,Correct,sub_017_day_14_data.csv,1,300,167.0,Training at home,,,,,,,,,,,,,
17,18,4180,A,29.914938439456463,56.99755200406114,1.4957469219728232,0.8953154532428034,A,1093.3124190050876,Correct,sub_017_day_14_data.csv,1,300,167.0,Training at home,,,,,,,,,,,,,
17,18,4181,B,77.20362968440087,61.59769645098932,3.860181484220043,0.9675743532424106,B,1047.4910649936646,Correct,sub_017_day_14_data.csv,1,300,167.0,Training at home,,,,,,,,,,,,,
17,18,4182,A,11.876084338816398,31.097340383235306,0.5938042169408199,0.4884758804707662,A,1756.269367004279,Correct,sub_017_day_14_data.csv,1,300,167.0,Training at home,,,,,,,,,,,,,
17,18,4183,A,37.81424865009232,67.90616278370234,1.890712432504616,1.066667510673759,A,897.2139329998754,Correct,sub_017_day_14_data.csv,1,300,167.0,Training at home,,,,,,,,,,,,,
17,18,4184,B,76.45610632356659,62.55748139114527,3.8228053161783295,0.9826506198275108,B,707.4155930022243,Correct,sub_017_day_14_data.csv,1,300,167.0,Training at home,,,,,,,,,,,,,
17,18,4185,B,62.25050788198156,52.7680918672764,3.112525394099078,0.8288792487709342,B,1411.2371990049724,Correct,sub_017_day_14_data.csv,1,300,167.0,Training at home,,,,,,,,,,,,,
17,18,4186,A,45.74862759843373,61.50380413958051,2.2874313799216863,0.9660994962636582,A,1840.071425991482,Correct,sub_017_day_14_data.csv,1,300,167.0,Training at home,,,,,,,,,,,,,
17,18,4187,B,74.83964387704297,53.54000241353036,3.7419821938521487,0.8410043912776339,B,1174.9501489975955,Correct,sub_017_day_14_data.csv,1,300,167.0,Training at home,,,,,,,,,,,,,
17,18,4188,A,48.29043080314685,60.89280849435568,2.4145215401573425,0.9565019991115896,A,2099.1915939957835,Correct,sub_017_day_14_data.csv,1,300,167.0,Training at home,,,,,,,,,,,,,
17,18,4189,B,46.1723612981632,31.15922329713798,2.30861806490816,0.4894479350092631,B,864.206741011003,Correct,sub_017_day_14_data.csv,1,300,167.0,Training at home,,,,,,,,,,,,,
17,18,4190,A,31.036698437686724,43.28803487069793,1.551834921884336,0.679966861690617,A,696.9482020067517,Correct,sub_017_day_14_data.csv,1,300,167.0,Training at home,,,,,,,,,,,,,
17,18,4191,B,60.74735177562476,30.6442076651571,3.037367588781238,0.4813580883796878,B,1188.2109680009307,Correct,sub_017_day_14_data.csv,1,300,167.0,Training at home,,,,,,,,,,,,,
17,18,4192,A,32.57215661024546,44.89929517441375,1.6286078305122729,0.7052764793564895,A,2015.269324008841,Correct,sub_017_day_14_data.csv,1,300,167.0,Training at home,,,,,,,,,,,,,
17,18,4193,B,43.12562007145169,15.143778930135465,2.156281003572585,0.2378779231725073,B,1191.2184300017543,Correct,sub_017_day_14_data.csv,1,300,167.0,Training at home,,,,,,,,,,,,,
17,18,4194,B,42.77591226947604,17.644825497274155,2.138795613473802,0.2771642707805518,B,1077.7837089990498,Correct,sub_017_day_14_data.csv,1,300,167.0,Training at home,,,,,,,,,,,,,
17,18,4195,B,80.60971797367498,62.31565912682469,4.030485898683748,0.9788520845821908,A,1305.2840570016997,Incorrect,sub_017_day_14_data.csv,0,300,167.0,Training at home,,,,,,,,,,,,,
17,18,4196,B,33.69283196619296,11.60752986636923,1.684641598309648,0.1823306527725484,B,1016.829130006954,Correct,sub_017_day_14_data.csv,1,300,167.0,Training at home,,,,,,,,,,,,,
17,18,4197,B,78.05232568042116,54.41052692115865,3.9026162840210583,0.8546785582673083,B,1614.7425170056522,Correct,sub_017_day_14_data.csv,1,300,167.0,Training at home,,,,,,,,,,,,,
17,18,4198,A,39.12234208228048,47.30927049206905,1.956117104114024,0.7431322831228825,A,1706.9264769961592,Correct,sub_017_day_14_data.csv,1,300,167.0,Training at home,,,,,,,,,,,,,
17,18,4199,B,65.84546222969084,35.73566519883513,3.292273111484542,0.5613345162990243,B,1537.10065499763,Correct,sub_017_day_14_data.csv,1,300,167.0,Training at home,,,,,,,,,,,,,
