subject,day,trial,cat,x,y,xt,yt,resp,rt,fb,f_name,acc,n_trials,block,session_type,ns_left_digit,ns_right_digit,ns_left_size,ns_right_size,ns_congruent,ns_cue,ns_correct_side,ns_resp,ns_rt,ns_fb,acc_stroop,acc_stroop_mean,resp_key
17,19,4200,A,16.95345607674052,34.10936577404018,0.847672803837026,0.5357886646716589,A,595.1684119936544,Correct,sub_017_day_15_data.csv,1,300,168.0,Training at home,,,,,,,,,,,,,
17,19,4201,B,66.99455370449326,39.221849651602824,3.3497276852246625,0.6160953736283941,B,516.6423759947065,Correct,sub_017_day_15_data.csv,1,300,168.0,Training at home,,,,,,,,,,,,,
17,19,4202,A,60.86586734603547,81.15550633480875,3.0432933673017737,1.2747877124989753,B,1442.191101014032,Incorrect,sub_017_day_15_data.csv,0,300,168.0,Training at home,,,,,,,,,,,,,
17,19,4203,B,84.6596107743246,62.54334113130546,4.23298053871623,0.982428505145348,B,1148.1106529972749,Correct,sub_017_day_15_data.csv,1,300,168.0,Training at home,,,,,,,,,,,,,
17,19,4204,A,65.37208957130892,86.50879521819306,3.2686044785654462,1.3588769776418956,A,9052.109730007942,Correct,sub_017_day_15_data.csv,1,300,168.0,Training at home,,,,,,,,,,,,,
17,19,4205,A,29.512804919140855,48.14773017941883,1.4756402459570426,0.7563027770934286,A,698.7421379890293,Correct,sub_017_day_15_data.csv,1,300,168.0,Training at home,,,,,,,,,,,,,
17,19,4206,B,79.2245097441751,62.62300290760328,3.9612254872087544,0.9836798294012936,B,840.5137310037389,Correct,sub_017_day_15_data.csv,1,300,168.0,Training at home,,,,,,,,,,,,,
17,19,4207,B,78.92231534679351,54.6400270241713,3.946115767339675,0.8582835374554217,B,1218.6624689929886,Correct,sub_017_day_15_data.csv,1,300,168.0,Training at home,,,,,,,,,,,,,
17,19,4208,B,58.75121074848535,30.106241177482783,2.9375605374242673,0.4729077305519122,B,1039.0961569937645,Correct,sub_017_day_15_data.csv,1,300,168.0,Training at home,,,,,,,,,,,,,
17,19,4209,A,32.3025180073101,40.703649146144485,1.6151259003655047,0.63937142565912,A,886.2953760108212,Correct,sub_017_day_15_data.csv,1,300,168.0,Training at home,,,,,,,,,,,,,
17,19,4210,A,36.95440731054209,50.91186912599924,1.8477203655271044,0.7997217701338211,A,1247.4745760118822,Correct,sub_017_day_15_data.csv,1,300,168.0,Training at home,,,,,,,,,,,,,
17,19,4211,B,57.06068509450322,30.297675311652434,2.853034254725161,0.4759147708996806,B,743.5479739942821,Correct,sub_017_day_15_data.csv,1,300,168.0,Training at home,,,,,,,,,,,,,
17,19,4212,A,40.835427689904265,52.61676709210312,2.0417713844952132,0.8265022447609817,A,2147.802887004218,Correct,sub_017_day_15_data.csv,1,300,168.0,Training at home,,,,,,,,,,,,,
17,19,4213,B,57.92774147607478,27.102742804432296,2.896387073803739,0.4257288884326906,B,360.1617259992054,Correct,sub_017_day_15_data.csv,1,300,168.0,Training at home,,,,,,,,,,,,,
17,19,4214,B,77.62239746700762,48.80506895347358,3.881119873350381,0.7666282304108794,B,561.7506639973726,Correct,sub_017_day_15_data.csv,1,300,168.0,Training at home,,,,,,,,,,,,,
17,19,4215,B,33.73890664456959,18.63089141140959,1.6869453322284795,0.2926533579395677,A,481.27296500024386,Incorrect,sub_017_day_15_data.csv,0,300,168.0,Training at home,,,,,,,,,,,,,
17,19,4216,A,54.92356177278987,62.69065706133912,2.7461780886394935,0.9847425383631002,A,553.388887012261,Correct,sub_017_day_15_data.csv,1,300,168.0,Training at home,,,,,,,,,,,,,
17,19,4217,A,51.65039198090143,79.7031168656303,2.5825195990450713,1.2519736320663644,A,637.6108740078053,Correct,sub_017_day_15_data.csv,1,300,168.0,Training at home,,,,,,,,,,,,,
17,19,4218,A,57.40470930195471,68.98370670094636,2.8702354650977355,1.0835935309454303,A,929.7853169991868,Correct,sub_017_day_15_data.csv,1,300,168.0,Training at home,,,,,,,,,,,,,
17,19,4219,A,53.20616029673267,76.50545787370858,2.660308014836634,1.2017449220778311,A,2278.679007999017,Correct,sub_017_day_15_data.csv,1,300,168.0,Training at home,,,,,,,,,,,,,
17,19,4220,B,87.02169700475824,61.022030318614064,4.351084850237912,0.958531810780458,B,686.3548470137175,Correct,sub_017_day_15_data.csv,1,300,168.0,Training at home,,,,,,,,,,,,,
17,19,4221,A,25.54490044802605,36.373669195699776,1.2772450224013026,0.5713562596465789,A,485.50800899101887,Correct,sub_017_day_15_data.csv,1,300,168.0,Training at home,,,,,,,,,,,,,
17,19,4222,B,52.225917974024526,21.011400511283636,2.6112958987012265,0.3300463074394074,B,520.9457730088616,Correct,sub_017_day_15_data.csv,1,300,168.0,Training at home,,,,,,,,,,,,,
17,19,4223,A,63.16942312039056,86.46911749475069,3.158471156019528,1.3582537214195072,A,504.59755600604694,Correct,sub_017_day_15_data.csv,1,300,168.0,Training at home,,,,,,,,,,,,,
17,19,4224,B,64.67790476972314,34.11160383766464,3.233895238486157,0.5358238200928631,B,573.8874110102188,Correct,sub_017_day_15_data.csv,1,300,168.0,Training at home,,,,,,,,,,,,,
17,19,4225,B,61.78883925847557,37.397683605783826,3.0894419629237784,0.5874414403860295,B,701.8824239930836,Correct,sub_017_day_15_data.csv,1,300,169.0,Training at home,,,,,,,,,,,,,
17,19,4226,A,50.42174758811342,59.23873112195137,2.521087379405671,0.9305198125035176,A,746.5144080051687,Correct,sub_017_day_15_data.csv,1,300,169.0,Training at home,,,,,,,,,,,,,
17,19,4227,B,62.13931183794247,31.32958070568285,3.106965591897124,0.4921239029251089,B,526.6137559956405,Correct,sub_017_day_15_data.csv,1,300,169.0,Training at home,,,,,,,,,,,,,
17,19,4228,B,72.80726140700435,62.61994996148167,3.6403630703502174,0.9836318738357565,B,1100.9614860086003,Correct,sub_017_day_15_data.csv,1,300,169.0,Training at home,,,,,,,,,,,,,
17,19,4229,B,33.42058717830691,16.00512442397249,1.671029358915345,0.2514079065507127,A,549.8087460000534,Incorrect,sub_017_day_15_data.csv,0,300,169.0,Training at home,,,,,,,,,,,,,
17,19,4230,B,85.01495886255111,63.38491395223019,4.250747943127555,0.9956479001037376,B,559.774670007755,Correct,sub_017_day_15_data.csv,1,300,169.0,Training at home,,,,,,,,,,,,,
17,19,4231,B,85.49598844586494,62.31997769337309,4.274799422293247,0.9789199204669032,B,1491.042474997812,Correct,sub_017_day_15_data.csv,1,300,169.0,Training at home,,,,,,,,,,,,,
17,19,4232,A,45.178324274775285,59.26219461372801,2.258916213738764,0.9308883761704826,A,794.3283519998658,Correct,sub_017_day_15_data.csv,1,300,169.0,Training at home,,,,,,,,,,,,,
17,19,4233,B,79.67024812901658,51.64400628799987,3.9835124064508296,0.8112221537816274,B,1862.056815007236,Correct,sub_017_day_15_data.csv,1,300,169.0,Training at home,,,,,,,,,,,,,
17,19,4234,A,29.48296615967905,51.93102880911019,1.4741483079839526,0.8157306930003023,A,765.5704409989994,Correct,sub_017_day_15_data.csv,1,300,169.0,Training at home,,,,,,,,,,,,,
17,19,4235,A,46.84944560614325,77.52673343058075,2.3424722803071627,1.2177870810116336,A,536.3850080029806,Correct,sub_017_day_15_data.csv,1,300,169.0,Training at home,,,,,,,,,,,,,
17,19,4236,A,30.866341587080427,39.80911322334314,1.5433170793540214,0.6253200882418954,A,600.3008230036357,Correct,sub_017_day_15_data.csv,1,300,169.0,Training at home,,,,,,,,,,,,,
17,19,4237,B,70.3871399389587,46.36757051504435,3.5193569969479346,0.7283400944743502,B,722.8300330025377,Correct,sub_017_day_15_data.csv,1,300,169.0,Training at home,,,,,,,,,,,,,
17,19,4238,A,19.888585073562652,51.3840623681645,0.9944292536781326,0.8071389642371266,A,809.1342809930211,Correct,sub_017_day_15_data.csv,1,300,169.0,Training at home,,,,,,,,,,,,,
17,19,4239,A,30.62246107569672,52.46630754837126,1.531123053784836,0.8241388317747292,A,371.01409600290935,Correct,sub_017_day_15_data.csv,1,300,169.0,Training at home,,,,,,,,,,,,,
17,19,4240,A,34.02312728475225,58.27166007307851,1.7011563642376126,0.9153290959903256,A,811.4412769937189,Correct,sub_017_day_15_data.csv,1,300,169.0,Training at home,,,,,,,,,,,,,
17,19,4241,B,42.08771633699173,15.335419190747192,2.1043858168495864,0.2408882013468565,A,1450.7900930038886,Incorrect,sub_017_day_15_data.csv,0,300,169.0,Training at home,,,,,,,,,,,,,
17,19,4242,B,64.36826695821384,48.38179992752092,3.218413347910692,0.7599795360987546,B,1580.9431609959574,Correct,sub_017_day_15_data.csv,1,300,169.0,Training at home,,,,,,,,,,,,,
17,19,4243,B,70.13012097607609,51.024402252027855,3.5065060488038045,0.8014894363439061,B,1479.3798760074424,Correct,sub_017_day_15_data.csv,1,300,169.0,Training at home,,,,,,,,,,,,,
17,19,4244,A,18.40332654783108,44.45315536201038,0.920166327391554,0.6982685315708876,A,538.5944239969831,Correct,sub_017_day_15_data.csv,1,300,169.0,Training at home,,,,,,,,,,,,,
17,19,4245,B,73.47654371127106,41.60013969674137,3.673827185563553,0.6534534662979591,B,806.7687270086026,Correct,sub_017_day_15_data.csv,1,300,169.0,Training at home,,,,,,,,,,,,,
17,19,4246,B,39.503644945676726,22.603457218284085,1.9751822472838363,0.3550542757134623,B,628.056720001041,Correct,sub_017_day_15_data.csv,1,300,169.0,Training at home,,,,,,,,,,,,,
17,19,4247,B,53.394481310670606,38.75621002862609,2.6697240655335306,0.608781123534574,B,959.2348320002202,Correct,sub_017_day_15_data.csv,1,300,169.0,Training at home,,,,,,,,,,,,,
17,19,4248,B,64.25474668669368,55.73873234616993,3.212737334334684,0.8755419602956762,A,778.3956409984967,Incorrect,sub_017_day_15_data.csv,0,300,169.0,Training at home,,,,,,,,,,,,,
17,19,4249,A,34.57567986792807,54.46956634546615,1.7287839933964038,0.8556059473756914,A,468.0917950026924,Correct,sub_017_day_15_data.csv,1,300,169.0,Training at home,,,,,,,,,,,,,
17,19,4250,B,33.080373191062904,13.823842081683296,1.6540186595531452,0.2171444036410084,B,1089.3326960067498,Correct,sub_017_day_15_data.csv,1,300,170.0,Training at home,,,,,,,,,,,,,
17,19,4251,A,59.80009801272894,82.47151231354897,2.990004900636447,1.295459486073428,A,569.259609997971,Correct,sub_017_day_15_data.csv,1,300,170.0,Training at home,,,,,,,,,,,,,
17,19,4252,B,37.95888318978548,27.31787384107271,1.897944159489274,0.4291081588540342,B,1284.1114170005312,Correct,sub_017_day_15_data.csv,1,300,170.0,Training at home,,,,,,,,,,,,,
17,19,4253,B,81.22510894784068,58.83106003909768,4.061255447392034,0.9241161301086466,A,2086.0598209983436,Incorrect,sub_017_day_15_data.csv,0,300,170.0,Training at home,,,,,,,,,,,,,
17,19,4254,A,50.90374222480126,65.85462053871228,2.545187111240063,1.03444196044681,A,919.8619249946204,Correct,sub_017_day_15_data.csv,1,300,170.0,Training at home,,,,,,,,,,,,,
17,19,4255,A,22.9672674080426,48.66104261764041,1.14836337040213,0.7643658700179949,A,811.1163089924958,Correct,sub_017_day_15_data.csv,1,300,170.0,Training at home,,,,,,,,,,,,,
17,19,4256,A,45.44479098619368,61.93314462928146,2.272239549309684,0.972843560905324,A,760.8704420126742,Correct,sub_017_day_15_data.csv,1,300,170.0,Training at home,,,,,,,,,,,,,
17,19,4257,A,31.14320379640327,44.86228128901432,1.5571601898201637,0.7046950666042311,A,781.121534993872,Correct,sub_017_day_15_data.csv,1,300,170.0,Training at home,,,,,,,,,,,,,
17,19,4258,B,54.64227673670273,22.557069144274767,2.7321138368351363,0.354325613550853,B,466.9737689982867,Correct,sub_017_day_15_data.csv,1,300,170.0,Training at home,,,,,,,,,,,,,
17,19,4259,B,83.36850805296181,54.85201854176355,4.168425402648091,0.8616134924268775,B,670.0751089956611,Correct,sub_017_day_15_data.csv,1,300,170.0,Training at home,,,,,,,,,,,,,
17,19,4260,A,38.41482874302754,62.41328896916276,1.9207414371513771,0.980385650559493,A,2701.714130002074,Correct,sub_017_day_15_data.csv,1,300,170.0,Training at home,,,,,,,,,,,,,
17,19,4261,A,23.67254739108901,54.746403323635626,1.1836273695544506,0.8599544924599875,A,1310.4880809987662,Correct,sub_017_day_15_data.csv,1,300,170.0,Training at home,,,,,,,,,,,,,
17,19,4262,B,83.46654413031945,66.26008008394483,4.173327206515973,1.0408109040899622,B,993.0958869954338,Correct,sub_017_day_15_data.csv,1,300,170.0,Training at home,,,,,,,,,,,,,
17,19,4263,A,51.65064766643819,75.1137745273047,2.58253238332191,1.179884411191903,A,962.2341439971932,Correct,sub_017_day_15_data.csv,1,300,170.0,Training at home,,,,,,,,,,,,,
17,19,4264,B,66.38981511786487,51.147881934431446,3.3194907558932436,0.8034290506594396,B,1046.9122249924112,Correct,sub_017_day_15_data.csv,1,300,170.0,Training at home,,,,,,,,,,,,,
17,19,4265,A,22.49921623525077,50.28672921345095,1.1249608117625385,0.7899020953501835,A,577.5932450051187,Correct,sub_017_day_15_data.csv,1,300,170.0,Training at home,,,,,,,,,,,,,
17,19,4266,A,67.77370681728826,85.4079661525215,3.388685340864413,1.3415851951140365,A,2702.549576992169,Correct,sub_017_day_15_data.csv,1,300,170.0,Training at home,,,,,,,,,,,,,
17,19,4267,A,13.007282797648738,40.39440144193375,0.6503641398824369,0.6345137740806801,A,2555.6970489997184,Correct,sub_017_day_15_data.csv,1,300,170.0,Training at home,,,,,,,,,,,,,
17,19,4268,A,27.28360835442272,37.13704349957058,1.364180417721136,0.5833473151714775,A,1102.4268930050312,Correct,sub_017_day_15_data.csv,1,300,170.0,Training at home,,,,,,,,,,,,,
17,19,4269,B,71.91658625923316,53.104764710603504,3.5958293129616576,0.8341676934272324,B,614.8927229951369,Correct,sub_017_day_15_data.csv,1,300,170.0,Training at home,,,,,,,,,,,,,
17,19,4270,B,59.13542099174777,50.861686202729466,2.9567710495873887,0.7989334986184212,B,654.6821419906337,Correct,sub_017_day_15_data.csv,1,300,170.0,Training at home,,,,,,,,,,,,,
17,19,4271,B,55.92715557979784,34.10184477007822,2.796357778989892,0.5356705250176863,B,710.3977180086076,Correct,sub_017_day_15_data.csv,1,300,170.0,Training at home,,,,,,,,,,,,,
17,19,4272,B,31.407008660269703,14.152191680256944,1.570350433013485,0.222302107074449,B,708.4360169974389,Correct,sub_017_day_15_data.csv,1,300,170.0,Training at home,,,,,,,,,,,,,
17,19,4273,A,48.17595863543612,75.66223502573129,2.4087979317718062,1.1884996085551087,A,704.0714150061831,Correct,sub_017_day_15_data.csv,1,300,170.0,Training at home,,,,,,,,,,,,,
17,19,4274,A,22.69397851527805,52.21226500903404,1.1346989257639024,0.8201483408983239,A,558.2302539987722,Correct,sub_017_day_15_data.csv,1,300,170.0,Training at home,,,,,,,,,,,,,
17,19,4275,A,39.24021468802976,59.381372235904365,1.962010734401488,0.9327604138819904,A,476.8967230047565,Correct,sub_017_day_15_data.csv,1,300,171.0,Training at home,,,,,,,,,,,,,
17,19,4276,B,79.00388010512553,49.09621132002365,3.950194005256277,0.7712014840103917,B,474.1924100089818,Correct,sub_017_day_15_data.csv,1,300,171.0,Training at home,,,,,,,,,,,,,
17,19,4277,A,50.75220177885882,69.7241906282609,2.537610088942941,1.0952250252761937,A,582.8770259977318,Correct,sub_017_day_15_data.csv,1,300,171.0,Training at home,,,,,,,,,,,,,
17,19,4278,B,62.341870427928946,33.36728374663712,3.1170935213964475,0.5241320674434065,B,554.7684229968581,Correct,sub_017_day_15_data.csv,1,300,171.0,Training at home,,,,,,,,,,,,,
17,19,4279,A,40.297250760318015,51.84818951247455,2.0148625380159007,0.8144294563716069,A,1302.940100998967,Correct,sub_017_day_15_data.csv,1,300,171.0,Training at home,,,,,,,,,,,,,
17,19,4280,B,83.94997453187875,64.35024362145273,4.197498726593937,1.0108112630893469,B,779.1857560077915,Correct,sub_017_day_15_data.csv,1,300,171.0,Training at home,,,,,,,,,,,,,
17,19,4281,A,29.37799305666897,50.72298386607267,1.4688996528334486,0.7967547674090375,A,1280.7199810049497,Correct,sub_017_day_15_data.csv,1,300,171.0,Training at home,,,,,,,,,,,,,
17,19,4282,B,77.78925293718044,54.92403598900571,3.889462646859022,0.8627447398428087,B,1242.3762469989017,Correct,sub_017_day_15_data.csv,1,300,171.0,Training at home,,,,,,,,,,,,,
17,19,4283,A,27.860722970833713,56.970082084377765,1.3930361485416856,0.8948839567534435,A,543.3339519950096,Correct,sub_017_day_15_data.csv,1,300,171.0,Training at home,,,,,,,,,,,,,
17,19,4284,B,51.357692202694494,43.22750023531015,2.5678846101347244,0.6790159858615071,A,1420.9355630009668,Incorrect,sub_017_day_15_data.csv,0,300,171.0,Training at home,,,,,,,,,,,,,
17,19,4285,B,67.83981813064602,53.6699210948156,3.391990906532301,0.8430451491510828,B,1097.5290320056956,Correct,sub_017_day_15_data.csv,1,300,171.0,Training at home,,,,,,,,,,,,,
17,19,4286,B,72.91874605928896,59.67616292191697,3.6459373029644486,0.9373909751496096,B,1820.634185001836,Correct,sub_017_day_15_data.csv,1,300,171.0,Training at home,,,,,,,,,,,,,
17,19,4287,A,22.37175706267065,50.448338009359254,1.1185878531335325,0.7924406403800888,A,1451.9589069968788,Correct,sub_017_day_15_data.csv,1,300,171.0,Training at home,,,,,,,,,,,,,
17,19,4288,B,64.30172539859558,49.54484925929965,3.215086269929779,0.7782486722811476,B,810.7877039874438,Correct,sub_017_day_15_data.csv,1,300,171.0,Training at home,,,,,,,,,,,,,
17,19,4289,A,34.27305886365124,45.91922831540511,1.713652943182562,0.7212975516709453,A,686.8920999986585,Correct,sub_017_day_15_data.csv,1,300,171.0,Training at home,,,,,,,,,,,,,
17,19,4290,A,20.649324376201896,45.125590367869094,1.0324662188100948,0.7088311159429993,A,1029.8494040034711,Correct,sub_017_day_15_data.csv,1,300,171.0,Training at home,,,,,,,,,,,,,
17,19,4291,A,44.94621904786906,65.78435967482193,2.2473109523934527,1.033338305377646,A,928.5844869882568,Correct,sub_017_day_15_data.csv,1,300,171.0,Training at home,,,,,,,,,,,,,
17,19,4292,A,17.553799582332,47.17252809275184,0.8776899791166001,0.7409843385372366,A,1367.305687002954,Correct,sub_017_day_15_data.csv,1,300,171.0,Training at home,,,,,,,,,,,,,
17,19,4293,B,76.90262097410869,48.329985303090865,3.845131048705434,0.7591656338814646,B,1655.7041139894864,Correct,sub_017_day_15_data.csv,1,300,171.0,Training at home,,,,,,,,,,,,,
17,19,4294,A,19.39207728215031,50.95293827137761,0.9696038641075156,0.8003668827608706,A,1108.990521999658,Correct,sub_017_day_15_data.csv,1,300,171.0,Training at home,,,,,,,,,,,,,
17,19,4295,B,77.3404813351496,64.90938007887253,3.86702406675748,1.019594158024268,B,1018.6807949939976,Correct,sub_017_day_15_data.csv,1,300,171.0,Training at home,,,,,,,,,,,,,
17,19,4296,A,58.69517023473339,81.45910930780988,2.9347585117366695,1.2795566968469174,A,749.0674729924649,Correct,sub_017_day_15_data.csv,1,300,171.0,Training at home,,,,,,,,,,,,,
17,19,4297,A,30.03318676964024,53.34329528436783,1.501659338482012,0.837914522918205,A,2075.206769994111,Correct,sub_017_day_15_data.csv,1,300,171.0,Training at home,,,,,,,,,,,,,
17,19,4298,B,84.98851796603321,60.7470435987023,4.249425898301661,0.95421232948491,B,1170.7521799980896,Correct,sub_017_day_15_data.csv,1,300,171.0,Training at home,,,,,,,,,,,,,
17,19,4299,B,62.986119648033544,34.415247334021736,3.149305982401678,0.540593440980192,B,1391.505876003066,Correct,sub_017_day_15_data.csv,1,300,171.0,Training at home,,,,,,,,,,,,,
17,19,4300,B,50.862095026692074,36.69658541327367,2.543104751334604,0.5764286157308546,B,1582.051069999579,Correct,sub_017_day_15_data.csv,1,300,172.0,Training at home,,,,,,,,,,,,,
17,19,4301,B,75.46651973837487,50.85643394977219,3.773325986918743,0.7988509964218944,B,1018.5055720066885,Correct,sub_017_day_15_data.csv,1,300,172.0,Training at home,,,,,,,,,,,,,
17,19,4302,B,34.44861348758644,12.53033082833018,1.722430674379322,0.1968259763866589,B,999.864252997213,Correct,sub_017_day_15_data.csv,1,300,172.0,Training at home,,,,,,,,,,,,,
17,19,4303,B,54.42860802172463,31.043623137322804,2.7214304010862316,0.4876320919451173,B,1151.530435992754,Correct,sub_017_day_15_data.csv,1,300,172.0,Training at home,,,,,,,,,,,,,
17,19,4304,B,43.89246806713783,24.380400444734494,2.194623403356891,0.382966434643776,B,846.2486349890241,Correct,sub_017_day_15_data.csv,1,300,172.0,Training at home,,,,,,,,,,,,,
17,19,4305,A,66.4580293913087,78.75295796495445,3.322901469565435,1.2370485709558332,A,977.3733689944492,Correct,sub_017_day_15_data.csv,1,300,172.0,Training at home,,,,,,,,,,,,,
17,19,4306,B,59.5546583062515,38.95974531580613,2.9777329153125747,0.6119782483493295,B,758.4088440053165,Correct,sub_017_day_15_data.csv,1,300,172.0,Training at home,,,,,,,,,,,,,
17,19,4307,A,68.94389025401557,83.81502699692226,3.4471945127007784,1.316563365369806,A,636.4787180064013,Correct,sub_017_day_15_data.csv,1,300,172.0,Training at home,,,,,,,,,,,,,
17,19,4308,A,20.04319858662269,50.22070743555727,1.0021599293311343,0.7888650276881451,A,1088.71877900674,Correct,sub_017_day_15_data.csv,1,300,172.0,Training at home,,,,,,,,,,,,,
17,19,4309,B,48.10379533617801,30.258499189680048,2.4051897668089004,0.4752993938147578,A,808.2697079953505,Incorrect,sub_017_day_15_data.csv,0,300,172.0,Training at home,,,,,,,,,,,,,
17,19,4310,B,31.53320094133251,17.977345041284593,1.5766600470666254,0.2823874755637429,B,722.4243200034834,Correct,sub_017_day_15_data.csv,1,300,172.0,Training at home,,,,,,,,,,,,,
17,19,4311,B,67.96261884361967,49.17992925028728,3.3981309421809835,0.7725165221838414,B,959.6996610052884,Correct,sub_017_day_15_data.csv,1,300,172.0,Training at home,,,,,,,,,,,,,
17,19,4312,A,51.73384634350363,74.52163030031483,2.5866923171751814,1.170583031425018,A,1209.5968990033723,Correct,sub_017_day_15_data.csv,1,300,172.0,Training at home,,,,,,,,,,,,,
17,19,4313,A,63.12304106158573,80.77784727211255,3.1561520530792864,1.2688554578143356,A,1020.128164003836,Correct,sub_017_day_15_data.csv,1,300,172.0,Training at home,,,,,,,,,,,,,
17,19,4314,A,38.70877448088743,67.98479993779124,1.9354387240443711,1.067902740201684,A,1814.1907529934545,Correct,sub_017_day_15_data.csv,1,300,172.0,Training at home,,,,,,,,,,,,,
17,19,4315,B,55.16013580222522,37.5371945003913,2.758006790111261,0.5896328723940025,B,1091.420091004693,Correct,sub_017_day_15_data.csv,1,300,172.0,Training at home,,,,,,,,,,,,,
17,19,4316,A,58.18794444692939,68.18264160232178,2.90939722234647,1.0710104298009997,A,1434.8347259947332,Correct,sub_017_day_15_data.csv,1,300,172.0,Training at home,,,,,,,,,,,,,
17,19,4317,A,62.83925497439929,81.91439411187011,3.141962748719964,1.2867082938255503,A,473.903751000762,Correct,sub_017_day_15_data.csv,1,300,172.0,Training at home,,,,,,,,,,,,,
17,19,4318,A,52.861152300893266,66.12882552083344,2.643057615044663,1.0387491622338578,A,2195.0556350057013,Correct,sub_017_day_15_data.csv,1,300,172.0,Training at home,,,,,,,,,,,,,
17,19,4319,B,71.7169238985278,45.34757810670628,3.58584619492639,0.712318091190589,B,1337.9772469925229,Correct,sub_017_day_15_data.csv,1,300,172.0,Training at home,,,,,,,,,,,,,
17,19,4320,B,55.38037786968181,30.037340814621498,2.7690188934840902,0.4718254461829387,B,1442.8980329976184,Correct,sub_017_day_15_data.csv,1,300,172.0,Training at home,,,,,,,,,,,,,
17,19,4321,A,17.155452566163415,39.538555800314896,0.8577726283081708,0.6210701821790969,A,1135.3342569927918,Correct,sub_017_day_15_data.csv,1,300,172.0,Training at home,,,,,,,,,,,,,
17,19,4322,B,76.4470419089295,56.01812848359564,3.822352095446475,0.879930704559566,B,926.2124740052968,Correct,sub_017_day_15_data.csv,1,300,172.0,Training at home,,,,,,,,,,,,,
17,19,4323,B,65.0170778544717,41.08267317411231,3.250853892723585,0.6453251211681084,B,568.1386069918517,Correct,sub_017_day_15_data.csv,1,300,172.0,Training at home,,,,,,,,,,,,,
17,19,4324,A,38.896558630852354,69.14337311812581,1.9448279315426176,1.0861015651616104,A,1338.1809529964812,Correct,sub_017_day_15_data.csv,1,300,172.0,Training at home,,,,,,,,,,,,,
17,19,4325,A,14.834675262068895,30.74850356827895,0.7417337631034449,0.4829963645949234,A,991.8361400050344,Correct,sub_017_day_15_data.csv,1,300,173.0,Training at home,,,,,,,,,,,,,
17,19,4326,A,52.77648620286955,73.12015059258775,2.638824310143477,1.1485686396552652,A,1066.415341992979,Correct,sub_017_day_15_data.csv,1,300,173.0,Training at home,,,,,,,,,,,,,
17,19,4327,B,68.17420349330307,52.17734205950251,3.4087101746651536,0.8195997724898741,B,587.6162670028862,Correct,sub_017_day_15_data.csv,1,300,173.0,Training at home,,,,,,,,,,,,,
17,19,4328,B,72.97149692193472,46.23544588914882,3.648574846096736,0.7262646857039917,B,4078.544910997152,Correct,sub_017_day_15_data.csv,1,300,173.0,Training at home,,,,,,,,,,,,,
17,19,4329,B,36.4873263622279,16.822714135586747,1.8243663181113947,0.2642505757090024,B,1020.021322008688,Correct,sub_017_day_15_data.csv,1,300,173.0,Training at home,,,,,,,,,,,,,
17,19,4330,B,81.05841394818434,64.17216971714086,4.052920697409217,1.0080140847414356,B,1235.0695410132175,Correct,sub_017_day_15_data.csv,1,300,173.0,Training at home,,,,,,,,,,,,,
17,19,4331,A,45.88674549840408,75.93838632997385,2.294337274920204,1.192837383098547,A,796.8618019949645,Correct,sub_017_day_15_data.csv,1,300,173.0,Training at home,,,,,,,,,,,,,
17,19,4332,B,38.75230555830305,27.28520752201755,1.9376152779151523,0.4285950375142165,B,1457.6501150004333,Correct,sub_017_day_15_data.csv,1,300,173.0,Training at home,,,,,,,,,,,,,
17,19,4333,B,61.29057687407857,34.53645678789542,3.064528843703928,0.542497394629368,B,1114.721225007088,Correct,sub_017_day_15_data.csv,1,300,173.0,Training at home,,,,,,,,,,,,,
17,19,4334,A,64.3498273457453,84.78604290449336,3.217491367287265,1.3318160475785266,A,839.6347860107198,Correct,sub_017_day_15_data.csv,1,300,173.0,Training at home,,,,,,,,,,,,,
17,19,4335,B,49.37562872442879,19.83402069684121,2.46878143622144,0.3115520685617213,B,1455.270546997781,Correct,sub_017_day_15_data.csv,1,300,173.0,Training at home,,,,,,,,,,,,,
17,19,4336,A,53.04778791164147,61.18566063625495,2.652389395582073,0.9611021097994836,A,1504.7287219931604,Correct,sub_017_day_15_data.csv,1,300,173.0,Training at home,,,,,,,,,,,,,
17,19,4337,B,78.18245734140164,64.15796974648337,3.909122867070082,1.0077910321239418,B,1773.2659220055211,Correct,sub_017_day_15_data.csv,1,300,173.0,Training at home,,,,,,,,,,,,,
17,19,4338,B,61.54781122588001,35.290697313663685,3.077390561294001,0.5543449771033344,B,2224.0041850018315,Correct,sub_017_day_15_data.csv,1,300,173.0,Training at home,,,,,,,,,,,,,
17,19,4339,A,34.23546536182186,54.15382866058146,1.711773268091093,0.8506463514192155,A,1228.0461360060144,Correct,sub_017_day_15_data.csv,1,300,173.0,Training at home,,,,,,,,,,,,,
17,19,4340,A,27.0931411970782,60.04409172373359,1.35465705985391,0.9431703872537656,A,913.3307269949,Correct,sub_017_day_15_data.csv,1,300,173.0,Training at home,,,,,,,,,,,,,
17,19,4341,B,60.10354527391095,32.82656786475791,3.005177263695548,0.5156385222324512,B,1436.5448500029745,Correct,sub_017_day_15_data.csv,1,300,173.0,Training at home,,,,,,,,,,,,,
17,19,4342,A,17.19446512299319,42.296238961433374,0.8597232561496595,0.6643877679785873,A,1151.3647339888848,Correct,sub_017_day_15_data.csv,1,300,173.0,Training at home,,,,,,,,,,,,,
17,19,4343,A,33.01963701859891,44.31010632134459,1.6509818509299452,0.696021522494594,A,1494.7669840039453,Correct,sub_017_day_15_data.csv,1,300,173.0,Training at home,,,,,,,,,,,,,
17,19,4344,A,27.37523123464584,43.11284783624223,1.368761561732292,0.6772150301883659,A,1549.9118190055017,Correct,sub_017_day_15_data.csv,1,300,173.0,Training at home,,,,,,,,,,,,,
17,19,4345,A,31.33136083182703,41.17116227602098,1.5665680415913517,0.6467151047305036,A,661.7264730011811,Correct,sub_017_day_15_data.csv,1,300,173.0,Training at home,,,,,,,,,,,,,
17,19,4346,B,67.12110000465454,46.933136619005914,3.3560550002327267,0.7372239860609754,B,1732.755899996846,Correct,sub_017_day_15_data.csv,1,300,173.0,Training at home,,,,,,,,,,,,,
17,19,4347,B,52.272945302904766,25.37836546783169,2.6136472651452385,0.3986424325692846,B,1252.8485499933597,Correct,sub_017_day_15_data.csv,1,300,173.0,Training at home,,,,,,,,,,,,,
17,19,4348,A,48.582659408424185,70.46128654341057,2.4291329704212092,1.1068033008363198,A,1204.174055994372,Correct,sub_017_day_15_data.csv,1,300,173.0,Training at home,,,,,,,,,,,,,
17,19,4349,A,68.94121500830896,86.96043390827643,3.447060750415448,1.36597130159611,A,1734.271487002843,Correct,sub_017_day_15_data.csv,1,300,173.0,Training at home,,,,,,,,,,,,,
17,19,4350,B,47.863722653600426,33.897357697972126,2.3931861326800212,0.5324584496002732,A,1445.5493179993937,Incorrect,sub_017_day_15_data.csv,0,300,174.0,Training at home,,,,,,,,,,,,,
17,19,4351,B,81.28016962595918,67.32538293250528,4.064008481297958,1.0575446421043913,A,778.2877139979973,Incorrect,sub_017_day_15_data.csv,0,300,174.0,Training at home,,,,,,,,,,,,,
17,19,4352,B,33.64710684235807,18.663680217353967,1.6823553421179036,0.2931684032989418,B,655.96294500574,Correct,sub_017_day_15_data.csv,1,300,174.0,Training at home,,,,,,,,,,,,,
17,19,4353,B,46.66767294723261,18.672950086766413,2.3333836473616305,0.2933140140671713,B,564.0743129915791,Correct,sub_017_day_15_data.csv,1,300,174.0,Training at home,,,,,,,,,,,,,
17,19,4354,B,52.33365667633704,28.712366809308385,2.6166828338168524,0.451012803176493,A,488.3093680109596,Incorrect,sub_017_day_15_data.csv,0,300,174.0,Training at home,,,,,,,,,,,,,
17,19,4355,B,81.49963270502758,59.73401293759456,4.074981635251379,0.9382996810709234,A,709.5930240029702,Incorrect,sub_017_day_15_data.csv,0,300,174.0,Training at home,,,,,,,,,,,,,
17,19,4356,A,40.00483489066357,64.18924288250808,2.0002417445331786,1.0082822693958915,A,626.4881719980622,Correct,sub_017_day_15_data.csv,1,300,174.0,Training at home,,,,,,,,,,,,,
17,19,4357,B,73.05530218284335,47.167389070033884,3.6527651091421673,0.7409036149571497,B,589.0152109932387,Correct,sub_017_day_15_data.csv,1,300,174.0,Training at home,,,,,,,,,,,,,
17,19,4358,B,52.907440770303666,44.45089457933452,2.645372038515183,0.6982330192796585,B,1096.9110389996786,Correct,sub_017_day_15_data.csv,1,300,174.0,Training at home,,,,,,,,,,,,,
17,19,4359,A,29.606510556974172,51.00676810723131,1.4803255278487086,0.8012124398451803,A,631.3316649902845,Correct,sub_017_day_15_data.csv,1,300,174.0,Training at home,,,,,,,,,,,,,
17,19,4360,B,69.021701461103,59.862765533730325,3.4510850730551503,0.9403221221216772,B,686.283557995921,Correct,sub_017_day_15_data.csv,1,300,174.0,Training at home,,,,,,,,,,,,,
17,19,4361,A,21.592527780958864,43.83852139721816,1.0796263890479432,0.6886138838286976,A,510.92841700301506,Correct,sub_017_day_15_data.csv,1,300,174.0,Training at home,,,,,,,,,,,,,
17,19,4362,A,59.87623476540885,83.14427746697366,2.993811738270443,1.3060272563913793,A,891.1476499924902,Correct,sub_017_day_15_data.csv,1,300,174.0,Training at home,,,,,,,,,,,,,
17,19,4363,B,77.54679122617324,58.815110140939666,3.877339561308662,0.9238655896942528,B,759.3799610040151,Correct,sub_017_day_15_data.csv,1,300,174.0,Training at home,,,,,,,,,,,,,
17,19,4364,A,27.323557114623988,40.25985913127849,1.3661778557311992,0.6324003884069224,A,555.1765510026598,Correct,sub_017_day_15_data.csv,1,300,174.0,Training at home,,,,,,,,,,,,,
17,19,4365,A,37.59170578071732,55.6352546185018,1.879585289035866,0.8739165359504143,A,733.9457909984048,Correct,sub_017_day_15_data.csv,1,300,174.0,Training at home,,,,,,,,,,,,,
17,19,4366,B,40.49906821636641,28.399407962717184,2.0249534108183207,0.4460968571098589,B,813.0264849896776,Correct,sub_017_day_15_data.csv,1,300,174.0,Training at home,,,,,,,,,,,,,
17,19,4367,B,72.24243365209534,40.682612726396286,3.612121682604767,0.6390409863504259,B,935.5378260079306,Correct,sub_017_day_15_data.csv,1,300,174.0,Training at home,,,,,,,,,,,,,
17,19,4368,B,40.55335825265563,17.096706509299704,2.0276679126327815,0.2685544378509837,B,594.2231140070362,Correct,sub_017_day_15_data.csv,1,300,174.0,Training at home,,,,,,,,,,,,,
17,19,4369,B,42.25812704082966,14.86966336929826,2.1129063520414832,0.2335721260117033,B,993.727494002087,Correct,sub_017_day_15_data.csv,1,300,174.0,Training at home,,,,,,,,,,,,,
17,19,4370,B,44.21677034806259,36.56291387553986,2.21083851740313,0.5743289081261618,B,1568.2076280063484,Correct,sub_017_day_15_data.csv,1,300,174.0,Training at home,,,,,,,,,,,,,
17,19,4371,B,48.09121786974826,31.496289921991327,2.4045608934874134,0.4947425651713109,B,791.4500329934526,Correct,sub_017_day_15_data.csv,1,300,174.0,Training at home,,,,,,,,,,,,,
17,19,4372,A,55.39074827166736,74.83534347205335,2.769537413583368,1.1755108264033585,A,434.205227997154,Correct,sub_017_day_15_data.csv,1,300,174.0,Training at home,,,,,,,,,,,,,
17,19,4373,B,55.08247243624768,27.50320649000089,2.754123621812385,0.4320193572957495,B,531.4550549956039,Correct,sub_017_day_15_data.csv,1,300,174.0,Training at home,,,,,,,,,,,,,
17,19,4374,B,68.41300072032506,58.070268467507454,3.420650036016253,0.912165644047542,A,948.8168579991908,Incorrect,sub_017_day_15_data.csv,0,300,174.0,Training at home,,,,,,,,,,,,,
17,19,4375,A,49.141459876045786,76.8551532900107,2.4570729938022895,1.207237924832075,A,1966.5456359944071,Correct,sub_017_day_15_data.csv,1,300,175.0,Training at home,,,,,,,,,,,,,
17,19,4376,A,55.1766691534158,81.70011918355652,2.75883345767079,1.2833424711223584,A,1365.390123988618,Correct,sub_017_day_15_data.csv,1,300,175.0,Training at home,,,,,,,,,,,,,
17,19,4377,B,52.48424908299137,43.961531861407664,2.6242124541495686,0.6905461276817597,B,1609.9251670093508,Correct,sub_017_day_15_data.csv,1,300,175.0,Training at home,,,,,,,,,,,,,
17,19,4378,B,54.38074027771421,37.65400875766239,2.7190370138857105,0.5914677864563895,B,1273.9202590018976,Correct,sub_017_day_15_data.csv,1,300,175.0,Training at home,,,,,,,,,,,,,
17,19,4379,A,52.85701051811937,70.76574189785546,2.6428505259059683,1.111585674360671,A,820.0219230056973,Correct,sub_017_day_15_data.csv,1,300,175.0,Training at home,,,,,,,,,,,,,
17,19,4380,A,57.29418052881617,68.50422093702696,2.8647090264408086,1.07606178617828,A,897.8755099960836,Correct,sub_017_day_15_data.csv,1,300,175.0,Training at home,,,,,,,,,,,,,
17,19,4381,B,81.98157202881879,54.08290689435905,4.099078601440939,0.8495323149204957,B,1122.0510769926475,Correct,sub_017_day_15_data.csv,1,300,175.0,Training at home,,,,,,,,,,,,,
17,19,4382,A,28.194199473928595,43.260188130063874,1.4097099736964298,0.6795294461116052,A,570.4893479996826,Correct,sub_017_day_15_data.csv,1,300,175.0,Training at home,,,,,,,,,,,,,
17,19,4383,B,83.87617919652257,55.47797877054581,4.193808959826129,0.8714460527077861,B,1051.1445199954323,Correct,sub_017_day_15_data.csv,1,300,175.0,Training at home,,,,,,,,,,,,,
17,19,4384,A,37.0880898838722,62.71648797206551,1.8544044941936104,0.985148289359968,A,1308.3161969989303,Correct,sub_017_day_15_data.csv,1,300,175.0,Training at home,,,,,,,,,,,,,
17,19,4385,B,85.64934743851353,63.02378673162282,4.2824673719256765,0.9899753269873808,B,880.1885840075556,Correct,sub_017_day_15_data.csv,1,300,175.0,Training at home,,,,,,,,,,,,,
17,19,4386,A,58.53580485219965,83.54507019296632,2.9267902426099823,1.312322893809333,A,1093.1525300111389,Correct,sub_017_day_15_data.csv,1,300,175.0,Training at home,,,,,,,,,,,,,
17,19,4387,A,56.816001465875885,85.34950536179758,2.8408000732937944,1.3406668951607297,A,777.4257220007712,Correct,sub_017_day_15_data.csv,1,300,175.0,Training at home,,,,,,,,,,,,,
17,19,4388,A,64.30546211700872,76.8176472724576,3.2152731058504354,1.206648781686024,A,965.8253679954214,Correct,sub_017_day_15_data.csv,1,300,175.0,Training at home,,,,,,,,,,,,,
17,19,4389,A,54.65512021205545,79.29482786619448,2.7327560106027726,1.245560243460519,A,458.0140939942794,Correct,sub_017_day_15_data.csv,1,300,175.0,Training at home,,,,,,,,,,,,,
17,19,4390,B,43.896554288920264,24.50918050164761,2.194827714446013,0.3849893070474116,B,1274.9865600053454,Correct,sub_017_day_15_data.csv,1,300,175.0,Training at home,,,,,,,,,,,,,
17,19,4391,B,70.56752980178084,39.3769085023916,3.528376490089042,0.6185310323609546,B,900.880455999868,Correct,sub_017_day_15_data.csv,1,300,175.0,Training at home,,,,,,,,,,,,,
17,19,4392,B,55.44280896328686,48.23612420768726,2.772140448164343,0.7576912672425755,A,721.4699839969398,Incorrect,sub_017_day_15_data.csv,0,300,175.0,Training at home,,,,,,,,,,,,,
17,19,4393,B,51.62096370329266,26.703879484874783,2.581048185164633,0.4194635580601491,B,686.4601709967246,Correct,sub_017_day_15_data.csv,1,300,175.0,Training at home,,,,,,,,,,,,,
17,19,4394,A,53.73433421159313,75.26939857130982,2.686716710579656,1.182328947958745,A,879.1664269956527,Correct,sub_017_day_15_data.csv,1,300,175.0,Training at home,,,,,,,,,,,,,
17,19,4395,A,31.420036018413413,40.06037846781597,1.5710018009206703,0.629266953472587,A,614.0435999986948,Correct,sub_017_day_15_data.csv,1,300,175.0,Training at home,,,,,,,,,,,,,
17,19,4396,A,38.79060613402159,45.905273968761904,1.9395303067010792,0.7210783573064458,A,1156.683351000538,Correct,sub_017_day_15_data.csv,1,300,175.0,Training at home,,,,,,,,,,,,,
17,19,4397,A,21.28576699076429,46.66466107951655,1.0642883495382145,0.7330067821483337,A,813.0648929945892,Correct,sub_017_day_15_data.csv,1,300,175.0,Training at home,,,,,,,,,,,,,
17,19,4398,A,30.18850287727178,39.114020224383914,1.509425143863589,0.6144015929464355,A,889.0306190005504,Correct,sub_017_day_15_data.csv,1,300,175.0,Training at home,,,,,,,,,,,,,
17,19,4399,B,55.15022338542462,37.36577732888457,2.757511169271231,0.5869402577604791,B,1660.3612690087175,Correct,sub_017_day_15_data.csv,1,300,175.0,Training at home,,,,,,,,,,,,,
17,19,4400,A,22.35180212838044,52.6863139327477,1.117590106419022,0.8275946839792288,A,613.0981830065139,Correct,sub_017_day_15_data.csv,1,300,176.0,Training at home,,,,,,,,,,,,,
17,19,4401,B,68.60740346315102,56.75251888232573,3.4303701731575504,0.8914664819671526,B,1232.2392339992805,Correct,sub_017_day_15_data.csv,1,300,176.0,Training at home,,,,,,,,,,,,,
17,19,4402,A,48.81428694499002,55.47703549778727,2.440714347249501,0.8714312358139431,A,1042.869861004874,Correct,sub_017_day_15_data.csv,1,300,176.0,Training at home,,,,,,,,,,,,,
17,19,4403,A,51.225264207430726,67.29129407701281,2.561263210371536,1.0570091756144688,A,983.89118500927,Correct,sub_017_day_15_data.csv,1,300,176.0,Training at home,,,,,,,,,,,,,
17,19,4404,B,80.83580585387463,58.20257127135355,4.041790292693731,0.9142438516306032,B,681.8682099983562,Correct,sub_017_day_15_data.csv,1,300,176.0,Training at home,,,,,,,,,,,,,
17,19,4405,B,72.14322374951988,52.99729108685758,3.6071611874759935,0.8324795016931581,B,840.3943459998118,Correct,sub_017_day_15_data.csv,1,300,176.0,Training at home,,,,,,,,,,,,,
17,19,4406,B,60.505735340693434,46.69632325922299,3.0252867670346717,0.7335041305041458,A,3498.4938699926715,Incorrect,sub_017_day_15_data.csv,0,300,176.0,Training at home,,,,,,,,,,,,,
17,19,4407,A,28.581603969925105,50.56396597533916,1.4290801984962551,0.7942569202224488,A,982.6362570020136,Correct,sub_017_day_15_data.csv,1,300,176.0,Training at home,,,,,,,,,,,,,
17,19,4408,B,79.43621731517821,59.73547627298362,3.971810865758911,0.9383226670894638,B,856.4806259964826,Correct,sub_017_day_15_data.csv,1,300,176.0,Training at home,,,,,,,,,,,,,
17,19,4409,B,80.21420646403737,62.56571767761976,4.010710323201868,0.9827799951129164,B,824.6495200000936,Correct,sub_017_day_15_data.csv,1,300,176.0,Training at home,,,,,,,,,,,,,
17,19,4410,A,59.8701025744157,77.75537906296631,2.993505128720785,1.2213786382065228,A,1490.1285660016583,Correct,sub_017_day_15_data.csv,1,300,176.0,Training at home,,,,,,,,,,,,,
17,19,4411,A,49.15901610224296,58.81649447180111,2.457950805112148,0.9238873347125752,A,1022.5560480030254,Correct,sub_017_day_15_data.csv,1,300,176.0,Training at home,,,,,,,,,,,,,
17,19,4412,A,64.10453443257373,78.7310607828235,3.2052267216286863,1.236704610823249,A,634.1465419973247,Correct,sub_017_day_15_data.csv,1,300,176.0,Training at home,,,,,,,,,,,,,
17,19,4413,A,56.79285519787451,72.67097596805068,2.839642759893726,1.1415130211521425,A,528.5651549929753,Correct,sub_017_day_15_data.csv,1,300,176.0,Training at home,,,,,,,,,,,,,
17,19,4414,B,58.35357654935546,27.553950830941556,2.917678827467773,0.4328164475393018,B,622.1906509890687,Correct,sub_017_day_15_data.csv,1,300,176.0,Training at home,,,,,,,,,,,,,
17,19,4415,A,14.24836590138273,38.85448099425964,0.7124182950691365,0.6103247602530516,A,1284.553876001155,Correct,sub_017_day_15_data.csv,1,300,176.0,Training at home,,,,,,,,,,,,,
17,19,4416,A,38.798104493947456,60.82655897275967,1.9399052246973727,0.9554613540598405,A,1528.0381940101506,Correct,sub_017_day_15_data.csv,1,300,176.0,Training at home,,,,,,,,,,,,,
17,19,4417,A,30.012892527317323,50.53045433144801,1.5006446263658662,0.7937305205511581,B,888.1373219919624,Incorrect,sub_017_day_15_data.csv,0,300,176.0,Training at home,,,,,,,,,,,,,
17,19,4418,A,24.58262712535476,42.023451609422295,1.229131356267738,0.6601028342732362,A,1114.3807500047842,Correct,sub_017_day_15_data.csv,1,300,176.0,Training at home,,,,,,,,,,,,,
17,19,4419,B,66.81652181082544,47.3876707674503,3.3408260905412717,0.7443637917687684,B,732.6574839971727,Correct,sub_017_day_15_data.csv,1,300,176.0,Training at home,,,,,,,,,,,,,
17,19,4420,A,66.37735001433043,81.35625830354076,3.3188675007165216,1.2779411170497863,A,532.533618999878,Correct,sub_017_day_15_data.csv,1,300,176.0,Training at home,,,,,,,,,,,,,
17,19,4421,B,79.03835999146936,51.96542622149972,3.951917999573468,0.8162710062906297,B,1811.5179619926496,Correct,sub_017_day_15_data.csv,1,300,176.0,Training at home,,,,,,,,,,,,,
17,19,4422,A,38.639401673502064,48.37771590697836,1.931970083675103,0.7599153844540865,A,510.1671059965156,Correct,sub_017_day_15_data.csv,1,300,176.0,Training at home,,,,,,,,,,,,,
17,19,4423,A,18.278372444360045,42.7973699108983,0.9139186222180022,0.6722595145252147,A,854.1654430009658,Correct,sub_017_day_15_data.csv,1,300,176.0,Training at home,,,,,,,,,,,,,
17,19,4424,A,44.821141470345864,69.44442290271667,2.241057073517293,1.0908304441197874,A,1418.4693290008,Correct,sub_017_day_15_data.csv,1,300,176.0,Training at home,,,,,,,,,,,,,
17,19,4425,B,66.86336310159284,41.66916571183479,3.343168155079642,0.6545377244075794,B,690.9213829931105,Correct,sub_017_day_15_data.csv,1,300,177.0,Training at home,,,,,,,,,,,,,
17,19,4426,B,73.14826881386843,56.05086557120032,3.657413440693422,0.88044493752916,A,954.4165099941893,Incorrect,sub_017_day_15_data.csv,0,300,177.0,Training at home,,,,,,,,,,,,,
17,19,4427,B,53.04827400573112,35.40058332021928,2.6524137002865564,0.5560710624579713,B,1533.7832890072605,Correct,sub_017_day_15_data.csv,1,300,177.0,Training at home,,,,,,,,,,,,,
17,19,4428,A,35.46870463907521,59.205075044819885,1.7734352319537607,0.9299911440801928,A,2940.388458009693,Correct,sub_017_day_15_data.csv,1,300,177.0,Training at home,,,,,,,,,,,,,
17,19,4429,B,37.45589997131346,20.133474269493913,1.8727949985656729,0.316255874281406,B,673.5782159958035,Correct,sub_017_day_15_data.csv,1,300,177.0,Training at home,,,,,,,,,,,,,
17,19,4430,B,88.16064476857521,65.43899588264034,4.408032238428761,1.027913343615978,B,1240.0950660085073,Correct,sub_017_day_15_data.csv,1,300,177.0,Training at home,,,,,,,,,,,,,
17,19,4431,A,32.43989399971005,48.67784338417864,1.6219946999855026,0.7646297758416507,A,1502.9326869989743,Correct,sub_017_day_15_data.csv,1,300,177.0,Training at home,,,,,,,,,,,,,
17,19,4432,A,31.40245311968542,55.96902755128856,1.570122655984271,0.8791594289184642,A,792.336662998423,Correct,sub_017_day_15_data.csv,1,300,177.0,Training at home,,,,,,,,,,,,,
17,19,4433,B,41.09014003729268,30.491216946180113,2.054507001864634,0.4789549157856602,B,2043.811020994326,Correct,sub_017_day_15_data.csv,1,300,177.0,Training at home,,,,,,,,,,,,,
17,19,4434,B,86.69401454756985,60.3436503515387,4.334700727378492,0.9478758431759255,B,647.5835739984177,Correct,sub_017_day_15_data.csv,1,300,177.0,Training at home,,,,,,,,,,,,,
17,19,4435,A,55.59075480399898,79.61562373427793,2.7795377401999493,1.2505992931728835,A,957.1209919959074,Correct,sub_017_day_15_data.csv,1,300,177.0,Training at home,,,,,,,,,,,,,
17,19,4436,A,13.182515735439132,38.37337005353727,0.6591257867719565,0.6027674872683764,A,817.3090510099428,Correct,sub_017_day_15_data.csv,1,300,177.0,Training at home,,,,,,,,,,,,,
17,19,4437,B,65.78962927025191,42.5463316982309,3.2894814635125953,0.6683162155017837,B,934.9287489894778,Correct,sub_017_day_15_data.csv,1,300,177.0,Training at home,,,,,,,,,,,,,
17,19,4438,B,73.53714909095942,44.91630541795561,3.676857454547971,0.705543675637224,B,1634.225244997651,Correct,sub_017_day_15_data.csv,1,300,177.0,Training at home,,,,,,,,,,,,,
17,19,4439,B,49.344463628653806,34.79764049052183,2.4672231814326904,0.5466000586364106,B,732.0588230068097,Correct,sub_017_day_15_data.csv,1,300,177.0,Training at home,,,,,,,,,,,,,
17,19,4440,A,20.234058280691112,40.90710952367922,1.0117029140345557,0.6425673737959184,A,1214.022529005888,Correct,sub_017_day_15_data.csv,1,300,177.0,Training at home,,,,,,,,,,,,,
17,19,4441,B,70.9040061159622,46.86750322452885,3.5452003057981103,0.7361930191113788,B,1356.244695998612,Correct,sub_017_day_15_data.csv,1,300,177.0,Training at home,,,,,,,,,,,,,
17,19,4442,A,45.25268775964808,71.50931083421722,2.262634387982404,1.1232656279002289,A,1597.9920999961903,Correct,sub_017_day_15_data.csv,1,300,177.0,Training at home,,,,,,,,,,,,,
17,19,4443,A,15.882501759221247,38.99803788161776,0.7941250879610624,0.612579746566534,A,1203.212191001512,Correct,sub_017_day_15_data.csv,1,300,177.0,Training at home,,,,,,,,,,,,,
17,19,4444,B,34.29792475494334,10.628230573491798,1.7148962377471668,0.1669478554517013,B,1009.449946010136,Correct,sub_017_day_15_data.csv,1,300,177.0,Training at home,,,,,,,,,,,,,
17,19,4445,A,34.09707844299132,54.415772204240696,1.704853922149566,0.8547609509812912,A,751.8164289940614,Correct,sub_017_day_15_data.csv,1,300,177.0,Training at home,,,,,,,,,,,,,
17,19,4446,A,62.45624888754868,79.97172719084548,3.122812444377434,1.2561929531882363,A,1335.6048860005103,Correct,sub_017_day_15_data.csv,1,300,177.0,Training at home,,,,,,,,,,,,,
17,19,4447,B,39.763417266300834,15.823941029625956,1.988170863315042,0.248561884447555,B,2087.434264001786,Correct,sub_017_day_15_data.csv,1,300,177.0,Training at home,,,,,,,,,,,,,
17,19,4448,B,77.35928229233463,61.217279275635875,3.8679641146167314,0.9615987742254616,B,1838.8355990027776,Correct,sub_017_day_15_data.csv,1,300,177.0,Training at home,,,,,,,,,,,,,
17,19,4449,A,34.815513189308206,65.97464835679648,1.7407756594654102,1.0363273530044088,A,1394.315027006087,Correct,sub_017_day_15_data.csv,1,300,177.0,Training at home,,,,,,,,,,,,,
17,19,4450,B,30.236279525925436,11.767124613443166,1.511813976296272,0.1848375611973434,B,1557.4165389989505,Correct,sub_017_day_15_data.csv,1,300,178.0,Training at home,,,,,,,,,,,,,
17,19,4451,B,83.61529935601781,54.714840554120386,4.180764967800891,0.8594587056358074,A,887.5101390003692,Incorrect,sub_017_day_15_data.csv,0,300,178.0,Training at home,,,,,,,,,,,,,
17,19,4452,A,65.42974674716086,85.42909913668653,3.271487337358043,1.3419171512530428,A,1694.926240001223,Correct,sub_017_day_15_data.csv,1,300,178.0,Training at home,,,,,,,,,,,,,
17,19,4453,B,52.91203558005311,37.09028073948225,2.6456017790026554,0.5826127674537022,A,1573.5723090037936,Incorrect,sub_017_day_15_data.csv,0,300,178.0,Training at home,,,,,,,,,,,,,
17,19,4454,B,51.02657092249534,40.86618315977015,2.551328546124767,0.6419245039749442,B,883.7032629962778,Correct,sub_017_day_15_data.csv,1,300,178.0,Training at home,,,,,,,,,,,,,
17,19,4455,A,42.11773341285776,57.64366081995472,2.1058866706428883,0.9054645067899576,A,493.3453539997572,Correct,sub_017_day_15_data.csv,1,300,178.0,Training at home,,,,,,,,,,,,,
17,19,4456,B,50.955380659932125,22.15434378305563,2.5477690329966065,0.3479996183697513,B,1285.6194920022972,Correct,sub_017_day_15_data.csv,1,300,178.0,Training at home,,,,,,,,,,,,,
17,19,4457,B,50.87704294305568,26.572381041419188,2.543852147152784,0.417397985340556,B,1416.394550004043,Correct,sub_017_day_15_data.csv,1,300,178.0,Training at home,,,,,,,,,,,,,
17,19,4458,B,88.99761659104729,66.69154647792604,4.449880829552365,1.0475883623579736,B,1354.0543120034272,Correct,sub_017_day_15_data.csv,1,300,178.0,Training at home,,,,,,,,,,,,,
17,19,4459,A,44.95354321136043,64.24267827154296,2.2476771605680215,1.00912163052406,A,578.9135840022936,Correct,sub_017_day_15_data.csv,1,300,178.0,Training at home,,,,,,,,,,,,,
17,19,4460,A,54.57698170648386,72.89944239937503,2.7288490853241933,1.1451017634633442,A,1578.9422530069714,Correct,sub_017_day_15_data.csv,1,300,178.0,Training at home,,,,,,,,,,,,,
17,19,4461,B,35.224490333178835,20.608005083942153,1.7612245166589418,0.3237097868842689,B,3104.3880009965505,Correct,sub_017_day_15_data.csv,1,300,178.0,Training at home,,,,,,,,,,,,,
17,19,4462,A,43.28411886354648,61.40121024157859,2.164205943177324,0.9644879550823284,A,1189.383638004074,Correct,sub_017_day_15_data.csv,1,300,178.0,Training at home,,,,,,,,,,,,,
17,19,4463,A,30.47093367792982,45.923888231451855,1.523546683896491,0.7213707494610395,B,940.0677580124466,Incorrect,sub_017_day_15_data.csv,0,300,178.0,Training at home,,,,,,,,,,,,,
17,19,4464,A,17.182508138900527,31.776701174385764,0.8591254069450264,0.4991472548238423,A,501.6306359902955,Correct,sub_017_day_15_data.csv,1,300,178.0,Training at home,,,,,,,,,,,,,
17,19,4465,A,67.99068771143858,84.6656474718656,3.399534385571929,1.329924880545181,A,1785.923072005971,Correct,sub_017_day_15_data.csv,1,300,178.0,Training at home,,,,,,,,,,,,,
17,19,4466,A,21.524759351328335,35.40427013723608,1.0762379675664169,0.5561289748442468,A,2186.6195459879236,Correct,sub_017_day_15_data.csv,1,300,178.0,Training at home,,,,,,,,,,,,,
17,19,4467,B,39.17795730353801,30.62360370956148,1.9588978651769,0.4810344422020174,B,836.7503000044962,Correct,sub_017_day_15_data.csv,1,300,178.0,Training at home,,,,,,,,,,,,,
17,19,4468,A,52.2873921102517,69.99479166047007,2.614369605512585,1.0994756163504045,A,882.6220229966566,Correct,sub_017_day_15_data.csv,1,300,178.0,Training at home,,,,,,,,,,,,,
17,19,4469,A,49.294136044108896,58.44216900058551,2.464706802205445,0.9180074439604629,A,985.4983629920752,Correct,sub_017_day_15_data.csv,1,300,178.0,Training at home,,,,,,,,,,,,,
17,19,4470,A,37.48733133003807,55.31628687449238,1.8743665665019031,0.8689062023438539,A,1751.823026992497,Correct,sub_017_day_15_data.csv,1,300,178.0,Training at home,,,,,,,,,,,,,
17,19,4471,A,27.663038372271014,48.14744662047398,1.3831519186135506,0.7562983229599387,A,1980.229524007882,Correct,sub_017_day_15_data.csv,1,300,178.0,Training at home,,,,,,,,,,,,,
17,19,4472,B,57.92512535872539,49.487808345435504,2.89625626793627,0.7773526757013992,B,1799.4514959864318,Correct,sub_017_day_15_data.csv,1,300,178.0,Training at home,,,,,,,,,,,,,
17,19,4473,B,72.02660138062885,42.70701162233728,3.6013300690314423,0.6708401698475437,B,2042.7063449897105,Correct,sub_017_day_15_data.csv,1,300,178.0,Training at home,,,,,,,,,,,,,
17,19,4474,B,54.027290290994216,30.685286336084,2.7013645145497107,0.4820033506337037,B,1544.8054560110904,Correct,sub_017_day_15_data.csv,1,300,178.0,Training at home,,,,,,,,,,,,,
17,19,4475,B,44.70435363384284,35.49453596504905,2.2352176816921423,0.5575468671518841,A,1542.7586730074836,Incorrect,sub_017_day_15_data.csv,0,300,179.0,Training at home,,,,,,,,,,,,,
17,19,4476,A,62.606873482635365,77.0066095624077,3.130343674131768,1.2096169943955877,A,1144.8463929991703,Correct,sub_017_day_15_data.csv,1,300,179.0,Training at home,,,,,,,,,,,,,
17,19,4477,A,30.49440649233043,41.86212096928349,1.5247203246165215,0.6575686585039411,B,673.1599850027123,Incorrect,sub_017_day_15_data.csv,0,300,179.0,Training at home,,,,,,,,,,,,,
17,19,4478,A,18.01834545182885,45.86475572485202,0.9009172725914424,0.7204418982194276,A,2353.5007440077607,Correct,sub_017_day_15_data.csv,1,300,179.0,Training at home,,,,,,,,,,,,,
17,19,4479,B,76.91624396450104,46.69570361464738,3.845812198225052,0.7334943971499127,B,801.858930994058,Correct,sub_017_day_15_data.csv,1,300,179.0,Training at home,,,,,,,,,,,,,
17,19,4480,A,16.35980252558198,37.1721887330604,0.8179901262790991,0.5838993752081791,A,625.4808210069314,Correct,sub_017_day_15_data.csv,1,300,179.0,Training at home,,,,,,,,,,,,,
17,19,4481,A,46.32824325498931,67.38110098827279,2.3164121627494656,1.0584198592777485,A,1869.5570140116615,Correct,sub_017_day_15_data.csv,1,300,179.0,Training at home,,,,,,,,,,,,,
17,19,4482,B,60.32342323403136,42.80147609385452,3.016171161701568,0.6723240142962625,B,4194.078483007615,Correct,sub_017_day_15_data.csv,1,300,179.0,Training at home,,,,,,,,,,,,,
17,19,4483,B,47.801017790259046,36.948215742865386,2.390050889512952,0.5803812157051832,B,3307.0362559956266,Correct,sub_017_day_15_data.csv,1,300,179.0,Training at home,,,,,,,,,,,,,
17,19,4484,A,40.87119530710132,61.33704312470534,2.0435597653550657,0.963480020367473,A,2296.9824080064427,Correct,sub_017_day_15_data.csv,1,300,179.0,Training at home,,,,,,,,,,,,,
17,19,4485,A,37.31869666613694,60.45334555195169,1.8659348333068468,0.9495989313546832,A,719.2810279957484,Correct,sub_017_day_15_data.csv,1,300,179.0,Training at home,,,,,,,,,,,,,
17,19,4486,B,71.43528425427775,60.91549029081298,3.5717642127138873,0.9568582839371924,A,1168.44802700507,Incorrect,sub_017_day_15_data.csv,0,300,179.0,Training at home,,,,,,,,,,,,,
17,19,4487,B,76.49594008052736,58.35497105888321,3.824797004026368,0.9166377418951625,B,505.3029440023238,Correct,sub_017_day_15_data.csv,1,300,179.0,Training at home,,,,,,,,,,,,,
17,19,4488,B,69.60171664037313,59.68450464846143,3.4800858320186565,0.9375220066837612,A,962.8289739921456,Incorrect,sub_017_day_15_data.csv,0,300,179.0,Training at home,,,,,,,,,,,,,
17,19,4489,B,48.61919051948596,17.865856992315376,2.430959525974298,0.2806362253857191,B,876.7957259988179,Correct,sub_017_day_15_data.csv,1,300,179.0,Training at home,,,,,,,,,,,,,
17,19,4490,B,44.14310472134657,32.965998832560956,2.207155236067328,0.517828698753116,B,946.7196100013098,Correct,sub_017_day_15_data.csv,1,300,179.0,Training at home,,,,,,,,,,,,,
17,19,4491,B,65.02069078422778,34.319283915576214,3.251034539211389,0.539086051128183,B,659.7463710058946,Correct,sub_017_day_15_data.csv,1,300,179.0,Training at home,,,,,,,,,,,,,
17,19,4492,A,44.26027453493003,67.00186884139761,2.2130137267465018,1.052462894644608,A,823.7604129972169,Correct,sub_017_day_15_data.csv,1,300,179.0,Training at home,,,,,,,,,,,,,
17,19,4493,A,31.228018924576254,39.65108809418717,1.5614009462288123,0.6228378353177006,B,1465.3400490060449,Incorrect,sub_017_day_15_data.csv,0,300,179.0,Training at home,,,,,,,,,,,,,
17,19,4494,A,60.88502023205504,71.84474730398748,3.0442510116027517,1.1285346516461108,A,455.91309199517127,Correct,sub_017_day_15_data.csv,1,300,179.0,Training at home,,,,,,,,,,,,,
17,19,4495,A,33.47668108247348,60.3298763576623,1.673834054123674,0.9476594817860622,A,934.2017480084904,Correct,sub_017_day_15_data.csv,1,300,179.0,Training at home,,,,,,,,,,,,,
17,19,4496,B,84.10204034735573,67.82251352590438,4.205102017367786,1.065353551204878,B,1498.1030170019949,Correct,sub_017_day_15_data.csv,1,300,179.0,Training at home,,,,,,,,,,,,,
17,19,4497,A,38.36325869792266,59.412850931264025,1.918162934896133,0.9332548800724229,B,1330.1753609994194,Incorrect,sub_017_day_15_data.csv,0,300,179.0,Training at home,,,,,,,,,,,,,
17,19,4498,A,18.439402597268263,38.5409928839279,0.9219701298634132,0.6054005005310219,A,840.9559289866593,Correct,sub_017_day_15_data.csv,1,300,179.0,Training at home,,,,,,,,,,,,,
17,19,4499,A,28.8926879879724,46.03659009922807,1.4446343993986202,0.7231410662602976,A,2247.753149989876,Correct,sub_017_day_15_data.csv,1,300,179.0,Training at home,,,,,,,,,,,,,
