subject,day,trial,cat,x,y,xt,yt,resp,rt,fb,f_name,acc,n_trials,block,session_type,ns_left_digit,ns_right_digit,ns_left_size,ns_right_size,ns_congruent,ns_cue,ns_correct_side,ns_resp,ns_rt,ns_fb,acc_stroop,acc_stroop_mean,resp_key
17,24,476,A,22.45792255007355,51.705179507106,1.1228961275036775,0.8121830604603287,A,813.7124440108892,Correct,sub_017_day_24_data.csv,1,600,,Button-Switch at home,,,,,,,,,,,,,k
17,24,477,A,24.02042674793701,34.71528660712346,1.2010213373968504,0.5453064468610159,A,581.1192940163892,Correct,sub_017_day_24_data.csv,1,600,,Button-Switch at home,,,,,,,,,,,,,k
17,24,478,A,49.66170431042536,58.0418356517016,2.4830852155212684,0.9117190224212594,B,725.4957839904819,Incorrect,sub_017_day_24_data.csv,0,600,,Button-Switch at home,,,,,,,,,,,,,d
17,24,479,B,67.31280924553035,50.64955796035766,3.365640462276517,0.7956013959791502,B,1095.6949419924058,Correct,sub_017_day_24_data.csv,1,600,,Button-Switch at home,,,,,,,,,,,,,d
17,24,480,B,40.64827238339467,21.30733267322395,2.0324136191697333,0.3346947989689707,B,950.5027889972552,Correct,sub_017_day_24_data.csv,1,600,,Button-Switch at home,,,,,,,,,,,,,d
17,24,481,A,38.927305710364934,50.77658537289837,1.9463652855182465,0.7975967379093623,A,636.0566789808217,Correct,sub_017_day_24_data.csv,1,600,,Button-Switch at home,,,,,,,,,,,,,k
17,24,482,B,53.37999932615669,27.238456310259146,2.6689999663078345,0.4278606711971834,B,1098.1496480235364,Correct,sub_017_day_24_data.csv,1,600,,Button-Switch at home,,,,,,,,,,,,,d
17,24,483,A,30.24395821584362,53.78456646231,1.512197910792181,0.8448459943725253,A,626.945230003912,Correct,sub_017_day_24_data.csv,1,600,,Button-Switch at home,,,,,,,,,,,,,k
17,24,484,B,43.229226119604505,25.96313669706323,2.1614613059802252,0.407827997558207,B,621.2854160112329,Correct,sub_017_day_24_data.csv,1,600,,Button-Switch at home,,,,,,,,,,,,,d
17,24,485,A,36.30466090820434,47.0984233993017,1.815233045410217,0.7398203047345391,A,515.2073850040324,Correct,sub_017_day_24_data.csv,1,600,,Button-Switch at home,,,,,,,,,,,,,k
17,24,486,B,44.79330742949254,16.15203677573906,2.239665371474627,0.2537156003758699,B,658.8580020179506,Correct,sub_017_day_24_data.csv,1,600,,Button-Switch at home,,,,,,,,,,,,,d
17,24,487,A,57.1019951922076,73.58710245437554,2.8550997596103804,1.1559035023481283,A,630.9951419825666,Correct,sub_017_day_24_data.csv,1,600,,Button-Switch at home,,,,,,,,,,,,,k
17,24,488,A,41.70402622675516,73.29438885150752,2.085201311337758,1.1513055678262485,A,833.2527040038258,Correct,sub_017_day_24_data.csv,1,600,,Button-Switch at home,,,,,,,,,,,,,k
17,24,489,A,57.38628651670989,70.57384290236138,2.8693143258354947,1.1085713319882933,A,536.7448999895714,Correct,sub_017_day_24_data.csv,1,600,,Button-Switch at home,,,,,,,,,,,,,k
17,24,490,A,60.281452205075325,71.95101833668005,3.0140726102537663,1.1302039531240926,A,521.3038710062392,Correct,sub_017_day_24_data.csv,1,600,,Button-Switch at home,,,,,,,,,,,,,k
17,24,491,A,32.715010355114515,65.86396489412546,1.6357505177557257,1.034588741238403,B,577.1162830060348,Incorrect,sub_017_day_24_data.csv,0,600,,Button-Switch at home,,,,,,,,,,,,,d
17,24,492,B,63.27300884144621,39.07215624682907,3.1636504420723104,0.6137439951247537,B,616.0689689859282,Correct,sub_017_day_24_data.csv,1,600,,Button-Switch at home,,,,,,,,,,,,,d
17,24,493,B,52.27672613899615,29.886907510871076,2.6138363069498074,0.4694624453733509,B,1254.4267320190556,Correct,sub_017_day_24_data.csv,1,600,,Button-Switch at home,,,,,,,,,,,,,d
17,24,494,B,46.91821394910029,37.81921600443085,2.3459106974550146,0.5940628558202274,B,3965.512896014843,Correct,sub_017_day_24_data.csv,1,600,,Button-Switch at home,,,,,,,,,,,,,d
17,24,495,B,67.82030587486673,40.0732539458434,3.3910152937433367,0.629469201008499,B,890.8025340060703,Correct,sub_017_day_24_data.csv,1,600,,Button-Switch at home,,,,,,,,,,,,,d
17,24,496,B,64.00038306605863,53.8134281939121,3.200019153302932,0.8452993533923805,B,719.55061799963,Correct,sub_017_day_24_data.csv,1,600,,Button-Switch at home,,,,,,,,,,,,,d
17,24,497,B,64.94643778255794,39.23560792071312,3.247321889127897,0.6163114880142092,B,576.3056850119028,Correct,sub_017_day_24_data.csv,1,600,,Button-Switch at home,,,,,,,,,,,,,d
17,24,498,B,59.946176636906934,39.11678310431598,2.9973088318453467,0.6144449921629221,B,610.2010090253316,Correct,sub_017_day_24_data.csv,1,600,,Button-Switch at home,,,,,,,,,,,,,d
17,24,499,B,59.82817964471894,27.189905249202944,2.991408982235946,0.4270980329134926,B,1106.248437979957,Correct,sub_017_day_24_data.csv,1,600,,Button-Switch at home,,,,,,,,,,,,,d
17,24,500,B,60.788872721519006,35.80336083753097,3.0394436360759505,0.5623978769050589,B,821.3515129755251,Correct,sub_017_day_24_data.csv,1,600,,Button-Switch at home,,,,,,,,,,,,,d
17,24,501,B,78.39939918562149,53.8621723359076,3.9199699592810746,0.8460650245843735,B,464.2624639964197,Correct,sub_017_day_24_data.csv,1,600,,Button-Switch at home,,,,,,,,,,,,,d
17,24,502,A,65.45128737591173,78.58481820527194,3.272564368795587,1.2344074377868586,B,472.976844990626,Incorrect,sub_017_day_24_data.csv,0,600,,Button-Switch at home,,,,,,,,,,,,,d
17,24,503,B,46.99486379701526,27.22758560091295,2.3497431898507632,0.4276899144940768,B,710.5638129869476,Correct,sub_017_day_24_data.csv,1,600,,Button-Switch at home,,,,,,,,,,,,,d
17,24,504,A,40.094276265977335,52.645722651980705,2.0047138132988667,0.8269570776319417,A,865.9005890076514,Correct,sub_017_day_24_data.csv,1,600,,Button-Switch at home,,,,,,,,,,,,,k
17,24,505,A,48.12894840743485,60.847690602910845,2.4064474203717423,0.955793288930047,A,913.4253609809092,Correct,sub_017_day_24_data.csv,1,600,,Button-Switch at home,,,,,,,,,,,,,k
17,24,506,B,79.73456018337708,58.361648004352915,3.9867280091688544,0.9167426231093424,B,603.1066499999724,Correct,sub_017_day_24_data.csv,1,600,,Button-Switch at home,,,,,,,,,,,,,d
17,24,507,A,27.44586098995987,45.87420636070979,1.3722930494979937,0.7205903484603401,A,780.0969090021681,Correct,sub_017_day_24_data.csv,1,600,,Button-Switch at home,,,,,,,,,,,,,k
17,24,508,A,44.148969682110206,51.71333553942313,2.20744848410551,0.8123111751163783,B,1463.6796249833424,Incorrect,sub_017_day_24_data.csv,0,600,,Button-Switch at home,,,,,,,,,,,,,d
17,24,509,B,58.05537789434005,42.43239771910807,2.9027688947170027,0.666526544742751,B,1087.671865010634,Correct,sub_017_day_24_data.csv,1,600,,Button-Switch at home,,,,,,,,,,,,,d
17,24,510,A,32.963582527446384,62.330542097498,1.6481791263723191,0.9790858657388454,A,938.1023749883752,Correct,sub_017_day_24_data.csv,1,600,,Button-Switch at home,,,,,,,,,,,,,k
17,24,511,A,61.047055808272106,77.4853083731737,3.052352790413605,1.217136377731511,B,935.6879249971826,Incorrect,sub_017_day_24_data.csv,0,600,,Button-Switch at home,,,,,,,,,,,,,d
17,24,512,B,68.44420640037515,47.19977857262077,3.4222103200187575,0.7414123880740519,B,691.036834003171,Correct,sub_017_day_24_data.csv,1,600,,Button-Switch at home,,,,,,,,,,,,,d
17,24,513,A,17.84385166188533,47.68275704966936,0.8921925830942666,0.7489989962507408,B,600.0701840093825,Incorrect,sub_017_day_24_data.csv,0,600,,Button-Switch at home,,,,,,,,,,,,,d
17,24,514,A,37.90566351123519,65.29585865274207,1.8952831755617592,1.02566494926646,A,1052.689734991873,Correct,sub_017_day_24_data.csv,1,600,,Button-Switch at home,,,,,,,,,,,,,k
17,24,515,A,59.48824403636771,68.02784898911295,2.9744122018183856,1.0685789531185654,B,640.292608004529,Incorrect,sub_017_day_24_data.csv,0,600,,Button-Switch at home,,,,,,,,,,,,,d
17,24,516,B,69.55269962948255,43.394000408253646,3.4776349814741274,0.6816313644622107,B,686.7845339875203,Correct,sub_017_day_24_data.csv,1,600,,Button-Switch at home,,,,,,,,,,,,,d
17,24,517,B,43.88955321027034,34.41647824260643,2.1944776605135172,0.5406127760470265,B,885.3861120005604,Correct,sub_017_day_24_data.csv,1,600,,Button-Switch at home,,,,,,,,,,,,,d
17,24,518,A,56.671220125566435,73.31595459550168,2.833561006278322,1.1516443217407544,A,742.9813329945318,Correct,sub_017_day_24_data.csv,1,600,,Button-Switch at home,,,,,,,,,,,,,k
17,24,519,A,66.04669968859348,89.14914540791557,3.302334984429674,1.400351501436579,A,800.2176659938414,Correct,sub_017_day_24_data.csv,1,600,,Button-Switch at home,,,,,,,,,,,,,k
17,24,520,A,32.23130349156066,50.8000224048882,1.6115651745780328,0.7979648859469685,A,994.292069983203,Correct,sub_017_day_24_data.csv,1,600,,Button-Switch at home,,,,,,,,,,,,,k
17,24,521,B,63.64342382446122,44.671968155052525,3.1821711912230612,0.701705634886551,B,817.968176008435,Correct,sub_017_day_24_data.csv,1,600,,Button-Switch at home,,,,,,,,,,,,,d
17,24,522,B,79.84746304663126,65.10095411257518,3.992373152331563,1.022603395908762,B,1048.2733629760332,Correct,sub_017_day_24_data.csv,1,600,,Button-Switch at home,,,,,,,,,,,,,d
17,24,523,B,30.262281860626413,14.213783567070244,1.5131140930313205,0.223269590170116,A,885.3915820072871,Incorrect,sub_017_day_24_data.csv,0,600,,Button-Switch at home,,,,,,,,,,,,,k
17,24,524,B,51.29080159867958,28.714554228746557,2.564540079933979,0.4510471630806795,B,740.3615440125577,Correct,sub_017_day_24_data.csv,1,600,,Button-Switch at home,,,,,,,,,,,,,d
17,24,525,A,38.23038080150636,68.29688798924185,1.911519040075318,1.072805007850236,A,1214.04896499007,Correct,sub_017_day_24_data.csv,1,600,,Button-Switch at home,,,,,,,,,,,,,k
17,24,526,B,65.45265495117567,43.75250098146957,3.2726327475587835,0.687262678297825,B,643.1652909959666,Correct,sub_017_day_24_data.csv,1,600,,Button-Switch at home,,,,,,,,,,,,,d
17,24,527,B,68.42401039000876,49.99768066323397,3.4212005195004385,0.7853617313407214,B,809.1293539910112,Correct,sub_017_day_24_data.csv,1,600,,Button-Switch at home,,,,,,,,,,,,,d
17,24,528,B,58.476019366734064,30.02418778242939,2.923800968336703,0.4716188388364029,B,720.4558310040738,Correct,sub_017_day_24_data.csv,1,600,,Button-Switch at home,,,,,,,,,,,,,d
17,24,529,B,41.77042421040903,20.193745425877225,2.088521210520452,0.3172026113919918,B,679.2416159878485,Correct,sub_017_day_24_data.csv,1,600,,Button-Switch at home,,,,,,,,,,,,,d
17,24,530,A,27.101808819149763,37.5239882643353,1.355090440957488,0.589425429323127,A,1174.701461015502,Correct,sub_017_day_24_data.csv,1,600,,Button-Switch at home,,,,,,,,,,,,,k
17,24,531,B,66.5207345409866,51.73967000968312,3.32603672704933,0.8127248360079032,B,620.8791969984304,Correct,sub_017_day_24_data.csv,1,600,,Button-Switch at home,,,,,,,,,,,,,d
17,24,532,B,67.00902568198134,47.2513759557046,3.3504512840990675,0.7422228778722547,B,656.0536129982211,Correct,sub_017_day_24_data.csv,1,600,,Button-Switch at home,,,,,,,,,,,,,d
17,24,533,B,35.6710454423004,12.9901838707764,1.78355227211502,0.2040493310860587,B,720.4335459973663,Correct,sub_017_day_24_data.csv,1,600,,Button-Switch at home,,,,,,,,,,,,,d
17,24,534,B,47.479494611772154,18.891941792813913,2.373974730588608,0.2967539277417508,B,908.0440860125236,Correct,sub_017_day_24_data.csv,1,600,,Button-Switch at home,,,,,,,,,,,,,d
17,24,535,A,38.710460936424745,59.864335453607595,1.9355230468212372,0.940346782365443,A,781.8821890105028,Correct,sub_017_day_24_data.csv,1,600,,Button-Switch at home,,,,,,,,,,,,,k
17,24,536,A,21.875995570231964,35.0569959066856,1.0937997785115985,0.5506740039868546,A,822.9051549860742,Correct,sub_017_day_24_data.csv,1,600,,Button-Switch at home,,,,,,,,,,,,,k
17,24,537,B,48.521268083279864,32.018747934048214,2.426063404163993,0.5029493164337461,A,2087.0054549886845,Incorrect,sub_017_day_24_data.csv,0,600,,Button-Switch at home,,,,,,,,,,,,,k
17,24,538,A,20.76337351980027,46.127565553715634,1.0381686759900135,0.7245701053576732,A,833.0381969863083,Correct,sub_017_day_24_data.csv,1,600,,Button-Switch at home,,,,,,,,,,,,,k
17,24,539,A,53.003061028018166,75.72698268641703,2.6501530514009084,1.189516662430846,A,1057.5733850128015,Correct,sub_017_day_24_data.csv,1,600,,Button-Switch at home,,,,,,,,,,,,,k
17,24,540,B,86.90663191776054,65.79450473845046,4.345331595888027,1.033497663664474,B,1116.9353229925036,Correct,sub_017_day_24_data.csv,1,600,,Button-Switch at home,,,,,,,,,,,,,d
17,24,541,A,34.13994345861771,56.50200294134066,1.7069971729308857,0.8875313867681235,A,709.5758140203543,Correct,sub_017_day_24_data.csv,1,600,,Button-Switch at home,,,,,,,,,,,,,k
17,24,542,B,61.66236174251283,45.63092346050123,3.083118087125641,0.7167688696001441,B,719.703959999606,Correct,sub_017_day_24_data.csv,1,600,,Button-Switch at home,,,,,,,,,,,,,d
17,24,543,A,19.596226513627805,39.18880554434607,0.9798113256813904,0.6155763180053828,A,934.5966179971584,Correct,sub_017_day_24_data.csv,1,600,,Button-Switch at home,,,,,,,,,,,,,k
17,24,544,A,39.05790395311584,63.672463181334386,1.952895197655792,1.0001647128322335,B,536.6065059788525,Incorrect,sub_017_day_24_data.csv,0,600,,Button-Switch at home,,,,,,,,,,,,,d
17,24,545,A,43.098765251545224,66.03574374533198,2.1549382625772613,1.0372870371233651,A,969.280579010956,Correct,sub_017_day_24_data.csv,1,600,,Button-Switch at home,,,,,,,,,,,,,k
17,24,546,A,24.14510602033816,36.80891673941987,1.207255301016908,0.5781931120757992,B,1239.8499020200688,Incorrect,sub_017_day_24_data.csv,0,600,,Button-Switch at home,,,,,,,,,,,,,d
17,24,547,A,33.466244181030945,58.51147143611408,1.673312209051547,0.9190960440721252,A,1718.4725459956098,Correct,sub_017_day_24_data.csv,1,600,,Button-Switch at home,,,,,,,,,,,,,k
17,24,548,B,74.20654393380843,52.3044423179359,3.710327196690422,0.8215962586806925,B,668.2129929831717,Correct,sub_017_day_24_data.csv,1,600,,Button-Switch at home,,,,,,,,,,,,,d
17,24,549,A,50.69246061565407,62.60132271439949,2.5346230307827033,0.9833392777228064,A,1301.8280109972693,Correct,sub_017_day_24_data.csv,1,600,,Button-Switch at home,,,,,,,,,,,,,k
17,24,550,B,69.2865764727659,42.75487609474624,3.464328823638295,0.6715920232219834,B,1335.8383259910624,Correct,sub_017_day_24_data.csv,1,600,,Button-Switch at home,,,,,,,,,,,,,d
17,24,551,B,46.778896134186205,39.66883933712909,2.33894480670931,0.6231166711897927,B,1197.294484009035,Correct,sub_017_day_24_data.csv,1,600,,Button-Switch at home,,,,,,,,,,,,,d
17,24,552,A,45.39540047054828,77.2529775991575,2.269770023527414,1.2134869344672503,A,1188.6737770109903,Correct,sub_017_day_24_data.csv,1,600,,Button-Switch at home,,,,,,,,,,,,,k
17,24,553,A,53.78640230297952,83.72318742260539,2.6893201151489756,1.3151207527098925,A,1076.45121900714,Correct,sub_017_day_24_data.csv,1,600,,Button-Switch at home,,,,,,,,,,,,,k
17,24,554,B,45.44361955835621,37.437295880830646,2.2721809779178104,0.5880636685474249,B,896.1343039991334,Correct,sub_017_day_24_data.csv,1,600,,Button-Switch at home,,,,,,,,,,,,,d
17,24,555,A,25.63390150374681,36.458926570783966,1.2816950751873404,0.572695479362723,A,1371.9538550067227,Correct,sub_017_day_24_data.csv,1,600,,Button-Switch at home,,,,,,,,,,,,,k
17,24,556,B,52.911178281976134,41.19252277024465,2.645558914098807,0.6470506345891543,B,1109.604572004173,Correct,sub_017_day_24_data.csv,1,600,,Button-Switch at home,,,,,,,,,,,,,d
17,24,557,A,41.14443204675799,62.45795560689196,2.0572216023378997,0.981087272464246,A,1027.445277024526,Correct,sub_017_day_24_data.csv,1,600,,Button-Switch at home,,,,,,,,,,,,,k
17,24,558,A,44.842078256180045,66.47761560822842,2.2421039128090023,1.044227944114883,A,1906.2207370006945,Correct,sub_017_day_24_data.csv,1,600,,Button-Switch at home,,,,,,,,,,,,,k
17,24,559,B,32.34782474045395,12.95105701330404,1.6173912370226975,0.2034347278460927,A,1122.150261013303,Incorrect,sub_017_day_24_data.csv,0,600,,Button-Switch at home,,,,,,,,,,,,,k
17,24,560,B,63.13736597067567,31.60060734634138,3.1568682985337837,0.4963811794412086,B,1457.7173800207677,Correct,sub_017_day_24_data.csv,1,600,,Button-Switch at home,,,,,,,,,,,,,d
17,24,561,B,54.20790545442548,46.57069348964132,2.7103952727212737,0.731530742698196,B,714.0010099974461,Correct,sub_017_day_24_data.csv,1,600,,Button-Switch at home,,,,,,,,,,,,,d
17,24,562,A,39.06159832346663,66.5729279996501,1.9530799161733317,1.045725107658315,A,804.44570700638,Correct,sub_017_day_24_data.csv,1,600,,Button-Switch at home,,,,,,,,,,,,,k
17,24,563,A,38.45219153602584,68.77727978820707,1.9226095768012923,1.0803509845826054,B,830.4734839766752,Incorrect,sub_017_day_24_data.csv,0,600,,Button-Switch at home,,,,,,,,,,,,,d
17,24,564,A,33.98850351966646,56.0165726091519,1.699425175983323,0.8799062649409541,A,1222.806451987708,Correct,sub_017_day_24_data.csv,1,600,,Button-Switch at home,,,,,,,,,,,,,k
17,24,565,B,69.85197145661769,56.59948754328218,3.492598572830884,0.8890626713146115,B,768.1618059868924,Correct,sub_017_day_24_data.csv,1,600,,Button-Switch at home,,,,,,,,,,,,,d
17,24,566,B,69.41405375105084,45.302430760036714,3.470702687552542,0.711608918327458,A,993.4304429916664,Incorrect,sub_017_day_24_data.csv,0,600,,Button-Switch at home,,,,,,,,,,,,,k
17,24,567,B,34.04710189364278,19.97862474779775,1.702355094682139,0.3138235036825432,B,1903.4748210106045,Correct,sub_017_day_24_data.csv,1,600,,Button-Switch at home,,,,,,,,,,,,,d
17,24,568,B,50.310771195019825,32.789019163291016,2.515538559750991,0.5150487086090499,B,1079.077361006057,Correct,sub_017_day_24_data.csv,1,600,,Button-Switch at home,,,,,,,,,,,,,d
17,24,569,A,55.02097265376118,67.64950793993458,2.751048632688059,1.0626359858153145,A,1159.6775779908055,Correct,sub_017_day_24_data.csv,1,600,,Button-Switch at home,,,,,,,,,,,,,k
17,24,570,B,71.00315798069136,59.42572842235599,3.5501578990345677,0.9334571592294788,A,3202.2148369869683,Incorrect,sub_017_day_24_data.csv,0,600,,Button-Switch at home,,,,,,,,,,,,,k
17,24,571,A,20.948403627617704,51.15493187395738,1.0474201813808852,0.8035397908505543,A,1363.9723369851708,Correct,sub_017_day_24_data.csv,1,600,,Button-Switch at home,,,,,,,,,,,,,k
17,24,572,B,52.35884948424554,27.17012762351513,2.6179424742122768,0.4267873666956611,B,916.6545429907274,Correct,sub_017_day_24_data.csv,1,600,,Button-Switch at home,,,,,,,,,,,,,d
17,24,573,B,62.06545790851616,52.20137826641547,3.103272895425808,0.8199773323451636,B,725.8958970196545,Correct,sub_017_day_24_data.csv,1,600,,Button-Switch at home,,,,,,,,,,,,,d
17,24,574,B,58.96331939558757,37.101720197437984,2.948165969779378,0.582792458039076,B,874.6847750153393,Correct,sub_017_day_24_data.csv,1,600,,Button-Switch at home,,,,,,,,,,,,,d
17,24,575,B,61.970184033915785,40.069262760370144,3.098509201695789,0.6294065076136895,B,643.6704920197371,Correct,sub_017_day_24_data.csv,1,600,,Button-Switch at home,,,,,,,,,,,,,d
17,24,576,A,11.562141470855032,37.22039121322125,0.5781070735427516,0.5846565379959697,A,652.0185289846268,Correct,sub_017_day_24_data.csv,1,600,,Button-Switch at home,,,,,,,,,,,,,k
17,24,577,B,55.90867515690377,26.347542343839137,2.7954337578451884,0.4138662273377551,B,845.7758800068405,Correct,sub_017_day_24_data.csv,1,600,,Button-Switch at home,,,,,,,,,,,,,d
17,24,578,A,32.74198107400852,48.85637452193458,1.637099053700426,0.7674341363957061,B,951.4166330045556,Incorrect,sub_017_day_24_data.csv,0,600,,Button-Switch at home,,,,,,,,,,,,,d
17,24,579,A,34.716701138966,62.703387647179206,1.7358350569483003,0.984942509937856,A,716.0978910105769,Correct,sub_017_day_24_data.csv,1,600,,Button-Switch at home,,,,,,,,,,,,,k
17,24,580,B,56.71455434238057,42.84749452464722,2.835727717119029,0.6730468701168029,B,879.0579009801149,Correct,sub_017_day_24_data.csv,1,600,,Button-Switch at home,,,,,,,,,,,,,d
17,24,581,B,67.95028235119852,39.38596958854755,3.3975141175599264,0.61867336356946,B,1420.592120004585,Correct,sub_017_day_24_data.csv,1,600,,Button-Switch at home,,,,,,,,,,,,,d
17,24,582,B,71.77059818738242,50.00605028103225,3.5885299093691208,0.7854932009896637,B,1069.945094990544,Correct,sub_017_day_24_data.csv,1,600,,Button-Switch at home,,,,,,,,,,,,,d
17,24,583,A,33.1412807174689,62.6614972193847,1.6570640358734452,0.9842844966367812,A,1311.4371599804144,Correct,sub_017_day_24_data.csv,1,600,,Button-Switch at home,,,,,,,,,,,,,k
17,24,584,A,51.65220192655036,59.7823606955034,2.582610096327518,0.9390591258762436,B,428.62555300234817,Incorrect,sub_017_day_24_data.csv,0,600,,Button-Switch at home,,,,,,,,,,,,,d
17,24,585,A,20.273326195666645,50.88887258183091,1.0136663097833325,0.799360541262735,A,1004.4525690027511,Correct,sub_017_day_24_data.csv,1,600,,Button-Switch at home,,,,,,,,,,,,,k
17,24,586,A,23.331567951247397,37.33862601675769,1.1665783975623698,0.5865137659469135,A,726.2703070009593,Correct,sub_017_day_24_data.csv,1,600,,Button-Switch at home,,,,,,,,,,,,,k
17,24,587,B,34.74908667242235,20.820270977971976,1.7374543336211177,0.3270440517507276,B,690.4438009951264,Correct,sub_017_day_24_data.csv,1,600,,Button-Switch at home,,,,,,,,,,,,,d
17,24,588,A,15.632124987571885,41.93897780760817,0.7816062493785942,0.6587759228972359,A,1036.7291369766465,Correct,sub_017_day_24_data.csv,1,600,,Button-Switch at home,,,,,,,,,,,,,k
17,24,589,B,89.22366410495454,66.53888144929135,4.4611832052477265,1.0451903056958791,B,825.0271849974524,Correct,sub_017_day_24_data.csv,1,600,,Button-Switch at home,,,,,,,,,,,,,d
17,24,590,A,65.72538916808931,83.8950240211251,3.2862694584044654,1.3178199556875292,A,1345.0610029976815,Correct,sub_017_day_24_data.csv,1,600,,Button-Switch at home,,,,,,,,,,,,,k
17,24,591,B,44.71123627656348,25.758845667077725,2.2355618138281743,0.4046190015632233,B,824.7755449847318,Correct,sub_017_day_24_data.csv,1,600,,Button-Switch at home,,,,,,,,,,,,,d
17,24,592,B,76.62556599028102,46.323940052401646,3.831278299514051,0.727654748769795,B,1026.332832989283,Correct,sub_017_day_24_data.csv,1,600,,Button-Switch at home,,,,,,,,,,,,,d
17,24,593,B,61.76502504457236,35.22187584396887,3.088251252228618,0.553263931985322,A,943.1297139963136,Incorrect,sub_017_day_24_data.csv,0,600,,Button-Switch at home,,,,,,,,,,,,,k
17,24,594,B,58.73287654584563,48.21680960277418,2.936643827292281,0.7573878741380656,B,619.8786929890048,Correct,sub_017_day_24_data.csv,1,600,,Button-Switch at home,,,,,,,,,,,,,d
17,24,595,B,66.18294445510905,50.31763971669889,3.3091472227554526,0.7903876363997964,B,1035.645558993565,Correct,sub_017_day_24_data.csv,1,600,,Button-Switch at home,,,,,,,,,,,,,d
17,24,596,B,58.339408974612496,26.501928814994024,2.916970448730625,0.4162913243557244,B,1504.9185810203198,Correct,sub_017_day_24_data.csv,1,600,,Button-Switch at home,,,,,,,,,,,,,d
17,24,597,B,41.58804833427314,31.6542421001109,2.079402416713657,0.4972236721833057,B,1188.2295420218725,Correct,sub_017_day_24_data.csv,1,600,,Button-Switch at home,,,,,,,,,,,,,d
17,24,598,B,47.89887750661516,32.47220183259003,2.3949438753307577,0.5100721536157493,B,1000.5803199892398,Correct,sub_017_day_24_data.csv,1,600,,Button-Switch at home,,,,,,,,,,,,,d
17,24,599,A,17.78147285723782,43.436825460956335,0.889073642861891,0.6823040588170125,B,1043.1620699819175,Incorrect,sub_017_day_24_data.csv,0,600,,Button-Switch at home,,,,,,,,,,,,,d
17,24,600,A,44.018459133696936,50.804640547790385,2.2009229566848467,0.798037427566042,B,671.7935820051935,Incorrect,sub_017_day_24_data.csv,0,600,,Button-Switch at home,,,,,,,,,,,,,d
17,24,601,A,58.13223460144228,84.73935677768645,2.906611730072114,1.331082703613521,A,1872.296814020956,Correct,sub_017_day_24_data.csv,1,600,,Button-Switch at home,,,,,,,,,,,,,k
17,24,602,A,53.638415629349794,71.57605413950283,2.6819207814674892,1.1243140292880367,A,1703.8337779813446,Correct,sub_017_day_24_data.csv,1,600,,Button-Switch at home,,,,,,,,,,,,,k
17,24,603,B,60.677498319387986,44.207883571795506,3.0338749159693994,0.6944158112995283,B,791.2197039986495,Correct,sub_017_day_24_data.csv,1,600,,Button-Switch at home,,,,,,,,,,,,,d
17,24,604,B,30.800685887825303,14.45409691719878,1.5400342943912653,0.2270444234467327,B,801.9446590042207,Correct,sub_017_day_24_data.csv,1,600,,Button-Switch at home,,,,,,,,,,,,,d
17,24,605,A,37.461686455052146,52.98998306920869,1.873084322752607,0.8323647076203678,B,989.0891829854808,Incorrect,sub_017_day_24_data.csv,0,600,,Button-Switch at home,,,,,,,,,,,,,d
17,24,606,A,24.559442037567692,35.8190671873884,1.227972101878385,0.562644591671693,A,694.8151669930667,Correct,sub_017_day_24_data.csv,1,600,,Button-Switch at home,,,,,,,,,,,,,k
17,24,607,B,70.76227757273415,37.64210116930699,3.5381138786367075,0.591280742495893,B,571.088757016696,Correct,sub_017_day_24_data.csv,1,600,,Button-Switch at home,,,,,,,,,,,,,d
17,24,608,B,41.75271850948357,30.530254872213945,2.0876359254741788,0.4795681220938566,B,786.5344530146103,Correct,sub_017_day_24_data.csv,1,600,,Button-Switch at home,,,,,,,,,,,,,d
17,24,609,B,40.11467165868508,30.030035711051216,2.0057335829342544,0.4717106978843881,B,843.9856609911658,Correct,sub_017_day_24_data.csv,1,600,,Button-Switch at home,,,,,,,,,,,,,d
17,24,610,A,68.4381805614075,82.61847118948032,3.4219090280703757,1.297767910698457,A,1092.7597469999455,Correct,sub_017_day_24_data.csv,1,600,,Button-Switch at home,,,,,,,,,,,,,k
17,24,611,B,36.676682659696915,12.054937646097311,1.8338341329848455,0.1893585177423117,B,624.4259560189676,Correct,sub_017_day_24_data.csv,1,600,,Button-Switch at home,,,,,,,,,,,,,d
17,24,612,B,40.21523511188717,19.754171418828367,2.0107617555943587,0.3102977990357233,B,1170.2606030157767,Correct,sub_017_day_24_data.csv,1,600,,Button-Switch at home,,,,,,,,,,,,,d
17,24,613,A,40.30944699153091,53.21481876594757,2.0154723495765454,0.8358964184860657,A,833.7889340182301,Correct,sub_017_day_24_data.csv,1,600,,Button-Switch at home,,,,,,,,,,,,,k
17,24,614,A,12.584054192972935,34.42824041209438,0.6292027096486468,0.5407975357732947,A,2165.244695992442,Correct,sub_017_day_24_data.csv,1,600,,Button-Switch at home,,,,,,,,,,,,,k
17,24,615,A,66.94838538692463,83.36718184877404,3.3474192693462315,1.3095286302329645,B,988.3566850039642,Incorrect,sub_017_day_24_data.csv,0,600,,Button-Switch at home,,,,,,,,,,,,,d
17,24,616,B,65.12400378449813,50.84737889114247,3.2562001892249066,0.7987087598935495,B,752.1551250247285,Correct,sub_017_day_24_data.csv,1,600,,Button-Switch at home,,,,,,,,,,,,,d
17,24,617,A,40.25113521389604,58.94119467529672,2.0125567606948023,0.92584612092859,A,686.1252759990748,Correct,sub_017_day_24_data.csv,1,600,,Button-Switch at home,,,,,,,,,,,,,k
17,24,618,A,37.516235382336305,57.44791908640816,1.8758117691168152,0.9023898028294036,A,885.751559981145,Correct,sub_017_day_24_data.csv,1,600,,Button-Switch at home,,,,,,,,,,,,,k
17,24,619,A,56.29866632086768,68.82495921135585,2.8149333160433843,1.081099931210063,A,603.5194419964682,Correct,sub_017_day_24_data.csv,1,600,,Button-Switch at home,,,,,,,,,,,,,k
17,24,620,B,40.8764556106689,20.870924564656104,2.043822780533445,0.3278397164297518,B,626.5854350058362,Correct,sub_017_day_24_data.csv,1,600,,Button-Switch at home,,,,,,,,,,,,,d
17,24,621,A,64.0014256680513,82.04057166216295,3.200071283402565,1.2886902861507905,A,707.4672240123618,Correct,sub_017_day_24_data.csv,1,600,,Button-Switch at home,,,,,,,,,,,,,k
17,24,622,B,81.06674710877478,65.55461258681161,4.053337355438739,1.0297294465582618,B,552.4798870028462,Correct,sub_017_day_24_data.csv,1,600,,Button-Switch at home,,,,,,,,,,,,,d
17,24,623,A,35.179962113877686,55.58490673871309,1.7589981056938842,0.8731256733040741,A,726.3808230054565,Correct,sub_017_day_24_data.csv,1,600,,Button-Switch at home,,,,,,,,,,,,,k
17,24,624,A,18.80689565787875,38.49321300821311,0.9403447828939376,0.6046499759983469,A,645.7495089853182,Correct,sub_017_day_24_data.csv,1,600,,Button-Switch at home,,,,,,,,,,,,,k
17,24,625,A,37.22375812093839,58.222397779567736,1.8611879060469192,0.9145552856933634,A,1178.3230830042155,Correct,sub_017_day_24_data.csv,1,600,,Button-Switch at home,,,,,,,,,,,,,k
17,24,626,B,45.52877691145279,26.399500275285444,2.276438845572639,0.4146823806163924,B,553.8145609898493,Correct,sub_017_day_24_data.csv,1,600,,Button-Switch at home,,,,,,,,,,,,,d
17,24,627,A,19.088132186760237,38.50791128706586,0.9544066093380118,0.6048808560226678,B,538.041138992412,Incorrect,sub_017_day_24_data.csv,0,600,,Button-Switch at home,,,,,,,,,,,,,d
17,24,628,A,21.556009267874742,41.235507084866555,1.077800463393737,0.6477258306243332,A,987.501138006337,Correct,sub_017_day_24_data.csv,1,600,,Button-Switch at home,,,,,,,,,,,,,k
17,24,629,A,32.93269928238218,41.77198658915785,1.646634964119109,0.6561528309717483,A,2100.6669319758657,Correct,sub_017_day_24_data.csv,1,600,,Button-Switch at home,,,,,,,,,,,,,k
17,24,630,A,56.54148014638918,79.58286614675642,2.8270740073194593,1.250084738191349,A,574.9391980061773,Correct,sub_017_day_24_data.csv,1,600,,Button-Switch at home,,,,,,,,,,,,,k
17,24,631,B,76.82484164359595,46.67221767567214,3.8412420821797975,0.7331254808831763,B,721.1153819807805,Correct,sub_017_day_24_data.csv,1,600,,Button-Switch at home,,,,,,,,,,,,,d
17,24,632,A,38.53390930864843,65.85151870135039,1.9266954654324215,1.0343932368994662,A,1091.25635100645,Correct,sub_017_day_24_data.csv,1,600,,Button-Switch at home,,,,,,,,,,,,,k
17,24,633,B,53.69386162672632,38.86673307733656,2.684693081336316,0.6105172155239796,B,661.7422260169405,Correct,sub_017_day_24_data.csv,1,600,,Button-Switch at home,,,,,,,,,,,,,d
17,24,634,A,40.8187530090224,61.19785648527367,2.04093765045112,0.9612936817478912,A,2199.1029850032646,Correct,sub_017_day_24_data.csv,1,600,,Button-Switch at home,,,,,,,,,,,,,k
17,24,635,B,35.01807438639712,16.478543821844443,1.750903719319856,0.2588443610628199,B,1113.479666004423,Correct,sub_017_day_24_data.csv,1,600,,Button-Switch at home,,,,,,,,,,,,,d
17,24,636,B,65.28330562037573,31.950503813324993,3.2641652810187862,0.5018773402921723,B,901.5299819875509,Correct,sub_017_day_24_data.csv,1,600,,Button-Switch at home,,,,,,,,,,,,,d
17,24,637,A,24.535457382396544,40.57323607569657,1.2267728691198272,0.6373229019388635,A,389.6929569891654,Correct,sub_017_day_24_data.csv,1,600,,Button-Switch at home,,,,,,,,,,,,,k
17,24,638,B,62.40969986600889,43.92667058347655,3.120484993300445,0.689998528008544,B,676.7930230125785,Correct,sub_017_day_24_data.csv,1,600,,Button-Switch at home,,,,,,,,,,,,,d
17,24,639,A,37.91124042142517,68.24936990782834,1.8955620210712585,1.072058595572829,A,720.8578800200485,Correct,sub_017_day_24_data.csv,1,600,,Button-Switch at home,,,,,,,,,,,,,k
17,24,640,B,65.06632319342181,47.57952688050019,3.2533161596710904,0.7473774605452874,B,651.267128996551,Correct,sub_017_day_24_data.csv,1,600,,Button-Switch at home,,,,,,,,,,,,,d
17,24,641,A,56.56634791230161,81.34127095582532,2.82831739561508,1.277705696342388,A,953.4927589993458,Correct,sub_017_day_24_data.csv,1,600,,Button-Switch at home,,,,,,,,,,,,,k
17,24,642,B,59.85447105091011,51.89847743021409,2.992723552545505,0.8152193771362815,B,984.8061990051064,Correct,sub_017_day_24_data.csv,1,600,,Button-Switch at home,,,,,,,,,,,,,d
17,24,643,A,22.176720827627783,39.115523451586725,1.1088360413813891,0.6144252055841205,A,564.641658012988,Correct,sub_017_day_24_data.csv,1,600,,Button-Switch at home,,,,,,,,,,,,,k
17,24,644,A,59.62459715512979,85.7489153697332,2.9812298577564893,1.3469408128942335,A,1167.51116400701,Correct,sub_017_day_24_data.csv,1,600,,Button-Switch at home,,,,,,,,,,,,,k
17,24,645,B,84.32232794538794,68.83661555351364,4.216116397269397,1.0812830286045167,B,577.7718379977159,Correct,sub_017_day_24_data.csv,1,600,,Button-Switch at home,,,,,,,,,,,,,d
17,24,646,B,68.29703569487533,45.232764088124,3.4148517847437665,0.7105145968040529,B,751.8100590095855,Correct,sub_017_day_24_data.csv,1,600,,Button-Switch at home,,,,,,,,,,,,,d
17,24,647,A,39.70975638291286,48.81166947970636,1.985487819145643,0.7667319112344931,A,587.748541001929,Correct,sub_017_day_24_data.csv,1,600,,Button-Switch at home,,,,,,,,,,,,,k
17,24,648,B,51.33286136705778,24.473237366608966,2.566643068352889,0.3844247136024896,B,608.0313929996919,Correct,sub_017_day_24_data.csv,1,600,,Button-Switch at home,,,,,,,,,,,,,d
17,24,649,A,25.76357151549503,47.22091513032584,1.2881785757747517,0.7417444003460939,A,537.7727500163019,Correct,sub_017_day_24_data.csv,1,600,,Button-Switch at home,,,,,,,,,,,,,k
17,24,650,A,26.089170763216288,49.783661525429366,1.3044585381608145,0.7819999265854487,A,786.2069129769225,Correct,sub_017_day_24_data.csv,1,600,,Button-Switch at home,,,,,,,,,,,,,k
17,24,651,A,22.725096287677538,40.82839017019411,1.1362548143838769,0.6413308530828977,A,1081.9223810103722,Correct,sub_017_day_24_data.csv,1,600,,Button-Switch at home,,,,,,,,,,,,,k
17,24,652,B,63.92059978554634,50.74762238973071,3.1960299892773167,0.7971417884336344,A,996.7312999942806,Incorrect,sub_017_day_24_data.csv,0,600,,Button-Switch at home,,,,,,,,,,,,,k
17,24,653,A,61.972420332762155,78.95218593364183,3.098621016638108,1.2401780365699226,B,756.6157559922431,Incorrect,sub_017_day_24_data.csv,0,600,,Button-Switch at home,,,,,,,,,,,,,d
17,24,654,B,46.57289269393609,23.818735319937456,2.3286446346968046,0.3741438194945762,B,1015.3594269941096,Correct,sub_017_day_24_data.csv,1,600,,Button-Switch at home,,,,,,,,,,,,,d
17,24,655,A,47.475251032834144,64.80341433837638,2.373762551641707,1.0179296520648935,A,902.2813060146292,Correct,sub_017_day_24_data.csv,1,600,,Button-Switch at home,,,,,,,,,,,,,k
17,24,656,A,27.34738202790399,55.710662008008,1.3673691013951994,0.8751010324549097,A,717.6221949921455,Correct,sub_017_day_24_data.csv,1,600,,Button-Switch at home,,,,,,,,,,,,,k
17,24,657,A,38.6384348537191,58.61500622826715,1.931921742685955,0.9207223647842202,A,833.850202994654,Correct,sub_017_day_24_data.csv,1,600,,Button-Switch at home,,,,,,,,,,,,,k
17,24,658,A,57.01585326588175,83.77216703960292,2.850792663294088,1.3158901227345676,A,824.416162999114,Correct,sub_017_day_24_data.csv,1,600,,Button-Switch at home,,,,,,,,,,,,,k
17,24,659,A,29.623055969817266,47.3693682115031,1.4811527984908637,0.7440762958922401,A,1013.3154770010152,Correct,sub_017_day_24_data.csv,1,600,,Button-Switch at home,,,,,,,,,,,,,k
17,24,660,B,60.06751042308558,37.677233279861404,3.003375521154279,0.5918325963980073,B,812.9670959897339,Correct,sub_017_day_24_data.csv,1,600,,Button-Switch at home,,,,,,,,,,,,,d
17,24,661,B,41.49796924532181,25.371527334540023,2.074898462266091,0.3985350194227179,B,627.4181819753721,Correct,sub_017_day_24_data.csv,1,600,,Button-Switch at home,,,,,,,,,,,,,d
17,24,662,B,79.21162378525818,62.591394802446146,3.9605811892629097,0.983183330446516,A,619.1880780097563,Incorrect,sub_017_day_24_data.csv,0,600,,Button-Switch at home,,,,,,,,,,,,,k
17,24,663,A,42.2656420573512,73.62173526043655,2.11328210286756,1.1564475131936007,B,722.3652529937681,Incorrect,sub_017_day_24_data.csv,0,600,,Button-Switch at home,,,,,,,,,,,,,d
17,24,664,A,34.74552265258067,44.7012208488199,1.7372761326290334,0.7021651351257375,B,1471.0746150230989,Incorrect,sub_017_day_24_data.csv,0,600,,Button-Switch at home,,,,,,,,,,,,,d
17,24,665,A,23.873603903081293,44.834950149592366,1.1936801951540643,0.7042657500701198,A,214.2901280021761,Correct,sub_017_day_24_data.csv,1,600,,Button-Switch at home,,,,,,,,,,,,,k
17,24,666,B,54.73199691259118,37.51831218260625,2.7365998456295593,0.5893362696398212,B,1619.9934039905202,Correct,sub_017_day_24_data.csv,1,600,,Button-Switch at home,,,,,,,,,,,,,d
17,24,667,B,48.78989077402055,22.9558257008759,2.439494538701027,0.3605892668947974,B,666.2002079829108,Correct,sub_017_day_24_data.csv,1,600,,Button-Switch at home,,,,,,,,,,,,,d
17,24,668,A,32.70647458044749,65.03138110324124,1.6353237290223746,1.021510545633704,B,683.0441880156286,Incorrect,sub_017_day_24_data.csv,0,600,,Button-Switch at home,,,,,,,,,,,,,d
17,24,669,A,58.71482992891988,71.9324021815616,2.935741496445994,1.1299115312433017,B,670.1103950035758,Incorrect,sub_017_day_24_data.csv,0,600,,Button-Switch at home,,,,,,,,,,,,,d
17,24,670,B,75.86812857560835,57.581992309790536,3.7934064287804174,0.9044958200975096,B,633.99379097973,Correct,sub_017_day_24_data.csv,1,600,,Button-Switch at home,,,,,,,,,,,,,d
17,24,671,B,50.25393709849319,33.24263144180503,2.5126968549246596,0.5221740336178389,B,1246.6854180092923,Correct,sub_017_day_24_data.csv,1,600,,Button-Switch at home,,,,,,,,,,,,,d
17,24,672,A,15.35494966747332,35.691422073358666,0.767747483373666,0.5606395469091809,A,630.6165809801314,Correct,sub_017_day_24_data.csv,1,600,,Button-Switch at home,,,,,,,,,,,,,k
17,24,673,A,36.90661093221157,45.7598713981217,1.8453305466105787,0.7187943790677642,A,1011.2501280091236,Correct,sub_017_day_24_data.csv,1,600,,Button-Switch at home,,,,,,,,,,,,,k
17,24,674,A,45.44529694538948,59.10890806570008,2.272264847269474,0.9284805567045892,A,775.5647180019878,Correct,sub_017_day_24_data.csv,1,600,,Button-Switch at home,,,,,,,,,,,,,k
17,24,675,A,46.904190000736406,73.1953757998034,2.3452095000368205,1.1497502744470327,B,540.4513670073356,Incorrect,sub_017_day_24_data.csv,0,600,,Button-Switch at home,,,,,,,,,,,,,d
17,24,676,A,41.51526562466575,57.165404681027645,2.0757632812332876,0.8979520769270202,A,683.7603060121182,Correct,sub_017_day_24_data.csv,1,600,,Button-Switch at home,,,,,,,,,,,,,k
17,24,677,A,41.057724163758216,51.98351827781911,2.052886208187911,0.8165551956467362,A,709.3749810010195,Correct,sub_017_day_24_data.csv,1,600,,Button-Switch at home,,,,,,,,,,,,,k
17,24,678,A,19.104248918014793,33.690478398470646,0.9552124459007396,0.529208797162805,A,529.4916589919012,Correct,sub_017_day_24_data.csv,1,600,,Button-Switch at home,,,,,,,,,,,,,k
17,24,679,A,34.83992538660422,44.2961220000401,1.7419962693302111,0.6958018572892161,A,661.1024950107094,Correct,sub_017_day_24_data.csv,1,600,,Button-Switch at home,,,,,,,,,,,,,k
17,24,680,A,48.29451506836823,74.91317604755075,2.414725753418411,1.1767334176403212,A,723.5795570013579,Correct,sub_017_day_24_data.csv,1,600,,Button-Switch at home,,,,,,,,,,,,,k
17,24,681,A,46.065692198158985,66.68415473274067,2.303284609907949,1.0474722530961156,A,677.2046230034903,Correct,sub_017_day_24_data.csv,1,600,,Button-Switch at home,,,,,,,,,,,,,k
17,24,682,B,37.68960584453337,23.16654458080224,1.8844802922266684,0.3638992313205437,B,672.4478190008085,Correct,sub_017_day_24_data.csv,1,600,,Button-Switch at home,,,,,,,,,,,,,d
17,24,683,B,75.34318358327188,60.70616246018302,3.7671591791635937,0.9535701700626974,A,836.506522988202,Incorrect,sub_017_day_24_data.csv,0,600,,Button-Switch at home,,,,,,,,,,,,,k
17,24,684,B,86.53485936320031,66.16625553334131,4.326742968160016,1.0393371114954504,B,570.3112480114214,Correct,sub_017_day_24_data.csv,1,600,,Button-Switch at home,,,,,,,,,,,,,d
17,24,685,A,45.62098314691032,55.14567186655285,2.2810491573455156,0.8662261880661789,A,634.5336590020452,Correct,sub_017_day_24_data.csv,1,600,,Button-Switch at home,,,,,,,,,,,,,k
17,24,686,B,63.283620832359006,34.92941959132792,3.1641810416179506,0.548670039911356,B,746.4867130038328,Correct,sub_017_day_24_data.csv,1,600,,Button-Switch at home,,,,,,,,,,,,,d
17,24,687,A,52.33637701435753,67.31196861562564,2.6168188507178765,1.057333930507581,B,492.7575780020561,Incorrect,sub_017_day_24_data.csv,0,600,,Button-Switch at home,,,,,,,,,,,,,d
17,24,688,B,72.63224882806384,47.01968963980288,3.631612441403192,0.7385835577323842,B,713.1228399812244,Correct,sub_017_day_24_data.csv,1,600,,Button-Switch at home,,,,,,,,,,,,,d
17,24,689,A,41.52807337776642,60.605623530532455,2.0764036688883207,0.9519909082487472,A,974.9660560046324,Correct,sub_017_day_24_data.csv,1,600,,Button-Switch at home,,,,,,,,,,,,,k
17,24,690,B,45.068899397763545,20.672627764227812,2.2534449698881773,0.3247248775724724,A,792.4148539896123,Incorrect,sub_017_day_24_data.csv,0,600,,Button-Switch at home,,,,,,,,,,,,,k
17,24,691,B,62.61115843418363,47.81546916038227,3.1305579217091815,0.7510836332110314,B,531.8942320009228,Correct,sub_017_day_24_data.csv,1,600,,Button-Switch at home,,,,,,,,,,,,,d
17,24,692,B,59.10054626826157,29.321136946690917,2.955027313413078,0.4605753421331222,B,714.7383549890947,Correct,sub_017_day_24_data.csv,1,600,,Button-Switch at home,,,,,,,,,,,,,d
17,24,693,A,28.98522704823461,40.35786142657489,1.4492613524117304,0.6339398048616128,B,755.6093439925462,Incorrect,sub_017_day_24_data.csv,0,600,,Button-Switch at home,,,,,,,,,,,,,d
17,24,694,A,46.616659860027546,53.46845990387129,2.330832993001377,0.8398806041638123,A,547.2071160038467,Correct,sub_017_day_24_data.csv,1,600,,Button-Switch at home,,,,,,,,,,,,,k
17,24,695,B,46.729165490013266,30.6119281574871,2.336458274500663,0.4808510430589,B,487.61382201337256,Correct,sub_017_day_24_data.csv,1,600,,Button-Switch at home,,,,,,,,,,,,,d
17,24,696,A,26.440065481284236,37.481118481763716,1.322003274064212,0.5887520323531875,A,669.8047130194027,Correct,sub_017_day_24_data.csv,1,600,,Button-Switch at home,,,,,,,,,,,,,k
17,24,697,B,55.68477605261985,40.60648027240124,2.7842388026309925,0.637845100559573,B,441.0258010029793,Correct,sub_017_day_24_data.csv,1,600,,Button-Switch at home,,,,,,,,,,,,,d
17,24,698,A,36.92378043638016,69.40031358398909,1.846189021819008,1.0901375765614405,A,767.6684970210772,Correct,sub_017_day_24_data.csv,1,600,,Button-Switch at home,,,,,,,,,,,,,k
17,24,699,B,71.98333058500707,44.89349826398534,3.5991665292503536,0.7051854217004124,B,655.7846030045766,Correct,sub_017_day_24_data.csv,1,600,,Button-Switch at home,,,,,,,,,,,,,d
17,24,700,A,19.6039853438896,39.41602690899454,0.98019926719448,0.6191455028549743,A,776.5291409741621,Correct,sub_017_day_24_data.csv,1,600,,Button-Switch at home,,,,,,,,,,,,,k
17,24,701,A,61.75437226260087,75.95555666291006,3.087718613130044,1.1931070940576074,B,435.2334779978264,Incorrect,sub_017_day_24_data.csv,0,600,,Button-Switch at home,,,,,,,,,,,,,d
17,24,702,A,40.52764534743487,64.16475982113136,2.026382267371744,1.0078976903670989,A,723.1961229990702,Correct,sub_017_day_24_data.csv,1,600,,Button-Switch at home,,,,,,,,,,,,,k
17,24,703,B,31.74944500512129,14.956359432706208,1.5874722502560648,0.2349339445911911,B,781.7083779955283,Correct,sub_017_day_24_data.csv,1,600,,Button-Switch at home,,,,,,,,,,,,,d
17,24,704,A,20.032437799125297,47.84992775636473,1.0016218899562646,0.7516249075709889,B,710.3127459995449,Incorrect,sub_017_day_24_data.csv,0,600,,Button-Switch at home,,,,,,,,,,,,,d
17,24,705,A,59.40169309388829,67.55757077219866,2.970084654694414,1.061191840161559,A,350.3956320055295,Correct,sub_017_day_24_data.csv,1,600,,Button-Switch at home,,,,,,,,,,,,,k
17,24,706,B,46.7304918761097,24.913162652064756,2.336524593805485,0.3913350438270712,B,701.3376480026636,Correct,sub_017_day_24_data.csv,1,600,,Button-Switch at home,,,,,,,,,,,,,d
17,24,707,A,28.251675972907584,39.95610148940422,1.412583798645379,0.6276289745260024,B,881.0282899939921,Incorrect,sub_017_day_24_data.csv,0,600,,Button-Switch at home,,,,,,,,,,,,,d
17,24,708,A,60.247257855094304,69.14468562206339,3.012362892754715,1.086122181925251,A,635.5371700192336,Correct,sub_017_day_24_data.csv,1,600,,Button-Switch at home,,,,,,,,,,,,,k
17,24,709,B,45.231902306716634,21.91680196481122,2.2615951153358314,0.3442683202141663,A,643.3175429992843,Incorrect,sub_017_day_24_data.csv,0,600,,Button-Switch at home,,,,,,,,,,,,,k
17,24,710,B,33.87640385682859,19.69308257543316,1.6938201928414294,0.3093382177275898,B,707.6706379884854,Correct,sub_017_day_24_data.csv,1,600,,Button-Switch at home,,,,,,,,,,,,,d
17,24,711,A,26.248359455239935,41.93578923024681,1.312417972761997,0.6587258368411668,A,889.4502699840814,Correct,sub_017_day_24_data.csv,1,600,,Button-Switch at home,,,,,,,,,,,,,k
17,24,712,B,42.257589690215696,14.560380284834157,2.1128794845107848,0.2287139186815432,B,819.3546239926945,Correct,sub_017_day_24_data.csv,1,600,,Button-Switch at home,,,,,,,,,,,,,d
17,24,713,B,43.61750740424659,23.08651001744337,2.1808753702123296,0.3626420513391363,A,842.2136229928583,Incorrect,sub_017_day_24_data.csv,0,600,,Button-Switch at home,,,,,,,,,,,,,k
17,24,714,A,63.60079774683648,84.96445536154104,3.180039887341824,1.3346185439003762,B,848.5381260106806,Incorrect,sub_017_day_24_data.csv,0,600,,Button-Switch at home,,,,,,,,,,,,,d
17,24,715,B,55.986807312081595,26.79067027207444,2.79934036560408,0.4208268645574777,B,670.2623369928915,Correct,sub_017_day_24_data.csv,1,600,,Button-Switch at home,,,,,,,,,,,,,d
17,24,716,B,68.08555437882116,48.84964941294757,3.404277718941058,0.7673284986307651,B,991.1420699791051,Correct,sub_017_day_24_data.csv,1,600,,Button-Switch at home,,,,,,,,,,,,,d
17,24,717,A,22.3607341657334,37.67719377961831,1.1180367082866698,0.5918319759296395,A,1741.3667859800626,Correct,sub_017_day_24_data.csv,1,600,,Button-Switch at home,,,,,,,,,,,,,k
17,24,718,A,21.803254741698876,42.21305697686324,1.0901627370849438,0.6630811484204047,A,1149.6854050201364,Correct,sub_017_day_24_data.csv,1,600,,Button-Switch at home,,,,,,,,,,,,,k
17,24,719,A,13.934997425079455,31.37514193602125,0.6967498712539728,0.492839577057707,A,1111.892279004678,Correct,sub_017_day_24_data.csv,1,600,,Button-Switch at home,,,,,,,,,,,,,k
17,24,720,B,56.080774215175126,48.9192150034716,2.804038710758756,0.7684212323714298,B,443.388966989005,Correct,sub_017_day_24_data.csv,1,600,,Button-Switch at home,,,,,,,,,,,,,d
17,24,721,A,36.26144404129107,67.44041961838369,1.8130722020645536,1.0593516341406355,B,734.2245260078926,Incorrect,sub_017_day_24_data.csv,0,600,,Button-Switch at home,,,,,,,,,,,,,d
17,24,722,A,59.7905939515926,69.99904499793601,2.9895296975796297,1.0995424276190855,A,1495.9056210063864,Correct,sub_017_day_24_data.csv,1,600,,Button-Switch at home,,,,,,,,,,,,,k
17,24,723,A,55.24901731946392,64.17695012631674,2.7624508659731957,1.0080891752331762,B,1379.4439939956646,Incorrect,sub_017_day_24_data.csv,0,600,,Button-Switch at home,,,,,,,,,,,,,d
17,24,724,A,23.90761850914936,34.955050430128765,1.195380925457468,0.5490726481857663,A,780.3473560197745,Correct,sub_017_day_24_data.csv,1,600,,Button-Switch at home,,,,,,,,,,,,,k
17,24,725,A,54.92340414808188,75.00663434864211,2.7461702074040937,1.1782014572009496,B,809.9758669850416,Incorrect,sub_017_day_24_data.csv,0,600,,Button-Switch at home,,,,,,,,,,,,,d
17,24,726,A,41.29237531959607,50.48540217786007,2.064618765979803,0.7930228429774565,A,1139.6960790152662,Correct,sub_017_day_24_data.csv,1,600,,Button-Switch at home,,,,,,,,,,,,,k
17,24,727,A,49.0533308304278,58.55538374505142,2.4526665415213897,0.9197858170079236,B,827.5721789977979,Incorrect,sub_017_day_24_data.csv,0,600,,Button-Switch at home,,,,,,,,,,,,,d
17,24,728,B,35.945576227774815,16.514861663273013,1.7972788113887406,0.259414840381951,B,992.2472959733568,Correct,sub_017_day_24_data.csv,1,600,,Button-Switch at home,,,,,,,,,,,,,d
17,24,729,B,47.419829022745645,20.094714511140253,2.3709914511372823,0.3156470374209122,B,2029.731345013715,Correct,sub_017_day_24_data.csv,1,600,,Button-Switch at home,,,,,,,,,,,,,d
17,24,730,A,17.854966823186608,37.04531065093866,0.8927483411593303,0.581906378954703,A,844.9367029825225,Correct,sub_017_day_24_data.csv,1,600,,Button-Switch at home,,,,,,,,,,,,,k
17,24,731,A,67.54707886690147,83.14320376795527,3.3773539433450734,1.3060103907666376,B,771.6153390065301,Incorrect,sub_017_day_24_data.csv,0,600,,Button-Switch at home,,,,,,,,,,,,,d
17,24,732,A,64.40852721992952,88.38854636368096,3.220426360996476,1.3884040395881043,A,1241.647342016222,Correct,sub_017_day_24_data.csv,1,600,,Button-Switch at home,,,,,,,,,,,,,k
17,24,733,B,32.45852808468078,18.819103671559503,1.622926404234039,0.2956097892085802,B,551.4838990056887,Correct,sub_017_day_24_data.csv,1,600,,Button-Switch at home,,,,,,,,,,,,,d
17,24,734,A,43.01087952856587,72.13070845105698,2.1505439764282936,1.133026518840339,A,710.1080259890296,Correct,sub_017_day_24_data.csv,1,600,,Button-Switch at home,,,,,,,,,,,,,k
17,24,735,B,56.06580004189684,24.00577815061378,2.803290002094842,0.377081881408373,B,1210.9720570151694,Correct,sub_017_day_24_data.csv,1,600,,Button-Switch at home,,,,,,,,,,,,,d
17,24,736,B,42.71673760411932,23.50220025553289,2.1358368802059657,0.3691716983298915,B,866.4237420016434,Correct,sub_017_day_24_data.csv,1,600,,Button-Switch at home,,,,,,,,,,,,,d
17,24,737,A,33.82896817822443,44.32086055066731,1.6914484089112216,0.6961904495337705,A,1008.3503269997892,Correct,sub_017_day_24_data.csv,1,600,,Button-Switch at home,,,,,,,,,,,,,k
17,24,738,B,53.61907960743369,25.142983358458324,2.680953980371685,0.3949450590413155,B,813.0762029904872,Correct,sub_017_day_24_data.csv,1,600,,Button-Switch at home,,,,,,,,,,,,,d
17,24,739,B,79.15204158487738,63.79067095350286,3.9576020792438698,1.002021516175442,B,1238.9645139919594,Correct,sub_017_day_24_data.csv,1,600,,Button-Switch at home,,,,,,,,,,,,,d
17,24,740,B,46.95856239762195,39.27529157964761,2.3479281198810975,0.6169348374710899,A,851.7402860161383,Incorrect,sub_017_day_24_data.csv,0,600,,Button-Switch at home,,,,,,,,,,,,,k
17,24,741,A,18.753010960400044,47.56931390809167,0.9376505480200024,0.7472170355498378,B,688.4698730136734,Incorrect,sub_017_day_24_data.csv,0,600,,Button-Switch at home,,,,,,,,,,,,,d
17,24,742,B,52.18252433453373,36.5886867236073,2.6091262167266858,0.5747337470769155,A,1313.779707998037,Incorrect,sub_017_day_24_data.csv,0,600,,Button-Switch at home,,,,,,,,,,,,,k
17,24,743,A,28.694636511125378,44.00840214461798,1.4347318255562689,0.6912823643687858,A,898.6011279921513,Correct,sub_017_day_24_data.csv,1,600,,Button-Switch at home,,,,,,,,,,,,,k
17,24,744,A,64.24974956071256,75.12694692988475,3.212487478035628,1.180091322807781,B,726.7307270085439,Incorrect,sub_017_day_24_data.csv,0,600,,Button-Switch at home,,,,,,,,,,,,,d
17,24,745,B,74.37683506000607,47.116889308807224,3.718841753000304,0.7401103665627613,B,2227.3313549812883,Correct,sub_017_day_24_data.csv,1,600,,Button-Switch at home,,,,,,,,,,,,,d
17,24,746,B,73.03852480893157,44.04931932268255,3.651926240446578,0.6919250898988522,B,2103.5473340016324,Correct,sub_017_day_24_data.csv,1,600,,Button-Switch at home,,,,,,,,,,,,,d
17,24,747,A,38.52986843098869,69.86613242494121,1.9264934215494347,1.0974546418046347,A,797.0055229961872,Correct,sub_017_day_24_data.csv,1,600,,Button-Switch at home,,,,,,,,,,,,,k
17,24,748,A,64.70880091769408,88.2446635185213,3.2354400458847037,1.386143933141449,A,1020.6161910027732,Correct,sub_017_day_24_data.csv,1,600,,Button-Switch at home,,,,,,,,,,,,,k
17,24,749,B,82.43400070752833,64.15671977212594,4.121700035376416,1.0077713975726494,B,561.1691059893928,Correct,sub_017_day_24_data.csv,1,600,,Button-Switch at home,,,,,,,,,,,,,d
17,24,750,B,73.29675646309099,41.73833390372758,3.6648378231545498,0.6556242158251417,B,593.1688779965043,Correct,sub_017_day_24_data.csv,1,600,,Button-Switch at home,,,,,,,,,,,,,d
17,24,751,B,75.13478700270562,43.33794216893126,3.756739350135281,0.6807508036980687,B,931.2095750065056,Correct,sub_017_day_24_data.csv,1,600,,Button-Switch at home,,,,,,,,,,,,,d
17,24,752,B,59.734399993709154,44.64219174975926,2.986719999685458,0.7012379082059528,A,625.0932329858188,Incorrect,sub_017_day_24_data.csv,0,600,,Button-Switch at home,,,,,,,,,,,,,k
17,24,753,B,60.104792867614776,32.77845806119943,3.005239643380739,0.5148828152053262,B,658.7273089971859,Correct,sub_017_day_24_data.csv,1,600,,Button-Switch at home,,,,,,,,,,,,,d
17,24,754,A,29.083742373218595,55.59398190968206,1.4541871186609296,0.8732682257563049,A,781.2023980077356,Correct,sub_017_day_24_data.csv,1,600,,Button-Switch at home,,,,,,,,,,,,,k
17,24,755,A,16.53316830232482,43.5621914301325,0.826658415116241,0.6842733028558825,A,987.5530450080988,Correct,sub_017_day_24_data.csv,1,600,,Button-Switch at home,,,,,,,,,,,,,k
17,24,756,B,40.72888205601282,30.69198648801875,2.0364441028006413,0.4821085963741845,B,1210.837629012531,Correct,sub_017_day_24_data.csv,1,600,,Button-Switch at home,,,,,,,,,,,,,d
17,24,757,B,35.208085682044455,23.949465724791605,1.7604042841022227,0.3761973278920292,A,1051.6944370174317,Incorrect,sub_017_day_24_data.csv,0,600,,Button-Switch at home,,,,,,,,,,,,,k
17,24,758,A,17.096952156012968,45.27170781046728,0.8548476078006485,0.7111263233641383,A,580.0548090192024,Correct,sub_017_day_24_data.csv,1,600,,Button-Switch at home,,,,,,,,,,,,,k
17,24,759,A,56.85839579316065,77.97296596042494,2.8429197896580325,1.22479648519939,A,2724.4047689891886,Correct,sub_017_day_24_data.csv,1,600,,Button-Switch at home,,,,,,,,,,,,,k
17,24,760,A,35.5505052458953,58.11279298296647,1.777525262294765,0.9128336175743595,A,838.1270070094615,Correct,sub_017_day_24_data.csv,1,600,,Button-Switch at home,,,,,,,,,,,,,k
17,24,761,B,59.72474869904177,42.25263616182147,2.986237434952088,0.6637028568039038,B,1085.4046389868015,Correct,sub_017_day_24_data.csv,1,600,,Button-Switch at home,,,,,,,,,,,,,d
17,24,762,A,52.27772638640839,77.77222675781437,2.61388631932042,1.2216432811783458,B,742.8245449846145,Incorrect,sub_017_day_24_data.csv,0,600,,Button-Switch at home,,,,,,,,,,,,,d
17,24,763,B,34.97543156294796,20.386750147853455,1.748771578147398,0.3202343224753352,B,704.9996919813566,Correct,sub_017_day_24_data.csv,1,600,,Button-Switch at home,,,,,,,,,,,,,d
17,24,764,B,81.75816471006581,66.6908765254575,4.08790823550329,1.0475778387692063,A,621.5332110004965,Incorrect,sub_017_day_24_data.csv,0,600,,Button-Switch at home,,,,,,,,,,,,,k
17,24,765,B,65.33752665835765,42.40705367603742,3.2668763329178825,0.666128441445136,B,1560.6645329971798,Correct,sub_017_day_24_data.csv,1,600,,Button-Switch at home,,,,,,,,,,,,,d
17,24,766,B,80.74117179695932,52.7047212965584,4.037058589847966,0.8278838261738269,B,1656.8118789873552,Correct,sub_017_day_24_data.csv,1,600,,Button-Switch at home,,,,,,,,,,,,,d
17,24,767,A,18.6131972710772,34.56622408369094,0.93065986355386,0.5429649782183102,A,866.9755090086255,Correct,sub_017_day_24_data.csv,1,600,,Button-Switch at home,,,,,,,,,,,,,k
17,24,768,A,38.89376641671326,54.047592338175704,1.9446883208356631,0.8489775951691438,B,1887.5196379958652,Incorrect,sub_017_day_24_data.csv,0,600,,Button-Switch at home,,,,,,,,,,,,,d
17,24,769,A,17.372058056941892,41.76460215341393,0.8686029028470946,0.6560368365263284,A,2669.81336401659,Correct,sub_017_day_24_data.csv,1,600,,Button-Switch at home,,,,,,,,,,,,,k
17,24,770,B,88.7297628631596,62.135520236157745,4.43648814315798,0.9760224695044654,B,3580.4177149839234,Correct,sub_017_day_24_data.csv,1,600,,Button-Switch at home,,,,,,,,,,,,,d
17,24,771,B,62.17404521204355,52.12996493023426,3.1087022606021777,0.8188555742835876,A,2800.47638801625,Incorrect,sub_017_day_24_data.csv,0,600,,Button-Switch at home,,,,,,,,,,,,,k
17,24,772,A,54.8501297037894,69.79194964253738,2.74250648518947,1.096289381383521,A,2460.032080009114,Correct,sub_017_day_24_data.csv,1,600,,Button-Switch at home,,,,,,,,,,,,,k
17,24,773,B,83.17456900523337,57.2802526361866,4.158728450261668,0.899756104388056,B,952.5538790039718,Correct,sub_017_day_24_data.csv,1,600,,Button-Switch at home,,,,,,,,,,,,,d
17,24,774,A,59.120556697664995,73.23454341706821,2.95602783488325,1.1503655179403212,A,3901.8283740151674,Correct,sub_017_day_24_data.csv,1,600,,Button-Switch at home,,,,,,,,,,,,,k
17,24,775,B,75.76116747350292,59.62417925715653,3.7880583736751463,0.9365744176530196,A,1017.8740919800476,Incorrect,sub_017_day_24_data.csv,0,600,,Button-Switch at home,,,,,,,,,,,,,k
17,24,776,B,51.97190060094146,41.44577638820896,2.598595030047073,0.651028733117613,B,693.6833430081606,Correct,sub_017_day_24_data.csv,1,600,,Button-Switch at home,,,,,,,,,,,,,d
17,24,777,A,46.99638834403691,60.1893961191456,2.3498194172018456,0.945452823359569,B,683.6077680054586,Incorrect,sub_017_day_24_data.csv,0,600,,Button-Switch at home,,,,,,,,,,,,,d
17,24,778,B,52.40959150382353,22.834908150002015,2.6204795751911765,0.3586898984472201,B,623.1481459981296,Correct,sub_017_day_24_data.csv,1,600,,Button-Switch at home,,,,,,,,,,,,,d
17,24,779,B,54.911444138445376,43.9417644947867,2.745572206922269,0.6902356226129736,A,784.837349987356,Incorrect,sub_017_day_24_data.csv,0,600,,Button-Switch at home,,,,,,,,,,,,,k
17,24,780,B,53.02845326583325,26.646544576170765,2.6514226632916627,0.4185629434202551,B,967.0150770107284,Correct,sub_017_day_24_data.csv,1,600,,Button-Switch at home,,,,,,,,,,,,,d
17,24,781,A,38.660406787622215,58.42987287488892,1.9330203393811107,0.9178142968696829,A,270.78184799756855,Correct,sub_017_day_24_data.csv,1,600,,Button-Switch at home,,,,,,,,,,,,,k
17,24,782,A,46.71158254234066,68.2430789489655,2.335579127117033,1.0719597774220917,B,343.6335309816059,Incorrect,sub_017_day_24_data.csv,0,600,,Button-Switch at home,,,,,,,,,,,,,d
17,24,783,A,48.778085598834174,61.55884798370661,2.4389042799417084,0.9669641229453176,A,567.2816850128584,Correct,sub_017_day_24_data.csv,1,600,,Button-Switch at home,,,,,,,,,,,,,k
17,24,784,B,46.57514463522491,22.462098823313227,2.3287572317612457,0.3528338232376438,B,2332.572433981113,Correct,sub_017_day_24_data.csv,1,600,,Button-Switch at home,,,,,,,,,,,,,d
17,24,785,B,70.23565418378642,56.68592132371404,3.5117827091893212,0.8904203699627451,B,1795.9475069947075,Correct,sub_017_day_24_data.csv,1,600,,Button-Switch at home,,,,,,,,,,,,,d
17,24,786,A,40.45548235718828,64.82160080184124,2.0227741178594143,1.0182153243649734,A,866.5578179934528,Correct,sub_017_day_24_data.csv,1,600,,Button-Switch at home,,,,,,,,,,,,,k
17,24,787,B,84.07180606735693,59.725138324532544,4.203590303367847,0.9381602789749284,B,573.0382130132057,Correct,sub_017_day_24_data.csv,1,600,,Button-Switch at home,,,,,,,,,,,,,d
17,24,788,B,57.96378484073547,29.738947797433894,2.898189242036773,0.4671382996295434,B,1021.206011006143,Correct,sub_017_day_24_data.csv,1,600,,Button-Switch at home,,,,,,,,,,,,,d
17,24,789,A,13.759412613371754,37.71282570974707,0.6879706306685877,0.5923916809792683,A,640.268560993718,Correct,sub_017_day_24_data.csv,1,600,,Button-Switch at home,,,,,,,,,,,,,k
17,24,790,A,56.755601477568504,84.0408078701033,2.8377800738784256,1.3201099230323388,A,853.2381160184741,Correct,sub_017_day_24_data.csv,1,600,,Button-Switch at home,,,,,,,,,,,,,k
17,24,791,A,44.617667622600266,53.038322229019144,2.2308833811300133,0.8331240173670738,B,585.002940002596,Incorrect,sub_017_day_24_data.csv,0,600,,Button-Switch at home,,,,,,,,,,,,,d
17,24,792,A,55.163551208774294,81.88669739330376,2.7581775604387144,1.2862732347876678,A,1350.3889690036883,Correct,sub_017_day_24_data.csv,1,600,,Button-Switch at home,,,,,,,,,,,,,k
17,24,793,A,35.92705586293227,51.164711102247544,1.7963527931466134,0.8036934026093251,A,1666.2571750057396,Correct,sub_017_day_24_data.csv,1,600,,Button-Switch at home,,,,,,,,,,,,,k
17,24,794,B,71.3902147075025,60.502416669852096,3.5695107353751245,0.95036973867218,B,1016.62751098047,Correct,sub_017_day_24_data.csv,1,600,,Button-Switch at home,,,,,,,,,,,,,d
17,24,795,B,38.610494749541346,29.428266570288812,1.930524737477067,0.462258130325507,B,2651.8010700237937,Correct,sub_017_day_24_data.csv,1,600,,Button-Switch at home,,,,,,,,,,,,,d
17,24,796,A,62.06431993735538,75.16890308017108,3.103215996867769,1.180750368475343,B,737.6939019886777,Incorrect,sub_017_day_24_data.csv,0,600,,Button-Switch at home,,,,,,,,,,,,,d
17,24,797,B,71.69702034752288,58.338563718587714,3.584851017376144,0.9163800159964762,B,2066.626115993131,Correct,sub_017_day_24_data.csv,1,600,,Button-Switch at home,,,,,,,,,,,,,d
17,24,798,B,88.45749092571214,69.02080234857064,4.422874546285607,1.0841762280157132,B,1365.1417660003062,Correct,sub_017_day_24_data.csv,1,600,,Button-Switch at home,,,,,,,,,,,,,d
17,24,799,B,49.95458735779894,37.83099573274759,2.497729367889947,0.5942478913599332,B,1954.8672629753128,Correct,sub_017_day_24_data.csv,1,600,,Button-Switch at home,,,,,,,,,,,,,d
17,24,800,B,48.02583651745557,19.40645353072193,2.4012918258727787,0.3048358592217385,B,849.6005499910098,Correct,sub_017_day_24_data.csv,1,600,,Button-Switch at home,,,,,,,,,,,,,d
17,24,801,A,29.623237933429404,52.879361403807565,1.48116189667147,0.8306270665636074,A,866.016521002166,Correct,sub_017_day_24_data.csv,1,600,,Button-Switch at home,,,,,,,,,,,,,k
17,24,802,A,63.83816675407828,79.01389226380545,3.191908337703914,1.241147317337533,B,809.8107389814686,Incorrect,sub_017_day_24_data.csv,0,600,,Button-Switch at home,,,,,,,,,,,,,d
17,24,803,B,55.43249752142316,48.139535895562034,2.771624876071158,0.756174061583599,B,2217.335680994438,Correct,sub_017_day_24_data.csv,1,600,,Button-Switch at home,,,,,,,,,,,,,d
17,24,804,B,61.19648348558389,38.39637605959148,3.0598241742791945,0.603128864766418,A,2207.301485002972,Incorrect,sub_017_day_24_data.csv,0,600,,Button-Switch at home,,,,,,,,,,,,,k
17,24,805,A,24.937533696588435,50.12085841867469,1.2468766848294217,0.7872966029986128,A,1270.4418450011872,Correct,sub_017_day_24_data.csv,1,600,,Button-Switch at home,,,,,,,,,,,,,k
17,24,806,B,38.509566392799826,20.528983377095308,1.9254783196399912,0.322468516815748,B,737.1606379747391,Correct,sub_017_day_24_data.csv,1,600,,Button-Switch at home,,,,,,,,,,,,,d
17,24,807,A,32.40088397548017,49.395404343389515,1.6200441987740084,0.7759011970314494,A,2105.1721880212426,Correct,sub_017_day_24_data.csv,1,600,,Button-Switch at home,,,,,,,,,,,,,k
17,24,808,A,14.49442246303292,32.846402479641,0.7247211231516459,0.5159500836344686,A,1208.2341159984935,Correct,sub_017_day_24_data.csv,1,600,,Button-Switch at home,,,,,,,,,,,,,k
17,24,809,A,47.03439053182684,78.06881222444567,2.3517195265913418,1.2263020347939977,A,1712.759591988288,Correct,sub_017_day_24_data.csv,1,600,,Button-Switch at home,,,,,,,,,,,,,k
17,24,810,A,37.628522084562995,66.28713743008683,1.88142610422815,1.0412359198892889,A,989.6818049892318,Correct,sub_017_day_24_data.csv,1,600,,Button-Switch at home,,,,,,,,,,,,,k
17,24,811,A,61.38679323617173,81.06195855500758,3.0693396618085864,1.2733182674100605,A,641.0834200214595,Correct,sub_017_day_24_data.csv,1,600,,Button-Switch at home,,,,,,,,,,,,,k
17,24,812,A,54.68411059967544,79.66681749069754,2.734205529983772,1.251403442818271,A,577.0436609745957,Correct,sub_017_day_24_data.csv,1,600,,Button-Switch at home,,,,,,,,,,,,,k
17,24,813,B,41.26676716710065,30.392413044340756,2.0633383583550327,0.4774029077248375,A,4595.24840299855,Incorrect,sub_017_day_24_data.csv,0,600,,Button-Switch at home,,,,,,,,,,,,,k
17,24,814,A,42.07028069619338,74.51676429142627,2.103514034809669,1.1705065963361352,A,1929.6529770072084,Correct,sub_017_day_24_data.csv,1,600,,Button-Switch at home,,,,,,,,,,,,,k
17,24,815,B,56.82247383137728,37.53662206404745,2.841123691568864,0.58962388058494,B,1439.819624996744,Correct,sub_017_day_24_data.csv,1,600,,Button-Switch at home,,,,,,,,,,,,,d
17,24,816,A,18.615052231347736,44.90703874925484,0.9307526115673868,0.7053981151456559,B,713.5937330021989,Incorrect,sub_017_day_24_data.csv,0,600,,Button-Switch at home,,,,,,,,,,,,,d
17,24,817,A,60.74836297415321,75.43204729217325,3.0374181487076606,1.1848838280916467,A,2487.774450011784,Correct,sub_017_day_24_data.csv,1,600,,Button-Switch at home,,,,,,,,,,,,,k
17,24,818,B,69.41448224377793,50.13133158827837,3.470724112188896,0.7874611151620463,A,3713.216789998114,Incorrect,sub_017_day_24_data.csv,0,600,,Button-Switch at home,,,,,,,,,,,,,k
17,24,819,B,65.35695812014008,37.92514632181917,3.267847906007004,0.5957268053547254,B,1623.154077999061,Correct,sub_017_day_24_data.csv,1,600,,Button-Switch at home,,,,,,,,,,,,,d
17,24,820,A,24.34143531141621,54.98326589114604,1.2170717655708103,0.8636751209699933,A,722.6475680072326,Correct,sub_017_day_24_data.csv,1,600,,Button-Switch at home,,,,,,,,,,,,,k
17,24,821,A,55.15786271217498,67.5027583962333,2.7578931356087493,1.0603308493732664,A,873.8797830010299,Correct,sub_017_day_24_data.csv,1,600,,Button-Switch at home,,,,,,,,,,,,,k
17,24,822,B,41.54298204058669,30.708162127513376,2.0771491020293347,0.4823626827252016,B,2155.667110986542,Correct,sub_017_day_24_data.csv,1,600,,Button-Switch at home,,,,,,,,,,,,,d
17,24,823,B,65.28586310110828,33.16761845203016,3.2642931550554137,0.5209957323298362,B,1321.113554004114,Correct,sub_017_day_24_data.csv,1,600,,Button-Switch at home,,,,,,,,,,,,,d
17,24,824,A,33.54622370100583,50.95229675357548,1.6773111850502915,0.800356805822799,B,1601.9034659839235,Incorrect,sub_017_day_24_data.csv,0,600,,Button-Switch at home,,,,,,,,,,,,,d
17,24,825,B,45.66445074291041,19.55714487737136,2.283222537145521,0.3072029133597056,B,1343.3560300036334,Correct,sub_017_day_24_data.csv,1,600,,Button-Switch at home,,,,,,,,,,,,,d
17,24,826,B,69.30637045744827,52.85974450013378,3.4653185228724137,0.8303189249612687,B,920.148260978749,Correct,sub_017_day_24_data.csv,1,600,,Button-Switch at home,,,,,,,,,,,,,d
17,24,827,B,66.88902969675854,49.51551908097495,3.344451484837927,0.7777879549173807,B,708.771142992191,Correct,sub_017_day_24_data.csv,1,600,,Button-Switch at home,,,,,,,,,,,,,d
17,24,828,A,40.01121537068868,51.838739657914914,2.000560768534434,0.8142810184032967,A,1286.59182600677,Correct,sub_017_day_24_data.csv,1,600,,Button-Switch at home,,,,,,,,,,,,,k
17,24,829,A,48.86832752627146,73.11156081381957,2.443416376313573,1.1484337117258947,A,1465.8558780211024,Correct,sub_017_day_24_data.csv,1,600,,Button-Switch at home,,,,,,,,,,,,,k
17,24,830,B,73.51410268941297,40.9022202796121,3.6757051344706486,0.6424905737297042,B,1648.1516470084898,Correct,sub_017_day_24_data.csv,1,600,,Button-Switch at home,,,,,,,,,,,,,d
17,24,831,B,48.34798694854434,34.36775117032554,2.417399347427217,0.5398473729854837,A,1159.6235649776645,Incorrect,sub_017_day_24_data.csv,0,600,,Button-Switch at home,,,,,,,,,,,,,k
17,24,832,B,83.57987040774002,56.45365216868849,4.178993520387001,0.8867718946073263,B,935.0940249860288,Correct,sub_017_day_24_data.csv,1,600,,Button-Switch at home,,,,,,,,,,,,,d
17,24,833,A,12.838429513813823,40.965621585991016,0.6419214756906912,0.6434864791214441,A,990.664042008575,Correct,sub_017_day_24_data.csv,1,600,,Button-Switch at home,,,,,,,,,,,,,k
17,24,834,A,35.21903776956958,66.04880893227623,1.7609518884784792,1.037492264599975,A,2285.40644099121,Correct,sub_017_day_24_data.csv,1,600,,Button-Switch at home,,,,,,,,,,,,,k
17,24,835,B,46.395201926142384,31.907392264710367,2.319760096307119,0.5012001456701094,B,1444.381428998895,Correct,sub_017_day_24_data.csv,1,600,,Button-Switch at home,,,,,,,,,,,,,d
17,24,836,A,11.951677625732778,33.35432630315223,0.5975838812866389,0.5239285323970991,A,1011.4520359784364,Correct,sub_017_day_24_data.csv,1,600,,Button-Switch at home,,,,,,,,,,,,,k
17,24,837,B,53.04732376351773,32.27549678410204,2.652366188175886,0.5069823179394798,B,3444.0718949772418,Correct,sub_017_day_24_data.csv,1,600,,Button-Switch at home,,,,,,,,,,,,,d
17,24,838,B,62.82103153852009,46.74326311162251,3.1410515769260043,0.7342414599814403,B,1017.927654000232,Correct,sub_017_day_24_data.csv,1,600,,Button-Switch at home,,,,,,,,,,,,,d
17,24,839,A,44.07905988763436,53.32107319952279,2.2039529943817175,0.837565459225722,B,678.5553979862016,Incorrect,sub_017_day_24_data.csv,0,600,,Button-Switch at home,,,,,,,,,,,,,d
17,24,840,A,39.396925785596075,63.76945317085563,1.9698462892798037,1.001688228024992,A,2641.81848501903,Correct,sub_017_day_24_data.csv,1,600,,Button-Switch at home,,,,,,,,,,,,,k
17,24,841,A,35.194250292959296,50.041881053163486,1.7597125146479646,0.7860560294421634,A,926.8225359846838,Correct,sub_017_day_24_data.csv,1,600,,Button-Switch at home,,,,,,,,,,,,,k
17,24,842,A,40.67219493187068,52.192374991814695,2.033609746593534,0.8198359092384433,A,1160.806481988402,Correct,sub_017_day_24_data.csv,1,600,,Button-Switch at home,,,,,,,,,,,,,k
17,24,843,A,66.29948219352812,85.16974311892234,3.3149741096764056,1.3378431964526811,A,902.79026699136,Correct,sub_017_day_24_data.csv,1,600,,Button-Switch at home,,,,,,,,,,,,,k
17,24,844,B,59.54494485991397,45.52527198178396,2.9772472429956984,0.7151093000532487,B,797.8199319913983,Correct,sub_017_day_24_data.csv,1,600,,Button-Switch at home,,,,,,,,,,,,,d
17,24,845,B,44.56805510874153,24.14127802053096,2.2284027554370764,0.379210308387844,B,1092.8044160245918,Correct,sub_017_day_24_data.csv,1,600,,Button-Switch at home,,,,,,,,,,,,,d
17,24,846,B,50.38932335618686,23.226197293737343,2.519466167809343,0.3648362539441618,B,1611.3458390173037,Correct,sub_017_day_24_data.csv,1,600,,Button-Switch at home,,,,,,,,,,,,,d
17,24,847,A,26.90354567870924,59.28397531764047,1.345177283935462,0.9312305066674896,A,717.2479869914241,Correct,sub_017_day_24_data.csv,1,600,,Button-Switch at home,,,,,,,,,,,,,k
17,24,848,A,38.25937990383397,65.39069086213519,1.9129689951916984,1.0271545701282254,B,721.3585999852512,Incorrect,sub_017_day_24_data.csv,0,600,,Button-Switch at home,,,,,,,,,,,,,d
17,24,849,B,76.72828863843611,49.218531827077655,3.8364144319218054,0.7731228900421128,B,1694.701915985206,Correct,sub_017_day_24_data.csv,1,600,,Button-Switch at home,,,,,,,,,,,,,d
17,24,850,B,84.275958750462,62.13903079458365,4.2137979375231,0.9760776132272696,B,943.8403450185432,Correct,sub_017_day_24_data.csv,1,600,,Button-Switch at home,,,,,,,,,,,,,d
17,24,851,A,27.38195277751442,49.15402746628838,1.369097638875721,0.7721096579122124,A,1027.148227993166,Correct,sub_017_day_24_data.csv,1,600,,Button-Switch at home,,,,,,,,,,,,,k
17,24,852,A,26.578049706651484,50.7427400045247,1.3289024853325742,0.7970650961061584,A,981.712783977855,Correct,sub_017_day_24_data.csv,1,600,,Button-Switch at home,,,,,,,,,,,,,k
17,24,853,B,47.84917294036487,38.281025183604605,2.3924586470182434,0.6013169374434905,B,842.1713230200112,Correct,sub_017_day_24_data.csv,1,600,,Button-Switch at home,,,,,,,,,,,,,d
17,24,854,B,85.63756284411043,62.67671826938191,4.281878142205522,0.9845235883310368,B,1402.1054769982584,Correct,sub_017_day_24_data.csv,1,600,,Button-Switch at home,,,,,,,,,,,,,d
17,24,855,B,54.24679341335121,22.859116731827996,2.7123396706675607,0.3590701659613117,B,1428.426099009812,Correct,sub_017_day_24_data.csv,1,600,,Button-Switch at home,,,,,,,,,,,,,d
17,24,856,B,75.55982596214542,48.54824001475944,3.777991298107271,0.7625939708754115,B,1075.6574700062629,Correct,sub_017_day_24_data.csv,1,600,,Button-Switch at home,,,,,,,,,,,,,d
17,24,857,A,22.934809820091385,55.08016574994823,1.146740491004569,0.8651972203927274,A,956.4959230192472,Correct,sub_017_day_24_data.csv,1,600,,Button-Switch at home,,,,,,,,,,,,,k
17,24,858,B,43.61111848625892,31.327364417213538,2.180555924312946,0.4920890895472416,B,1815.7217010157185,Correct,sub_017_day_24_data.csv,1,600,,Button-Switch at home,,,,,,,,,,,,,d
17,24,859,B,49.49543772613279,29.072075666910653,2.4747718863066397,0.4566630966988654,B,659.8550009948667,Correct,sub_017_day_24_data.csv,1,600,,Button-Switch at home,,,,,,,,,,,,,d
17,24,860,A,29.728479815317225,50.05966282330238,1.4864239907658612,0.7863353448343441,A,3633.762854995439,Correct,sub_017_day_24_data.csv,1,600,,Button-Switch at home,,,,,,,,,,,,,k
17,24,861,A,18.25645023976188,36.28536314279951,0.912822511988094,0.569969151411284,B,2730.005365010584,Incorrect,sub_017_day_24_data.csv,0,600,,Button-Switch at home,,,,,,,,,,,,,d
17,24,862,A,25.22588694736315,51.97931925259742,1.2612943473681577,0.8164892375127928,A,1091.620577004505,Correct,sub_017_day_24_data.csv,1,600,,Button-Switch at home,,,,,,,,,,,,,k
17,24,863,B,81.49990620353266,66.69091090957261,4.074995310176633,1.0475783788736237,B,2124.085542978719,Correct,sub_017_day_24_data.csv,1,600,,Button-Switch at home,,,,,,,,,,,,,d
17,24,864,B,51.97833156581316,39.35789107927509,2.5989165782906576,0.6182323073771895,A,1143.7421400041785,Incorrect,sub_017_day_24_data.csv,0,600,,Button-Switch at home,,,,,,,,,,,,,k
17,24,865,B,54.88428509536592,32.88357435788222,2.744214254768296,0.5165339781324824,A,1129.9415639950894,Incorrect,sub_017_day_24_data.csv,0,600,,Button-Switch at home,,,,,,,,,,,,,k
17,24,866,A,54.151777461337495,82.2904216933708,2.7075888730668747,1.2926149212634994,A,1596.3271289947445,Correct,sub_017_day_24_data.csv,1,600,,Button-Switch at home,,,,,,,,,,,,,k
17,24,867,A,23.34009514910587,50.83036252534872,1.1670047574552938,0.7984414674447072,B,1094.6704070083797,Incorrect,sub_017_day_24_data.csv,0,600,,Button-Switch at home,,,,,,,,,,,,,d
17,24,868,B,76.73248443778579,54.84918703116546,3.836624221889289,0.8615690151624097,A,2576.318915002048,Incorrect,sub_017_day_24_data.csv,0,600,,Button-Switch at home,,,,,,,,,,,,,k
17,24,869,B,56.6815145574908,34.18608888217982,2.83407572787454,0.536993828436119,B,967.8891189978458,Correct,sub_017_day_24_data.csv,1,600,,Button-Switch at home,,,,,,,,,,,,,d
17,24,870,A,49.04467077416158,76.60054030531754,2.452233538708079,1.2032384734209722,A,913.5183299949858,Correct,sub_017_day_24_data.csv,1,600,,Button-Switch at home,,,,,,,,,,,,,k
17,24,871,A,40.004865351075026,66.77365345524665,2.000243267553751,1.0488780957417678,A,880.7554630038794,Correct,sub_017_day_24_data.csv,1,600,,Button-Switch at home,,,,,,,,,,,,,k
17,24,872,B,66.77359991594841,58.706743618116974,3.3386799957974205,0.9221633723342788,A,1124.037748988485,Incorrect,sub_017_day_24_data.csv,0,600,,Button-Switch at home,,,,,,,,,,,,,k
17,24,873,B,36.99108734499117,23.455066616828628,1.849554367249559,0.3684313248644401,A,799.1907880059443,Incorrect,sub_017_day_24_data.csv,0,600,,Button-Switch at home,,,,,,,,,,,,,k
17,24,874,B,86.511969470767,59.81835270352231,4.32559847353835,0.939624487016144,B,893.3876230148599,Correct,sub_017_day_24_data.csv,1,600,,Button-Switch at home,,,,,,,,,,,,,d
17,24,875,B,40.3068261707673,27.99444805060396,2.015341308538365,0.4397357616853924,A,735.0498510058969,Incorrect,sub_017_day_24_data.csv,0,600,,Button-Switch at home,,,,,,,,,,,,,k
17,24,876,B,59.06057005293996,30.213957935360668,2.9530285026469976,0.4745997414280006,B,1234.0484879969154,Correct,sub_017_day_24_data.csv,1,600,,Button-Switch at home,,,,,,,,,,,,,d
17,24,877,A,58.96094787541074,67.19665698255756,2.948047393770537,1.0555226196109804,B,779.0226610086393,Incorrect,sub_017_day_24_data.csv,0,600,,Button-Switch at home,,,,,,,,,,,,,d
17,24,878,B,72.37463475739604,47.639195533631955,3.618731737869802,0.7483147335569291,B,854.8788590123877,Correct,sub_017_day_24_data.csv,1,600,,Button-Switch at home,,,,,,,,,,,,,d
17,24,879,A,43.57402746810698,70.82797729302987,2.178701373405349,1.1125632656620366,A,2098.339974996634,Correct,sub_017_day_24_data.csv,1,600,,Button-Switch at home,,,,,,,,,,,,,k
17,24,880,A,65.35175852236043,89.2715876814458,3.2675879261180216,1.402274820171636,B,2012.2494509851097,Incorrect,sub_017_day_24_data.csv,0,600,,Button-Switch at home,,,,,,,,,,,,,d
17,24,881,A,29.03377680798691,50.412954265666734,1.4516888403993458,0.7918848338338843,A,818.6116440047044,Correct,sub_017_day_24_data.csv,1,600,,Button-Switch at home,,,,,,,,,,,,,k
17,24,882,A,20.028210635889163,38.851328260220384,1.0014105317944582,0.6102752372225693,A,1172.1742460213136,Correct,sub_017_day_24_data.csv,1,600,,Button-Switch at home,,,,,,,,,,,,,k
17,24,883,B,44.34157486810566,15.713709109677117,2.217078743405283,0.2468303654980431,B,1835.9739139850717,Correct,sub_017_day_24_data.csv,1,600,,Button-Switch at home,,,,,,,,,,,,,d
17,24,884,A,60.53913867645531,78.40094604288834,3.026956933822766,1.2315191806141388,A,1127.3143230064306,Correct,sub_017_day_24_data.csv,1,600,,Button-Switch at home,,,,,,,,,,,,,k
17,24,885,B,68.3894360054261,46.11700705787194,3.419471800271305,0.7244042528927956,B,1163.466836005682,Correct,sub_017_day_24_data.csv,1,600,,Button-Switch at home,,,,,,,,,,,,,d
17,24,886,B,47.82969198044152,27.615672175687244,2.391484599022076,0.4337859641554155,A,1322.9374870134052,Incorrect,sub_017_day_24_data.csv,0,600,,Button-Switch at home,,,,,,,,,,,,,k
17,24,887,A,15.333698256863164,35.781786184985506,0.7666849128431582,0.5620589830553561,A,2813.118438993115,Correct,sub_017_day_24_data.csv,1,600,,Button-Switch at home,,,,,,,,,,,,,k
17,24,888,B,45.02260021540556,34.760279273926706,2.251130010770278,0.5460131900184885,B,1121.2258120067418,Correct,sub_017_day_24_data.csv,1,600,,Button-Switch at home,,,,,,,,,,,,,d
17,24,889,A,67.55749634351851,88.78259895568496,3.3778748171759254,1.394593803228943,A,1390.177332010353,Correct,sub_017_day_24_data.csv,1,600,,Button-Switch at home,,,,,,,,,,,,,k
17,24,890,A,35.28428056477772,55.67378105029794,1.7642140282388856,0.8745217077259132,A,1304.8836200032383,Correct,sub_017_day_24_data.csv,1,600,,Button-Switch at home,,,,,,,,,,,,,k
17,24,891,B,57.5753839415725,31.73648885894898,2.878769197078625,0.4985156012500421,B,1041.6759150102737,Correct,sub_017_day_24_data.csv,1,600,,Button-Switch at home,,,,,,,,,,,,,d
17,24,892,A,22.92244391185701,51.75328796838263,1.1461221955928504,0.8129387464029394,A,921.8134949915112,Correct,sub_017_day_24_data.csv,1,600,,Button-Switch at home,,,,,,,,,,,,,k
17,24,893,B,51.6242196075424,39.38883189092203,2.58121098037712,0.61871832451002,B,2712.4415210273582,Correct,sub_017_day_24_data.csv,1,600,,Button-Switch at home,,,,,,,,,,,,,d
17,24,894,B,78.46763131889014,58.2414199469337,3.9233815659445073,0.9148540851996246,B,1377.653648989508,Correct,sub_017_day_24_data.csv,1,600,,Button-Switch at home,,,,,,,,,,,,,d
17,24,895,B,62.24301287354774,41.23217974194862,3.112150643677387,0.6476735648439983,B,1697.4814250133932,Correct,sub_017_day_24_data.csv,1,600,,Button-Switch at home,,,,,,,,,,,,,d
17,24,896,B,76.11814787929947,52.84062004116789,3.805907393964974,0.8300185186623131,B,1568.9137860026676,Correct,sub_017_day_24_data.csv,1,600,,Button-Switch at home,,,,,,,,,,,,,d
17,24,897,B,62.64553179353821,31.039507474099693,3.132276589676911,0.4875674432583853,B,1801.2573340092786,Correct,sub_017_day_24_data.csv,1,600,,Button-Switch at home,,,,,,,,,,,,,d
17,24,898,B,60.57901556431221,34.301159650937294,3.02895077821561,0.5388013558449761,B,1014.3790100119076,Correct,sub_017_day_24_data.csv,1,600,,Button-Switch at home,,,,,,,,,,,,,d
17,24,899,A,63.23183377986962,80.09461355085192,3.1615916889934805,1.2581232476173494,A,1159.6412590006366,Correct,sub_017_day_24_data.csv,1,600,,Button-Switch at home,,,,,,,,,,,,,k
17,24,900,B,69.61307615547138,49.699678541204946,3.480653807773569,0.7806807249541188,B,1278.2451300008688,Correct,sub_017_day_24_data.csv,1,600,,Button-Switch at home,,,,,,,,,,,,,d
17,24,901,A,51.13547991645908,64.4939542714377,2.556773995822954,1.0130686647005238,A,1211.482373997569,Correct,sub_017_day_24_data.csv,1,600,,Button-Switch at home,,,,,,,,,,,,,k
17,24,902,A,25.52302879417792,38.56882253911621,1.276151439708896,0.6058376477324796,A,1759.1457449889276,Correct,sub_017_day_24_data.csv,1,600,,Button-Switch at home,,,,,,,,,,,,,k
17,24,903,B,82.51445395157512,58.40341526641035,4.125722697578755,0.9173987017275436,B,1266.0283709992657,Correct,sub_017_day_24_data.csv,1,600,,Button-Switch at home,,,,,,,,,,,,,d
17,24,904,A,46.19416856709971,54.11762970884977,2.309708428354986,0.8500777396150758,A,1352.31422301149,Correct,sub_017_day_24_data.csv,1,600,,Button-Switch at home,,,,,,,,,,,,,k
17,24,905,A,36.54247277051444,49.53884130023388,1.8271236385257223,0.778154299480827,B,1502.9917100036982,Incorrect,sub_017_day_24_data.csv,0,600,,Button-Switch at home,,,,,,,,,,,,,d
17,24,906,A,19.836831348548984,38.8015125617205,0.9918415674274492,0.609492734060366,A,1403.7767020054162,Correct,sub_017_day_24_data.csv,1,600,,Button-Switch at home,,,,,,,,,,,,,k
17,24,907,B,70.02811391605088,50.48932670729821,3.501405695802544,0.7930844893417148,B,1392.0509989839047,Correct,sub_017_day_24_data.csv,1,600,,Button-Switch at home,,,,,,,,,,,,,d
17,24,908,A,68.74091538910253,82.60061776978748,3.437045769455126,1.2974874698377143,A,2317.8792459948454,Correct,sub_017_day_24_data.csv,1,600,,Button-Switch at home,,,,,,,,,,,,,k
17,24,909,B,74.38251251010159,47.62855012355504,3.71912562550508,0.7481475158464687,B,845.5582309979945,Correct,sub_017_day_24_data.csv,1,600,,Button-Switch at home,,,,,,,,,,,,,d
17,24,910,A,39.71536919909854,68.10222376860891,1.985768459954927,1.0697472294229498,A,1380.9707970067393,Correct,sub_017_day_24_data.csv,1,600,,Button-Switch at home,,,,,,,,,,,,,k
17,24,911,B,87.57640527244561,67.32421418029827,4.378820263622281,1.0575262833876542,B,1222.0800179929938,Correct,sub_017_day_24_data.csv,1,600,,Button-Switch at home,,,,,,,,,,,,,d
17,24,912,B,47.43107266542664,32.97111380044184,2.3715536332713323,0.5179090444807056,B,1075.045217992738,Correct,sub_017_day_24_data.csv,1,600,,Button-Switch at home,,,,,,,,,,,,,d
17,24,913,A,56.59967316816572,82.89383374871407,2.8299836584082865,1.302093295664269,A,979.4144360057544,Correct,sub_017_day_24_data.csv,1,600,,Button-Switch at home,,,,,,,,,,,,,k
17,24,914,A,50.73220625775261,81.31321186760351,2.5366103128876305,1.277264945215268,A,1208.049773995299,Correct,sub_017_day_24_data.csv,1,600,,Button-Switch at home,,,,,,,,,,,,,k
17,24,915,A,40.92210968907441,54.98375175257733,2.0461054844537205,0.8636827528635092,A,1363.6062379810028,Correct,sub_017_day_24_data.csv,1,600,,Button-Switch at home,,,,,,,,,,,,,k
17,24,916,B,59.27522451733603,29.777721208646675,2.9637612258668016,0.4677473509486468,B,961.573063977994,Correct,sub_017_day_24_data.csv,1,600,,Button-Switch at home,,,,,,,,,,,,,d
17,24,917,A,46.7780086394196,59.11442002705651,2.3389004319709796,0.9285671383911104,A,2250.840421009343,Correct,sub_017_day_24_data.csv,1,600,,Button-Switch at home,,,,,,,,,,,,,k
17,24,918,A,34.93594427045916,64.4773822985831,1.746797213522958,1.012808352759646,A,2748.011324001709,Correct,sub_017_day_24_data.csv,1,600,,Button-Switch at home,,,,,,,,,,,,,k
17,24,919,B,59.7925173766415,34.43778630903424,2.989625868832075,0.5409474823717856,B,1528.903630009154,Correct,sub_017_day_24_data.csv,1,600,,Button-Switch at home,,,,,,,,,,,,,d
17,24,920,B,74.77543503479691,59.70365070897722,3.7387717517398458,0.9378227522990694,B,1506.952125026146,Correct,sub_017_day_24_data.csv,1,600,,Button-Switch at home,,,,,,,,,,,,,d
17,24,921,B,81.61705100792356,59.899831132808856,4.080852550396179,0.9409043471905074,B,1288.6948880041018,Correct,sub_017_day_24_data.csv,1,600,,Button-Switch at home,,,,,,,,,,,,,d
17,24,922,B,68.97157879255235,51.54216343881765,3.4485789396276174,0.8096224100475697,B,1039.1883779957425,Correct,sub_017_day_24_data.csv,1,600,,Button-Switch at home,,,,,,,,,,,,,d
17,24,923,A,49.64181325975646,58.83168435629433,2.482090662987823,0.9241259368602392,A,1491.839872993296,Correct,sub_017_day_24_data.csv,1,600,,Button-Switch at home,,,,,,,,,,,,,k
17,24,924,B,80.33349071595462,48.782774541205455,4.016674535797731,0.7662780306018914,B,1036.177645000862,Correct,sub_017_day_24_data.csv,1,600,,Button-Switch at home,,,,,,,,,,,,,d
17,24,925,B,84.91525040443699,57.94718285579217,4.245762520221849,0.9102322197799054,B,1104.304215987213,Correct,sub_017_day_24_data.csv,1,600,,Button-Switch at home,,,,,,,,,,,,,d
17,24,926,A,52.44636184184968,69.97362418604062,2.622318092092484,1.0991431184395914,A,1101.3493840000592,Correct,sub_017_day_24_data.csv,1,600,,Button-Switch at home,,,,,,,,,,,,,k
17,24,927,B,78.76597463771945,65.84324730885615,3.938298731885973,1.034263310169992,B,934.6587639884092,Correct,sub_017_day_24_data.csv,1,600,,Button-Switch at home,,,,,,,,,,,,,d
17,24,928,A,52.58745793667576,77.29965730974311,2.629372896833788,1.2142201776464874,A,1162.725953006884,Correct,sub_017_day_24_data.csv,1,600,,Button-Switch at home,,,,,,,,,,,,,k
17,24,929,B,77.72770664084358,61.20455990436021,3.886385332042179,0.9613989788086722,B,1314.276465011062,Correct,sub_017_day_24_data.csv,1,600,,Button-Switch at home,,,,,,,,,,,,,d
17,24,930,B,31.15147641195193,13.479736437844648,1.5575738205975964,0.2117392048272969,B,1938.6196410050616,Correct,sub_017_day_24_data.csv,1,600,,Button-Switch at home,,,,,,,,,,,,,d
17,24,931,B,54.96424607426397,24.56066575632132,2.7482123037131987,0.3857980355366673,B,900.3335169982165,Correct,sub_017_day_24_data.csv,1,600,,Button-Switch at home,,,,,,,,,,,,,d
17,24,932,A,45.14294204778761,63.49495399844877,2.2571471023893808,0.9973764051077424,A,1127.8066789964214,Correct,sub_017_day_24_data.csv,1,600,,Button-Switch at home,,,,,,,,,,,,,k
17,24,933,A,54.3770530698111,75.86967524185317,2.718852653490555,1.1917580718502463,A,1118.3476479782255,Correct,sub_017_day_24_data.csv,1,600,,Button-Switch at home,,,,,,,,,,,,,k
17,24,934,B,46.39641901470912,23.93663287707308,2.319820950735456,0.3759957499914435,A,1409.4207680027466,Incorrect,sub_017_day_24_data.csv,0,600,,Button-Switch at home,,,,,,,,,,,,,k
17,24,935,B,37.210203393314174,19.917545044727564,1.8605101696657087,0.3128640659502995,B,815.689103998011,Correct,sub_017_day_24_data.csv,1,600,,Button-Switch at home,,,,,,,,,,,,,d
17,24,936,B,63.24304456558693,36.856077994316216,3.162152228279347,0.5789339193353813,B,906.4020439982414,Correct,sub_017_day_24_data.csv,1,600,,Button-Switch at home,,,,,,,,,,,,,d
17,24,937,B,54.875122580507686,45.15943475587914,2.743756129025384,0.7093627423466875,B,1010.5418570165056,Correct,sub_017_day_24_data.csv,1,600,,Button-Switch at home,,,,,,,,,,,,,d
17,24,938,B,41.00380105202005,27.93065420946816,2.0501900526010024,0.4387336903721101,B,814.4524589879438,Correct,sub_017_day_24_data.csv,1,600,,Button-Switch at home,,,,,,,,,,,,,d
17,24,939,B,75.32071865578378,61.779216123719934,3.7660359327891886,0.9704256575940732,B,1243.6939350154717,Correct,sub_017_day_24_data.csv,1,600,,Button-Switch at home,,,,,,,,,,,,,d
17,24,940,A,56.83479697364113,70.84463664645212,2.8417398486820566,1.1128249501736611,A,1372.703928995179,Correct,sub_017_day_24_data.csv,1,600,,Button-Switch at home,,,,,,,,,,,,,k
17,24,941,B,40.15005636501154,23.59182628576447,2.007502818250577,0.3705795407206211,B,1456.4737220061943,Correct,sub_017_day_24_data.csv,1,600,,Button-Switch at home,,,,,,,,,,,,,d
17,24,942,A,53.778105400530094,61.77599933269826,2.6889052700265044,0.9703751283588642,A,1095.2281430072617,Correct,sub_017_day_24_data.csv,1,600,,Button-Switch at home,,,,,,,,,,,,,k
17,24,943,A,15.360790552151908,40.783662794504274,0.7680395276075954,0.6406282771084899,A,2051.8709720054176,Correct,sub_017_day_24_data.csv,1,600,,Button-Switch at home,,,,,,,,,,,,,k
17,24,944,A,49.12483508663287,60.33396373425055,2.4562417543316433,0.9477236861473728,B,1674.0192220022436,Incorrect,sub_017_day_24_data.csv,0,600,,Button-Switch at home,,,,,,,,,,,,,d
17,24,945,B,67.07693085011641,41.47625485922223,3.3538465425058206,0.6515074878207526,B,882.9175310092978,Correct,sub_017_day_24_data.csv,1,600,,Button-Switch at home,,,,,,,,,,,,,d
17,24,946,B,61.73205037423271,45.595720236882066,3.0866025187116355,0.7162158986566207,B,930.3476820059586,Correct,sub_017_day_24_data.csv,1,600,,Button-Switch at home,,,,,,,,,,,,,d
17,24,947,A,34.00960744009971,49.684522692979385,1.7004803720049853,0.780442657446897,A,1196.793951006839,Correct,sub_017_day_24_data.csv,1,600,,Button-Switch at home,,,,,,,,,,,,,k
17,24,948,B,59.517422887629984,43.54893137606097,2.975871144381499,0.6840650144135959,B,923.5636929806788,Correct,sub_017_day_24_data.csv,1,600,,Button-Switch at home,,,,,,,,,,,,,d
17,24,949,A,18.297253531509483,38.68557829515187,0.9148626765754742,0.6076716428596093,A,932.981353980722,Correct,sub_017_day_24_data.csv,1,600,,Button-Switch at home,,,,,,,,,,,,,k
17,24,950,A,21.125470213748713,40.61470837807039,1.0562735106874357,0.6379743473411886,A,1224.7461410006508,Correct,sub_017_day_24_data.csv,1,600,,Button-Switch at home,,,,,,,,,,,,,k
17,24,951,B,67.70346921526348,34.85968052818038,3.385173460763174,0.5475745812690931,B,1025.6958730169572,Correct,sub_017_day_24_data.csv,1,600,,Button-Switch at home,,,,,,,,,,,,,d
17,24,952,A,38.08252957478302,66.46405810302093,1.904126478739151,1.0440149833210788,A,1354.3641160067637,Correct,sub_017_day_24_data.csv,1,600,,Button-Switch at home,,,,,,,,,,,,,k
17,24,953,B,88.67781073161254,64.52609349658695,4.433890536580627,1.0135735064686284,B,1809.8404810007196,Correct,sub_017_day_24_data.csv,1,600,,Button-Switch at home,,,,,,,,,,,,,d
17,24,954,A,42.73949958636754,61.11925037875811,2.136974979318377,0.9600589399141084,A,2502.032447984675,Correct,sub_017_day_24_data.csv,1,600,,Button-Switch at home,,,,,,,,,,,,,k
17,24,955,B,79.5623627413641,57.59668824249536,3.978118137068205,0.9047266632686252,B,856.7121239902917,Correct,sub_017_day_24_data.csv,1,600,,Button-Switch at home,,,,,,,,,,,,,d
17,24,956,B,45.473837986921446,23.787685037207872,2.273691899346072,0.3736560827940005,B,1110.7210610061884,Correct,sub_017_day_24_data.csv,1,600,,Button-Switch at home,,,,,,,,,,,,,d
17,24,957,B,44.21516328620552,29.74088345902438,2.2107581643102763,0.4671687049307059,A,782.5891770189628,Incorrect,sub_017_day_24_data.csv,0,600,,Button-Switch at home,,,,,,,,,,,,,k
17,24,958,B,58.10753596565781,27.704806366729123,2.905376798282891,0.4351860807542198,B,985.0157650071196,Correct,sub_017_day_24_data.csv,1,600,,Button-Switch at home,,,,,,,,,,,,,d
17,24,959,B,44.32853967749936,17.24176763483818,2.216426983874968,0.2708330526825494,B,991.0523479920812,Correct,sub_017_day_24_data.csv,1,600,,Button-Switch at home,,,,,,,,,,,,,d
17,24,960,A,59.86868479642763,69.53998924170058,2.993434239821381,1.092331596662199,A,1221.9535619951785,Correct,sub_017_day_24_data.csv,1,600,,Button-Switch at home,,,,,,,,,,,,,k
17,24,961,B,45.69754675073462,33.99789041428777,2.284877337536731,0.5340376138153865,B,1528.1708399998024,Correct,sub_017_day_24_data.csv,1,600,,Button-Switch at home,,,,,,,,,,,,,d
17,24,962,B,47.4492441275257,27.158209551894167,2.372462206376285,0.4266001580644142,B,1035.7880289957393,Correct,sub_017_day_24_data.csv,1,600,,Button-Switch at home,,,,,,,,,,,,,d
17,24,963,A,47.96836303684326,68.57681102554659,2.398418151842163,1.0772020286223634,A,1129.1920009825844,Correct,sub_017_day_24_data.csv,1,600,,Button-Switch at home,,,,,,,,,,,,,k
17,24,964,A,19.62884136880268,43.998259021883015,0.9814420684401342,0.6911230365694425,A,1245.5355200218037,Correct,sub_017_day_24_data.csv,1,600,,Button-Switch at home,,,,,,,,,,,,,k
17,24,965,A,40.34456948830318,67.57670442480308,2.017228474415159,1.061492390873851,B,1585.2402769960463,Incorrect,sub_017_day_24_data.csv,0,600,,Button-Switch at home,,,,,,,,,,,,,d
17,24,966,B,79.20710141313182,52.311281593427154,3.960355070656591,0.8217036897688886,B,992.473695980152,Correct,sub_017_day_24_data.csv,1,600,,Button-Switch at home,,,,,,,,,,,,,d
17,24,967,A,48.552295024249126,77.94495347456217,2.4276147512124564,1.2243564661004136,A,844.1409630177077,Correct,sub_017_day_24_data.csv,1,600,,Button-Switch at home,,,,,,,,,,,,,k
17,24,968,A,57.71779609340278,77.62108879341962,2.885889804670139,1.2192692115852404,A,1241.2016399903223,Correct,sub_017_day_24_data.csv,1,600,,Button-Switch at home,,,,,,,,,,,,,k
17,24,969,A,20.834621983743144,45.685740280688165,1.0417310991871571,0.7176299301981061,A,923.1853160017636,Correct,sub_017_day_24_data.csv,1,600,,Button-Switch at home,,,,,,,,,,,,,k
17,24,970,B,34.46097109345058,18.970744174596703,1.7230485546725292,0.2979917526602218,B,898.1835830199998,Correct,sub_017_day_24_data.csv,1,600,,Button-Switch at home,,,,,,,,,,,,,d
17,24,971,A,31.60489078485047,55.627476832129624,1.5802445392425233,0.8737943627677741,A,1703.087161993608,Correct,sub_017_day_24_data.csv,1,600,,Button-Switch at home,,,,,,,,,,,,,k
17,24,972,B,68.12429310163428,41.92500712753285,3.406214655081714,0.6585564719677844,B,1056.9679690233895,Correct,sub_017_day_24_data.csv,1,600,,Button-Switch at home,,,,,,,,,,,,,d
17,24,973,B,54.61807346523676,47.369182778468165,2.730903673261838,0.7440733831169387,A,1743.5580849996768,Incorrect,sub_017_day_24_data.csv,0,600,,Button-Switch at home,,,,,,,,,,,,,k
17,24,974,A,57.533655238506626,81.92319193115542,2.8766827619253315,1.2868464896477223,A,1976.5729689970613,Correct,sub_017_day_24_data.csv,1,600,,Button-Switch at home,,,,,,,,,,,,,k
17,24,975,A,29.85990101884293,48.75859555261964,1.4929950509421466,0.7658982279373291,B,1186.160937009845,Incorrect,sub_017_day_24_data.csv,0,600,,Button-Switch at home,,,,,,,,,,,,,d
17,24,976,B,32.718887189519336,18.139765978793218,1.6359443594759668,0.2849387776840741,B,1483.0218270071782,Correct,sub_017_day_24_data.csv,1,600,,Button-Switch at home,,,,,,,,,,,,,d
17,24,977,A,44.24572149663381,66.12765194090454,2.212286074831691,1.0387307276834428,A,960.7185409986414,Correct,sub_017_day_24_data.csv,1,600,,Button-Switch at home,,,,,,,,,,,,,k
17,24,978,B,48.54669344765895,33.36502282199293,2.4273346723829476,0.5240965529221439,B,1544.7567219962366,Correct,sub_017_day_24_data.csv,1,600,,Button-Switch at home,,,,,,,,,,,,,d
17,24,979,A,21.304158250219803,36.27568960208931,1.06520791251099,0.569817199789137,A,1231.579970975872,Correct,sub_017_day_24_data.csv,1,600,,Button-Switch at home,,,,,,,,,,,,,k
17,24,980,A,28.09046875150555,55.69126089714407,1.4045234375752778,0.8747962805181017,A,1129.8832350003067,Correct,sub_017_day_24_data.csv,1,600,,Button-Switch at home,,,,,,,,,,,,,k
17,24,981,A,39.21194204740731,56.52053048553057,1.9605971023703657,0.887822416751704,B,1124.6370410081,Incorrect,sub_017_day_24_data.csv,0,600,,Button-Switch at home,,,,,,,,,,,,,d
17,24,982,B,40.48798010845695,27.67098822887398,2.024399005422848,0.4346548666870006,B,994.5812669757288,Correct,sub_017_day_24_data.csv,1,600,,Button-Switch at home,,,,,,,,,,,,,d
17,24,983,A,44.80202191120264,69.66588054957124,2.240101095560132,1.0943090927019854,A,849.5213150163181,Correct,sub_017_day_24_data.csv,1,600,,Button-Switch at home,,,,,,,,,,,,,k
17,24,984,A,54.53962624375553,62.51611818724355,2.7269813121877764,0.982000888139978,B,1288.2427999866195,Incorrect,sub_017_day_24_data.csv,0,600,,Button-Switch at home,,,,,,,,,,,,,d
17,24,985,A,13.228287546742,35.8953717389609,0.6614143773371,0.5638431807649711,A,1246.394051995594,Correct,sub_017_day_24_data.csv,1,600,,Button-Switch at home,,,,,,,,,,,,,k
17,24,986,B,64.81265721038339,37.810515736004895,3.24063286051917,0.5939261923233713,B,980.446759989718,Correct,sub_017_day_24_data.csv,1,600,,Button-Switch at home,,,,,,,,,,,,,d
17,24,987,B,68.85911783191666,41.16594191003006,3.442955891595833,0.6466331034132731,A,1859.0708669798912,Incorrect,sub_017_day_24_data.csv,0,600,,Button-Switch at home,,,,,,,,,,,,,k
17,24,988,A,24.197323796910908,36.45479183351755,1.2098661898455454,0.5726305310616197,A,1395.2791529882234,Correct,sub_017_day_24_data.csv,1,600,,Button-Switch at home,,,,,,,,,,,,,k
17,24,989,B,88.43723085706738,65.07153638424475,4.421861542853369,1.0221413033127211,A,2118.837248010095,Incorrect,sub_017_day_24_data.csv,0,600,,Button-Switch at home,,,,,,,,,,,,,k
17,24,990,A,65.01942722632114,83.60071931655487,3.250971361316057,1.3131970281985557,A,1189.8713410191704,Correct,sub_017_day_24_data.csv,1,600,,Button-Switch at home,,,,,,,,,,,,,k
17,24,991,B,73.41669098019356,43.75467295377712,3.670834549009678,0.6872967955590511,B,1090.2381610067096,Correct,sub_017_day_24_data.csv,1,600,,Button-Switch at home,,,,,,,,,,,,,d
17,24,992,A,68.79349105779224,87.66121623486498,3.439674552889612,1.3769791646409906,A,1706.2607429979837,Correct,sub_017_day_24_data.csv,1,600,,Button-Switch at home,,,,,,,,,,,,,k
17,24,993,A,61.145495533239654,86.89752494125008,3.0572747766619828,1.3649831298528352,A,1570.774338004412,Correct,sub_017_day_24_data.csv,1,600,,Button-Switch at home,,,,,,,,,,,,,k
17,24,994,B,66.54773805248927,36.63217010468909,3.327386902624463,0.5754167824297144,B,1738.930083985906,Correct,sub_017_day_24_data.csv,1,600,,Button-Switch at home,,,,,,,,,,,,,d
17,24,995,B,31.642837359255,15.380779947849575,1.58214186796275,0.2416007264532271,B,923.816312017152,Correct,sub_017_day_24_data.csv,1,600,,Button-Switch at home,,,,,,,,,,,,,d
17,24,996,A,33.52047811787094,42.33991799167558,1.6760239058935469,0.6650738765812114,A,1094.3101900047625,Correct,sub_017_day_24_data.csv,1,600,,Button-Switch at home,,,,,,,,,,,,,k
17,24,997,B,66.71380022680034,51.190883062278665,3.3356900113400174,0.8041045107961441,B,865.8043119939975,Correct,sub_017_day_24_data.csv,1,600,,Button-Switch at home,,,,,,,,,,,,,d
17,24,998,A,21.94118307294856,49.11320877245939,1.097059153647428,0.7714684793689008,A,1087.1877300087365,Correct,sub_017_day_24_data.csv,1,600,,Button-Switch at home,,,,,,,,,,,,,k
17,24,999,A,34.32097245318633,54.45223818570891,1.7160486226593163,0.8553337572787236,A,1207.5337629939895,Correct,sub_017_day_24_data.csv,1,600,,Button-Switch at home,,,,,,,,,,,,,k
17,24,1000,B,85.80286135445807,60.36707938129874,4.290143067722903,0.9482438655148,B,1602.209648990538,Correct,sub_017_day_24_data.csv,1,600,,Button-Switch at home,,,,,,,,,,,,,d
17,24,1001,A,12.796552648333687,33.52959061499982,0.6398276324166844,0.5266815777697835,A,1276.5697540016845,Correct,sub_017_day_24_data.csv,1,600,,Button-Switch at home,,,,,,,,,,,,,k
17,24,1002,A,63.729786959244585,73.97603167584242,3.186489347962229,1.1620127882727618,B,1429.2173389985692,Incorrect,sub_017_day_24_data.csv,0,600,,Button-Switch at home,,,,,,,,,,,,,d
17,24,1003,B,65.33231039669786,41.68234638768339,3.2666155198348927,0.6547447659796559,B,1795.419615984429,Correct,sub_017_day_24_data.csv,1,600,,Button-Switch at home,,,,,,,,,,,,,d
17,24,1004,B,49.07253094612198,33.51414817397506,2.453626547306099,0.5264390084733992,B,1080.0701919943094,Correct,sub_017_day_24_data.csv,1,600,,Button-Switch at home,,,,,,,,,,,,,d
17,24,1005,A,14.3470189547551,40.93862805055747,0.717350947737755,0.6430624656583818,A,883.1663249875419,Correct,sub_017_day_24_data.csv,1,600,,Button-Switch at home,,,,,,,,,,,,,k
17,24,1006,A,20.52243603690784,49.693820954371496,1.026121801845392,0.7805887141953002,A,876.8423779984005,Correct,sub_017_day_24_data.csv,1,600,,Button-Switch at home,,,,,,,,,,,,,k
17,24,1007,A,42.00440775305581,63.26369452220691,2.1002203876527905,0.9937437897495704,A,1827.0460230123715,Correct,sub_017_day_24_data.csv,1,600,,Button-Switch at home,,,,,,,,,,,,,k
17,24,1008,B,61.41703578808511,46.521208967668755,3.070851789404255,0.7307534416447189,B,1048.5253160004504,Correct,sub_017_day_24_data.csv,1,600,,Button-Switch at home,,,,,,,,,,,,,d
17,24,1009,A,54.839628910017154,64.7120635601954,2.7419814455008575,1.016494717396728,A,1154.226688988274,Correct,sub_017_day_24_data.csv,1,600,,Button-Switch at home,,,,,,,,,,,,,k
17,24,1010,B,84.52490865446327,59.90004792408459,4.2262454327231636,0.9409077525399036,B,1087.490350997541,Correct,sub_017_day_24_data.csv,1,600,,Button-Switch at home,,,,,,,,,,,,,d
17,24,1011,B,56.09802971389763,24.032690850423418,2.8049014856948817,0.3775046251084242,B,1351.5557989885565,Correct,sub_017_day_24_data.csv,1,600,,Button-Switch at home,,,,,,,,,,,,,d
17,24,1012,A,36.34950747208229,62.39033708887067,1.8174753736041145,0.9800251232669346,A,1092.623841977911,Correct,sub_017_day_24_data.csv,1,600,,Button-Switch at home,,,,,,,,,,,,,k
17,24,1013,B,42.994159513372225,16.334016560847896,2.149707975668611,0.2565741321558688,B,1675.6859169981908,Correct,sub_017_day_24_data.csv,1,600,,Button-Switch at home,,,,,,,,,,,,,d
17,24,1014,A,16.6876265116503,39.92856710011918,0.8343813255825151,0.6271964653505078,A,1288.7139419908635,Correct,sub_017_day_24_data.csv,1,600,,Button-Switch at home,,,,,,,,,,,,,k
17,24,1015,A,16.79133091183855,36.04937271613851,0.8395665455919274,0.5662622224577053,A,1414.638810994802,Correct,sub_017_day_24_data.csv,1,600,,Button-Switch at home,,,,,,,,,,,,,k
17,24,1016,B,41.706958996710895,21.94186793517978,2.085347949835545,0.3446620555559911,B,1608.5498889733572,Correct,sub_017_day_24_data.csv,1,600,,Button-Switch at home,,,,,,,,,,,,,d
17,24,1017,A,48.87326191371953,66.6420783839018,2.443663095685977,1.046811319354105,A,1389.581224997528,Correct,sub_017_day_24_data.csv,1,600,,Button-Switch at home,,,,,,,,,,,,,k
17,24,1018,B,52.24554661949498,45.25141039024282,2.612277330974749,0.7108074922328184,B,2697.0747299783397,Correct,sub_017_day_24_data.csv,1,600,,Button-Switch at home,,,,,,,,,,,,,d
17,24,1019,B,41.70431239761379,30.02337510187784,2.0852156198806897,0.4716060732801506,B,2498.7217340094503,Correct,sub_017_day_24_data.csv,1,600,,Button-Switch at home,,,,,,,,,,,,,d
17,24,1020,A,40.11375498788722,57.250972444141865,2.005687749394361,0.8992961722069388,A,2626.662974973442,Correct,sub_017_day_24_data.csv,1,600,,Button-Switch at home,,,,,,,,,,,,,k
17,24,1021,A,37.146406418210674,60.3876095656866,1.8573203209105336,0.9485663528970486,A,2298.066696996102,Correct,sub_017_day_24_data.csv,1,600,,Button-Switch at home,,,,,,,,,,,,,k
17,24,1022,B,58.402604927243615,33.70829736250139,2.9201302463621808,0.5294886967952729,B,1508.723253995413,Correct,sub_017_day_24_data.csv,1,600,,Button-Switch at home,,,,,,,,,,,,,d
17,24,1023,A,28.2134588202558,41.78211558759414,1.41067294101279,0.6563119369071266,A,1048.5776370042004,Correct,sub_017_day_24_data.csv,1,600,,Button-Switch at home,,,,,,,,,,,,,k
17,24,1024,B,37.62679665580404,21.470440677965385,1.8813398327902024,0.3372568935161575,B,1065.9408110077493,Correct,sub_017_day_24_data.csv,1,600,,Button-Switch at home,,,,,,,,,,,,,d
17,24,1025,B,40.09854021052878,30.707590099407525,2.0049270105264387,0.4823536973287267,B,1093.983222002862,Correct,sub_017_day_24_data.csv,1,600,,Button-Switch at home,,,,,,,,,,,,,d
