subject,day,trial,cat,x,y,xt,yt,resp,rt,fb,f_name,acc,n_trials,block,session_type,ns_left_digit,ns_right_digit,ns_left_size,ns_right_size,ns_congruent,ns_cue,ns_correct_side,ns_resp,ns_rt,ns_fb,acc_stroop,acc_stroop_mean,resp_key
17,23,0,B,53.79229507995072,35.499797039482914,2.6896147539975357,0.557629507915841,B,1195.0998780084774,Correct,sub_017_day_23_data.csv,1,476,,Button-Switch at home,,,,,,,,,,,,,d
17,23,1,A,25.50920609775538,55.40541460712811,1.275460304887769,0.8703062174942513,A,720.7490959845018,Correct,sub_017_day_23_data.csv,1,476,,Button-Switch at home,,,,,,,,,,,,,k
17,23,2,B,58.27455733845875,28.29939118563516,2.9137278669229376,0.4445257972492757,B,617.2862320090644,Correct,sub_017_day_23_data.csv,1,476,,Button-Switch at home,,,,,,,,,,,,,d
17,23,3,A,49.717161776848755,71.84343884087961,2.4858580888424378,1.128514098355675,A,640.2571019716561,Correct,sub_017_day_23_data.csv,1,476,,Button-Switch at home,,,,,,,,,,,,,k
17,23,4,B,37.947505405734795,20.34212389325563,1.89737527028674,0.3195333349073264,B,512.3329510097392,Correct,sub_017_day_23_data.csv,1,476,,Button-Switch at home,,,,,,,,,,,,,d
17,23,5,B,72.53127050980201,56.05749131297898,3.6265635254901007,0.8805490144376421,B,561.4622450084426,Correct,sub_017_day_23_data.csv,1,476,,Button-Switch at home,,,,,,,,,,,,,d
17,23,6,A,41.51118330134622,69.28260662964055,2.075559165067311,1.0882886400461511,A,874.9102959991433,Correct,sub_017_day_23_data.csv,1,476,,Button-Switch at home,,,,,,,,,,,,,k
17,23,7,A,31.88552341666608,51.40513790601897,1.594276170833304,0.807470018011597,B,600.0879429921042,Incorrect,sub_017_day_23_data.csv,0,476,,Button-Switch at home,,,,,,,,,,,,,d
17,23,8,B,47.638367900862235,39.23186155646039,2.381918395043112,0.6162526402621389,B,800.6612579920329,Correct,sub_017_day_23_data.csv,1,476,,Button-Switch at home,,,,,,,,,,,,,d
17,23,9,A,31.57293176247973,56.381228820668,1.5786465881239864,0.8856342713168786,A,460.0926399871242,Correct,sub_017_day_23_data.csv,1,476,,Button-Switch at home,,,,,,,,,,,,,k
17,23,10,B,65.06461524574257,41.33846111754157,3.253230762287129,0.6493430287878796,B,649.2979130125605,Correct,sub_017_day_23_data.csv,1,476,,Button-Switch at home,,,,,,,,,,,,,d
17,23,11,B,48.754043782746784,18.192348161457296,2.437702189137339,0.2857647366779101,A,641.901124996366,Incorrect,sub_017_day_23_data.csv,0,476,,Button-Switch at home,,,,,,,,,,,,,k
17,23,12,B,50.00467212733791,21.398305093771732,2.500233606366896,0.3361237904093316,B,1020.8650029962882,Correct,sub_017_day_23_data.csv,1,476,,Button-Switch at home,,,,,,,,,,,,,d
17,23,13,A,68.30883948085585,83.86670419166963,3.4154419740427926,1.317375108846688,B,1613.152842997806,Incorrect,sub_017_day_23_data.csv,0,476,,Button-Switch at home,,,,,,,,,,,,,d
17,23,14,A,53.90043965742581,75.37533598422883,2.6950219828712902,1.1839930089495785,A,662.3225460061803,Correct,sub_017_day_23_data.csv,1,476,,Button-Switch at home,,,,,,,,,,,,,k
17,23,15,B,64.32502034161469,44.10799302477681,3.2162510170807344,0.6928467342561434,B,1515.0058519793674,Correct,sub_017_day_23_data.csv,1,476,,Button-Switch at home,,,,,,,,,,,,,d
17,23,16,B,63.98695436923279,32.95853570405074,3.1993477184616395,0.5177114682046136,B,829.1670909966342,Correct,sub_017_day_23_data.csv,1,476,,Button-Switch at home,,,,,,,,,,,,,d
17,23,17,B,44.48011827147792,28.30949066771359,2.224005913573896,0.4446844395427891,B,910.3972020093352,Correct,sub_017_day_23_data.csv,1,476,,Button-Switch at home,,,,,,,,,,,,,d
17,23,18,A,21.28249234592212,44.87003591422831,1.064124617296106,0.7048168759722491,A,2672.5426250195596,Correct,sub_017_day_23_data.csv,1,476,,Button-Switch at home,,,,,,,,,,,,,k
17,23,19,A,16.216847006500014,44.96003799049065,0.8108423503250007,0.7062306252802171,A,1806.1621169908904,Correct,sub_017_day_23_data.csv,1,476,,Button-Switch at home,,,,,,,,,,,,,k
17,23,20,A,38.32574318490438,54.900551726101405,1.916287159245219,0.8623758499037331,B,1452.0602109842002,Incorrect,sub_017_day_23_data.csv,0,476,,Button-Switch at home,,,,,,,,,,,,,d
17,23,21,B,83.14493512400149,57.209114424070506,4.157246756200075,0.8986386679651888,B,772.2948709852062,Correct,sub_017_day_23_data.csv,1,476,,Button-Switch at home,,,,,,,,,,,,,d
17,23,22,B,47.469530818100935,28.372674995568826,2.3734765409050467,0.4456769366438491,B,756.6596719843801,Correct,sub_017_day_23_data.csv,1,476,,Button-Switch at home,,,,,,,,,,,,,d
17,23,23,A,54.17299034978316,73.33824564115781,2.708649517489158,1.1519944686671253,A,1657.2180239891168,Correct,sub_017_day_23_data.csv,1,476,,Button-Switch at home,,,,,,,,,,,,,k
17,23,24,A,16.2399005560334,45.37728255335452,0.8119950278016701,0.7127846875474343,A,901.598466996802,Correct,sub_017_day_23_data.csv,1,476,,Button-Switch at home,,,,,,,,,,,,,k
17,23,25,A,61.992486866697135,79.69994838221842,3.099624343334857,1.2519238616453157,B,769.2260390031151,Incorrect,sub_017_day_23_data.csv,0,476,,Button-Switch at home,,,,,,,,,,,,,d
17,23,26,A,67.96099464696951,86.46486797220476,3.398049732348476,1.3581869700754492,B,999.1599740169476,Incorrect,sub_017_day_23_data.csv,0,476,,Button-Switch at home,,,,,,,,,,,,,d
17,23,27,A,33.09860824182931,60.34104509064109,1.6549304120914656,0.9478349198334424,A,1344.4210780144203,Correct,sub_017_day_23_data.csv,1,476,,Button-Switch at home,,,,,,,,,,,,,k
17,23,28,A,61.967679381610296,86.95586841877216,3.098383969080515,1.3658995870546766,A,1738.0792229960207,Correct,sub_017_day_23_data.csv,1,476,,Button-Switch at home,,,,,,,,,,,,,k
17,23,29,A,46.69708537832505,78.67992182682832,2.3348542689162524,1.2359013219809152,A,880.3407670056913,Correct,sub_017_day_23_data.csv,1,476,,Button-Switch at home,,,,,,,,,,,,,k
17,23,30,B,70.3805185479094,57.56639108793619,3.51902592739547,0.9042507566776864,B,542.8728100087028,Correct,sub_017_day_23_data.csv,1,476,,Button-Switch at home,,,,,,,,,,,,,d
17,23,31,A,50.64273707610073,79.65647613614433,2.5321368538050364,1.2512410012008084,A,1092.3603480041493,Correct,sub_017_day_23_data.csv,1,476,,Button-Switch at home,,,,,,,,,,,,,k
17,23,32,B,50.62092333890149,25.31400810129758,2.531046166945074,0.397631509419745,B,920.5024089897051,Correct,sub_017_day_23_data.csv,1,476,,Button-Switch at home,,,,,,,,,,,,,d
17,23,33,A,66.26124692768579,86.95675322192801,3.313062346384289,1.3659134855101482,A,2305.348843015963,Correct,sub_017_day_23_data.csv,1,476,,Button-Switch at home,,,,,,,,,,,,,k
17,23,34,B,60.74411604579816,32.319710767930005,3.037205802289908,0.5076768295733791,B,1157.3361799819395,Correct,sub_017_day_23_data.csv,1,476,,Button-Switch at home,,,,,,,,,,,,,d
17,23,35,B,40.77864324641436,23.009951033592053,2.038932162320718,0.3614394656329682,B,789.8485990008339,Correct,sub_017_day_23_data.csv,1,476,,Button-Switch at home,,,,,,,,,,,,,d
17,23,36,A,65.39276014078209,79.9540938798474,3.2696380070391045,1.2559159697867863,A,1226.3527640025131,Correct,sub_017_day_23_data.csv,1,476,,Button-Switch at home,,,,,,,,,,,,,k
17,23,37,B,65.03540644607773,47.89646468197202,3.2517703223038863,0.7523559078890315,B,1705.3167820267845,Correct,sub_017_day_23_data.csv,1,476,,Button-Switch at home,,,,,,,,,,,,,d
17,23,38,B,80.08694817559709,65.68723217905328,4.004347408779854,1.0318126302418045,B,1195.2803889871575,Correct,sub_017_day_23_data.csv,1,476,,Button-Switch at home,,,,,,,,,,,,,d
17,23,39,A,63.7168568370721,85.75117811988285,3.185842841853605,1.3469763560904688,A,1507.0153989945538,Correct,sub_017_day_23_data.csv,1,476,,Button-Switch at home,,,,,,,,,,,,,k
17,23,40,A,54.90686000134311,64.42211389427773,2.7453430000671557,1.0119401986949392,B,1855.6117640109733,Incorrect,sub_017_day_23_data.csv,0,476,,Button-Switch at home,,,,,,,,,,,,,d
17,23,41,A,50.7541519063882,64.22749332237917,2.53770759531941,1.0088831059003698,A,1073.2813210051972,Correct,sub_017_day_23_data.csv,1,476,,Button-Switch at home,,,,,,,,,,,,,k
17,23,42,B,78.05152181757686,61.4495387305828,3.9025760908788425,0.965247097212402,A,1437.6167190202978,Incorrect,sub_017_day_23_data.csv,0,476,,Button-Switch at home,,,,,,,,,,,,,k
17,23,43,A,38.64893970973048,56.67122925433662,1.932446985486524,0.8901895874766346,A,3498.328837013105,Correct,sub_017_day_23_data.csv,1,476,,Button-Switch at home,,,,,,,,,,,,,k
17,23,44,B,69.97301904092355,51.15643835571358,3.498650952046177,0.8035634546106446,B,2287.991220015101,Correct,sub_017_day_23_data.csv,1,476,,Button-Switch at home,,,,,,,,,,,,,d
17,23,45,B,70.17701670380094,56.29874149457807,3.5088508351900476,0.8843385634285866,B,1017.2248420130928,Correct,sub_017_day_23_data.csv,1,476,,Button-Switch at home,,,,,,,,,,,,,d
17,23,46,B,36.93911953978437,11.341060394599538,1.8469559769892183,0.1781449600979603,A,1033.433425007388,Incorrect,sub_017_day_23_data.csv,0,476,,Button-Switch at home,,,,,,,,,,,,,k
17,23,47,B,69.75500012595221,55.47643745416761,3.4877500062976106,0.871421841766733,A,1097.382820007624,Incorrect,sub_017_day_23_data.csv,0,476,,Button-Switch at home,,,,,,,,,,,,,k
17,23,48,A,17.876275933504576,31.28796689590107,0.8938137966752288,0.4914702347296172,A,853.3618040091824,Correct,sub_017_day_23_data.csv,1,476,,Button-Switch at home,,,,,,,,,,,,,k
17,23,49,B,55.24211180095384,42.6021868399477,2.762105590047692,0.6691935860161973,B,671.9428060168866,Correct,sub_017_day_23_data.csv,1,476,,Button-Switch at home,,,,,,,,,,,,,d
17,23,50,B,75.35882305858267,45.053821237115464,3.767941152929134,0.7077037690733489,B,570.0439229840413,Correct,sub_017_day_23_data.csv,1,476,,Button-Switch at home,,,,,,,,,,,,,d
17,23,51,B,68.9340583276362,50.046755152796145,3.4467029163818097,0.7861325916201575,B,766.3060929917265,Correct,sub_017_day_23_data.csv,1,476,,Button-Switch at home,,,,,,,,,,,,,d
17,23,52,A,35.291496143922735,62.94950540629074,1.764574807196137,0.9888085186575696,A,908.2370679825544,Correct,sub_017_day_23_data.csv,1,476,,Button-Switch at home,,,,,,,,,,,,,k
17,23,53,B,78.17530747568632,55.77913163828676,3.908765373784316,0.8761765508922983,B,2356.1588730080985,Correct,sub_017_day_23_data.csv,1,476,,Button-Switch at home,,,,,,,,,,,,,d
17,23,54,A,37.587064844320935,45.833836094459,1.8793532422160468,0.7199562138009554,A,1073.992593010189,Correct,sub_017_day_23_data.csv,1,476,,Button-Switch at home,,,,,,,,,,,,,k
17,23,55,A,20.038758938809455,49.58731827613485,1.0019379469404728,0.7789157740376205,A,935.6286760012154,Correct,sub_017_day_23_data.csv,1,476,,Button-Switch at home,,,,,,,,,,,,,k
17,23,56,B,78.23452019212735,47.93980770507436,3.911726009606367,0.7530367385038447,B,650.6556039967109,Correct,sub_017_day_23_data.csv,1,476,,Button-Switch at home,,,,,,,,,,,,,d
17,23,57,A,52.78332164097994,74.86682264132062,2.6391660820489973,1.1760053000379145,A,1620.9981790161692,Correct,sub_017_day_23_data.csv,1,476,,Button-Switch at home,,,,,,,,,,,,,k
17,23,58,A,19.48192120959325,40.34813074390759,0.9740960604796624,0.6337869556557029,A,2493.218747986248,Correct,sub_017_day_23_data.csv,1,476,,Button-Switch at home,,,,,,,,,,,,,k
17,23,59,B,59.22067731598666,29.80644518849254,2.961033865799333,0.468198546168975,B,1552.0102810114622,Correct,sub_017_day_23_data.csv,1,476,,Button-Switch at home,,,,,,,,,,,,,d
17,23,60,B,47.84132794252307,39.68461932873132,2.3920663971261535,0.6233645427182491,A,1237.1618960169144,Incorrect,sub_017_day_23_data.csv,0,476,,Button-Switch at home,,,,,,,,,,,,,k
17,23,61,A,46.32782989413297,78.27976685586178,2.3163914947066484,1.2296157023954857,A,1060.0452689977828,Correct,sub_017_day_23_data.csv,1,476,,Button-Switch at home,,,,,,,,,,,,,k
17,23,62,A,52.67621351839867,71.2300209807568,2.633810675919934,1.118878553140962,A,979.3244580214376,Correct,sub_017_day_23_data.csv,1,476,,Button-Switch at home,,,,,,,,,,,,,k
17,23,63,B,83.9192124126036,69.33207211205905,4.19596062063018,1.0890656420270126,B,915.9667910134884,Correct,sub_017_day_23_data.csv,1,476,,Button-Switch at home,,,,,,,,,,,,,d
17,23,64,A,45.44567281874418,59.40053497548264,2.272283640937209,0.933061421491399,B,1112.4536450079177,Incorrect,sub_017_day_23_data.csv,0,476,,Button-Switch at home,,,,,,,,,,,,,d
17,23,65,A,56.93855002943255,82.77329694712971,2.846927501471628,1.3001999080125457,A,964.2352150112856,Correct,sub_017_day_23_data.csv,1,476,,Button-Switch at home,,,,,,,,,,,,,k
17,23,66,A,37.54764909239107,66.69414806068346,1.8773824546195532,1.0476292279243655,A,1312.5861980079208,Correct,sub_017_day_23_data.csv,1,476,,Button-Switch at home,,,,,,,,,,,,,k
17,23,67,A,10.527556008755608,31.48667067053683,0.5263778004377804,0.4945914663227986,A,1264.2485499964096,Correct,sub_017_day_23_data.csv,1,476,,Button-Switch at home,,,,,,,,,,,,,k
17,23,68,B,59.286607787630295,52.28842638540634,2.9643303893815145,0.8213446810008161,B,1279.4711079914125,Correct,sub_017_day_23_data.csv,1,476,,Button-Switch at home,,,,,,,,,,,,,d
17,23,69,A,26.26812058694076,42.20961086694034,1.3134060293470382,0.6630270170523184,A,1070.138842012966,Correct,sub_017_day_23_data.csv,1,476,,Button-Switch at home,,,,,,,,,,,,,k
17,23,70,B,37.86627596080217,23.56760268533958,1.8933137980401085,0.3701990372949295,A,3866.239894006867,Incorrect,sub_017_day_23_data.csv,0,476,,Button-Switch at home,,,,,,,,,,,,,k
17,23,71,B,36.26489857660965,13.202843528077704,1.8132449288304824,0.2073897811715223,B,963.8917129777838,Correct,sub_017_day_23_data.csv,1,476,,Button-Switch at home,,,,,,,,,,,,,d
17,23,72,B,38.693259522770624,29.61535041136041,1.9346629761385312,0.4651968364290866,B,705.6274590140674,Correct,sub_017_day_23_data.csv,1,476,,Button-Switch at home,,,,,,,,,,,,,d
17,23,73,A,60.70734645493306,83.07398246524028,3.035367322746653,1.304923065086231,B,4075.8316999999806,Incorrect,sub_017_day_23_data.csv,0,476,,Button-Switch at home,,,,,,,,,,,,,d
17,23,74,A,65.3883369676858,76.67004244005554,3.26941684838429,1.2043302104004807,A,1446.0619690071326,Correct,sub_017_day_23_data.csv,1,476,,Button-Switch at home,,,,,,,,,,,,,k
17,23,75,B,59.20980288995291,28.64357555018138,2.960490144497646,0.4499322326049702,B,665.9253329853527,Correct,sub_017_day_23_data.csv,1,476,,Button-Switch at home,,,,,,,,,,,,,d
17,23,76,A,28.87927001985306,45.49734512834502,1.443963500992653,0.7146706260652403,A,1035.686753981281,Correct,sub_017_day_23_data.csv,1,476,,Button-Switch at home,,,,,,,,,,,,,k
17,23,77,B,45.82604899615317,21.64331603934568,2.291302449807658,0.3399724133426526,B,1110.6314449862111,Correct,sub_017_day_23_data.csv,1,476,,Button-Switch at home,,,,,,,,,,,,,d
17,23,78,B,55.46616722795433,34.035672309697134,2.7733083613977163,0.5346310904406703,B,922.032111993758,Correct,sub_017_day_23_data.csv,1,476,,Button-Switch at home,,,,,,,,,,,,,d
17,23,79,A,60.610756149439794,69.98069692533586,3.0305378074719895,1.0992542167686448,A,647.0052579825278,Correct,sub_017_day_23_data.csv,1,476,,Button-Switch at home,,,,,,,,,,,,,k
17,23,80,B,49.76182447800889,22.226004464693276,2.4880912239004447,0.3491252617246717,B,1192.359893000685,Correct,sub_017_day_23_data.csv,1,476,,Button-Switch at home,,,,,,,,,,,,,d
17,23,81,A,27.902664776960336,56.78006008150779,1.3951332388480169,0.8918990981122596,A,834.9487489904277,Correct,sub_017_day_23_data.csv,1,476,,Button-Switch at home,,,,,,,,,,,,,k
17,23,82,A,22.36472765418392,33.67383326986572,1.118236382709196,0.5289473360940885,A,1116.4121680194512,Correct,sub_017_day_23_data.csv,1,476,,Button-Switch at home,,,,,,,,,,,,,k
17,23,83,A,31.2723253778757,51.71085749546711,1.563616268893785,0.8122722500929408,A,1253.28146800166,Correct,sub_017_day_23_data.csv,1,476,,Button-Switch at home,,,,,,,,,,,,,k
17,23,84,B,79.98882148242727,58.16507075743898,3.999441074121364,0.913654794935504,B,1229.057702992577,Correct,sub_017_day_23_data.csv,1,476,,Button-Switch at home,,,,,,,,,,,,,d
17,23,85,B,36.88818997975596,16.115244157669533,1.844409498987798,0.2531376632827022,A,1431.8547660077456,Incorrect,sub_017_day_23_data.csv,0,476,,Button-Switch at home,,,,,,,,,,,,,k
17,23,86,B,41.653405147421665,32.7005309317134,2.0826702573710834,0.513658738717783,A,1160.022549011046,Incorrect,sub_017_day_23_data.csv,0,476,,Button-Switch at home,,,,,,,,,,,,,k
17,23,87,A,32.726171565117454,53.92221455861384,1.6363085782558726,0.847008165613169,B,609.4969089899678,Incorrect,sub_017_day_23_data.csv,0,476,,Button-Switch at home,,,,,,,,,,,,,d
17,23,88,A,44.65458991329452,74.58610367820475,2.232729495664726,1.1715957768766736,A,1834.5517790003216,Correct,sub_017_day_23_data.csv,1,476,,Button-Switch at home,,,,,,,,,,,,,k
17,23,89,B,60.127751487518545,35.9153937498264,3.0063875743759274,0.564157685776197,B,664.5014660025481,Correct,sub_017_day_23_data.csv,1,476,,Button-Switch at home,,,,,,,,,,,,,d
17,23,90,B,39.730519815356345,13.084897037818152,1.9865259907678172,0.2055370820349417,A,1496.5022599790243,Incorrect,sub_017_day_23_data.csv,0,476,,Button-Switch at home,,,,,,,,,,,,,k
17,23,91,A,61.156586037600846,88.04209474181422,3.057829301880042,1.3829619902377006,A,1107.7586190076545,Correct,sub_017_day_23_data.csv,1,476,,Button-Switch at home,,,,,,,,,,,,,k
17,23,92,A,17.50158941956655,46.41309923515291,0.8750794709783275,0.7290552579374522,A,807.5521430000663,Correct,sub_017_day_23_data.csv,1,476,,Button-Switch at home,,,,,,,,,,,,,k
17,23,93,B,77.17578725400749,57.10284178699909,3.8587893627003744,0.8969693412856831,B,1778.135063999798,Correct,sub_017_day_23_data.csv,1,476,,Button-Switch at home,,,,,,,,,,,,,d
17,23,94,A,30.224159290729094,52.62677307810833,1.511207964536455,0.8266594184216112,A,824.971967987949,Correct,sub_017_day_23_data.csv,1,476,,Button-Switch at home,,,,,,,,,,,,,k
17,23,95,A,56.87748340513534,81.46321127782929,2.8438741702567665,1.2796211304413083,A,1071.7916169960515,Correct,sub_017_day_23_data.csv,1,476,,Button-Switch at home,,,,,,,,,,,,,k
17,23,96,A,43.47775969147867,61.275305898919264,2.173887984573933,0.9625102542925604,A,1435.348889004672,Correct,sub_017_day_23_data.csv,1,476,,Button-Switch at home,,,,,,,,,,,,,k
17,23,97,A,54.1447011960898,76.27237793326725,2.7072350598044896,1.1980837109348832,A,776.4837529975921,Correct,sub_017_day_23_data.csv,1,476,,Button-Switch at home,,,,,,,,,,,,,k
17,23,98,A,22.43992900657323,34.31120068953284,1.1219964503286617,0.538959080110407,B,1214.8922419873998,Incorrect,sub_017_day_23_data.csv,0,476,,Button-Switch at home,,,,,,,,,,,,,d
17,23,99,B,60.433248505309805,50.02307281294665,3.02166242526549,0.7857605902957026,B,1429.4645999907516,Correct,sub_017_day_23_data.csv,1,476,,Button-Switch at home,,,,,,,,,,,,,d
17,23,100,B,57.30158507497069,47.84021440716543,2.865079253748535,0.7514723306385575,A,1670.6730430014431,Incorrect,sub_017_day_23_data.csv,0,476,,Button-Switch at home,,,,,,,,,,,,,k
17,23,101,B,80.74779145420578,52.83090018988541,4.037389572710289,0.8298658395953982,B,1255.5971900001168,Correct,sub_017_day_23_data.csv,1,476,,Button-Switch at home,,,,,,,,,,,,,d
17,23,102,A,57.997351966219114,71.95991114442707,2.899867598310956,1.1303436410215315,A,1140.09317199816,Correct,sub_017_day_23_data.csv,1,476,,Button-Switch at home,,,,,,,,,,,,,k
17,23,103,B,42.17600327080332,17.33365432049753,2.1088001635401663,0.2722764053657001,B,851.5117689967155,Correct,sub_017_day_23_data.csv,1,476,,Button-Switch at home,,,,,,,,,,,,,d
17,23,104,B,38.52030718149819,27.08500301304032,1.9260153590749096,0.4254502324411243,B,1937.7187750069425,Correct,sub_017_day_23_data.csv,1,476,,Button-Switch at home,,,,,,,,,,,,,d
17,23,105,B,83.28827509253018,57.647465870573896,4.164413754626509,0.9055242763853164,B,1338.5779359959995,Correct,sub_017_day_23_data.csv,1,476,,Button-Switch at home,,,,,,,,,,,,,d
17,23,106,B,40.06944877664125,27.989532019530355,2.0034724388320626,0.4396585408498643,B,946.517974982271,Correct,sub_017_day_23_data.csv,1,476,,Button-Switch at home,,,,,,,,,,,,,d
17,23,107,A,28.72323724317745,56.0217490714601,1.4361618621588723,0.8799875766207493,A,965.7749269972556,Correct,sub_017_day_23_data.csv,1,476,,Button-Switch at home,,,,,,,,,,,,,k
17,23,108,B,60.68133553633776,51.699385184361745,3.034066776816888,0.8120920434514992,B,767.9504890111275,Correct,sub_017_day_23_data.csv,1,476,,Button-Switch at home,,,,,,,,,,,,,d
17,23,109,B,75.11824396936194,59.96296978654585,3.7559121984680974,0.941896126844196,B,1112.4583869823257,Correct,sub_017_day_23_data.csv,1,476,,Button-Switch at home,,,,,,,,,,,,,d
17,23,110,B,82.50711319629364,64.55801680665616,4.125355659814682,1.014074956650587,B,648.9317719824612,Correct,sub_017_day_23_data.csv,1,476,,Button-Switch at home,,,,,,,,,,,,,d
17,23,111,B,72.57544542517796,59.94756889812952,3.628772271258898,0.9416542102546585,B,953.9003380050416,Correct,sub_017_day_23_data.csv,1,476,,Button-Switch at home,,,,,,,,,,,,,d
17,23,112,A,41.13579827225987,64.22071222886119,2.0567899136129935,1.0087765887324724,A,771.5286659949925,Correct,sub_017_day_23_data.csv,1,476,,Button-Switch at home,,,,,,,,,,,,,k
17,23,113,A,32.56189375088851,64.68301593494607,1.6280946875444255,1.0160384383662904,B,961.3556069962216,Incorrect,sub_017_day_23_data.csv,0,476,,Button-Switch at home,,,,,,,,,,,,,d
17,23,114,A,21.53587261537962,39.5128590662594,1.076793630768981,0.6206665388244469,A,746.6819229885004,Correct,sub_017_day_23_data.csv,1,476,,Button-Switch at home,,,,,,,,,,,,,k
17,23,115,B,35.03706603913635,22.71581316309699,1.7518533019568172,0.3568191587675191,B,2070.6970029859804,Correct,sub_017_day_23_data.csv,1,476,,Button-Switch at home,,,,,,,,,,,,,d
17,23,116,A,43.49256639063868,68.73376804144779,2.174628319531934,1.0796675036627863,B,774.0100039809477,Incorrect,sub_017_day_23_data.csv,0,476,,Button-Switch at home,,,,,,,,,,,,,d
17,23,117,A,39.48769648176249,50.29202364438318,1.9743848240881243,0.7899852600767919,A,1111.4962399879005,Correct,sub_017_day_23_data.csv,1,476,,Button-Switch at home,,,,,,,,,,,,,k
17,23,118,B,83.70346326792614,60.38525640633474,4.185173163396307,0.948529389556386,B,755.177964019822,Correct,sub_017_day_23_data.csv,1,476,,Button-Switch at home,,,,,,,,,,,,,d
17,23,119,B,70.49495836704601,42.80733621412521,3.5247479183523005,0.6724160648502203,B,1693.2181240117643,Correct,sub_017_day_23_data.csv,1,476,,Button-Switch at home,,,,,,,,,,,,,d
17,23,120,B,37.22152063770549,24.10397063739987,1.8610760318852744,0.3786242853839975,B,1218.010854005115,Correct,sub_017_day_23_data.csv,1,476,,Button-Switch at home,,,,,,,,,,,,,d
17,23,121,A,17.420141501770416,35.27579352967848,0.8710070750885208,0.5541108690119414,A,975.2590260177384,Correct,sub_017_day_23_data.csv,1,476,,Button-Switch at home,,,,,,,,,,,,,k
17,23,122,A,15.786385640127316,32.417729232965556,0.7893192820063659,0.5092165000217383,A,1589.27787799621,Correct,sub_017_day_23_data.csv,1,476,,Button-Switch at home,,,,,,,,,,,,,k
17,23,123,B,61.78930213746559,33.611968830736316,3.0894651068732792,0.5279755717566517,B,1188.91924599302,Correct,sub_017_day_23_data.csv,1,476,,Button-Switch at home,,,,,,,,,,,,,d
17,23,124,B,69.87141005812109,38.74138759430896,3.493570502906054,0.6085482932807789,B,918.0674289818852,Correct,sub_017_day_23_data.csv,1,476,,Button-Switch at home,,,,,,,,,,,,,d
17,23,125,A,39.666739808141955,47.61570373292411,1.9833369904070977,0.7479457252143124,B,1235.4458699992392,Incorrect,sub_017_day_23_data.csv,0,476,,Button-Switch at home,,,,,,,,,,,,,d
17,23,126,B,58.75704541866514,36.40294861871756,2.937852270933257,0.5718161797478489,A,1703.4928959910758,Incorrect,sub_017_day_23_data.csv,0,476,,Button-Switch at home,,,,,,,,,,,,,k
17,23,127,B,55.53412820854933,23.444893398838783,2.7767064104274666,0.3682715243299388,B,899.2996360175312,Correct,sub_017_day_23_data.csv,1,476,,Button-Switch at home,,,,,,,,,,,,,d
17,23,128,B,52.7638302573195,39.83092110178185,2.638191512865975,0.6256626455953627,B,731.7464720108546,Correct,sub_017_day_23_data.csv,1,476,,Button-Switch at home,,,,,,,,,,,,,d
17,23,129,B,80.61916017920828,67.14316474001087,4.030958008960414,1.054682365429937,B,2496.925637999084,Correct,sub_017_day_23_data.csv,1,476,,Button-Switch at home,,,,,,,,,,,,,d
17,23,130,B,74.49835877818607,43.47948244770032,3.724917938909304,0.6829741131979085,B,2080.237093992764,Correct,sub_017_day_23_data.csv,1,476,,Button-Switch at home,,,,,,,,,,,,,d
17,23,131,A,21.445111466297043,50.395939859713465,1.0722555733148522,0.7916175721701444,A,1382.429466000758,Correct,sub_017_day_23_data.csv,1,476,,Button-Switch at home,,,,,,,,,,,,,k
17,23,132,A,23.79915024183128,48.77195351863125,1.1899575120915642,0.766108054376774,A,1219.0565970086027,Correct,sub_017_day_23_data.csv,1,476,,Button-Switch at home,,,,,,,,,,,,,k
17,23,133,B,57.43123256739685,37.68634857598787,2.871561628369842,0.5919757791347383,B,758.3364879828878,Correct,sub_017_day_23_data.csv,1,476,,Button-Switch at home,,,,,,,,,,,,,d
17,23,134,A,50.21863579629739,67.38152373841811,2.5109317898148698,1.058426499821503,A,1985.7255569950212,Correct,sub_017_day_23_data.csv,1,476,,Button-Switch at home,,,,,,,,,,,,,k
17,23,135,B,82.32675500738557,60.77879829645836,4.116337750369279,0.954711131110847,B,1957.73626700975,Correct,sub_017_day_23_data.csv,1,476,,Button-Switch at home,,,,,,,,,,,,,d
17,23,136,A,21.32727606915449,51.05461970733886,1.0663638034577243,0.8019640910219822,A,744.3846559908707,Correct,sub_017_day_23_data.csv,1,476,,Button-Switch at home,,,,,,,,,,,,,k
17,23,137,A,51.28396380548499,70.73156338204305,2.564198190274249,1.1110487994897362,A,702.5191719876602,Correct,sub_017_day_23_data.csv,1,476,,Button-Switch at home,,,,,,,,,,,,,k
17,23,138,B,53.08540342172257,27.48201227190799,2.6542701710861287,0.4316864392964533,B,2087.5618399877567,Correct,sub_017_day_23_data.csv,1,476,,Button-Switch at home,,,,,,,,,,,,,d
17,23,139,A,56.849595222894536,68.77615100231078,2.842479761144727,1.080333253655209,A,1420.3049409843516,Correct,sub_017_day_23_data.csv,1,476,,Button-Switch at home,,,,,,,,,,,,,k
17,23,140,A,23.576930080053256,46.877722126157856,1.1788465040026628,0.736353537242806,A,3637.512933986727,Correct,sub_017_day_23_data.csv,1,476,,Button-Switch at home,,,,,,,,,,,,,k
17,23,141,B,67.55265482007198,40.36681144104852,3.377632741003599,0.6340803913602121,B,882.3694399907254,Correct,sub_017_day_23_data.csv,1,476,,Button-Switch at home,,,,,,,,,,,,,d
17,23,142,B,71.46061225545878,50.863484738022,3.573030612772939,0.7989617499447323,B,701.02309298818,Correct,sub_017_day_23_data.csv,1,476,,Button-Switch at home,,,,,,,,,,,,,d
17,23,143,B,77.66885539266646,45.380380891146295,3.883442769633323,0.7128333561236592,B,599.1878330241889,Correct,sub_017_day_23_data.csv,1,476,,Button-Switch at home,,,,,,,,,,,,,d
17,23,144,A,42.7700758010935,74.40274691807242,2.138503790054675,1.1687156156235847,A,883.605412003817,Correct,sub_017_day_23_data.csv,1,476,,Button-Switch at home,,,,,,,,,,,,,k
17,23,145,B,84.56176609599372,63.32972582189855,4.2280883047996864,0.9947810069796617,B,699.4924770260695,Correct,sub_017_day_23_data.csv,1,476,,Button-Switch at home,,,,,,,,,,,,,d
17,23,146,A,41.0764545139701,59.97467888238633,2.053822725698505,0.942080052891559,A,726.2893950100988,Correct,sub_017_day_23_data.csv,1,476,,Button-Switch at home,,,,,,,,,,,,,k
17,23,147,A,33.4445096793589,54.77341228117722,1.6722254839679451,0.8603787481729567,A,964.9659270071425,Correct,sub_017_day_23_data.csv,1,476,,Button-Switch at home,,,,,,,,,,,,,k
17,23,148,A,53.02613968617396,77.9677882924179,2.651306984308698,1.2247151545805215,A,2325.797539000632,Correct,sub_017_day_23_data.csv,1,476,,Button-Switch at home,,,,,,,,,,,,,k
17,23,149,A,34.58762959180032,65.64878703980261,1.7293814795900162,1.0312087354066235,B,1154.5806720096152,Incorrect,sub_017_day_23_data.csv,0,476,,Button-Switch at home,,,,,,,,,,,,,d
17,23,150,A,36.99106358048348,50.5388792841765,1.849553179024174,0.7938628593991515,A,812.6878920011222,Correct,sub_017_day_23_data.csv,1,476,,Button-Switch at home,,,,,,,,,,,,,k
17,23,151,A,19.258219422435637,41.91470613649966,0.962910971121782,0.6583946643790118,A,1839.9387740064412,Correct,sub_017_day_23_data.csv,1,476,,Button-Switch at home,,,,,,,,,,,,,k
17,23,152,A,56.99235080405333,75.28292509796796,2.8496175402026664,1.182541422142634,A,2068.4132630121894,Correct,sub_017_day_23_data.csv,1,476,,Button-Switch at home,,,,,,,,,,,,,k
17,23,153,B,60.334267981241126,28.788845417453587,3.016713399062056,0.4522141263440218,B,569.390778982779,Correct,sub_017_day_23_data.csv,1,476,,Button-Switch at home,,,,,,,,,,,,,d
17,23,154,B,79.01027145553434,49.35919018988557,3.9505135727767167,0.7753323464384293,B,755.2473940013442,Correct,sub_017_day_23_data.csv,1,476,,Button-Switch at home,,,,,,,,,,,,,d
17,23,155,A,20.753987806412027,40.97544250399544,1.037699390320601,0.6436407457407151,A,608.3550099865533,Correct,sub_017_day_23_data.csv,1,476,,Button-Switch at home,,,,,,,,,,,,,k
17,23,156,B,71.40814212320724,59.099174680923454,3.570407106160362,0.9283276650540452,B,3251.571335014887,Correct,sub_017_day_23_data.csv,1,476,,Button-Switch at home,,,,,,,,,,,,,d
17,23,157,B,87.36891989096262,62.568624524992686,4.36844599454813,0.982825655764676,A,1264.009502978297,Incorrect,sub_017_day_23_data.csv,0,476,,Button-Switch at home,,,,,,,,,,,,,k
17,23,158,B,85.50929612712358,68.65228441624087,4.275464806356179,1.0783875618710967,B,1800.0201579998247,Correct,sub_017_day_23_data.csv,1,476,,Button-Switch at home,,,,,,,,,,,,,d
17,23,159,B,44.65320420321122,25.694257535312065,2.2326602101605606,0.4036044535619028,B,1689.7052740096117,Correct,sub_017_day_23_data.csv,1,476,,Button-Switch at home,,,,,,,,,,,,,d
17,23,160,A,60.31193244606115,75.16731996561563,3.015596622303058,1.1807255009700577,A,975.893969007302,Correct,sub_017_day_23_data.csv,1,476,,Button-Switch at home,,,,,,,,,,,,,k
17,23,161,A,53.73785296830087,67.78990706935913,2.6868926484150437,1.0648413701831674,A,863.134932005778,Correct,sub_017_day_23_data.csv,1,476,,Button-Switch at home,,,,,,,,,,,,,k
17,23,162,A,24.0108898569148,38.292078291572345,1.20054449284574,0.6014905592574444,A,1310.3527259954717,Correct,sub_017_day_23_data.csv,1,476,,Button-Switch at home,,,,,,,,,,,,,k
17,23,163,B,68.1325433073052,44.86470299997015,3.4066271653652596,0.7047331067509708,B,724.0464780188631,Correct,sub_017_day_23_data.csv,1,476,,Button-Switch at home,,,,,,,,,,,,,d
17,23,164,B,33.527035806445895,18.35413045698192,1.6763517903222946,0.2883060070334153,B,943.8962410204113,Correct,sub_017_day_23_data.csv,1,476,,Button-Switch at home,,,,,,,,,,,,,d
17,23,165,A,31.4031453016135,60.471143605695005,1.570157265080675,0.949878502529124,B,1038.2018050004262,Incorrect,sub_017_day_23_data.csv,0,476,,Button-Switch at home,,,,,,,,,,,,,d
17,23,166,A,12.193843482496645,38.72658540484818,0.6096921741248322,0.6083157810324437,A,1151.464750000741,Correct,sub_017_day_23_data.csv,1,476,,Button-Switch at home,,,,,,,,,,,,,k
17,23,167,B,72.27226405870842,55.73383165839559,3.613613202935421,0.8754649804721291,B,2218.182199023431,Correct,sub_017_day_23_data.csv,1,476,,Button-Switch at home,,,,,,,,,,,,,d
17,23,168,A,45.033855623753766,52.81538385344631,2.251692781187688,0.8296221095525596,A,2721.7274610011373,Correct,sub_017_day_23_data.csv,1,476,,Button-Switch at home,,,,,,,,,,,,,k
17,23,169,A,45.84387953992958,58.72296844632204,2.292193976996479,0.9224182313397528,A,1241.688594018342,Correct,sub_017_day_23_data.csv,1,476,,Button-Switch at home,,,,,,,,,,,,,k
17,23,170,B,73.52211497737157,52.37661995695797,3.676105748868579,0.8227300223832184,B,917.109125002753,Correct,sub_017_day_23_data.csv,1,476,,Button-Switch at home,,,,,,,,,,,,,d
17,23,171,A,38.48453220115679,48.67773989527921,1.9242266100578391,0.7646281502418197,B,3643.0495599925057,Incorrect,sub_017_day_23_data.csv,0,476,,Button-Switch at home,,,,,,,,,,,,,d
17,23,172,A,35.19176470355765,46.51284919561904,1.7595882351778829,0.7306221266524334,A,3260.359696985688,Correct,sub_017_day_23_data.csv,1,476,,Button-Switch at home,,,,,,,,,,,,,k
17,23,173,A,35.02759345425403,43.215094360218544,1.7513796727127016,0.6788211148312614,A,1045.2320219774265,Correct,sub_017_day_23_data.csv,1,476,,Button-Switch at home,,,,,,,,,,,,,k
17,23,174,A,59.578513660955466,79.70538560489865,2.9789256830477733,1.2520092693394564,A,1291.8915199988987,Correct,sub_017_day_23_data.csv,1,476,,Button-Switch at home,,,,,,,,,,,,,k
17,23,175,A,17.835683261838106,45.265580038217294,0.8917841630919053,0.7110300685427212,A,1881.958490004763,Correct,sub_017_day_23_data.csv,1,476,,Button-Switch at home,,,,,,,,,,,,,k
17,23,176,A,44.91265789873387,60.05655872176189,2.2456328949366933,0.9433662184008558,B,953.9125390001572,Incorrect,sub_017_day_23_data.csv,0,476,,Button-Switch at home,,,,,,,,,,,,,d
17,23,177,A,20.7554192674268,46.056178860692235,1.03777096337134,0.7234487658058413,A,2187.5928929948714,Correct,sub_017_day_23_data.csv,1,476,,Button-Switch at home,,,,,,,,,,,,,k
17,23,178,B,45.91052295798781,26.218942588300393,2.2955261478993902,0.4118461871014853,B,1027.0319459959865,Correct,sub_017_day_23_data.csv,1,476,,Button-Switch at home,,,,,,,,,,,,,d
17,23,179,A,48.83008784081579,68.4957625191963,2.4415043920407897,1.075928921661691,A,1184.853854996618,Correct,sub_017_day_23_data.csv,1,476,,Button-Switch at home,,,,,,,,,,,,,k
17,23,180,A,35.503573259680564,56.54158597737136,1.7751786629840285,0.8881531556441276,B,1316.0569629981185,Incorrect,sub_017_day_23_data.csv,0,476,,Button-Switch at home,,,,,,,,,,,,,d
17,23,181,A,36.158561139290704,63.89749827506681,1.807928056964535,1.0036995558185815,A,1415.8499620098155,Correct,sub_017_day_23_data.csv,1,476,,Button-Switch at home,,,,,,,,,,,,,k
17,23,182,A,13.948982900034276,35.133252353107004,0.697449145001714,0.5518718374461864,A,1268.3327670092694,Correct,sub_017_day_23_data.csv,1,476,,Button-Switch at home,,,,,,,,,,,,,k
17,23,183,A,25.96025666593974,40.84621068224277,1.298012833296987,0.6416107770315742,A,728.6750850034878,Correct,sub_017_day_23_data.csv,1,476,,Button-Switch at home,,,,,,,,,,,,,k
17,23,184,A,13.565272583809977,39.50705577026026,0.6782636291904987,0.6205753808640595,A,598.2216449920088,Correct,sub_017_day_23_data.csv,1,476,,Button-Switch at home,,,,,,,,,,,,,k
17,23,185,B,61.343252521941906,46.83555155543461,3.0671626260970952,0.7356911234668969,B,505.66015698132105,Correct,sub_017_day_23_data.csv,1,476,,Button-Switch at home,,,,,,,,,,,,,d
17,23,186,B,43.68560635795501,24.855068213060328,2.1842803178977506,0.3904224985131175,A,908.2333429832944,Incorrect,sub_017_day_23_data.csv,0,476,,Button-Switch at home,,,,,,,,,,,,,k
17,23,187,B,72.23248985675264,50.760846090370755,3.611624492837632,0.7973495058375546,A,1558.667538018199,Incorrect,sub_017_day_23_data.csv,0,476,,Button-Switch at home,,,,,,,,,,,,,k
17,23,188,B,63.838975522118226,53.614929941363066,3.191948776105911,0.8421813501325881,B,534.978701005457,Correct,sub_017_day_23_data.csv,1,476,,Button-Switch at home,,,,,,,,,,,,,d
17,23,189,A,46.15961129651384,75.6004512381327,2.307980564825692,1.1875291110889554,A,1062.9732540110126,Correct,sub_017_day_23_data.csv,1,476,,Button-Switch at home,,,,,,,,,,,,,k
17,23,190,B,68.08745508406903,45.490562359370664,3.4043727542034516,0.7145640825793363,B,2534.0499489975628,Correct,sub_017_day_23_data.csv,1,476,,Button-Switch at home,,,,,,,,,,,,,d
17,23,191,B,51.19293006921051,35.56922704686844,2.5596465034605256,0.5587201119215462,B,1734.7221119853202,Correct,sub_017_day_23_data.csv,1,476,,Button-Switch at home,,,,,,,,,,,,,d
17,23,192,B,64.39791419846169,33.549696132042094,3.219895709923085,0.5269973944929667,B,1588.0812699906528,Correct,sub_017_day_23_data.csv,1,476,,Button-Switch at home,,,,,,,,,,,,,d
17,23,193,B,53.01241696929103,33.955646115213504,2.6506208484645515,0.5333740419172477,B,502.3956169898156,Correct,sub_017_day_23_data.csv,1,476,,Button-Switch at home,,,,,,,,,,,,,d
17,23,194,A,20.334204282984572,50.12644342064252,1.0167102141492286,0.7873843320043749,A,544.0288950048853,Correct,sub_017_day_23_data.csv,1,476,,Button-Switch at home,,,,,,,,,,,,,k
17,23,195,B,66.82468091788226,39.59092947633041,3.341234045894113,0.6218928659581561,B,557.9292149923276,Correct,sub_017_day_23_data.csv,1,476,,Button-Switch at home,,,,,,,,,,,,,d
17,23,196,A,32.917206894488295,46.95560058217247,1.645860344724415,0.7375768491692481,B,1148.488342994824,Incorrect,sub_017_day_23_data.csv,0,476,,Button-Switch at home,,,,,,,,,,,,,d
17,23,197,B,70.68613895086784,51.45772326736425,3.5343069475433926,0.8082960269360405,B,696.1899420130067,Correct,sub_017_day_23_data.csv,1,476,,Button-Switch at home,,,,,,,,,,,,,d
17,23,198,A,36.458215904456,56.427425066124854,1.8229107952228003,0.8863599202436319,A,1074.394241994014,Correct,sub_017_day_23_data.csv,1,476,,Button-Switch at home,,,,,,,,,,,,,k
17,23,199,B,49.05200515477752,20.92467277690524,2.452600257738876,0.3286839913734792,B,1432.160751981428,Correct,sub_017_day_23_data.csv,1,476,,Button-Switch at home,,,,,,,,,,,,,d
17,23,200,B,50.97801242496145,39.22123793498767,2.5489006212480723,0.6160857648062729,B,2389.3720880150795,Correct,sub_017_day_23_data.csv,1,476,,Button-Switch at home,,,,,,,,,,,,,d
17,23,201,B,59.14726615089327,41.89882568544595,2.957363307544664,0.6581452148371816,B,943.9109730010388,Correct,sub_017_day_23_data.csv,1,476,,Button-Switch at home,,,,,,,,,,,,,d
17,23,202,B,38.3019248191911,21.551049419014248,1.915096240959555,0.3385230926596287,B,699.3965459987521,Correct,sub_017_day_23_data.csv,1,476,,Button-Switch at home,,,,,,,,,,,,,d
17,23,203,A,50.387153835427945,79.96041396719163,2.5193576917713973,1.2560152454866391,A,2380.846964981174,Correct,sub_017_day_23_data.csv,1,476,,Button-Switch at home,,,,,,,,,,,,,k
17,23,204,B,60.98366407605181,34.88919022692737,3.0491832038025906,0.5480381185330592,B,2014.943324989872,Correct,sub_017_day_23_data.csv,1,476,,Button-Switch at home,,,,,,,,,,,,,d
17,23,205,A,14.669959236597451,43.905619346207615,0.7334979618298726,0.6896678559467786,A,629.3404239986558,Correct,sub_017_day_23_data.csv,1,476,,Button-Switch at home,,,,,,,,,,,,,k
17,23,206,A,57.0344772810984,73.94165049480254,2.85172386405492,1.161472729943879,A,790.0046510039829,Correct,sub_017_day_23_data.csv,1,476,,Button-Switch at home,,,,,,,,,,,,,k
17,23,207,B,69.89610213157466,50.5520605479074,3.494805106578733,0.7940699102056615,B,556.9454910000786,Correct,sub_017_day_23_data.csv,1,476,,Button-Switch at home,,,,,,,,,,,,,d
17,23,208,B,68.96737903024578,44.011866425152235,3.448368951512289,0.6913367811601677,B,830.6892799737398,Correct,sub_017_day_23_data.csv,1,476,,Button-Switch at home,,,,,,,,,,,,,d
17,23,209,B,82.53324997434814,68.38088404718182,4.1266624987174065,1.0741244148430096,A,768.9617059950251,Incorrect,sub_017_day_23_data.csv,0,476,,Button-Switch at home,,,,,,,,,,,,,k
17,23,210,B,42.380908390621016,29.61648668321506,2.11904541953105,0.4652146849456419,B,1016.7560930131004,Correct,sub_017_day_23_data.csv,1,476,,Button-Switch at home,,,,,,,,,,,,,d
17,23,211,A,49.86692932892843,72.69986979116186,2.4933464664464213,1.1419668842642432,A,738.1817059940659,Correct,sub_017_day_23_data.csv,1,476,,Button-Switch at home,,,,,,,,,,,,,k
17,23,212,A,62.14411933461962,84.02744568329777,3.107205966730981,1.319900030292818,A,1850.198530999478,Correct,sub_017_day_23_data.csv,1,476,,Button-Switch at home,,,,,,,,,,,,,k
17,23,213,A,60.62208798168109,82.84814830110896,3.0311043990840547,1.301375670331408,A,1530.8188070193864,Correct,sub_017_day_23_data.csv,1,476,,Button-Switch at home,,,,,,,,,,,,,k
17,23,214,B,62.785512779453505,44.39909926879548,3.1392756389726753,0.6974194204442593,B,1742.292720999103,Correct,sub_017_day_23_data.csv,1,476,,Button-Switch at home,,,,,,,,,,,,,d
17,23,215,A,31.509726763663068,55.30287148261624,1.5754863381831534,0.8686954738610382,A,1137.9820459987968,Correct,sub_017_day_23_data.csv,1,476,,Button-Switch at home,,,,,,,,,,,,,k
17,23,216,B,32.08917104302222,15.014042922881476,1.604458552151111,0.2358400347360313,B,1102.070925000589,Correct,sub_017_day_23_data.csv,1,476,,Button-Switch at home,,,,,,,,,,,,,d
17,23,217,B,46.01991280487868,28.31487428447128,2.300995640243934,0.4447690051970676,A,1175.9139980131297,Incorrect,sub_017_day_23_data.csv,0,476,,Button-Switch at home,,,,,,,,,,,,,k
17,23,218,B,55.30505644466075,26.33335518281074,2.7652528222330375,0.4136433759334447,B,678.9300130039919,Correct,sub_017_day_23_data.csv,1,476,,Button-Switch at home,,,,,,,,,,,,,d
17,23,219,B,31.418593626717655,15.234608843969696,1.5709296813358826,0.2393046761226464,B,634.4574269896839,Correct,sub_017_day_23_data.csv,1,476,,Button-Switch at home,,,,,,,,,,,,,d
17,23,220,B,67.48073107317686,50.506128488261055,3.3740365536588426,0.7933484110999155,A,2056.543156999396,Incorrect,sub_017_day_23_data.csv,0,476,,Button-Switch at home,,,,,,,,,,,,,k
17,23,221,A,29.699389408318964,58.61789081891748,1.4849694704159482,0.9207676758281986,B,769.5907520246692,Incorrect,sub_017_day_23_data.csv,0,476,,Button-Switch at home,,,,,,,,,,,,,d
17,23,222,B,63.453326439222096,55.902353387876765,3.172666321961105,0.8781121136086706,B,557.778538990533,Correct,sub_017_day_23_data.csv,1,476,,Button-Switch at home,,,,,,,,,,,,,d
17,23,223,B,30.981783386543952,10.640001110561034,1.5490891693271975,0.1671327466156289,B,604.3719199951738,Correct,sub_017_day_23_data.csv,1,476,,Button-Switch at home,,,,,,,,,,,,,d
17,23,224,A,50.92638733895471,65.83435638422937,2.546319366947736,1.0341236518525363,A,789.5246900152415,Correct,sub_017_day_23_data.csv,1,476,,Button-Switch at home,,,,,,,,,,,,,k
17,23,225,A,61.43121515738686,80.7973098293252,3.071560757869343,1.2691611749481322,B,877.219114016043,Incorrect,sub_017_day_23_data.csv,0,476,,Button-Switch at home,,,,,,,,,,,,,d
17,23,226,A,26.733402501218833,42.300876664891135,1.3366701250609418,0.6644606168541495,A,1036.029934999533,Correct,sub_017_day_23_data.csv,1,476,,Button-Switch at home,,,,,,,,,,,,,k
17,23,227,B,40.74857378427392,26.12201742557142,2.0374286892136957,0.4103236902055987,B,685.1824950135779,Correct,sub_017_day_23_data.csv,1,476,,Button-Switch at home,,,,,,,,,,,,,d
17,23,228,A,31.33863011767088,45.566093795421715,1.566931505883544,0.7157505276024015,A,1477.539434999926,Correct,sub_017_day_23_data.csv,1,476,,Button-Switch at home,,,,,,,,,,,,,k
17,23,229,B,55.00717854239901,27.349166172708816,2.75035892711995,0.4295996976499425,B,768.9113130036276,Correct,sub_017_day_23_data.csv,1,476,,Button-Switch at home,,,,,,,,,,,,,d
17,23,230,A,35.480280084943615,43.50680660803943,1.7740140042471808,0.6834033201048428,A,707.118555001216,Correct,sub_017_day_23_data.csv,1,476,,Button-Switch at home,,,,,,,,,,,,,k
17,23,231,B,36.41978240541839,20.528926920620773,1.8209891202709196,0.3224676299995198,B,1975.085372017929,Correct,sub_017_day_23_data.csv,1,476,,Button-Switch at home,,,,,,,,,,,,,d
17,23,232,A,44.9654496223684,52.86548036301328,2.24827248111842,0.8304090236846898,B,699.6931150206365,Incorrect,sub_017_day_23_data.csv,0,476,,Button-Switch at home,,,,,,,,,,,,,d
17,23,233,B,35.925990681829425,23.16534512472914,1.7962995340914714,0.3638803903086059,B,825.6910940108355,Correct,sub_017_day_23_data.csv,1,476,,Button-Switch at home,,,,,,,,,,,,,d
17,23,234,B,49.56342818321805,28.114053097053095,2.478171409160902,0.4416145133616769,B,1407.0287719951011,Correct,sub_017_day_23_data.csv,1,476,,Button-Switch at home,,,,,,,,,,,,,d
17,23,235,B,46.167784484019926,19.80433998698467,2.3083892242009965,0.311085845061528,B,1285.1192190137226,Correct,sub_017_day_23_data.csv,1,476,,Button-Switch at home,,,,,,,,,,,,,d
17,23,236,A,44.89123925621397,64.04031965681519,2.2445619628106983,1.005942988836963,B,1826.9452400272712,Incorrect,sub_017_day_23_data.csv,0,476,,Button-Switch at home,,,,,,,,,,,,,d
17,23,237,A,42.97515974517179,60.06361758866655,2.14875798725859,0.9434770988229078,A,1314.5650810038203,Correct,sub_017_day_23_data.csv,1,476,,Button-Switch at home,,,,,,,,,,,,,k
17,23,238,B,35.1854764489921,22.545211021941643,1.7592738224496047,0.3541393466008175,B,782.4629509996157,Correct,sub_017_day_23_data.csv,1,476,,Button-Switch at home,,,,,,,,,,,,,d
17,23,239,B,54.63793230748032,30.232954746710295,2.731896615374016,0.4748981426428887,B,1105.8814050047658,Correct,sub_017_day_23_data.csv,1,476,,Button-Switch at home,,,,,,,,,,,,,d
17,23,240,A,57.22064042321982,77.59179579209263,2.861032021160991,1.218809078196388,A,2010.3590739890933,Correct,sub_017_day_23_data.csv,1,476,,Button-Switch at home,,,,,,,,,,,,,k
17,23,241,A,28.027587877046223,56.308649453300205,1.4013793938523111,0.8844941972802541,A,1454.2272099934053,Correct,sub_017_day_23_data.csv,1,476,,Button-Switch at home,,,,,,,,,,,,,k
17,23,242,B,67.4737706481988,41.955318287961255,3.3736885324099397,0.6590325985624028,B,2372.8849930048455,Correct,sub_017_day_23_data.csv,1,476,,Button-Switch at home,,,,,,,,,,,,,d
17,23,243,B,56.94571520410552,28.05974711891509,2.847285760205276,0.440761477051855,B,1262.3297020036262,Correct,sub_017_day_23_data.csv,1,476,,Button-Switch at home,,,,,,,,,,,,,d
17,23,244,A,18.48717795186748,43.79311088741622,0.924358897593374,0.68790057720875,A,1304.5285870030057,Correct,sub_017_day_23_data.csv,1,476,,Button-Switch at home,,,,,,,,,,,,,k
17,23,245,B,42.617778484907845,21.171258570510695,2.130888924245392,0.3325573519618317,B,1340.0186130020302,Correct,sub_017_day_23_data.csv,1,476,,Button-Switch at home,,,,,,,,,,,,,d
17,23,246,A,20.27954032963289,34.68801894368219,1.0139770164816446,0.5448781274052776,A,959.096143982606,Correct,sub_017_day_23_data.csv,1,476,,Button-Switch at home,,,,,,,,,,,,,k
17,23,247,B,60.46088223693404,43.7192969427798,3.0230441118467017,0.6867411104777386,B,1737.9312950070016,Correct,sub_017_day_23_data.csv,1,476,,Button-Switch at home,,,,,,,,,,,,,d
17,23,248,A,33.518261579036256,55.7541969022952,1.6759130789518126,0.8757848769752471,A,1515.1595329807606,Correct,sub_017_day_23_data.csv,1,476,,Button-Switch at home,,,,,,,,,,,,,k
17,23,249,B,55.350465982750066,45.55587177888721,2.767523299137503,0.7155899605421531,A,1268.6351890151857,Incorrect,sub_017_day_23_data.csv,0,476,,Button-Switch at home,,,,,,,,,,,,,k
17,23,250,B,61.36071846149761,35.81893689158361,3.068035923074881,0.5626425449899776,A,1104.9630510096904,Incorrect,sub_017_day_23_data.csv,0,476,,Button-Switch at home,,,,,,,,,,,,,k
17,23,251,B,66.93157263639904,38.10079839302784,3.346578631819952,0.5984859416372104,B,622.2180150216445,Correct,sub_017_day_23_data.csv,1,476,,Button-Switch at home,,,,,,,,,,,,,d
17,23,252,B,51.72443103846799,43.08878037198289,2.5862215519233995,0.6768369793438277,A,1030.664441990666,Incorrect,sub_017_day_23_data.csv,0,476,,Button-Switch at home,,,,,,,,,,,,,k
17,23,253,B,42.132632044658834,31.283970810731702,2.106631602232942,0.4914074643705611,B,797.8001839946955,Correct,sub_017_day_23_data.csv,1,476,,Button-Switch at home,,,,,,,,,,,,,d
17,23,254,A,59.013898397615876,84.31370286429251,2.950694919880794,1.32439654757707,A,604.8167379922234,Correct,sub_017_day_23_data.csv,1,476,,Button-Switch at home,,,,,,,,,,,,,k
17,23,255,B,35.86664035223856,19.208630099900223,1.793332017611928,0.3017284560368515,B,1021.1028379853816,Correct,sub_017_day_23_data.csv,1,476,,Button-Switch at home,,,,,,,,,,,,,d
17,23,256,B,62.98398099188997,46.055102666779646,3.1491990495944986,0.7234318609913932,B,1380.9290860081092,Correct,sub_017_day_23_data.csv,1,476,,Button-Switch at home,,,,,,,,,,,,,d
17,23,257,A,53.73104470763326,80.34729120647133,2.686552235381663,1.2620922989504506,B,625.783825002145,Incorrect,sub_017_day_23_data.csv,0,476,,Button-Switch at home,,,,,,,,,,,,,d
17,23,258,B,61.866497576367514,46.653913096348376,3.0933248788183754,0.7328379532235233,B,991.8040479824411,Correct,sub_017_day_23_data.csv,1,476,,Button-Switch at home,,,,,,,,,,,,,d
17,23,259,B,62.34307227430786,48.43203571793232,3.1171536137153932,0.7607686380492732,A,1315.5994429835118,Incorrect,sub_017_day_23_data.csv,0,476,,Button-Switch at home,,,,,,,,,,,,,k
17,23,260,A,49.33045414962314,68.99634257373346,2.4665227074811567,1.0837920147710285,B,7976.721928018378,Incorrect,sub_017_day_23_data.csv,0,476,,Button-Switch at home,,,,,,,,,,,,,d
17,23,261,A,42.616081580566025,65.37892473449809,2.130804079028301,1.026969748227496,B,990.6449260015506,Incorrect,sub_017_day_23_data.csv,0,476,,Button-Switch at home,,,,,,,,,,,,,d
17,23,262,A,31.70363024466883,46.372979924443584,1.5851815122334414,0.7284250652784946,B,986.237200006144,Incorrect,sub_017_day_23_data.csv,0,476,,Button-Switch at home,,,,,,,,,,,,,d
17,23,263,B,56.96488784895211,46.52754027802885,2.8482443924476053,0.7308528936352933,B,1137.618164997548,Correct,sub_017_day_23_data.csv,1,476,,Button-Switch at home,,,,,,,,,,,,,d
17,23,264,A,26.157884070536113,44.2214348878266,1.3078942035268055,0.6946286748739771,A,1546.0152110026684,Correct,sub_017_day_23_data.csv,1,476,,Button-Switch at home,,,,,,,,,,,,,k
17,23,265,B,70.90170070129491,37.78859631535343,3.5450850350647456,0.5935818828689233,B,1117.133558989735,Correct,sub_017_day_23_data.csv,1,476,,Button-Switch at home,,,,,,,,,,,,,d
17,23,266,A,32.7693829816783,42.36293922556588,1.6384691490839147,0.6654354932775434,A,1974.496729002567,Correct,sub_017_day_23_data.csv,1,476,,Button-Switch at home,,,,,,,,,,,,,k
17,23,267,B,78.50695859790856,59.842270157600154,3.9253479298954286,0.9400001815062616,B,1015.6035269901622,Correct,sub_017_day_23_data.csv,1,476,,Button-Switch at home,,,,,,,,,,,,,d
17,23,268,B,79.46354760712417,52.11544847643164,3.973177380356209,0.8186275503604751,A,1929.9838639853988,Incorrect,sub_017_day_23_data.csv,0,476,,Button-Switch at home,,,,,,,,,,,,,k
17,23,269,B,34.57479769438053,21.43393406263827,1.7287398847190265,0.3366834489435621,B,2131.79212299292,Correct,sub_017_day_23_data.csv,1,476,,Button-Switch at home,,,,,,,,,,,,,d
17,23,270,B,32.46652482013697,14.832222998771115,1.6233262410068483,0.2329840140467245,A,1100.286551984027,Incorrect,sub_017_day_23_data.csv,0,476,,Button-Switch at home,,,,,,,,,,,,,k
17,23,271,A,25.93203009137683,56.75429225568059,1.2966015045688415,0.8914943380506711,B,1635.6125090096612,Incorrect,sub_017_day_23_data.csv,0,476,,Button-Switch at home,,,,,,,,,,,,,d
17,23,272,B,60.73667282253034,33.4698207476161,3.036833641126517,0.5257427148883898,B,1659.6369390026666,Correct,sub_017_day_23_data.csv,1,476,,Button-Switch at home,,,,,,,,,,,,,d
17,23,273,A,52.39510281504494,75.38799205193135,2.6197551407522472,1.1841918099961664,A,753.2477560162079,Correct,sub_017_day_23_data.csv,1,476,,Button-Switch at home,,,,,,,,,,,,,k
17,23,274,B,79.81272847618695,53.50835889808205,3.990636423809347,0.8405073360993031,B,2485.6802329886705,Correct,sub_017_day_23_data.csv,1,476,,Button-Switch at home,,,,,,,,,,,,,d
17,23,275,A,20.92819341688755,40.09305038450725,1.0464096708443775,0.629780162739867,A,1293.73426901293,Correct,sub_017_day_23_data.csv,1,476,,Button-Switch at home,,,,,,,,,,,,,k
17,23,276,A,44.81767414626569,56.64811369012616,2.240883707313285,0.8898264890430986,B,2040.941485000076,Incorrect,sub_017_day_23_data.csv,0,476,,Button-Switch at home,,,,,,,,,,,,,d
17,23,277,B,49.63763848581524,29.35763126924148,2.481881924290762,0.461148593611235,B,995.2149839955382,Correct,sub_017_day_23_data.csv,1,476,,Button-Switch at home,,,,,,,,,,,,,d
17,23,278,A,26.401897647989983,43.443560723077454,1.3200948823994991,0.682409856067011,A,662.9558250133414,Correct,sub_017_day_23_data.csv,1,476,,Button-Switch at home,,,,,,,,,,,,,k
17,23,279,B,63.608805877477366,39.88453320351359,3.1804402938738683,0.6265047825200823,B,1467.046781006502,Correct,sub_017_day_23_data.csv,1,476,,Button-Switch at home,,,,,,,,,,,,,d
17,23,280,A,59.99359305299715,74.7072497712352,2.9996796526498577,1.1734987352560513,A,865.3248049959075,Correct,sub_017_day_23_data.csv,1,476,,Button-Switch at home,,,,,,,,,,,,,k
17,23,281,A,41.97325992241758,62.56664724635268,2.098662996120879,0.982794596744428,B,1133.3329470071476,Incorrect,sub_017_day_23_data.csv,0,476,,Button-Switch at home,,,,,,,,,,,,,d
17,23,282,A,36.6036262045676,64.95891169899558,1.83018131022838,1.0203721988937628,A,658.9916489901952,Correct,sub_017_day_23_data.csv,1,476,,Button-Switch at home,,,,,,,,,,,,,k
17,23,283,A,26.090405090608304,49.904610500670984,1.304520254530415,0.78389978864584,A,760.5285290046595,Correct,sub_017_day_23_data.csv,1,476,,Button-Switch at home,,,,,,,,,,,,,k
17,23,284,A,56.62591308207429,79.09697310854057,2.831295654103714,1.2424523481949024,B,1072.2739949997049,Incorrect,sub_017_day_23_data.csv,0,476,,Button-Switch at home,,,,,,,,,,,,,d
17,23,285,B,57.35619053942592,48.78343934992972,2.867809526971296,0.7662884733929123,B,908.4152919822372,Correct,sub_017_day_23_data.csv,1,476,,Button-Switch at home,,,,,,,,,,,,,d
17,23,286,B,66.53334935208015,44.46899387478808,3.3266674676040076,0.6985173223478187,A,775.5801629973575,Incorrect,sub_017_day_23_data.csv,0,476,,Button-Switch at home,,,,,,,,,,,,,k
17,23,287,B,48.60741248818702,27.519974901936926,2.4303706244093513,0.4322827548945027,B,867.9003470169846,Correct,sub_017_day_23_data.csv,1,476,,Button-Switch at home,,,,,,,,,,,,,d
17,23,288,A,30.812837470019076,41.984852072954766,1.5406418735009535,0.6594965141722444,A,2794.058216997655,Correct,sub_017_day_23_data.csv,1,476,,Button-Switch at home,,,,,,,,,,,,,k
17,23,289,A,28.414373941499917,54.265519717020545,1.420718697074996,0.8524007904311189,B,1479.784686001949,Incorrect,sub_017_day_23_data.csv,0,476,,Button-Switch at home,,,,,,,,,,,,,d
17,23,290,B,42.295674324458176,14.104245747847372,2.1147837162229086,0.2215489741293119,B,1089.0742530173156,Correct,sub_017_day_23_data.csv,1,476,,Button-Switch at home,,,,,,,,,,,,,d
17,23,291,A,47.79011190159984,72.27234810328652,2.3895055950799917,1.1352513892948457,B,2963.3201269898564,Incorrect,sub_017_day_23_data.csv,0,476,,Button-Switch at home,,,,,,,,,,,,,d
17,23,292,A,36.04036847109881,51.22430965395365,1.8020184235549408,0.8046295744703474,A,1401.888919994235,Correct,sub_017_day_23_data.csv,1,476,,Button-Switch at home,,,,,,,,,,,,,k
17,23,293,B,50.374874522573336,20.73743278229148,2.518743726128667,0.3257428324157952,B,712.4655369843822,Correct,sub_017_day_23_data.csv,1,476,,Button-Switch at home,,,,,,,,,,,,,d
17,23,294,A,46.89603774620876,78.91108882425394,2.3448018873104384,1.2395324846852387,A,2457.3033840279095,Correct,sub_017_day_23_data.csv,1,476,,Button-Switch at home,,,,,,,,,,,,,k
17,23,295,B,87.1365204922429,64.93021783889186,4.356826024612144,1.019921476793238,B,641.6663030104246,Correct,sub_017_day_23_data.csv,1,476,,Button-Switch at home,,,,,,,,,,,,,d
17,23,296,B,44.21224132920371,18.637637026874025,2.2106120664601856,0.2927593178195028,A,1227.8049219748937,Incorrect,sub_017_day_23_data.csv,0,476,,Button-Switch at home,,,,,,,,,,,,,k
17,23,297,A,49.34711573193576,71.60799972008355,2.467355786596788,1.1248158292943724,A,1470.675548975123,Correct,sub_017_day_23_data.csv,1,476,,Button-Switch at home,,,,,,,,,,,,,k
17,23,298,A,34.630500899919,47.02532982621959,1.73152504499595,0.7386721535734424,B,1261.187398980837,Incorrect,sub_017_day_23_data.csv,0,476,,Button-Switch at home,,,,,,,,,,,,,d
17,23,299,A,57.709814223134366,78.5437112421382,2.8854907111567183,1.2337617311198972,B,638.9691539807245,Incorrect,sub_017_day_23_data.csv,0,476,,Button-Switch at home,,,,,,,,,,,,,d
17,23,300,A,28.031665544588165,48.98286345705905,1.4015832772294083,0.7694210199424433,A,577.4664900091011,Correct,sub_017_day_23_data.csv,1,476,,Button-Switch at home,,,,,,,,,,,,,k
17,23,301,B,62.63592352929037,38.68187568531867,3.1317961764645186,0.607613482400354,B,1292.233079992002,Correct,sub_017_day_23_data.csv,1,476,,Button-Switch at home,,,,,,,,,,,,,d
17,23,302,A,67.53817423206479,85.15720701637827,3.3769087116032392,1.3376462798143958,A,761.2507180019747,Correct,sub_017_day_23_data.csv,1,476,,Button-Switch at home,,,,,,,,,,,,,k
17,23,303,A,31.639259149265005,65.03164502919526,1.5819629574632503,1.0215146913728952,B,875.7330270018429,Incorrect,sub_017_day_23_data.csv,0,476,,Button-Switch at home,,,,,,,,,,,,,d
17,23,304,A,45.65190111597325,58.72847319684701,2.2825950557986627,0.9225046997587982,B,1172.0349460083526,Incorrect,sub_017_day_23_data.csv,0,476,,Button-Switch at home,,,,,,,,,,,,,d
17,23,305,A,45.81735457801744,55.517504937219144,2.290867728900872,0.8720669282820135,B,1199.451386986766,Incorrect,sub_017_day_23_data.csv,0,476,,Button-Switch at home,,,,,,,,,,,,,d
17,23,306,A,51.7668113046043,80.92330433903129,2.588340565230215,1.2711402920785586,A,1185.8252139936667,Correct,sub_017_day_23_data.csv,1,476,,Button-Switch at home,,,,,,,,,,,,,k
17,23,307,B,70.7312533752694,48.458517537527875,3.53656266876347,0.7611846134987488,B,1206.728891003877,Correct,sub_017_day_23_data.csv,1,476,,Button-Switch at home,,,,,,,,,,,,,d
17,23,308,A,32.58194430090108,56.10098361174661,1.629097215045054,0.8812321898691227,A,724.121358973207,Correct,sub_017_day_23_data.csv,1,476,,Button-Switch at home,,,,,,,,,,,,,k
17,23,309,A,42.224890630385374,71.46878496870332,2.1112445315192687,1.122629049093335,B,2378.7205050175544,Incorrect,sub_017_day_23_data.csv,0,476,,Button-Switch at home,,,,,,,,,,,,,d
17,23,310,B,45.35922759067193,35.77590798618855,2.2679613795335967,0.5619666485245719,B,781.592194980476,Correct,sub_017_day_23_data.csv,1,476,,Button-Switch at home,,,,,,,,,,,,,d
17,23,311,A,24.33277545368206,40.08126236936069,1.216638772684103,0.6295949970309429,A,997.5091860105748,Correct,sub_017_day_23_data.csv,1,476,,Button-Switch at home,,,,,,,,,,,,,k
17,23,312,A,60.91775849080892,71.0800302320169,3.045887924540446,1.1165225039692237,B,1640.1698910049165,Incorrect,sub_017_day_23_data.csv,0,476,,Button-Switch at home,,,,,,,,,,,,,d
17,23,313,A,24.736926562931885,52.8177236166348,1.2368463281465942,0.8296588624667801,A,733.0707960063592,Correct,sub_017_day_23_data.csv,1,476,,Button-Switch at home,,,,,,,,,,,,,k
17,23,314,A,21.4516959589803,43.06161878788884,1.0725847979490148,0.6764103261785789,B,2053.3669080177788,Incorrect,sub_017_day_23_data.csv,0,476,,Button-Switch at home,,,,,,,,,,,,,d
17,23,315,A,12.371207785802444,32.07152702534716,0.6185603892901221,0.5037783684611856,A,774.0497960185166,Correct,sub_017_day_23_data.csv,1,476,,Button-Switch at home,,,,,,,,,,,,,k
17,23,316,A,30.85977719568732,46.688576265539616,1.542988859784366,0.7333824410119301,A,632.2386279935017,Correct,sub_017_day_23_data.csv,1,476,,Button-Switch at home,,,,,,,,,,,,,k
17,23,317,A,54.40096193814245,64.01798450786313,2.7200480969071226,1.00559214913764,B,1116.3552610087208,Incorrect,sub_017_day_23_data.csv,0,476,,Button-Switch at home,,,,,,,,,,,,,d
17,23,318,A,52.17045454967746,67.77792689207075,2.608522727483873,1.064653185998378,A,1705.2965320181102,Correct,sub_017_day_23_data.csv,1,476,,Button-Switch at home,,,,,,,,,,,,,k
17,23,319,B,38.56956532843322,20.94102012814852,1.9284782664216609,0.3289407749663369,B,2019.3954390124416,Correct,sub_017_day_23_data.csv,1,476,,Button-Switch at home,,,,,,,,,,,,,d
17,23,320,B,46.91019019030214,18.42816130032157,2.345509509515107,0.2894688808012899,B,2821.1356259998865,Correct,sub_017_day_23_data.csv,1,476,,Button-Switch at home,,,,,,,,,,,,,d
17,23,321,A,47.17125927015997,65.76529883768174,2.3585629635079983,1.0330388984479917,A,694.5647750108037,Correct,sub_017_day_23_data.csv,1,476,,Button-Switch at home,,,,,,,,,,,,,k
17,23,322,B,72.15048061285998,48.543039127901245,3.6075240306429985,0.7625122755356821,B,607.6006689982023,Correct,sub_017_day_23_data.csv,1,476,,Button-Switch at home,,,,,,,,,,,,,d
17,23,323,B,65.19544631008685,41.4367414368344,3.259772315504342,0.6508868124332935,B,740.5986079829745,Correct,sub_017_day_23_data.csv,1,476,,Button-Switch at home,,,,,,,,,,,,,d
17,23,324,B,60.97866383259096,42.734870693961234,3.048933191629548,0.6712777791212917,A,762.5997080176603,Incorrect,sub_017_day_23_data.csv,0,476,,Button-Switch at home,,,,,,,,,,,,,k
17,23,325,A,23.06060158440825,49.813216102174664,1.1530300792204125,0.7824641687913636,A,1991.7736909992527,Correct,sub_017_day_23_data.csv,1,476,,Button-Switch at home,,,,,,,,,,,,,k
17,23,326,B,88.24250644521189,68.72497672194923,4.412125322260595,1.0795294099390262,B,1405.5500790127553,Correct,sub_017_day_23_data.csv,1,476,,Button-Switch at home,,,,,,,,,,,,,d
17,23,327,B,55.00830069905818,46.78014257997642,2.750415034952909,0.734820761315685,A,759.1537639964372,Incorrect,sub_017_day_23_data.csv,0,476,,Button-Switch at home,,,,,,,,,,,,,k
17,23,328,B,78.27126830133727,66.12307838310593,3.913563415066863,1.0386588864055384,A,891.947694006376,Incorrect,sub_017_day_23_data.csv,0,476,,Button-Switch at home,,,,,,,,,,,,,k
17,23,329,A,14.469452862001004,34.06832865232413,0.7234726431000502,0.5351440550711207,A,1600.9660300042017,Correct,sub_017_day_23_data.csv,1,476,,Button-Switch at home,,,,,,,,,,,,,k
17,23,330,B,51.75814441337259,30.662905406544887,2.5879072206686295,0.4816517918146009,B,3404.3320839991793,Correct,sub_017_day_23_data.csv,1,476,,Button-Switch at home,,,,,,,,,,,,,d
17,23,331,A,29.994370056311872,60.28837296641155,1.4997185028155935,0.9470075480408,A,1254.9819120031316,Correct,sub_017_day_23_data.csv,1,476,,Button-Switch at home,,,,,,,,,,,,,k
17,23,332,B,87.32793532466813,61.923548649922154,4.3663967662334064,0.972692827614028,B,1345.915162994061,Correct,sub_017_day_23_data.csv,1,476,,Button-Switch at home,,,,,,,,,,,,,d
17,23,333,A,47.47917711368803,59.1558676084612,2.3739588556844016,0.9292181954773604,A,818.728356010979,Correct,sub_017_day_23_data.csv,1,476,,Button-Switch at home,,,,,,,,,,,,,k
17,23,334,A,36.79901545778202,68.43595246426966,1.839950772889101,1.0749894275158494,A,1212.845545989694,Correct,sub_017_day_23_data.csv,1,476,,Button-Switch at home,,,,,,,,,,,,,k
17,23,335,A,32.62520204481389,53.46279377859847,1.6312601022406945,0.8397916008761552,A,3101.97858302854,Correct,sub_017_day_23_data.csv,1,476,,Button-Switch at home,,,,,,,,,,,,,k
17,23,336,B,81.26709352487575,60.89632013622895,4.0633546762437875,0.9565571598531454,B,2713.289331994019,Correct,sub_017_day_23_data.csv,1,476,,Button-Switch at home,,,,,,,,,,,,,d
17,23,337,A,29.89766095320049,44.14020198646911,1.4948830476600243,0.6933526714433048,A,2543.715195992263,Correct,sub_017_day_23_data.csv,1,476,,Button-Switch at home,,,,,,,,,,,,,k
17,23,338,A,32.58491540530372,57.64377992504316,1.629245770265186,0.905466377688312,A,941.6952920146286,Correct,sub_017_day_23_data.csv,1,476,,Button-Switch at home,,,,,,,,,,,,,k
17,23,339,A,15.176779577707157,34.85627907588882,0.7588389788853577,0.5475211513814396,A,1084.848376980517,Correct,sub_017_day_23_data.csv,1,476,,Button-Switch at home,,,,,,,,,,,,,k
17,23,340,A,58.15441726216112,65.9294009664491,2.907720863108056,1.0356166086588614,B,1523.1160270050168,Incorrect,sub_017_day_23_data.csv,0,476,,Button-Switch at home,,,,,,,,,,,,,d
17,23,341,A,43.09460777801275,50.80231432548351,2.1547303889006373,0.7980008873514925,A,1160.4285550129134,Correct,sub_017_day_23_data.csv,1,476,,Button-Switch at home,,,,,,,,,,,,,k
17,23,342,B,42.87073593561974,32.79298959737424,2.143536796780987,0.5151110760417871,B,1212.2990500065498,Correct,sub_017_day_23_data.csv,1,476,,Button-Switch at home,,,,,,,,,,,,,d
17,23,343,A,42.60262584743149,50.413716418136445,2.1301312923715745,0.791896805696883,A,955.0672149925958,Correct,sub_017_day_23_data.csv,1,476,,Button-Switch at home,,,,,,,,,,,,,k
17,23,344,B,70.47630723897326,57.519191715081625,3.5238153619486634,0.9035093506626168,B,2243.7460189976264,Correct,sub_017_day_23_data.csv,1,476,,Button-Switch at home,,,,,,,,,,,,,d
17,23,345,A,35.929360000722525,56.245603581748625,1.7964680000361262,0.8835038750457263,A,1024.1060850094073,Correct,sub_017_day_23_data.csv,1,476,,Button-Switch at home,,,,,,,,,,,,,k
17,23,346,A,31.690601736921447,40.84613884583438,1.5845300868460723,0.6416096486279098,B,3209.0014010027517,Incorrect,sub_017_day_23_data.csv,0,476,,Button-Switch at home,,,,,,,,,,,,,d
17,23,347,A,17.24715930695805,47.26516376630801,0.8623579653479025,0.7424394562947586,A,821.8442460056394,Correct,sub_017_day_23_data.csv,1,476,,Button-Switch at home,,,,,,,,,,,,,k
17,23,348,A,62.24219759993129,73.57456988324283,3.1121098799965643,1.1557066411811223,A,3016.806992003694,Correct,sub_017_day_23_data.csv,1,476,,Button-Switch at home,,,,,,,,,,,,,k
17,23,349,A,26.398151366625612,50.38665482225049,1.3199075683312804,0.7914717231427343,A,873.9954569900874,Correct,sub_017_day_23_data.csv,1,476,,Button-Switch at home,,,,,,,,,,,,,k
17,23,350,A,16.680059332071533,39.29785442182908,0.8340029666035766,0.617289253767297,A,1962.2024330019483,Correct,sub_017_day_23_data.csv,1,476,,Button-Switch at home,,,,,,,,,,,,,k
17,23,351,A,26.831999261731845,42.87301456218099,1.3415999630865922,0.67344773792898,A,1677.7958419988863,Correct,sub_017_day_23_data.csv,1,476,,Button-Switch at home,,,,,,,,,,,,,k
17,23,352,B,46.5237263273968,18.26643446638307,2.32618631636984,0.2869284816343422,B,1432.0731129846536,Correct,sub_017_day_23_data.csv,1,476,,Button-Switch at home,,,,,,,,,,,,,d
17,23,353,B,58.82924199272461,30.166812638568977,2.9414620996362304,0.4738591848377401,A,674.1474299924448,Incorrect,sub_017_day_23_data.csv,0,476,,Button-Switch at home,,,,,,,,,,,,,k
17,23,354,B,39.09373578542668,28.578828557215957,1.954686789271334,0.4489151892177591,B,1095.709048997378,Correct,sub_017_day_23_data.csv,1,476,,Button-Switch at home,,,,,,,,,,,,,d
17,23,355,A,38.53112241934305,68.75625424010721,1.926556120967152,1.0800207160453643,A,835.1125130138826,Correct,sub_017_day_23_data.csv,1,476,,Button-Switch at home,,,,,,,,,,,,,k
17,23,356,B,40.11640669374239,31.301930655828087,2.0058203346871197,0.4916895769576333,B,2976.5415959991515,Correct,sub_017_day_23_data.csv,1,476,,Button-Switch at home,,,,,,,,,,,,,d
17,23,357,A,25.39344013593822,52.635648474872646,1.269672006796911,0.8267988328279734,A,959.8084210010712,Correct,sub_017_day_23_data.csv,1,476,,Button-Switch at home,,,,,,,,,,,,,k
17,23,358,B,76.02685235079524,53.63413533605909,3.801342617539762,0.8424830277670198,B,749.1650370066054,Correct,sub_017_day_23_data.csv,1,476,,Button-Switch at home,,,,,,,,,,,,,d
17,23,359,A,57.32577771368669,66.73206476856218,2.8662888856843347,1.048224822178966,A,754.531720012892,Correct,sub_017_day_23_data.csv,1,476,,Button-Switch at home,,,,,,,,,,,,,k
17,23,360,B,48.95356408311605,27.393915709937964,2.4476782041558023,0.4303026217369955,B,661.8531720014289,Correct,sub_017_day_23_data.csv,1,476,,Button-Switch at home,,,,,,,,,,,,,d
17,23,361,B,88.08737576747765,67.77750781228342,4.4043687883738825,1.064646603108472,B,990.7140459981748,Correct,sub_017_day_23_data.csv,1,476,,Button-Switch at home,,,,,,,,,,,,,d
17,23,362,A,23.548111149769564,53.831810407427454,1.1774055574884783,0.8455881005270632,A,1152.912921999814,Correct,sub_017_day_23_data.csv,1,476,,Button-Switch at home,,,,,,,,,,,,,k
17,23,363,B,73.64165538208317,47.15028822079567,3.6820827691041584,0.7406349954454653,B,2126.546341984067,Correct,sub_017_day_23_data.csv,1,476,,Button-Switch at home,,,,,,,,,,,,,d
17,23,364,A,44.27677283893887,54.73405401168652,2.2138386419469436,0.8597605099215065,A,734.4987510005012,Correct,sub_017_day_23_data.csv,1,476,,Button-Switch at home,,,,,,,,,,,,,k
17,23,365,A,48.05940297196678,58.80705563049908,2.4029701485983392,0.9237390697401112,A,830.3236610081512,Correct,sub_017_day_23_data.csv,1,476,,Button-Switch at home,,,,,,,,,,,,,k
17,23,366,A,16.868453047404365,45.23128079546411,0.8434226523702182,0.7104912972974358,A,958.150968013797,Correct,sub_017_day_23_data.csv,1,476,,Button-Switch at home,,,,,,,,,,,,,k
17,23,367,A,51.42324768896489,81.05469723377654,2.571162384448245,1.2732042068428864,B,862.9245290067047,Incorrect,sub_017_day_23_data.csv,0,476,,Button-Switch at home,,,,,,,,,,,,,d
17,23,368,B,74.66639198284881,49.54208334290402,3.733319599142441,0.7782052253680027,B,756.3348620024044,Correct,sub_017_day_23_data.csv,1,476,,Button-Switch at home,,,,,,,,,,,,,d
17,23,369,A,48.1832229703993,64.195318177116,2.409161148519965,1.0083776999004346,A,959.077517996775,Correct,sub_017_day_23_data.csv,1,476,,Button-Switch at home,,,,,,,,,,,,,k
17,23,370,B,57.22635607979049,35.45035241054713,2.8613178039895244,0.5568528335007205,B,866.3867610157467,Correct,sub_017_day_23_data.csv,1,476,,Button-Switch at home,,,,,,,,,,,,,d
17,23,371,A,36.03527072946454,49.2714013562602,1.8017635364732272,0.773953362664506,A,746.3998309976887,Correct,sub_017_day_23_data.csv,1,476,,Button-Switch at home,,,,,,,,,,,,,k
17,23,372,B,79.0897599612703,62.05591782824597,3.9544879980635153,0.9747720778049468,B,814.1042180068325,Correct,sub_017_day_23_data.csv,1,476,,Button-Switch at home,,,,,,,,,,,,,d
17,23,373,A,10.796004890859685,35.24929771929875,0.5398002445429843,0.5536946737957421,A,2217.2929249936715,Correct,sub_017_day_23_data.csv,1,476,,Button-Switch at home,,,,,,,,,,,,,k
17,23,374,B,53.640015476360574,21.725841241727142,2.6820007738180287,0.3412687161903406,B,1616.5422270132694,Correct,sub_017_day_23_data.csv,1,476,,Button-Switch at home,,,,,,,,,,,,,d
17,23,375,A,24.260544595999107,39.50659096018127,1.2130272297999554,0.6205680796444121,A,885.4560249892529,Correct,sub_017_day_23_data.csv,1,476,,Button-Switch at home,,,,,,,,,,,,,k
17,23,376,B,38.89478847002315,30.121382879594968,1.9447394235011577,0.4731455758525045,B,1040.7307629939169,Correct,sub_017_day_23_data.csv,1,476,,Button-Switch at home,,,,,,,,,,,,,d
17,23,377,B,45.64035563066911,33.55357029707573,2.282017781533456,0.527058249735009,B,1321.9339670031331,Correct,sub_017_day_23_data.csv,1,476,,Button-Switch at home,,,,,,,,,,,,,d
17,23,378,A,44.20141353444282,65.81128703799281,2.210070676722141,1.033761279409237,A,1117.0199420012068,Correct,sub_017_day_23_data.csv,1,476,,Button-Switch at home,,,,,,,,,,,,,k
17,23,379,A,26.76893706729396,53.83161644786475,1.338446853364698,0.8455850538173769,A,1672.0149960019626,Correct,sub_017_day_23_data.csv,1,476,,Button-Switch at home,,,,,,,,,,,,,k
17,23,380,A,43.57233076480758,65.09231980738265,2.1786165382403793,1.0224677685599537,A,1190.674134006258,Correct,sub_017_day_23_data.csv,1,476,,Button-Switch at home,,,,,,,,,,,,,k
17,23,381,A,51.36378739866505,77.96697022225842,2.5681893699332528,1.224702304364506,A,969.8794920113868,Correct,sub_017_day_23_data.csv,1,476,,Button-Switch at home,,,,,,,,,,,,,k
17,23,382,B,30.38013822927076,15.207130649199769,1.519006911463538,0.2388730496485309,B,1312.4314970045816,Correct,sub_017_day_23_data.csv,1,476,,Button-Switch at home,,,,,,,,,,,,,d
17,23,383,B,51.39900280777261,23.332278002605204,2.56995014038863,0.3665025658224962,B,553.578588005621,Correct,sub_017_day_23_data.csv,1,476,,Button-Switch at home,,,,,,,,,,,,,d
17,23,384,B,79.81109500419163,60.300327856884344,3.9905547502095815,0.9471953350212188,B,723.6957780260127,Correct,sub_017_day_23_data.csv,1,476,,Button-Switch at home,,,,,,,,,,,,,d
17,23,385,B,54.719222527790585,24.072024514381155,2.7359611263895296,0.3781224768570662,B,761.2926010042429,Correct,sub_017_day_23_data.csv,1,476,,Button-Switch at home,,,,,,,,,,,,,d
17,23,386,B,65.46369561955916,51.74192263609524,3.2731847809779584,0.812760220180841,B,767.284561006818,Correct,sub_017_day_23_data.csv,1,476,,Button-Switch at home,,,,,,,,,,,,,d
17,23,387,A,46.811886996774746,75.9224486321875,2.340594349838738,1.1925870343271434,A,1038.318036007695,Correct,sub_017_day_23_data.csv,1,476,,Button-Switch at home,,,,,,,,,,,,,k
17,23,388,A,53.41092891601717,80.83546448238772,2.6705464458008583,1.2697605068369395,A,1002.95576301869,Correct,sub_017_day_23_data.csv,1,476,,Button-Switch at home,,,,,,,,,,,,,k
17,23,389,A,15.39924091736411,33.127753778031874,0.7699620458682055,0.5203695394949823,A,793.1446880102158,Correct,sub_017_day_23_data.csv,1,476,,Button-Switch at home,,,,,,,,,,,,,k
17,23,390,B,48.80256959683204,31.79279839255208,2.440128479841602,0.499400109335515,B,722.9164090240374,Correct,sub_017_day_23_data.csv,1,476,,Button-Switch at home,,,,,,,,,,,,,d
17,23,391,A,17.98614704337574,39.2127364100604,0.899307352168787,0.6159522231649939,A,989.3716600199696,Correct,sub_017_day_23_data.csv,1,476,,Button-Switch at home,,,,,,,,,,,,,k
17,23,392,B,65.52400088559816,57.412966439228995,3.276200044279908,0.9018407679313956,B,586.6785079997499,Correct,sub_017_day_23_data.csv,1,476,,Button-Switch at home,,,,,,,,,,,,,d
17,23,393,B,66.92302195214072,46.26243397976237,3.346151097607036,0.7266886136400214,B,650.3042130207177,Correct,sub_017_day_23_data.csv,1,476,,Button-Switch at home,,,,,,,,,,,,,d
17,23,394,B,41.123684215737775,13.984304276757214,2.056184210786889,0.2196649379071239,B,829.1780180006754,Correct,sub_017_day_23_data.csv,1,476,,Button-Switch at home,,,,,,,,,,,,,d
17,23,395,B,56.66280739482623,28.070130933909653,2.8331403697413116,0.4409245856363709,B,1105.054535990348,Correct,sub_017_day_23_data.csv,1,476,,Button-Switch at home,,,,,,,,,,,,,d
17,23,396,B,41.1764827759173,32.02215830048592,2.058824138795865,0.5030028863444799,B,594.1300390113611,Correct,sub_017_day_23_data.csv,1,476,,Button-Switch at home,,,,,,,,,,,,,d
17,23,397,B,74.11582978395012,51.04471845636951,3.705791489197506,0.8018085625354489,B,550.3499489859678,Correct,sub_017_day_23_data.csv,1,476,,Button-Switch at home,,,,,,,,,,,,,d
17,23,398,A,52.49844603295435,60.48820367641419,2.6249223016477172,0.9501464814933296,A,1039.0289229981136,Correct,sub_017_day_23_data.csv,1,476,,Button-Switch at home,,,,,,,,,,,,,k
17,23,399,A,58.74861222091661,68.11287734985237,2.9374306110458304,1.0699145754857942,B,773.7917939957697,Incorrect,sub_017_day_23_data.csv,0,476,,Button-Switch at home,,,,,,,,,,,,,d
17,23,400,A,50.69937787445113,79.25678426149841,2.5349688937225565,1.2449626559153726,A,978.3675960206892,Correct,sub_017_day_23_data.csv,1,476,,Button-Switch at home,,,,,,,,,,,,,k
17,23,401,B,78.15894936611465,64.39990202269634,3.907947468305733,1.0115912954320263,B,54.254567017778754,Correct,sub_017_day_23_data.csv,1,476,,Button-Switch at home,,,,,,,,,,,,,d
17,23,402,B,59.968202367790134,33.01122880984221,2.998410118389507,0.5185391695748601,B,1254.7058269847184,Correct,sub_017_day_23_data.csv,1,476,,Button-Switch at home,,,,,,,,,,,,,d
17,23,403,A,50.65289263952756,71.13040732142939,2.532644631976378,1.117313825439261,A,1485.440110991476,Correct,sub_017_day_23_data.csv,1,476,,Button-Switch at home,,,,,,,,,,,,,k
17,23,404,B,79.48674294988741,49.4798265088218,3.9743371474943703,0.7772272973050603,B,1673.657870007446,Correct,sub_017_day_23_data.csv,1,476,,Button-Switch at home,,,,,,,,,,,,,d
17,23,405,B,76.70478852090918,56.48641878060303,3.835239426045459,0.887286591343695,B,671.6760319832247,Correct,sub_017_day_23_data.csv,1,476,,Button-Switch at home,,,,,,,,,,,,,d
17,23,406,A,62.79954163307912,75.60341017345615,3.1399770816539556,1.1875755899363285,A,1056.6328070126474,Correct,sub_017_day_23_data.csv,1,476,,Button-Switch at home,,,,,,,,,,,,,k
17,23,407,B,83.81965663512185,67.72735296052643,4.190982831756092,1.0638587725393638,B,711.6610799857881,Correct,sub_017_day_23_data.csv,1,476,,Button-Switch at home,,,,,,,,,,,,,d
17,23,408,B,57.083380642877835,35.04398745378405,2.8541690321438917,0.5504696676865043,B,1503.6994679830968,Correct,sub_017_day_23_data.csv,1,476,,Button-Switch at home,,,,,,,,,,,,,d
17,23,409,B,54.44563156203547,23.69923576685167,2.7222815781017737,0.3722667249041684,B,1178.6598809994755,Correct,sub_017_day_23_data.csv,1,476,,Button-Switch at home,,,,,,,,,,,,,d
17,23,410,A,26.16801918681161,49.181035518299254,1.3084009593405803,0.7725338994011383,A,1099.885906005511,Correct,sub_017_day_23_data.csv,1,476,,Button-Switch at home,,,,,,,,,,,,,k
17,23,411,B,42.51507931419182,13.743971653895883,2.1257539657095914,0.2158898018951283,B,1014.0683089848608,Correct,sub_017_day_23_data.csv,1,476,,Button-Switch at home,,,,,,,,,,,,,d
17,23,412,B,81.62372021275033,58.74484390970388,4.081186010637516,0.922761850315024,B,2228.8110419758596,Correct,sub_017_day_23_data.csv,1,476,,Button-Switch at home,,,,,,,,,,,,,d
17,23,413,A,57.09302624057332,78.20934689058198,2.854651312028666,1.2285095481675403,A,1041.4199370134156,Correct,sub_017_day_23_data.csv,1,476,,Button-Switch at home,,,,,,,,,,,,,k
17,23,414,B,61.37308523334081,39.8520411896007,3.0686542616670405,0.625994399159037,B,719.8109549935907,Correct,sub_017_day_23_data.csv,1,476,,Button-Switch at home,,,,,,,,,,,,,d
17,23,415,A,21.05184380165332,34.38822885933379,1.052592190082666,0.5401690357722377,A,1026.1636669747531,Correct,sub_017_day_23_data.csv,1,476,,Button-Switch at home,,,,,,,,,,,,,k
17,23,416,A,49.202336089823014,65.80461403721138,2.4601168044911508,1.033656460158075,A,1193.9235019963237,Correct,sub_017_day_23_data.csv,1,476,,Button-Switch at home,,,,,,,,,,,,,k
17,23,417,A,54.569445015315125,65.936479807329,2.728472250765756,1.0357278028313823,A,1817.6599809958136,Correct,sub_017_day_23_data.csv,1,476,,Button-Switch at home,,,,,,,,,,,,,k
17,23,418,B,39.79977601429182,20.922118541456587,1.989988800714591,0.328643869536874,B,540.4549460217822,Correct,sub_017_day_23_data.csv,1,476,,Button-Switch at home,,,,,,,,,,,,,d
17,23,419,B,46.77496636751092,24.73642751007819,2.338748318375546,0.3885588947085905,B,2997.194340976421,Correct,sub_017_day_23_data.csv,1,476,,Button-Switch at home,,,,,,,,,,,,,d
17,23,420,B,78.74353245743147,63.01605230669318,3.9371766228715734,0.989853834924687,A,1705.7373040006496,Incorrect,sub_017_day_23_data.csv,0,476,,Button-Switch at home,,,,,,,,,,,,,k
17,23,421,A,24.586694163595944,54.29726620117231,1.2293347081797972,0.8528994630380615,A,1277.596971980529,Correct,sub_017_day_23_data.csv,1,476,,Button-Switch at home,,,,,,,,,,,,,k
17,23,422,B,73.32677087207965,40.78229073558505,3.6663385436039824,0.6406067248573855,B,960.1861109840684,Correct,sub_017_day_23_data.csv,1,476,,Button-Switch at home,,,,,,,,,,,,,d
17,23,423,B,72.40392360770748,49.729455152389114,3.620196180385374,0.7811484548688435,B,1348.3812519989442,Correct,sub_017_day_23_data.csv,1,476,,Button-Switch at home,,,,,,,,,,,,,d
17,23,424,B,67.067861352095,42.45554317710251,3.35339306760475,0.6668901127467476,B,3143.451831972925,Correct,sub_017_day_23_data.csv,1,476,,Button-Switch at home,,,,,,,,,,,,,d
17,23,425,A,48.85591424329783,75.89164101561121,2.442795712164892,1.19210310941759,A,1483.9858149935026,Correct,sub_017_day_23_data.csv,1,476,,Button-Switch at home,,,,,,,,,,,,,k
17,23,426,B,49.60581800059513,41.181440072672515,2.480290900029756,0.6468765479827815,B,1517.673383001238,Correct,sub_017_day_23_data.csv,1,476,,Button-Switch at home,,,,,,,,,,,,,d
17,23,427,B,76.14045796094167,49.16278143849035,3.807022898047084,0.7722471649860096,B,2883.043269015616,Correct,sub_017_day_23_data.csv,1,476,,Button-Switch at home,,,,,,,,,,,,,d
17,23,428,B,81.52079194851767,60.56513109647823,4.076039597425884,0.9513548545819938,B,733.0022490059491,Correct,sub_017_day_23_data.csv,1,476,,Button-Switch at home,,,,,,,,,,,,,d
17,23,429,A,26.313412791425932,48.10467474033214,1.3156706395712967,0.7556264638377697,A,1024.8129079991486,Correct,sub_017_day_23_data.csv,1,476,,Button-Switch at home,,,,,,,,,,,,,k
17,23,430,B,56.14843948473853,35.284226388453504,2.807421974236927,0.5542433320478233,B,1156.129677023273,Correct,sub_017_day_23_data.csv,1,476,,Button-Switch at home,,,,,,,,,,,,,d
17,23,431,B,75.89949302613248,48.0228126336101,3.794974651306624,0.754340576872343,B,3302.451638999628,Correct,sub_017_day_23_data.csv,1,476,,Button-Switch at home,,,,,,,,,,,,,d
17,23,432,B,85.54759174692836,58.74146695748744,4.2773795873464175,0.9227088052736506,B,4365.460200002417,Correct,sub_017_day_23_data.csv,1,476,,Button-Switch at home,,,,,,,,,,,,,d
17,23,433,A,67.57477625521751,83.14257968331142,3.3787388127608757,1.306000587667976,A,1158.8261399883777,Correct,sub_017_day_23_data.csv,1,476,,Button-Switch at home,,,,,,,,,,,,,k
17,23,434,A,50.73088030687067,68.08417064562212,2.5365440153435332,1.0694636516302014,A,3988.408052013256,Correct,sub_017_day_23_data.csv,1,476,,Button-Switch at home,,,,,,,,,,,,,k
17,23,435,B,87.97321469318092,63.654554929508606,4.398660734659046,0.9998834106703608,B,631.761874014046,Correct,sub_017_day_23_data.csv,1,476,,Button-Switch at home,,,,,,,,,,,,,d
17,23,436,B,37.935064689511634,20.707496457204112,1.8967532344755815,0.3252725937209455,B,1077.24190200679,Correct,sub_017_day_23_data.csv,1,476,,Button-Switch at home,,,,,,,,,,,,,d
17,23,437,B,50.493626887644325,40.27079170180391,2.5246813443822163,0.6325721168231598,B,801.5117319882847,Correct,sub_017_day_23_data.csv,1,476,,Button-Switch at home,,,,,,,,,,,,,d
17,23,438,A,36.45239521990665,62.355026815622374,1.8226197609953323,0.979470470791769,A,629.3893299880438,Correct,sub_017_day_23_data.csv,1,476,,Button-Switch at home,,,,,,,,,,,,,k
17,23,439,B,82.39905897647762,65.26888123294964,4.11995294882388,1.0252411889472963,B,640.3644270030782,Correct,sub_017_day_23_data.csv,1,476,,Button-Switch at home,,,,,,,,,,,,,d
17,23,440,A,48.253770941616814,70.761887952498,2.412688547080841,1.111525136728559,A,596.419423003681,Correct,sub_017_day_23_data.csv,1,476,,Button-Switch at home,,,,,,,,,,,,,k
17,23,441,A,26.08969750145873,50.07507479660051,1.3044848750729363,0.7865774355447978,A,1410.133022989612,Correct,sub_017_day_23_data.csv,1,476,,Button-Switch at home,,,,,,,,,,,,,k
17,23,442,A,37.16127256293463,50.353557342799185,1.8580636281467315,0.7909518291512515,A,1867.272833012976,Correct,sub_017_day_23_data.csv,1,476,,Button-Switch at home,,,,,,,,,,,,,k
17,23,443,A,21.401849535928477,42.26696656611146,1.070092476796424,0.6639279582681059,A,1434.6973150095437,Correct,sub_017_day_23_data.csv,1,476,,Button-Switch at home,,,,,,,,,,,,,k
17,23,444,B,43.951484918726976,35.81242535093688,2.197574245936349,0.5625402619486809,B,1976.4397350081708,Correct,sub_017_day_23_data.csv,1,476,,Button-Switch at home,,,,,,,,,,,,,d
17,23,445,B,75.52222700922205,44.70198558945684,3.776111350461102,0.7021771476435721,B,2595.12993201497,Correct,sub_017_day_23_data.csv,1,476,,Button-Switch at home,,,,,,,,,,,,,d
17,23,446,A,32.011181599616975,62.893191967668685,1.600559079980849,0.9879239492322028,A,671.6856740240473,Correct,sub_017_day_23_data.csv,1,476,,Button-Switch at home,,,,,,,,,,,,,k
17,23,447,A,19.98188047773454,49.67133203922204,0.9990940238867267,0.7802354591421963,A,671.3295899971854,Correct,sub_017_day_23_data.csv,1,476,,Button-Switch at home,,,,,,,,,,,,,k
17,23,448,A,14.468254888628056,30.9189083383607,0.7234127444314028,0.4856730764640509,A,967.90697198594,Correct,sub_017_day_23_data.csv,1,476,,Button-Switch at home,,,,,,,,,,,,,k
17,23,449,B,49.8587826711807,41.80449387455942,2.492939133559035,0.6566634542167769,A,1127.6991240156349,Incorrect,sub_017_day_23_data.csv,0,476,,Button-Switch at home,,,,,,,,,,,,,k
17,23,450,A,56.36142911735074,75.40020849084799,2.818071455867537,1.184383705369934,A,1748.290707997512,Correct,sub_017_day_23_data.csv,1,476,,Button-Switch at home,,,,,,,,,,,,,k
17,23,451,A,54.33286732079951,70.49209119360816,2.716643366039975,1.1072871791501058,B,1092.2127139929216,Incorrect,sub_017_day_23_data.csv,0,476,,Button-Switch at home,,,,,,,,,,,,,d
17,23,452,A,27.77654221036567,57.838800380151106,1.3888271105182834,0.9085297518336464,A,593.7864320003428,Correct,sub_017_day_23_data.csv,1,476,,Button-Switch at home,,,,,,,,,,,,,k
17,23,453,A,26.586018787664223,38.62589059655124,1.3293009393832114,0.6067340706824422,A,1384.7808219725266,Correct,sub_017_day_23_data.csv,1,476,,Button-Switch at home,,,,,,,,,,,,,k
17,23,454,B,65.7544373120587,47.58341173940843,3.287721865602935,0.7474384837663192,B,832.5905539968517,Correct,sub_017_day_23_data.csv,1,476,,Button-Switch at home,,,,,,,,,,,,,d
17,23,455,A,46.221093829799415,64.92711112771464,2.311054691489971,1.0198726766881825,A,2366.0046739969403,Correct,sub_017_day_23_data.csv,1,476,,Button-Switch at home,,,,,,,,,,,,,k
17,23,456,B,49.32622881144865,34.45096173000171,2.4663114405724325,0.5411544414003824,B,1023.572612000862,Correct,sub_017_day_23_data.csv,1,476,,Button-Switch at home,,,,,,,,,,,,,d
17,23,457,B,36.80519772023696,24.54966475747953,1.840259886011848,0.3856252322509496,B,693.3684660180006,Correct,sub_017_day_23_data.csv,1,476,,Button-Switch at home,,,,,,,,,,,,,d
17,23,458,A,45.46265664203577,74.65504687169502,2.2731328321017883,1.172678734027594,A,651.9260680070147,Correct,sub_017_day_23_data.csv,1,476,,Button-Switch at home,,,,,,,,,,,,,k
17,23,459,A,53.713064746497864,66.7463541899213,2.685653237324894,1.0484492798847955,A,881.298862019321,Correct,sub_017_day_23_data.csv,1,476,,Button-Switch at home,,,,,,,,,,,,,k
17,23,460,A,53.14322370065858,60.42831357816897,2.6571611850329293,0.9492057300299798,A,1127.7077480044682,Correct,sub_017_day_23_data.csv,1,476,,Button-Switch at home,,,,,,,,,,,,,k
17,23,461,B,39.11323246892478,21.791938302857982,1.9556616234462387,0.3423069663987034,B,2801.949967019027,Correct,sub_017_day_23_data.csv,1,476,,Button-Switch at home,,,,,,,,,,,,,d
17,23,462,A,45.99886640935263,68.59204804056027,2.2999433204676314,1.0774413710945114,A,943.6784939898644,Correct,sub_017_day_23_data.csv,1,476,,Button-Switch at home,,,,,,,,,,,,,k
17,23,463,B,39.506445759564954,16.09290555654441,1.9753222879782475,0.2527867693567713,B,1393.6014609935228,Correct,sub_017_day_23_data.csv,1,476,,Button-Switch at home,,,,,,,,,,,,,d
17,23,464,B,68.43893487970682,47.15596967032462,3.421946743985341,0.7407242394459747,A,784.8818689817563,Incorrect,sub_017_day_23_data.csv,0,476,,Button-Switch at home,,,,,,,,,,,,,k
17,23,465,A,69.56170952967463,88.711359670083,3.4780854764837317,1.3934747791474729,A,1299.7443349740934,Correct,sub_017_day_23_data.csv,1,476,,Button-Switch at home,,,,,,,,,,,,,k
17,23,466,A,42.223368991975946,52.02600114545492,2.1111684495987975,0.8172225149710766,A,1003.3692959987092,Correct,sub_017_day_23_data.csv,1,476,,Button-Switch at home,,,,,,,,,,,,,k
17,23,467,B,46.80859487120216,19.218261185652125,2.340429743560108,0.3018797407780729,B,1047.7129940118175,Correct,sub_017_day_23_data.csv,1,476,,Button-Switch at home,,,,,,,,,,,,,d
17,23,468,A,66.682061634848,85.39076004585016,3.3341030817424,1.3413149222224583,A,1503.257090022089,Correct,sub_017_day_23_data.csv,1,476,,Button-Switch at home,,,,,,,,,,,,,k
17,23,469,B,52.110193609120735,34.22756996592743,2.6055096804560365,0.5376454117759413,A,1057.9859210120048,Incorrect,sub_017_day_23_data.csv,0,476,,Button-Switch at home,,,,,,,,,,,,,k
17,23,470,B,66.08499612230118,57.43115033072715,3.3042498061150587,0.902126399831117,A,850.1850179745816,Incorrect,sub_017_day_23_data.csv,0,476,,Button-Switch at home,,,,,,,,,,,,,k
17,23,471,A,57.31856923266359,66.96233385102526,2.86592846163318,1.0518418804680405,A,1028.6538249929436,Correct,sub_017_day_23_data.csv,1,476,,Button-Switch at home,,,,,,,,,,,,,k
17,23,472,B,81.73009377253072,60.785846025379,4.086504688626536,0.9548218365778548,B,526.0686069959775,Correct,sub_017_day_23_data.csv,1,476,,Button-Switch at home,,,,,,,,,,,,,d
17,23,473,B,70.18388656860361,60.13925889155493,3.5091943284301808,0.944665269630218,B,851.0627920040861,Correct,sub_017_day_23_data.csv,1,476,,Button-Switch at home,,,,,,,,,,,,,d
17,23,474,B,43.056543683300475,21.238020259128675,2.152827184165024,0.3336060421143492,B,1567.6695879956242,Correct,sub_017_day_23_data.csv,1,476,,Button-Switch at home,,,,,,,,,,,,,d
17,23,475,A,23.93913333393647,46.372815122814515,1.1969566666968234,0.7284224765805588,A,604.5053389971144,Correct,sub_017_day_23_data.csv,1,476,,Button-Switch at home,,,,,,,,,,,,,k
