subject,day,trial,cat,x,y,xt,yt,resp,rt,fb,f_name,acc,n_trials,block,session_type,ns_left_digit,ns_right_digit,ns_left_size,ns_right_size,ns_congruent,ns_cue,ns_correct_side,ns_resp,ns_rt,ns_fb,acc_stroop,acc_stroop_mean,resp_key
16,2,0,B,45.43226179468408,22.955447771601108,2.271613089734204,0.3605833303956311,B,841.9657909980742,Correct,sub_016_day_02_data.csv,1,300,0.0,Training at home,,,,,,,,,,,,,
16,2,1,A,31.20547753034289,43.87396740228904,1.5602738765171444,0.6891706683743465,B,633.9833739984897,Incorrect,sub_016_day_02_data.csv,0,300,0.0,Training at home,,,,,,,,,,,,,
16,2,2,A,16.543921129523657,40.93538499773116,0.8271960564761828,0.6430115239037103,A,1205.020790999697,Correct,sub_016_day_02_data.csv,1,300,0.0,Training at home,,,,,,,,,,,,,
16,2,3,B,67.0048005495953,54.24415105815192,3.350240027479765,0.8520651323225255,B,1768.0009579999023,Correct,sub_016_day_02_data.csv,1,300,0.0,Training at home,,,,,,,,,,,,,
16,2,4,A,17.12793694279602,46.918186919775096,0.856396847139801,0.7369891567345909,A,731.6704989971186,Correct,sub_016_day_02_data.csv,1,300,0.0,Training at home,,,,,,,,,,,,,
16,2,5,A,43.90663144436101,52.55780769146507,2.19533157221805,0.8255761126614588,B,776.0101249987201,Incorrect,sub_016_day_02_data.csv,0,300,0.0,Training at home,,,,,,,,,,,,,
16,2,6,B,72.64675956654214,52.93839089145945,3.632337978327107,0.8315542995873693,B,1623.090623997996,Correct,sub_016_day_02_data.csv,1,300,0.0,Training at home,,,,,,,,,,,,,
16,2,7,A,18.990869594144648,43.604080291663465,0.9495434797072324,0.684931291554147,A,1094.855291001295,Correct,sub_016_day_02_data.csv,1,300,0.0,Training at home,,,,,,,,,,,,,
16,2,8,B,33.47990265860146,18.68061191041475,1.673995132930073,0.2934343657116048,B,2125.0889990005817,Correct,sub_016_day_02_data.csv,1,300,0.0,Training at home,,,,,,,,,,,,,
16,2,9,A,11.397102798915409,34.219769164660775,0.5698551399457705,0.5375228770761841,A,642.5509990003775,Correct,sub_016_day_02_data.csv,1,300,0.0,Training at home,,,,,,,,,,,,,
16,2,10,A,15.623717114086766,33.10886127070668,0.7811858557043382,0.5200727766838786,A,863.1277909989876,Correct,sub_016_day_02_data.csv,1,300,0.0,Training at home,,,,,,,,,,,,,
16,2,11,B,53.96167684399992,45.91886187566158,2.698083842199996,0.7212917956489141,B,2809.360415998526,Correct,sub_016_day_02_data.csv,1,300,0.0,Training at home,,,,,,,,,,,,,
16,2,12,B,62.19524245972762,44.48471978127676,3.1097621229863814,0.698764344309298,B,657.9558330013242,Correct,sub_016_day_02_data.csv,1,300,0.0,Training at home,,,,,,,,,,,,,
16,2,13,B,75.61847879244786,58.00272335521481,3.780923939622393,0.9111046479047198,B,713.5030819990789,Correct,sub_016_day_02_data.csv,1,300,0.0,Training at home,,,,,,,,,,,,,
16,2,14,A,27.531836780915604,39.762997764679355,1.37659183904578,0.62459570831112,B,2750.1695409991953,Incorrect,sub_016_day_02_data.csv,0,300,0.0,Training at home,,,,,,,,,,,,,
16,2,15,A,19.061235399831524,31.851606995728137,0.9530617699915764,0.5003238727140439,B,12207.68362400122,Incorrect,sub_016_day_02_data.csv,0,300,0.0,Training at home,,,,,,,,,,,,,
16,2,16,A,16.287004033389422,39.52771034274001,0.8143502016694711,0.6208998221298865,B,1220.4986240030848,Incorrect,sub_016_day_02_data.csv,0,300,0.0,Training at home,,,,,,,,,,,,,
16,2,17,B,45.73707562482064,24.8524597050371,2.286853781241032,0.3903815241649045,B,594.2134580000129,Correct,sub_016_day_02_data.csv,1,300,0.0,Training at home,,,,,,,,,,,,,
16,2,18,B,63.81760744600187,48.492830032154345,3.190880372300094,0.7617235929039728,B,800.115748999815,Correct,sub_016_day_02_data.csv,1,300,0.0,Training at home,,,,,,,,,,,,,
16,2,19,A,33.295128997433764,51.7355561644338,1.6647564498716882,0.8126602158778369,A,729.408457998943,Correct,sub_016_day_02_data.csv,1,300,0.0,Training at home,,,,,,,,,,,,,
16,2,20,A,42.35107048473208,64.63838457763283,2.117553524236604,1.0153373706450153,A,1091.228790999594,Correct,sub_016_day_02_data.csv,1,300,0.0,Training at home,,,,,,,,,,,,,
16,2,21,B,56.21856145042473,48.86640605038409,2.810928072521236,0.7675917112761124,B,1088.959582000825,Correct,sub_016_day_02_data.csv,1,300,0.0,Training at home,,,,,,,,,,,,,
16,2,22,A,35.598828025451674,47.12833948337914,1.7799414012725836,0.7402902254843484,A,566.5624579996802,Correct,sub_016_day_02_data.csv,1,300,0.0,Training at home,,,,,,,,,,,,,
16,2,23,A,58.1164327971879,80.78949732531281,2.905821639859395,1.269038456422075,A,1471.632958000555,Correct,sub_016_day_02_data.csv,1,300,0.0,Training at home,,,,,,,,,,,,,
16,2,24,B,51.64342516776061,43.91664171919383,2.5821712583880303,0.6898409949767718,B,951.1350410029992,Correct,sub_016_day_02_data.csv,1,300,0.0,Training at home,,,,,,,,,,,,,
16,2,25,A,17.53203593127383,43.574598034902586,0.8766017965636914,0.684468185347891,A,629.4103740001447,Correct,sub_016_day_02_data.csv,1,300,1.0,Training at home,,,,,,,,,,,,,
16,2,26,A,19.260378641139933,43.832899755601424,0.9630189320569968,0.6885255792886764,A,637.7144990001398,Correct,sub_016_day_02_data.csv,1,300,1.0,Training at home,,,,,,,,,,,,,
16,2,27,B,55.56903907780398,37.67710493613443,2.778451953890199,0.5918305803794582,B,786.882873999275,Correct,sub_016_day_02_data.csv,1,300,1.0,Training at home,,,,,,,,,,,,,
16,2,28,A,14.238553710178277,34.95666382032579,0.7119276855089138,0.549097991259718,A,767.4791659992479,Correct,sub_016_day_02_data.csv,1,300,1.0,Training at home,,,,,,,,,,,,,
16,2,29,A,44.96315420659237,69.85600932087281,2.248157710329618,1.0972956284577706,B,3571.7363320000004,Incorrect,sub_016_day_02_data.csv,0,300,1.0,Training at home,,,,,,,,,,,,,
16,2,30,A,62.10324253309997,84.53159209459088,3.105162126654999,1.3278191436030786,B,823.6085409989755,Incorrect,sub_016_day_02_data.csv,0,300,1.0,Training at home,,,,,,,,,,,,,
16,2,31,B,48.15849143230016,34.126930375091135,2.407924571615008,0.5360645687797833,B,966.9804160002968,Correct,sub_016_day_02_data.csv,1,300,1.0,Training at home,,,,,,,,,,,,,
16,2,32,B,37.34831378050555,27.655963128125517,1.8674156890252775,0.4344188529563465,B,1162.2067079988483,Correct,sub_016_day_02_data.csv,1,300,1.0,Training at home,,,,,,,,,,,,,
16,2,33,B,73.81010562485034,62.64948475437773,3.6905052812425168,0.9840958052776942,B,778.7296239985153,Correct,sub_016_day_02_data.csv,1,300,1.0,Training at home,,,,,,,,,,,,,
16,2,34,B,66.81028344366632,57.89898266713466,3.3405141721833163,0.909475092986965,B,1329.546290999133,Correct,sub_016_day_02_data.csv,1,300,1.0,Training at home,,,,,,,,,,,,,
16,2,35,B,39.71879545576263,28.97180752915375,1.9859397727881316,0.4550880884740343,A,1763.885873999243,Incorrect,sub_016_day_02_data.csv,0,300,1.0,Training at home,,,,,,,,,,,,,
16,2,36,B,54.900046027417545,46.46579069099234,2.745002301370877,0.7298829333903127,B,1100.5345819976355,Correct,sub_016_day_02_data.csv,1,300,1.0,Training at home,,,,,,,,,,,,,
16,2,37,B,67.65600936763877,40.81668526579082,3.3828004683819386,0.6411469928744757,B,564.3663330010895,Correct,sub_016_day_02_data.csv,1,300,1.0,Training at home,,,,,,,,,,,,,
16,2,38,B,50.2807594458241,39.05189649137202,2.5140379722912054,0.6134257556302167,B,652.4238749989308,Correct,sub_016_day_02_data.csv,1,300,1.0,Training at home,,,,,,,,,,,,,
16,2,39,A,35.95418287263656,52.50077910662686,1.7977091436318278,0.8246803097455973,A,1279.314040999452,Correct,sub_016_day_02_data.csv,1,300,1.0,Training at home,,,,,,,,,,,,,
16,2,40,B,43.25456975301939,27.679778534397073,2.16272848765097,0.4347929444832715,A,1030.0273749999178,Incorrect,sub_016_day_02_data.csv,0,300,1.0,Training at home,,,,,,,,,,,,,
16,2,41,B,63.85469016661877,49.083692256815695,3.192734508330938,0.7710048350253719,B,600.8844160023727,Correct,sub_016_day_02_data.csv,1,300,1.0,Training at home,,,,,,,,,,,,,
16,2,42,B,33.60642322078089,21.409570549946512,1.6803211610390445,0.3363007477811217,B,1690.0342909975734,Correct,sub_016_day_02_data.csv,1,300,1.0,Training at home,,,,,,,,,,,,,
16,2,43,A,59.23592269364859,80.59574254004214,2.9617961346824297,1.265994963372054,A,1820.3996660013215,Correct,sub_016_day_02_data.csv,1,300,1.0,Training at home,,,,,,,,,,,,,
16,2,44,A,42.076430813228775,50.674295162713875,2.1038215406614387,0.7959899670451135,B,981.8768740005908,Incorrect,sub_016_day_02_data.csv,0,300,1.0,Training at home,,,,,,,,,,,,,
16,2,45,B,46.12137794798067,25.577341613182725,2.3060688973990335,0.4017679425516568,B,1311.4894579994143,Correct,sub_016_day_02_data.csv,1,300,1.0,Training at home,,,,,,,,,,,,,
16,2,46,B,43.83818983776467,26.95710099585952,2.1919094918882336,0.4234411522533517,B,2937.048165997112,Correct,sub_016_day_02_data.csv,1,300,1.0,Training at home,,,,,,,,,,,,,
16,2,47,A,14.7628840950839,38.16552586765732,0.7381442047541951,0.5995026784311174,A,1050.781457000994,Correct,sub_016_day_02_data.csv,1,300,1.0,Training at home,,,,,,,,,,,,,
16,2,48,A,66.57771278630395,85.96008087869018,3.3288856393151973,1.3502577929523871,A,1631.595123999432,Correct,sub_016_day_02_data.csv,1,300,1.0,Training at home,,,,,,,,,,,,,
16,2,49,B,33.99826261305806,15.652355157853606,1.699913130652903,0.245866619876456,B,1878.8871659999131,Correct,sub_016_day_02_data.csv,1,300,1.0,Training at home,,,,,,,,,,,,,
16,2,50,A,38.98524383926612,65.6705649674056,1.9492621919633055,1.0315508222934633,A,1092.3894160005148,Correct,sub_016_day_02_data.csv,1,300,2.0,Training at home,,,,,,,,,,,,,
16,2,51,A,38.87681242949235,51.620422425686165,1.9438406214746176,0.8108516993386874,A,2576.2855819994,Correct,sub_016_day_02_data.csv,1,300,2.0,Training at home,,,,,,,,,,,,,
16,2,52,A,33.60953942395607,50.0764513949335,1.6804769711978036,0.7865990591008472,A,870.3743330006546,Correct,sub_016_day_02_data.csv,1,300,2.0,Training at home,,,,,,,,,,,,,
16,2,53,A,24.608734278904468,53.82222646436732,1.2304367139452232,0.8454375563015124,A,679.5730819976598,Correct,sub_016_day_02_data.csv,1,300,2.0,Training at home,,,,,,,,,,,,,
16,2,54,B,53.73548744500181,24.32163933931264,2.6867743722500905,0.3820434173582255,B,760.8444990000862,Correct,sub_016_day_02_data.csv,1,300,2.0,Training at home,,,,,,,,,,,,,
16,2,55,B,44.686031098050286,28.93051146529421,2.234301554902514,0.4544394114198178,B,833.5264989982534,Correct,sub_016_day_02_data.csv,1,300,2.0,Training at home,,,,,,,,,,,,,
16,2,56,B,54.20080849544121,38.259683834438114,2.7100404247720604,0.6009817083146948,B,468.08704100112664,Correct,sub_016_day_02_data.csv,1,300,2.0,Training at home,,,,,,,,,,,,,
16,2,57,A,27.791810626579153,52.78089851623036,1.3895905313289578,0.8290804151422885,A,909.4109159996152,Correct,sub_016_day_02_data.csv,1,300,2.0,Training at home,,,,,,,,,,,,,
16,2,58,A,56.84135820927439,85.95870253486905,2.8420679104637196,1.350236141978275,A,1382.8381240018643,Correct,sub_016_day_02_data.csv,1,300,2.0,Training at home,,,,,,,,,,,,,
16,2,59,B,52.64206750374227,20.892755479094426,2.6321033751871137,0.3281826356318547,B,1973.0232489964692,Correct,sub_016_day_02_data.csv,1,300,2.0,Training at home,,,,,,,,,,,,,
16,2,60,A,29.735351067019423,51.63375386275287,1.4867675533509712,0.81106110906244,A,665.0779579977097,Correct,sub_016_day_02_data.csv,1,300,2.0,Training at home,,,,,,,,,,,,,
16,2,61,B,86.78889199067689,62.457831611248935,4.339444599533845,0.98108532474524,B,767.5513319991296,Correct,sub_016_day_02_data.csv,1,300,2.0,Training at home,,,,,,,,,,,,,
16,2,62,A,17.242634629018543,46.09699779489378,0.8621317314509271,0.724089948124916,A,824.6092910012521,Correct,sub_016_day_02_data.csv,1,300,2.0,Training at home,,,,,,,,,,,,,
16,2,63,B,75.18548205023762,48.000404697232405,3.759274102511881,0.7539885938308116,B,603.3182909995958,Correct,sub_016_day_02_data.csv,1,300,2.0,Training at home,,,,,,,,,,,,,
16,2,64,B,51.51859315792234,37.24341729366715,2.575929657896117,0.5850182308218189,A,908.501123998576,Incorrect,sub_016_day_02_data.csv,0,300,2.0,Training at home,,,,,,,,,,,,,
16,2,65,A,65.19957655140924,77.17767775370993,3.2599788275704618,1.2123041272608777,A,693.6075000012352,Correct,sub_016_day_02_data.csv,1,300,2.0,Training at home,,,,,,,,,,,,,
16,2,66,A,34.98912505957105,63.09455918185167,1.749456252978553,0.9910870180359582,B,1668.4402489991044,Incorrect,sub_016_day_02_data.csv,0,300,2.0,Training at home,,,,,,,,,,,,,
16,2,67,B,64.41656794813817,39.35083039278899,3.2208283974069083,0.6181213983732192,B,2083.5135409979557,Correct,sub_016_day_02_data.csv,1,300,2.0,Training at home,,,,,,,,,,,,,
16,2,68,A,29.860410201247767,48.496095637839275,1.4930205100623883,0.7617748889181194,A,1188.668916001916,Correct,sub_016_day_02_data.csv,1,300,2.0,Training at home,,,,,,,,,,,,,
16,2,69,A,53.74796867354884,83.99122428096989,2.687398433677442,1.3193310658355384,A,1427.46487399927,Correct,sub_016_day_02_data.csv,1,300,2.0,Training at home,,,,,,,,,,,,,
16,2,70,A,20.254500209455102,43.888844110011505,1.0127250104727552,0.6894043511527991,A,620.42658199789,Correct,sub_016_day_02_data.csv,1,300,2.0,Training at home,,,,,,,,,,,,,
16,2,71,B,34.5463809646125,13.5335300490007,1.727319048230625,0.2125841928953865,B,1360.0437909990433,Correct,sub_016_day_02_data.csv,1,300,2.0,Training at home,,,,,,,,,,,,,
16,2,72,B,49.397877485932064,31.67427972398692,2.4698938742966035,0.4975384224431273,B,1200.7506240006478,Correct,sub_016_day_02_data.csv,1,300,2.0,Training at home,,,,,,,,,,,,,
16,2,73,A,53.696756164019575,61.0585164433062,2.684837808200979,0.9591049334869118,A,1120.5355409983897,Correct,sub_016_day_02_data.csv,1,300,2.0,Training at home,,,,,,,,,,,,,
16,2,74,A,21.37045097954665,43.96880772040977,1.0685225489773325,0.6906604166077077,A,988.9063739974516,Correct,sub_016_day_02_data.csv,1,300,2.0,Training at home,,,,,,,,,,,,,
16,2,75,B,65.97133324795749,35.899427792883685,3.2985666623978744,0.5639068931110032,B,860.3517490009835,Correct,sub_016_day_02_data.csv,1,300,3.0,Training at home,,,,,,,,,,,,,
16,2,76,B,37.1477277932632,18.286136402084765,1.85738638966316,0.287237958916652,B,1549.5828749990324,Correct,sub_016_day_02_data.csv,1,300,3.0,Training at home,,,,,,,,,,,,,
16,2,77,A,19.461633481516586,34.536421651124925,0.9730816740758292,0.5424968427022676,A,2785.8160830001,Correct,sub_016_day_02_data.csv,1,300,3.0,Training at home,,,,,,,,,,,,,
16,2,78,B,45.2259190140526,36.0666983880751,2.26129595070263,0.5665343734760779,B,673.9190829975996,Correct,sub_016_day_02_data.csv,1,300,3.0,Training at home,,,,,,,,,,,,,
16,2,79,B,62.9768297391521,34.25181964734459,3.148841486957606,0.5380263248809014,B,1876.3877499986847,Correct,sub_016_day_02_data.csv,1,300,3.0,Training at home,,,,,,,,,,,,,
16,2,80,A,52.26561652725962,62.49892250190598,2.6132808263629808,0.9817307789463282,A,1747.983123997983,Correct,sub_016_day_02_data.csv,1,300,3.0,Training at home,,,,,,,,,,,,,
16,2,81,B,47.00543881543099,19.35444497073602,2.3502719407715493,0.304018910671861,B,1028.947208000318,Correct,sub_016_day_02_data.csv,1,300,3.0,Training at home,,,,,,,,,,,,,
16,2,82,A,41.87072519028795,53.24467898969933,2.093536259514398,0.836365461783931,A,825.8549999991374,Correct,sub_016_day_02_data.csv,1,300,3.0,Training at home,,,,,,,,,,,,,
16,2,83,B,71.19474978447522,46.853700222641834,3.559737489223761,0.7359762020647502,A,951.744124002289,Incorrect,sub_016_day_02_data.csv,0,300,3.0,Training at home,,,,,,,,,,,,,
16,2,84,A,32.19048468291485,55.70254239234364,1.6095242341457423,0.874973489830304,A,678.0479579974781,Correct,sub_016_day_02_data.csv,1,300,3.0,Training at home,,,,,,,,,,,,,
16,2,85,A,51.95030167928214,79.15253086802498,2.5975150839641072,1.2433250474401332,A,820.100373999594,Correct,sub_016_day_02_data.csv,1,300,3.0,Training at home,,,,,,,,,,,,,
16,2,86,B,42.547037108100525,18.06219279755763,2.1273518554050264,0.2837202610026476,B,961.6229579987704,Correct,sub_016_day_02_data.csv,1,300,3.0,Training at home,,,,,,,,,,,,,
16,2,87,A,37.117550100671615,69.09637785881525,1.8558775050335807,1.085363365354592,A,989.5033739994687,Correct,sub_016_day_02_data.csv,1,300,3.0,Training at home,,,,,,,,,,,,,
16,2,88,A,37.98885413105128,59.279938320069654,1.899442706552564,0.9311670936579344,A,514.0472489983949,Correct,sub_016_day_02_data.csv,1,300,3.0,Training at home,,,,,,,,,,,,,
16,2,89,B,66.27488839322677,53.10063806712985,3.313744419661339,0.8341028722631282,A,1210.953416000848,Incorrect,sub_016_day_02_data.csv,0,300,3.0,Training at home,,,,,,,,,,,,,
16,2,90,B,54.93605125019259,47.26070834020072,2.7468025625096293,0.7423694706251223,B,524.7559160015953,Correct,sub_016_day_02_data.csv,1,300,3.0,Training at home,,,,,,,,,,,,,
16,2,91,A,38.05314226987207,51.87603941221731,1.9026571134936032,0.8148669215737824,A,1074.300456999481,Correct,sub_016_day_02_data.csv,1,300,3.0,Training at home,,,,,,,,,,,,,
16,2,92,A,16.342014068031876,31.83772922227611,0.8171007034015938,0.5001058811584186,A,598.5357489989838,Correct,sub_016_day_02_data.csv,1,300,3.0,Training at home,,,,,,,,,,,,,
16,2,93,B,47.72071564503294,23.07976720151541,2.386035782251647,0.3625361354342172,B,1036.357624001539,Correct,sub_016_day_02_data.csv,1,300,3.0,Training at home,,,,,,,,,,,,,
16,2,94,B,73.17019784520502,47.155373922649346,3.658509892260251,0.7407148814633745,B,1624.0463739995903,Correct,sub_016_day_02_data.csv,1,300,3.0,Training at home,,,,,,,,,,,,,
16,2,95,A,47.110509407570945,54.276584184961926,2.355525470378547,0.8525745906871216,A,968.4458739975526,Correct,sub_016_day_02_data.csv,1,300,3.0,Training at home,,,,,,,,,,,,,
16,2,96,A,27.93971734876417,53.36688518745264,1.3969858674382083,0.8382850722493558,A,1140.2146660002472,Correct,sub_016_day_02_data.csv,1,300,3.0,Training at home,,,,,,,,,,,,,
16,2,97,A,44.05961659715966,52.20975817490986,2.2029808298579834,0.8201089636399822,B,2716.427331997693,Incorrect,sub_016_day_02_data.csv,0,300,3.0,Training at home,,,,,,,,,,,,,
16,2,98,A,32.95315698258269,65.6020577899368,1.6476578491291347,1.0304747140661925,A,815.268415997707,Correct,sub_016_day_02_data.csv,1,300,3.0,Training at home,,,,,,,,,,,,,
16,2,99,B,49.40694756274486,29.900573144850615,2.4703473781372427,0.4696771046499348,B,1125.8907910014386,Correct,sub_016_day_02_data.csv,1,300,3.0,Training at home,,,,,,,,,,,,,
16,2,100,A,21.266759015162172,37.28273731263516,1.0633379507581084,0.5856358682354635,A,818.1637909983692,Correct,sub_016_day_02_data.csv,1,300,4.0,Training at home,,,,,,,,,,,,,
16,2,101,B,40.68925853037685,25.03618672060304,2.034462926518842,0.3932675013767442,B,999.3783739992068,Correct,sub_016_day_02_data.csv,1,300,4.0,Training at home,,,,,,,,,,,,,
16,2,102,A,57.874242489125514,66.5204888993445,2.893712124456276,1.0449013961969105,B,1960.5576659996584,Incorrect,sub_016_day_02_data.csv,0,300,4.0,Training at home,,,,,,,,,,,,,
16,2,103,B,45.37968204435458,16.275018330460878,2.268984102217729,0.2556473901200755,B,1019.1497500018158,Correct,sub_016_day_02_data.csv,1,300,4.0,Training at home,,,,,,,,,,,,,
16,2,104,B,58.45412073942805,29.719128081098184,2.922706036971402,0.4668269722533608,B,1648.159916003351,Correct,sub_016_day_02_data.csv,1,300,4.0,Training at home,,,,,,,,,,,,,
16,2,105,B,77.80018913694514,64.09823731334907,3.890009456847257,1.006852757258363,A,1112.9784999975527,Incorrect,sub_016_day_02_data.csv,0,300,4.0,Training at home,,,,,,,,,,,,,
16,2,106,A,33.99524917589297,55.68565954948309,1.6997624587946487,0.8747082947547918,B,3958.803999001248,Incorrect,sub_016_day_02_data.csv,0,300,4.0,Training at home,,,,,,,,,,,,,
16,2,107,B,78.63184310160369,48.676403839200916,3.931592155080184,0.764607163522018,B,846.7701660010789,Correct,sub_016_day_02_data.csv,1,300,4.0,Training at home,,,,,,,,,,,,,
16,2,108,B,65.47908845891396,39.00056160726095,3.2739544229456983,0.6126193891562356,B,663.0477489998157,Correct,sub_016_day_02_data.csv,1,300,4.0,Training at home,,,,,,,,,,,,,
16,2,109,B,62.52894895483232,52.979993115126064,3.126447447741616,0.8322077857885893,B,1741.5968739987875,Correct,sub_016_day_02_data.csv,1,300,4.0,Training at home,,,,,,,,,,,,,
16,2,110,B,44.072495983754095,33.636111459968916,2.203624799187705,0.528354803289829,B,3044.5787489989016,Correct,sub_016_day_02_data.csv,1,300,4.0,Training at home,,,,,,,,,,,,,
16,2,111,B,80.69604950822125,61.48907131797094,4.0348024754110625,0.965868073642982,B,694.7198740017484,Correct,sub_016_day_02_data.csv,1,300,4.0,Training at home,,,,,,,,,,,,,
16,2,112,B,75.08795262103146,46.178051054338226,3.754397631051573,0.7253631297470168,B,672.5318330027221,Correct,sub_016_day_02_data.csv,1,300,4.0,Training at home,,,,,,,,,,,,,
16,2,113,B,30.28164402488241,14.528205078145623,1.5140822012441206,0.228208511716741,A,642.9872910011909,Incorrect,sub_016_day_02_data.csv,0,300,4.0,Training at home,,,,,,,,,,,,,
16,2,114,A,12.51295601644842,35.65537260517368,0.625647800822421,0.560073283187102,A,738.1750409986125,Correct,sub_016_day_02_data.csv,1,300,4.0,Training at home,,,,,,,,,,,,,
16,2,115,A,55.414308611877125,63.71865166771687,2.7707154305938566,1.0008902398797317,A,1607.7104159994633,Correct,sub_016_day_02_data.csv,1,300,4.0,Training at home,,,,,,,,,,,,,
16,2,116,B,70.04193089109214,45.5638081835138,3.5020965445546066,0.7157146252945074,A,704.3896239993046,Incorrect,sub_016_day_02_data.csv,0,300,4.0,Training at home,,,,,,,,,,,,,
16,2,117,A,54.113520118605194,77.6615396175632,2.70567600593026,1.219904611645046,A,1135.916790997726,Correct,sub_016_day_02_data.csv,1,300,4.0,Training at home,,,,,,,,,,,,,
16,2,118,A,54.45085876516912,74.52975612146028,2.722542938258456,1.1707106715250926,A,814.5121659981669,Correct,sub_016_day_02_data.csv,1,300,4.0,Training at home,,,,,,,,,,,,,
16,2,119,B,67.82453004822595,47.647907068322674,3.3912265024112975,0.7484515740238584,B,1190.5213319987524,Correct,sub_016_day_02_data.csv,1,300,4.0,Training at home,,,,,,,,,,,,,
16,2,120,B,74.32362232589414,52.90433552319899,3.7161811162947065,0.8310193591136572,B,617.4781660010922,Correct,sub_016_day_02_data.csv,1,300,4.0,Training at home,,,,,,,,,,,,,
16,2,121,B,81.56129404227936,65.31945222526835,4.078064702113968,1.0260355562370624,B,834.2720830005419,Correct,sub_016_day_02_data.csv,1,300,4.0,Training at home,,,,,,,,,,,,,
16,2,122,A,61.04063949820859,72.13356789056877,3.052031974910429,1.1330714348111572,B,857.9663750024338,Incorrect,sub_016_day_02_data.csv,0,300,4.0,Training at home,,,,,,,,,,,,,
16,2,123,A,24.469931116021353,49.368784602660256,1.2234965558010678,0.7754830551218717,A,681.1901239998406,Correct,sub_016_day_02_data.csv,1,300,4.0,Training at home,,,,,,,,,,,,,
16,2,124,B,42.42480487536456,17.185652841988713,2.1212402437682276,0.2699516035776815,B,1186.4960819984844,Correct,sub_016_day_02_data.csv,1,300,4.0,Training at home,,,,,,,,,,,,,
16,2,125,B,67.65585520252,39.95243166730265,3.382792760126,0.6275713290952311,B,2409.2283329991915,Correct,sub_016_day_02_data.csv,1,300,5.0,Training at home,,,,,,,,,,,,,
16,2,126,A,59.081252409500095,71.78718548601843,2.954062620475005,1.127630472723817,A,1375.2619580009195,Correct,sub_016_day_02_data.csv,1,300,5.0,Training at home,,,,,,,,,,,,,
16,2,127,A,26.69443617782108,41.33035170770203,1.334721808891054,0.6492156464759954,B,1557.9659989998618,Incorrect,sub_016_day_02_data.csv,0,300,5.0,Training at home,,,,,,,,,,,,,
16,2,128,B,77.04321856633271,62.28075947361914,3.852160928316635,0.978303882111574,B,600.6690409994917,Correct,sub_016_day_02_data.csv,1,300,5.0,Training at home,,,,,,,,,,,,,
16,2,129,A,34.18661673622023,59.348806567901065,1.7093308368110116,0.9322488735651984,A,600.8069989984506,Correct,sub_016_day_02_data.csv,1,300,5.0,Training at home,,,,,,,,,,,,,
16,2,130,A,22.06235236454491,37.06623612651681,1.1031176182272455,0.582235075556449,A,615.6312909988628,Correct,sub_016_day_02_data.csv,1,300,5.0,Training at home,,,,,,,,,,,,,
16,2,131,A,20.949537634632037,45.91569203784358,1.0474768817316018,0.7212420039529036,A,1024.1527910002333,Correct,sub_016_day_02_data.csv,1,300,5.0,Training at home,,,,,,,,,,,,,
16,2,132,A,29.93110666042161,57.71285966829615,1.4965553330210803,0.9065514797578892,A,5572.122165998735,Correct,sub_016_day_02_data.csv,1,300,5.0,Training at home,,,,,,,,,,,,,
16,2,133,B,68.11529650212032,50.972271095537415,3.405764825106016,0.8006705620526385,B,2486.383041003137,Correct,sub_016_day_02_data.csv,1,300,5.0,Training at home,,,,,,,,,,,,,
16,2,134,A,33.19016705624423,55.41148131259469,1.6595083528122114,0.870401513080878,A,2859.238916000322,Correct,sub_016_day_02_data.csv,1,300,5.0,Training at home,,,,,,,,,,,,,
16,2,135,A,65.9324917614666,83.35889662739548,3.29662458807333,1.309398486279883,A,1872.1527909983704,Correct,sub_016_day_02_data.csv,1,300,5.0,Training at home,,,,,,,,,,,,,
16,2,136,B,36.13388921757751,12.739863443928224,1.806694460878876,0.2001173070159103,B,1780.6224579981065,Correct,sub_016_day_02_data.csv,1,300,5.0,Training at home,,,,,,,,,,,,,
16,2,137,B,69.58015918342831,60.44396932273277,3.4790079591714154,0.9494516498905204,B,1847.0850409976265,Correct,sub_016_day_02_data.csv,1,300,5.0,Training at home,,,,,,,,,,,,,
16,2,138,B,69.11475247869184,52.88963146146063,3.455737623934592,0.8307883882519816,B,1156.7719580016274,Correct,sub_016_day_02_data.csv,1,300,5.0,Training at home,,,,,,,,,,,,,
16,2,139,A,49.79463358421543,61.00105369709448,2.4897316792107715,0.9582023107801424,A,882.0046660002845,Correct,sub_016_day_02_data.csv,1,300,5.0,Training at home,,,,,,,,,,,,,
16,2,140,A,30.08286567836787,59.9444473570209,1.5041432839183937,0.9416051772015848,A,1591.2597909991746,Correct,sub_016_day_02_data.csv,1,300,5.0,Training at home,,,,,,,,,,,,,
16,2,141,B,74.72937119662862,63.51020604548623,3.736468559831431,0.997615983702368,B,1521.438498999487,Correct,sub_016_day_02_data.csv,1,300,5.0,Training at home,,,,,,,,,,,,,
16,2,142,B,45.09812471454535,28.292635831797956,2.2549062357272676,0.444419684399339,B,1503.695540999615,Correct,sub_016_day_02_data.csv,1,300,5.0,Training at home,,,,,,,,,,,,,
16,2,143,A,38.65335144208943,61.43757513970933,1.9326675721044717,0.9650591735664086,B,945.6157909989996,Incorrect,sub_016_day_02_data.csv,0,300,5.0,Training at home,,,,,,,,,,,,,
16,2,144,B,87.3662031082783,64.57454728295562,4.368310155413915,1.0143346167651006,B,715.4848330028472,Correct,sub_016_day_02_data.csv,1,300,5.0,Training at home,,,,,,,,,,,,,
16,2,145,B,67.33951204304037,50.36680567791249,3.3669756021520185,0.7911599335125729,B,2507.784582998283,Correct,sub_016_day_02_data.csv,1,300,5.0,Training at home,,,,,,,,,,,,,
16,2,146,A,62.607114029756715,77.85418028144525,3.1303557014878356,1.2229306041172188,B,2090.921831997548,Incorrect,sub_016_day_02_data.csv,0,300,5.0,Training at home,,,,,,,,,,,,,
16,2,147,A,12.17056071657689,30.87128697016673,0.6085280358288445,0.4849250417616905,A,736.1261660007585,Correct,sub_016_day_02_data.csv,1,300,5.0,Training at home,,,,,,,,,,,,,
16,2,148,B,63.055065409632654,47.16338167426622,3.152753270481633,0.7408406669316311,B,1456.755833001807,Correct,sub_016_day_02_data.csv,1,300,5.0,Training at home,,,,,,,,,,,,,
16,2,149,B,43.964730241030566,32.644616734570995,2.1982365120515284,0.5127804405629134,B,2526.8681659981667,Correct,sub_016_day_02_data.csv,1,300,5.0,Training at home,,,,,,,,,,,,,
16,2,150,B,58.094666031927325,42.353017175603135,2.9047333015963663,0.6652796380811857,A,2559.267373999319,Incorrect,sub_016_day_02_data.csv,0,300,6.0,Training at home,,,,,,,,,,,,,
16,2,151,B,54.184756074543415,22.71673750007991,2.709237803727171,0.356833678218894,B,926.711708001676,Correct,sub_016_day_02_data.csv,1,300,6.0,Training at home,,,,,,,,,,,,,
16,2,152,A,18.528235161849857,39.99527837307545,0.9264117580924928,0.6282443635756628,A,492.3433739968459,Correct,sub_016_day_02_data.csv,1,300,6.0,Training at home,,,,,,,,,,,,,
16,2,153,B,69.75218943244431,48.16510916349252,3.4876094716222155,0.7565757655368925,B,757.2404159982398,Correct,sub_016_day_02_data.csv,1,300,6.0,Training at home,,,,,,,,,,,,,
16,2,154,B,55.2999420192842,47.91773678598827,2.7649971009642105,0.7526900493175507,B,1236.9907080028495,Correct,sub_016_day_02_data.csv,1,300,6.0,Training at home,,,,,,,,,,,,,
16,2,155,A,67.52654306631608,85.86395134998212,3.3763271533158044,1.348747793846476,B,2168.3739990003232,Incorrect,sub_016_day_02_data.csv,0,300,6.0,Training at home,,,,,,,,,,,,,
16,2,156,B,57.29321656146767,43.43440375523333,2.8646608280733834,0.6822660187524698,B,1040.075916000205,Correct,sub_016_day_02_data.csv,1,300,6.0,Training at home,,,,,,,,,,,,,
16,2,157,A,27.953663327007295,44.690858627870014,1.3976831663503648,0.7020023657396823,A,772.593790999963,Correct,sub_016_day_02_data.csv,1,300,6.0,Training at home,,,,,,,,,,,,,
16,2,158,B,50.64203543935804,23.403258036642782,2.532101771967902,0.3676175175899162,A,2185.3776659991127,Incorrect,sub_016_day_02_data.csv,0,300,6.0,Training at home,,,,,,,,,,,,,
16,2,159,B,32.5416724934864,13.535581736129917,1.62708362467432,0.2126164207214496,B,1173.9540829985344,Correct,sub_016_day_02_data.csv,1,300,6.0,Training at home,,,,,,,,,,,,,
16,2,160,A,27.86055042272996,55.7127214306872,1.393027521136498,0.8751333817907077,B,2388.7357079984213,Incorrect,sub_016_day_02_data.csv,0,300,6.0,Training at home,,,,,,,,,,,,,
16,2,161,A,22.78250021882213,50.257959619649874,1.1391250109411064,0.7894501836275225,A,620.9945830014476,Correct,sub_016_day_02_data.csv,1,300,6.0,Training at home,,,,,,,,,,,,,
16,2,162,B,42.249367856093166,33.711197619358586,2.1124683928046584,0.5295342539234533,B,854.1530410002451,Correct,sub_016_day_02_data.csv,1,300,6.0,Training at home,,,,,,,,,,,,,
16,2,163,B,78.30160937333211,62.70674822624271,3.9150804686666056,0.9849952977903444,B,2667.0810830000846,Correct,sub_016_day_02_data.csv,1,300,6.0,Training at home,,,,,,,,,,,,,
16,2,164,A,64.56801848344396,82.65896545466225,3.228400924172198,1.2984039931284972,B,1693.001332001586,Incorrect,sub_016_day_02_data.csv,0,300,6.0,Training at home,,,,,,,,,,,,,
16,2,165,A,40.67765321011101,59.700083326354765,2.0338826605055504,0.9377667159838732,B,2731.485332999,Incorrect,sub_016_day_02_data.csv,0,300,6.0,Training at home,,,,,,,,,,,,,
16,2,166,B,39.22020945847921,24.03296113521214,1.9610104729239608,0.3775088707319574,B,1483.9408750012808,Correct,sub_016_day_02_data.csv,1,300,6.0,Training at home,,,,,,,,,,,,,
16,2,167,A,63.58918229458675,84.11549751584096,3.1794591147293376,1.3212831452440823,B,1994.4409990021088,Incorrect,sub_016_day_02_data.csv,0,300,6.0,Training at home,,,,,,,,,,,,,
16,2,168,A,42.99014315529778,52.53445730446913,2.149507157764889,0.8252093256402344,B,881.6665820013441,Incorrect,sub_016_day_02_data.csv,0,300,6.0,Training at home,,,,,,,,,,,,,
16,2,169,B,56.62204543172943,28.524689364336293,2.8311022715864715,0.448064772764649,B,673.1780410009378,Correct,sub_016_day_02_data.csv,1,300,6.0,Training at home,,,,,,,,,,,,,
16,2,170,A,58.61886644450647,68.0154646789529,2.930943322225324,1.0683844208294724,B,2121.640582001419,Incorrect,sub_016_day_02_data.csv,0,300,6.0,Training at home,,,,,,,,,,,,,
16,2,171,A,50.403192828632854,79.89120544735147,2.5201596414316425,1.254928120599161,A,741.2508329980483,Correct,sub_016_day_02_data.csv,1,300,6.0,Training at home,,,,,,,,,,,,,
16,2,172,A,50.9117738840648,70.89911673987659,2.54558869420324,1.113680721480007,A,613.0929159990046,Correct,sub_016_day_02_data.csv,1,300,6.0,Training at home,,,,,,,,,,,,,
16,2,173,A,44.04489589024764,63.39518162175537,2.202244794512382,0.9958091842794868,A,542.4207910000405,Correct,sub_016_day_02_data.csv,1,300,6.0,Training at home,,,,,,,,,,,,,
16,2,174,A,54.79978377531029,69.3401276391982,2.7399891887655143,1.0891921779514182,A,617.5510409993876,Correct,sub_016_day_02_data.csv,1,300,6.0,Training at home,,,,,,,,,,,,,
16,2,175,B,34.00966429799298,21.441279721548963,1.7004832148996487,0.3367988342839101,B,1411.8590409998433,Correct,sub_016_day_02_data.csv,1,300,7.0,Training at home,,,,,,,,,,,,,
16,2,176,B,65.06175803845107,47.82356677462231,3.253087901922554,0.7512108302380718,B,829.9688740007696,Correct,sub_016_day_02_data.csv,1,300,7.0,Training at home,,,,,,,,,,,,,
16,2,177,B,73.03735943364396,46.190138952327466,3.6518679716821976,0.7255530060046187,B,900.4414160008309,Correct,sub_016_day_02_data.csv,1,300,7.0,Training at home,,,,,,,,,,,,,
16,2,178,A,67.86667061196783,89.0152370554792,3.3933335305983916,1.398248073955237,A,1136.8393749980896,Correct,sub_016_day_02_data.csv,1,300,7.0,Training at home,,,,,,,,,,,,,
16,2,179,B,50.82034560574715,29.94364409941277,2.5410172802873574,0.4703536616221125,B,714.9804990003759,Correct,sub_016_day_02_data.csv,1,300,7.0,Training at home,,,,,,,,,,,,,
16,2,180,A,45.282286362849426,72.07376391738134,2.264114318142471,1.1321320361970515,A,1118.8960830004362,Correct,sub_016_day_02_data.csv,1,300,7.0,Training at home,,,,,,,,,,,,,
16,2,181,B,49.36699542087876,20.9015654293666,2.468349771043938,0.3283210220071225,B,650.6505830002425,Correct,sub_016_day_02_data.csv,1,300,7.0,Training at home,,,,,,,,,,,,,
16,2,182,B,80.59508169965804,50.74857619580408,4.029754084982902,0.7971567707843997,A,1688.3760820019234,Incorrect,sub_016_day_02_data.csv,0,300,7.0,Training at home,,,,,,,,,,,,,
16,2,183,A,43.060203898868885,58.051076169886734,2.153010194943444,0.9118641721414884,A,918.8355820006108,Correct,sub_016_day_02_data.csv,1,300,7.0,Training at home,,,,,,,,,,,,,
16,2,184,A,58.38520240769051,67.43932278673812,2.9192601203845254,1.0593344051494358,A,1106.1706660002528,Correct,sub_016_day_02_data.csv,1,300,7.0,Training at home,,,,,,,,,,,,,
16,2,185,B,75.80415161425664,60.62852918957833,3.790207580712832,0.9523507094996682,B,1204.696208002133,Correct,sub_016_day_02_data.csv,1,300,7.0,Training at home,,,,,,,,,,,,,
16,2,186,B,76.74628242484096,62.35276456216572,3.837314121242048,0.979434935397569,B,627.9740409991064,Correct,sub_016_day_02_data.csv,1,300,7.0,Training at home,,,,,,,,,,,,,
16,2,187,B,36.96008295601355,26.12541401469062,1.8480041478006777,0.4103770437027194,B,2650.493624001683,Correct,sub_016_day_02_data.csv,1,300,7.0,Training at home,,,,,,,,,,,,,
16,2,188,A,15.114983164201092,43.025477942275955,0.7557491582100546,0.6758426271032191,A,596.607875002519,Correct,sub_016_day_02_data.csv,1,300,7.0,Training at home,,,,,,,,,,,,,
16,2,189,A,42.17866928189566,72.96214108013093,2.108933464094783,1.146086632037607,A,1891.3642490006168,Correct,sub_016_day_02_data.csv,1,300,7.0,Training at home,,,,,,,,,,,,,
16,2,190,B,85.29937943168692,59.03546564236922,4.264968971584346,0.927326925816599,B,1935.073790999013,Correct,sub_016_day_02_data.csv,1,300,7.0,Training at home,,,,,,,,,,,,,
16,2,191,A,55.8799338080849,84.69121413392963,2.793996690404245,1.3303264807337671,A,692.6443330012262,Correct,sub_016_day_02_data.csv,1,300,7.0,Training at home,,,,,,,,,,,,,
16,2,192,A,22.290522582874193,40.32668513628373,1.1145261291437096,0.6334500888388883,A,526.3576659999671,Correct,sub_016_day_02_data.csv,1,300,7.0,Training at home,,,,,,,,,,,,,
16,2,193,B,72.81625576681752,46.434575059646086,3.640812788340875,0.7293925993997399,B,1069.9232910010323,Correct,sub_016_day_02_data.csv,1,300,7.0,Training at home,,,,,,,,,,,,,
16,2,194,A,59.26610356362563,73.19690092076516,2.963305178181282,1.149774230991079,A,770.4155829997035,Correct,sub_016_day_02_data.csv,1,300,7.0,Training at home,,,,,,,,,,,,,
16,2,195,A,37.12814125673985,68.60159564636042,1.8564070628369929,1.077591344535717,A,958.0123739979172,Correct,sub_016_day_02_data.csv,1,300,7.0,Training at home,,,,,,,,,,,,,
16,2,196,B,62.01591649374113,33.95871786720446,3.1007958246870566,0.5334222928846899,B,667.670040998928,Correct,sub_016_day_02_data.csv,1,300,7.0,Training at home,,,,,,,,,,,,,
16,2,197,A,34.08887685724092,44.27734561808602,1.704443842862046,0.6955069185711762,B,1704.983000003267,Incorrect,sub_016_day_02_data.csv,0,300,7.0,Training at home,,,,,,,,,,,,,
16,2,198,B,61.13857509226795,48.949863809075154,3.0569287546133976,0.7689026626840569,B,1826.7434160006817,Correct,sub_016_day_02_data.csv,1,300,7.0,Training at home,,,,,,,,,,,,,
16,2,199,A,58.08642546245098,84.72027638948114,2.9043212731225494,1.330782989576454,B,2862.257081997086,Incorrect,sub_016_day_02_data.csv,0,300,7.0,Training at home,,,,,,,,,,,,,
16,2,200,A,34.14280429804113,44.5254768576515,1.7071402149020565,0.6994045549679015,B,2600.854457999958,Incorrect,sub_016_day_02_data.csv,0,300,8.0,Training at home,,,,,,,,,,,,,
16,2,201,A,21.981923268668737,40.75160085959832,1.0990961634334366,0.640124649412688,A,542.2023319988512,Correct,sub_016_day_02_data.csv,1,300,8.0,Training at home,,,,,,,,,,,,,
16,2,202,A,54.10696475728929,76.96974349017299,2.7053482378644644,1.2090379034870913,A,1810.6927910012016,Correct,sub_016_day_02_data.csv,1,300,8.0,Training at home,,,,,,,,,,,,,
16,2,203,B,33.616164158379085,11.307534988860583,1.6808082079189544,0.1776183442560698,B,1140.896373999567,Correct,sub_016_day_02_data.csv,1,300,8.0,Training at home,,,,,,,,,,,,,
16,2,204,B,52.2323335227155,44.55704905384513,2.611616676135775,0.6999004898659994,A,2016.8638739996825,Incorrect,sub_016_day_02_data.csv,0,300,8.0,Training at home,,,,,,,,,,,,,
16,2,205,B,53.88914090789043,33.88614258371109,2.694457045394522,0.5322822829974151,B,722.4447070002498,Correct,sub_016_day_02_data.csv,1,300,8.0,Training at home,,,,,,,,,,,,,
16,2,206,B,38.3107384499463,11.676823537943733,1.915536922497315,0.183419115220342,B,3030.2894990018103,Correct,sub_016_day_02_data.csv,1,300,8.0,Training at home,,,,,,,,,,,,,
16,2,207,B,64.51068862024137,55.014905909613745,3.2255344310120684,0.8641721212178811,A,1133.425748997979,Incorrect,sub_016_day_02_data.csv,0,300,8.0,Training at home,,,,,,,,,,,,,
16,2,208,B,53.2131274673498,35.21012757470283,2.6606563733674897,0.5530793906032291,B,1057.7217909994945,Correct,sub_016_day_02_data.csv,1,300,8.0,Training at home,,,,,,,,,,,,,
16,2,209,A,21.551552231695208,51.643977531027005,1.0775776115847604,0.8112217020681538,B,3662.972874000843,Incorrect,sub_016_day_02_data.csv,0,300,8.0,Training at home,,,,,,,,,,,,,
16,2,210,A,23.717845874431223,37.095080798055974,1.185892293721561,0.5826881665974623,A,659.5998739976494,Correct,sub_016_day_02_data.csv,1,300,8.0,Training at home,,,,,,,,,,,,,
16,2,211,B,52.641828955161,28.35670779463884,2.6320914477580506,0.445426124438149,B,2353.124208002555,Correct,sub_016_day_02_data.csv,1,300,8.0,Training at home,,,,,,,,,,,,,
16,2,212,A,48.48770165517056,76.99457979637822,2.424385082758528,1.2094280312726744,A,754.6469990011246,Correct,sub_016_day_02_data.csv,1,300,8.0,Training at home,,,,,,,,,,,,,
16,2,213,A,66.61081573650856,81.5640185073926,3.330540786825428,1.2812046067004326,B,1571.036790999642,Incorrect,sub_016_day_02_data.csv,0,300,8.0,Training at home,,,,,,,,,,,,,
16,2,214,B,44.89595579309477,27.727225630047226,2.244797789654738,0.4355382417189149,B,791.7079159997229,Correct,sub_016_day_02_data.csv,1,300,8.0,Training at home,,,,,,,,,,,,,
16,2,215,B,82.33179946511251,64.8231337450537,4.116589973255626,1.0182394037806466,B,898.8312910005334,Correct,sub_016_day_02_data.csv,1,300,8.0,Training at home,,,,,,,,,,,,,
16,2,216,A,53.59985775625987,74.91418071742036,2.6799928878129937,1.17674919895773,A,657.4264579976443,Correct,sub_016_day_02_data.csv,1,300,8.0,Training at home,,,,,,,,,,,,,
16,2,217,B,61.623855205225865,34.4251413692738,3.0811927602612936,0.5407488561225032,B,1756.527665998874,Correct,sub_016_day_02_data.csv,1,300,8.0,Training at home,,,,,,,,,,,,,
16,2,218,B,76.38298619983038,63.20736702488989,3.819149309991519,0.9928589994907392,B,941.2321659983718,Correct,sub_016_day_02_data.csv,1,300,8.0,Training at home,,,,,,,,,,,,,
16,2,219,B,73.29805292946854,62.33354943007264,3.6649026464734273,0.9791331048084624,B,649.6220819972223,Correct,sub_016_day_02_data.csv,1,300,8.0,Training at home,,,,,,,,,,,,,
16,2,220,A,19.5497934320672,48.58302889686981,0.97748967160336,0.7631404333577343,A,549.7959579988674,Correct,sub_016_day_02_data.csv,1,300,8.0,Training at home,,,,,,,,,,,,,
16,2,221,B,72.06941837804268,51.8009874231894,3.603470918902134,0.8136880076869454,B,1361.2069160008105,Correct,sub_016_day_02_data.csv,1,300,8.0,Training at home,,,,,,,,,,,,,
16,2,222,A,61.06439392650034,72.70380251478288,3.053219696325017,1.1420286593424251,B,796.5566659986507,Incorrect,sub_016_day_02_data.csv,0,300,8.0,Training at home,,,,,,,,,,,,,
16,2,223,A,52.60915912708696,78.27665703074194,2.630457956354348,1.2295668533767337,A,598.9903319969017,Correct,sub_016_day_02_data.csv,1,300,8.0,Training at home,,,,,,,,,,,,,
16,2,224,B,68.07889674144663,58.325162784964,3.403944837072331,0.9161695146233584,B,816.614291001315,Correct,sub_016_day_02_data.csv,1,300,8.0,Training at home,,,,,,,,,,,,,
16,2,225,A,27.937371308309626,40.10232853280076,1.396868565415481,0.629925903552456,B,1422.2998740006003,Incorrect,sub_016_day_02_data.csv,0,300,9.0,Training at home,,,,,,,,,,,,,
16,2,226,B,58.86536862209172,33.293243120194624,2.9432684311045865,0.5229690400029118,B,961.6612909994728,Correct,sub_016_day_02_data.csv,1,300,9.0,Training at home,,,,,,,,,,,,,
16,2,227,A,48.76403106257725,69.52103524843874,2.4382015531288626,1.092033868032261,A,685.5156250021537,Correct,sub_016_day_02_data.csv,1,300,9.0,Training at home,,,,,,,,,,,,,
16,2,228,A,25.336458675205677,51.93343413424891,1.266822933760284,0.815768475759229,A,1137.7202910007327,Correct,sub_016_day_02_data.csv,1,300,9.0,Training at home,,,,,,,,,,,,,
16,2,229,B,45.28204703458668,28.063783011887192,2.2641023517293344,0.4408248727104142,B,882.7855819981778,Correct,sub_016_day_02_data.csv,1,300,9.0,Training at home,,,,,,,,,,,,,
16,2,230,B,74.73135360195259,54.81315784321396,3.7365676800976297,0.8610030700014936,A,712.1600830032548,Incorrect,sub_016_day_02_data.csv,0,300,9.0,Training at home,,,,,,,,,,,,,
16,2,231,B,84.52331161864166,62.83308744884851,4.226165580932083,0.9869798296583376,B,679.609040998912,Correct,sub_016_day_02_data.csv,1,300,9.0,Training at home,,,,,,,,,,,,,
16,2,232,A,37.2929800993899,55.74782465682144,1.864649004969495,0.8756847819774108,B,787.7957910022815,Incorrect,sub_016_day_02_data.csv,0,300,9.0,Training at home,,,,,,,,,,,,,
16,2,233,B,82.67237978301571,61.294471025020584,4.1336189891507855,0.9628112993893854,A,602.5586659998226,Incorrect,sub_016_day_02_data.csv,0,300,9.0,Training at home,,,,,,,,,,,,,
16,2,234,B,68.85366886425058,45.562323958751406,3.442683443212529,0.7156913111464582,B,608.7300409999443,Correct,sub_016_day_02_data.csv,1,300,9.0,Training at home,,,,,,,,,,,,,
16,2,235,B,45.62484031697706,18.0482198237001,2.2812420158488527,0.2835007740425495,B,1158.43654100172,Correct,sub_016_day_02_data.csv,1,300,9.0,Training at home,,,,,,,,,,,,,
16,2,236,B,38.29957820068845,26.737956540577787,1.914978910034422,0.4199988391994116,B,1257.6002909991075,Correct,sub_016_day_02_data.csv,1,300,9.0,Training at home,,,,,,,,,,,,,
16,2,237,B,51.74029531529608,26.097459699941236,2.587014765764804,0.4099379383534554,B,1247.013790998608,Correct,sub_016_day_02_data.csv,1,300,9.0,Training at home,,,,,,,,,,,,,
16,2,238,B,59.75199227187936,29.03580701748845,2.987599613593968,0.4560933900859634,B,715.6797080024262,Correct,sub_016_day_02_data.csv,1,300,9.0,Training at home,,,,,,,,,,,,,
16,2,239,A,44.190006189679714,75.95414510534768,2.209500309483986,1.193084921363267,A,1063.0513329997484,Correct,sub_016_day_02_data.csv,1,300,9.0,Training at home,,,,,,,,,,,,,
16,2,240,B,61.865484552601735,43.66378294174019,3.0932742276300864,0.6858690985885515,A,2406.310291000409,Incorrect,sub_016_day_02_data.csv,0,300,9.0,Training at home,,,,,,,,,,,,,
16,2,241,A,38.8213004295472,48.368004486429385,1.94106502147736,0.7597628378168235,A,882.4355819997436,Correct,sub_016_day_02_data.csv,1,300,9.0,Training at home,,,,,,,,,,,,,
16,2,242,B,38.47016375651853,25.04621475667548,1.9235081878259264,0.3934250213990198,A,870.7564159994945,Incorrect,sub_016_day_02_data.csv,0,300,9.0,Training at home,,,,,,,,,,,,,
16,2,243,A,25.614975969931084,46.37195343820309,1.2807487984965542,0.728408941270334,A,850.4892909986665,Correct,sub_016_day_02_data.csv,1,300,9.0,Training at home,,,,,,,,,,,,,
16,2,244,B,63.25157007468415,44.140854891949466,3.1625785037342076,0.6933629272586076,B,786.8054569989908,Correct,sub_016_day_02_data.csv,1,300,9.0,Training at home,,,,,,,,,,,,,
16,2,245,A,45.73408161182537,76.60115826952176,2.286704080591268,1.203248180379993,A,2012.1332079979768,Correct,sub_016_day_02_data.csv,1,300,9.0,Training at home,,,,,,,,,,,,,
16,2,246,B,70.03848457848311,41.81404997505521,3.501924228924155,0.6568135610923496,B,713.268290997803,Correct,sub_016_day_02_data.csv,1,300,9.0,Training at home,,,,,,,,,,,,,
16,2,247,B,56.65175848355817,36.67215321184526,2.8325879241779086,0.576044835608262,B,1847.4388329996143,Correct,sub_016_day_02_data.csv,1,300,9.0,Training at home,,,,,,,,,,,,,
16,2,248,A,54.739391344590125,66.16827621097285,2.7369695672295062,1.039368852225463,B,1381.7143739979656,Incorrect,sub_016_day_02_data.csv,0,300,9.0,Training at home,,,,,,,,,,,,,
16,2,249,B,60.30421412507168,39.75747709940087,3.015210706253584,0.6245089899037111,B,1038.937041001191,Correct,sub_016_day_02_data.csv,1,300,9.0,Training at home,,,,,,,,,,,,,
16,2,250,B,66.60225648024444,45.02873951118561,3.3301128240122218,0.7073097862437459,B,928.934957999445,Correct,sub_016_day_02_data.csv,1,300,10.0,Training at home,,,,,,,,,,,,,
16,2,251,B,56.04948016588315,32.18261308557357,2.8024740082941575,0.5055233042148034,A,2863.0349160011974,Incorrect,sub_016_day_02_data.csv,0,300,10.0,Training at home,,,,,,,,,,,,,
16,2,252,B,62.15965918436379,43.424099428656554,3.1079829592181896,0.6821041587691008,B,981.9324999989476,Correct,sub_016_day_02_data.csv,1,300,10.0,Training at home,,,,,,,,,,,,,
16,2,253,B,74.68173575981152,53.94172513985153,3.734086787990576,0.847314637106587,B,1255.4295409972838,Correct,sub_016_day_02_data.csv,1,300,10.0,Training at home,,,,,,,,,,,,,
16,2,254,B,65.86206299968615,42.286504811638515,3.293103149984307,0.6642348643111651,B,1013.548165999964,Correct,sub_016_day_02_data.csv,1,300,10.0,Training at home,,,,,,,,,,,,,
16,2,255,A,28.395700048632367,60.00954813630785,1.4197850024316183,0.9426277778513388,A,638.2848329994886,Correct,sub_016_day_02_data.csv,1,300,10.0,Training at home,,,,,,,,,,,,,
16,2,256,A,50.624169929170606,65.46330289531154,2.53120849645853,1.028295157278171,B,803.5838319992763,Incorrect,sub_016_day_02_data.csv,0,300,10.0,Training at home,,,,,,,,,,,,,
16,2,257,B,85.85021062815588,67.54423588240584,4.292510531407794,1.0609823762025117,B,698.3329569993657,Correct,sub_016_day_02_data.csv,1,300,10.0,Training at home,,,,,,,,,,,,,
16,2,258,A,44.589355449748425,57.18516884130905,2.2294677724874212,0.8982625316307423,B,1225.1766240005963,Incorrect,sub_016_day_02_data.csv,0,300,10.0,Training at home,,,,,,,,,,,,,
16,2,259,A,29.805768211554728,56.02206973746003,1.4902884105777363,0.8799926136304975,A,551.2440829988918,Correct,sub_016_day_02_data.csv,1,300,10.0,Training at home,,,,,,,,,,,,,
16,2,260,A,44.35006533441968,69.04870856362177,2.217503266720984,1.084614577816684,A,654.7697080022772,Correct,sub_016_day_02_data.csv,1,300,10.0,Training at home,,,,,,,,,,,,,
16,2,261,A,38.75153028744014,62.66744665239847,1.9375765143720072,0.9843779501120266,A,571.6740820025734,Correct,sub_016_day_02_data.csv,1,300,10.0,Training at home,,,,,,,,,,,,,
16,2,262,B,80.89234293318316,50.25560995061953,4.044617146659158,0.7894132751127021,B,672.8509579988895,Correct,sub_016_day_02_data.csv,1,300,10.0,Training at home,,,,,,,,,,,,,
16,2,263,A,48.21555484354146,63.41027014350719,2.410777742177073,0.996046194224932,B,606.4640410004358,Incorrect,sub_016_day_02_data.csv,0,300,10.0,Training at home,,,,,,,,,,,,,
16,2,264,B,44.37203326215515,19.05306361483619,2.2186016631077576,0.2992848234037418,B,941.0571660009736,Correct,sub_016_day_02_data.csv,1,300,10.0,Training at home,,,,,,,,,,,,,
16,2,265,A,65.56561427184172,86.70953328767247,3.278280713592086,1.362030163863757,A,1282.1948739983782,Correct,sub_016_day_02_data.csv,1,300,10.0,Training at home,,,,,,,,,,,,,
16,2,266,B,52.59378381662014,24.98074724414531,2.629689190831007,0.3923966601169518,B,1003.4581239997352,Correct,sub_016_day_02_data.csv,1,300,10.0,Training at home,,,,,,,,,,,,,
16,2,267,B,66.54536874041058,46.386409056557326,3.327268437020529,0.7286360095924577,A,563.8967910017527,Incorrect,sub_016_day_02_data.csv,0,300,10.0,Training at home,,,,,,,,,,,,,
16,2,268,A,17.32345429107543,33.90755472013883,0.8661727145537713,0.5326186240499103,A,1036.8982489999323,Correct,sub_016_day_02_data.csv,1,300,10.0,Training at home,,,,,,,,,,,,,
16,2,269,A,55.54043020356963,80.00863589216989,2.777021510178481,1.256772713712908,A,1067.0713740000792,Correct,sub_016_day_02_data.csv,1,300,10.0,Training at home,,,,,,,,,,,,,
16,2,270,A,68.34350060573722,86.9456854144204,3.4171750302868613,1.3657396327963616,A,2214.8178740026196,Correct,sub_016_day_02_data.csv,1,300,10.0,Training at home,,,,,,,,,,,,,
16,2,271,B,53.15428548843995,39.82747292492148,2.6577142744219975,0.6256084817598985,B,1276.5092070003448,Correct,sub_016_day_02_data.csv,1,300,10.0,Training at home,,,,,,,,,,,,,
16,2,272,A,11.348553001246138,37.49834321760651,0.5674276500623069,0.5890225978711062,A,748.3800829977554,Correct,sub_016_day_02_data.csv,1,300,10.0,Training at home,,,,,,,,,,,,,
16,2,273,B,39.52300543566467,28.02372086589227,1.9761502717832335,0.4401955779926907,B,1703.1634570012102,Correct,sub_016_day_02_data.csv,1,300,10.0,Training at home,,,,,,,,,,,,,
16,2,274,A,35.91151685779152,53.22454203682129,1.795575842889576,0.8360491512677943,A,874.4516240003577,Correct,sub_016_day_02_data.csv,1,300,10.0,Training at home,,,,,,,,,,,,,
16,2,275,A,58.8543370035798,73.94949598758826,2.94271685017899,1.1615959666563758,A,1212.6374569998006,Correct,sub_016_day_02_data.csv,1,300,11.0,Training at home,,,,,,,,,,,,,
16,2,276,B,41.72003886902531,30.84281800125773,2.0860019434512656,0.4844778522437914,B,927.9709990005358,Correct,sub_016_day_02_data.csv,1,300,11.0,Training at home,,,,,,,,,,,,,
16,2,277,A,45.27570002064677,71.74730578330511,2.263785001032338,1.1270040438184592,A,785.5568330014648,Correct,sub_016_day_02_data.csv,1,300,11.0,Training at home,,,,,,,,,,,,,
16,2,278,A,34.32132682093954,61.56362139834866,1.716066341046977,0.9670391035671778,A,650.4445819991815,Correct,sub_016_day_02_data.csv,1,300,11.0,Training at home,,,,,,,,,,,,,
16,2,279,A,63.60530132952525,83.97906324829984,3.180265066476262,1.3191400407810567,A,1831.3534579974655,Correct,sub_016_day_02_data.csv,1,300,11.0,Training at home,,,,,,,,,,,,,
16,2,280,B,57.37275143755344,45.683241840328535,2.868637571877672,0.7175906847887099,B,1142.364291001286,Correct,sub_016_day_02_data.csv,1,300,11.0,Training at home,,,,,,,,,,,,,
16,2,281,A,32.89587710774587,46.02045686067895,1.6447938553872934,0.7228876459417749,B,1423.48475000108,Incorrect,sub_016_day_02_data.csv,0,300,11.0,Training at home,,,,,,,,,,,,,
16,2,282,A,51.38991899183576,70.38043231597356,2.569495949591788,1.105533245601681,B,1609.2833330003486,Incorrect,sub_016_day_02_data.csv,0,300,11.0,Training at home,,,,,,,,,,,,,
16,2,283,A,31.84992905842748,63.47941711190619,1.592496452921374,0.9971323522646336,A,1078.8788329991803,Correct,sub_016_day_02_data.csv,1,300,11.0,Training at home,,,,,,,,,,,,,
16,2,284,A,14.98441571935838,43.52877867927225,0.7492207859679191,0.6837484565926887,A,617.3304990006727,Correct,sub_016_day_02_data.csv,1,300,11.0,Training at home,,,,,,,,,,,,,
16,2,285,A,53.15379736785829,80.28824923014812,2.657689868392914,1.2611648697550988,A,1807.1467070003564,Correct,sub_016_day_02_data.csv,1,300,11.0,Training at home,,,,,,,,,,,,,
16,2,286,A,17.257858767900917,35.59092034177003,0.8628929383950458,0.5590608694010213,A,577.8334160022496,Correct,sub_016_day_02_data.csv,1,300,11.0,Training at home,,,,,,,,,,,,,
16,2,287,B,78.4464771525434,49.86195894837427,3.9223238576271697,0.7832298196290424,B,712.1205410003313,Correct,sub_016_day_02_data.csv,1,300,11.0,Training at home,,,,,,,,,,,,,
16,2,288,B,49.590580479808,37.43329379333031,2.4795290239904,0.5880008039039744,A,2071.0839569983364,Incorrect,sub_016_day_02_data.csv,0,300,11.0,Training at home,,,,,,,,,,,,,
16,2,289,B,73.22266992767433,46.74637797416849,3.6611334963837168,0.7342903881278972,B,500.7555410011264,Correct,sub_016_day_02_data.csv,1,300,11.0,Training at home,,,,,,,,,,,,,
16,2,290,B,66.40971993018988,46.69875041543157,3.320485996509494,0.7335422561847156,B,725.8964159991592,Correct,sub_016_day_02_data.csv,1,300,11.0,Training at home,,,,,,,,,,,,,
16,2,291,A,42.70662702132371,60.49439394529736,2.1353313510661853,0.9502437180095652,A,781.057583000802,Correct,sub_016_day_02_data.csv,1,300,11.0,Training at home,,,,,,,,,,,,,
16,2,292,A,43.93446047104413,71.61989399159704,2.196723023552207,1.125002664074405,A,1406.3731239984918,Correct,sub_016_day_02_data.csv,1,300,11.0,Training at home,,,,,,,,,,,,,
16,2,293,A,52.032889094645185,73.47897244484938,2.601644454732259,1.154205000130328,A,817.4659159994917,Correct,sub_016_day_02_data.csv,1,300,11.0,Training at home,,,,,,,,,,,,,
16,2,294,B,44.49951381335828,17.99694806687683,2.2249756906679137,0.2826953991696864,B,969.3958329989982,Correct,sub_016_day_02_data.csv,1,300,11.0,Training at home,,,,,,,,,,,,,
16,2,295,A,33.527300402901105,57.726379985667585,1.6763650201450553,0.9067638564065308,A,1459.4027489984,Correct,sub_016_day_02_data.csv,1,300,11.0,Training at home,,,,,,,,,,,,,
16,2,296,A,41.012610540036576,58.03213389061958,2.050630527001829,0.9115666275145488,A,1042.5964159985597,Correct,sub_016_day_02_data.csv,1,300,11.0,Training at home,,,,,,,,,,,,,
16,2,297,A,34.018317807803214,56.67744427365247,1.700915890390161,0.8902872127717574,A,639.8936240002513,Correct,sub_016_day_02_data.csv,1,300,11.0,Training at home,,,,,,,,,,,,,
16,2,298,A,31.82263626301392,54.23831785842451,1.591131813150696,0.8519735046354725,A,1439.9604579994048,Correct,sub_016_day_02_data.csv,1,300,11.0,Training at home,,,,,,,,,,,,,
16,2,299,B,43.53179202213947,21.16412638548437,2.176589601106974,0.3324453198614179,A,874.2159570028889,Incorrect,sub_016_day_02_data.csv,0,300,11.0,Training at home,,,,,,,,,,,,,
