subject,day,trial,cat,x,y,xt,yt,resp,rt,fb,f_name,acc,n_trials,block,session_type,ns_left_digit,ns_right_digit,ns_left_size,ns_right_size,ns_congruent,ns_cue,ns_correct_side,ns_resp,ns_rt,ns_fb,acc_stroop,acc_stroop_mean,resp_key
16,8,1500,B,71.32587790773472,51.57630540356038,3.566293895386736,0.8101587107756443,A,1622.1313749992987,Incorrect,sub_016_day_07_data.csv,0,300,60.0,Training at home,,,,,,,,,,,,,
16,8,1501,B,43.48751972705072,18.25587021904024,2.174375986352536,0.2867625388251275,B,763.8338749966351,Correct,sub_016_day_07_data.csv,1,300,60.0,Training at home,,,,,,,,,,,,,
16,8,1502,B,71.66582525101195,54.198419498470315,3.5832912625505973,0.8513467826628607,A,1242.7510830020765,Incorrect,sub_016_day_07_data.csv,0,300,60.0,Training at home,,,,,,,,,,,,,
16,8,1503,A,47.43408362121971,68.41037377824172,2.3717041810609856,1.07458763845528,A,2368.0316249956377,Correct,sub_016_day_07_data.csv,1,300,60.0,Training at home,,,,,,,,,,,,,
16,8,1504,B,78.19258021299957,53.89856251941414,3.909629010649979,0.8466366402502081,B,1433.5229579883162,Correct,sub_016_day_07_data.csv,1,300,60.0,Training at home,,,,,,,,,,,,,
16,8,1505,B,39.502956375992014,29.17692106230932,1.9751478187996008,0.4583100043186013,B,1209.112707991153,Correct,sub_016_day_07_data.csv,1,300,60.0,Training at home,,,,,,,,,,,,,
16,8,1506,A,65.16852414559001,78.92792672481501,3.2584262072795007,1.2397969738087615,A,661.6893340105889,Correct,sub_016_day_07_data.csv,1,300,60.0,Training at home,,,,,,,,,,,,,
16,8,1507,A,55.66834563227112,68.45216979523981,2.783417281613556,1.0752441687550325,A,560.8828750118846,Correct,sub_016_day_07_data.csv,1,300,60.0,Training at home,,,,,,,,,,,,,
16,8,1508,A,19.931185938987394,37.54649854271673,0.9965592969493696,0.5897790199490939,A,2411.3757090090076,Correct,sub_016_day_07_data.csv,1,300,60.0,Training at home,,,,,,,,,,,,,
16,8,1509,A,53.73303634922665,64.77397042702243,2.6866518174613327,1.017467148186881,A,2610.4204169969307,Correct,sub_016_day_07_data.csv,1,300,60.0,Training at home,,,,,,,,,,,,,
16,8,1510,A,27.68531222283073,50.778472002558715,1.3842656111415366,0.7976263730187673,A,812.6037919864757,Correct,sub_016_day_07_data.csv,1,300,60.0,Training at home,,,,,,,,,,,,,
16,8,1511,B,34.88345485886545,14.444622169539588,1.7441727429432723,0.2268955944585291,B,553.0695409979671,Correct,sub_016_day_07_data.csv,1,300,60.0,Training at home,,,,,,,,,,,,,
16,8,1512,B,84.1313688569294,67.67477892439302,4.20656844284647,1.0630329415109323,A,558.0263750016456,Incorrect,sub_016_day_07_data.csv,0,300,60.0,Training at home,,,,,,,,,,,,,
16,8,1513,A,26.78362507169406,51.21371954267207,1.3391812535847032,0.804463225391333,A,1090.8958329964662,Correct,sub_016_day_07_data.csv,1,300,60.0,Training at home,,,,,,,,,,,,,
16,8,1514,B,40.437206453805814,16.05208236979859,2.0218603226902907,0.2521455202388875,B,2369.4001250114525,Correct,sub_016_day_07_data.csv,1,300,60.0,Training at home,,,,,,,,,,,,,
16,8,1515,B,56.759719649807415,26.804899400552525,2.8379859824903706,0.4210503751849463,B,5213.54437500122,Correct,sub_016_day_07_data.csv,1,300,60.0,Training at home,,,,,,,,,,,,,
16,8,1516,A,62.46498007990577,88.6378703151793,3.123249003995289,1.3923204110600604,A,1145.5203340010485,Correct,sub_016_day_07_data.csv,1,300,60.0,Training at home,,,,,,,,,,,,,
16,8,1517,A,64.38054204393598,85.88937717548875,3.2190271021967987,1.3491471817795917,A,2172.4595420091646,Correct,sub_016_day_07_data.csv,1,300,60.0,Training at home,,,,,,,,,,,,,
16,8,1518,A,60.38433445495009,81.3222162309799,3.0192167227475046,1.2774063854244355,A,819.6761669969419,Correct,sub_016_day_07_data.csv,1,300,60.0,Training at home,,,,,,,,,,,,,
16,8,1519,A,16.63686779573875,41.0513044809031,0.8318433897869375,0.6448323828874145,A,2191.330249988823,Correct,sub_016_day_07_data.csv,1,300,60.0,Training at home,,,,,,,,,,,,,
16,8,1520,B,76.64697811613226,44.725666890999975,3.832348905806613,0.7025491326583487,B,712.4271249922458,Correct,sub_016_day_07_data.csv,1,300,60.0,Training at home,,,,,,,,,,,,,
16,8,1521,A,34.27626384247034,42.29510907051581,1.7138131921235171,0.6643700196935574,A,3902.8406249999534,Correct,sub_016_day_07_data.csv,1,300,60.0,Training at home,,,,,,,,,,,,,
16,8,1522,A,28.984760670231548,55.19297111888386,1.4492380335115775,0.8669691629843957,A,3493.5049999912735,Correct,sub_016_day_07_data.csv,1,300,60.0,Training at home,,,,,,,,,,,,,
16,8,1523,B,83.01695746869716,58.037973959963985,4.150847873434858,0.9116583631092928,B,572.5575419928646,Correct,sub_016_day_07_data.csv,1,300,60.0,Training at home,,,,,,,,,,,,,
16,8,1524,B,73.74977405066186,53.28604904558157,3.687488702533093,0.8370153011021222,B,1204.7072919958737,Correct,sub_016_day_07_data.csv,1,300,60.0,Training at home,,,,,,,,,,,,,
16,8,1525,A,25.678898109902995,55.7302181486864,1.28394490549515,0.8754082195943489,A,1085.227458999725,Correct,sub_016_day_07_data.csv,1,300,61.0,Training at home,,,,,,,,,,,,,
16,8,1526,A,37.088505914622374,54.59008509834929,1.8544252957311187,0.8574990515190788,A,1298.48291601229,Correct,sub_016_day_07_data.csv,1,300,61.0,Training at home,,,,,,,,,,,,,
16,8,1527,A,68.05933665487832,86.1404834237312,3.402966832743916,1.3530915495033362,A,598.9777089998825,Correct,sub_016_day_07_data.csv,1,300,61.0,Training at home,,,,,,,,,,,,,
16,8,1528,A,35.32312576163486,59.63581370057446,1.766156288081743,0.9367571710628714,A,1062.2747500019614,Correct,sub_016_day_07_data.csv,1,300,61.0,Training at home,,,,,,,,,,,,,
16,8,1529,A,54.01093137467418,71.88510608393635,2.700546568733709,1.129168605879087,A,1211.1437499988824,Correct,sub_016_day_07_data.csv,1,300,61.0,Training at home,,,,,,,,,,,,,
16,8,1530,B,83.22518522031667,62.339924290667796,4.161259261015834,0.9792332408845292,B,1058.88591700932,Correct,sub_016_day_07_data.csv,1,300,61.0,Training at home,,,,,,,,,,,,,
16,8,1531,A,35.129202897021976,51.05972955011143,1.7564601448510988,0.8020443562445588,A,914.9762089946308,Correct,sub_016_day_07_data.csv,1,300,61.0,Training at home,,,,,,,,,,,,,
16,8,1532,A,60.97210154033023,84.1594524018842,3.0486050770165116,1.3219735869794962,B,1341.0629580030218,Incorrect,sub_016_day_07_data.csv,0,300,61.0,Training at home,,,,,,,,,,,,,
16,8,1533,A,51.554191821632706,74.92167073319182,2.577709591081635,1.1768668518503442,A,2057.109583998681,Correct,sub_016_day_07_data.csv,1,300,61.0,Training at home,,,,,,,,,,,,,
16,8,1534,A,63.577923720039095,73.54738188728834,3.178896186001955,1.1552795731393404,B,3042.5200409954414,Incorrect,sub_016_day_07_data.csv,0,300,61.0,Training at home,,,,,,,,,,,,,
16,8,1535,A,12.2250717085094,39.057397355309305,0.61125358542547,0.6135121629988857,A,532.9467089904938,Correct,sub_016_day_07_data.csv,1,300,61.0,Training at home,,,,,,,,,,,,,
16,8,1536,B,65.90892289075535,47.870053971703896,3.295446144537767,0.7519410494222593,B,1747.8352500038454,Correct,sub_016_day_07_data.csv,1,300,61.0,Training at home,,,,,,,,,,,,,
16,8,1537,B,72.46462846878606,60.0736751466285,3.623231423439303,0.9436350825739392,B,665.7082089950563,Correct,sub_016_day_07_data.csv,1,300,61.0,Training at home,,,,,,,,,,,,,
16,8,1538,B,77.84998401920731,58.576913642800704,3.892499200960366,0.920124007850932,B,988.4964580123778,Correct,sub_016_day_07_data.csv,1,300,61.0,Training at home,,,,,,,,,,,,,
16,8,1539,A,33.52136338881651,54.01723159974794,1.6760681694408257,0.8485006898051329,A,846.3719999999739,Correct,sub_016_day_07_data.csv,1,300,61.0,Training at home,,,,,,,,,,,,,
16,8,1540,A,53.5720643154165,65.86379234356738,2.6786032157708246,1.0345860308205748,A,649.9531669978751,Correct,sub_016_day_07_data.csv,1,300,61.0,Training at home,,,,,,,,,,,,,
16,8,1541,B,39.631961657840016,24.142260166496868,1.9815980828920008,0.3792257359006002,B,629.7977499925764,Correct,sub_016_day_07_data.csv,1,300,61.0,Training at home,,,,,,,,,,,,,
16,8,1542,B,69.36541754944638,52.21093846585195,3.4682708774723188,0.8201275036067462,B,1317.182792001404,Correct,sub_016_day_07_data.csv,1,300,61.0,Training at home,,,,,,,,,,,,,
16,8,1543,B,51.87133045057166,30.89484741458807,2.5935665225285836,0.4852951283572375,B,2120.654124999419,Correct,sub_016_day_07_data.csv,1,300,61.0,Training at home,,,,,,,,,,,,,
16,8,1544,A,26.164810224543228,37.72448352446771,1.3082405112271611,0.5925748015046847,B,6211.261584001477,Incorrect,sub_016_day_07_data.csv,0,300,61.0,Training at home,,,,,,,,,,,,,
16,8,1545,A,44.009603502779285,75.65723242568347,2.200480175138964,1.1884210278973135,A,645.5225840036292,Correct,sub_016_day_07_data.csv,1,300,61.0,Training at home,,,,,,,,,,,,,
16,8,1546,B,60.59465496680294,46.90817318404955,3.0297327483401473,0.736831861341639,A,3809.4710830046097,Incorrect,sub_016_day_07_data.csv,0,300,61.0,Training at home,,,,,,,,,,,,,
16,8,1547,A,40.57494138637123,55.503194750791806,2.028747069318561,0.8718421443992554,A,569.9422500038054,Correct,sub_016_day_07_data.csv,1,300,61.0,Training at home,,,,,,,,,,,,,
16,8,1548,A,46.51013372432926,74.5759170021967,2.3255066862164626,1.1714357649441165,A,693.3042499877047,Correct,sub_016_day_07_data.csv,1,300,61.0,Training at home,,,,,,,,,,,,,
16,8,1549,A,33.20934466545754,47.52885148919143,1.6604672332728772,0.7465814533600206,A,820.1655410084641,Correct,sub_016_day_07_data.csv,1,300,61.0,Training at home,,,,,,,,,,,,,
16,8,1550,B,64.90140648189238,41.24531001812672,3.245070324094619,0.6478798147399021,B,637.6153329911176,Correct,sub_016_day_07_data.csv,1,300,62.0,Training at home,,,,,,,,,,,,,
16,8,1551,A,68.81214287040163,87.17171874788218,3.4406071435200816,1.3692901560957114,A,1474.2760000081034,Correct,sub_016_day_07_data.csv,1,300,62.0,Training at home,,,,,,,,,,,,,
16,8,1552,B,79.85758707194627,51.891400396593525,3.9928793535973135,0.8151082113521235,B,2012.1495420025897,Correct,sub_016_day_07_data.csv,1,300,62.0,Training at home,,,,,,,,,,,,,
16,8,1553,A,54.64714331476979,79.29255455624312,2.7323571657384895,1.2455245343913064,A,2379.7842909989413,Correct,sub_016_day_07_data.csv,1,300,62.0,Training at home,,,,,,,,,,,,,
16,8,1554,B,50.56331699057368,31.525021477556855,2.5281658495286843,0.4951938793907653,A,4358.6724160122685,Incorrect,sub_016_day_07_data.csv,0,300,62.0,Training at home,,,,,,,,,,,,,
16,8,1555,B,70.22706513257707,44.52855777088119,3.5113532566288534,0.6994529498397453,B,917.9297919909004,Correct,sub_016_day_07_data.csv,1,300,62.0,Training at home,,,,,,,,,,,,,
16,8,1556,B,43.33161356428823,23.977343018992837,2.1665806782144115,0.376635223405352,B,1215.902666997863,Correct,sub_016_day_07_data.csv,1,300,62.0,Training at home,,,,,,,,,,,,,
16,8,1557,A,48.10121365524957,58.41112260880328,2.4050606827624788,0.9175197683787452,A,2758.99745899369,Correct,sub_016_day_07_data.csv,1,300,62.0,Training at home,,,,,,,,,,,,,
16,8,1558,B,74.43568698161226,53.03682346169566,3.7217843490806137,0.8331004747850094,B,1978.949084004853,Correct,sub_016_day_07_data.csv,1,300,62.0,Training at home,,,,,,,,,,,,,
16,8,1559,A,31.722612046232967,50.08957905305604,1.5861306023116484,0.7868052678724301,A,1964.1342910035744,Correct,sub_016_day_07_data.csv,1,300,62.0,Training at home,,,,,,,,,,,,,
16,8,1560,B,44.273458470632235,28.10962103972765,2.213672923531612,0.4415448947680072,B,1290.3194170066854,Correct,sub_016_day_07_data.csv,1,300,62.0,Training at home,,,,,,,,,,,,,
16,8,1561,A,33.03152880201003,55.85945176083193,1.6515764401005015,0.8774382164269151,B,3103.525416998309,Incorrect,sub_016_day_07_data.csv,0,300,62.0,Training at home,,,,,,,,,,,,,
16,8,1562,A,62.97046379912595,75.36639829381893,3.1485231899562973,1.1838526160369192,B,646.2540420034202,Incorrect,sub_016_day_07_data.csv,0,300,62.0,Training at home,,,,,,,,,,,,,
16,8,1563,B,80.22863968183731,59.770066336958664,4.011431984091866,0.9388660065438198,B,582.7642910007853,Correct,sub_016_day_07_data.csv,1,300,62.0,Training at home,,,,,,,,,,,,,
16,8,1564,A,39.30182490175871,52.928270426539136,1.9650912450879352,0.8313953276961462,A,491.7586660012603,Correct,sub_016_day_07_data.csv,1,300,62.0,Training at home,,,,,,,,,,,,,
16,8,1565,A,45.15850897826141,70.85824729213849,2.2579254489130705,1.1130387456961557,A,503.07508300466,Correct,sub_016_day_07_data.csv,1,300,62.0,Training at home,,,,,,,,,,,,,
16,8,1566,A,61.984477699547945,87.58689478310738,3.0992238849773974,1.3758117260067615,A,10157.828625000548,Correct,sub_016_day_07_data.csv,1,300,62.0,Training at home,,,,,,,,,,,,,
16,8,1567,A,52.49605555559536,59.98794475152973,2.6248027777797684,0.942288432676781,A,1890.7635409996144,Correct,sub_016_day_07_data.csv,1,300,62.0,Training at home,,,,,,,,,,,,,
16,8,1568,A,34.16700996279236,59.26933707618157,1.708350498139618,0.9310005697083458,A,1213.2202920038253,Correct,sub_016_day_07_data.csv,1,300,62.0,Training at home,,,,,,,,,,,,,
16,8,1569,A,30.488801355495205,55.14989873165172,1.5244400677747605,0.8662925835078904,A,487.30566700396594,Correct,sub_016_day_07_data.csv,1,300,62.0,Training at home,,,,,,,,,,,,,
16,8,1570,A,65.11780830764806,84.53329703076822,3.255890415382402,1.3278459246779266,B,639.9135419924278,Incorrect,sub_016_day_07_data.csv,0,300,62.0,Training at home,,,,,,,,,,,,,
16,8,1571,B,46.84872688944867,24.434758911721033,2.3424363444724334,0.3838202954465026,B,553.4593329939526,Correct,sub_016_day_07_data.csv,1,300,62.0,Training at home,,,,,,,,,,,,,
16,8,1572,A,20.34116934328604,50.5700818205721,1.017058467164302,0.7943529876947204,A,2051.029167007073,Correct,sub_016_day_07_data.csv,1,300,62.0,Training at home,,,,,,,,,,,,,
16,8,1573,B,69.15157143317997,46.06187648992604,3.457578571658998,0.7235382639565602,B,686.5502080036094,Correct,sub_016_day_07_data.csv,1,300,62.0,Training at home,,,,,,,,,,,,,
16,8,1574,A,23.044271105144805,38.33165570611138,1.15221355525724,0.6021122398312639,B,1477.638833996025,Incorrect,sub_016_day_07_data.csv,0,300,62.0,Training at home,,,,,,,,,,,,,
16,8,1575,B,63.450209036654726,46.80102830044394,3.172510451832736,0.7351488334456134,B,1361.3094169995748,Correct,sub_016_day_07_data.csv,1,300,63.0,Training at home,,,,,,,,,,,,,
16,8,1576,B,58.54150454206479,39.92552094494947,2.9270752271032396,0.6271486164569934,A,3272.3483340087114,Incorrect,sub_016_day_07_data.csv,0,300,63.0,Training at home,,,,,,,,,,,,,
16,8,1577,B,35.431781637552845,16.89404729251237,1.771589081877642,0.2653710743177769,B,1909.8970409977485,Correct,sub_016_day_07_data.csv,1,300,63.0,Training at home,,,,,,,,,,,,,
16,8,1578,A,26.394363966127894,49.03629138023783,1.319718198306395,0.7702602637972183,B,6378.59274999937,Incorrect,sub_016_day_07_data.csv,0,300,63.0,Training at home,,,,,,,,,,,,,
16,8,1579,A,58.606725204724235,76.39103843594344,2.9303362602362117,1.1999476257522772,B,640.2847089921124,Incorrect,sub_016_day_07_data.csv,0,300,63.0,Training at home,,,,,,,,,,,,,
16,8,1580,B,43.18564408840587,27.23674558459881,2.1592822044202937,0.4278337991813493,B,784.3521670001792,Correct,sub_016_day_07_data.csv,1,300,63.0,Training at home,,,,,,,,,,,,,
16,8,1581,B,61.481039485224,41.21500244418487,3.0740519742612005,0.6474037444816828,B,831.5728750021663,Correct,sub_016_day_07_data.csv,1,300,63.0,Training at home,,,,,,,,,,,,,
16,8,1582,A,24.83373314761006,54.643215289419835,1.241686657380503,0.858333618608834,A,807.0591660070932,Correct,sub_016_day_07_data.csv,1,300,63.0,Training at home,,,,,,,,,,,,,
16,8,1583,A,33.2950164294234,58.77262779400564,1.6647508214711702,0.923198278549077,A,1006.52995800192,Correct,sub_016_day_07_data.csv,1,300,63.0,Training at home,,,,,,,,,,,,,
16,8,1584,A,23.200706346860873,37.45925523866733,1.1600353173430435,0.5884086053337113,A,5046.775082999375,Correct,sub_016_day_07_data.csv,1,300,63.0,Training at home,,,,,,,,,,,,,
16,8,1585,A,32.33004906708596,41.5472959957026,1.6165024533542978,0.6526233993830995,A,5624.198000004981,Correct,sub_016_day_07_data.csv,1,300,63.0,Training at home,,,,,,,,,,,,,
16,8,1586,A,37.12778130222733,64.24762173627643,1.8563890651113664,1.0091992822865097,A,3224.2017079988727,Correct,sub_016_day_07_data.csv,1,300,63.0,Training at home,,,,,,,,,,,,,
16,8,1587,A,47.96631458944982,79.5600272051104,2.3983157294724915,1.2497259849348947,A,2548.93429200456,Correct,sub_016_day_07_data.csv,1,300,63.0,Training at home,,,,,,,,,,,,,
16,8,1588,B,67.61487294681262,44.30826086096977,3.380743647340631,0.695992534070814,B,802.9282500065165,Correct,sub_016_day_07_data.csv,1,300,63.0,Training at home,,,,,,,,,,,,,
16,8,1589,A,20.676707178000157,42.82313281659232,1.0338353589000078,0.6726641973015322,A,897.5341660116101,Correct,sub_016_day_07_data.csv,1,300,63.0,Training at home,,,,,,,,,,,,,
16,8,1590,A,38.39646299402637,60.619518407465776,1.9198231497013185,0.9522091684652286,A,3773.0553750006943,Correct,sub_016_day_07_data.csv,1,300,63.0,Training at home,,,,,,,,,,,,,
16,8,1591,A,23.777831435705785,37.42070508972982,1.1888915717852893,0.5878030610102268,A,536.9727499928558,Correct,sub_016_day_07_data.csv,1,300,63.0,Training at home,,,,,,,,,,,,,
16,8,1592,B,63.327321593710835,30.968747900839332,3.1663660796855417,0.4864559544807559,B,1035.1154590025544,Correct,sub_016_day_07_data.csv,1,300,63.0,Training at home,,,,,,,,,,,,,
16,8,1593,B,89.19296318514938,68.32919074991338,4.459648159257469,1.0733124184283176,B,728.4496250067605,Correct,sub_016_day_07_data.csv,1,300,63.0,Training at home,,,,,,,,,,,,,
16,8,1594,A,31.3558134035526,54.5543797361508,1.56779067017763,0.8569381930011962,A,2916.4952499995707,Correct,sub_016_day_07_data.csv,1,300,63.0,Training at home,,,,,,,,,,,,,
16,8,1595,B,35.2538745605826,12.243594728993465,1.7626937280291302,0.1923219362706829,B,806.1877080035629,Correct,sub_016_day_07_data.csv,1,300,63.0,Training at home,,,,,,,,,,,,,
16,8,1596,B,66.91757115178763,52.09008375017791,3.3458785575893812,0.8182291221721799,B,969.7112499998184,Correct,sub_016_day_07_data.csv,1,300,63.0,Training at home,,,,,,,,,,,,,
16,8,1597,B,54.07809384038443,45.949866699932144,2.7039046920192216,0.7217788182896855,B,1085.4809579905125,Correct,sub_016_day_07_data.csv,1,300,63.0,Training at home,,,,,,,,,,,,,
16,8,1598,B,55.31508011537175,36.340736230728446,2.765754005768587,0.5708389498425046,B,1986.4525410084752,Correct,sub_016_day_07_data.csv,1,300,63.0,Training at home,,,,,,,,,,,,,
16,8,1599,B,31.057782362080346,14.788093208060268,1.5528891181040172,0.2322908249152163,B,1895.6190419994527,Correct,sub_016_day_07_data.csv,1,300,63.0,Training at home,,,,,,,,,,,,,
16,8,1600,B,83.85810792348569,63.84572253530551,4.192905396174285,1.0028862644002403,B,1751.8452079966664,Correct,sub_016_day_07_data.csv,1,300,64.0,Training at home,,,,,,,,,,,,,
16,8,1601,A,16.886193748385747,38.446262566425915,0.8443096874192874,0.6039124801833397,A,793.5941659961827,Correct,sub_016_day_07_data.csv,1,300,64.0,Training at home,,,,,,,,,,,,,
16,8,1602,B,71.35433643362211,57.57710413123961,3.5677168216811053,0.9044190367683842,B,1839.2310829949563,Correct,sub_016_day_07_data.csv,1,300,64.0,Training at home,,,,,,,,,,,,,
16,8,1603,B,58.289348821721184,51.14173911956207,2.914467441086059,0.8033325595491095,B,3725.3874169982737,Correct,sub_016_day_07_data.csv,1,300,64.0,Training at home,,,,,,,,,,,,,
16,8,1604,B,80.86912727536382,49.74547993188065,4.0434563637681915,0.7814001715164737,B,701.5477090026252,Correct,sub_016_day_07_data.csv,1,300,64.0,Training at home,,,,,,,,,,,,,
16,8,1605,A,14.958447381526248,40.81652443980688,0.7479223690763124,0.6411444666258278,A,953.8673749921144,Correct,sub_016_day_07_data.csv,1,300,64.0,Training at home,,,,,,,,,,,,,
16,8,1606,B,85.47066005318486,62.29088915612715,4.273533002659243,0.9784629987923258,B,1419.967415989959,Correct,sub_016_day_07_data.csv,1,300,64.0,Training at home,,,,,,,,,,,,,
16,8,1607,A,16.087637314557817,46.03657412493613,0.8043818657278908,0.7231408153367064,A,1635.8775829867227,Correct,sub_016_day_07_data.csv,1,300,64.0,Training at home,,,,,,,,,,,,,
16,8,1608,B,40.79114131140248,22.644084814708055,2.0395570655701243,0.3556924525057551,B,1169.9721250042785,Correct,sub_016_day_07_data.csv,1,300,64.0,Training at home,,,,,,,,,,,,,
16,8,1609,B,43.400102307842445,22.2331392405344,2.1700051153921223,0.3492373345215091,B,2724.714459007373,Correct,sub_016_day_07_data.csv,1,300,64.0,Training at home,,,,,,,,,,,,,
16,8,1610,B,78.752366358154,52.19753474369175,3.9376183179077,0.8199169584314,A,1834.0781670121944,Incorrect,sub_016_day_07_data.csv,0,300,64.0,Training at home,,,,,,,,,,,,,
16,8,1611,B,59.78529942939845,43.66881395369234,2.989264971469922,0.6859481255394966,A,3168.2473330001812,Incorrect,sub_016_day_07_data.csv,0,300,64.0,Training at home,,,,,,,,,,,,,
16,8,1612,B,46.11996968764763,19.675459073798713,2.3059984843823815,0.3090613884112633,B,730.5456250032876,Correct,sub_016_day_07_data.csv,1,300,64.0,Training at home,,,,,,,,,,,,,
16,8,1613,B,52.110654258626575,22.841375657690975,2.605532712931329,0.3587914898204335,B,2326.038499988499,Correct,sub_016_day_07_data.csv,1,300,64.0,Training at home,,,,,,,,,,,,,
16,8,1614,A,36.25845373676374,60.7672764917057,1.812922686838187,0.954530147025012,A,758.5568340000464,Correct,sub_016_day_07_data.csv,1,300,64.0,Training at home,,,,,,,,,,,,,
16,8,1615,A,39.2853353252915,50.461366672787946,1.964266766264575,0.7926452941466571,A,1703.215208006441,Correct,sub_016_day_07_data.csv,1,300,64.0,Training at home,,,,,,,,,,,,,
16,8,1616,A,17.39363420944494,38.69944935832811,0.869681710472247,0.6078895290104691,A,1476.0254160064503,Correct,sub_016_day_07_data.csv,1,300,64.0,Training at home,,,,,,,,,,,,,
16,8,1617,A,27.150429437572,43.325093226797335,1.3575214718786,0.6805489729869971,A,3092.4109580082586,Correct,sub_016_day_07_data.csv,1,300,64.0,Training at home,,,,,,,,,,,,,
16,8,1618,A,37.23695604803753,63.706584137996074,1.8618478024018763,1.0007006835661427,A,825.4725000006147,Correct,sub_016_day_07_data.csv,1,300,64.0,Training at home,,,,,,,,,,,,,
16,8,1619,B,75.85189119879819,58.45251593393833,3.792594559939909,0.9181699732095048,B,2413.377541000955,Correct,sub_016_day_07_data.csv,1,300,64.0,Training at home,,,,,,,,,,,,,
16,8,1620,A,33.45976231715407,62.94492122270254,1.6729881158577036,0.9887365104701528,A,907.2257499938132,Correct,sub_016_day_07_data.csv,1,300,64.0,Training at home,,,,,,,,,,,,,
16,8,1621,B,81.08538731867998,54.519520352797514,4.054269365933999,0.8563906230879393,B,2258.912000004784,Correct,sub_016_day_07_data.csv,1,300,64.0,Training at home,,,,,,,,,,,,,
16,8,1622,A,45.28356640014883,76.06752471396813,2.2641783200074412,1.1948658840908115,A,1723.3225000090897,Correct,sub_016_day_07_data.csv,1,300,64.0,Training at home,,,,,,,,,,,,,
16,8,1623,B,44.582553105447325,32.59834428638861,2.2291276552723662,0.5120535946465463,A,9551.470708000124,Incorrect,sub_016_day_07_data.csv,0,300,64.0,Training at home,,,,,,,,,,,,,
16,8,1624,A,36.96792552999096,49.202098420109806,1.8483962764995483,0.7728647546890947,B,701.5241250046529,Incorrect,sub_016_day_07_data.csv,0,300,64.0,Training at home,,,,,,,,,,,,,
16,8,1625,B,45.07521826063149,22.721919202528024,2.2537609130315746,0.3569150722106144,B,997.170417002053,Correct,sub_016_day_07_data.csv,1,300,65.0,Training at home,,,,,,,,,,,,,
16,8,1626,B,66.52150188985918,47.22427867633538,3.3260750944929587,0.7417972348032618,A,2103.4665829938604,Incorrect,sub_016_day_07_data.csv,0,300,65.0,Training at home,,,,,,,,,,,,,
16,8,1627,B,48.132991051308665,19.42197252948572,2.4066495525654332,0.3050796310842756,B,845.7329160009976,Correct,sub_016_day_07_data.csv,1,300,65.0,Training at home,,,,,,,,,,,,,
16,8,1628,A,25.97044022954059,36.53855318236741,1.2985220114770295,0.573946251252627,A,896.7934579995926,Correct,sub_016_day_07_data.csv,1,300,65.0,Training at home,,,,,,,,,,,,,
16,8,1629,A,49.990318815029525,81.17358841187922,2.4995159407514764,1.2750717451014066,A,644.7812080004951,Correct,sub_016_day_07_data.csv,1,300,65.0,Training at home,,,,,,,,,,,,,
16,8,1630,B,61.90871929353834,52.813045074202435,3.095435964676917,0.8295853720941049,A,1572.452416003216,Incorrect,sub_016_day_07_data.csv,0,300,65.0,Training at home,,,,,,,,,,,,,
16,8,1631,A,68.9241363959917,83.13513590451218,3.4462068197995848,1.3058836610640223,A,672.5701249961276,Correct,sub_016_day_07_data.csv,1,300,65.0,Training at home,,,,,,,,,,,,,
16,8,1632,A,56.07982208755354,69.83842004545903,2.803991104377677,1.097019336765661,A,670.2290420071222,Correct,sub_016_day_07_data.csv,1,300,65.0,Training at home,,,,,,,,,,,,,
16,8,1633,A,41.271966894625955,59.547219869961424,2.063598344731298,0.9353655424258348,A,602.3539580055512,Correct,sub_016_day_07_data.csv,1,300,65.0,Training at home,,,,,,,,,,,,,
16,8,1634,B,74.26832918598137,62.44114918595817,3.7134164592990686,0.9808232778215524,A,1583.0042919988043,Incorrect,sub_016_day_07_data.csv,0,300,65.0,Training at home,,,,,,,,,,,,,
16,8,1635,B,39.885557138012274,22.93300406846416,1.9942778569006137,0.3602307855311592,A,561.8432089977432,Incorrect,sub_016_day_07_data.csv,0,300,65.0,Training at home,,,,,,,,,,,,,
16,8,1636,A,42.97745971209773,71.05234616565735,2.1488729856048865,1.1160876436717404,A,1129.0229169972008,Correct,sub_016_day_07_data.csv,1,300,65.0,Training at home,,,,,,,,,,,,,
16,8,1637,A,30.95958164749087,52.991953521658715,1.5479790823745434,0.8323956594150741,A,2048.207791012828,Correct,sub_016_day_07_data.csv,1,300,65.0,Training at home,,,,,,,,,,,,,
16,8,1638,B,71.6224101761599,41.65332088111341,3.581120508807995,0.6542888343886211,B,1834.718582991627,Correct,sub_016_day_07_data.csv,1,300,65.0,Training at home,,,,,,,,,,,,,
16,8,1639,A,29.573780160357572,53.49889544656226,1.4786890080178785,0.840358684550442,A,1594.0080000000307,Correct,sub_016_day_07_data.csv,1,300,65.0,Training at home,,,,,,,,,,,,,
16,8,1640,A,26.078907544734445,41.163439275108274,1.3039453772367222,0.6465937921158486,A,756.8583749962272,Correct,sub_016_day_07_data.csv,1,300,65.0,Training at home,,,,,,,,,,,,,
16,8,1641,A,32.01780952213725,45.39885888242296,1.6008904761068623,0.7131236077318985,A,1808.1494999933057,Correct,sub_016_day_07_data.csv,1,300,65.0,Training at home,,,,,,,,,,,,,
16,8,1642,B,74.28638806701788,62.81493845682967,3.7143194033508937,0.9866947459583554,A,1406.868874997599,Incorrect,sub_016_day_07_data.csv,0,300,65.0,Training at home,,,,,,,,,,,,,
16,8,1643,B,81.08538808075681,54.4216223719067,4.054269404037841,0.8548528452001001,B,2913.7960840016603,Correct,sub_016_day_07_data.csv,1,300,65.0,Training at home,,,,,,,,,,,,,
16,8,1644,B,50.6802037486741,39.47257528234499,2.5340101874337053,0.6200337626264254,B,3325.3436670056544,Correct,sub_016_day_07_data.csv,1,300,65.0,Training at home,,,,,,,,,,,,,
16,8,1645,B,46.54083535326631,20.16561457498318,2.3270417676633155,0.3167607330194521,B,1079.7759999986738,Correct,sub_016_day_07_data.csv,1,300,65.0,Training at home,,,,,,,,,,,,,
16,8,1646,B,57.55884932389505,45.102921838051095,2.8779424661947526,0.7084750395092798,A,2153.4472500061383,Incorrect,sub_016_day_07_data.csv,0,300,65.0,Training at home,,,,,,,,,,,,,
16,8,1647,B,63.97315637346443,52.1208461841975,3.1986578186732215,0.8187123373557924,B,1500.662415986881,Correct,sub_016_day_07_data.csv,1,300,65.0,Training at home,,,,,,,,,,,,,
16,8,1648,B,53.7436587475412,40.7983836620967,2.68718293737706,0.6408595119559041,B,1039.4222920003813,Correct,sub_016_day_07_data.csv,1,300,65.0,Training at home,,,,,,,,,,,,,
16,8,1649,B,60.16173812189901,33.17070440720752,3.0080869060949507,0.5210442064004087,B,886.5898329968331,Correct,sub_016_day_07_data.csv,1,300,65.0,Training at home,,,,,,,,,,,,,
16,8,1650,A,56.59725462002676,69.7511441120637,2.829862731001338,1.0956484096097112,A,1008.1960830138996,Correct,sub_016_day_07_data.csv,1,300,66.0,Training at home,,,,,,,,,,,,,
16,8,1651,B,45.76258906674285,25.333140220393513,2.2881294533371426,0.3979320360437418,B,2845.82279100141,Correct,sub_016_day_07_data.csv,1,300,66.0,Training at home,,,,,,,,,,,,,
16,8,1652,A,52.1881326378698,82.24039024369607,2.60940663189349,1.2918290290897665,A,629.1347919905093,Correct,sub_016_day_07_data.csv,1,300,66.0,Training at home,,,,,,,,,,,,,
16,8,1653,B,64.38570220438342,46.21567909686873,3.219285110219171,0.7259541896569309,B,2276.7346250038827,Correct,sub_016_day_07_data.csv,1,300,66.0,Training at home,,,,,,,,,,,,,
16,8,1654,A,62.675475051651496,72.45045780734826,3.133773752582574,1.1380491299839128,A,1516.51858400146,Correct,sub_016_day_07_data.csv,1,300,66.0,Training at home,,,,,,,,,,,,,
16,8,1655,B,51.802709386282686,27.445981810203907,2.5901354693141343,0.4311204741274784,B,2336.080833003507,Correct,sub_016_day_07_data.csv,1,300,66.0,Training at home,,,,,,,,,,,,,
16,8,1656,B,75.35175758070042,55.62206915250974,3.7675878790350215,0.8737094191349403,A,552.7020000008633,Incorrect,sub_016_day_07_data.csv,0,300,66.0,Training at home,,,,,,,,,,,,,
16,8,1657,A,23.916810408887457,38.28905085335945,1.195840520444373,0.6014430043692002,A,664.1363750095479,Correct,sub_016_day_07_data.csv,1,300,66.0,Training at home,,,,,,,,,,,,,
16,8,1658,B,66.82716514335968,46.766963666575414,3.3413582571679843,0.7346137474280705,B,1787.7953330025775,Correct,sub_016_day_07_data.csv,1,300,66.0,Training at home,,,,,,,,,,,,,
16,8,1659,B,67.15932419109032,50.33241841628258,3.357966209554516,0.7906197796700047,B,717.1705000073416,Correct,sub_016_day_07_data.csv,1,300,66.0,Training at home,,,,,,,,,,,,,
16,8,1660,B,41.937965798021466,33.89643184417603,2.0968982899010733,0.5324439063228527,A,1871.2765839882195,Incorrect,sub_016_day_07_data.csv,0,300,66.0,Training at home,,,,,,,,,,,,,
16,8,1661,A,66.91344269561841,88.11730115749313,3.3456721347809206,1.3841433298526988,A,616.9500410032924,Correct,sub_016_day_07_data.csv,1,300,66.0,Training at home,,,,,,,,,,,,,
16,8,1662,B,64.96337336160323,37.33666860231397,3.248168668080161,0.5864830189527314,B,2582.0345829997677,Correct,sub_016_day_07_data.csv,1,300,66.0,Training at home,,,,,,,,,,,,,
16,8,1663,A,37.64489940139343,62.24376473692537,1.8822449700696715,0.9777227701464808,A,1287.8132089972496,Correct,sub_016_day_07_data.csv,1,300,66.0,Training at home,,,,,,,,,,,,,
16,8,1664,A,31.848364029380583,49.939650604359194,1.5924182014690291,0.7844501973074796,A,1750.3307919978397,Correct,sub_016_day_07_data.csv,1,300,66.0,Training at home,,,,,,,,,,,,,
16,8,1665,A,57.471836057427645,85.23915161396036,2.873591802871382,1.338933462543222,A,783.6997499980498,Correct,sub_016_day_07_data.csv,1,300,66.0,Training at home,,,,,,,,,,,,,
16,8,1666,B,47.47428047371719,27.521742341442575,2.373714023685859,0.4323105177693357,B,4951.017041996238,Correct,sub_016_day_07_data.csv,1,300,66.0,Training at home,,,,,,,,,,,,,
16,8,1667,B,42.88795738116133,27.779973417475787,2.1443978690580665,0.4363668020263083,B,1043.4818750072736,Correct,sub_016_day_07_data.csv,1,300,66.0,Training at home,,,,,,,,,,,,,
16,8,1668,B,46.08169583149831,33.79341534132096,2.3040847915749154,0.5308257268800126,B,477.092042012373,Correct,sub_016_day_07_data.csv,1,300,66.0,Training at home,,,,,,,,,,,,,
16,8,1669,B,76.31993780016714,64.6986753544469,3.8159968900083574,1.016284415952607,B,1388.5482500045327,Correct,sub_016_day_07_data.csv,1,300,66.0,Training at home,,,,,,,,,,,,,
16,8,1670,A,51.55686176437,70.68400065157365,2.5778430882185,1.1103016858665995,A,796.3355420070002,Correct,sub_016_day_07_data.csv,1,300,66.0,Training at home,,,,,,,,,,,,,
16,8,1671,A,14.12870469083861,35.04977426946739,0.7064352345419306,0.5505605667746966,A,844.2541249969508,Correct,sub_016_day_07_data.csv,1,300,66.0,Training at home,,,,,,,,,,,,,
16,8,1672,B,45.276976246238554,28.978874245569543,2.263848812311928,0.4551990921959186,B,1362.200625007972,Correct,sub_016_day_07_data.csv,1,300,66.0,Training at home,,,,,,,,,,,,,
16,8,1673,A,51.24037457666967,69.72874015649107,2.5620187288334835,1.0952964890985195,A,591.6797499958193,Correct,sub_016_day_07_data.csv,1,300,66.0,Training at home,,,,,,,,,,,,,
16,8,1674,A,65.55156347675037,87.459649572302,3.277578173837519,1.3738129629094082,A,791.9898749969434,Correct,sub_016_day_07_data.csv,1,300,66.0,Training at home,,,,,,,,,,,,,
16,8,1675,B,38.87513117742279,25.82753888621967,1.9437565588711392,0.4056980321262621,B,669.898624997586,Correct,sub_016_day_07_data.csv,1,300,67.0,Training at home,,,,,,,,,,,,,
16,8,1676,A,24.467533824979952,42.270505181490904,1.2233766912489976,0.6639835427085055,B,1687.4872079933994,Incorrect,sub_016_day_07_data.csv,0,300,67.0,Training at home,,,,,,,,,,,,,
16,8,1677,B,37.70886568483472,27.660410075136852,1.885443284241736,0.4344887054366551,B,796.3887079968117,Correct,sub_016_day_07_data.csv,1,300,67.0,Training at home,,,,,,,,,,,,,
16,8,1678,B,62.22227417451062,36.41471831746031,3.111113708725531,0.572001057743375,B,1670.9799169912003,Correct,sub_016_day_07_data.csv,1,300,67.0,Training at home,,,,,,,,,,,,,
16,8,1679,A,36.30504647738924,57.92207727315741,1.8152523238694616,0.9098378622100582,A,1186.175374998129,Correct,sub_016_day_07_data.csv,1,300,67.0,Training at home,,,,,,,,,,,,,
16,8,1680,A,56.560903121446145,71.89626762595438,2.828045156072307,1.1293439309711195,A,1915.058875005343,Correct,sub_016_day_07_data.csv,1,300,67.0,Training at home,,,,,,,,,,,,,
16,8,1681,B,53.35493971073354,23.148352297107692,2.667746985536677,0.3636134675965097,B,2254.3722089903895,Correct,sub_016_day_07_data.csv,1,300,67.0,Training at home,,,,,,,,,,,,,
16,8,1682,B,66.77835810508887,43.849803676492066,3.3389179052544433,0.6887911054571109,B,2347.5870420079445,Correct,sub_016_day_07_data.csv,1,300,67.0,Training at home,,,,,,,,,,,,,
16,8,1683,B,72.14908335229073,62.54153004927865,3.6074541676145366,0.9824000567353957,B,1648.95770799194,Correct,sub_016_day_07_data.csv,1,300,67.0,Training at home,,,,,,,,,,,,,
16,8,1684,A,43.20557352720095,54.34038693221394,2.160278676360047,0.8535768018973505,A,2329.8790420085425,Correct,sub_016_day_07_data.csv,1,300,67.0,Training at home,,,,,,,,,,,,,
16,8,1685,A,24.738549776229284,53.30631957286854,1.2369274888114643,0.837333709800168,A,3135.205667000264,Correct,sub_016_day_07_data.csv,1,300,67.0,Training at home,,,,,,,,,,,,,
16,8,1686,A,56.418732953488494,73.63135110938768,2.820936647674425,1.1565985585957148,A,3015.843708999455,Correct,sub_016_day_07_data.csv,1,300,67.0,Training at home,,,,,,,,,,,,,
16,8,1687,B,78.01338612563075,53.38527862116432,3.900669306281537,0.8385739956304702,B,793.8487500068732,Correct,sub_016_day_07_data.csv,1,300,67.0,Training at home,,,,,,,,,,,,,
16,8,1688,A,27.20253298656669,47.103663449043694,1.3601266493283344,0.7399026152434086,A,957.9550420021404,Correct,sub_016_day_07_data.csv,1,300,67.0,Training at home,,,,,,,,,,,,,
16,8,1689,A,28.364816993517373,47.69342710538461,1.4182408496758685,0.749166601093983,A,4354.265208996367,Correct,sub_016_day_07_data.csv,1,300,67.0,Training at home,,,,,,,,,,,,,
16,8,1690,A,20.406868617647977,51.30989709964956,1.0203434308823989,0.8059739789235365,A,4509.478209001827,Correct,sub_016_day_07_data.csv,1,300,67.0,Training at home,,,,,,,,,,,,,
16,8,1691,B,88.14463915952606,62.28271900252068,4.407231957976303,0.978334662319582,B,833.7287080066744,Correct,sub_016_day_07_data.csv,1,300,67.0,Training at home,,,,,,,,,,,,,
16,8,1692,A,17.673346435999825,37.68802653328965,0.8836673217999913,0.5920021364263998,A,1562.5182920048246,Correct,sub_016_day_07_data.csv,1,300,67.0,Training at home,,,,,,,,,,,,,
16,8,1693,A,27.09575461834028,46.23137158024343,1.3547877309170138,0.7262006866093637,A,1923.5454169975128,Correct,sub_016_day_07_data.csv,1,300,67.0,Training at home,,,,,,,,,,,,,
16,8,1694,B,38.06384368175301,20.34757634240325,1.903192184087651,0.3196189817782576,B,1449.3793750007171,Correct,sub_016_day_07_data.csv,1,300,67.0,Training at home,,,,,,,,,,,,,
16,8,1695,A,44.77537423564714,72.93787564797334,2.238768711782358,1.1457054715205948,A,1337.8887500002747,Correct,sub_016_day_07_data.csv,1,300,67.0,Training at home,,,,,,,,,,,,,
16,8,1696,B,46.00580931634181,34.66303526916272,2.30029046581709,0.5444856847636276,B,2722.5879579928005,Correct,sub_016_day_07_data.csv,1,300,67.0,Training at home,,,,,,,,,,,,,
16,8,1697,A,24.978924844806684,54.54401433372084,1.248946242240334,0.8567753736405689,A,1062.171000012313,Correct,sub_016_day_07_data.csv,1,300,67.0,Training at home,,,,,,,,,,,,,
16,8,1698,B,85.86489489644973,63.119232924751046,4.293244744822487,0.9914745922831044,B,745.4362499993294,Correct,sub_016_day_07_data.csv,1,300,67.0,Training at home,,,,,,,,,,,,,
16,8,1699,A,39.35714964590511,64.67934414524738,1.9678574822952557,1.015980762028576,A,1823.6531669972464,Correct,sub_016_day_07_data.csv,1,300,67.0,Training at home,,,,,,,,,,,,,
16,8,1700,A,53.57130924430152,70.15550298209384,2.678565462215076,1.102000063887214,A,1248.5805839969544,Correct,sub_016_day_07_data.csv,1,300,68.0,Training at home,,,,,,,,,,,,,
16,8,1701,A,54.453481775624,72.98152086877985,2.7226740887812,1.1463910490458449,A,1388.403292003204,Correct,sub_016_day_07_data.csv,1,300,68.0,Training at home,,,,,,,,,,,,,
16,8,1702,A,64.3979868681999,79.83365174547565,3.2198993434099945,1.254024069164161,A,1241.440167010296,Correct,sub_016_day_07_data.csv,1,300,68.0,Training at home,,,,,,,,,,,,,
16,8,1703,A,34.52358417523525,64.00892414479412,1.7261792087617625,1.0054498292873577,A,715.8040829963284,Correct,sub_016_day_07_data.csv,1,300,68.0,Training at home,,,,,,,,,,,,,
16,8,1704,A,61.2683046047508,74.14852666389092,3.06341523023754,1.164722333208933,A,1719.3027500034077,Correct,sub_016_day_07_data.csv,1,300,68.0,Training at home,,,,,,,,,,,,,
16,8,1705,A,32.68206356896302,60.37731659396238,1.634103178448151,0.9484046712752866,A,826.9220829970436,Correct,sub_016_day_07_data.csv,1,300,68.0,Training at home,,,,,,,,,,,,,
16,8,1706,A,37.28993014433207,67.57889321227545,1.864496507216603,1.0615267722670685,B,14332.598542008782,Incorrect,sub_016_day_07_data.csv,0,300,68.0,Training at home,,,,,,,,,,,,,
16,8,1707,A,56.43785740595148,80.79701545182778,2.821892870297574,1.2691565508772156,A,1332.5929999991786,Correct,sub_016_day_07_data.csv,1,300,68.0,Training at home,,,,,,,,,,,,,
16,8,1708,B,46.963380991972656,23.623200199948553,2.3481690495986327,0.3710723610121965,B,1602.255499994499,Correct,sub_016_day_07_data.csv,1,300,68.0,Training at home,,,,,,,,,,,,,
16,8,1709,A,50.477152633634006,64.17556789386728,2.5238576316817003,1.0080674631766324,A,1008.4769159875576,Correct,sub_016_day_07_data.csv,1,300,68.0,Training at home,,,,,,,,,,,,,
16,8,1710,B,69.4582434475668,59.95109670486792,3.47291217237834,0.9417096249133216,B,823.9600420056377,Correct,sub_016_day_07_data.csv,1,300,68.0,Training at home,,,,,,,,,,,,,
16,8,1711,A,38.66447437147029,62.508811565014035,1.9332237185735144,0.981886115986384,A,858.7821250112029,Correct,sub_016_day_07_data.csv,1,300,68.0,Training at home,,,,,,,,,,,,,
16,8,1712,B,82.22603565387743,56.62996242040505,4.111301782693872,0.8895413695650528,B,733.6962919944199,Correct,sub_016_day_07_data.csv,1,300,68.0,Training at home,,,,,,,,,,,,,
16,8,1713,B,43.462702444575015,14.505791193017686,2.173135122228751,0.2278564352324594,A,960.0559579994296,Incorrect,sub_016_day_07_data.csv,0,300,68.0,Training at home,,,,,,,,,,,,,
16,8,1714,B,60.10990763274957,31.74681346855232,3.0054953816374788,0.4986777798384474,B,1118.124333006563,Correct,sub_016_day_07_data.csv,1,300,68.0,Training at home,,,,,,,,,,,,,
16,8,1715,A,65.25691519543315,85.28095728245633,3.262845759771658,1.339590144448349,A,778.0818750034086,Correct,sub_016_day_07_data.csv,1,300,68.0,Training at home,,,,,,,,,,,,,
16,8,1716,B,73.67443191700741,59.328122550819046,3.68372159585037,0.9319239697846404,B,1365.2987500099698,Correct,sub_016_day_07_data.csv,1,300,68.0,Training at home,,,,,,,,,,,,,
16,8,1717,A,19.03469963199408,35.603957472537076,0.951734981599704,0.5592656561722295,A,641.4522920094896,Correct,sub_016_day_07_data.csv,1,300,68.0,Training at home,,,,,,,,,,,,,
16,8,1718,A,10.945854090978507,33.0692913620131,0.5472927045489253,0.5194512140116037,A,1213.7030830053843,Correct,sub_016_day_07_data.csv,1,300,68.0,Training at home,,,,,,,,,,,,,
16,8,1719,B,69.0798400863403,47.58973017264931,3.453992004317015,0.7475377334835781,B,1532.8420410078252,Correct,sub_016_day_07_data.csv,1,300,68.0,Training at home,,,,,,,,,,,,,
16,8,1720,A,15.290252314711005,30.464257707938796,0.7645126157355503,0.4785314410616337,B,947.067542001605,Incorrect,sub_016_day_07_data.csv,0,300,68.0,Training at home,,,,,,,,,,,,,
16,8,1721,B,37.25887453933481,12.053806194713848,1.8629437269667408,0.1893407449455407,B,789.5181250059977,Correct,sub_016_day_07_data.csv,1,300,68.0,Training at home,,,,,,,,,,,,,
16,8,1722,A,64.46272597630866,77.67481159527136,3.223136298815433,1.220113087383379,A,977.3632500000532,Correct,sub_016_day_07_data.csv,1,300,68.0,Training at home,,,,,,,,,,,,,
16,8,1723,A,52.72349005136548,64.58695977319243,2.636174502568274,1.014529591705804,B,814.3835420050891,Incorrect,sub_016_day_07_data.csv,0,300,68.0,Training at home,,,,,,,,,,,,,
16,8,1724,B,45.6312247937797,35.834948090766716,2.281561239688985,0.5628940483186216,B,1820.090666995384,Correct,sub_016_day_07_data.csv,1,300,68.0,Training at home,,,,,,,,,,,,,
16,8,1725,B,70.80675562043892,52.57662842586554,3.5403377810219463,0.8258717480660973,B,879.1346660000272,Correct,sub_016_day_07_data.csv,1,300,69.0,Training at home,,,,,,,,,,,,,
16,8,1726,B,37.25958866998681,11.395377547784602,1.8629794334993408,0.1789981719450108,B,784.9227919941768,Correct,sub_016_day_07_data.csv,1,300,69.0,Training at home,,,,,,,,,,,,,
16,8,1727,A,19.17660829846223,50.19091970508029,0.9588304149231118,0.7883971231119772,A,687.5135410082294,Correct,sub_016_day_07_data.csv,1,300,69.0,Training at home,,,,,,,,,,,,,
16,8,1728,B,59.89268579259448,44.06646330955939,2.994634289629724,0.6921943870149797,A,2086.70416600944,Incorrect,sub_016_day_07_data.csv,0,300,69.0,Training at home,,,,,,,,,,,,,
16,8,1729,B,59.94440058724903,52.3932249083028,2.997220029362451,0.8229908523490091,B,652.3874160047853,Correct,sub_016_day_07_data.csv,1,300,69.0,Training at home,,,,,,,,,,,,,
16,8,1730,B,73.03207205038645,56.47766779175964,3.651603602519322,0.8871491311323848,B,1615.8603750081966,Correct,sub_016_day_07_data.csv,1,300,69.0,Training at home,,,,,,,,,,,,,
16,8,1731,A,59.69789890038596,87.32137827586111,2.984894945019298,1.371641002463903,A,2710.6142090051435,Correct,sub_016_day_07_data.csv,1,300,69.0,Training at home,,,,,,,,,,,,,
16,8,1732,A,65.24948854109103,81.04922763564545,3.262474427054551,1.273118290596353,A,2630.5364169966197,Correct,sub_016_day_07_data.csv,1,300,69.0,Training at home,,,,,,,,,,,,,
16,8,1733,A,38.1010317346925,66.43462328643798,1.905051586734625,1.0435526223033949,A,1094.5367079984862,Correct,sub_016_day_07_data.csv,1,300,69.0,Training at home,,,,,,,,,,,,,
16,8,1734,A,61.75217887611204,85.07326618664304,3.087608943805602,1.3363277403442335,A,583.0337920051534,Correct,sub_016_day_07_data.csv,1,300,69.0,Training at home,,,,,,,,,,,,,
16,8,1735,B,82.94542031137414,53.8640600645709,4.147271015568707,0.8460946769568766,B,1418.2813750085188,Correct,sub_016_day_07_data.csv,1,300,69.0,Training at home,,,,,,,,,,,,,
16,8,1736,B,77.69858330091249,48.96404444602559,3.884929165045625,0.7691254116083905,B,829.6883750008419,Correct,sub_016_day_07_data.csv,1,300,69.0,Training at home,,,,,,,,,,,,,
16,8,1737,B,83.85365477340835,54.77167407108587,4.192682738670418,0.8603514444326895,B,747.5585409993073,Correct,sub_016_day_07_data.csv,1,300,69.0,Training at home,,,,,,,,,,,,,
16,8,1738,B,51.76824387689736,37.06791842253108,2.588412193844868,0.5822615010004469,B,1659.1484579985265,Correct,sub_016_day_07_data.csv,1,300,69.0,Training at home,,,,,,,,,,,,,
16,8,1739,B,63.43319189764801,46.01738725048966,3.1716595948824007,0.7228394286176747,B,4142.781500006095,Correct,sub_016_day_07_data.csv,1,300,69.0,Training at home,,,,,,,,,,,,,
16,8,1740,B,32.917611695524556,12.382457667740525,1.645880584776228,0.1945031902118011,B,2471.686917007901,Correct,sub_016_day_07_data.csv,1,300,69.0,Training at home,,,,,,,,,,,,,
16,8,1741,B,69.89051418119892,60.12107649049477,3.494525709059946,0.944379661142242,A,987.3022079991642,Incorrect,sub_016_day_07_data.csv,0,300,69.0,Training at home,,,,,,,,,,,,,
16,8,1742,A,46.687586637609805,74.15708403119231,2.33437933188049,1.1648567520201738,A,1412.978207998094,Correct,sub_016_day_07_data.csv,1,300,69.0,Training at home,,,,,,,,,,,,,
16,8,1743,B,59.7270994069279,51.11306229014998,2.986354970346395,0.8028821049660634,A,4617.774750004173,Incorrect,sub_016_day_07_data.csv,0,300,69.0,Training at home,,,,,,,,,,,,,
16,8,1744,B,46.95530353964527,19.064678056598236,2.347765176982264,0.2994672626283177,B,699.6367090032436,Correct,sub_016_day_07_data.csv,1,300,69.0,Training at home,,,,,,,,,,,,,
16,8,1745,B,45.72431221128963,33.84997703735129,2.2862156105644815,0.5317141959236299,B,1396.3417079939973,Correct,sub_016_day_07_data.csv,1,300,69.0,Training at home,,,,,,,,,,,,,
16,8,1746,A,35.37479035321458,66.40534395254929,1.7687395176607288,1.043092703602161,A,925.0773339881562,Correct,sub_016_day_07_data.csv,1,300,69.0,Training at home,,,,,,,,,,,,,
16,8,1747,A,19.186864268995027,40.2430324803469,0.9593432134497512,0.6321360759921661,A,718.6134590010624,Correct,sub_016_day_07_data.csv,1,300,69.0,Training at home,,,,,,,,,,,,,
16,8,1748,A,22.941737387451813,49.33566201577568,1.1470868693725906,0.7749627667437494,A,671.9745000009425,Correct,sub_016_day_07_data.csv,1,300,69.0,Training at home,,,,,,,,,,,,,
16,8,1749,B,69.06303339676734,41.677198942873744,3.453151669838366,0.6546639101056623,B,1410.185625005397,Correct,sub_016_day_07_data.csv,1,300,69.0,Training at home,,,,,,,,,,,,,
16,8,1750,B,42.32463793151301,16.919810572028208,2.11623189657565,0.2657757629660736,A,1442.920415996923,Incorrect,sub_016_day_07_data.csv,0,300,70.0,Training at home,,,,,,,,,,,,,
16,8,1751,B,33.17847621280338,12.3425845801148,1.6589238106401691,0.1938768652159966,B,793.6520419898443,Correct,sub_016_day_07_data.csv,1,300,70.0,Training at home,,,,,,,,,,,,,
16,8,1752,B,86.12388938209958,62.586177387120344,4.306194469104979,0.9831013754782244,B,590.0553340034094,Correct,sub_016_day_07_data.csv,1,300,70.0,Training at home,,,,,,,,,,,,,
16,8,1753,A,63.62321535634826,83.66912858851718,3.181160767817413,1.3142715985297266,A,760.4595839948161,Correct,sub_016_day_07_data.csv,1,300,70.0,Training at home,,,,,,,,,,,,,
16,8,1754,B,83.19613517041248,68.94890684438698,4.159806758520624,1.0830468960768658,B,788.6815420060884,Correct,sub_016_day_07_data.csv,1,300,70.0,Training at home,,,,,,,,,,,,,
16,8,1755,B,67.90248147245664,46.57557750893304,3.3951240736228323,0.7316074606938301,B,618.0735829984769,Correct,sub_016_day_07_data.csv,1,300,70.0,Training at home,,,,,,,,,,,,,
16,8,1756,B,72.00154893089172,42.58198374394022,3.600077446544586,0.668876236526213,B,984.3426250008632,Correct,sub_016_day_07_data.csv,1,300,70.0,Training at home,,,,,,,,,,,,,
16,8,1757,B,57.67964011556878,39.919260022086256,2.883982005778439,0.6270502701106346,A,2884.862916005659,Incorrect,sub_016_day_07_data.csv,0,300,70.0,Training at home,,,,,,,,,,,,,
16,8,1758,B,61.62599547346018,30.50149077182541,3.0812997736730092,0.4791162966615179,B,1561.447500003851,Correct,sub_016_day_07_data.csv,1,300,70.0,Training at home,,,,,,,,,,,,,
16,8,1759,A,47.470496822560776,61.97660152920617,2.373524841128039,0.9735261802930802,B,760.928874995443,Incorrect,sub_016_day_07_data.csv,0,300,70.0,Training at home,,,,,,,,,,,,,
16,8,1760,B,71.54574354725858,60.043033489368234,3.577287177362929,0.9431537645472258,B,925.2987090003444,Correct,sub_016_day_07_data.csv,1,300,70.0,Training at home,,,,,,,,,,,,,
16,8,1761,A,31.83859866912502,48.01604416439318,1.591929933456251,0.7542342580065033,A,531.2284999963595,Correct,sub_016_day_07_data.csv,1,300,70.0,Training at home,,,,,,,,,,,,,
16,8,1762,B,47.84249674780001,23.66489228028443,2.3921248373900004,0.3717272586786768,B,741.7999580065953,Correct,sub_016_day_07_data.csv,1,300,70.0,Training at home,,,,,,,,,,,,,
16,8,1763,A,54.70859100462816,70.76822381939967,2.735429550231408,1.111624660293121,A,701.9260829983978,Correct,sub_016_day_07_data.csv,1,300,70.0,Training at home,,,,,,,,,,,,,
16,8,1764,A,25.23751743504464,39.72077661408644,1.261875871752232,0.6239325000284761,A,583.8297500013141,Correct,sub_016_day_07_data.csv,1,300,70.0,Training at home,,,,,,,,,,,,,
16,8,1765,B,44.792956323359064,33.4932924465293,2.2396478161679534,0.5261114074727549,A,1779.3822499952512,Incorrect,sub_016_day_07_data.csv,0,300,70.0,Training at home,,,,,,,,,,,,,
16,8,1766,B,76.39083949184295,52.16056096364933,3.819541974592147,0.8193361756526163,B,1032.049208995886,Correct,sub_016_day_07_data.csv,1,300,70.0,Training at home,,,,,,,,,,,,,
16,8,1767,A,28.320561656067483,53.03976147581979,1.416028082803374,0.8331466250029518,A,1345.051833006437,Correct,sub_016_day_07_data.csv,1,300,70.0,Training at home,,,,,,,,,,,,,
16,8,1768,B,68.87390206419259,53.95479807513918,3.4436951032096292,0.8475199862938897,B,1287.6344579999568,Correct,sub_016_day_07_data.csv,1,300,70.0,Training at home,,,,,,,,,,,,,
16,8,1769,B,73.66231722494075,55.2537192147362,3.6831158612470376,0.8679233918426422,B,1254.7494589962298,Correct,sub_016_day_07_data.csv,1,300,70.0,Training at home,,,,,,,,,,,,,
16,8,1770,A,41.659322280150526,68.67233723987471,2.0829661140075264,1.0787025508881558,A,1072.0610419957666,Correct,sub_016_day_07_data.csv,1,300,70.0,Training at home,,,,,,,,,,,,,
16,8,1771,A,55.481564125694646,72.41523711628412,2.7740782062847327,1.1374958846624057,B,1265.2812079904834,Incorrect,sub_016_day_07_data.csv,0,300,70.0,Training at home,,,,,,,,,,,,,
16,8,1772,B,72.80874534859642,45.55501554025503,3.640437267429821,0.7155765107771703,B,807.9899169970304,Correct,sub_016_day_07_data.csv,1,300,70.0,Training at home,,,,,,,,,,,,,
16,8,1773,A,43.61798238733383,56.25165135924954,2.1808991193666913,0.8835988733125634,A,1219.25383299822,Correct,sub_016_day_07_data.csv,1,300,70.0,Training at home,,,,,,,,,,,,,
16,8,1774,A,57.44925402903008,66.1494884315957,2.872462701451504,1.03907373447712,A,1897.383625007933,Correct,sub_016_day_07_data.csv,1,300,70.0,Training at home,,,,,,,,,,,,,
16,8,1775,B,67.63516590432052,57.40987998566706,3.3817582952160254,0.9017922860322168,B,1995.858333990327,Correct,sub_016_day_07_data.csv,1,300,71.0,Training at home,,,,,,,,,,,,,
16,8,1776,B,53.48301240215308,30.346369388374313,2.6741506201076537,0.4766796556681946,B,866.3244579947786,Correct,sub_016_day_07_data.csv,1,300,71.0,Training at home,,,,,,,,,,,,,
16,8,1777,B,70.86026118526448,61.25739642246159,3.5430130592632234,0.9622289328942149,B,894.375542004127,Correct,sub_016_day_07_data.csv,1,300,71.0,Training at home,,,,,,,,,,,,,
16,8,1778,B,47.20096618502015,39.77760721758109,2.3600483092510074,0.6248251930606655,A,7306.77083300543,Incorrect,sub_016_day_07_data.csv,0,300,71.0,Training at home,,,,,,,,,,,,,
16,8,1779,A,41.77409385740039,61.15776282716093,2.088704692870019,0.9606638920389784,A,731.9985420035664,Correct,sub_016_day_07_data.csv,1,300,71.0,Training at home,,,,,,,,,,,,,
16,8,1780,A,34.87738829106043,65.70054436413506,1.7438694145530211,1.032021737556085,A,586.7275829950813,Correct,sub_016_day_07_data.csv,1,300,71.0,Training at home,,,,,,,,,,,,,
16,8,1781,A,37.126787367792744,50.34459623689673,1.8563393683896376,0.7908110684288954,A,726.1126249941299,Correct,sub_016_day_07_data.csv,1,300,71.0,Training at home,,,,,,,,,,,,,
16,8,1782,A,59.05024793219643,83.11855601576292,2.9525123966098215,1.3056232247805624,A,674.8740000039106,Correct,sub_016_day_07_data.csv,1,300,71.0,Training at home,,,,,,,,,,,,,
16,8,1783,B,63.783696813978935,36.96009718730068,3.189184840698947,0.580567848997943,B,595.3551670099841,Correct,sub_016_day_07_data.csv,1,300,71.0,Training at home,,,,,,,,,,,,,
16,8,1784,A,53.40830918316223,79.89827179502835,2.6704154591581117,1.2550391185289085,A,670.9219589974964,Correct,sub_016_day_07_data.csv,1,300,71.0,Training at home,,,,,,,,,,,,,
16,8,1785,A,67.41826574809238,86.14132567824943,3.370913287404619,1.353104779606371,A,614.2026250017807,Correct,sub_016_day_07_data.csv,1,300,71.0,Training at home,,,,,,,,,,,,,
16,8,1786,B,63.742461519302054,47.16489120817612,3.187123075965103,0.7408643786348397,B,754.2896249942714,Correct,sub_016_day_07_data.csv,1,300,71.0,Training at home,,,,,,,,,,,,,
16,8,1787,B,40.504280276649766,18.952405294053605,2.025214013832488,0.2977036861982756,B,649.0473750018282,Correct,sub_016_day_07_data.csv,1,300,71.0,Training at home,,,,,,,,,,,,,
16,8,1788,B,64.26751320644377,54.01602483425485,3.213375660322188,0.8484817339770944,B,1920.8478329965144,Correct,sub_016_day_07_data.csv,1,300,71.0,Training at home,,,,,,,,,,,,,
16,8,1789,A,21.10178767264538,34.7005980375006,1.0550893836322688,0.5450757193489214,A,516.0882500058506,Correct,sub_016_day_07_data.csv,1,300,71.0,Training at home,,,,,,,,,,,,,
16,8,1790,A,57.26010689073284,82.86258326928456,2.863005344536642,1.3016024142812843,A,556.8290410010377,Correct,sub_016_day_07_data.csv,1,300,71.0,Training at home,,,,,,,,,,,,,
16,8,1791,A,47.01931453308176,63.42017054110879,2.350965726654088,0.9962017093067956,A,539.2360410041874,Correct,sub_016_day_07_data.csv,1,300,71.0,Training at home,,,,,,,,,,,,,
16,8,1792,A,69.18578468629448,86.00476618575591,3.459289234314724,1.3509597081143931,A,645.5649169947719,Correct,sub_016_day_07_data.csv,1,300,71.0,Training at home,,,,,,,,,,,,,
16,8,1793,B,66.16350264306166,33.73952554812597,3.308175132153083,0.5299792279879885,B,614.5316670008469,Correct,sub_016_day_07_data.csv,1,300,71.0,Training at home,,,,,,,,,,,,,
16,8,1794,B,46.57600362905798,35.54105489876725,2.328800181452899,0.5582775848539936,B,812.9930419963785,Correct,sub_016_day_07_data.csv,1,300,71.0,Training at home,,,,,,,,,,,,,
16,8,1795,B,80.43063799064127,63.3678282826128,4.0215318995320635,0.9953795190329792,B,889.585500000976,Correct,sub_016_day_07_data.csv,1,300,71.0,Training at home,,,,,,,,,,,,,
16,8,1796,B,53.99839363117314,46.690011028153464,2.6999196815586566,0.7334049782103669,B,580.0766250031302,Correct,sub_016_day_07_data.csv,1,300,71.0,Training at home,,,,,,,,,,,,,
16,8,1797,A,39.18228575195938,64.57930516260892,1.9591142875979688,1.0144093533639278,A,1830.8435000071768,Correct,sub_016_day_07_data.csv,1,300,71.0,Training at home,,,,,,,,,,,,,
16,8,1798,B,67.68006962066686,52.54402799096535,3.384003481033343,0.8253596616321659,B,595.1712910027709,Correct,sub_016_day_07_data.csv,1,300,71.0,Training at home,,,,,,,,,,,,,
16,8,1799,B,55.872591163294665,38.27566496662844,2.7936295581647332,0.6012327393521207,B,876.1803750094259,Correct,sub_016_day_07_data.csv,1,300,71.0,Training at home,,,,,,,,,,,,,
