subject,day,trial,cat,x,y,xt,yt,resp,rt,fb,f_name,acc,n_trials,block,session_type,ns_left_digit,ns_right_digit,ns_left_size,ns_right_size,ns_congruent,ns_cue,ns_correct_side,ns_resp,ns_rt,ns_fb,acc_stroop,acc_stroop_mean,resp_key
16,14,3000,B,31.13089968316798,16.113659208195457,1.556544984158399,0.2531127669545819,B,1486.6058329935186,Correct,sub_016_day_12_data.csv,1,300,120.0,Training at home,,,,,,,,,,,,,
16,14,3001,B,47.36925565097654,33.35596987857705,2.3684627825488267,0.5239543496195004,B,2264.7914160043,Correct,sub_016_day_12_data.csv,1,300,120.0,Training at home,,,,,,,,,,,,,
16,14,3002,A,28.73416542302936,46.70380036383982,1.436708271151468,0.7336215805888173,A,4142.454373999499,Correct,sub_016_day_12_data.csv,1,300,120.0,Training at home,,,,,,,,,,,,,
16,14,3003,B,63.82777982270943,45.29569081124342,3.1913889911354714,0.7115030474593851,B,3330.459124990739,Correct,sub_016_day_12_data.csv,1,300,120.0,Training at home,,,,,,,,,,,,,
16,14,3004,A,34.21897436482275,44.09009704205033,1.7109487182411374,0.6925656248168319,A,822.0144989900291,Correct,sub_016_day_12_data.csv,1,300,120.0,Training at home,,,,,,,,,,,,,
16,14,3005,B,87.53867091321366,69.43362548757698,4.376933545660683,1.090660838719384,B,588.5458330158144,Correct,sub_016_day_12_data.csv,1,300,120.0,Training at home,,,,,,,,,,,,,
16,14,3006,B,45.25151911458411,18.90830252709044,2.2625759557292056,0.2970109215548032,B,696.3475000229664,Correct,sub_016_day_12_data.csv,1,300,120.0,Training at home,,,,,,,,,,,,,
16,14,3007,A,19.18600720227686,37.39503997216906,0.9593003601138428,0.5873999142863149,A,486.4854159823153,Correct,sub_016_day_12_data.csv,1,300,120.0,Training at home,,,,,,,,,,,,,
16,14,3008,B,87.48618316194256,60.87077787840124,4.3743091580971285,0.9561559430054072,B,636.059373995522,Correct,sub_016_day_12_data.csv,1,300,120.0,Training at home,,,,,,,,,,,,,
16,14,3009,B,38.80723224341664,20.22022806557448,1.9403616121708325,0.3176185997235947,B,751.8959990120493,Correct,sub_016_day_12_data.csv,1,300,120.0,Training at home,,,,,,,,,,,,,
16,14,3010,A,18.133205379408807,38.61376434076402,0.9066602689704404,0.6065435919019588,A,2085.0882069789805,Correct,sub_016_day_12_data.csv,1,300,120.0,Training at home,,,,,,,,,,,,,
16,14,3011,A,50.1664744874345,64.51197621372908,2.508323724371725,1.0133517527080538,A,775.4995829891413,Correct,sub_016_day_12_data.csv,1,300,120.0,Training at home,,,,,,,,,,,,,
16,14,3012,B,34.11641981347344,13.25426366393675,1.705820990673672,0.2081974867768291,B,584.272875013994,Correct,sub_016_day_12_data.csv,1,300,120.0,Training at home,,,,,,,,,,,,,
16,14,3013,A,41.32184102099937,58.26978200679096,2.066092051049969,0.915299595394066,A,391.0660820256453,Correct,sub_016_day_12_data.csv,1,300,120.0,Training at home,,,,,,,,,,,,,
16,14,3014,B,37.90351447488682,12.99404938450446,1.8951757237443412,0.2041100504337109,B,585.4533330129925,Correct,sub_016_day_12_data.csv,1,300,120.0,Training at home,,,,,,,,,,,,,
16,14,3015,A,30.50968408061525,60.17942011363843,1.5254842040307626,0.9452961206315018,A,681.1018739826977,Correct,sub_016_day_12_data.csv,1,300,120.0,Training at home,,,,,,,,,,,,,
16,14,3016,A,49.572842656227216,67.01270299404186,2.478642132811361,1.052633077116383,A,1057.347748981556,Correct,sub_016_day_12_data.csv,1,300,120.0,Training at home,,,,,,,,,,,,,
16,14,3017,A,51.48348322712766,76.40859922037872,2.574174161356383,1.2002234699091427,A,563.3569579804316,Correct,sub_016_day_12_data.csv,1,300,120.0,Training at home,,,,,,,,,,,,,
16,14,3018,B,34.82565644860658,22.746355460890435,1.7412828224303292,0.3572989160593773,B,593.2443740020972,Correct,sub_016_day_12_data.csv,1,300,120.0,Training at home,,,,,,,,,,,,,
16,14,3019,B,40.16530064111216,13.97113817513006,2.008265032055608,0.2194581252663825,B,673.549249971984,Correct,sub_016_day_12_data.csv,1,300,120.0,Training at home,,,,,,,,,,,,,
16,14,3020,A,35.25602748920365,67.87163076375647,1.7628013744601827,1.0661250829728817,A,563.8861240004189,Correct,sub_016_day_12_data.csv,1,300,120.0,Training at home,,,,,,,,,,,,,
16,14,3021,B,59.980120065292006,35.12911292261991,2.9990060032646007,0.5518068154241449,B,556.4452079997864,Correct,sub_016_day_12_data.csv,1,300,120.0,Training at home,,,,,,,,,,,,,
16,14,3022,B,53.519894776514946,21.994515080595225,2.6759947388257475,0.3454890349823394,B,4463.50166600314,Correct,sub_016_day_12_data.csv,1,300,120.0,Training at home,,,,,,,,,,,,,
16,14,3023,B,61.03199686525458,32.051208413872786,3.051599843262729,0.5034592044584906,B,2237.5369160145056,Correct,sub_016_day_12_data.csv,1,300,120.0,Training at home,,,,,,,,,,,,,
16,14,3024,A,40.53842312003573,53.14173688639362,2.0269211560017864,0.8347484510064797,A,970.5322069930844,Correct,sub_016_day_12_data.csv,1,300,120.0,Training at home,,,,,,,,,,,,,
16,14,3025,B,35.16473528206325,24.831304054294897,1.7582367641031624,0.3900492119801365,B,705.725166015327,Correct,sub_016_day_12_data.csv,1,300,121.0,Training at home,,,,,,,,,,,,,
16,14,3026,B,62.4172690775527,43.83871893162468,3.120863453877635,0.6886169866918995,A,471.5531659894623,Incorrect,sub_016_day_12_data.csv,0,300,121.0,Training at home,,,,,,,,,,,,,
16,14,3027,B,85.66783620929314,59.19216838047518,4.283391810464657,0.9297884066707544,B,566.3954989868216,Correct,sub_016_day_12_data.csv,1,300,121.0,Training at home,,,,,,,,,,,,,
16,14,3028,B,48.5011698634114,23.211655244890252,2.42505849317057,0.364607827975031,B,1183.9531239820644,Correct,sub_016_day_12_data.csv,1,300,121.0,Training at home,,,,,,,,,,,,,
16,14,3029,B,37.27351199271145,24.515069943921937,1.8636755996355725,0.3850818181903255,B,680.8687080047093,Correct,sub_016_day_12_data.csv,1,300,121.0,Training at home,,,,,,,,,,,,,
16,14,3030,A,26.563802670647405,42.93169971650906,1.3281901335323705,0.6743695621775394,A,599.5779990043957,Correct,sub_016_day_12_data.csv,1,300,121.0,Training at home,,,,,,,,,,,,,
16,14,3031,A,29.972954045285825,50.39457405286357,1.4986477022642912,0.791596118126315,A,640.1120410009753,Correct,sub_016_day_12_data.csv,1,300,121.0,Training at home,,,,,,,,,,,,,
16,14,3032,A,35.06781265314078,49.223795673282766,1.7533906326570388,0.7732055743449509,A,501.6411239921581,Correct,sub_016_day_12_data.csv,1,300,121.0,Training at home,,,,,,,,,,,,,
16,14,3033,B,62.87027270392638,31.604516491931648,3.143513635196319,0.4964425841565496,B,635.4485409974586,Correct,sub_016_day_12_data.csv,1,300,121.0,Training at home,,,,,,,,,,,,,
16,14,3034,B,82.67022556422084,67.17365858286024,4.133511278211042,1.0551613615933133,B,715.7883330073673,Correct,sub_016_day_12_data.csv,1,300,121.0,Training at home,,,,,,,,,,,,,
16,14,3035,B,59.3988092762332,34.21935169862571,2.96994046381166,0.5375163195350396,B,1229.7461660054978,Correct,sub_016_day_12_data.csv,1,300,121.0,Training at home,,,,,,,,,,,,,
16,14,3036,B,64.10889630162295,52.28680341341986,3.205444815081147,0.8213191874164678,B,771.4302079984918,Correct,sub_016_day_12_data.csv,1,300,121.0,Training at home,,,,,,,,,,,,,
16,14,3037,B,74.08518648695154,64.00882592064856,3.704259324347577,1.0054482863860872,B,2571.438333019614,Correct,sub_016_day_12_data.csv,1,300,121.0,Training at home,,,,,,,,,,,,,
16,14,3038,A,47.77600158879838,75.43076256248906,2.388800079439919,1.1848636476049583,A,537.8910829895176,Correct,sub_016_day_12_data.csv,1,300,121.0,Training at home,,,,,,,,,,,,,
16,14,3039,A,30.71397012992987,59.97092478146158,1.5356985064964934,0.9420210836121288,A,874.5144999993499,Correct,sub_016_day_12_data.csv,1,300,121.0,Training at home,,,,,,,,,,,,,
16,14,3040,B,82.50170882445133,65.94621862191599,4.125085441222566,1.0358807797731884,B,575.6014990038238,Correct,sub_016_day_12_data.csv,1,300,121.0,Training at home,,,,,,,,,,,,,
16,14,3041,B,57.99720135308158,39.83831953577658,2.8998600676540787,0.6257788599247921,B,881.2471659912262,Correct,sub_016_day_12_data.csv,1,300,121.0,Training at home,,,,,,,,,,,,,
16,14,3042,A,16.914672484118103,37.56291428090075,0.8457336242059051,0.5900368777615046,A,508.6325830197893,Correct,sub_016_day_12_data.csv,1,300,121.0,Training at home,,,,,,,,,,,,,
16,14,3043,A,11.582580898782544,36.746349898380814,0.5791290449391273,0.5772103144349661,A,573.7613320234232,Correct,sub_016_day_12_data.csv,1,300,121.0,Training at home,,,,,,,,,,,,,
16,14,3044,A,59.18772844902364,70.78654149375001,2.9593864224511823,1.1119123936489703,B,1225.8119159960188,Incorrect,sub_016_day_12_data.csv,0,300,121.0,Training at home,,,,,,,,,,,,,
16,14,3045,A,46.04914167838275,67.27355429712492,2.3024570839191374,1.0567305198036083,A,741.9682489999104,Correct,sub_016_day_12_data.csv,1,300,121.0,Training at home,,,,,,,,,,,,,
16,14,3046,A,33.028931929063496,57.16306220337832,1.6514465964531748,0.8979152813741487,A,587.7616239886265,Correct,sub_016_day_12_data.csv,1,300,121.0,Training at home,,,,,,,,,,,,,
16,14,3047,A,29.11772543575115,62.12039351932279,1.4558862717875576,0.9757848595920572,A,495.0448739982676,Correct,sub_016_day_12_data.csv,1,300,121.0,Training at home,,,,,,,,,,,,,
16,14,3048,B,65.49504361557744,34.490644195712534,3.274752180778872,0.5417777721141497,B,627.2779160062782,Correct,sub_016_day_12_data.csv,1,300,121.0,Training at home,,,,,,,,,,,,,
16,14,3049,B,53.094644409386774,33.867421359437444,2.654732220469339,0.5319882106941936,B,524.1557490080595,Correct,sub_016_day_12_data.csv,1,300,121.0,Training at home,,,,,,,,,,,,,
16,14,3050,A,24.929694669000355,45.212590848356214,1.2464847334500178,0.710197716294785,A,542.7317489811685,Correct,sub_016_day_12_data.csv,1,300,122.0,Training at home,,,,,,,,,,,,,
16,14,3051,B,46.91114407907429,23.084147116911264,2.3455572039537147,0.3626049349843721,B,623.1873740034644,Correct,sub_016_day_12_data.csv,1,300,122.0,Training at home,,,,,,,,,,,,,
16,14,3052,B,42.83495109387001,25.352001524671827,2.1417475546935005,0.3982283087185312,B,1758.01395799499,Correct,sub_016_day_12_data.csv,1,300,122.0,Training at home,,,,,,,,,,,,,
16,14,3053,B,68.60992579033694,36.31787026207417,3.430496289516847,0.5704797720467971,B,564.0312489995267,Correct,sub_016_day_12_data.csv,1,300,122.0,Training at home,,,,,,,,,,,,,
16,14,3054,B,56.84494664030708,28.089088044632337,2.842247332015354,0.4412223632352691,B,617.802708002273,Correct,sub_016_day_12_data.csv,1,300,122.0,Training at home,,,,,,,,,,,,,
16,14,3055,B,86.46899319027692,61.937491921526075,4.323449659513846,0.9729118480122176,B,1246.9000409764703,Correct,sub_016_day_12_data.csv,1,300,122.0,Training at home,,,,,,,,,,,,,
16,14,3056,A,52.46510730213376,61.370187330319496,2.6232553651066883,0.9640006483318058,A,584.8616249859333,Correct,sub_016_day_12_data.csv,1,300,122.0,Training at home,,,,,,,,,,,,,
16,14,3057,B,40.6607741577986,26.159845188881565,2.0330387078899297,0.4109178873221831,A,1034.757040994009,Incorrect,sub_016_day_12_data.csv,0,300,122.0,Training at home,,,,,,,,,,,,,
16,14,3058,B,58.556962573118696,28.88726631258761,2.927848128655935,0.4537601181495856,B,2449.317124002846,Correct,sub_016_day_12_data.csv,1,300,122.0,Training at home,,,,,,,,,,,,,
16,14,3059,B,55.36411688553438,47.752054318374675,2.7682058442767192,0.7500875152021332,A,774.0875000017695,Incorrect,sub_016_day_12_data.csv,0,300,122.0,Training at home,,,,,,,,,,,,,
16,14,3060,B,75.83333086481808,48.044525555235474,3.791666543240904,0.7546816426476742,B,754.0814160020091,Correct,sub_016_day_12_data.csv,1,300,122.0,Training at home,,,,,,,,,,,,,
16,14,3061,A,41.55888982650136,52.358057582653416,2.077944491325068,0.8224384452894767,A,10229.165874014145,Correct,sub_016_day_12_data.csv,1,300,122.0,Training at home,,,,,,,,,,,,,
16,14,3062,B,52.86200819104987,27.67005042891312,2.6431004095524937,0.4346401357596627,A,595.0997910113074,Incorrect,sub_016_day_12_data.csv,0,300,122.0,Training at home,,,,,,,,,,,,,
16,14,3063,A,42.97265794427478,57.56961440965867,2.148632897213739,0.904301388496904,A,1184.9521239928436,Correct,sub_016_day_12_data.csv,1,300,122.0,Training at home,,,,,,,,,,,,,
16,14,3064,B,40.59932165866577,21.698998091647912,2.0299660829332886,0.3408470649749001,B,687.591623980552,Correct,sub_016_day_12_data.csv,1,300,122.0,Training at home,,,,,,,,,,,,,
16,14,3065,B,83.73736239977407,68.13922855934175,4.186868119988703,1.0703284993165194,B,857.9133739985991,Correct,sub_016_day_12_data.csv,1,300,122.0,Training at home,,,,,,,,,,,,,
16,14,3066,A,32.034369374284346,53.05357550208055,1.6017184687142174,0.8333636152200382,A,512.4405410024337,Correct,sub_016_day_12_data.csv,1,300,122.0,Training at home,,,,,,,,,,,,,
16,14,3067,A,33.31163534768186,64.80190228685645,1.665581767384093,1.0179059008151592,A,4102.208374009933,Correct,sub_016_day_12_data.csv,1,300,122.0,Training at home,,,,,,,,,,,,,
16,14,3068,A,20.989811018211196,48.61693600227156,1.04949055091056,0.7636730449239072,A,11757.514998986151,Correct,sub_016_day_12_data.csv,1,300,122.0,Training at home,,,,,,,,,,,,,
16,14,3069,A,30.10684956145444,51.92356337182217,1.505342478072722,0.8156134261856031,A,3310.005124018062,Correct,sub_016_day_12_data.csv,1,300,122.0,Training at home,,,,,,,,,,,,,
16,14,3070,B,45.83740440239871,31.436391187362304,2.2918702201199355,0.4938016780479616,A,774.2982909840066,Incorrect,sub_016_day_12_data.csv,0,300,122.0,Training at home,,,,,,,,,,,,,
16,14,3071,A,28.58430634701264,55.68591826623165,1.429215317350632,0.8747123586679751,A,1700.222749990644,Correct,sub_016_day_12_data.csv,1,300,122.0,Training at home,,,,,,,,,,,,,
16,14,3072,A,36.43070249927865,59.85219599197755,1.8215351249639329,0.9401560961480656,A,3382.731582998531,Correct,sub_016_day_12_data.csv,1,300,122.0,Training at home,,,,,,,,,,,,,
16,14,3073,B,67.49296886435236,43.07477693255165,3.374648443217618,0.6766170138316168,B,1002.4174160207622,Correct,sub_016_day_12_data.csv,1,300,122.0,Training at home,,,,,,,,,,,,,
16,14,3074,A,49.858902945296215,81.19014756530872,2.4929451472648108,1.2753318556752251,A,564.9809159804136,Correct,sub_016_day_12_data.csv,1,300,122.0,Training at home,,,,,,,,,,,,,
16,14,3075,B,51.97179341600624,38.642761719279555,2.598589670800312,0.6069990816585477,B,943.7308330088854,Correct,sub_016_day_12_data.csv,1,300,123.0,Training at home,,,,,,,,,,,,,
16,14,3076,B,85.45815477386233,63.93588441581534,4.272907738693117,1.004302523907458,B,642.6224159949925,Correct,sub_016_day_12_data.csv,1,300,123.0,Training at home,,,,,,,,,,,,,
16,14,3077,B,56.06620394639916,42.32095284254254,2.803310197319958,0.6647759727152587,B,637.1036659984384,Correct,sub_016_day_12_data.csv,1,300,123.0,Training at home,,,,,,,,,,,,,
16,14,3078,A,61.494224717781606,87.31846205839449,3.0747112358890805,1.371595194627056,A,567.9572079970967,Correct,sub_016_day_12_data.csv,1,300,123.0,Training at home,,,,,,,,,,,,,
16,14,3079,A,63.55785625301806,83.1917035027371,3.1778928126509025,1.3067722228190957,A,1196.5985409915447,Correct,sub_016_day_12_data.csv,1,300,123.0,Training at home,,,,,,,,,,,,,
16,14,3080,B,41.2753146677348,25.82707219926703,2.06376573338674,0.4056907014247523,B,633.0390000075568,Correct,sub_016_day_12_data.csv,1,300,123.0,Training at home,,,,,,,,,,,,,
16,14,3081,B,80.25212018934971,56.9705867629979,4.012606009467486,0.8948918842266705,B,528.723456984153,Correct,sub_016_day_12_data.csv,1,300,123.0,Training at home,,,,,,,,,,,,,
16,14,3082,B,46.90847419735793,22.292471180021,2.3454237098678963,0.3501693184475808,B,625.0329570029862,Correct,sub_016_day_12_data.csv,1,300,123.0,Training at home,,,,,,,,,,,,,
16,14,3083,A,46.49220812723382,63.12233468449058,2.3246104063616913,0.9915233146111592,A,1202.0777909783646,Correct,sub_016_day_12_data.csv,1,300,123.0,Training at home,,,,,,,,,,,,,
16,14,3084,B,50.10696812483517,37.02546695908149,2.5053484062417586,0.5815946749719101,B,1469.018915988272,Correct,sub_016_day_12_data.csv,1,300,123.0,Training at home,,,,,,,,,,,,,
16,14,3085,B,49.17767084324856,20.375813066041687,2.458883542162428,0.3200625231959773,B,560.3840410185512,Correct,sub_016_day_12_data.csv,1,300,123.0,Training at home,,,,,,,,,,,,,
16,14,3086,A,21.533838609447113,52.22795958805701,1.0766919304723557,0.8203948707691225,A,555.6256239942741,Correct,sub_016_day_12_data.csv,1,300,123.0,Training at home,,,,,,,,,,,,,
16,14,3087,A,50.70009577751139,66.18625712569225,2.5350047888755696,1.0396512957733992,A,530.5669989902526,Correct,sub_016_day_12_data.csv,1,300,123.0,Training at home,,,,,,,,,,,,,
16,14,3088,B,77.53923415934582,60.36061643098176,3.876961707967291,0.9481423457286184,A,723.4295819944236,Incorrect,sub_016_day_12_data.csv,0,300,123.0,Training at home,,,,,,,,,,,,,
16,14,3089,B,42.889035780714835,30.35514703865688,2.1444517890357417,0.4768175346764121,B,1201.93820699933,Correct,sub_016_day_12_data.csv,1,300,123.0,Training at home,,,,,,,,,,,,,
16,14,3090,A,29.309194880828393,39.71169597243832,1.4654597440414197,0.6237898616430181,A,582.0510410121642,Correct,sub_016_day_12_data.csv,1,300,123.0,Training at home,,,,,,,,,,,,,
16,14,3091,A,33.33322867080888,41.90828960731924,1.6666614335404435,0.6582938737743379,A,548.0914159852546,Correct,sub_016_day_12_data.csv,1,300,123.0,Training at home,,,,,,,,,,,,,
16,14,3092,A,49.4958007599825,59.657857527143264,2.4747900379991252,0.9371034346808992,A,1251.6622490074951,Correct,sub_016_day_12_data.csv,1,300,123.0,Training at home,,,,,,,,,,,,,
16,14,3093,B,61.884666994287315,40.29999570325658,3.094233349714366,0.6330308522052555,B,556.9964989845175,Correct,sub_016_day_12_data.csv,1,300,123.0,Training at home,,,,,,,,,,,,,
16,14,3094,A,34.48090001194659,47.77309698369344,1.7240450005973291,0.7504180526160201,A,5433.858956996119,Correct,sub_016_day_12_data.csv,1,300,123.0,Training at home,,,,,,,,,,,,,
16,14,3095,A,58.37434973203195,71.35029437650843,2.9187174866015977,1.12076780322354,A,6013.711873994907,Correct,sub_016_day_12_data.csv,1,300,123.0,Training at home,,,,,,,,,,,,,
16,14,3096,A,66.01571593365149,81.88289646099847,3.300785796682575,1.2862135298826325,A,907.0446660043672,Correct,sub_016_day_12_data.csv,1,300,123.0,Training at home,,,,,,,,,,,,,
16,14,3097,B,59.9010319207477,35.157914271662634,2.995051596037385,0.5522592259569754,B,1009.1051659837832,Correct,sub_016_day_12_data.csv,1,300,123.0,Training at home,,,,,,,,,,,,,
16,14,3098,B,78.67182469072515,48.67261808112041,3.933591234536258,0.7645476969731481,B,1178.706123988377,Correct,sub_016_day_12_data.csv,1,300,123.0,Training at home,,,,,,,,,,,,,
16,14,3099,A,33.85294447509129,63.116784855721384,1.692647223754565,0.991436138104709,A,508.363915985683,Correct,sub_016_day_12_data.csv,1,300,123.0,Training at home,,,,,,,,,,,,,
16,14,3100,A,16.834193834240978,33.60315522580141,0.8417096917120489,0.5278371279740758,A,642.2271659830585,Correct,sub_016_day_12_data.csv,1,300,124.0,Training at home,,,,,,,,,,,,,
16,14,3101,A,48.431091783520166,61.98228772188136,2.4215545891760084,0.9736154987987564,A,642.7204160136171,Correct,sub_016_day_12_data.csv,1,300,124.0,Training at home,,,,,,,,,,,,,
16,14,3102,B,48.35759483811,35.53314838058012,2.4178797419055003,0.5581533895567329,B,3575.029499013908,Correct,sub_016_day_12_data.csv,1,300,124.0,Training at home,,,,,,,,,,,,,
16,14,3103,A,38.218383573857274,54.77802526546626,1.9109191786928637,0.8604512087607245,A,6779.398625018075,Correct,sub_016_day_12_data.csv,1,300,124.0,Training at home,,,,,,,,,,,,,
16,14,3104,B,70.63693858842555,41.444442020852186,3.5318469294212775,0.6510077729241868,B,796.7235409887508,Correct,sub_016_day_12_data.csv,1,300,124.0,Training at home,,,,,,,,,,,,,
16,14,3105,A,21.310375024388836,43.77724519264848,1.0655187512194415,0.6876513594581178,A,516.3237069791649,Correct,sub_016_day_12_data.csv,1,300,124.0,Training at home,,,,,,,,,,,,,
16,14,3106,B,37.10086752600246,11.1970024982446,1.8550433763001228,0.175882103953559,B,787.570874002995,Correct,sub_016_day_12_data.csv,1,300,124.0,Training at home,,,,,,,,,,,,,
16,14,3107,A,23.507625248670927,47.85494907448189,1.1753812624335465,0.7517037822515298,A,874.52262500301,Correct,sub_016_day_12_data.csv,1,300,124.0,Training at home,,,,,,,,,,,,,
16,14,3108,A,33.074018304993906,53.513685476645975,1.653700915249695,0.8405910057997291,A,621.4251659985166,Correct,sub_016_day_12_data.csv,1,300,124.0,Training at home,,,,,,,,,,,,,
16,14,3109,B,57.86989409651187,28.87383427692724,2.8934947048255935,0.4535491282268188,B,3799.303708015941,Correct,sub_016_day_12_data.csv,1,300,124.0,Training at home,,,,,,,,,,,,,
16,14,3110,B,60.74305773126469,33.234029282315504,3.0371528865632347,0.5220389112125522,A,494.17850002646446,Incorrect,sub_016_day_12_data.csv,0,300,124.0,Training at home,,,,,,,,,,,,,
16,14,3111,B,70.5477086150271,58.455164770566384,3.5273854307513552,0.9182115810379612,B,1020.2814160147682,Correct,sub_016_day_12_data.csv,1,300,124.0,Training at home,,,,,,,,,,,,,
16,14,3112,A,15.364431032435457,35.747787758436445,0.7682215516217726,0.5615249370199553,A,1032.3937910143286,Correct,sub_016_day_12_data.csv,1,300,124.0,Training at home,,,,,,,,,,,,,
16,14,3113,B,77.04699418926545,50.50037988594726,3.852349709463272,0.7932581122659285,B,762.8287069965154,Correct,sub_016_day_12_data.csv,1,300,124.0,Training at home,,,,,,,,,,,,,
16,14,3114,B,47.63181888124028,30.800730040255356,2.381590944062014,0.4838167360983434,B,562.7559989807196,Correct,sub_016_day_12_data.csv,1,300,124.0,Training at home,,,,,,,,,,,,,
16,14,3115,A,25.372843415417655,44.24112764030103,1.2686421707708828,0.6949380079064903,A,585.421291005332,Correct,sub_016_day_12_data.csv,1,300,124.0,Training at home,,,,,,,,,,,,,
16,14,3116,B,72.05203211594234,53.59622426078656,3.602601605797117,0.8418875219891904,B,682.9450409859419,Correct,sub_016_day_12_data.csv,1,300,124.0,Training at home,,,,,,,,,,,,,
16,14,3117,A,60.847988165767475,71.70258584131699,3.0423994082883734,1.1263015846123647,A,1861.2884580215905,Correct,sub_016_day_12_data.csv,1,300,124.0,Training at home,,,,,,,,,,,,,
16,14,3118,A,65.46442557149884,86.6099381306203,3.273221278574942,1.360465726795116,A,445.28895799885504,Correct,sub_016_day_12_data.csv,1,300,124.0,Training at home,,,,,,,,,,,,,
16,14,3119,B,38.21359081771993,16.32492913036418,1.910679540885997,0.2564313871316305,A,608.0779159965459,Incorrect,sub_016_day_12_data.csv,0,300,124.0,Training at home,,,,,,,,,,,,,
16,14,3120,A,24.134592232051887,55.10974391595209,1.2067296116025945,0.8656618331378493,A,1189.19529102277,Correct,sub_016_day_12_data.csv,1,300,124.0,Training at home,,,,,,,,,,,,,
16,14,3121,B,73.46748965783458,52.19596349488809,3.6733744828917287,0.8198922773129073,B,683.5339579847641,Correct,sub_016_day_12_data.csv,1,300,124.0,Training at home,,,,,,,,,,,,,
16,14,3122,B,71.49536445782985,61.40714802823608,3.5747682228914925,0.9645812256170372,A,584.6211660245899,Incorrect,sub_016_day_12_data.csv,0,300,124.0,Training at home,,,,,,,,,,,,,
16,14,3123,A,50.75845926041507,59.66446314572973,2.537922963020754,0.9372071954950174,A,617.7164159889799,Correct,sub_016_day_12_data.csv,1,300,124.0,Training at home,,,,,,,,,,,,,
16,14,3124,A,31.008063371214327,62.00110617222604,1.5504031685607162,0.9739110983255306,A,850.6988750013988,Correct,sub_016_day_12_data.csv,1,300,124.0,Training at home,,,,,,,,,,,,,
16,14,3125,A,57.01678524106343,82.6339787970507,2.8508392620531713,1.298011503628546,A,589.4639159960207,Correct,sub_016_day_12_data.csv,1,300,125.0,Training at home,,,,,,,,,,,,,
16,14,3126,B,87.08798350189471,60.62176036268673,4.354399175094736,0.9522443850154876,B,671.1019989743363,Correct,sub_016_day_12_data.csv,1,300,125.0,Training at home,,,,,,,,,,,,,
16,14,3127,B,83.05393140110783,57.3146382874654,4.152696570055392,0.9002962329352878,A,677.558625000529,Incorrect,sub_016_day_12_data.csv,0,300,125.0,Training at home,,,,,,,,,,,,,
16,14,3128,A,53.60456212154568,62.83884436816282,2.680228106077284,0.9870702591354632,A,572.1447910182178,Correct,sub_016_day_12_data.csv,1,300,125.0,Training at home,,,,,,,,,,,,,
16,14,3129,A,61.4335991686408,85.29344867028414,3.07167995843204,1.3397863587095138,A,594.0433329960797,Correct,sub_016_day_12_data.csv,1,300,125.0,Training at home,,,,,,,,,,,,,
16,14,3130,A,50.19867221155078,78.0779780284914,2.509933610577539,1.2264460109072697,A,1643.915624008514,Correct,sub_016_day_12_data.csv,1,300,125.0,Training at home,,,,,,,,,,,,,
16,14,3131,A,39.21617737463882,69.44040822473627,1.960808868731941,1.0907673817055388,A,547.9748740035575,Correct,sub_016_day_12_data.csv,1,300,125.0,Training at home,,,,,,,,,,,,,
16,14,3132,A,39.24647844285952,71.48042823272843,1.962323922142976,1.1228119410569604,A,6306.581916025607,Correct,sub_016_day_12_data.csv,1,300,125.0,Training at home,,,,,,,,,,,,,
16,14,3133,A,22.35718354908605,38.45072171324488,1.1178591774543023,0.6039825242977783,A,3184.9012080056127,Correct,sub_016_day_12_data.csv,1,300,125.0,Training at home,,,,,,,,,,,,,
16,14,3134,A,46.438619727023166,66.44499398361899,2.321930986351158,1.0437155248337768,A,740.9607909794431,Correct,sub_016_day_12_data.csv,1,300,125.0,Training at home,,,,,,,,,,,,,
16,14,3135,A,19.10930337279847,32.356441183082076,0.9554651686399234,0.5082537895854043,A,853.0253740027547,Correct,sub_016_day_12_data.csv,1,300,125.0,Training at home,,,,,,,,,,,,,
16,14,3136,B,85.64429194833409,63.46635465675293,4.282214597416704,0.9969271676988968,A,602.3340829997323,Incorrect,sub_016_day_12_data.csv,0,300,125.0,Training at home,,,,,,,,,,,,,
16,14,3137,A,45.602156393873734,61.81254281395341,2.280107819693687,0.9709491520201028,A,566.5375409880653,Correct,sub_016_day_12_data.csv,1,300,125.0,Training at home,,,,,,,,,,,,,
16,14,3138,B,81.81494280588896,57.37607414979745,4.090747140294448,0.9012612652041344,B,499.1729989997111,Correct,sub_016_day_12_data.csv,1,300,125.0,Training at home,,,,,,,,,,,,,
16,14,3139,A,45.52135429986576,62.54518198599049,2.2760677149932884,0.982457421223122,A,523.6799989943393,Correct,sub_016_day_12_data.csv,1,300,125.0,Training at home,,,,,,,,,,,,,
16,14,3140,A,33.68922620949651,64.43447567687657,1.6844613104748254,1.0121343771219282,A,727.5935409998056,Correct,sub_016_day_12_data.csv,1,300,125.0,Training at home,,,,,,,,,,,,,
16,14,3141,A,25.494996428775213,45.98603115288798,1.2747498214387607,0.7223468881883213,A,551.8849159998354,Correct,sub_016_day_12_data.csv,1,300,125.0,Training at home,,,,,,,,,,,,,
16,14,3142,A,65.69681186308262,83.83672600636869,3.284840593154131,1.3169042126131412,B,595.3032910183538,Incorrect,sub_016_day_12_data.csv,0,300,125.0,Training at home,,,,,,,,,,,,,
16,14,3143,B,76.1809136045333,55.82114353105213,3.8090456802266655,0.8768364721606738,B,1456.773540994618,Correct,sub_016_day_12_data.csv,1,300,125.0,Training at home,,,,,,,,,,,,,
16,14,3144,A,61.24287695144196,73.99384260536674,3.062143847572098,1.162292561699498,B,1698.5673739982303,Incorrect,sub_016_day_12_data.csv,0,300,125.0,Training at home,,,,,,,,,,,,,
16,14,3145,B,62.03217449469942,53.58195256580363,3.101608724734971,0.8416633427286273,B,866.1687489948235,Correct,sub_016_day_12_data.csv,1,300,125.0,Training at home,,,,,,,,,,,,,
16,14,3146,A,46.570706072288885,77.41773072277579,2.3285353036144443,1.2160748704813262,A,495.2711240039207,Correct,sub_016_day_12_data.csv,1,300,125.0,Training at home,,,,,,,,,,,,,
16,14,3147,B,47.99300429926251,21.2752346238599,2.399650214963126,0.3341906039885873,B,2796.2566660135053,Correct,sub_016_day_12_data.csv,1,300,125.0,Training at home,,,,,,,,,,,,,
16,14,3148,A,19.989198536930083,49.56101156422964,0.999459926846504,0.7785025491733131,A,529.8846660007257,Correct,sub_016_day_12_data.csv,1,300,125.0,Training at home,,,,,,,,,,,,,
16,14,3149,B,79.8888209882102,54.71141969563202,3.99444104941051,0.8594049709163274,B,580.3545409871731,Correct,sub_016_day_12_data.csv,1,300,125.0,Training at home,,,,,,,,,,,,,
16,14,3150,A,21.414370118590444,48.485917710435345,1.070718505929522,0.7616150144083147,A,534.8029579909053,Correct,sub_016_day_12_data.csv,1,300,126.0,Training at home,,,,,,,,,,,,,
16,14,3151,A,54.10654697175728,66.57938099403292,2.705327348587864,1.0458264710570486,B,892.9488330031745,Incorrect,sub_016_day_12_data.csv,0,300,126.0,Training at home,,,,,,,,,,,,,
16,14,3152,B,56.60503219545786,27.313455973384094,2.830251609772893,0.4290387631506586,B,619.8899570154026,Correct,sub_016_day_12_data.csv,1,300,126.0,Training at home,,,,,,,,,,,,,
16,14,3153,A,34.986012946502164,60.98058427461219,1.7493006473251085,0.9578807778436746,A,1220.6429160141852,Correct,sub_016_day_12_data.csv,1,300,126.0,Training at home,,,,,,,,,,,,,
16,14,3154,A,57.8566307366075,85.76465653485918,2.892831536830375,1.347188074537827,A,2102.8308749955613,Correct,sub_016_day_12_data.csv,1,300,126.0,Training at home,,,,,,,,,,,,,
16,14,3155,A,26.984304304729378,49.87842770348533,1.3492152152364687,0.7834885102293957,A,3279.313123988686,Correct,sub_016_day_12_data.csv,1,300,126.0,Training at home,,,,,,,,,,,,,
16,14,3156,A,15.435920240953312,38.109229232225765,0.7717960120476656,0.5986183729496493,A,727.1055410092231,Correct,sub_016_day_12_data.csv,1,300,126.0,Training at home,,,,,,,,,,,,,
16,14,3157,B,57.65813664442776,38.59996705295286,2.882906832221388,0.6063268646118238,A,1093.7731660087593,Incorrect,sub_016_day_12_data.csv,0,300,126.0,Training at home,,,,,,,,,,,,,
16,14,3158,A,61.20348825778628,80.17926439807154,3.0601744128893142,1.259452940016076,A,629.1518739890307,Correct,sub_016_day_12_data.csv,1,300,126.0,Training at home,,,,,,,,,,,,,
16,14,3159,A,19.177575194911935,36.213460779554666,0.9588787597455968,0.5688397117305553,A,638.3385410008486,Correct,sub_016_day_12_data.csv,1,300,126.0,Training at home,,,,,,,,,,,,,
16,14,3160,B,60.44562283726065,31.660197250309047,3.0222811418630324,0.4973172154638733,B,454.7336660034489,Correct,sub_016_day_12_data.csv,1,300,126.0,Training at home,,,,,,,,,,,,,
16,14,3161,A,55.47253814158301,84.11260986780928,2.77362690707915,1.32123778617487,A,636.3899990101345,Correct,sub_016_day_12_data.csv,1,300,126.0,Training at home,,,,,,,,,,,,,
16,14,3162,B,73.31301544610724,58.35152053829918,3.6656507723053617,0.9165835412445732,B,1011.512873985339,Correct,sub_016_day_12_data.csv,1,300,126.0,Training at home,,,,,,,,,,,,,
16,14,3163,B,40.18234916904977,27.365261545710773,2.009117458452488,0.4298525231778412,B,1631.3660829910075,Correct,sub_016_day_12_data.csv,1,300,126.0,Training at home,,,,,,,,,,,,,
16,14,3164,A,41.06091201274517,62.05822048623797,2.0530456006372586,0.974808247872104,A,3105.5389160173945,Correct,sub_016_day_12_data.csv,1,300,126.0,Training at home,,,,,,,,,,,,,
16,14,3165,B,63.019703571172165,48.33221038788854,3.1509851785586083,0.7592005854317345,B,584.5272080041468,Correct,sub_016_day_12_data.csv,1,300,126.0,Training at home,,,,,,,,,,,,,
16,14,3166,A,27.727147020623804,59.968816564872725,1.3863573510311904,0.9419879678233904,A,584.7066239803098,Correct,sub_016_day_12_data.csv,1,300,126.0,Training at home,,,,,,,,,,,,,
16,14,3167,A,25.05058561638693,47.067584028195384,1.2525292808193464,0.7393358810259945,A,458.2887070137076,Correct,sub_016_day_12_data.csv,1,300,126.0,Training at home,,,,,,,,,,,,,
16,14,3168,A,60.41187562427743,79.15309555561579,3.0205937812138712,1.2433339175320677,A,557.2583739995025,Correct,sub_016_day_12_data.csv,1,300,126.0,Training at home,,,,,,,,,,,,,
16,14,3169,B,44.543847348842554,16.731153093060435,2.2271923674421275,0.2628123382162241,B,629.9062909965869,Correct,sub_016_day_12_data.csv,1,300,126.0,Training at home,,,,,,,,,,,,,
16,14,3170,B,67.75129412766083,48.61151851405104,3.387564706383041,0.7635879472179348,B,960.3549159946851,Correct,sub_016_day_12_data.csv,1,300,126.0,Training at home,,,,,,,,,,,,,
16,14,3171,A,41.22253901415136,49.693861937115585,2.061126950707568,0.7805893579507388,A,672.5933739799075,Correct,sub_016_day_12_data.csv,1,300,126.0,Training at home,,,,,,,,,,,,,
16,14,3172,A,22.464621937433712,50.21729423323297,1.1232310968716857,0.788811413231409,A,567.5479990022723,Correct,sub_016_day_12_data.csv,1,300,126.0,Training at home,,,,,,,,,,,,,
16,14,3173,B,46.22121198591572,29.226978143390028,2.311060599295786,0.4590962991095178,B,2288.636541023152,Correct,sub_016_day_12_data.csv,1,300,126.0,Training at home,,,,,,,,,,,,,
16,14,3174,A,48.66997101951929,75.60655236124174,2.433498550975965,1.1876249473066454,A,3780.2141249994743,Correct,sub_016_day_12_data.csv,1,300,126.0,Training at home,,,,,,,,,,,,,
16,14,3175,B,48.656731404592136,30.215927633385416,2.432836570229606,0.4746306813722222,B,729.8679990053643,Correct,sub_016_day_12_data.csv,1,300,127.0,Training at home,,,,,,,,,,,,,
16,14,3176,A,65.87606956075176,81.60368459786554,3.293803478037588,1.2818276801925648,A,1192.0591240050271,Correct,sub_016_day_12_data.csv,1,300,127.0,Training at home,,,,,,,,,,,,,
16,14,3177,B,69.88368781271292,42.60919087966704,3.4941843906356462,0.6693036052148359,B,766.7014579928946,Correct,sub_016_day_12_data.csv,1,300,127.0,Training at home,,,,,,,,,,,,,
16,14,3178,A,29.860424364650346,42.40892467663435,1.4930212182325169,0.666157831053787,B,808.8683739770204,Incorrect,sub_016_day_12_data.csv,0,300,127.0,Training at home,,,,,,,,,,,,,
16,14,3179,B,73.33331065715413,48.765838513558194,3.6666655328577065,0.7660120001017031,B,556.864415993914,Correct,sub_016_day_12_data.csv,1,300,127.0,Training at home,,,,,,,,,,,,,
16,14,3180,A,25.22697090946844,47.20589716157234,1.261348545473422,0.7415084986445546,A,919.2405409994536,Correct,sub_016_day_12_data.csv,1,300,127.0,Training at home,,,,,,,,,,,,,
16,14,3181,A,48.24745324814363,61.17224316056239,2.4123726624071815,0.9608913485841564,A,1011.6255820030348,Correct,sub_016_day_12_data.csv,1,300,127.0,Training at home,,,,,,,,,,,,,
16,14,3182,A,51.8785109302136,65.173587550255,2.59392554651068,1.0237443192798612,A,532.4935409880709,Correct,sub_016_day_12_data.csv,1,300,127.0,Training at home,,,,,,,,,,,,,
16,14,3183,B,62.76906479628739,35.99484725960768,3.1384532398143694,0.565405738589351,B,560.4074580187444,Correct,sub_016_day_12_data.csv,1,300,127.0,Training at home,,,,,,,,,,,,,
16,14,3184,A,42.368165358894984,65.72639348312386,2.1184082679447496,1.0324277745676698,A,424.47783300303854,Correct,sub_016_day_12_data.csv,1,300,127.0,Training at home,,,,,,,,,,,,,
16,14,3185,A,31.040269913262097,56.74487706254624,1.5520134956631049,0.8913464445427561,A,626.230124005815,Correct,sub_016_day_12_data.csv,1,300,127.0,Training at home,,,,,,,,,,,,,
16,14,3186,B,66.42697504190485,52.85561575050289,3.3213487520952425,0.8302540707137243,A,662.2620830021333,Incorrect,sub_016_day_12_data.csv,0,300,127.0,Training at home,,,,,,,,,,,,,
16,14,3187,B,33.82055491689553,10.794102022066332,1.6910277458447769,0.1695533580731116,B,561.5967490011826,Correct,sub_016_day_12_data.csv,1,300,127.0,Training at home,,,,,,,,,,,,,
16,14,3188,B,70.47024830025124,47.29688949693181,3.523512415012562,0.742937802906046,B,822.0532080158591,Correct,sub_016_day_12_data.csv,1,300,127.0,Training at home,,,,,,,,,,,,,
16,14,3189,B,82.09357142686314,59.569127496129425,4.104678571343157,0.9357096666129698,B,519.9485820194241,Correct,sub_016_day_12_data.csv,1,300,127.0,Training at home,,,,,,,,,,,,,
16,14,3190,A,62.56339578193294,86.53761061170356,3.1281697890966473,1.35932960878471,A,775.99683200242,Correct,sub_016_day_12_data.csv,1,300,127.0,Training at home,,,,,,,,,,,,,
16,14,3191,A,58.78633940016506,79.17015010425976,2.939316970008253,1.2436018097557184,A,541.2301239848603,Correct,sub_016_day_12_data.csv,1,300,127.0,Training at home,,,,,,,,,,,,,
16,14,3192,A,52.75777891855342,64.96433083134461,2.637888945927671,1.0204573224256457,A,579.0091660164762,Correct,sub_016_day_12_data.csv,1,300,127.0,Training at home,,,,,,,,,,,,,
16,14,3193,B,65.17583975676159,32.14277448158457,3.25879198783808,0.5048975208866977,B,595.5324159876909,Correct,sub_016_day_12_data.csv,1,300,127.0,Training at home,,,,,,,,,,,,,
16,14,3194,B,37.22196453797805,21.47408200001224,1.8610982268989027,0.3373140912691163,B,617.9055829998106,Correct,sub_016_day_12_data.csv,1,300,127.0,Training at home,,,,,,,,,,,,,
16,14,3195,B,54.6365879572418,47.22185172110567,2.73182939786209,0.7417591122796605,B,1191.5994989976753,Correct,sub_016_day_12_data.csv,1,300,127.0,Training at home,,,,,,,,,,,,,
16,14,3196,A,36.20657640995736,64.29403936490749,1.810328820497868,1.0099284086920317,A,485.6107489904389,Correct,sub_016_day_12_data.csv,1,300,127.0,Training at home,,,,,,,,,,,,,
16,14,3197,A,54.40586646194728,81.5379422645201,2.7202933230973643,1.2807950020352252,A,583.6880829883739,Correct,sub_016_day_12_data.csv,1,300,127.0,Training at home,,,,,,,,,,,,,
16,14,3198,B,78.16909889664056,58.96965391039302,3.908454944832028,0.9262931575481164,A,605.4122080095112,Incorrect,sub_016_day_12_data.csv,0,300,127.0,Training at home,,,,,,,,,,,,,
16,14,3199,A,28.01991899364061,49.0450745314438,1.4009959496820303,0.7703982292137386,A,938.652540993644,Correct,sub_016_day_12_data.csv,1,300,127.0,Training at home,,,,,,,,,,,,,
16,14,3200,A,13.022950187972237,35.955417403594296,0.6511475093986118,0.5647863758594321,A,595.0607490085531,Correct,sub_016_day_12_data.csv,1,300,128.0,Training at home,,,,,,,,,,,,,
16,14,3201,B,76.21989463651818,51.090728126285725,3.8109947318259088,0.8025312807404633,B,542.2305410029367,Correct,sub_016_day_12_data.csv,1,300,128.0,Training at home,,,,,,,,,,,,,
16,14,3202,A,33.17316143061039,61.7281710818499,1.6586580715305197,0.9696238439513678,B,683.8185410015285,Incorrect,sub_016_day_12_data.csv,0,300,128.0,Training at home,,,,,,,,,,,,,
16,14,3203,B,75.84178305305589,54.370558363104934,3.7920891526527942,0.8540507336255275,B,738.471541000763,Correct,sub_016_day_12_data.csv,1,300,128.0,Training at home,,,,,,,,,,,,,
16,14,3204,B,48.82902828001754,19.89144621314361,2.441451414000877,0.3124541064624423,B,835.6605410226621,Correct,sub_016_day_12_data.csv,1,300,128.0,Training at home,,,,,,,,,,,,,
16,14,3205,B,84.60308125178133,62.70668695021656,4.230154062589066,0.9849943352687764,B,610.1164990104735,Correct,sub_016_day_12_data.csv,1,300,128.0,Training at home,,,,,,,,,,,,,
16,14,3206,B,44.87379243717088,36.54609302297713,2.243689621858544,0.5740646867919708,B,1656.0805829940364,Correct,sub_016_day_12_data.csv,1,300,128.0,Training at home,,,,,,,,,,,,,
16,14,3207,A,30.256705122854356,44.71254991683665,1.512835256142718,0.7023430917100046,A,738.7729159963783,Correct,sub_016_day_12_data.csv,1,300,128.0,Training at home,,,,,,,,,,,,,
16,14,3208,B,54.96853952134842,36.46687259544339,2.748426976067421,0.5728202952261995,B,4476.021000009496,Correct,sub_016_day_12_data.csv,1,300,128.0,Training at home,,,,,,,,,,,,,
16,14,3209,A,40.85196247626678,53.4406629432554,2.042598123813339,0.8394439705274972,A,6481.16958301398,Correct,sub_016_day_12_data.csv,1,300,128.0,Training at home,,,,,,,,,,,,,
16,14,3210,A,44.43660743054636,74.27072774786996,2.221830371527318,1.1666418633473794,A,633.723207982257,Correct,sub_016_day_12_data.csv,1,300,128.0,Training at home,,,,,,,,,,,,,
16,14,3211,B,52.64157229422137,35.80172840354276,2.6320786147110686,0.562372234691935,B,528.5050829988904,Correct,sub_016_day_12_data.csv,1,300,128.0,Training at home,,,,,,,,,,,,,
16,14,3212,B,71.76704532919787,46.899461696250896,3.5883522664598932,0.7366950216112886,B,573.0855410220101,Correct,sub_016_day_12_data.csv,1,300,128.0,Training at home,,,,,,,,,,,,,
16,14,3213,A,15.542280913031044,41.79876527062798,0.7771140456515522,0.6565734695166453,A,567.7892500243615,Correct,sub_016_day_12_data.csv,1,300,128.0,Training at home,,,,,,,,,,,,,
16,14,3214,A,32.58965953892494,60.16302095654669,1.6294829769462469,0.9450385232742792,A,833.6632910068147,Correct,sub_016_day_12_data.csv,1,300,128.0,Training at home,,,,,,,,,,,,,
16,14,3215,B,55.41285192580308,25.565028876717395,2.7706425962901537,0.4015745345395314,B,611.6387910151388,Correct,sub_016_day_12_data.csv,1,300,128.0,Training at home,,,,,,,,,,,,,
16,14,3216,B,88.1658670888357,63.657921308857624,4.408293354441785,0.9999362896335212,B,735.2067909960169,Correct,sub_016_day_12_data.csv,1,300,128.0,Training at home,,,,,,,,,,,,,
16,14,3217,A,17.78627472838646,39.437474259497506,0.889313736419323,0.6194823970488696,A,608.8289989857003,Correct,sub_016_day_12_data.csv,1,300,128.0,Training at home,,,,,,,,,,,,,
16,14,3218,B,80.50661066458628,55.49748820657754,4.0253305332293134,0.8717525062123509,B,510.0637080031447,Correct,sub_016_day_12_data.csv,1,300,128.0,Training at home,,,,,,,,,,,,,
16,14,3219,A,32.321856305163806,50.86831540306018,1.6160928152581904,0.7990376298537117,A,1061.884956987342,Correct,sub_016_day_12_data.csv,1,300,128.0,Training at home,,,,,,,,,,,,,
16,14,3220,A,46.02961845699427,53.05205266637261,2.3014809228497137,0.833339694572675,A,1076.1543330154382,Correct,sub_016_day_12_data.csv,1,300,128.0,Training at home,,,,,,,,,,,,,
16,14,3221,A,18.67964451220483,32.667634168466336,0.9339822256102416,0.5131419975690638,A,594.2513750051148,Correct,sub_016_day_12_data.csv,1,300,128.0,Training at home,,,,,,,,,,,,,
16,14,3222,A,35.09592662698478,57.645083191453416,1.754796331349239,0.9054868493492124,A,466.6683330142405,Correct,sub_016_day_12_data.csv,1,300,128.0,Training at home,,,,,,,,,,,,,
16,14,3223,A,29.426554739574197,58.39065341257469,1.47132773697871,0.917198238996262,A,584.0648320154287,Correct,sub_016_day_12_data.csv,1,300,128.0,Training at home,,,,,,,,,,,,,
16,14,3224,B,67.74506005438793,38.81890121172129,3.387253002719397,0.6097658743358577,B,645.1839159999508,Correct,sub_016_day_12_data.csv,1,300,128.0,Training at home,,,,,,,,,,,,,
16,14,3225,A,41.035154650246874,49.54545346492092,2.051757732512344,0.7782581631208525,A,824.7031249920838,Correct,sub_016_day_12_data.csv,1,300,129.0,Training at home,,,,,,,,,,,,,
16,14,3226,A,39.633024895493094,60.493533422646735,1.9816512447746544,0.950230200951378,A,492.8347910172306,Correct,sub_016_day_12_data.csv,1,300,129.0,Training at home,,,,,,,,,,,,,
16,14,3227,A,59.183568726996896,73.02791850896843,2.959178436349845,1.1471198614736466,A,1843.8259160029704,Correct,sub_016_day_12_data.csv,1,300,129.0,Training at home,,,,,,,,,,,,,
16,14,3228,B,74.61048160971039,43.81286670305595,3.730524080485519,0.6882109008351472,B,1354.5654990011826,Correct,sub_016_day_12_data.csv,1,300,129.0,Training at home,,,,,,,,,,,,,
16,14,3229,B,79.93248267177945,61.95026122854327,3.996624133588973,0.9731124278178008,B,1876.145665999502,Correct,sub_016_day_12_data.csv,1,300,129.0,Training at home,,,,,,,,,,,,,
16,14,3230,A,37.82588558448275,57.506424845137026,1.8912942792241376,0.9033088091384802,A,548.3285410155077,Correct,sub_016_day_12_data.csv,1,300,129.0,Training at home,,,,,,,,,,,,,
16,14,3231,B,69.44775343640238,56.40684449989439,3.472387671820119,0.8860366414652502,B,688.100665982347,Correct,sub_016_day_12_data.csv,1,300,129.0,Training at home,,,,,,,,,,,,,
16,14,3232,B,54.30352975864856,28.436934514321024,2.7151764879324283,0.4466863228040247,B,895.5284990079235,Correct,sub_016_day_12_data.csv,1,300,129.0,Training at home,,,,,,,,,,,,,
16,14,3233,A,24.065910109746007,43.59613267972884,1.2032955054873002,0.68480645075781,A,1169.8187069850974,Correct,sub_016_day_12_data.csv,1,300,129.0,Training at home,,,,,,,,,,,,,
16,14,3234,B,54.224973659498,26.37471778346065,2.7112486829748996,0.4142930981451201,A,1869.756290980149,Incorrect,sub_016_day_12_data.csv,0,300,129.0,Training at home,,,,,,,,,,,,,
16,14,3235,B,71.68389822824624,56.84664986055501,3.5841949114123115,0.8929450879155542,B,640.8930830075406,Correct,sub_016_day_12_data.csv,1,300,129.0,Training at home,,,,,,,,,,,,,
16,14,3236,B,50.08989727324203,42.20524764500969,2.5044948636621016,0.6629584797225018,B,996.3082909816876,Correct,sub_016_day_12_data.csv,1,300,129.0,Training at home,,,,,,,,,,,,,
16,14,3237,B,72.67717522372133,48.023437217852745,3.633858761186067,0.7543503878186841,B,633.801874006167,Correct,sub_016_day_12_data.csv,1,300,129.0,Training at home,,,,,,,,,,,,,
16,14,3238,A,40.84770437506872,69.6841546842945,2.0423852187534357,1.0945961421389718,A,743.7901660159696,Correct,sub_016_day_12_data.csv,1,300,129.0,Training at home,,,,,,,,,,,,,
16,14,3239,B,64.98514458035044,56.9047842793624,3.249257229017522,0.8938582612307844,A,474.5742079976481,Incorrect,sub_016_day_12_data.csv,0,300,129.0,Training at home,,,,,,,,,,,,,
16,14,3240,B,55.18846469552108,28.613088955809346,2.7594232347760537,0.4494533503004094,B,534.3567079980858,Correct,sub_016_day_12_data.csv,1,300,129.0,Training at home,,,,,,,,,,,,,
16,14,3241,A,26.9155017423746,53.35190075609082,1.3457750871187295,0.8380496973519332,A,3026.0613749851473,Correct,sub_016_day_12_data.csv,1,300,129.0,Training at home,,,,,,,,,,,,,
16,14,3242,B,65.84070436809655,37.276577726859166,3.292035218404828,0.5855391136883483,B,3067.3989159986377,Correct,sub_016_day_12_data.csv,1,300,129.0,Training at home,,,,,,,,,,,,,
16,14,3243,B,69.9874353738038,58.92475878081311,3.49937176869019,0.9255879465017656,A,3040.7152909901924,Incorrect,sub_016_day_12_data.csv,0,300,129.0,Training at home,,,,,,,,,,,,,
16,14,3244,B,66.15748511995044,46.25132835805254,3.307874255997522,0.7265141669421357,B,852.1294989914168,Correct,sub_016_day_12_data.csv,1,300,129.0,Training at home,,,,,,,,,,,,,
16,14,3245,A,21.520708442028155,46.5661683659619,1.0760354221014077,0.7314596622216567,A,572.7206250012387,Correct,sub_016_day_12_data.csv,1,300,129.0,Training at home,,,,,,,,,,,,,
16,14,3246,B,68.17918609369069,56.96786007382863,3.408959304684535,0.8948490534933566,A,947.8786240215412,Incorrect,sub_016_day_12_data.csv,0,300,129.0,Training at home,,,,,,,,,,,,,
16,14,3247,A,26.815948826300943,37.58822629319246,1.3407974413150472,0.5904344779208207,A,1753.8915829791222,Correct,sub_016_day_12_data.csv,1,300,129.0,Training at home,,,,,,,,,,,,,
16,14,3248,B,78.47541524418641,62.8975649264772,3.9237707622093208,0.987992639508539,B,2798.3759159978945,Correct,sub_016_day_12_data.csv,1,300,129.0,Training at home,,,,,,,,,,,,,
16,14,3249,B,52.98857404924113,26.87738831166086,2.6494287024620564,0.4221890283379696,B,3488.9903330185916,Correct,sub_016_day_12_data.csv,1,300,129.0,Training at home,,,,,,,,,,,,,
16,14,3250,A,39.89900891430804,57.78347954215631,1.994950445715402,0.9076607741424716,A,691.5852079982869,Correct,sub_016_day_12_data.csv,1,300,130.0,Training at home,,,,,,,,,,,,,
16,14,3251,A,38.497716900875886,71.15068877045245,1.9248858450437945,1.117632405695536,A,854.5804159948602,Correct,sub_016_day_12_data.csv,1,300,130.0,Training at home,,,,,,,,,,,,,
16,14,3252,B,52.62745398324047,30.18477478186246,2.631372699162023,0.4741413335248077,B,1111.6050410200842,Correct,sub_016_day_12_data.csv,1,300,130.0,Training at home,,,,,,,,,,,,,
16,14,3253,A,50.77756064416523,77.8531728652457,2.538878032208262,1.2229147796605604,A,520.4640410083812,Correct,sub_016_day_12_data.csv,1,300,130.0,Training at home,,,,,,,,,,,,,
16,14,3254,A,10.651853992148643,32.57238347534752,0.5325926996074323,0.5116458031803067,A,537.1412490203511,Correct,sub_016_day_12_data.csv,1,300,130.0,Training at home,,,,,,,,,,,,,
16,14,3255,B,52.26370291452163,41.53996996057698,2.6131851457260815,0.6525083222924467,A,839.5254579954781,Incorrect,sub_016_day_12_data.csv,0,300,130.0,Training at home,,,,,,,,,,,,,
16,14,3256,A,29.848319321817904,52.16778006999855,1.492415966090895,0.8194495731099773,A,615.4543749871664,Correct,sub_016_day_12_data.csv,1,300,130.0,Training at home,,,,,,,,,,,,,
16,14,3257,B,86.26990671510494,62.97571738212056,4.313495335755246,0.9892202554110848,B,561.9965829828288,Correct,sub_016_day_12_data.csv,1,300,130.0,Training at home,,,,,,,,,,,,,
16,14,3258,B,67.00716397032235,35.124845363723885,3.3503581985161177,0.5517397807657622,B,1031.6690409963485,Correct,sub_016_day_12_data.csv,1,300,130.0,Training at home,,,,,,,,,,,,,
16,14,3259,B,79.19934805273274,66.4203857919529,3.959967402636637,1.0433289802629957,B,797.4692910211161,Correct,sub_016_day_12_data.csv,1,300,130.0,Training at home,,,,,,,,,,,,,
16,14,3260,B,81.35251415886458,58.27898022518765,4.067625707943229,0.9154440806707718,B,1474.4815409940202,Correct,sub_016_day_12_data.csv,1,300,130.0,Training at home,,,,,,,,,,,,,
16,14,3261,A,56.79343221663849,68.96384024871556,2.8396716108319247,1.0832814694435244,A,557.2630829992704,Correct,sub_016_day_12_data.csv,1,300,130.0,Training at home,,,,,,,,,,,,,
16,14,3262,B,57.8141325298354,38.21078605011037,2.89070662649177,0.6002136237145904,B,1684.3049160088412,Correct,sub_016_day_12_data.csv,1,300,130.0,Training at home,,,,,,,,,,,,,
16,14,3263,B,63.650582217431115,30.418711814543833,3.1825291108715557,0.4778160078411798,B,1260.2230409975164,Correct,sub_016_day_12_data.csv,1,300,130.0,Training at home,,,,,,,,,,,,,
16,14,3264,A,26.44446170355028,41.648717937388895,1.322223085177514,0.654216531517672,A,598.7406249914784,Correct,sub_016_day_12_data.csv,1,300,130.0,Training at home,,,,,,,,,,,,,
16,14,3265,A,43.73597377198282,74.81239234204622,2.1867986885991413,1.1751503108962489,A,659.0027490165085,Correct,sub_016_day_12_data.csv,1,300,130.0,Training at home,,,,,,,,,,,,,
16,14,3266,A,38.08826393473351,71.18909237048346,1.9044131967366755,1.1182356480341804,A,677.2500819934066,Correct,sub_016_day_12_data.csv,1,300,130.0,Training at home,,,,,,,,,,,,,
16,14,3267,B,83.89992051164985,62.828331113075976,4.194996025582492,0.9869051173107324,B,549.8188319907058,Correct,sub_016_day_12_data.csv,1,300,130.0,Training at home,,,,,,,,,,,,,
16,14,3268,B,55.63370370544157,24.06356719091319,2.781685185272078,0.3779896295306863,B,1891.8549160007387,Correct,sub_016_day_12_data.csv,1,300,130.0,Training at home,,,,,,,,,,,,,
16,14,3269,A,44.72350540239548,51.87591603855199,2.2361752701197743,0.8148649836247794,A,545.7163329992909,Correct,sub_016_day_12_data.csv,1,300,130.0,Training at home,,,,,,,,,,,,,
16,14,3270,A,17.21023982388011,42.68541509579629,0.8605119911940053,0.6705009324019224,A,560.3672500001267,Correct,sub_016_day_12_data.csv,1,300,130.0,Training at home,,,,,,,,,,,,,
16,14,3271,A,64.5503048756443,88.38707905531759,3.227515243782215,1.38838099116223,A,713.8419990078546,Correct,sub_016_day_12_data.csv,1,300,130.0,Training at home,,,,,,,,,,,,,
16,14,3272,B,60.7466034307021,36.80077531195162,3.037330171535105,0.5780652268321791,B,818.9589999965392,Correct,sub_016_day_12_data.csv,1,300,130.0,Training at home,,,,,,,,,,,,,
16,14,3273,A,51.90104332543464,74.76868300860416,2.5950521662717323,1.174463726292074,A,717.2102909826208,Correct,sub_016_day_12_data.csv,1,300,130.0,Training at home,,,,,,,,,,,,,
16,14,3274,A,23.78024352848278,42.32031365677468,1.189012176424139,0.6647659324086956,A,731.7015410226304,Correct,sub_016_day_12_data.csv,1,300,130.0,Training at home,,,,,,,,,,,,,
16,14,3275,B,53.60539800191643,39.36525319152932,2.6802699000958214,0.6183479511660533,B,967.0604990096764,Correct,sub_016_day_12_data.csv,1,300,131.0,Training at home,,,,,,,,,,,,,
16,14,3276,B,46.06026510071173,25.81089570987528,2.3030132550355864,0.4054366017235825,B,4393.831331981346,Correct,sub_016_day_12_data.csv,1,300,131.0,Training at home,,,,,,,,,,,,,
16,14,3277,A,31.633888482555207,47.48145187906938,1.5816944241277604,0.7458369020253082,A,4038.228791003348,Correct,sub_016_day_12_data.csv,1,300,131.0,Training at home,,,,,,,,,,,,,
16,14,3278,B,61.72619368817581,42.1107005311406,3.086309684408791,0.6614733371307556,B,2466.1489160207566,Correct,sub_016_day_12_data.csv,1,300,131.0,Training at home,,,,,,,,,,,,,
16,14,3279,A,58.79986268771132,83.85449106661835,2.939993134385566,1.3171832655269955,A,564.7651239996776,Correct,sub_016_day_12_data.csv,1,300,131.0,Training at home,,,,,,,,,,,,,
16,14,3280,B,35.618909926632014,16.89016399126285,1.7809454963316005,0.2653100755643911,B,630.723374983063,Correct,sub_016_day_12_data.csv,1,300,131.0,Training at home,,,,,,,,,,,,,
16,14,3281,B,71.0541978652955,61.76227698640477,3.5527098932647756,0.970159578247336,B,692.4781659909058,Correct,sub_016_day_12_data.csv,1,300,131.0,Training at home,,,,,,,,,,,,,
16,14,3282,A,25.19455549565675,42.94052374523056,1.2597277747828377,0.674508169696572,A,523.8325830141548,Correct,sub_016_day_12_data.csv,1,300,131.0,Training at home,,,,,,,,,,,,,
16,14,3283,B,43.29580071149982,23.831440247446945,2.164790035574991,0.3743433880292171,B,595.3687909932341,Correct,sub_016_day_12_data.csv,1,300,131.0,Training at home,,,,,,,,,,,,,
16,14,3284,B,51.748086769736474,29.230546494026765,2.5874043384868237,0.4591523506302468,B,635.960082989186,Correct,sub_016_day_12_data.csv,1,300,131.0,Training at home,,,,,,,,,,,,,
16,14,3285,B,46.13134841874282,26.059263530399512,2.306567420937141,0.4093379543253176,B,611.8646250106394,Correct,sub_016_day_12_data.csv,1,300,131.0,Training at home,,,,,,,,,,,,,
16,14,3286,B,79.11640224373646,65.11600228583505,3.9558201121868226,1.0228397720615778,B,958.9747079880908,Correct,sub_016_day_12_data.csv,1,300,131.0,Training at home,,,,,,,,,,,,,
16,14,3287,A,21.408959388537188,37.49156974322936,1.0704479694268594,0.5889162003843935,A,571.521790989209,Correct,sub_016_day_12_data.csv,1,300,131.0,Training at home,,,,,,,,,,,,,
16,14,3288,A,26.460402962039083,41.351841746840506,1.3230201481019543,0.6495532112214093,A,531.3643740082625,Correct,sub_016_day_12_data.csv,1,300,131.0,Training at home,,,,,,,,,,,,,
16,14,3289,A,42.21629582913139,65.03381019007051,2.1108147914565696,1.0215487016403926,A,601.4762910199352,Correct,sub_016_day_12_data.csv,1,300,131.0,Training at home,,,,,,,,,,,,,
16,14,3290,A,28.823766836740223,39.39741569015709,1.4411883418370113,0.6188531585131039,B,714.9694580002688,Incorrect,sub_016_day_12_data.csv,0,300,131.0,Training at home,,,,,,,,,,,,,
16,14,3291,A,37.09507270012045,67.62195713902086,1.8547536350060223,1.0622032188465589,A,503.8872080040164,Correct,sub_016_day_12_data.csv,1,300,131.0,Training at home,,,,,,,,,,,,,
16,14,3292,B,69.91868937250435,49.36307213801252,3.495934468625217,0.7753933239370155,B,674.6653740119655,Correct,sub_016_day_12_data.csv,1,300,131.0,Training at home,,,,,,,,,,,,,
16,14,3293,B,38.374553834902215,13.221678686467804,1.9187276917451104,0.20768564314766,B,750.6590000120923,Correct,sub_016_day_12_data.csv,1,300,131.0,Training at home,,,,,,,,,,,,,
16,14,3294,A,34.29986891240975,48.907195922702535,1.7149934456204874,0.7682324370921947,A,580.5628329981118,Correct,sub_016_day_12_data.csv,1,300,131.0,Training at home,,,,,,,,,,,,,
16,14,3295,B,62.330495519632336,54.0689204498748,3.116524775981617,0.849312616364288,B,1376.9016660226043,Correct,sub_016_day_12_data.csv,1,300,131.0,Training at home,,,,,,,,,,,,,
16,14,3296,B,58.53535967803087,30.13964087881744,2.9267679839015437,0.4734323718336374,B,570.9720820013899,Correct,sub_016_day_12_data.csv,1,300,131.0,Training at home,,,,,,,,,,,,,
16,14,3297,A,60.96330924562547,74.08410286672556,3.0481654622812733,1.1637103665694777,A,463.3735829847865,Correct,sub_016_day_12_data.csv,1,300,131.0,Training at home,,,,,,,,,,,,,
16,14,3298,B,60.86357800694287,52.177225061248095,3.0431789003471437,0.8195979346855912,B,1040.9338329918685,Correct,sub_016_day_12_data.csv,1,300,131.0,Training at home,,,,,,,,,,,,,
16,14,3299,B,37.25737051909316,26.09411612551189,1.862868525954658,0.4098854176091354,A,867.138124012854,Incorrect,sub_016_day_12_data.csv,0,300,131.0,Training at home,,,,,,,,,,,,,
