subject,day,trial,cat,x,y,xt,yt,resp,rt,fb,f_name,acc,n_trials,block,session_type,ns_left_digit,ns_right_digit,ns_left_size,ns_right_size,ns_congruent,ns_cue,ns_correct_side,ns_resp,ns_rt,ns_fb,acc_stroop,acc_stroop_mean,resp_key
16,19,4200,A,40.46310381723212,62.64601323936861,2.0231551908616057,0.9840412748474466,A,791.2646250042599,Correct,sub_016_day_16_data.csv,1,300,168.0,Training at home,,,,,,,,,,,,,
16,19,4201,A,24.99253616551522,46.23557687348636,1.249626808275761,0.7262667432011545,A,1166.8396659952125,Correct,sub_016_day_16_data.csv,1,300,168.0,Training at home,,,,,,,,,,,,,
16,19,4202,A,29.82273795939802,46.790111973219624,1.491136897969901,0.7349773601785529,A,636.7958749760874,Correct,sub_016_day_16_data.csv,1,300,168.0,Training at home,,,,,,,,,,,,,
16,19,4203,B,38.78238079566351,29.67729835753887,1.9391190397831752,0.4661699124921827,B,867.486083006952,Correct,sub_016_day_16_data.csv,1,300,168.0,Training at home,,,,,,,,,,,,,
16,19,4204,A,56.51654366610112,77.9619168268053,2.825827183305056,1.22462292581435,A,842.4574579985347,Correct,sub_016_day_16_data.csv,1,300,168.0,Training at home,,,,,,,,,,,,,
16,19,4205,A,63.38753009809312,76.72479359097282,3.169376504904656,1.2051902394679674,A,2364.747042011004,Correct,sub_016_day_16_data.csv,1,300,168.0,Training at home,,,,,,,,,,,,,
16,19,4206,B,73.17344585275775,46.56625388036807,3.658672292637888,0.7314610054788077,B,588.2357080117799,Correct,sub_016_day_16_data.csv,1,300,168.0,Training at home,,,,,,,,,,,,,
16,19,4207,B,55.60636604597098,39.028925676118895,2.780318302298549,0.6130649309079858,B,636.7791249940637,Correct,sub_016_day_16_data.csv,1,300,168.0,Training at home,,,,,,,,,,,,,
16,19,4208,A,51.201799975247454,75.09264414702001,2.560089998762373,1.1795524959545531,A,642.4305829859804,Correct,sub_016_day_16_data.csv,1,300,168.0,Training at home,,,,,,,,,,,,,
16,19,4209,A,31.090965949950004,43.20595802640845,1.5545482974975002,0.6786776016353687,A,503.2158329850063,Correct,sub_016_day_16_data.csv,1,300,168.0,Training at home,,,,,,,,,,,,,
16,19,4210,A,41.71367983978229,54.175445584406845,2.0856839919891144,0.8509859092646306,A,568.6398740217555,Correct,sub_016_day_16_data.csv,1,300,168.0,Training at home,,,,,,,,,,,,,
16,19,4211,B,70.24086242681759,53.730088477379226,3.512043121340879,0.8439902561863208,B,569.5142910117283,Correct,sub_016_day_16_data.csv,1,300,168.0,Training at home,,,,,,,,,,,,,
16,19,4212,B,71.85384349234563,46.796778974481754,3.5926921746172815,0.7350820851894858,B,626.8891670042649,Correct,sub_016_day_16_data.csv,1,300,168.0,Training at home,,,,,,,,,,,,,
16,19,4213,A,53.43094001656721,63.06093120175151,2.671547000828361,0.9905587909597694,A,639.1727919981349,Correct,sub_016_day_16_data.csv,1,300,168.0,Training at home,,,,,,,,,,,,,
16,19,4214,B,59.00994171889768,48.926764811022935,2.9504970859448836,0.7685398244711262,B,1708.2512909837533,Correct,sub_016_day_16_data.csv,1,300,168.0,Training at home,,,,,,,,,,,,,
16,19,4215,B,84.59617729680105,54.98290336359156,4.229808864840052,0.8636694264004838,B,1065.5814170022495,Correct,sub_016_day_16_data.csv,1,300,168.0,Training at home,,,,,,,,,,,,,
16,19,4216,B,44.54121179671519,17.150095012044737,2.227060589835759,0.2693930624910335,B,671.3869579834864,Correct,sub_016_day_16_data.csv,1,300,168.0,Training at home,,,,,,,,,,,,,
16,19,4217,B,83.5592334877684,60.65230989176369,4.17796167438842,0.952724255896082,B,760.176790994592,Correct,sub_016_day_16_data.csv,1,300,168.0,Training at home,,,,,,,,,,,,,
16,19,4218,B,60.03644686709278,50.742135404807186,3.0018223433546387,0.7970555990760041,B,2350.39633300039,Correct,sub_016_day_16_data.csv,1,300,168.0,Training at home,,,,,,,,,,,,,
16,19,4219,A,32.0444119245019,60.97106301295329,1.602220596225095,0.957731218215272,A,1274.7545829915907,Correct,sub_016_day_16_data.csv,1,300,168.0,Training at home,,,,,,,,,,,,,
16,19,4220,A,24.971669660294715,48.513330796232296,1.2485834830147358,0.7620456181530741,A,1399.379458016483,Correct,sub_016_day_16_data.csv,1,300,168.0,Training at home,,,,,,,,,,,,,
16,19,4221,B,87.86332879884661,64.61548243036415,4.3931664399423305,1.014977624556962,B,1267.3670829972252,Correct,sub_016_day_16_data.csv,1,300,168.0,Training at home,,,,,,,,,,,,,
16,19,4222,A,63.830500293495824,76.40890513850431,3.191525014674791,1.2002282752598226,A,582.2187080048025,Correct,sub_016_day_16_data.csv,1,300,168.0,Training at home,,,,,,,,,,,,,
16,19,4223,B,56.96077710442403,41.100650098062054,2.8480388552212013,0.6456075020291817,B,1460.1787489955314,Correct,sub_016_day_16_data.csv,1,300,168.0,Training at home,,,,,,,,,,,,,
16,19,4224,B,42.53260390784649,20.192691337176313,2.126630195392325,0.3171860538053968,B,544.0370829892345,Correct,sub_016_day_16_data.csv,1,300,168.0,Training at home,,,,,,,,,,,,,
16,19,4225,A,43.87930575201388,66.77396397742807,2.193965287600694,1.0488829734127876,A,2160.7699579908513,Correct,sub_016_day_16_data.csv,1,300,169.0,Training at home,,,,,,,,,,,,,
16,19,4226,B,44.13866915588477,20.360822055593815,2.2069334577942383,0.3198270449545128,B,641.8632499990053,Correct,sub_016_day_16_data.csv,1,300,169.0,Training at home,,,,,,,,,,,,,
16,19,4227,A,66.98014814098819,87.3630372017005,3.3490074070494096,1.3722953793407706,A,610.058582999045,Correct,sub_016_day_16_data.csv,1,300,169.0,Training at home,,,,,,,,,,,,,
16,19,4228,B,54.012752086902545,34.48952191430635,2.7006376043451272,0.5417601433590451,B,575.6130410009064,Correct,sub_016_day_16_data.csv,1,300,169.0,Training at home,,,,,,,,,,,,,
16,19,4229,A,34.81507442246569,57.167722745589025,1.7407537211232846,0.8979884890000028,A,1800.9384579781909,Correct,sub_016_day_16_data.csv,1,300,169.0,Training at home,,,,,,,,,,,,,
16,19,4230,B,43.2422990143769,29.38925151214328,2.162114950718845,0.4616452832252602,B,730.3222909977194,Correct,sub_016_day_16_data.csv,1,300,169.0,Training at home,,,,,,,,,,,,,
16,19,4231,A,16.26198866210399,38.30704012171858,0.8130994331051995,0.6017255791358027,A,903.6889990093186,Correct,sub_016_day_16_data.csv,1,300,169.0,Training at home,,,,,,,,,,,,,
16,19,4232,A,27.196208275871665,44.12874428298178,1.3598104137935831,0.6931726942577907,A,2060.0396250083577,Correct,sub_016_day_16_data.csv,1,300,169.0,Training at home,,,,,,,,,,,,,
16,19,4233,A,57.40438792989536,84.75328775711836,2.8702193964947686,1.3313015309267238,A,986.3921659998596,Correct,sub_016_day_16_data.csv,1,300,169.0,Training at home,,,,,,,,,,,,,
16,19,4234,A,64.80839223431097,78.21544233887674,3.2404196117155486,1.228605295245456,B,1799.4756249827333,Incorrect,sub_016_day_16_data.csv,0,300,169.0,Training at home,,,,,,,,,,,,,
16,19,4235,B,63.64493237135231,54.253969124415,3.1822466185676155,0.852219354146748,B,4188.918540981831,Correct,sub_016_day_16_data.csv,1,300,169.0,Training at home,,,,,,,,,,,,,
16,19,4236,B,71.38028289175674,48.919007296359,3.569014144587837,0.7684179697157346,B,726.6498329991009,Correct,sub_016_day_16_data.csv,1,300,169.0,Training at home,,,,,,,,,,,,,
16,19,4237,B,60.78936249195025,35.62256144146159,3.0394681245975126,0.5595578866327339,B,622.6727910107002,Correct,sub_016_day_16_data.csv,1,300,169.0,Training at home,,,,,,,,,,,,,
16,19,4238,A,26.877192994380547,57.24975326433956,1.3438596497190272,0.8992770213753871,A,616.8649579922203,Correct,sub_016_day_16_data.csv,1,300,169.0,Training at home,,,,,,,,,,,,,
16,19,4239,A,28.521042218695808,59.29426352115989,1.4260521109347903,0.9313921133904658,A,584.7247499914374,Correct,sub_016_day_16_data.csv,1,300,169.0,Training at home,,,,,,,,,,,,,
16,19,4240,B,72.84459212272044,57.55069372502356,3.6422296061360218,0.9040041830776512,B,615.4887499869801,Correct,sub_016_day_16_data.csv,1,300,169.0,Training at home,,,,,,,,,,,,,
16,19,4241,B,52.29051662183977,29.059310484015768,2.614525831091988,0.456462581674844,B,612.8360419825185,Correct,sub_016_day_16_data.csv,1,300,169.0,Training at home,,,,,,,,,,,,,
16,19,4242,B,65.00234300410943,35.40837035005519,3.2501171502054715,0.5561933808366002,B,1425.7755830185488,Correct,sub_016_day_16_data.csv,1,300,169.0,Training at home,,,,,,,,,,,,,
16,19,4243,B,45.8337734917015,33.66954177842162,2.291688674585075,0.5288799255041198,A,747.2722080128733,Incorrect,sub_016_day_16_data.csv,0,300,169.0,Training at home,,,,,,,,,,,,,
16,19,4244,B,73.0811324878315,47.18910903357565,3.654056624391574,0.7412447913466451,B,601.3212919933721,Correct,sub_016_day_16_data.csv,1,300,169.0,Training at home,,,,,,,,,,,,,
16,19,4245,B,37.72886708470391,15.759637202266015,1.8864433542351953,0.2475518022893965,B,928.1732920208016,Correct,sub_016_day_16_data.csv,1,300,169.0,Training at home,,,,,,,,,,,,,
16,19,4246,A,57.34835210438898,71.82833400916233,2.8674176052194493,1.1282768322138912,A,831.5706239955034,Correct,sub_016_day_16_data.csv,1,300,169.0,Training at home,,,,,,,,,,,,,
16,19,4247,A,66.47637132817391,89.68726108811215,3.3238185664086957,1.4088042027750145,A,696.5178750106134,Correct,sub_016_day_16_data.csv,1,300,169.0,Training at home,,,,,,,,,,,,,
16,19,4248,A,39.402546950860255,53.99107438600528,1.9701273475430128,0.8480898132524713,A,1810.856166004669,Correct,sub_016_day_16_data.csv,1,300,169.0,Training at home,,,,,,,,,,,,,
16,19,4249,A,36.685822145893965,63.982815060491134,1.834291107294698,1.0050397087501666,A,542.270792007912,Correct,sub_016_day_16_data.csv,1,300,169.0,Training at home,,,,,,,,,,,,,
16,19,4250,A,43.85058339052998,71.13126347625199,2.192529169526499,1.1173272738877662,A,1052.729624992935,Correct,sub_016_day_16_data.csv,1,300,170.0,Training at home,,,,,,,,,,,,,
16,19,4251,B,71.86728858278164,44.37197639340642,3.593364429139082,0.6969933753139266,B,740.2742500125896,Correct,sub_016_day_16_data.csv,1,300,170.0,Training at home,,,,,,,,,,,,,
16,19,4252,B,36.42528476097469,14.827696552450526,1.8212642380487347,0.2329129127941863,B,682.4776659777854,Correct,sub_016_day_16_data.csv,1,300,170.0,Training at home,,,,,,,,,,,,,
16,19,4253,B,43.066758988166285,22.248984692759883,2.1533379494083142,0.349486234303031,B,988.250499998685,Correct,sub_016_day_16_data.csv,1,300,170.0,Training at home,,,,,,,,,,,,,
16,19,4254,B,64.51590186686576,55.08245802048369,3.225795093343288,0.8652332272940988,B,547.8913330007344,Correct,sub_016_day_16_data.csv,1,300,170.0,Training at home,,,,,,,,,,,,,
16,19,4255,A,34.39871529401954,54.9556187334329,1.719935764700977,0.863240840432172,A,1204.9848749884404,Correct,sub_016_day_16_data.csv,1,300,170.0,Training at home,,,,,,,,,,,,,
16,19,4256,A,57.52373148474128,78.18496678164607,2.876186574237064,1.2281265863119064,A,857.6271240017377,Correct,sub_016_day_16_data.csv,1,300,170.0,Training at home,,,,,,,,,,,,,
16,19,4257,B,79.21291413316655,55.820070054165186,3.960645706658328,0.8768196100251647,B,611.2984160135966,Correct,sub_016_day_16_data.csv,1,300,170.0,Training at home,,,,,,,,,,,,,
16,19,4258,A,52.048539083325345,59.21357592384658,2.6024269541662672,0.9301246755756892,B,1566.0573329951148,Incorrect,sub_016_day_16_data.csv,0,300,170.0,Training at home,,,,,,,,,,,,,
16,19,4259,B,36.79624133601136,13.019393493337272,1.8398120668005675,0.2045081547643156,B,721.8813740182668,Correct,sub_016_day_16_data.csv,1,300,170.0,Training at home,,,,,,,,,,,,,
16,19,4260,B,57.9662026785245,50.277704791834886,2.898310133926225,0.789760340066924,B,1119.5805830066092,Correct,sub_016_day_16_data.csv,1,300,170.0,Training at home,,,,,,,,,,,,,
16,19,4261,B,66.76313996898328,57.27188559598207,3.3381569984491644,0.8996246752278618,B,1236.8217909825034,Correct,sub_016_day_16_data.csv,1,300,170.0,Training at home,,,,,,,,,,,,,
16,19,4262,B,67.41117663534902,42.83793788886468,3.3705588317674513,0.6728967548329656,B,660.0205830181949,Correct,sub_016_day_16_data.csv,1,300,170.0,Training at home,,,,,,,,,,,,,
16,19,4263,A,41.09196379826772,71.06777146929387,2.0545981899133863,1.1163299437746597,A,612.4966659990605,Correct,sub_016_day_16_data.csv,1,300,170.0,Training at home,,,,,,,,,,,,,
16,19,4264,A,53.54583401968246,72.8057096234584,2.6772917009841226,1.1436294124622433,A,766.4767910027876,Correct,sub_016_day_16_data.csv,1,300,170.0,Training at home,,,,,,,,,,,,,
16,19,4265,A,18.66808676771885,48.64114404170984,0.9334043383859424,0.7640533039181927,A,759.9233750079293,Correct,sub_016_day_16_data.csv,1,300,170.0,Training at home,,,,,,,,,,,,,
16,19,4266,B,72.9431290852086,48.50875650702507,3.64715645426043,0.7619737653862302,B,586.3548750057817,Correct,sub_016_day_16_data.csv,1,300,170.0,Training at home,,,,,,,,,,,,,
16,19,4267,B,58.38449253747087,43.7374253760448,2.9192246268735436,0.6870258712415707,B,509.3412080022972,Correct,sub_016_day_16_data.csv,1,300,170.0,Training at home,,,,,,,,,,,,,
16,19,4268,B,47.21273469298061,32.445050650420754,2.3606367346490305,0.5096456638435529,B,544.4109580130316,Correct,sub_016_day_16_data.csv,1,300,170.0,Training at home,,,,,,,,,,,,,
16,19,4269,A,18.68601784493324,40.22792287308336,0.934300892246662,0.6318987348362775,A,1220.7562500261702,Correct,sub_016_day_16_data.csv,1,300,170.0,Training at home,,,,,,,,,,,,,
16,19,4270,A,20.993012676533123,36.33001965509934,1.0496506338266562,0.5706706142661644,A,635.9857079805806,Correct,sub_016_day_16_data.csv,1,300,170.0,Training at home,,,,,,,,,,,,,
16,19,4271,B,38.92218998572301,20.52786946370824,1.9461094992861503,0.3224510195051803,A,1448.6184999987015,Incorrect,sub_016_day_16_data.csv,0,300,170.0,Training at home,,,,,,,,,,,,,
16,19,4272,A,33.95496047525806,54.75115344939898,1.6977480237629032,0.8600291072609965,A,496.32408301113173,Correct,sub_016_day_16_data.csv,1,300,170.0,Training at home,,,,,,,,,,,,,
16,19,4273,A,25.4465165641705,38.5651212148381,1.2723258282085252,0.6057795074666762,A,1024.398873996688,Correct,sub_016_day_16_data.csv,1,300,170.0,Training at home,,,,,,,,,,,,,
16,19,4274,A,49.741451268170664,80.91191813122965,2.487072563408533,1.2709614379446494,A,648.7411249836441,Correct,sub_016_day_16_data.csv,1,300,170.0,Training at home,,,,,,,,,,,,,
16,19,4275,A,27.61728900232056,59.89321163578897,1.380864450116028,0.9408003683744668,A,552.0416660001501,Correct,sub_016_day_16_data.csv,1,300,171.0,Training at home,,,,,,,,,,,,,
16,19,4276,A,37.86589411062531,68.79476460000733,1.8932947055312657,1.080625635364111,A,887.6964160008356,Correct,sub_016_day_16_data.csv,1,300,171.0,Training at home,,,,,,,,,,,,,
16,19,4277,B,47.557129077661855,17.011433799748122,2.3778564538830924,0.267214977261589,B,771.1428740003612,Correct,sub_016_day_16_data.csv,1,300,171.0,Training at home,,,,,,,,,,,,,
16,19,4278,A,62.908835702659744,85.24898771325228,3.145441785132987,1.3390879676295997,A,569.7609989729244,Correct,sub_016_day_16_data.csv,1,300,171.0,Training at home,,,,,,,,,,,,,
16,19,4279,A,47.13046185919939,70.43374921320084,2.3565230929599696,1.106370745464888,A,1449.1650410054715,Correct,sub_016_day_16_data.csv,1,300,171.0,Training at home,,,,,,,,,,,,,
16,19,4280,B,45.43667635645354,26.174526462070887,2.271833817822677,0.4111485002221676,B,597.4359160172753,Correct,sub_016_day_16_data.csv,1,300,171.0,Training at home,,,,,,,,,,,,,
16,19,4281,B,74.26119265832955,45.30638025834459,3.713059632916478,0.7116709569018052,B,604.0094160125591,Correct,sub_016_day_16_data.csv,1,300,171.0,Training at home,,,,,,,,,,,,,
16,19,4282,A,49.58495821733378,63.693361881811434,2.479247910866689,1.0004929888516747,B,1366.7491249798331,Incorrect,sub_016_day_16_data.csv,0,300,171.0,Training at home,,,,,,,,,,,,,
16,19,4283,A,69.21131329706006,87.42318691308476,3.460565664853003,1.3732402087977722,A,890.0892079982441,Correct,sub_016_day_16_data.csv,1,300,171.0,Training at home,,,,,,,,,,,,,
16,19,4284,B,36.42655333013833,15.528927487543658,1.821327666506917,0.2439278225649787,B,639.3671660043765,Correct,sub_016_day_16_data.csv,1,300,171.0,Training at home,,,,,,,,,,,,,
16,19,4285,A,52.93629267227027,64.66653914090828,2.6468146336135137,1.0157796214907715,A,2177.8565409767907,Correct,sub_016_day_16_data.csv,1,300,171.0,Training at home,,,,,,,,,,,,,
16,19,4286,A,21.301729290724783,36.731089891389416,1.0650864645362392,0.5769706108056766,A,580.1641670113895,Correct,sub_016_day_16_data.csv,1,300,171.0,Training at home,,,,,,,,,,,,,
16,19,4287,B,36.48646241986529,18.567179449512615,1.8243231209932644,0.291652572782361,B,904.3220829917118,Correct,sub_016_day_16_data.csv,1,300,171.0,Training at home,,,,,,,,,,,,,
16,19,4288,B,54.190210781179296,46.525447865562654,2.7095105390589644,0.7308200260971328,B,576.633207994746,Correct,sub_016_day_16_data.csv,1,300,171.0,Training at home,,,,,,,,,,,,,
16,19,4289,A,20.864297871452564,33.828269542660365,1.0432148935726282,0.5313732153943858,A,593.7469999771565,Correct,sub_016_day_16_data.csv,1,300,171.0,Training at home,,,,,,,,,,,,,
16,19,4290,A,13.932365275258796,31.06402085036187,0.6966182637629399,0.4879524984722851,A,888.8964999932796,Correct,sub_016_day_16_data.csv,1,300,171.0,Training at home,,,,,,,,,,,,,
16,19,4291,B,45.563639885768936,32.33768025414651,2.2781819942884467,0.507959093602812,B,694.8542500031181,Correct,sub_016_day_16_data.csv,1,300,171.0,Training at home,,,,,,,,,,,,,
16,19,4292,A,61.87458554009909,85.13970659717805,3.0937292770049543,1.3373713838724248,A,679.9617500219028,Correct,sub_016_day_16_data.csv,1,300,171.0,Training at home,,,,,,,,,,,,,
16,19,4293,A,58.37279560967389,73.55290112006024,2.918639780483694,1.1553662690449888,A,818.9967500220519,Correct,sub_016_day_16_data.csv,1,300,171.0,Training at home,,,,,,,,,,,,,
16,19,4294,A,28.63117031464888,60.55550547448793,1.431558515732444,0.9512036556653388,A,1000.3610830171964,Correct,sub_016_day_16_data.csv,1,300,171.0,Training at home,,,,,,,,,,,,,
16,19,4295,B,83.31464688665615,64.52163649311416,4.165732344332807,1.0135034960217928,B,701.3753739884123,Correct,sub_016_day_16_data.csv,1,300,171.0,Training at home,,,,,,,,,,,,,
16,19,4296,A,47.81075029679812,74.66468810838644,2.390537514839906,1.1728301782194004,A,707.4570000113454,Correct,sub_016_day_16_data.csv,1,300,171.0,Training at home,,,,,,,,,,,,,
16,19,4297,A,46.45080328625804,67.5373312046454,2.322540164312902,1.0608739177778734,A,1612.4143329798244,Correct,sub_016_day_16_data.csv,1,300,171.0,Training at home,,,,,,,,,,,,,
16,19,4298,A,55.725878886047184,82.34942996886501,2.7862939443023595,1.2935418210874672,A,529.7429999918677,Correct,sub_016_day_16_data.csv,1,300,171.0,Training at home,,,,,,,,,,,,,
16,19,4299,B,31.55265550749969,13.152670197902708,1.5776327753749846,0.2066016603441028,B,672.6138329831883,Correct,sub_016_day_16_data.csv,1,300,171.0,Training at home,,,,,,,,,,,,,
16,19,4300,A,29.32175978924436,38.56969019375548,1.466087989462218,0.6058512768196824,B,776.8111249897629,Incorrect,sub_016_day_16_data.csv,0,300,172.0,Training at home,,,,,,,,,,,,,
16,19,4301,A,60.65365878925454,70.68064502606498,3.032682939462727,1.1102489758243683,A,694.3178329966031,Correct,sub_016_day_16_data.csv,1,300,172.0,Training at home,,,,,,,,,,,,,
16,19,4302,B,76.34335194252444,49.282746184706255,3.8171675971262222,0.774131566813018,B,765.265708003426,Correct,sub_016_day_16_data.csv,1,300,172.0,Training at home,,,,,,,,,,,,,
16,19,4303,B,71.5149451433533,55.17007036319373,3.575747257167665,0.8666094387552069,B,795.313292008359,Correct,sub_016_day_16_data.csv,1,300,172.0,Training at home,,,,,,,,,,,,,
16,19,4304,A,49.83220209829264,69.08413858584018,2.491610104914632,1.0851711113042737,A,633.1953329790849,Correct,sub_016_day_16_data.csv,1,300,172.0,Training at home,,,,,,,,,,,,,
16,19,4305,A,58.26899529319324,73.43366104244367,2.913449764659662,1.1534932502857205,A,874.840625008801,Correct,sub_016_day_16_data.csv,1,300,172.0,Training at home,,,,,,,,,,,,,
16,19,4306,A,44.512748946108246,55.07372291767861,2.225637447305412,0.8650960166200946,A,2447.7527079870924,Correct,sub_016_day_16_data.csv,1,300,172.0,Training at home,,,,,,,,,,,,,
16,19,4307,A,45.90988791198597,67.95714705829499,2.2954943955992984,1.0674683697863037,A,2605.1817490078975,Correct,sub_016_day_16_data.csv,1,300,172.0,Training at home,,,,,,,,,,,,,
16,19,4308,B,43.80857503548553,20.957294930965897,2.190428751774277,0.3291964189711854,B,698.4139580163173,Correct,sub_016_day_16_data.csv,1,300,172.0,Training at home,,,,,,,,,,,,,
16,19,4309,A,53.83807534496501,70.2261155096294,2.69190376724825,1.1031092428759997,A,709.5086250046734,Correct,sub_016_day_16_data.csv,1,300,172.0,Training at home,,,,,,,,,,,,,
16,19,4310,B,49.59035522454636,25.997460096651775,2.479517761227318,0.408367148258175,B,621.170207974501,Correct,sub_016_day_16_data.csv,1,300,172.0,Training at home,,,,,,,,,,,,,
16,19,4311,B,69.9325719027667,54.87691265016815,3.496628595138335,0.8620045281672852,B,603.8157490256708,Correct,sub_016_day_16_data.csv,1,300,172.0,Training at home,,,,,,,,,,,,,
16,19,4312,B,72.53356761196918,52.505568535287054,3.6266783805984586,0.8247555419150661,B,579.1424580093008,Correct,sub_016_day_16_data.csv,1,300,172.0,Training at home,,,,,,,,,,,,,
16,19,4313,B,69.54593016057503,55.929095808703856,3.4772965080287515,0.8785321825727185,B,1320.99316699896,Correct,sub_016_day_16_data.csv,1,300,172.0,Training at home,,,,,,,,,,,,,
16,19,4314,A,38.06445108123991,61.62907594247444,1.9032225540619951,0.9680672611420256,A,2052.3070420022123,Correct,sub_016_day_16_data.csv,1,300,172.0,Training at home,,,,,,,,,,,,,
16,19,4315,B,33.37160203859392,16.01153844020275,1.668580101929696,0.2515086576820576,B,2063.174291019095,Correct,sub_016_day_16_data.csv,1,300,172.0,Training at home,,,,,,,,,,,,,
16,19,4316,A,27.582167300709195,60.08204067242622,1.3791083650354596,0.9437664879458868,A,572.7678330149502,Correct,sub_016_day_16_data.csv,1,300,172.0,Training at home,,,,,,,,,,,,,
16,19,4317,A,49.70317424729157,64.64762854883419,2.485158712364578,1.0154825746050964,A,1794.2740830185355,Correct,sub_016_day_16_data.csv,1,300,172.0,Training at home,,,,,,,,,,,,,
16,19,4318,B,66.34282177808295,53.953259643227355,3.3171410889041475,0.8474958206619285,A,694.460874015931,Incorrect,sub_016_day_16_data.csv,0,300,172.0,Training at home,,,,,,,,,,,,,
16,19,4319,A,25.698638818925275,44.62150116505114,1.2849319409462638,0.7009129012613653,A,679.6703329891898,Correct,sub_016_day_16_data.csv,1,300,172.0,Training at home,,,,,,,,,,,,,
16,19,4320,B,52.924312047572606,34.75911795518453,2.6462156023786303,0.545994948066344,B,2094.144208007492,Correct,sub_016_day_16_data.csv,1,300,172.0,Training at home,,,,,,,,,,,,,
16,19,4321,A,57.870222216988275,78.81177183614723,2.893511110849414,1.2379724170841755,A,817.0135830005165,Correct,sub_016_day_16_data.csv,1,300,172.0,Training at home,,,,,,,,,,,,,
16,19,4322,A,54.91308020908515,63.77713236681314,2.7456540104542575,1.0018088525530198,A,800.8567079959903,Correct,sub_016_day_16_data.csv,1,300,172.0,Training at home,,,,,,,,,,,,,
16,19,4323,B,32.25697746204887,17.61667487481275,1.6128488731024435,0.2767220818369582,B,1139.5607080194168,Correct,sub_016_day_16_data.csv,1,300,172.0,Training at home,,,,,,,,,,,,,
16,19,4324,B,82.79530814582321,55.27207988836865,4.139765407291161,0.8682118006296355,B,724.4338329765014,Correct,sub_016_day_16_data.csv,1,300,172.0,Training at home,,,,,,,,,,,,,
16,19,4325,B,44.67706500996569,19.705838117607136,2.2338532504982846,0.3095385813155215,B,1363.6014579969924,Correct,sub_016_day_16_data.csv,1,300,173.0,Training at home,,,,,,,,,,,,,
16,19,4326,A,30.634664585793985,63.751308619896655,1.5317332292896992,1.0014032140850149,A,690.8422080159653,Correct,sub_016_day_16_data.csv,1,300,173.0,Training at home,,,,,,,,,,,,,
16,19,4327,A,38.62321807271654,59.8579587076959,1.931160903635827,0.9402466166748932,A,873.9754159760196,Correct,sub_016_day_16_data.csv,1,300,173.0,Training at home,,,,,,,,,,,,,
16,19,4328,A,37.21115225067991,61.309444509174355,1.860557612533995,0.963046502328466,A,740.1629160158336,Correct,sub_016_day_16_data.csv,1,300,173.0,Training at home,,,,,,,,,,,,,
16,19,4329,A,55.891269983873215,63.406541484862,2.7945634991936608,0.9959876245918946,A,1501.6052080027291,Correct,sub_016_day_16_data.csv,1,300,173.0,Training at home,,,,,,,,,,,,,
16,19,4330,A,49.985663225797474,59.870193090601035,2.4992831612898736,0.9404387939121728,A,584.6112910076044,Correct,sub_016_day_16_data.csv,1,300,173.0,Training at home,,,,,,,,,,,,,
16,19,4331,B,52.900727297555,23.345659086238257,2.64503636487775,0.3667127553926895,B,568.5127500037197,Correct,sub_016_day_16_data.csv,1,300,173.0,Training at home,,,,,,,,,,,,,
16,19,4332,B,56.80299875132655,41.878919237137296,2.8401499375663275,0.657832525078354,B,558.187042013742,Correct,sub_016_day_16_data.csv,1,300,173.0,Training at home,,,,,,,,,,,,,
16,19,4333,B,88.27036237105838,62.57873214171722,4.413518118552918,0.9829844258369114,B,842.5709579896647,Correct,sub_016_day_16_data.csv,1,300,173.0,Training at home,,,,,,,,,,,,,
16,19,4334,B,54.45376752328696,25.18738533829721,2.7226883761643483,0.3956425237096489,B,567.9011660104152,Correct,sub_016_day_16_data.csv,1,300,173.0,Training at home,,,,,,,,,,,,,
16,19,4335,A,45.43373710821694,69.47312040214494,2.271686855410847,1.0912812233866886,A,1108.7242499925196,Correct,sub_016_day_16_data.csv,1,300,173.0,Training at home,,,,,,,,,,,,,
16,19,4336,B,66.07618106420796,54.00121324500688,3.303809053210398,0.8482490740772474,B,2909.007833019132,Correct,sub_016_day_16_data.csv,1,300,173.0,Training at home,,,,,,,,,,,,,
16,19,4337,A,62.64544245697523,86.94555295941109,3.1322721228487613,1.365737552197941,A,575.8962079999037,Correct,sub_016_day_16_data.csv,1,300,173.0,Training at home,,,,,,,,,,,,,
16,19,4338,A,22.95168676578013,46.60456889149704,1.1475843382890063,0.7320628562662326,A,564.9570410023443,Correct,sub_016_day_16_data.csv,1,300,173.0,Training at home,,,,,,,,,,,,,
16,19,4339,B,80.57052360295901,65.29368461977191,4.028526180147951,1.0256307996364211,B,971.5020830044524,Correct,sub_016_day_16_data.csv,1,300,173.0,Training at home,,,,,,,,,,,,,
16,19,4340,B,36.48755005085209,13.385419287430004,1.8243775025426048,0.2102576744930461,B,1069.5369990135075,Correct,sub_016_day_16_data.csv,1,300,173.0,Training at home,,,,,,,,,,,,,
16,19,4341,B,85.58773372120173,65.1113751257715,4.279386686060087,1.0227670888012648,B,883.6970409902278,Correct,sub_016_day_16_data.csv,1,300,173.0,Training at home,,,,,,,,,,,,,
16,19,4342,A,17.975345101844535,44.55070277418108,0.8987672550922268,0.6998008027381485,A,4047.567791014444,Correct,sub_016_day_16_data.csv,1,300,173.0,Training at home,,,,,,,,,,,,,
16,19,4343,A,32.74273696473725,49.662985216962255,1.6371368482368625,0.7801043475647356,A,968.8442909973674,Correct,sub_016_day_16_data.csv,1,300,173.0,Training at home,,,,,,,,,,,,,
16,19,4344,B,89.55637869064873,65.41658594608263,4.477818934532436,1.0275613291556926,B,602.3878749983851,Correct,sub_016_day_16_data.csv,1,300,173.0,Training at home,,,,,,,,,,,,,
16,19,4345,B,37.06704954062173,17.098003523437733,1.8533524770310863,0.2685748113014219,B,534.1872920107562,Correct,sub_016_day_16_data.csv,1,300,173.0,Training at home,,,,,,,,,,,,,
16,19,4346,B,59.87317385002319,50.02526724751499,2.9936586925011595,0.7857950603932959,B,1223.035583010642,Correct,sub_016_day_16_data.csv,1,300,173.0,Training at home,,,,,,,,,,,,,
16,19,4347,A,51.10494994150679,79.27574644511891,2.5552474970753396,1.2452605131991636,A,962.1700829884504,Correct,sub_016_day_16_data.csv,1,300,173.0,Training at home,,,,,,,,,,,,,
16,19,4348,B,43.93021257286851,21.282216354485957,2.1965106286434257,0.3343002727568081,B,1246.083833015291,Correct,sub_016_day_16_data.csv,1,300,173.0,Training at home,,,,,,,,,,,,,
16,19,4349,B,36.097576138990334,25.169178692778495,1.8048788069495167,0.3953565343906083,A,449.8794160026591,Incorrect,sub_016_day_16_data.csv,0,300,173.0,Training at home,,,,,,,,,,,,,
16,19,4350,B,59.28351250069945,29.54614036918003,2.9641756250349727,0.464109687628744,B,1844.3274160090368,Correct,sub_016_day_16_data.csv,1,300,174.0,Training at home,,,,,,,,,,,,,
16,19,4351,A,28.591932016357333,57.61274238516706,1.4295966008178669,0.9049788411520104,A,842.955708008958,Correct,sub_016_day_16_data.csv,1,300,174.0,Training at home,,,,,,,,,,,,,
16,19,4352,A,35.169496182041776,63.476872366437824,1.7584748091020888,0.99709237949629,A,739.5205830107443,Correct,sub_016_day_16_data.csv,1,300,174.0,Training at home,,,,,,,,,,,,,
16,19,4353,B,39.901886317447165,29.12546021521152,1.9950943158723584,0.4575016592226515,B,775.8211659966037,Correct,sub_016_day_16_data.csv,1,300,174.0,Training at home,,,,,,,,,,,,,
16,19,4354,A,27.04319658919053,54.70290136368271,1.3521598294595265,0.8592711652709634,A,513.5278750094585,Correct,sub_016_day_16_data.csv,1,300,174.0,Training at home,,,,,,,,,,,,,
16,19,4355,A,42.65224967479059,62.45255647411869,2.1326124837395297,0.9810024630849644,A,646.9812919967808,Correct,sub_016_day_16_data.csv,1,300,174.0,Training at home,,,,,,,,,,,,,
16,19,4356,A,59.007159789139145,76.45277322000906,2.950357989456957,1.2009173534727346,A,738.8177080138121,Correct,sub_016_day_16_data.csv,1,300,174.0,Training at home,,,,,,,,,,,,,
16,19,4357,B,55.57016810940318,40.39472693271187,2.7785084054701588,0.634518886877867,B,595.659540995257,Correct,sub_016_day_16_data.csv,1,300,174.0,Training at home,,,,,,,,,,,,,
16,19,4358,A,20.340559609785004,34.373883437465636,1.01702798048925,0.5399436984124696,A,636.9709160062484,Correct,sub_016_day_16_data.csv,1,300,174.0,Training at home,,,,,,,,,,,,,
16,19,4359,A,17.4944404011382,38.60923470091852,0.87472202005691,0.6064724404856486,A,595.8753740123939,Correct,sub_016_day_16_data.csv,1,300,174.0,Training at home,,,,,,,,,,,,,
16,19,4360,B,65.82496205771812,36.99616274714933,3.2912481028859064,0.5811343654872835,B,1169.07295800047,Correct,sub_016_day_16_data.csv,1,300,174.0,Training at home,,,,,,,,,,,,,
16,19,4361,B,39.819728027254186,13.067862961003254,1.9909864013627097,0.2052695113820299,B,604.2674990021624,Correct,sub_016_day_16_data.csv,1,300,174.0,Training at home,,,,,,,,,,,,,
16,19,4362,A,29.68016441738014,61.25290716946887,1.4840082208690069,0.9621584158731048,A,519.7444999939762,Correct,sub_016_day_16_data.csv,1,300,174.0,Training at home,,,,,,,,,,,,,
16,19,4363,A,13.509248794779808,30.50299759937366,0.6754624397389903,0.479139965853297,A,534.0818330005277,Correct,sub_016_day_16_data.csv,1,300,174.0,Training at home,,,,,,,,,,,,,
16,19,4364,B,38.58444932324221,27.79388677166708,1.9292224661621105,0.4365853524828791,B,688.5592500038911,Correct,sub_016_day_16_data.csv,1,300,174.0,Training at home,,,,,,,,,,,,,
16,19,4365,B,44.87363966257401,36.55600524210182,2.2436819831287007,0.5742203875658853,B,2578.21249999688,Correct,sub_016_day_16_data.csv,1,300,174.0,Training at home,,,,,,,,,,,,,
16,19,4366,B,73.21921936343895,50.58513967476608,3.6609609681719473,0.7945895159152935,B,625.0583750079386,Correct,sub_016_day_16_data.csv,1,300,174.0,Training at home,,,,,,,,,,,,,
16,19,4367,A,61.78534646547168,79.27750139256005,3.0892673232735843,1.2452880798491062,A,823.5611659765709,Correct,sub_016_day_16_data.csv,1,300,174.0,Training at home,,,,,,,,,,,,,
16,19,4368,A,67.07618583448834,86.89867540486962,3.353809291724417,1.3650012012931123,A,795.2793330186978,Correct,sub_016_day_16_data.csv,1,300,174.0,Training at home,,,,,,,,,,,,,
16,19,4369,B,39.08784791809764,19.23783127916568,1.9543923959048817,0.3021871470881341,B,865.1870829926338,Correct,sub_016_day_16_data.csv,1,300,174.0,Training at home,,,,,,,,,,,,,
16,19,4370,A,23.05292356181422,34.836211724373044,1.1526461780907111,0.5472059341609449,A,2277.8852909978013,Correct,sub_016_day_16_data.csv,1,300,174.0,Training at home,,,,,,,,,,,,,
16,19,4371,A,48.49395106226223,75.82191872959066,2.4246975531131114,1.1910079143098218,A,1200.9174580161923,Correct,sub_016_day_16_data.csv,1,300,174.0,Training at home,,,,,,,,,,,,,
16,19,4372,A,42.08841765618362,52.56809275077374,2.104420882809181,0.8257376699952881,A,741.4629579870962,Correct,sub_016_day_16_data.csv,1,300,174.0,Training at home,,,,,,,,,,,,,
16,19,4373,A,21.95462056139258,50.708156761918765,1.0977310280696289,0.7965218638016179,A,777.9289580066688,Correct,sub_016_day_16_data.csv,1,300,174.0,Training at home,,,,,,,,,,,,,
16,19,4374,B,55.55345254895144,33.37796179629206,2.777672627447572,0.5242997978551597,B,720.5869579920545,Correct,sub_016_day_16_data.csv,1,300,174.0,Training at home,,,,,,,,,,,,,
16,19,4375,A,19.11178379471917,36.54648797152002,0.9555891897359584,0.5740708906291752,A,655.9493750100955,Correct,sub_016_day_16_data.csv,1,300,175.0,Training at home,,,,,,,,,,,,,
16,19,4376,B,66.68507714159216,39.553748360674085,3.334253857079608,0.6213088263591652,B,522.0012080098968,Correct,sub_016_day_16_data.csv,1,300,175.0,Training at home,,,,,,,,,,,,,
16,19,4377,A,47.66341716118497,71.25718700600254,2.3831708580592483,1.119305276067658,A,620.8690000057686,Correct,sub_016_day_16_data.csv,1,300,175.0,Training at home,,,,,,,,,,,,,
16,19,4378,B,56.658967033844334,37.07657909672355,2.8329483516922163,0.5823975425525381,B,1521.8012080003973,Correct,sub_016_day_16_data.csv,1,300,175.0,Training at home,,,,,,,,,,,,,
16,19,4379,B,66.16828033268234,46.19277292780797,3.308414016634117,0.7255943803947149,A,716.407750005601,Incorrect,sub_016_day_16_data.csv,0,300,175.0,Training at home,,,,,,,,,,,,,
16,19,4380,A,20.772487446608693,46.78792654915523,1.0386243723304347,0.7349430316176245,A,622.1030830056407,Correct,sub_016_day_16_data.csv,1,300,175.0,Training at home,,,,,,,,,,,,,
16,19,4381,B,70.60759952874996,37.449062210257765,3.530379976437498,0.5882484936178648,B,756.7715409968514,Correct,sub_016_day_16_data.csv,1,300,175.0,Training at home,,,,,,,,,,,,,
16,19,4382,B,68.45354937838134,53.22444768553103,3.4226774689190673,0.8360476692011928,B,678.7359159789048,Correct,sub_016_day_16_data.csv,1,300,175.0,Training at home,,,,,,,,,,,,,
16,19,4383,B,78.97005841523777,59.03738269926438,3.948502920761889,0.9273570388758904,B,953.463083016686,Correct,sub_016_day_16_data.csv,1,300,175.0,Training at home,,,,,,,,,,,,,
16,19,4384,B,75.05851827167464,61.56541709108596,3.752925913583732,0.9670673102427358,B,645.0338330178056,Correct,sub_016_day_16_data.csv,1,300,175.0,Training at home,,,,,,,,,,,,,
16,19,4385,B,70.01636286067257,55.17242217894935,3.5008181430336287,0.866646380990709,B,557.7420829795301,Correct,sub_016_day_16_data.csv,1,300,175.0,Training at home,,,,,,,,,,,,,
16,19,4386,B,49.40560378898118,31.253832058184507,2.470280189449059,0.490934045952608,B,671.0324159939773,Correct,sub_016_day_16_data.csv,1,300,175.0,Training at home,,,,,,,,,,,,,
16,19,4387,A,38.92210390332957,70.61060838248156,1.9461051951664785,1.1091488427995495,A,699.3684580083936,Correct,sub_016_day_16_data.csv,1,300,175.0,Training at home,,,,,,,,,,,,,
16,19,4388,A,15.729938643915798,34.39949291770089,0.78649693219579,0.5403459711873162,A,633.6717490048613,Correct,sub_016_day_16_data.csv,1,300,175.0,Training at home,,,,,,,,,,,,,
16,19,4389,A,21.702196561324335,37.04379918828616,1.0851098280662168,0.5818826369548767,A,1980.531374021666,Correct,sub_016_day_16_data.csv,1,300,175.0,Training at home,,,,,,,,,,,,,
16,19,4390,B,41.24729243253665,25.019532787680944,2.0623646216268328,0.3930059020101371,B,1374.4882500031963,Correct,sub_016_day_16_data.csv,1,300,175.0,Training at home,,,,,,,,,,,,,
16,19,4391,A,34.74912597243666,50.744465455675375,1.7374562986218332,0.797092199429454,A,1198.5422500001732,Correct,sub_016_day_16_data.csv,1,300,175.0,Training at home,,,,,,,,,,,,,
16,19,4392,A,42.25425390742028,69.02535038919531,2.112712695371014,1.084247668470787,A,788.496416003909,Correct,sub_016_day_16_data.csv,1,300,175.0,Training at home,,,,,,,,,,,,,
16,19,4393,A,39.50190245883236,60.89119966307558,1.9750951229416185,0.9564767276489377,A,551.4990410010796,Correct,sub_016_day_16_data.csv,1,300,175.0,Training at home,,,,,,,,,,,,,
16,19,4394,B,71.90430879112472,46.12831490503907,3.595215439556236,0.7245818761407365,B,647.9542500164825,Correct,sub_016_day_16_data.csv,1,300,175.0,Training at home,,,,,,,,,,,,,
16,19,4395,B,49.17999034262088,24.06970899788297,2.458999517131044,0.3780861048089664,B,811.5715830062982,Correct,sub_016_day_16_data.csv,1,300,175.0,Training at home,,,,,,,,,,,,,
16,19,4396,B,62.1514914363337,37.318690654603536,3.1075745718166847,0.5862006220104626,B,752.5357909908053,Correct,sub_016_day_16_data.csv,1,300,175.0,Training at home,,,,,,,,,,,,,
16,19,4397,A,35.11019765053452,58.86165347536593,1.7555098825267264,0.9245966906817884,A,752.5246660225093,Correct,sub_016_day_16_data.csv,1,300,175.0,Training at home,,,,,,,,,,,,,
16,19,4398,A,26.70198880924141,56.55004114632769,1.3350994404620704,0.888285969127518,A,765.7865830115043,Correct,sub_016_day_16_data.csv,1,300,175.0,Training at home,,,,,,,,,,,,,
16,19,4399,A,31.91520086361853,49.11675893919609,1.595760043180927,0.7715242452575962,A,704.878832999384,Correct,sub_016_day_16_data.csv,1,300,175.0,Training at home,,,,,,,,,,,,,
16,19,4400,A,62.88049631886439,74.712993507911,3.1440248159432196,1.1735889576607754,B,1896.74058300443,Incorrect,sub_016_day_16_data.csv,0,300,176.0,Training at home,,,,,,,,,,,,,
16,19,4401,B,59.132277488154024,32.361021135690685,2.9566138744077013,0.5083257313127494,B,515.9767500008456,Correct,sub_016_day_16_data.csv,1,300,176.0,Training at home,,,,,,,,,,,,,
16,19,4402,A,31.628130349752745,61.20130958929792,1.5814065174876373,0.9613479229790644,A,508.9525410148781,Correct,sub_016_day_16_data.csv,1,300,176.0,Training at home,,,,,,,,,,,,,
16,19,4403,B,63.30168635005795,37.8932814878936,3.165084317502897,0.5952262737138831,B,940.4465410043484,Correct,sub_016_day_16_data.csv,1,300,176.0,Training at home,,,,,,,,,,,,,
16,19,4404,A,52.90845747460138,72.17584215419475,2.645422873730069,1.1337354773913737,A,1917.0763750153128,Correct,sub_016_day_16_data.csv,1,300,176.0,Training at home,,,,,,,,,,,,,
16,19,4405,A,23.32194281167651,45.59458227157079,1.1660971405838254,0.7161980235393112,A,623.38966599782,Correct,sub_016_day_16_data.csv,1,300,176.0,Training at home,,,,,,,,,,,,,
16,19,4406,B,41.85229214662883,24.38763252810173,2.0926146073314413,0.3830800359436592,B,705.5847079900559,Correct,sub_016_day_16_data.csv,1,300,176.0,Training at home,,,,,,,,,,,,,
16,19,4407,B,64.15537785690294,54.26895169152056,3.207768892845147,0.8524546997605018,B,1499.629083002219,Correct,sub_016_day_16_data.csv,1,300,176.0,Training at home,,,,,,,,,,,,,
16,19,4408,A,25.714353264687055,43.23137148982149,1.2857176632343528,0.6790767953851722,A,659.7659580002073,Correct,sub_016_day_16_data.csv,1,300,176.0,Training at home,,,,,,,,,,,,,
16,19,4409,A,23.37178886407611,37.183967013469285,1.1685894432038055,0.5840843880042016,A,620.0995000253897,Correct,sub_016_day_16_data.csv,1,300,176.0,Training at home,,,,,,,,,,,,,
16,19,4410,B,38.755516506394976,26.08268194034149,1.9377758253197488,0.40970580984848,B,730.2871250140015,Correct,sub_016_day_16_data.csv,1,300,176.0,Training at home,,,,,,,,,,,,,
16,19,4411,B,61.098504950367655,39.92617209361426,3.054925247518383,0.6271588446763019,B,1260.6067080050707,Correct,sub_016_day_16_data.csv,1,300,176.0,Training at home,,,,,,,,,,,,,
16,19,4412,B,80.17987232534692,67.29529173936517,4.008993616267346,1.0570719707478575,B,1316.807333001634,Correct,sub_016_day_16_data.csv,1,300,176.0,Training at home,,,,,,,,,,,,,
16,19,4413,B,81.87915291912051,60.78934956657159,4.093957645956026,0.9548768700742158,B,495.4710830061231,Correct,sub_016_day_16_data.csv,1,300,176.0,Training at home,,,,,,,,,,,,,
16,19,4414,B,46.84015152386885,29.53039661507084,2.3420075761934425,0.4638623853174972,B,678.1331659876741,Correct,sub_016_day_16_data.csv,1,300,176.0,Training at home,,,,,,,,,,,,,
16,19,4415,B,52.545449526913856,42.09145263634493,2.6272724763456927,0.6611709919063198,B,995.768583001336,Correct,sub_016_day_16_data.csv,1,300,176.0,Training at home,,,,,,,,,,,,,
16,19,4416,B,54.516861668376286,24.29653761910655,2.7258430834188143,0.3816491204592659,B,1115.1373739994597,Correct,sub_016_day_16_data.csv,1,300,176.0,Training at home,,,,,,,,,,,,,
16,19,4417,B,37.25758953382043,11.989800314315374,1.8628794766910215,0.1883353429273088,B,703.5523329977877,Correct,sub_016_day_16_data.csv,1,300,176.0,Training at home,,,,,,,,,,,,,
16,19,4418,A,52.25204472085026,69.03356131189759,2.612602236042513,1.0843766453429902,A,759.0319580049254,Correct,sub_016_day_16_data.csv,1,300,176.0,Training at home,,,,,,,,,,,,,
16,19,4419,A,26.68345690962564,38.40748601351792,1.334172845481282,0.6033033795146031,A,647.1051670087036,Correct,sub_016_day_16_data.csv,1,300,176.0,Training at home,,,,,,,,,,,,,
16,19,4420,A,25.76839926651647,50.56132775210523,1.2884199633258238,0.7942154791087975,A,519.2907500022557,Correct,sub_016_day_16_data.csv,1,300,176.0,Training at home,,,,,,,,,,,,,
16,19,4421,B,56.84163516488873,33.51259653584034,2.8420817582444364,0.5264146353985738,B,529.3077910027932,Correct,sub_016_day_16_data.csv,1,300,176.0,Training at home,,,,,,,,,,,,,
16,19,4422,B,36.5861474658577,15.36558458254181,1.8293073732928848,0.2413620382131296,B,674.9686659895815,Correct,sub_016_day_16_data.csv,1,300,176.0,Training at home,,,,,,,,,,,,,
16,19,4423,A,45.42451303676502,55.96889956204303,2.2712256518382508,0.8791574184680968,A,600.1804170082323,Correct,sub_016_day_16_data.csv,1,300,176.0,Training at home,,,,,,,,,,,,,
16,19,4424,A,56.43140253527317,69.19900865607853,2.8215701267636586,1.0869754861481642,A,734.5080410013907,Correct,sub_016_day_16_data.csv,1,300,176.0,Training at home,,,,,,,,,,,,,
16,19,4425,B,54.07434149538855,29.958938551501127,2.7037170747694277,0.4705939063137199,B,477.7323330054059,Correct,sub_016_day_16_data.csv,1,300,177.0,Training at home,,,,,,,,,,,,,
16,19,4426,A,62.314518047213014,86.75811264391088,3.115725902360651,1.3627932466071309,A,696.1515000148211,Correct,sub_016_day_16_data.csv,1,300,177.0,Training at home,,,,,,,,,,,,,
16,19,4427,A,40.2936832554604,61.746048939445025,2.01468416277302,0.9699046686817816,A,654.1773739736527,Correct,sub_016_day_16_data.csv,1,300,177.0,Training at home,,,,,,,,,,,,,
16,19,4428,B,51.64230323309228,25.675373622117725,2.5821151616546136,0.403307825747091,B,601.0778330091853,Correct,sub_016_day_16_data.csv,1,300,177.0,Training at home,,,,,,,,,,,,,
16,19,4429,A,50.12118399478757,60.97619077679662,2.5060591997393784,0.9578117649413695,A,1546.1295830027666,Correct,sub_016_day_16_data.csv,1,300,177.0,Training at home,,,,,,,,,,,,,
16,19,4430,A,64.40864293121089,85.77770661313156,3.2204321465605448,1.3473930646879737,A,626.5956239949446,Correct,sub_016_day_16_data.csv,1,300,177.0,Training at home,,,,,,,,,,,,,
16,19,4431,B,50.34097707798448,21.039855747918125,2.5170488538992237,0.3304932812512428,B,577.7780410135165,Correct,sub_016_day_16_data.csv,1,300,177.0,Training at home,,,,,,,,,,,,,
16,19,4432,B,89.33645602702235,68.44829320701747,4.4668228013511175,1.075183275449631,B,721.4296239835676,Correct,sub_016_day_16_data.csv,1,300,177.0,Training at home,,,,,,,,,,,,,
16,19,4433,B,53.817491766358216,22.568829991286428,2.690874588317911,0.3545103525037122,B,928.733957989607,Correct,sub_016_day_16_data.csv,1,300,177.0,Training at home,,,,,,,,,,,,,
16,19,4434,A,22.560927760604184,51.591290916675135,1.1280463880302092,0.8103941026652022,A,732.7091239858419,Correct,sub_016_day_16_data.csv,1,300,177.0,Training at home,,,,,,,,,,,,,
16,19,4435,A,23.62847772880548,44.79864576486996,1.181423886440274,0.7036954821284348,A,447.9457499983255,Correct,sub_016_day_16_data.csv,1,300,177.0,Training at home,,,,,,,,,,,,,
16,19,4436,B,48.83154879245714,19.995130580576067,2.441577439622857,0.3140827766975319,B,533.3625420171302,Correct,sub_016_day_16_data.csv,1,300,177.0,Training at home,,,,,,,,,,,,,
16,19,4437,B,68.91112313311727,46.71204045716895,3.4455561566558632,0.733751015672156,B,513.0207909969613,Correct,sub_016_day_16_data.csv,1,300,177.0,Training at home,,,,,,,,,,,,,
16,19,4438,A,58.41215164790265,73.12848537799005,2.9206075823951325,1.1486995621582106,A,604.2355409881566,Correct,sub_016_day_16_data.csv,1,300,177.0,Training at home,,,,,,,,,,,,,
16,19,4439,B,50.48288308869679,22.62103732821831,2.5241441544348393,0.3553304234345556,B,664.1589170030784,Correct,sub_016_day_16_data.csv,1,300,177.0,Training at home,,,,,,,,,,,,,
16,19,4440,A,66.09884143970524,89.41794243766573,3.304942071985262,1.404573755306428,A,587.5483740237541,Correct,sub_016_day_16_data.csv,1,300,177.0,Training at home,,,,,,,,,,,,,
16,19,4441,B,60.51406365324645,33.23150876252135,3.025703182662322,0.5219993189802096,B,803.2571659714449,Correct,sub_016_day_16_data.csv,1,300,177.0,Training at home,,,,,,,,,,,,,
16,19,4442,B,67.7995410315079,38.366752443966696,3.389977051575394,0.6026635381003201,B,813.3236250141636,Correct,sub_016_day_16_data.csv,1,300,177.0,Training at home,,,,,,,,,,,,,
16,19,4443,A,22.43350581666362,45.608742280703645,1.121675290833181,0.7164204484426437,A,757.5170409982093,Correct,sub_016_day_16_data.csv,1,300,177.0,Training at home,,,,,,,,,,,,,
16,19,4444,B,53.21940920621727,26.73211456317833,2.6609704603108635,0.4199070736330088,B,1036.1069579957984,Correct,sub_016_day_16_data.csv,1,300,177.0,Training at home,,,,,,,,,,,,,
16,19,4445,B,64.95439727138212,32.44075951383929,3.247719863569106,0.5095782588277534,A,790.6567079771776,Incorrect,sub_016_day_16_data.csv,0,300,177.0,Training at home,,,,,,,,,,,,,
16,19,4446,A,21.380318106496546,43.60601396912299,1.0690159053248272,0.6849616656886535,A,882.9259579943027,Correct,sub_016_day_16_data.csv,1,300,177.0,Training at home,,,,,,,,,,,,,
16,19,4447,B,68.9405899492282,43.095405122579095,3.4470294974614095,0.6769410406828521,B,682.9574579896871,Correct,sub_016_day_16_data.csv,1,300,177.0,Training at home,,,,,,,,,,,,,
16,19,4448,B,45.91008243955228,29.2049121581784,2.2955041219776144,0.4587496874243425,B,920.2549170004204,Correct,sub_016_day_16_data.csv,1,300,177.0,Training at home,,,,,,,,,,,,,
16,19,4449,A,39.885673250852065,49.302124507444674,1.994283662542603,0.7744359607947874,A,598.1340410071425,Correct,sub_016_day_16_data.csv,1,300,177.0,Training at home,,,,,,,,,,,,,
16,19,4450,A,19.05577204010243,49.2445394265866,0.9527886020051214,0.773531416459887,A,935.8499579830096,Correct,sub_016_day_16_data.csv,1,300,178.0,Training at home,,,,,,,,,,,,,
16,19,4451,A,44.027365511580015,61.66833283848108,2.2013682755790005,0.9686839070225116,A,641.4785830129404,Correct,sub_016_day_16_data.csv,1,300,178.0,Training at home,,,,,,,,,,,,,
16,19,4452,B,67.4731860998123,35.21659270442639,3.373659304990615,0.5531809446234492,A,856.3596250023693,Incorrect,sub_016_day_16_data.csv,0,300,178.0,Training at home,,,,,,,,,,,,,
16,19,4453,A,58.34248658094023,69.14474042546699,2.9171243290470112,1.0861230427751014,A,807.8939580009319,Correct,sub_016_day_16_data.csv,1,300,178.0,Training at home,,,,,,,,,,,,,
16,19,4454,A,20.40929085507681,48.202171691184105,1.0204645427538406,0.7571579423604894,A,1394.3717080110218,Correct,sub_016_day_16_data.csv,1,300,178.0,Training at home,,,,,,,,,,,,,
16,19,4455,A,45.77133745004872,73.79498067980649,2.288566872502436,1.159168845877404,A,513.6621660203673,Correct,sub_016_day_16_data.csv,1,300,178.0,Training at home,,,,,,,,,,,,,
16,19,4456,A,21.398692839474716,44.02440563938111,1.069934641973736,0.6915337466766837,A,739.3953739956487,Correct,sub_016_day_16_data.csv,1,300,178.0,Training at home,,,,,,,,,,,,,
16,19,4457,B,63.42712081333843,53.57866842077112,3.1713560406669217,0.84161175549909,A,1494.4605409982614,Incorrect,sub_016_day_16_data.csv,0,300,178.0,Training at home,,,,,,,,,,,,,
16,19,4458,A,55.7485438412121,68.0469580122173,2.787427192060605,1.068879116951575,A,1037.8212080104277,Correct,sub_016_day_16_data.csv,1,300,178.0,Training at home,,,,,,,,,,,,,
16,19,4459,B,89.44574818910773,67.75966984901564,4.472287409455387,1.0643664050366866,B,473.4304159937892,Correct,sub_016_day_16_data.csv,1,300,178.0,Training at home,,,,,,,,,,,,,
16,19,4460,B,47.14113402843692,34.54397363123465,2.357056701421846,0.5426154689284316,B,1508.163916005287,Correct,sub_016_day_16_data.csv,1,300,178.0,Training at home,,,,,,,,,,,,,
16,19,4461,A,23.754546888772182,40.635811067076546,1.1877273444386092,0.6383058276049525,A,583.3450830250513,Correct,sub_016_day_16_data.csv,1,300,178.0,Training at home,,,,,,,,,,,,,
16,19,4462,A,16.860913963146643,32.9079062293483,0.8430456981573322,0.516916182275712,A,529.9278330057859,Correct,sub_016_day_16_data.csv,1,300,178.0,Training at home,,,,,,,,,,,,,
16,19,4463,B,44.7793826607646,24.257624320120875,2.23896913303823,0.3810378717881642,B,906.3449159730226,Correct,sub_016_day_16_data.csv,1,300,178.0,Training at home,,,,,,,,,,,,,
16,19,4464,A,28.40752501365413,50.891731263711534,1.4203762506827065,0.7994054453327107,A,615.8541250042617,Correct,sub_016_day_16_data.csv,1,300,178.0,Training at home,,,,,,,,,,,,,
16,19,4465,B,70.17358150105957,50.046668593387835,3.508679075052979,0.7861312319481513,B,512.1293750125915,Correct,sub_016_day_16_data.csv,1,300,178.0,Training at home,,,,,,,,,,,,,
16,19,4466,A,58.14328682163829,79.20784358662537,2.9071643410819146,1.2441938975921585,A,658.5874159936793,Correct,sub_016_day_16_data.csv,1,300,178.0,Training at home,,,,,,,,,,,,,
16,19,4467,B,64.14924591875297,42.796891203881025,3.207462295937648,0.6722519950129713,B,1063.6921249970328,Correct,sub_016_day_16_data.csv,1,300,178.0,Training at home,,,,,,,,,,,,,
16,19,4468,A,21.966249574134967,53.883613711822775,1.0983124787067482,0.8464018249296633,A,575.4852489917539,Correct,sub_016_day_16_data.csv,1,300,178.0,Training at home,,,,,,,,,,,,,
16,19,4469,A,50.6312149087074,68.43773168372867,2.5315607454353697,1.0750173754297572,A,783.3483750000596,Correct,sub_016_day_16_data.csv,1,300,178.0,Training at home,,,,,,,,,,,,,
16,19,4470,B,48.41277125518624,36.25288727588515,2.420638562759312,0.5694590216866985,A,981.6506250062956,Incorrect,sub_016_day_16_data.csv,0,300,178.0,Training at home,,,,,,,,,,,,,
16,19,4471,A,22.833634705301225,38.00548394413761,1.1416817352650612,0.5969887457751378,A,1869.5327080204152,Correct,sub_016_day_16_data.csv,1,300,178.0,Training at home,,,,,,,,,,,,,
16,19,4472,A,55.37821463182115,78.2452875833699,2.7689107315910575,1.2290741032496777,A,700.2001660002861,Correct,sub_016_day_16_data.csv,1,300,178.0,Training at home,,,,,,,,,,,,,
16,19,4473,B,68.91481354347772,48.161668565849226,3.445740677173886,0.7565217207554918,B,702.3022499924991,Correct,sub_016_day_16_data.csv,1,300,178.0,Training at home,,,,,,,,,,,,,
16,19,4474,A,56.36183779543444,76.7236811213064,2.818091889771722,1.2051727648353106,A,509.0899160131812,Correct,sub_016_day_16_data.csv,1,300,178.0,Training at home,,,,,,,,,,,,,
16,19,4475,A,24.07696683631991,37.87190403490334,1.2038483418159955,0.5948904774675499,A,446.48654098273255,Correct,sub_016_day_16_data.csv,1,300,179.0,Training at home,,,,,,,,,,,,,
16,19,4476,A,65.91008153882905,84.27505531461,3.2955040769414525,1.323789473286261,A,833.1043740035966,Correct,sub_016_day_16_data.csv,1,300,179.0,Training at home,,,,,,,,,,,,,
16,19,4477,A,29.19586467249745,56.09926442132515,1.459793233624873,0.8812051848891317,B,855.7905000052415,Incorrect,sub_016_day_16_data.csv,0,300,179.0,Training at home,,,,,,,,,,,,,
16,19,4478,B,59.57196223420405,40.54729971245358,2.9785981117102027,0.6369154944977384,B,697.1328750078101,Correct,sub_016_day_16_data.csv,1,300,179.0,Training at home,,,,,,,,,,,,,
16,19,4479,B,54.460877702436726,32.238090862947196,2.723043885121836,0.5063947471039758,B,748.9843330113217,Correct,sub_016_day_16_data.csv,1,300,179.0,Training at home,,,,,,,,,,,,,
16,19,4480,B,67.32451218619687,36.05487374156895,3.366225609309844,0.5663486323631027,B,702.7968329784926,Correct,sub_016_day_16_data.csv,1,300,179.0,Training at home,,,,,,,,,,,,,
16,19,4481,B,45.807610329654366,35.02432654116642,2.2903805164827187,0.5501608347932921,B,724.2437920067459,Correct,sub_016_day_16_data.csv,1,300,179.0,Training at home,,,,,,,,,,,,,
16,19,4482,B,70.0601849829882,61.164069052776334,3.50300924914941,0.9607629499993048,A,716.5367910056375,Incorrect,sub_016_day_16_data.csv,0,300,179.0,Training at home,,,,,,,,,,,,,
16,19,4483,B,71.44701751484139,39.24799689711659,3.572350875742069,0.6165060936004824,B,643.2951659953687,Correct,sub_016_day_16_data.csv,1,300,179.0,Training at home,,,,,,,,,,,,,
16,19,4484,B,51.63508790502002,39.26953075365546,2.581754395251001,0.6168443466280122,B,1150.8887079835404,Correct,sub_016_day_16_data.csv,1,300,179.0,Training at home,,,,,,,,,,,,,
16,19,4485,B,65.49662934330433,33.77105288514807,3.274831467165217,0.5304744582398678,B,599.8777080094442,Correct,sub_016_day_16_data.csv,1,300,179.0,Training at home,,,,,,,,,,,,,
16,19,4486,B,39.53814852390228,24.298373152072244,1.976907426195114,0.3816779529436681,B,595.2579579898156,Correct,sub_016_day_16_data.csv,1,300,179.0,Training at home,,,,,,,,,,,,,
16,19,4487,B,77.83346219554983,57.549716296754994,3.891673109777491,0.9039888296703112,B,872.2520410083234,Correct,sub_016_day_16_data.csv,1,300,179.0,Training at home,,,,,,,,,,,,,
16,19,4488,B,75.55078054874687,45.1728084696598,3.777539027437343,0.70957281615151,B,823.5464580066036,Correct,sub_016_day_16_data.csv,1,300,179.0,Training at home,,,,,,,,,,,,,
16,19,4489,B,60.316930767013666,30.073350849212947,3.015846538350683,0.4723910904835788,B,717.7118329855148,Correct,sub_016_day_16_data.csv,1,300,179.0,Training at home,,,,,,,,,,,,,
16,19,4490,B,57.70174553231755,35.98796121253951,2.8850872766158777,0.5652975728149426,B,509.35725000454113,Correct,sub_016_day_16_data.csv,1,300,179.0,Training at home,,,,,,,,,,,,,
16,19,4491,A,46.69259884089909,68.9572975065711,2.334629942044954,1.0831786962902474,A,943.5687079967464,Correct,sub_016_day_16_data.csv,1,300,179.0,Training at home,,,,,,,,,,,,,
16,19,4492,A,58.0243716286442,85.93673844230923,2.90121858143221,1.3498911308191313,A,648.3044580090791,Correct,sub_016_day_16_data.csv,1,300,179.0,Training at home,,,,,,,,,,,,,
16,19,4493,B,43.755424941095455,30.542626505330688,2.1877712470547728,0.4797624552524188,B,628.5078329965472,Correct,sub_016_day_16_data.csv,1,300,179.0,Training at home,,,,,,,,,,,,,
16,19,4494,A,22.759886772949244,46.266347336947305,1.1379943386474622,0.7267500845109367,A,550.7677500136197,Correct,sub_016_day_16_data.csv,1,300,179.0,Training at home,,,,,,,,,,,,,
16,19,4495,B,76.82926096541803,51.07277730640388,3.8414630482709016,0.8022493099211295,B,561.6808749909978,Correct,sub_016_day_16_data.csv,1,300,179.0,Training at home,,,,,,,,,,,,,
16,19,4496,B,35.737204419591166,20.136538374564285,1.7868602209795583,0.3163040051313006,B,865.928957995493,Correct,sub_016_day_16_data.csv,1,300,179.0,Training at home,,,,,,,,,,,,,
16,19,4497,A,40.10635209740748,52.09313381064579,2.005317604870374,0.8182770324099745,A,569.5180410111789,Correct,sub_016_day_16_data.csv,1,300,179.0,Training at home,,,,,,,,,,,,,
16,19,4498,A,61.82713796748397,87.3737169802485,3.0913568983741984,1.3724631369099125,A,587.0798329997342,Correct,sub_016_day_16_data.csv,1,300,179.0,Training at home,,,,,,,,,,,,,
16,19,4499,B,34.75192437707853,20.329439738631365,1.7375962188539265,0.3193340926724035,B,1191.4748330018483,Correct,sub_016_day_16_data.csv,1,300,179.0,Training at home,,,,,,,,,,,,,
