subject,day,trial,cat,x,y,xt,yt,resp,rt,fb,f_name,acc,n_trials,block,session_type,ns_left_digit,ns_right_digit,ns_left_size,ns_right_size,ns_congruent,ns_cue,ns_correct_side,ns_resp,ns_rt,ns_fb,acc_stroop,acc_stroop_mean,resp_key
16,4,600,A,24.699328130719785,43.91527300411982,1.234966406535989,0.689819495250665,B,2638.9410409974516,Incorrect,sub_016_day_04_data.csv,0,300,24.0,Training at home,,,,,,,,,,,,,
16,4,601,A,41.40393199596208,57.06089578091933,2.070196599798104,0.8963104549629449,A,3054.7937490046024,Correct,sub_016_day_04_data.csv,1,300,24.0,Training at home,,,,,,,,,,,,,
16,4,602,A,66.52954802343974,80.38816558440539,3.3264774011719873,1.2627343521776389,B,1489.7074990003605,Incorrect,sub_016_day_04_data.csv,0,300,24.0,Training at home,,,,,,,,,,,,,
16,4,603,B,75.07076564104612,50.13196279744534,3.753538282052306,0.7874710301724555,B,1585.1368330040714,Correct,sub_016_day_04_data.csv,1,300,24.0,Training at home,,,,,,,,,,,,,
16,4,604,B,40.62098222384691,17.96248275663808,2.0310491111923454,0.2821540193424377,B,775.3379989953828,Correct,sub_016_day_04_data.csv,1,300,24.0,Training at home,,,,,,,,,,,,,
16,4,605,B,41.713973810021,19.391827516649812,2.08569869050105,0.3046061143299372,B,1846.5801659986028,Correct,sub_016_day_04_data.csv,1,300,24.0,Training at home,,,,,,,,,,,,,
16,4,606,A,22.40200703912736,40.200364553900954,1.120100351956368,0.6314658497708338,A,1680.0438320060491,Correct,sub_016_day_04_data.csv,1,300,24.0,Training at home,,,,,,,,,,,,,
16,4,607,B,66.13638481943308,45.81774824800185,3.306819240971654,0.7197035064997461,B,1747.4538320020656,Correct,sub_016_day_04_data.csv,1,300,24.0,Training at home,,,,,,,,,,,,,
16,4,608,A,38.15308922222419,47.41782427517119,1.9076544611112096,0.7448374419604479,A,1341.9211239961442,Correct,sub_016_day_04_data.csv,1,300,24.0,Training at home,,,,,,,,,,,,,
16,4,609,A,43.4877316015322,54.8168764080928,2.17438658007661,0.86106148108202,A,660.149540999555,Correct,sub_016_day_04_data.csv,1,300,24.0,Training at home,,,,,,,,,,,,,
16,4,610,A,40.99541669827576,68.90153246809226,2.049770834913788,1.082302741114186,A,811.1276249983348,Correct,sub_016_day_04_data.csv,1,300,24.0,Training at home,,,,,,,,,,,,,
16,4,611,B,48.94108676872375,19.751313893068,2.4470543384361876,0.3102529131260422,B,1294.209123996552,Correct,sub_016_day_04_data.csv,1,300,24.0,Training at home,,,,,,,,,,,,,
16,4,612,B,47.39923076577253,21.57176771374756,2.3699615382886265,0.338848534872274,B,1194.0425409993622,Correct,sub_016_day_04_data.csv,1,300,24.0,Training at home,,,,,,,,,,,,,
16,4,613,A,23.410608817292456,43.03813489268808,1.1705304408646229,0.6760414420153771,A,534.1813740014913,Correct,sub_016_day_04_data.csv,1,300,24.0,Training at home,,,,,,,,,,,,,
16,4,614,A,56.6385180984377,69.2937918711302,2.831925904921885,1.0884643374086138,A,1705.3509160032263,Correct,sub_016_day_04_data.csv,1,300,24.0,Training at home,,,,,,,,,,,,,
16,4,615,B,76.29417122967712,63.19830330642937,3.814708561483856,0.9927166269340902,B,822.3037489951821,Correct,sub_016_day_04_data.csv,1,300,24.0,Training at home,,,,,,,,,,,,,
16,4,616,A,12.941362583495124,38.36621050372543,0.6470681291747562,0.6026550253229169,A,550.3231250040699,Correct,sub_016_day_04_data.csv,1,300,24.0,Training at home,,,,,,,,,,,,,
16,4,617,B,32.9222713664471,13.341507267331568,1.646113568322355,0.2095679060943184,B,1310.6681249992107,Correct,sub_016_day_04_data.csv,1,300,24.0,Training at home,,,,,,,,,,,,,
16,4,618,A,66.25510609203302,83.83426520503663,3.312755304601651,1.3168655584362077,A,2969.6047069955966,Correct,sub_016_day_04_data.csv,1,300,24.0,Training at home,,,,,,,,,,,,,
16,4,619,B,54.90426750377315,30.635604853386234,2.745213375188657,0.48122295572839,B,3677.213415998267,Correct,sub_016_day_04_data.csv,1,300,24.0,Training at home,,,,,,,,,,,,,
16,4,620,A,46.05258038287926,60.72393056080155,2.302629019143963,0.9538492707345544,A,1156.0161660017911,Correct,sub_016_day_04_data.csv,1,300,24.0,Training at home,,,,,,,,,,,,,
16,4,621,B,76.50451441941475,45.032426691127974,3.8252257209707374,0.7073677043308427,B,1533.053540995752,Correct,sub_016_day_04_data.csv,1,300,24.0,Training at home,,,,,,,,,,,,,
16,4,622,A,20.835717093878152,33.82240723284278,1.0417858546939076,0.5312811304471058,A,1623.4493739975733,Correct,sub_016_day_04_data.csv,1,300,24.0,Training at home,,,,,,,,,,,,,
16,4,623,A,21.61712424747378,50.05077352211178,1.080856212373689,0.7861957120177645,A,731.7379579981207,Correct,sub_016_day_04_data.csv,1,300,24.0,Training at home,,,,,,,,,,,,,
16,4,624,A,46.37940324689038,70.07594373645736,2.318970162344519,1.1007503501791305,A,1782.56595700077,Correct,sub_016_day_04_data.csv,1,300,24.0,Training at home,,,,,,,,,,,,,
16,4,625,B,68.3051835207982,36.18698638280559,3.41525917603991,0.5684238528788795,B,984.292415996606,Correct,sub_016_day_04_data.csv,1,300,25.0,Training at home,,,,,,,,,,,,,
16,4,626,B,56.874341540062986,32.83127684271207,2.843717077003149,0.5157124906851847,B,2503.231249000237,Correct,sub_016_day_04_data.csv,1,300,25.0,Training at home,,,,,,,,,,,,,
16,4,627,B,57.09519821448406,33.25178039651334,2.854759910724203,0.522317745062337,B,681.7262910044519,Correct,sub_016_day_04_data.csv,1,300,25.0,Training at home,,,,,,,,,,,,,
16,4,628,A,45.26531190034699,70.02668673273078,2.2632655950173497,1.0999766229739043,A,969.2231660010292,Correct,sub_016_day_04_data.csv,1,300,25.0,Training at home,,,,,,,,,,,,,
16,4,629,A,25.675896697984623,43.509123643634105,1.283794834899231,0.6834397160148544,A,2187.137207998603,Correct,sub_016_day_04_data.csv,1,300,25.0,Training at home,,,,,,,,,,,,,
16,4,630,A,48.017549054007794,54.82654495156174,2.4008774527003895,0.8612133542076846,A,716.1210409976775,Correct,sub_016_day_04_data.csv,1,300,25.0,Training at home,,,,,,,,,,,,,
16,4,631,A,48.27597706135795,68.92289036073359,2.413798853067897,1.082638230107277,A,1287.9816250060685,Correct,sub_016_day_04_data.csv,1,300,25.0,Training at home,,,,,,,,,,,,,
16,4,632,B,87.02090191097112,64.3317261289395,4.351045095548556,1.010520390997134,B,1056.2362909986405,Correct,sub_016_day_04_data.csv,1,300,25.0,Training at home,,,,,,,,,,,,,
16,4,633,A,36.72295982418979,69.33418555426225,1.8361479912094896,1.0890988398995094,A,1117.761875000724,Correct,sub_016_day_04_data.csv,1,300,25.0,Training at home,,,,,,,,,,,,,
16,4,634,B,69.98016309693594,42.7885054000631,3.499008154846797,0.6721202711146271,B,1140.0522909971187,Correct,sub_016_day_04_data.csv,1,300,25.0,Training at home,,,,,,,,,,,,,
16,4,635,B,53.32370289480052,26.854544520205224,2.666185144740026,0.4218301989008838,B,1256.5391660027672,Correct,sub_016_day_04_data.csv,1,300,25.0,Training at home,,,,,,,,,,,,,
16,4,636,B,73.0890934629206,62.75607589021136,3.65445467314603,0.9857701349240576,B,1959.388832001423,Correct,sub_016_day_04_data.csv,1,300,25.0,Training at home,,,,,,,,,,,,,
16,4,637,A,36.30115756811873,56.39493436981939,1.8150578784059368,0.8858495575795156,A,1009.7006659998442,Correct,sub_016_day_04_data.csv,1,300,25.0,Training at home,,,,,,,,,,,,,
16,4,638,B,74.45359891212303,43.59752835537147,3.722679945606151,0.6848283739795387,B,1522.362040996086,Correct,sub_016_day_04_data.csv,1,300,25.0,Training at home,,,,,,,,,,,,,
16,4,639,B,68.88830422252526,52.20247791119834,3.4444152111262634,0.8199946055250209,B,864.4083330000285,Correct,sub_016_day_04_data.csv,1,300,25.0,Training at home,,,,,,,,,,,,,
16,4,640,A,27.36535181662469,50.67180258164624,1.3682675908312345,0.7959508136732607,A,625.6397909965017,Correct,sub_016_day_04_data.csv,1,300,25.0,Training at home,,,,,,,,,,,,,
16,4,641,A,57.945751899512814,66.96212220825109,2.8972875949756407,1.051838555991118,A,1191.3939990045037,Correct,sub_016_day_04_data.csv,1,300,25.0,Training at home,,,,,,,,,,,,,
16,4,642,A,14.248924046187078,31.056136955389796,0.712446202309354,0.4878286585396553,A,573.9866660005646,Correct,sub_016_day_04_data.csv,1,300,25.0,Training at home,,,,,,,,,,,,,
16,4,643,B,78.88532764534108,47.5786633346074,3.944266382267054,0.7473638959981233,B,2125.794290994236,Correct,sub_016_day_04_data.csv,1,300,25.0,Training at home,,,,,,,,,,,,,
16,4,644,A,52.57349744054944,78.7378947534534,2.628674872027472,1.2368119585828778,A,1751.5903750027064,Correct,sub_016_day_04_data.csv,1,300,25.0,Training at home,,,,,,,,,,,,,
16,4,645,B,61.20271062177691,45.46176577277783,3.060135531088846,0.7141117468548936,B,1416.671207996842,Correct,sub_016_day_04_data.csv,1,300,25.0,Training at home,,,,,,,,,,,,,
16,4,646,A,55.11854010932567,75.66856133744086,2.7559270054662837,1.1885989820270644,A,821.15258200065,Correct,sub_016_day_04_data.csv,1,300,25.0,Training at home,,,,,,,,,,,,,
16,4,647,B,59.575588711725786,38.10039726350505,2.9787794355862895,0.5984796407094007,A,1427.344124997035,Incorrect,sub_016_day_04_data.csv,0,300,25.0,Training at home,,,,,,,,,,,,,
16,4,648,A,28.26136216843673,45.84178165706349,1.4130681084218364,0.7200810224064899,A,917.511416002526,Correct,sub_016_day_04_data.csv,1,300,25.0,Training at home,,,,,,,,,,,,,
16,4,649,B,70.06207415286104,46.25978930597024,3.503103707643052,0.726647071201239,B,979.816375001974,Correct,sub_016_day_04_data.csv,1,300,25.0,Training at home,,,,,,,,,,,,,
16,4,650,B,56.08571150631874,24.24971938181049,2.804285575315937,0.3809137013075492,B,1016.3659160025418,Correct,sub_016_day_04_data.csv,1,300,26.0,Training at home,,,,,,,,,,,,,
16,4,651,A,44.36840894381849,66.79815584067,2.2184204471909243,1.0492629783119751,A,942.8420409967656,Correct,sub_016_day_04_data.csv,1,300,26.0,Training at home,,,,,,,,,,,,,
16,4,652,B,82.28658011423123,61.08507646737583,4.114329005711562,0.9595221373693932,B,2504.2988739951397,Correct,sub_016_day_04_data.csv,1,300,26.0,Training at home,,,,,,,,,,,,,
16,4,653,B,65.29106256860538,45.66017541401184,3.2645531284302693,0.7172283582114045,A,1981.5070830009065,Incorrect,sub_016_day_04_data.csv,0,300,26.0,Training at home,,,,,,,,,,,,,
16,4,654,B,51.3022844998042,40.856950174002954,2.5651142249902104,0.6417794725736595,A,763.7336240004515,Incorrect,sub_016_day_04_data.csv,0,300,26.0,Training at home,,,,,,,,,,,,,
16,4,655,B,55.3727737088136,38.57187239239923,2.76863868544068,0.605885554715822,B,728.7241660014843,Correct,sub_016_day_04_data.csv,1,300,26.0,Training at home,,,,,,,,,,,,,
16,4,656,B,59.85596333799875,52.51352221613626,2.9927981668999375,0.8248804780416904,B,1436.1724999980652,Correct,sub_016_day_04_data.csv,1,300,26.0,Training at home,,,,,,,,,,,,,
16,4,657,B,77.7771454151268,56.51905623518225,3.88885727075634,0.8877992592813846,B,1120.4678320063977,Correct,sub_016_day_04_data.csv,1,300,26.0,Training at home,,,,,,,,,,,,,
16,4,658,B,58.28133028155221,42.19567664416154,2.9140665140776103,0.6628081387927415,A,998.655208000855,Incorrect,sub_016_day_04_data.csv,0,300,26.0,Training at home,,,,,,,,,,,,,
16,4,659,A,37.446425097328,66.79028598911972,1.8723212548663997,1.049139358972899,A,680.5281240012846,Correct,sub_016_day_04_data.csv,1,300,26.0,Training at home,,,,,,,,,,,,,
16,4,660,B,66.72134457684517,58.06341868234677,3.336067228842259,0.9120580478738448,B,4366.903415997513,Correct,sub_016_day_04_data.csv,1,300,26.0,Training at home,,,,,,,,,,,,,
16,4,661,B,54.221660676264214,26.677657828592466,2.711083033813211,0.4190516692464416,B,907.1272500004852,Correct,sub_016_day_04_data.csv,1,300,26.0,Training at home,,,,,,,,,,,,,
16,4,662,B,63.35944777611339,39.54085685223945,3.1679723888056697,0.6211063270182055,B,753.5182909996365,Correct,sub_016_day_04_data.csv,1,300,26.0,Training at home,,,,,,,,,,,,,
16,4,663,B,55.24836838931236,38.28167849128541,2.762418419465618,0.6013271995765432,B,775.6104580039391,Correct,sub_016_day_04_data.csv,1,300,26.0,Training at home,,,,,,,,,,,,,
16,4,664,A,54.142689556692694,67.2254734338318,2.707134477834635,1.055975267369109,A,1859.1808740020497,Correct,sub_016_day_04_data.csv,1,300,26.0,Training at home,,,,,,,,,,,,,
16,4,665,A,54.9786574233511,68.41894549566237,2.7489328711675554,1.0747222826776668,A,694.4121240012464,Correct,sub_016_day_04_data.csv,1,300,26.0,Training at home,,,,,,,,,,,,,
16,4,666,B,77.55924635506392,46.58273567843231,3.877962317753196,0.7317199009573904,B,1275.9634159956477,Correct,sub_016_day_04_data.csv,1,300,26.0,Training at home,,,,,,,,,,,,,
16,4,667,B,45.710212046143575,32.747951597665434,2.2855106023071787,0.5144036207966993,B,1371.7145830014488,Correct,sub_016_day_04_data.csv,1,300,26.0,Training at home,,,,,,,,,,,,,
16,4,668,B,33.37236561078602,14.821947371530452,1.6686182805393008,0.2328226048714731,A,2823.309915998834,Incorrect,sub_016_day_04_data.csv,0,300,26.0,Training at home,,,,,,,,,,,,,
16,4,669,B,75.60979146478712,46.09971010869245,3.780489573239356,0.7241325530504366,B,2131.687998997222,Correct,sub_016_day_04_data.csv,1,300,26.0,Training at home,,,,,,,,,,,,,
16,4,670,A,49.283567836821824,71.59261060143507,2.464178391841091,1.1245740975839158,A,930.0212910020492,Correct,sub_016_day_04_data.csv,1,300,26.0,Training at home,,,,,,,,,,,,,
16,4,671,A,53.014538597745144,82.62726809321921,2.6507269298872576,1.2979060921392591,A,760.2367079962278,Correct,sub_016_day_04_data.csv,1,300,26.0,Training at home,,,,,,,,,,,,,
16,4,672,A,18.065293166804743,34.30512438956676,0.9032646583402372,0.5388636338137349,B,759.3688330016448,Incorrect,sub_016_day_04_data.csv,0,300,26.0,Training at home,,,,,,,,,,,,,
16,4,673,A,31.63510961996044,56.925402855126535,1.581755480998022,0.8941821370615247,A,656.1764159996528,Correct,sub_016_day_04_data.csv,1,300,26.0,Training at home,,,,,,,,,,,,,
16,4,674,A,52.72597466503307,64.49960435409692,2.6362987332516536,1.0131574159913954,A,1637.172790993645,Correct,sub_016_day_04_data.csv,1,300,26.0,Training at home,,,,,,,,,,,,,
16,4,675,B,63.56382756853025,37.95991851535349,3.1781913784265123,0.5962730056935085,B,2932.0287910013576,Correct,sub_016_day_04_data.csv,1,300,27.0,Training at home,,,,,,,,,,,,,
16,4,676,A,55.44237554317586,63.43407327444732,2.7721187771587927,0.9964200929314018,A,1101.4287080033682,Correct,sub_016_day_04_data.csv,1,300,27.0,Training at home,,,,,,,,,,,,,
16,4,677,A,65.87200205590534,79.73822931996037,3.293600102795267,1.2525251772092287,A,995.533458000864,Correct,sub_016_day_04_data.csv,1,300,27.0,Training at home,,,,,,,,,,,,,
16,4,678,B,63.91564469940757,53.8454652073892,3.1957822349703786,0.8458025896232937,A,961.4248740035692,Incorrect,sub_016_day_04_data.csv,0,300,27.0,Training at home,,,,,,,,,,,,,
16,4,679,A,27.454701770608654,58.24287640790689,1.3727350885304326,0.9148769632350928,A,2000.20958299865,Correct,sub_016_day_04_data.csv,1,300,27.0,Training at home,,,,,,,,,,,,,
16,4,680,B,52.93223742888617,26.867888216623623,2.6466118714443088,0.4220398011940827,B,903.1183740007692,Correct,sub_016_day_04_data.csv,1,300,27.0,Training at home,,,,,,,,,,,,,
16,4,681,A,54.03047256487849,71.4360754043248,2.7015236282439243,1.1221152484575665,A,812.9688319968409,Correct,sub_016_day_04_data.csv,1,300,27.0,Training at home,,,,,,,,,,,,,
16,4,682,B,59.53362551069174,32.22207932297392,2.976681275534587,0.5061432384222122,B,1118.2105820043944,Correct,sub_016_day_04_data.csv,1,300,27.0,Training at home,,,,,,,,,,,,,
16,4,683,A,19.42769225303341,37.70807864629916,0.9713846126516704,0.5923171142809979,A,717.154665995622,Correct,sub_016_day_04_data.csv,1,300,27.0,Training at home,,,,,,,,,,,,,
16,4,684,B,84.29655360876727,56.03109604263625,4.214827680438364,0.880134398500651,B,1050.7435409963364,Correct,sub_016_day_04_data.csv,1,300,27.0,Training at home,,,,,,,,,,,,,
16,4,685,B,51.44708619045971,37.276344539523656,2.5723543095229853,0.5855354507902477,A,3531.556665999233,Incorrect,sub_016_day_04_data.csv,0,300,27.0,Training at home,,,,,,,,,,,,,
16,4,686,A,57.28561306447439,78.34713758126895,2.8642806532237195,1.2306739592755167,A,1019.8040000032051,Correct,sub_016_day_04_data.csv,1,300,27.0,Training at home,,,,,,,,,,,,,
16,4,687,A,45.51530266197627,69.37552757355618,2.2757651330988136,1.0897482388200013,A,644.5744160009781,Correct,sub_016_day_04_data.csv,1,300,27.0,Training at home,,,,,,,,,,,,,
16,4,688,A,65.60411289037532,84.0881482499517,3.2802056445187655,1.3208535439800884,A,741.927790993941,Correct,sub_016_day_04_data.csv,1,300,27.0,Training at home,,,,,,,,,,,,,
16,4,689,A,24.233682046532024,39.1944465278806,1.2116841023266012,0.6156649263675383,A,626.3949159983895,Correct,sub_016_day_04_data.csv,1,300,27.0,Training at home,,,,,,,,,,,,,
16,4,690,A,26.24281882323062,49.89524350639945,1.312140941161531,0.7837526522438918,A,685.6190410035197,Correct,sub_016_day_04_data.csv,1,300,27.0,Training at home,,,,,,,,,,,,,
16,4,691,B,87.48496488610456,68.01500445419012,4.374248244305228,1.0683771916358036,B,695.2546660031658,Correct,sub_016_day_04_data.csv,1,300,27.0,Training at home,,,,,,,,,,,,,
16,4,692,A,17.65562069308659,47.18088694549371,0.8827810346543294,0.7411156390890682,A,528.2347909960663,Correct,sub_016_day_04_data.csv,1,300,27.0,Training at home,,,,,,,,,,,,,
16,4,693,B,64.4677701047696,43.924943541494734,3.2233885052384803,0.6899713996965313,B,2658.1532490017707,Correct,sub_016_day_04_data.csv,1,300,27.0,Training at home,,,,,,,,,,,,,
16,4,694,B,72.33458349179794,43.79202338430985,3.6167291745898975,0.6878834947499013,A,884.7388750000391,Incorrect,sub_016_day_04_data.csv,0,300,27.0,Training at home,,,,,,,,,,,,,
16,4,695,A,45.233543012485754,67.71721956466006,2.261677150624288,1.063699597529315,A,1607.9945829987992,Correct,sub_016_day_04_data.csv,1,300,27.0,Training at home,,,,,,,,,,,,,
16,4,696,A,44.35527101827165,64.85295908456797,2.2177635509135825,1.0187078991181908,A,1676.3682500022696,Correct,sub_016_day_04_data.csv,1,300,27.0,Training at home,,,,,,,,,,,,,
16,4,697,B,31.8277372029212,14.545845736766772,1.59138686014606,0.2284856105343845,B,1263.640541001223,Correct,sub_016_day_04_data.csv,1,300,27.0,Training at home,,,,,,,,,,,,,
16,4,698,A,39.67557832110459,72.06750855919425,1.9837789160552293,1.132033777260421,A,830.2019580005435,Correct,sub_016_day_04_data.csv,1,300,27.0,Training at home,,,,,,,,,,,,,
16,4,699,B,47.487446844813306,36.35157185199746,2.3743723422406653,0.5710091553833837,B,1094.711040997936,Correct,sub_016_day_04_data.csv,1,300,27.0,Training at home,,,,,,,,,,,,,
16,4,700,A,21.87155782000553,47.057536560494114,1.0935778910002767,0.7391780557724069,A,852.4612910041469,Correct,sub_016_day_04_data.csv,1,300,28.0,Training at home,,,,,,,,,,,,,
16,4,701,B,86.95780035522762,69.21597619294653,4.347890017761381,1.0872420115940342,B,893.5332910041325,Correct,sub_016_day_04_data.csv,1,300,28.0,Training at home,,,,,,,,,,,,,
16,4,702,A,20.00152897178014,36.23899733116348,1.000076448589007,0.5692408389452165,A,2340.249249005865,Correct,sub_016_day_04_data.csv,1,300,28.0,Training at home,,,,,,,,,,,,,
16,4,703,B,55.24663394653499,27.615951827331568,2.7623316973267498,0.4337903569131724,B,1355.33416600083,Correct,sub_016_day_04_data.csv,1,300,28.0,Training at home,,,,,,,,,,,,,
16,4,704,B,37.94900280415507,21.31265427998084,1.8974501402077537,0.3347783905724343,B,2879.3846660046256,Correct,sub_016_day_04_data.csv,1,300,28.0,Training at home,,,,,,,,,,,,,
16,4,705,B,73.4872625548741,53.627112927662466,3.6743631277437054,0.8423727200338732,B,1170.2167490002466,Correct,sub_016_day_04_data.csv,1,300,28.0,Training at home,,,,,,,,,,,,,
16,4,706,B,66.90775684509794,52.04209274603919,3.3453878422548966,0.8174752812419769,A,911.1594989954028,Incorrect,sub_016_day_04_data.csv,0,300,28.0,Training at home,,,,,,,,,,,,,
16,4,707,B,87.7939233520774,65.80419406818993,4.38969616760387,1.0336498633001123,B,569.4257079958334,Correct,sub_016_day_04_data.csv,1,300,28.0,Training at home,,,,,,,,,,,,,
16,4,708,A,50.210735162009485,77.84954949840932,2.510536758100474,1.2228578639473882,A,2475.1281240023673,Correct,sub_016_day_04_data.csv,1,300,28.0,Training at home,,,,,,,,,,,,,
16,4,709,B,84.98606642125529,66.71688663459628,4.249303321062764,1.0479864046081535,B,905.0407909962814,Correct,sub_016_day_04_data.csv,1,300,28.0,Training at home,,,,,,,,,,,,,
16,4,710,A,51.02654902312359,76.79144966737226,2.5513274511561796,1.2062372706676354,A,793.2793739964836,Correct,sub_016_day_04_data.csv,1,300,28.0,Training at home,,,,,,,,,,,,,
16,4,711,B,42.28396352571552,19.074388911688416,2.114198176285776,0.2996198003833746,B,1024.544166000851,Correct,sub_016_day_04_data.csv,1,300,28.0,Training at home,,,,,,,,,,,,,
16,4,712,A,52.02404312823313,75.35106223765582,2.6012021564116568,1.183611717830034,A,674.3240830037394,Correct,sub_016_day_04_data.csv,1,300,28.0,Training at home,,,,,,,,,,,,,
16,4,713,A,40.85983957548829,52.54857548369832,2.042991978774414,0.8254310934809768,A,707.6071249975939,Correct,sub_016_day_04_data.csv,1,300,28.0,Training at home,,,,,,,,,,,,,
16,4,714,A,27.496661969119636,45.67344837365644,1.3748330984559818,0.7174368493739588,A,607.1727489979821,Correct,sub_016_day_04_data.csv,1,300,28.0,Training at home,,,,,,,,,,,,,
16,4,715,A,66.96582244547056,87.44239968442056,3.3482911222735283,1.3735420023041904,A,1466.9143329956569,Correct,sub_016_day_04_data.csv,1,300,28.0,Training at home,,,,,,,,,,,,,
16,4,716,B,85.78007081048362,60.38840193361251,4.289003540524181,0.9485787993833236,B,588.7567080062581,Correct,sub_016_day_04_data.csv,1,300,28.0,Training at home,,,,,,,,,,,,,
16,4,717,A,53.36551865163899,66.15904837096687,2.6682759325819494,1.0392239016536065,B,1931.8257490012911,Incorrect,sub_016_day_04_data.csv,0,300,28.0,Training at home,,,,,,,,,,,,,
16,4,718,B,54.04085110718809,27.790525393298708,2.7020425553594043,0.4365325520749391,B,876.31745699764,Correct,sub_016_day_04_data.csv,1,300,28.0,Training at home,,,,,,,,,,,,,
16,4,719,B,72.3652504828764,50.25273501230677,3.61826252414382,0.7893681156872877,B,751.8995409991476,Correct,sub_016_day_04_data.csv,1,300,28.0,Training at home,,,,,,,,,,,,,
16,4,720,B,81.86351392553384,65.27687323384899,4.093175696276692,1.025366727003861,B,1642.5157069970735,Correct,sub_016_day_04_data.csv,1,300,28.0,Training at home,,,,,,,,,,,,,
16,4,721,B,75.88533280848193,65.19357282525482,3.794266640424097,1.024058247245459,B,1099.5589989979635,Correct,sub_016_day_04_data.csv,1,300,28.0,Training at home,,,,,,,,,,,,,
16,4,722,B,45.71939520433129,30.720798480401832,2.285969760216565,0.4825611740922143,B,1037.6022909986204,Correct,sub_016_day_04_data.csv,1,300,28.0,Training at home,,,,,,,,,,,,,
16,4,723,B,47.85918205994564,37.66370807293131,2.3929591029972817,0.5916201429443579,B,3091.6016659975867,Correct,sub_016_day_04_data.csv,1,300,28.0,Training at home,,,,,,,,,,,,,
16,4,724,B,46.33223700560791,34.97057411449694,2.3166118502803954,0.5493164936496049,B,697.7277909973054,Correct,sub_016_day_04_data.csv,1,300,28.0,Training at home,,,,,,,,,,,,,
16,4,725,B,63.50624408963047,53.13391587249974,3.175312204481523,0.8346255988075165,B,635.597874999803,Correct,sub_016_day_04_data.csv,1,300,29.0,Training at home,,,,,,,,,,,,,
16,4,726,B,47.24199381125305,21.447856777020306,2.362099690562653,0.3369021464296652,A,1232.1443330001784,Incorrect,sub_016_day_04_data.csv,0,300,29.0,Training at home,,,,,,,,,,,,,
16,4,727,B,65.89128226178464,48.57539624994489,3.2945641130892316,0.7630205400202003,B,3116.8610410022666,Correct,sub_016_day_04_data.csv,1,300,29.0,Training at home,,,,,,,,,,,,,
16,4,728,A,45.582525472441944,65.2055295188837,2.279126273622097,1.0242460625497871,B,1335.7103329981328,Incorrect,sub_016_day_04_data.csv,0,300,29.0,Training at home,,,,,,,,,,,,,
16,4,729,B,35.057506894175575,10.369587111877571,1.7528753447087786,0.1628850934571698,A,1231.634456999018,Incorrect,sub_016_day_04_data.csv,0,300,29.0,Training at home,,,,,,,,,,,,,
16,4,730,A,27.63915998307871,52.470908444065664,1.3819579991539357,0.8242111024752966,A,888.2630830048583,Correct,sub_016_day_04_data.csv,1,300,29.0,Training at home,,,,,,,,,,,,,
16,4,731,B,85.76690534523765,67.94449780911224,4.2883452672618825,1.067269675844774,B,917.9810409987113,Correct,sub_016_day_04_data.csv,1,300,29.0,Training at home,,,,,,,,,,,,,
16,4,732,A,56.14248583283115,71.55660460280554,2.8071242916415575,1.1240085166800171,A,2051.6941660025623,Correct,sub_016_day_04_data.csv,1,300,29.0,Training at home,,,,,,,,,,,,,
16,4,733,A,29.11097673369081,49.08240021944716,1.4555488366845404,0.7709845397498463,A,1151.6044160016463,Correct,sub_016_day_04_data.csv,1,300,29.0,Training at home,,,,,,,,,,,,,
16,4,734,B,39.89901010294188,14.56058146314862,1.994950505147094,0.2287170787831171,B,1978.073582999059,Correct,sub_016_day_04_data.csv,1,300,29.0,Training at home,,,,,,,,,,,,,
16,4,735,A,32.11476122593417,64.95178796831745,1.6057380612967085,1.02026029959394,A,954.0219569971669,Correct,sub_016_day_04_data.csv,1,300,29.0,Training at home,,,,,,,,,,,,,
16,4,736,B,83.60583488544403,68.35635845301181,4.180291744272202,1.0737391677106622,B,672.2733329952462,Correct,sub_016_day_04_data.csv,1,300,29.0,Training at home,,,,,,,,,,,,,
16,4,737,A,40.995438101146746,56.524046182945526,2.0497719050573373,0.8878776411975592,A,2181.881873999373,Correct,sub_016_day_04_data.csv,1,300,29.0,Training at home,,,,,,,,,,,,,
16,4,738,B,80.62111171625764,49.39877510135058,4.031055585812882,0.7759541447736868,B,1557.4931660012226,Correct,sub_016_day_04_data.csv,1,300,29.0,Training at home,,,,,,,,,,,,,
16,4,739,A,41.26061241817605,57.119021282323466,2.0630306209088025,0.8972234882039322,A,1735.360373997537,Correct,sub_016_day_04_data.csv,1,300,29.0,Training at home,,,,,,,,,,,,,
16,4,740,A,35.15625986976536,58.59340859167471,1.757812993488268,0.9203831099019516,A,628.7099159962963,Correct,sub_016_day_04_data.csv,1,300,29.0,Training at home,,,,,,,,,,,,,
16,4,741,B,71.54569205329213,48.00682162099666,3.5772846026646063,0.7540893906335938,B,1985.179873998277,Correct,sub_016_day_04_data.csv,1,300,29.0,Training at home,,,,,,,,,,,,,
16,4,742,B,74.0766436404641,62.15159288390522,3.703832182023205,0.9762749380649014,B,781.8725410033949,Correct,sub_016_day_04_data.csv,1,300,29.0,Training at home,,,,,,,,,,,,,
16,4,743,B,64.31347896755666,55.95483190122198,3.215673948377833,0.8789364441686539,B,1934.1702489982708,Correct,sub_016_day_04_data.csv,1,300,29.0,Training at home,,,,,,,,,,,,,
16,4,744,A,48.77240919843251,70.61338881483134,2.4386204599216255,1.109192517728769,A,873.70062500122,Correct,sub_016_day_04_data.csv,1,300,29.0,Training at home,,,,,,,,,,,,,
16,4,745,A,18.117639900384273,46.177312129235155,0.9058819950192136,0.7253515227386401,A,754.1776660000323,Correct,sub_016_day_04_data.csv,1,300,29.0,Training at home,,,,,,,,,,,,,
16,4,746,B,63.2814990733264,54.48028287131457,3.1640749536663204,0.8557742821700783,B,6385.143248997338,Correct,sub_016_day_04_data.csv,1,300,29.0,Training at home,,,,,,,,,,,,,
16,4,747,B,39.467710077517864,29.493338836472915,1.9733855038758932,0.4632802830924893,B,1271.3671249948677,Correct,sub_016_day_04_data.csv,1,300,29.0,Training at home,,,,,,,,,,,,,
16,4,748,A,29.638087629917443,38.46779105854457,1.481904381495872,0.6042506489467537,B,1024.3942489978508,Incorrect,sub_016_day_04_data.csv,0,300,29.0,Training at home,,,,,,,,,,,,,
16,4,749,A,40.57288369447572,68.92220247354132,2.028644184723786,1.0826274248005283,A,2049.3045000039274,Correct,sub_016_day_04_data.csv,1,300,29.0,Training at home,,,,,,,,,,,,,
16,4,750,A,45.15896623822057,67.36602002555267,2.2579483119110284,1.0581829680692958,A,1335.4828739975346,Correct,sub_016_day_04_data.csv,1,300,30.0,Training at home,,,,,,,,,,,,,
16,4,751,B,54.57808196395217,44.9593022357212,2.7289040981976087,0.7062190680713243,A,880.4053749990999,Incorrect,sub_016_day_04_data.csv,0,300,30.0,Training at home,,,,,,,,,,,,,
16,4,752,B,63.485595187426014,54.07946973918499,3.174279759371301,0.8494783242132755,B,604.3947910002316,Correct,sub_016_day_04_data.csv,1,300,30.0,Training at home,,,,,,,,,,,,,
16,4,753,B,74.70090202949481,53.13169130781155,3.735045101474741,0.8345906554271072,B,490.5293740011985,Correct,sub_016_day_04_data.csv,1,300,30.0,Training at home,,,,,,,,,,,,,
16,4,754,A,50.22075432684677,74.34503151988909,2.5110377163423383,1.167809024268926,A,2016.4790829949195,Correct,sub_016_day_04_data.csv,1,300,30.0,Training at home,,,,,,,,,,,,,
16,4,755,B,45.84810996153941,28.856666689815903,2.2924054980769704,0.4532794603990747,B,1117.3095410049427,Correct,sub_016_day_04_data.csv,1,300,30.0,Training at home,,,,,,,,,,,,,
16,4,756,B,37.4709945300946,16.226260844836617,1.87354972650473,0.2548815093268521,B,868.648124000174,Correct,sub_016_day_04_data.csv,1,300,30.0,Training at home,,,,,,,,,,,,,
16,4,757,A,29.271141125251553,62.29240786090696,1.4635570562625777,0.978486854551222,A,625.048041001719,Correct,sub_016_day_04_data.csv,1,300,30.0,Training at home,,,,,,,,,,,,,
16,4,758,A,48.52457762275988,74.88724574032511,2.4262288811379937,1.1763261053268943,A,677.4257910001324,Correct,sub_016_day_04_data.csv,1,300,30.0,Training at home,,,,,,,,,,,,,
16,4,759,A,61.78017579216976,88.43661357305632,3.0890087896084877,1.3891590775473657,A,1285.4391660002875,Correct,sub_016_day_04_data.csv,1,300,30.0,Training at home,,,,,,,,,,,,,
16,4,760,B,85.95597284169786,66.81012412771048,4.297798642084893,1.049450975725187,B,1015.5768749973504,Correct,sub_016_day_04_data.csv,1,300,30.0,Training at home,,,,,,,,,,,,,
16,4,761,B,69.24371438792215,40.14871371128562,3.462185719396108,0.6306545202322735,B,1330.5250410048757,Correct,sub_016_day_04_data.csv,1,300,30.0,Training at home,,,,,,,,,,,,,
16,4,762,A,37.99060790701891,68.61388928992982,1.8995303953509457,1.0777844526373346,A,1217.0368330043857,Correct,sub_016_day_04_data.csv,1,300,30.0,Training at home,,,,,,,,,,,,,
16,4,763,B,41.831883867999224,16.560672105569886,2.0915941933999616,0.2601344291268388,B,1018.9341660006904,Correct,sub_016_day_04_data.csv,1,300,30.0,Training at home,,,,,,,,,,,,,
16,4,764,B,48.201642797228,28.854589730257334,2.4100821398614,0.4532468355946198,B,1361.8458330020076,Correct,sub_016_day_04_data.csv,1,300,30.0,Training at home,,,,,,,,,,,,,
16,4,765,A,36.443731115319544,49.108144456898614,1.822186555765977,0.771388929286095,A,809.7154999995837,Correct,sub_016_day_04_data.csv,1,300,30.0,Training at home,,,,,,,,,,,,,
16,4,766,A,40.18098542518326,57.36016540222851,2.0090492712591628,0.9010113711816824,B,1212.9166239974438,Incorrect,sub_016_day_04_data.csv,0,300,30.0,Training at home,,,,,,,,,,,,,
16,4,767,A,57.17484177982748,65.47149665896563,2.8587420889913737,1.0284238646166757,A,1595.1565410068724,Correct,sub_016_day_04_data.csv,1,300,30.0,Training at home,,,,,,,,,,,,,
16,4,768,B,48.05313468143451,28.390832062236633,2.402656734071725,0.4459621471801208,B,1055.744458004483,Correct,sub_016_day_04_data.csv,1,300,30.0,Training at home,,,,,,,,,,,,,
16,4,769,A,46.3391655259369,62.43034116678603,2.316958276296845,0.9806535058533972,A,888.9340410023578,Correct,sub_016_day_04_data.csv,1,300,30.0,Training at home,,,,,,,,,,,,,
16,4,770,A,48.05508411347319,58.00897133878535,2.4027542056736597,0.9112027910011444,A,3775.832541003183,Correct,sub_016_day_04_data.csv,1,300,30.0,Training at home,,,,,,,,,,,,,
16,4,771,B,57.35619946949711,37.50213204711733,2.867809973474856,0.5890821126658907,B,845.492665997881,Correct,sub_016_day_04_data.csv,1,300,30.0,Training at home,,,,,,,,,,,,,
16,4,772,A,30.199801359321715,40.10243757427897,1.5099900679660856,0.6299276163719906,A,613.9819999953033,Correct,sub_016_day_04_data.csv,1,300,30.0,Training at home,,,,,,,,,,,,,
16,4,773,B,36.01101305692011,24.906435616565663,1.8005506528460058,0.3912293758005493,A,1999.2972489999377,Incorrect,sub_016_day_04_data.csv,0,300,30.0,Training at home,,,,,,,,,,,,,
16,4,774,A,15.981034154678298,35.75939295343363,0.7990517077339149,0.5617072309966886,A,637.2002069983864,Correct,sub_016_day_04_data.csv,1,300,30.0,Training at home,,,,,,,,,,,,,
16,4,775,A,45.88494263427957,72.4110624519214,2.2942471317139788,1.13743030918794,A,2450.6600410022656,Correct,sub_016_day_04_data.csv,1,300,31.0,Training at home,,,,,,,,,,,,,
16,4,776,B,60.82357535432775,31.97386892789299,3.0411787677163873,0.5022443586535579,B,638.4857070006547,Correct,sub_016_day_04_data.csv,1,300,31.0,Training at home,,,,,,,,,,,,,
16,4,777,A,49.02435584389069,62.02681267154396,2.4512177921945346,0.974314895072564,A,1767.4532079981873,Correct,sub_016_day_04_data.csv,1,300,31.0,Training at home,,,,,,,,,,,,,
16,4,778,A,47.23161381533505,69.90122780552221,2.3615806907667523,1.0980059187536757,A,1780.2040820024558,Correct,sub_016_day_04_data.csv,1,300,31.0,Training at home,,,,,,,,,,,,,
16,4,779,B,56.36197233503449,46.115526910351576,2.8180986167517244,0.7243810027899145,A,2222.8053330036346,Incorrect,sub_016_day_04_data.csv,0,300,31.0,Training at home,,,,,,,,,,,,,
16,4,780,A,47.68328150325027,68.69436364864613,2.3841640751625137,1.079048540908062,B,920.210040996608,Incorrect,sub_016_day_04_data.csv,0,300,31.0,Training at home,,,,,,,,,,,,,
16,4,781,B,71.78477906027226,62.2847574654148,3.5892389530136133,0.9783666824198456,B,1535.7096250008908,Correct,sub_016_day_04_data.csv,1,300,31.0,Training at home,,,,,,,,,,,,,
16,4,782,B,43.24544855689162,33.717478521598245,2.162272427844581,0.5296329141051235,B,2531.335081999714,Correct,sub_016_day_04_data.csv,1,300,31.0,Training at home,,,,,,,,,,,,,
16,4,783,B,75.78859725809491,56.65219070557093,3.7894298629047456,0.8898905306519478,B,1037.3911240021698,Correct,sub_016_day_04_data.csv,1,300,31.0,Training at home,,,,,,,,,,,,,
16,4,784,A,55.33035675707878,78.0562790899663,2.766517837853939,1.2261051647779635,B,1158.7577069949475,Incorrect,sub_016_day_04_data.csv,0,300,31.0,Training at home,,,,,,,,,,,,,
16,4,785,B,66.45965295081056,42.450425062443635,3.322982647540528,0.6668097175896848,B,664.3781239981763,Correct,sub_016_day_04_data.csv,1,300,31.0,Training at home,,,,,,,,,,,,,
16,4,786,B,63.39715751231075,54.24319293997934,3.169857875615538,0.8520500822374641,B,2900.271623999288,Correct,sub_016_day_04_data.csv,1,300,31.0,Training at home,,,,,,,,,,,,,
16,4,787,A,31.92108060342671,54.33243012627244,1.5960540301713353,0.8534518166818911,A,1107.1806249965448,Correct,sub_016_day_04_data.csv,1,300,31.0,Training at home,,,,,,,,,,,,,
16,4,788,B,70.21587626653077,44.34604714611726,3.510793813326538,0.6965860796499428,B,662.2123749984894,Correct,sub_016_day_04_data.csv,1,300,31.0,Training at home,,,,,,,,,,,,,
16,4,789,A,44.83667554616317,56.129376479174915,2.2418337773081585,0.8816781839877584,A,1531.3152080052532,Correct,sub_016_day_04_data.csv,1,300,31.0,Training at home,,,,,,,,,,,,,
16,4,790,A,33.362360982260974,53.743693122554696,1.6681180491130487,0.8442039574530106,A,725.0309580049361,Correct,sub_016_day_04_data.csv,1,300,31.0,Training at home,,,,,,,,,,,,,
16,4,791,A,22.019970568569313,50.38974069360469,1.1009985284284656,0.7915201958966157,A,1175.437457997759,Correct,sub_016_day_04_data.csv,1,300,31.0,Training at home,,,,,,,,,,,,,
16,4,792,A,60.550496747258094,74.07720318480438,3.0275248373629045,1.1636019866192997,A,3898.149665998062,Correct,sub_016_day_04_data.csv,1,300,31.0,Training at home,,,,,,,,,,,,,
16,4,793,A,22.164876647385046,42.14250033665038,1.1082438323692525,0.6619728473076311,A,1176.6592909989413,Correct,sub_016_day_04_data.csv,1,300,31.0,Training at home,,,,,,,,,,,,,
16,4,794,B,50.3300213635563,21.22285149105877,2.516501068177815,0.3333677716626871,B,905.891958005668,Correct,sub_016_day_04_data.csv,1,300,31.0,Training at home,,,,,,,,,,,,,
16,4,795,B,55.6167200533658,35.90710863096777,2.7808360026682903,0.564027543433495,B,886.7295819945866,Correct,sub_016_day_04_data.csv,1,300,31.0,Training at home,,,,,,,,,,,,,
16,4,796,A,47.73918336055475,61.81024886851756,2.3869591680277376,0.970913118809458,A,1765.4937070037704,Correct,sub_016_day_04_data.csv,1,300,31.0,Training at home,,,,,,,,,,,,,
16,4,797,A,58.95407546212165,84.71843095279645,2.9477037731060824,1.3307540015247972,A,898.6309989995789,Correct,sub_016_day_04_data.csv,1,300,31.0,Training at home,,,,,,,,,,,,,
16,4,798,B,35.19346814552566,20.770431755661217,1.7596734072762827,0.3262611790773672,B,998.7847070005956,Correct,sub_016_day_04_data.csv,1,300,31.0,Training at home,,,,,,,,,,,,,
16,4,799,A,43.422982073003126,63.48733689344143,2.1711491036501567,0.9972567559020792,A,1287.219665995508,Correct,sub_016_day_04_data.csv,1,300,31.0,Training at home,,,,,,,,,,,,,
16,4,800,A,30.01194933828284,54.60814891455854,1.500597466914142,0.8577827972805727,A,974.090540999896,Correct,sub_016_day_04_data.csv,1,300,32.0,Training at home,,,,,,,,,,,,,
16,4,801,A,45.61753020195957,56.83868120839922,2.280876510097978,0.892819916620196,A,1723.723957999027,Correct,sub_016_day_04_data.csv,1,300,32.0,Training at home,,,,,,,,,,,,,
16,4,802,B,43.36470067535112,19.306054173944727,2.168235033767556,0.3032587898133566,A,837.046915999963,Incorrect,sub_016_day_04_data.csv,0,300,32.0,Training at home,,,,,,,,,,,,,
16,4,803,A,25.175937717736243,53.16795789540936,1.2587968858868122,0.8351603296529474,A,926.7436240043024,Correct,sub_016_day_04_data.csv,1,300,32.0,Training at home,,,,,,,,,,,,,
16,4,804,B,59.00519251600157,33.926253359966815,2.9502596258000784,0.5329123415974889,B,2803.1330830053776,Correct,sub_016_day_04_data.csv,1,300,32.0,Training at home,,,,,,,,,,,,,
16,4,805,B,68.09829893838871,53.26108295612062,3.4049149469194355,0.8366231346859254,B,1060.4428329970688,Correct,sub_016_day_04_data.csv,1,300,32.0,Training at home,,,,,,,,,,,,,
16,4,806,B,42.53870953498213,18.002063401736187,2.1269354767491064,0.2827757506617604,B,1117.9069569989224,Correct,sub_016_day_04_data.csv,1,300,32.0,Training at home,,,,,,,,,,,,,
16,4,807,B,48.210631514494104,40.17284127313592,2.4105315757247054,0.631033515087563,A,2601.903165996191,Incorrect,sub_016_day_04_data.csv,0,300,32.0,Training at home,,,,,,,,,,,,,
16,4,808,B,53.84201335016553,42.908987473007045,2.6921006675082766,0.674012799090877,B,1906.9627490025596,Correct,sub_016_day_04_data.csv,1,300,32.0,Training at home,,,,,,,,,,,,,
16,4,809,B,75.84173405226966,56.25868229173216,3.792086702613483,0.8837093149417395,B,980.7846659969072,Correct,sub_016_day_04_data.csv,1,300,32.0,Training at home,,,,,,,,,,,,,
16,4,810,B,59.475212414226185,37.446615276659045,2.9737606207113094,0.5882100572747768,B,1824.309499002993,Correct,sub_016_day_04_data.csv,1,300,32.0,Training at home,,,,,,,,,,,,,
16,4,811,B,75.88552683155066,65.12944193186743,3.794276341577534,1.0230508815277888,B,678.1316659980803,Correct,sub_016_day_04_data.csv,1,300,32.0,Training at home,,,,,,,,,,,,,
16,4,812,B,77.75322117002986,62.11336243703718,3.887661058501493,0.9756744156097812,B,3089.861999993446,Correct,sub_016_day_04_data.csv,1,300,32.0,Training at home,,,,,,,,,,,,,
16,4,813,B,76.70991381439678,55.3766686819876,3.835495690719839,0.8698546775580409,B,652.5564159965143,Correct,sub_016_day_04_data.csv,1,300,32.0,Training at home,,,,,,,,,,,,,
16,4,814,A,56.582526012848945,68.43908891858071,2.829126300642447,1.0750386948249588,A,943.2880000022124,Correct,sub_016_day_04_data.csv,1,300,32.0,Training at home,,,,,,,,,,,,,
16,4,815,A,66.60858992270161,79.08483266304927,3.3304294961350807,1.2422616465230685,A,719.9281240027631,Correct,sub_016_day_04_data.csv,1,300,32.0,Training at home,,,,,,,,,,,,,
16,4,816,A,42.65029796319068,60.069195036055376,2.132514898159534,0.9435647091616204,A,738.6773739999626,Correct,sub_016_day_04_data.csv,1,300,32.0,Training at home,,,,,,,,,,,,,
16,4,817,A,24.881993389218657,39.978978344067286,1.2440996694609328,0.6279883233187361,A,908.8028739934088,Correct,sub_016_day_04_data.csv,1,300,32.0,Training at home,,,,,,,,,,,,,
16,4,818,A,66.9431809046996,87.4256818666974,3.34715904523498,1.3732793994374748,A,788.1353319971822,Correct,sub_016_day_04_data.csv,1,300,32.0,Training at home,,,,,,,,,,,,,
16,4,819,A,20.20773163495941,32.94030981897917,1.0103865817479702,0.5174251766713834,A,648.6481659958372,Correct,sub_016_day_04_data.csv,1,300,32.0,Training at home,,,,,,,,,,,,,
16,4,820,A,56.57597693477253,70.49542382597244,2.8287988467386267,1.1073395280168694,A,901.628373998392,Correct,sub_016_day_04_data.csv,1,300,32.0,Training at home,,,,,,,,,,,,,
16,4,821,B,37.57885621021897,22.37382120457023,1.8789428105109487,0.3514471616450468,B,1458.78174900281,Correct,sub_016_day_04_data.csv,1,300,32.0,Training at home,,,,,,,,,,,,,
16,4,822,A,57.30584410816588,72.58124136860448,2.8652922054082937,1.1401034733601771,A,772.854290997202,Correct,sub_016_day_04_data.csv,1,300,32.0,Training at home,,,,,,,,,,,,,
16,4,823,A,25.56831556330403,51.08796952747818,1.2784157781652017,0.8024879487717234,A,756.3122909996309,Correct,sub_016_day_04_data.csv,1,300,32.0,Training at home,,,,,,,,,,,,,
16,4,824,B,38.335785788165104,19.783123607738812,1.9167892894082552,0.3107525789556553,B,1184.9588740005856,Correct,sub_016_day_04_data.csv,1,300,32.0,Training at home,,,,,,,,,,,,,
16,4,825,A,51.615201266488214,80.18642394736622,2.5807600633244108,1.259565401953412,A,678.1595409993315,Correct,sub_016_day_04_data.csv,1,300,33.0,Training at home,,,,,,,,,,,,,
16,4,826,B,56.002855148150694,28.86859504782899,2.8001427574075346,0.4534668306085911,B,696.7207490015426,Correct,sub_016_day_04_data.csv,1,300,33.0,Training at home,,,,,,,,,,,,,
16,4,827,A,36.584135360282275,61.31494783317132,1.829206768014114,0.963132948339662,A,557.0214570034295,Correct,sub_016_day_04_data.csv,1,300,33.0,Training at home,,,,,,,,,,,,,
16,4,828,A,47.3767590766749,68.79902544104519,2.368837953833745,1.0806925644986245,A,1330.558582994854,Correct,sub_016_day_04_data.csv,1,300,33.0,Training at home,,,,,,,,,,,,,
16,4,829,B,66.54138163680612,43.2051265439737,3.3270690818403064,0.6786645407398257,A,2830.390957999043,Incorrect,sub_016_day_04_data.csv,0,300,33.0,Training at home,,,,,,,,,,,,,
16,4,830,B,41.74661726537557,33.18073173249674,2.0873308632687784,0.5212017152577275,A,907.9954160042688,Incorrect,sub_016_day_04_data.csv,0,300,33.0,Training at home,,,,,,,,,,,,,
16,4,831,B,88.78509561504666,67.45151712900028,4.439254780752333,1.059525953429767,A,605.502708000131,Incorrect,sub_016_day_04_data.csv,0,300,33.0,Training at home,,,,,,,,,,,,,
16,4,832,A,31.05083128748003,56.72046982205456,1.5525415643740017,0.890963056505641,A,1746.2694159985404,Correct,sub_016_day_04_data.csv,1,300,33.0,Training at home,,,,,,,,,,,,,
16,4,833,A,41.87628834400832,73.42951933366571,2.0938144172004156,1.1534281924763692,A,1161.644706997322,Correct,sub_016_day_04_data.csv,1,300,33.0,Training at home,,,,,,,,,,,,,
16,4,834,B,78.53367197867297,49.37236567039173,3.926683598933648,0.7755393064022578,B,723.2910829989123,Correct,sub_016_day_04_data.csv,1,300,33.0,Training at home,,,,,,,,,,,,,
16,4,835,A,39.93957204796162,54.71513385302414,1.9969786023980811,0.8594633127642142,A,1771.8261659974814,Correct,sub_016_day_04_data.csv,1,300,33.0,Training at home,,,,,,,,,,,,,
16,4,836,A,67.68782462176019,83.60135223448394,3.384391231088009,1.313206970050137,A,1076.5322079969335,Correct,sub_016_day_04_data.csv,1,300,33.0,Training at home,,,,,,,,,,,,,
16,4,837,B,41.58953736249384,21.562790046645706,2.079476868124692,0.3387075140072063,B,1078.5867079976017,Correct,sub_016_day_04_data.csv,1,300,33.0,Training at home,,,,,,,,,,,,,
16,4,838,A,30.991347018882227,45.74848259893508,1.5495673509441112,0.7186154842284745,B,2756.786041005398,Incorrect,sub_016_day_04_data.csv,0,300,33.0,Training at home,,,,,,,,,,,,,
16,4,839,A,27.451641777995643,57.09900163225634,1.3725820888997822,0.8969090202760405,A,1119.9937909987057,Correct,sub_016_day_04_data.csv,1,300,33.0,Training at home,,,,,,,,,,,,,
16,4,840,A,42.27162483412549,56.66639669423596,2.1135812417062745,0.8901136778000831,A,605.9205819983617,Correct,sub_016_day_04_data.csv,1,300,33.0,Training at home,,,,,,,,,,,,,
16,4,841,B,37.25103071921004,14.921114285055094,1.862551535960502,0.234380315106514,B,1429.4682079998893,Correct,sub_016_day_04_data.csv,1,300,33.0,Training at home,,,,,,,,,,,,,
16,4,842,B,75.33690749282658,57.69622510435682,3.766845374641329,0.9062901846385518,B,667.7343330011354,Correct,sub_016_day_04_data.csv,1,300,33.0,Training at home,,,,,,,,,,,,,
16,4,843,A,12.579352409205756,32.429819480996656,0.6289676204602879,0.5094064131937112,A,860.5615409978782,Correct,sub_016_day_04_data.csv,1,300,33.0,Training at home,,,,,,,,,,,,,
16,4,844,B,71.92013264353281,56.77046537053237,3.596006632176641,0.8917483847446912,B,1262.8767080022951,Correct,sub_016_day_04_data.csv,1,300,33.0,Training at home,,,,,,,,,,,,,
16,4,845,B,54.00514933738098,26.06734472986964,2.700257466869049,0.4094648935097553,B,1191.2281240001903,Correct,sub_016_day_04_data.csv,1,300,33.0,Training at home,,,,,,,,,,,,,
16,4,846,B,83.68754542326772,69.07685258228491,4.1843772711633855,1.0850566630280571,A,2061.394290998578,Incorrect,sub_016_day_04_data.csv,0,300,33.0,Training at home,,,,,,,,,,,,,
16,4,847,B,40.923054761280135,28.809922320204503,2.0461527380640065,0.4525452015582353,A,3418.457790998218,Incorrect,sub_016_day_04_data.csv,0,300,33.0,Training at home,,,,,,,,,,,,,
16,4,848,B,49.43489587137911,41.15412046921581,2.4717447935689556,0.6464474126551886,B,1065.3070409971406,Correct,sub_016_day_04_data.csv,1,300,33.0,Training at home,,,,,,,,,,,,,
16,4,849,A,38.988250267673514,46.35561739289709,1.9494125133836755,0.7281523352707236,B,936.829124999349,Incorrect,sub_016_day_04_data.csv,0,300,33.0,Training at home,,,,,,,,,,,,,
16,4,850,B,70.59021315060343,38.855457632014605,3.5295106575301713,0.6103401012430328,B,1933.5389159969056,Correct,sub_016_day_04_data.csv,1,300,34.0,Training at home,,,,,,,,,,,,,
16,4,851,A,44.759104287567496,64.43607047121561,2.2379552143783745,1.012159428092826,A,948.1188319987268,Correct,sub_016_day_04_data.csv,1,300,34.0,Training at home,,,,,,,,,,,,,
16,4,852,B,44.12388283150545,34.60301555782578,2.2061941415752724,0.5435428973425939,A,1250.8298750035465,Incorrect,sub_016_day_04_data.csv,0,300,34.0,Training at home,,,,,,,,,,,,,
16,4,853,A,65.27068154453812,88.6247100654364,3.2635340772269057,1.392113690340502,A,717.4657080031466,Correct,sub_016_day_04_data.csv,1,300,34.0,Training at home,,,,,,,,,,,,,
16,4,854,A,68.52051662540744,82.40703398552051,3.4260258312703717,1.294446662865178,A,788.6033750037313,Correct,sub_016_day_04_data.csv,1,300,34.0,Training at home,,,,,,,,,,,,,
16,4,855,B,46.82703420219759,31.852117563601716,2.3413517101098793,0.500331892695448,B,1112.1800830005668,Correct,sub_016_day_04_data.csv,1,300,34.0,Training at home,,,,,,,,,,,,,
16,4,856,B,81.45283439957586,62.67497347400315,4.072641719978793,0.9844961811493176,A,573.5280830049305,Incorrect,sub_016_day_04_data.csv,0,300,34.0,Training at home,,,,,,,,,,,,,
16,4,857,B,45.55302248618789,16.924165319952625,2.277651124309395,0.2658441671865116,B,1000.173749998794,Correct,sub_016_day_04_data.csv,1,300,34.0,Training at home,,,,,,,,,,,,,
16,4,858,A,14.959173036916576,38.90504729771841,0.7479586518458288,0.611119053890378,A,559.6720410030684,Correct,sub_016_day_04_data.csv,1,300,34.0,Training at home,,,,,,,,,,,,,
16,4,859,A,38.33034426799007,64.58722296905628,1.9165172133995036,1.014533725976766,A,1534.7989999936544,Correct,sub_016_day_04_data.csv,1,300,34.0,Training at home,,,,,,,,,,,,,
16,4,860,A,39.99434199847157,50.26261941832561,1.9997170999235785,0.7895233795739571,A,692.087374998664,Correct,sub_016_day_04_data.csv,1,300,34.0,Training at home,,,,,,,,,,,,,
16,4,861,A,59.52249813030448,85.09148605764128,2.976124906515224,1.3366139374086208,A,1010.9674160048598,Correct,sub_016_day_04_data.csv,1,300,34.0,Training at home,,,,,,,,,,,,,
16,4,862,A,43.43478586792896,64.74443440324153,2.1717392933964477,1.0170031974102491,A,778.7868739978876,Correct,sub_016_day_04_data.csv,1,300,34.0,Training at home,,,,,,,,,,,,,
16,4,863,A,21.705290076485284,52.9264278587665,1.085264503824264,0.831366384709255,A,1439.9525000044378,Correct,sub_016_day_04_data.csv,1,300,34.0,Training at home,,,,,,,,,,,,,
16,4,864,A,40.9271446660957,63.395824925681914,2.046357233304785,0.9958192892739348,A,721.9129989971407,Correct,sub_016_day_04_data.csv,1,300,34.0,Training at home,,,,,,,,,,,,,
16,4,865,B,42.24339484175838,23.67274988909532,2.112169742087919,0.3718506857092523,B,763.9114160047029,Correct,sub_016_day_04_data.csv,1,300,34.0,Training at home,,,,,,,,,,,,,
16,4,866,B,42.90806620002981,32.322410966292246,2.14540331000149,0.5077192441900694,B,2104.28091599897,Correct,sub_016_day_04_data.csv,1,300,34.0,Training at home,,,,,,,,,,,,,
16,4,867,A,26.244360470664013,42.56673768072581,1.3122180235332008,0.6686367519252602,B,943.2845819974318,Incorrect,sub_016_day_04_data.csv,0,300,34.0,Training at home,,,,,,,,,,,,,
16,4,868,B,33.60898237012984,14.066419428981856,1.6804491185064918,0.2209547997020106,B,915.3299579993472,Correct,sub_016_day_04_data.csv,1,300,34.0,Training at home,,,,,,,,,,,,,
16,4,869,A,58.78653112094731,73.79105434282417,2.939326556047366,1.1591071711203085,A,1647.1115820022533,Correct,sub_016_day_04_data.csv,1,300,34.0,Training at home,,,,,,,,,,,,,
16,4,870,A,26.286484378758026,45.37844658273776,1.3143242189379012,0.712802972078229,A,1960.5263749981532,Correct,sub_016_day_04_data.csv,1,300,34.0,Training at home,,,,,,,,,,,,,
16,4,871,A,26.410220239230217,56.86165161254783,1.3205110119615109,0.8931807348848123,A,724.9951240009977,Correct,sub_016_day_04_data.csv,1,300,34.0,Training at home,,,,,,,,,,,,,
16,4,872,A,25.8657790045058,53.80683056329497,1.29328895022529,0.845195718052991,A,674.9224160012091,Correct,sub_016_day_04_data.csv,1,300,34.0,Training at home,,,,,,,,,,,,,
16,4,873,A,62.334486339960534,83.27700082203631,3.116724316998027,1.3081120699775022,A,1804.9861239996972,Correct,sub_016_day_04_data.csv,1,300,34.0,Training at home,,,,,,,,,,,,,
16,4,874,B,67.0691103719398,49.8087310798857,3.35345551859699,0.7823937182259927,B,1054.42933300219,Correct,sub_016_day_04_data.csv,1,300,34.0,Training at home,,,,,,,,,,,,,
16,4,875,B,74.56552991994084,50.391540495165835,3.7282764959970423,0.7915484671134279,B,841.813874001673,Correct,sub_016_day_04_data.csv,1,300,35.0,Training at home,,,,,,,,,,,,,
16,4,876,A,60.00278839118188,84.21052051175265,3.000139419559094,1.3227757629734735,A,700.3753739991225,Correct,sub_016_day_04_data.csv,1,300,35.0,Training at home,,,,,,,,,,,,,
16,4,877,B,45.21101020607728,28.355468902402436,2.260550510303864,0.4454066639644066,B,942.2474570019403,Correct,sub_016_day_04_data.csv,1,300,35.0,Training at home,,,,,,,,,,,,,
16,4,878,B,48.39721079281108,26.639701597714232,2.419860539640554,0.4184554541660165,A,906.9597080015228,Incorrect,sub_016_day_04_data.csv,0,300,35.0,Training at home,,,,,,,,,,,,,
16,4,879,B,62.59873714018681,46.815645564624305,3.1299368570093407,0.7353784408944364,B,744.2057079970255,Correct,sub_016_day_04_data.csv,1,300,35.0,Training at home,,,,,,,,,,,,,
16,4,880,A,38.085732666433685,67.0091871579445,1.904286633321684,1.0525778504921095,A,1497.108333001961,Correct,sub_016_day_04_data.csv,1,300,35.0,Training at home,,,,,,,,,,,,,
16,4,881,B,64.0767078641221,45.466718606539054,3.203835393206105,0.7141895457856872,B,835.7077079999726,Correct,sub_016_day_04_data.csv,1,300,35.0,Training at home,,,,,,,,,,,,,
16,4,882,A,35.87231716911176,45.688646368594,1.793615858455588,0.7176755789201845,A,1289.4062500054133,Correct,sub_016_day_04_data.csv,1,300,35.0,Training at home,,,,,,,,,,,,,
16,4,883,A,16.88913786631437,40.78969601804566,0.8444568933157186,0.6407230467622654,A,879.1029999993043,Correct,sub_016_day_04_data.csv,1,300,35.0,Training at home,,,,,,,,,,,,,
16,4,884,B,79.89653888466694,52.87621143239542,3.994826944233347,0.8305775869283706,B,2208.049790999212,Correct,sub_016_day_04_data.csv,1,300,35.0,Training at home,,,,,,,,,,,,,
16,4,885,A,44.649483180556366,70.43711041711884,2.2324741590278183,1.1064235431325682,A,1242.673166001623,Correct,sub_016_day_04_data.csv,1,300,35.0,Training at home,,,,,,,,,,,,,
16,4,886,A,14.96025196806034,36.58893534455302,0.7480125984030169,0.5747376524055985,A,2278.3690829965053,Correct,sub_016_day_04_data.csv,1,300,35.0,Training at home,,,,,,,,,,,,,
16,4,887,B,85.15612387561383,68.87984498631208,4.2578061937806915,1.081962074947009,B,1307.2000410029432,Correct,sub_016_day_04_data.csv,1,300,35.0,Training at home,,,,,,,,,,,,,
16,4,888,A,61.45121791944161,87.37696659601741,3.0725608959720807,1.3725141817550452,A,1182.679249002831,Correct,sub_016_day_04_data.csv,1,300,35.0,Training at home,,,,,,,,,,,,,
16,4,889,A,41.88655251857011,57.345553149815856,2.0943276259285057,0.9007818424575226,A,1728.779666002083,Correct,sub_016_day_04_data.csv,1,300,35.0,Training at home,,,,,,,,,,,,,
16,4,890,A,34.0918967935472,53.679244901691725,1.7045948396773598,0.8431916071670105,A,931.2709579971852,Correct,sub_016_day_04_data.csv,1,300,35.0,Training at home,,,,,,,,,,,,,
16,4,891,A,52.101570443118746,59.17451027294358,2.6050785221559374,0.9295110337662664,A,675.6957079996937,Correct,sub_016_day_04_data.csv,1,300,35.0,Training at home,,,,,,,,,,,,,
16,4,892,A,21.999283562748424,47.961804469570815,1.0999641781374212,0.753382262872569,A,694.4374160011648,Correct,sub_016_day_04_data.csv,1,300,35.0,Training at home,,,,,,,,,,,,,
16,4,893,B,72.06720639939982,45.27326158992449,3.6033603199699913,0.7111507300747787,B,894.0385000023525,Correct,sub_016_day_04_data.csv,1,300,35.0,Training at home,,,,,,,,,,,,,
16,4,894,B,46.403527189975165,32.91865472852958,2.3201763594987583,0.5170850193060372,A,1866.7728740038,Incorrect,sub_016_day_04_data.csv,0,300,35.0,Training at home,,,,,,,,,,,,,
16,4,895,B,85.01132357820606,59.8401367851149,4.2505661789103035,0.9399666705696266,B,652.2842070044135,Correct,sub_016_day_04_data.csv,1,300,35.0,Training at home,,,,,,,,,,,,,
16,4,896,A,46.51716867123157,56.44562390600208,2.3258584335615784,0.8866457869519427,B,4168.887498999538,Incorrect,sub_016_day_04_data.csv,0,300,35.0,Training at home,,,,,,,,,,,,,
16,4,897,B,38.75882598876221,18.61402190258614,1.9379412994381109,0.2923883723146206,B,1627.1480819996214,Correct,sub_016_day_04_data.csv,1,300,35.0,Training at home,,,,,,,,,,,,,
16,4,898,B,80.02031283400501,51.61613783847354,4.001015641700251,0.8107843972001332,B,720.0423319955007,Correct,sub_016_day_04_data.csv,1,300,35.0,Training at home,,,,,,,,,,,,,
16,4,899,B,56.35886652788276,35.15240131874128,2.817943326394138,0.552172628694989,B,1230.8538739962387,Correct,sub_016_day_04_data.csv,1,300,35.0,Training at home,,,,,,,,,,,,,
