subject,day,trial,cat,x,y,xt,yt,resp,rt,fb,f_name,acc,n_trials,block,session_type,ns_left_digit,ns_right_digit,ns_left_size,ns_right_size,ns_congruent,ns_cue,ns_correct_side,ns_resp,ns_rt,ns_fb,acc_stroop,acc_stroop_mean,resp_key
16,20,4500,B,65.60080741206933,35.874331314705344,3.280040370603466,0.5635126785536229,B,1862.045707006473,Correct,sub_016_day_17_data.csv,1,300,180.0,Training at home,,,,,,,,,,,,,
16,20,4501,B,81.15504162409918,61.86081787327302,4.057752081204959,0.9717074548786534,B,2140.7913739967626,Correct,sub_016_day_17_data.csv,1,300,180.0,Training at home,,,,,,,,,,,,,
16,20,4502,A,54.42714982996663,73.81089514838374,2.7213574914983316,1.1594188297652444,A,871.2059989920817,Correct,sub_016_day_17_data.csv,1,300,180.0,Training at home,,,,,,,,,,,,,
16,20,4503,B,54.11943136488922,37.17869778880966,2.705971568244461,0.5840016192167975,A,1568.2169999927282,Incorrect,sub_016_day_17_data.csv,0,300,180.0,Training at home,,,,,,,,,,,,,
16,20,4504,A,49.46669254572042,74.0765784105547,2.4733346272860213,1.1635921726883347,A,825.1882490003482,Correct,sub_016_day_17_data.csv,1,300,180.0,Training at home,,,,,,,,,,,,,
16,20,4505,B,37.150096543547086,22.37739265754564,1.8575048271773544,0.3515032618971978,B,1097.003166010836,Correct,sub_016_day_17_data.csv,1,300,180.0,Training at home,,,,,,,,,,,,,
16,20,4506,A,43.756241967946835,64.71483955117677,2.187812098397342,1.0165383225610956,A,641.5683329978492,Correct,sub_016_day_17_data.csv,1,300,180.0,Training at home,,,,,,,,,,,,,
16,20,4507,B,46.93042490675022,35.845031311709896,2.346521245337511,0.5630524351828196,A,965.5406250094528,Incorrect,sub_016_day_17_data.csv,0,300,180.0,Training at home,,,,,,,,,,,,,
16,20,4508,B,66.92866473945318,53.31071722321849,3.3464332369726595,0.8374027879303303,B,3494.8136240127496,Correct,sub_016_day_17_data.csv,1,300,180.0,Training at home,,,,,,,,,,,,,
16,20,4509,B,55.17886554320501,34.55601073322582,2.7589432771602507,0.5428045472843613,B,6434.535623993725,Correct,sub_016_day_17_data.csv,1,300,180.0,Training at home,,,,,,,,,,,,,
16,20,4510,A,46.8662818496767,76.61561494512793,2.343314092483835,1.2034752653093912,A,920.5584570008796,Correct,sub_016_day_17_data.csv,1,300,180.0,Training at home,,,,,,,,,,,,,
16,20,4511,A,46.354742326336144,58.78710083054,2.3177371163168075,0.9234256204753344,A,873.296040983405,Correct,sub_016_day_17_data.csv,1,300,180.0,Training at home,,,,,,,,,,,,,
16,20,4512,A,36.521588765292165,68.02330443619333,1.826079438264608,1.068507567448235,A,636.9067909836303,Correct,sub_016_day_17_data.csv,1,300,180.0,Training at home,,,,,,,,,,,,,
16,20,4513,A,48.086761635372106,70.60711561566194,2.4043380817686053,1.1090939785466436,A,590.4757909884211,Correct,sub_016_day_17_data.csv,1,300,180.0,Training at home,,,,,,,,,,,,,
16,20,4514,A,39.23185297151388,62.41176781944324,1.961592648575694,0.9803617563955735,A,695.854916004464,Correct,sub_016_day_17_data.csv,1,300,180.0,Training at home,,,,,,,,,,,,,
16,20,4515,A,42.13712981469482,71.84707937996374,2.106856490734741,1.128571283809884,A,661.5728329925332,Correct,sub_016_day_17_data.csv,1,300,180.0,Training at home,,,,,,,,,,,,,
16,20,4516,A,54.256225387875205,73.84780722548513,2.71281126939376,1.1599986433164966,A,516.4088320161682,Correct,sub_016_day_17_data.csv,1,300,180.0,Training at home,,,,,,,,,,,,,
16,20,4517,B,83.46794136349789,64.38661736067334,4.173397068174894,1.0113826204489422,A,807.1145410067402,Incorrect,sub_016_day_17_data.csv,0,300,180.0,Training at home,,,,,,,,,,,,,
16,20,4518,B,71.48158769661458,53.00456618516922,3.5740793848307293,0.832593778670208,B,823.1583329907153,Correct,sub_016_day_17_data.csv,1,300,180.0,Training at home,,,,,,,,,,,,,
16,20,4519,A,55.78182835090511,80.86571682969111,2.7890914175452552,1.2702357095971504,A,478.02404101821594,Correct,sub_016_day_17_data.csv,1,300,180.0,Training at home,,,,,,,,,,,,,
16,20,4520,A,37.87757124803454,52.58986148041778,1.8938785624017271,0.8260796124009265,A,745.3619999869261,Correct,sub_016_day_17_data.csv,1,300,180.0,Training at home,,,,,,,,,,,,,
16,20,4521,A,34.77762977581258,53.30807740628016,1.738881488790629,0.837361321782829,A,581.2412069935817,Correct,sub_016_day_17_data.csv,1,300,180.0,Training at home,,,,,,,,,,,,,
16,20,4522,A,61.962865593874945,72.08150131432646,3.0981432796937476,1.132253574944055,B,630.2483739855234,Incorrect,sub_016_day_17_data.csv,0,300,180.0,Training at home,,,,,,,,,,,,,
16,20,4523,A,61.375694422828545,84.51090814559218,3.068784721141427,1.327494240891971,A,685.7550409913529,Correct,sub_016_day_17_data.csv,1,300,180.0,Training at home,,,,,,,,,,,,,
16,20,4524,A,38.71547738695647,58.88644677387857,1.9357738693478237,0.9249861429041164,A,565.0976239994634,Correct,sub_016_day_17_data.csv,1,300,180.0,Training at home,,,,,,,,,,,,,
16,20,4525,A,33.41467804735622,50.985686561877074,1.6707339023678112,0.8008812917051243,A,1160.5653739825357,Correct,sub_016_day_17_data.csv,1,300,181.0,Training at home,,,,,,,,,,,,,
16,20,4526,B,63.21420104120977,31.98179403623404,3.1607100520604883,0.5023688459642737,B,654.9607069755439,Correct,sub_016_day_17_data.csv,1,300,181.0,Training at home,,,,,,,,,,,,,
16,20,4527,B,79.8151469272893,66.50763121374966,3.9907573463644654,1.0446994281438755,B,1185.3376659855712,Correct,sub_016_day_17_data.csv,1,300,181.0,Training at home,,,,,,,,,,,,,
16,20,4528,B,74.33171145426059,48.69491277861515,3.7165855727130297,0.7648979012624655,B,3478.6457069858443,Correct,sub_016_day_17_data.csv,1,300,181.0,Training at home,,,,,,,,,,,,,
16,20,4529,A,27.34436479493385,48.037096611403605,1.3672182397466923,0.7545649490708436,A,564.8719999880996,Correct,sub_016_day_17_data.csv,1,300,181.0,Training at home,,,,,,,,,,,,,
16,20,4530,A,31.043791802599344,48.57237237397693,1.5521895901299672,0.7629730410875687,A,1561.43895801506,Correct,sub_016_day_17_data.csv,1,300,181.0,Training at home,,,,,,,,,,,,,
16,20,4531,A,46.817882043595,59.34645479918207,2.34089410217975,0.9322119320685456,A,656.1368749826215,Correct,sub_016_day_17_data.csv,1,300,181.0,Training at home,,,,,,,,,,,,,
16,20,4532,A,27.76740482950478,58.10845549466382,1.388370241475239,0.9127654844674264,A,1445.857081998838,Correct,sub_016_day_17_data.csv,1,300,181.0,Training at home,,,,,,,,,,,,,
16,20,4533,A,56.94219177670022,79.31004645955784,2.847109588835011,1.2457992965660605,A,803.3508739899844,Correct,sub_016_day_17_data.csv,1,300,181.0,Training at home,,,,,,,,,,,,,
16,20,4534,B,53.78581917041299,33.67241823481577,2.6892909585206497,0.528925108775501,B,1048.7974580028094,Correct,sub_016_day_17_data.csv,1,300,181.0,Training at home,,,,,,,,,,,,,
16,20,4535,A,42.91228211354866,74.5241538213257,2.145614105677433,1.1706226708003626,A,726.4140819897875,Correct,sub_016_day_17_data.csv,1,300,181.0,Training at home,,,,,,,,,,,,,
16,20,4536,B,56.850147270192394,34.23998579005704,2.8425073635096196,0.5378404390853105,B,675.1179569982924,Correct,sub_016_day_17_data.csv,1,300,181.0,Training at home,,,,,,,,,,,,,
16,20,4537,B,85.45458193894542,61.64038061900865,4.272729096947271,0.9682448345857814,B,680.3145410085563,Correct,sub_016_day_17_data.csv,1,300,181.0,Training at home,,,,,,,,,,,,,
16,20,4538,B,49.67589090981858,38.439234659230905,2.483794545490929,0.6038020860752699,B,1223.8904160039965,Correct,sub_016_day_17_data.csv,1,300,181.0,Training at home,,,,,,,,,,,,,
16,20,4539,A,16.97220956250463,39.778846741959654,0.8486104781252315,0.6248446634640736,A,747.8647910174914,Correct,sub_016_day_17_data.csv,1,300,181.0,Training at home,,,,,,,,,,,,,
16,20,4540,A,47.84181053714856,68.48209814146728,2.392090526857428,1.0757142821182442,A,2013.559665996581,Correct,sub_016_day_17_data.csv,1,300,181.0,Training at home,,,,,,,,,,,,,
16,20,4541,B,83.03351660583824,53.64491515080804,4.151675830291913,0.8426523567011317,B,884.6360410097986,Correct,sub_016_day_17_data.csv,1,300,181.0,Training at home,,,,,,,,,,,,,
16,20,4542,A,12.105786959933283,38.95220651881208,0.6052893479966641,0.6118598292030623,A,849.4904580002185,Correct,sub_016_day_17_data.csv,1,300,181.0,Training at home,,,,,,,,,,,,,
16,20,4543,B,50.45769293772963,38.849761771304664,2.5228846468864816,0.6102506308722215,B,2814.9310410080943,Correct,sub_016_day_17_data.csv,1,300,181.0,Training at home,,,,,,,,,,,,,
16,20,4544,B,59.27495269881492,50.79209872879848,2.9637476349407463,0.7978404211340038,B,2359.42699899897,Correct,sub_016_day_17_data.csv,1,300,181.0,Training at home,,,,,,,,,,,,,
16,20,4545,B,68.14792148803156,46.907798553624275,3.4073960744015777,0.7368259766606797,B,2659.778125002049,Correct,sub_016_day_17_data.csv,1,300,181.0,Training at home,,,,,,,,,,,,,
16,20,4546,B,44.15854400738547,25.895115790133573,2.207927200369274,0.4067595276507034,B,4441.968999977689,Correct,sub_016_day_17_data.csv,1,300,181.0,Training at home,,,,,,,,,,,,,
16,20,4547,B,69.170857901298,51.32995778788935,3.4585428950649004,0.8062890914775369,A,4533.011791005265,Incorrect,sub_016_day_17_data.csv,0,300,181.0,Training at home,,,,,,,,,,,,,
16,20,4548,A,22.258038149594903,34.22369771900569,1.1129019074797453,0.5375845866635303,A,1200.3186660003848,Correct,sub_016_day_17_data.csv,1,300,181.0,Training at home,,,,,,,,,,,,,
16,20,4549,A,29.91219470975444,42.404628770018206,1.4956097354877218,0.6660903511104579,A,640.5727069941349,Correct,sub_016_day_17_data.csv,1,300,181.0,Training at home,,,,,,,,,,,,,
16,20,4550,B,69.08764729188829,48.83954709014351,3.4543823645944145,0.7671698117152382,B,708.3654580055736,Correct,sub_016_day_17_data.csv,1,300,182.0,Training at home,,,,,,,,,,,,,
16,20,4551,B,76.88191025101658,46.343017192047526,3.8440955125508287,0.7279544117786101,B,750.8214990084525,Correct,sub_016_day_17_data.csv,1,300,182.0,Training at home,,,,,,,,,,,,,
16,20,4552,A,34.29076327952588,67.09922986303958,1.7145381639762942,1.05399223799629,A,593.1245409883559,Correct,sub_016_day_17_data.csv,1,300,182.0,Training at home,,,,,,,,,,,,,
16,20,4553,A,61.76108967456814,74.41880717549348,3.088054483728407,1.1689678895572286,A,694.0952909935731,Correct,sub_016_day_17_data.csv,1,300,182.0,Training at home,,,,,,,,,,,,,
16,20,4554,A,13.99349607966024,39.0349837527386,0.6996748039830121,0.6131600909530025,A,693.348998989677,Correct,sub_016_day_17_data.csv,1,300,182.0,Training at home,,,,,,,,,,,,,
16,20,4555,A,19.511097645964593,43.661054200692845,0.9755548822982296,0.6858262356244121,A,500.30795799102634,Correct,sub_016_day_17_data.csv,1,300,182.0,Training at home,,,,,,,,,,,,,
16,20,4556,B,48.10476813864017,26.54118033515573,2.4052384069320083,0.4169078857926356,B,776.631749002263,Correct,sub_016_day_17_data.csv,1,300,182.0,Training at home,,,,,,,,,,,,,
16,20,4557,B,71.81833160573971,60.701341680339155,3.590916580286986,0.953494445429987,B,1016.087124007754,Correct,sub_016_day_17_data.csv,1,300,182.0,Training at home,,,,,,,,,,,,,
16,20,4558,A,41.26841645500687,58.22446450018001,2.0634208227503437,0.914587749664826,A,912.6920819981024,Correct,sub_016_day_17_data.csv,1,300,182.0,Training at home,,,,,,,,,,,,,
16,20,4559,B,39.45699821080952,27.80417414915052,1.972849910540476,0.4367469462305125,B,1681.078041001456,Correct,sub_016_day_17_data.csv,1,300,182.0,Training at home,,,,,,,,,,,,,
16,20,4560,B,47.09097367013156,32.73208039045709,2.3545486835065783,0.5141543164568526,B,1138.1884159927722,Correct,sub_016_day_17_data.csv,1,300,182.0,Training at home,,,,,,,,,,,,,
16,20,4561,B,65.80389544379582,39.8165179939559,3.290194772189791,0.6254364021066883,B,1030.060624005273,Correct,sub_016_day_17_data.csv,1,300,182.0,Training at home,,,,,,,,,,,,,
16,20,4562,B,76.81891174294424,57.95202636279258,3.840945587147212,0.910308301409956,B,638.1208749953657,Correct,sub_016_day_17_data.csv,1,300,182.0,Training at home,,,,,,,,,,,,,
16,20,4563,A,29.18435484699948,58.56886787070313,1.459217742349974,0.9199976251583613,A,949.500665999949,Correct,sub_016_day_17_data.csv,1,300,182.0,Training at home,,,,,,,,,,,,,
16,20,4564,A,45.55842825752495,57.57591261811818,2.2779214128762475,0.9044003205240396,A,1091.0103319911286,Correct,sub_016_day_17_data.csv,1,300,182.0,Training at home,,,,,,,,,,,,,
16,20,4565,A,30.85369914488058,41.51416444458769,1.5426849572440289,0.6521029701951764,A,549.2257489822805,Correct,sub_016_day_17_data.csv,1,300,182.0,Training at home,,,,,,,,,,,,,
16,20,4566,A,20.300811801909983,51.63237043355735,1.0150405900954993,0.8110393782074531,A,721.9769159855787,Correct,sub_016_day_17_data.csv,1,300,182.0,Training at home,,,,,,,,,,,,,
16,20,4567,B,78.30046193874705,54.72336669114432,3.915023096937353,0.8595926338829969,B,671.9243330007885,Correct,sub_016_day_17_data.csv,1,300,182.0,Training at home,,,,,,,,,,,,,
16,20,4568,A,27.44217829387551,41.52981616842903,1.3721089146937755,0.6523488268983563,A,1532.4682909995315,Correct,sub_016_day_17_data.csv,1,300,182.0,Training at home,,,,,,,,,,,,,
16,20,4569,A,63.34825056842806,74.75616730489115,3.1674125284214028,1.1742671300778775,A,2096.621831995435,Correct,sub_016_day_17_data.csv,1,300,182.0,Training at home,,,,,,,,,,,,,
16,20,4570,B,50.45654276555724,39.051339220628336,2.522827138277862,0.6134170020418447,A,592.846498999279,Incorrect,sub_016_day_17_data.csv,0,300,182.0,Training at home,,,,,,,,,,,,,
16,20,4571,A,36.63886553331459,52.55949747647836,1.8319432766657295,0.8256026557423783,A,523.8534990057815,Correct,sub_016_day_17_data.csv,1,300,182.0,Training at home,,,,,,,,,,,,,
16,20,4572,B,33.279617808481866,18.77909077658425,1.6639808904240934,0.2949812681240646,B,713.1332080170978,Correct,sub_016_day_17_data.csv,1,300,182.0,Training at home,,,,,,,,,,,,,
16,20,4573,A,38.58728397471882,53.39437648132183,1.9293641987359411,0.8387169044836413,A,2096.3580410170835,Correct,sub_016_day_17_data.csv,1,300,182.0,Training at home,,,,,,,,,,,,,
16,20,4574,A,14.420003920526543,40.41227394714621,0.7210001960263271,0.6347945147360635,A,613.0404160066973,Correct,sub_016_day_17_data.csv,1,300,182.0,Training at home,,,,,,,,,,,,,
16,20,4575,A,31.447034246125853,63.990389012693825,1.5723517123062924,1.0051586801131598,A,1321.4005829941016,Correct,sub_016_day_17_data.csv,1,300,183.0,Training at home,,,,,,,,,,,,,
16,20,4576,A,37.79108888844531,49.62798084690712,1.8895544444222656,0.779554500205692,A,759.0657070104498,Correct,sub_016_day_17_data.csv,1,300,183.0,Training at home,,,,,,,,,,,,,
16,20,4577,B,37.09160437165879,25.75837431299544,1.8545802185829392,0.4046115975506125,B,654.1517070145346,Correct,sub_016_day_17_data.csv,1,300,183.0,Training at home,,,,,,,,,,,,,
16,20,4578,B,30.379776307522945,14.405501130713514,1.5189888153761473,0.2262810826176451,B,701.0514580179006,Correct,sub_016_day_17_data.csv,1,300,183.0,Training at home,,,,,,,,,,,,,
16,20,4579,B,39.69548648883911,24.66318359091469,1.9847743244419551,0.3874083819167696,B,665.9224570030347,Correct,sub_016_day_17_data.csv,1,300,183.0,Training at home,,,,,,,,,,,,,
16,20,4580,B,48.70751732801558,19.578350477275933,2.4353758664007787,0.3075360101440815,B,684.4402079877909,Correct,sub_016_day_17_data.csv,1,300,183.0,Training at home,,,,,,,,,,,,,
16,20,4581,B,31.88668274892995,17.789628242146577,1.5943341374464977,0.2794388269781059,B,818.4474569861777,Correct,sub_016_day_17_data.csv,1,300,183.0,Training at home,,,,,,,,,,,,,
16,20,4582,A,17.180023426129807,34.00488870810349,0.8590011713064903,0.5341475427575821,A,1249.6172910032328,Correct,sub_016_day_17_data.csv,1,300,183.0,Training at home,,,,,,,,,,,,,
16,20,4583,B,49.240349675675866,20.300327201479565,2.462017483783794,0.3188767940081862,B,1853.312958002789,Correct,sub_016_day_17_data.csv,1,300,183.0,Training at home,,,,,,,,,,,,,
16,20,4584,B,30.91769471163851,15.755394295391907,1.5458847355819256,0.2474851548640687,B,664.7300829936285,Correct,sub_016_day_17_data.csv,1,300,183.0,Training at home,,,,,,,,,,,,,
16,20,4585,B,48.61326666310455,19.339827409421673,2.430663333155227,0.3037892985556683,B,672.1764999965671,Correct,sub_016_day_17_data.csv,1,300,183.0,Training at home,,,,,,,,,,,,,
16,20,4586,A,62.40901806855419,80.35355038879158,3.1204509034277095,1.2621906179564244,A,662.2206660103984,Correct,sub_016_day_17_data.csv,1,300,183.0,Training at home,,,,,,,,,,,,,
16,20,4587,B,42.86754020044947,15.013167868722968,2.1433770100224736,0.235826289417452,B,759.6177489904221,Correct,sub_016_day_17_data.csv,1,300,183.0,Training at home,,,,,,,,,,,,,
16,20,4588,A,55.023630340899885,76.07879407432208,2.7511815170449943,1.1950429027893046,A,753.4241660032421,Correct,sub_016_day_17_data.csv,1,300,183.0,Training at home,,,,,,,,,,,,,
16,20,4589,A,45.58627660948859,52.96697130268861,2.27931383047443,0.8320032396371396,B,3924.057249998441,Incorrect,sub_016_day_17_data.csv,0,300,183.0,Training at home,,,,,,,,,,,,,
16,20,4590,A,26.842006603715863,46.52890199268287,1.342100330185793,0.7308742833990599,A,697.9780830151867,Correct,sub_016_day_17_data.csv,1,300,183.0,Training at home,,,,,,,,,,,,,
16,20,4591,B,67.24151229980805,51.73738364577388,3.3620756149904025,0.8126889218875998,A,1033.8359989982564,Incorrect,sub_016_day_17_data.csv,0,300,183.0,Training at home,,,,,,,,,,,,,
16,20,4592,A,51.92571991161874,62.191903669673614,2.5962859955809368,0.9769081384070536,A,636.4077909965999,Correct,sub_016_day_17_data.csv,1,300,183.0,Training at home,,,,,,,,,,,,,
16,20,4593,A,39.51144087831568,64.64889842713339,1.975572043915784,1.015502521806775,A,836.6512490028981,Correct,sub_016_day_17_data.csv,1,300,183.0,Training at home,,,,,,,,,,,,,
16,20,4594,A,60.80325837895148,79.0428271022037,3.040162918947574,1.2416018247162568,A,600.968749000458,Correct,sub_016_day_17_data.csv,1,300,183.0,Training at home,,,,,,,,,,,,,
16,20,4595,B,39.81468681618918,22.01554276727545,1.990734340809459,0.3458193371123222,B,761.6259990027174,Correct,sub_016_day_17_data.csv,1,300,183.0,Training at home,,,,,,,,,,,,,
16,20,4596,A,18.21206972570558,41.25988698916449,0.9106034862852788,0.6481087892655212,A,564.7805819753557,Correct,sub_016_day_17_data.csv,1,300,183.0,Training at home,,,,,,,,,,,,,
16,20,4597,A,34.202956470765116,44.51394729794432,1.710147823538256,0.6992234490675254,A,484.75862498162314,Correct,sub_016_day_17_data.csv,1,300,183.0,Training at home,,,,,,,,,,,,,
16,20,4598,A,42.38618873211701,68.39718248907634,2.1193094366058505,1.0743804301696136,A,765.265708003426,Correct,sub_016_day_17_data.csv,1,300,183.0,Training at home,,,,,,,,,,,,,
16,20,4599,A,29.951909453031952,50.69953930576441,1.4975954726515976,0.7963865011168823,A,2558.3694580127485,Correct,sub_016_day_17_data.csv,1,300,183.0,Training at home,,,,,,,,,,,,,
16,20,4600,A,44.975426956094466,70.97966448234038,2.2487713478047233,1.1149459624599447,A,480.5921239894815,Correct,sub_016_day_17_data.csv,1,300,184.0,Training at home,,,,,,,,,,,,,
16,20,4601,A,59.11496491434387,73.18674155294332,2.955748245717194,1.1496146480145075,A,497.56154100759886,Correct,sub_016_day_17_data.csv,1,300,184.0,Training at home,,,,,,,,,,,,,
16,20,4602,A,17.79275768900912,38.090076195037085,0.8896378844504561,0.5983175177450198,A,608.8181239902042,Correct,sub_016_day_17_data.csv,1,300,184.0,Training at home,,,,,,,,,,,,,
16,20,4603,A,35.456072519976146,63.04228875414867,1.7728036259988074,0.9902659560775994,A,3116.3018330116756,Correct,sub_016_day_17_data.csv,1,300,184.0,Training at home,,,,,,,,,,,,,
16,20,4604,B,77.0592941519362,61.088542952041976,3.85296470759681,0.9595765887831982,B,3254.393457988044,Correct,sub_016_day_17_data.csv,1,300,184.0,Training at home,,,,,,,,,,,,,
16,20,4605,B,87.43532721619934,69.48844999828052,4.371766360809967,1.091522020119699,A,324.44099901476875,Incorrect,sub_016_day_17_data.csv,0,300,184.0,Training at home,,,,,,,,,,,,,
16,20,4606,A,34.852675081242346,62.08782252426256,1.7426337540621173,0.9752732355980508,A,686.6147910186555,Correct,sub_016_day_17_data.csv,1,300,184.0,Training at home,,,,,,,,,,,,,
16,20,4607,B,59.96983012910876,36.475512303161594,2.9984915064554376,0.5729560074376828,B,759.3839160108473,Correct,sub_016_day_17_data.csv,1,300,184.0,Training at home,,,,,,,,,,,,,
16,20,4608,B,70.22652894417524,55.601254141763384,3.511326447208762,0.8733824577107145,B,2558.4354989987332,Correct,sub_016_day_17_data.csv,1,300,184.0,Training at home,,,,,,,,,,,,,
16,20,4609,B,55.52943255589248,23.297817121030388,2.776471627794624,0.3659612555605379,B,725.2598330087494,Correct,sub_016_day_17_data.csv,1,300,184.0,Training at home,,,,,,,,,,,,,
16,20,4610,B,52.85669200763875,31.723281614286385,2.6428346003819376,0.4983081423360113,B,1505.8320820098745,Correct,sub_016_day_17_data.csv,1,300,184.0,Training at home,,,,,,,,,,,,,
16,20,4611,A,37.510593894449826,63.684735937322145,1.875529694722491,1.0003574928324857,A,800.1491659961175,Correct,sub_016_day_17_data.csv,1,300,184.0,Training at home,,,,,,,,,,,,,
16,20,4612,B,73.00102450419892,56.836728991856695,3.650051225209946,0.8927892512744549,B,801.2487489904743,Correct,sub_016_day_17_data.csv,1,300,184.0,Training at home,,,,,,,,,,,,,
16,20,4613,B,54.80704156664106,29.35014770117006,2.740352078332053,0.4610310419988561,B,2210.7479569967836,Correct,sub_016_day_17_data.csv,1,300,184.0,Training at home,,,,,,,,,,,,,
16,20,4614,B,37.196140600972,18.99814459678774,1.8598070300486,0.2984221574855248,B,1828.8574159960265,Correct,sub_016_day_17_data.csv,1,300,184.0,Training at home,,,,,,,,,,,,,
16,20,4615,B,40.18856028731226,21.62501295930571,2.009428014365613,0.3396849092336945,A,365.69479102035984,Incorrect,sub_016_day_17_data.csv,0,300,184.0,Training at home,,,,,,,,,,,,,
16,20,4616,A,31.01223652577074,55.863841441190246,1.5506118262885369,0.8775071693647416,A,965.1502070191782,Correct,sub_016_day_17_data.csv,1,300,184.0,Training at home,,,,,,,,,,,,,
16,20,4617,B,86.76127008135299,63.10643330429009,4.33806350406765,0.99127353631506,B,776.4893319981638,Correct,sub_016_day_17_data.csv,1,300,184.0,Training at home,,,,,,,,,,,,,
16,20,4618,A,24.72294479544791,53.67182615896032,1.2361472397723956,0.8430750738286912,A,849.8368749860674,Correct,sub_016_day_17_data.csv,1,300,184.0,Training at home,,,,,,,,,,,,,
16,20,4619,B,48.926363146599016,23.276982953101086,2.4463181573299506,0.3656339932159861,B,1190.89108298067,Correct,sub_016_day_17_data.csv,1,300,184.0,Training at home,,,,,,,,,,,,,
16,20,4620,B,78.29198414592973,52.14879382958402,3.9145992072964866,0.8191513379429495,B,1658.1022909958847,Correct,sub_016_day_17_data.csv,1,300,184.0,Training at home,,,,,,,,,,,,,
16,20,4621,A,60.340266920462554,70.55080026187005,3.017013346023128,1.108209379037859,A,641.8124159972649,Correct,sub_016_day_17_data.csv,1,300,184.0,Training at home,,,,,,,,,,,,,
16,20,4622,A,21.359776952595755,35.774868655743276,1.0679888476297876,0.5619503227601141,A,1408.9730830164626,Correct,sub_016_day_17_data.csv,1,300,184.0,Training at home,,,,,,,,,,,,,
16,20,4623,B,68.55779519648729,39.75365987782887,3.4278897598243647,0.6244490291274725,B,1334.4932909822091,Correct,sub_016_day_17_data.csv,1,300,184.0,Training at home,,,,,,,,,,,,,
16,20,4624,A,46.78222085697323,62.97365693878029,2.3391110428486614,0.9891878900427804,A,486.0414159775246,Correct,sub_016_day_17_data.csv,1,300,184.0,Training at home,,,,,,,,,,,,,
16,20,4625,B,32.46121148544094,17.85167690373873,1.623060574272047,0.2804134850752209,B,5020.570458000293,Correct,sub_016_day_17_data.csv,1,300,185.0,Training at home,,,,,,,,,,,,,
16,20,4626,A,39.536307254506994,52.55991770624326,1.9768153627253495,0.8256092566960895,A,998.5280410037376,Correct,sub_016_day_17_data.csv,1,300,185.0,Training at home,,,,,,,,,,,,,
16,20,4627,A,36.172730088976714,53.551174047825015,1.8086365044488355,0.8411798748987771,A,750.3058330039494,Correct,sub_016_day_17_data.csv,1,300,185.0,Training at home,,,,,,,,,,,,,
16,20,4628,B,55.59161378002137,25.742034812499767,2.779580689001069,0.4043549372770098,B,1426.3074990012683,Correct,sub_016_day_17_data.csv,1,300,185.0,Training at home,,,,,,,,,,,,,
16,20,4629,A,51.13346120927375,78.13755238962247,2.5566730604636874,1.2273818027836276,A,550.6331659853458,Correct,sub_016_day_17_data.csv,1,300,185.0,Training at home,,,,,,,,,,,,,
16,20,4630,A,42.144858789609245,56.71917068953431,2.1072429394804626,0.8909426497797325,A,1664.3809580127709,Correct,sub_016_day_17_data.csv,1,300,185.0,Training at home,,,,,,,,,,,,,
16,20,4631,A,46.91307382952891,68.66149994724239,2.3456536914764454,1.0785323190935634,A,1522.1694159845356,Correct,sub_016_day_17_data.csv,1,300,185.0,Training at home,,,,,,,,,,,,,
16,20,4632,B,57.728842084016605,38.57238709663704,2.8864421042008304,0.6058936396710832,B,683.7524579896126,Correct,sub_016_day_17_data.csv,1,300,185.0,Training at home,,,,,,,,,,,,,
16,20,4633,B,65.17223783921622,54.237162927286846,3.258611891960811,0.8519553630195852,B,1252.860748994863,Correct,sub_016_day_17_data.csv,1,300,185.0,Training at home,,,,,,,,,,,,,
16,20,4634,B,76.2811498969081,55.43675528895578,3.8140574948454056,0.8707985157731929,B,2274.422874994343,Correct,sub_016_day_17_data.csv,1,300,185.0,Training at home,,,,,,,,,,,,,
16,20,4635,B,38.17183594352774,14.989870109422164,1.908591797176387,0.2354603290701294,B,908.3256239828188,Correct,sub_016_day_17_data.csv,1,300,185.0,Training at home,,,,,,,,,,,,,
16,20,4636,B,69.31242794229289,50.09095983090287,3.465621397114644,0.7868269570801295,B,3271.1398740066215,Correct,sub_016_day_17_data.csv,1,300,185.0,Training at home,,,,,,,,,,,,,
16,20,4637,B,42.77275946134813,18.512671217342746,2.1386379730674063,0.2907963594736358,B,696.3516240066383,Correct,sub_016_day_17_data.csv,1,300,185.0,Training at home,,,,,,,,,,,,,
16,20,4638,A,50.04250466361184,78.31871255288658,2.502125233180592,1.230227459973796,A,835.8215000189375,Correct,sub_016_day_17_data.csv,1,300,185.0,Training at home,,,,,,,,,,,,,
16,20,4639,B,54.66267838603986,28.350396095695135,2.733133919301993,0.4453269805029828,B,1146.5504159859847,Correct,sub_016_day_17_data.csv,1,300,185.0,Training at home,,,,,,,,,,,,,
16,20,4640,B,83.94178972818354,64.72940546973692,4.197089486409177,1.0167671234748024,B,1756.055915990146,Correct,sub_016_day_17_data.csv,1,300,185.0,Training at home,,,,,,,,,,,,,
16,20,4641,B,65.58222971740666,38.162132182597425,3.279111485870333,0.5994493705508535,B,3942.1849989739712,Correct,sub_016_day_17_data.csv,1,300,185.0,Training at home,,,,,,,,,,,,,
16,20,4642,B,64.90595191634512,51.36924722287,3.2452975958172554,0.8069062484790315,B,1185.5119159736205,Correct,sub_016_day_17_data.csv,1,300,185.0,Training at home,,,,,,,,,,,,,
16,20,4643,B,56.822876751291496,40.104178135590146,2.841143837564575,0.629954957045132,B,885.5124159890693,Correct,sub_016_day_17_data.csv,1,300,185.0,Training at home,,,,,,,,,,,,,
16,20,4644,A,15.538990644592165,36.83860200344153,0.7769495322296082,0.5786594071126507,A,572.52045799396,Correct,sub_016_day_17_data.csv,1,300,185.0,Training at home,,,,,,,,,,,,,
16,20,4645,B,82.04375646969822,53.37102593176598,4.102187823484911,0.8383501149089317,B,956.71262498945,Correct,sub_016_day_17_data.csv,1,300,185.0,Training at home,,,,,,,,,,,,,
16,20,4646,B,56.21370503643174,31.816521348174135,2.810685251821587,0.4997727486510334,B,4510.988832014846,Correct,sub_016_day_17_data.csv,1,300,185.0,Training at home,,,,,,,,,,,,,
16,20,4647,A,24.41671772780556,45.70010931712748,1.2208358863902782,0.7178556384946908,A,575.57641598396,Correct,sub_016_day_17_data.csv,1,300,185.0,Training at home,,,,,,,,,,,,,
16,20,4648,A,34.03515622737606,48.23973567708565,1.7017578113688032,0.7577479960712287,A,1009.6369160164612,Correct,sub_016_day_17_data.csv,1,300,185.0,Training at home,,,,,,,,,,,,,
16,20,4649,B,36.80931561273853,25.77379935013695,1.840465780636927,0.4048538934674382,B,4227.19654100365,Correct,sub_016_day_17_data.csv,1,300,185.0,Training at home,,,,,,,,,,,,,
16,20,4650,B,42.03259208474555,27.966422669200263,2.1016296042372775,0.4392955400237329,B,972.2714580129832,Correct,sub_016_day_17_data.csv,1,300,186.0,Training at home,,,,,,,,,,,,,
16,20,4651,A,39.28027892345903,55.10216908408973,1.9640139461729516,0.8655428479571945,A,1308.587956998963,Correct,sub_016_day_17_data.csv,1,300,186.0,Training at home,,,,,,,,,,,,,
16,20,4652,A,34.4154889579799,43.68399858758229,1.7207744478989953,0.686186645210877,A,5592.876873997739,Correct,sub_016_day_17_data.csv,1,300,186.0,Training at home,,,,,,,,,,,,,
16,20,4653,B,80.00834369501617,58.045081773043066,4.000417184750808,0.9117700123760546,B,914.181999018183,Correct,sub_016_day_17_data.csv,1,300,186.0,Training at home,,,,,,,,,,,,,
16,20,4654,B,69.36013474223165,50.923192661846755,3.4680067371115824,0.7998996398189772,B,5220.734331989661,Correct,sub_016_day_17_data.csv,1,300,186.0,Training at home,,,,,,,,,,,,,
16,20,4655,B,79.53282915502218,64.50053181845308,3.976641457751109,1.0131719845674343,A,1112.6857079798356,Incorrect,sub_016_day_17_data.csv,0,300,186.0,Training at home,,,,,,,,,,,,,
16,20,4656,B,82.80177871504443,55.460783121577656,4.140088935752221,0.8711759440854258,B,660.2224159869365,Correct,sub_016_day_17_data.csv,1,300,186.0,Training at home,,,,,,,,,,,,,
16,20,4657,B,64.57982973449634,54.95041987391406,3.228991486724817,0.8631591769378149,B,5830.932457000017,Correct,sub_016_day_17_data.csv,1,300,186.0,Training at home,,,,,,,,,,,,,
16,20,4658,A,41.94895212717218,51.14185419520577,2.0974476063586085,0.8033343671530938,A,2674.0079580049496,Correct,sub_016_day_17_data.csv,1,300,186.0,Training at home,,,,,,,,,,,,,
16,20,4659,A,32.16470989005075,40.60925922872657,1.6082354945025374,0.6378887523034545,A,856.1706659966148,Correct,sub_016_day_17_data.csv,1,300,186.0,Training at home,,,,,,,,,,,,,
16,20,4660,B,36.44286747708473,16.743453578427307,1.8221433738542367,0.2630055537885448,B,861.0643740103114,Correct,sub_016_day_17_data.csv,1,300,186.0,Training at home,,,,,,,,,,,,,
16,20,4661,A,29.961220822146775,54.40398209821176,1.4980610411073387,0.8545757524288635,A,1505.9809160011357,Correct,sub_016_day_17_data.csv,1,300,186.0,Training at home,,,,,,,,,,,,,
16,20,4662,B,79.29887583212475,49.43705800005975,3.9649437916062378,0.7765554911404011,B,865.4067080060486,Correct,sub_016_day_17_data.csv,1,300,186.0,Training at home,,,,,,,,,,,,,
16,20,4663,A,39.78437465830922,47.410479456764264,1.989218732915461,0.7447220698227022,A,1166.9293329759969,Correct,sub_016_day_17_data.csv,1,300,186.0,Training at home,,,,,,,,,,,,,
16,20,4664,A,10.658172433450224,33.50546733567616,0.5329086216725113,0.5263026501842649,A,587.3039569996763,Correct,sub_016_day_17_data.csv,1,300,186.0,Training at home,,,,,,,,,,,,,
16,20,4665,B,40.14744903992691,31.874890202448476,2.007372451996346,0.500689604469967,A,1389.2304580076598,Incorrect,sub_016_day_17_data.csv,0,300,186.0,Training at home,,,,,,,,,,,,,
16,20,4666,B,56.78370762701219,42.38490478131602,2.8391853813506094,0.6657805274204265,B,957.7759159728884,Correct,sub_016_day_17_data.csv,1,300,186.0,Training at home,,,,,,,,,,,,,
16,20,4667,A,52.799543223480114,63.13792917335361,2.6399771611740057,0.991768272269402,A,473.3173330023419,Correct,sub_016_day_17_data.csv,1,300,186.0,Training at home,,,,,,,,,,,,,
16,20,4668,B,59.63014516604565,39.22356168910839,2.9815072583022824,0.6161222662506448,A,672.1057489921805,Incorrect,sub_016_day_17_data.csv,0,300,186.0,Training at home,,,,,,,,,,,,,
16,20,4669,A,55.27280753234544,68.77094842329696,2.763640376617272,1.0802515317351613,A,672.6926660048775,Correct,sub_016_day_17_data.csv,1,300,186.0,Training at home,,,,,,,,,,,,,
16,20,4670,A,54.65489007772682,64.92624251449672,2.732744503886341,1.019859032543661,A,393.3014990179799,Correct,sub_016_day_17_data.csv,1,300,186.0,Training at home,,,,,,,,,,,,,
16,20,4671,B,34.02209595202859,13.136638192966617,1.7011047976014295,0.206349830199455,B,659.3854999809992,Correct,sub_016_day_17_data.csv,1,300,186.0,Training at home,,,,,,,,,,,,,
16,20,4672,A,12.301464552515911,32.173927011014506,0.6150732276257956,0.5053868636746869,A,576.085207023425,Correct,sub_016_day_17_data.csv,1,300,186.0,Training at home,,,,,,,,,,,,,
16,20,4673,B,80.4005133458538,57.31102753577244,4.02002566729269,0.9002395153803251,B,1053.9861660217866,Correct,sub_016_day_17_data.csv,1,300,186.0,Training at home,,,,,,,,,,,,,
16,20,4674,B,57.283504144734195,40.063091441967075,2.86417520723671,0.6293095687708994,B,1027.2376250068191,Correct,sub_016_day_17_data.csv,1,300,186.0,Training at home,,,,,,,,,,,,,
16,20,4675,A,55.913044728905376,68.68891588696468,2.795652236445269,1.0789629676676773,A,529.1923330223653,Correct,sub_016_day_17_data.csv,1,300,187.0,Training at home,,,,,,,,,,,,,
16,20,4676,A,16.32332765700706,44.45859130290797,0.8161663828503529,0.6983539191308337,A,500.77645797864534,Correct,sub_016_day_17_data.csv,1,300,187.0,Training at home,,,,,,,,,,,,,
16,20,4677,B,45.98505392877872,28.04627676228308,2.299252696438936,0.4405498851846732,B,872.5711659935769,Correct,sub_016_day_17_data.csv,1,300,187.0,Training at home,,,,,,,,,,,,,
16,20,4678,B,53.52944964572114,45.03976787293149,2.676472482286057,0.7074830193449558,A,476.5871659910772,Incorrect,sub_016_day_17_data.csv,0,300,187.0,Training at home,,,,,,,,,,,,,
16,20,4679,A,13.672720661893448,37.04321400475864,0.6836360330946724,0.5818734449135214,B,470.6312910129782,Incorrect,sub_016_day_17_data.csv,0,300,187.0,Training at home,,,,,,,,,,,,,
16,20,4680,B,72.77176036050503,50.3543928919092,3.638588018025251,0.7909649539259803,B,2458.196833002148,Correct,sub_016_day_17_data.csv,1,300,187.0,Training at home,,,,,,,,,,,,,
16,20,4681,A,41.421993815850335,50.22970504176074,2.0710996907925168,0.7890063617558885,A,697.2000819805544,Correct,sub_016_day_17_data.csv,1,300,187.0,Training at home,,,,,,,,,,,,,
16,20,4682,A,47.608402795993136,74.81538363786255,2.3804201397996567,1.175197298061055,A,543.2263739930931,Correct,sub_016_day_17_data.csv,1,300,187.0,Training at home,,,,,,,,,,,,,
16,20,4683,A,12.529906858990042,37.67092168514964,0.6264953429495022,0.5917334541001127,A,598.7112490111031,Correct,sub_016_day_17_data.csv,1,300,187.0,Training at home,,,,,,,,,,,,,
16,20,4684,B,39.332070567568245,30.380350299802416,1.966603528378412,0.4772134265767187,A,8276.95020797546,Incorrect,sub_016_day_17_data.csv,0,300,187.0,Training at home,,,,,,,,,,,,,
16,20,4685,A,37.34034952804872,69.80517723038014,1.867017476402436,1.0964971598474786,A,1911.3744990027044,Correct,sub_016_day_17_data.csv,1,300,187.0,Training at home,,,,,,,,,,,,,
16,20,4686,B,80.7901317092381,64.96818583978904,4.039506585461905,1.0205178767566885,B,1426.664458005689,Correct,sub_016_day_17_data.csv,1,300,187.0,Training at home,,,,,,,,,,,,,
16,20,4687,B,85.4543448499213,67.0457931944429,4.272717242496065,1.0531528567688115,A,1059.4042069860734,Incorrect,sub_016_day_17_data.csv,0,300,187.0,Training at home,,,,,,,,,,,,,
16,20,4688,A,35.88123541356579,49.22930505098247,1.794061770678289,0.7732921154474871,A,644.3541659973562,Correct,sub_016_day_17_data.csv,1,300,187.0,Training at home,,,,,,,,,,,,,
16,20,4689,A,55.32171347838151,80.60544449731148,2.7660856739190756,1.2661473613604677,A,650.0276659789961,Correct,sub_016_day_17_data.csv,1,300,187.0,Training at home,,,,,,,,,,,,,
16,20,4690,A,29.871853298338905,55.477106079686294,1.493592664916945,0.8714323445118205,A,546.2269160198048,Correct,sub_016_day_17_data.csv,1,300,187.0,Training at home,,,,,,,,,,,,,
16,20,4691,A,53.64470691970577,81.99946491034875,2.6822353459852883,1.2880445828032283,A,612.3772069986444,Correct,sub_016_day_17_data.csv,1,300,187.0,Training at home,,,,,,,,,,,,,
16,20,4692,A,21.47154467377194,37.288597897687865,1.0735772336885971,0.5857279260902,A,910.194625001168,Correct,sub_016_day_17_data.csv,1,300,187.0,Training at home,,,,,,,,,,,,,
16,20,4693,B,86.45007644800367,58.436195573244774,4.322503822400183,0.9179136135832108,B,789.0415829897393,Correct,sub_016_day_17_data.csv,1,300,187.0,Training at home,,,,,,,,,,,,,
16,20,4694,B,69.6140650612936,39.42287577602399,3.4807032530646804,0.6192530846066999,B,663.2614989939611,Correct,sub_016_day_17_data.csv,1,300,187.0,Training at home,,,,,,,,,,,,,
16,20,4695,B,61.62323578549432,34.73920632362889,3.081161789274716,0.5456821768892631,B,847.7647069958039,Correct,sub_016_day_17_data.csv,1,300,187.0,Training at home,,,,,,,,,,,,,
16,20,4696,A,35.93211472124332,55.06239477560057,1.796605736062166,0.8649180745804388,A,1089.3969160097186,Correct,sub_016_day_17_data.csv,1,300,187.0,Training at home,,,,,,,,,,,,,
16,20,4697,A,57.55627027354781,82.13945807156844,2.87781351367739,1.2902435902374312,A,528.5290410101879,Correct,sub_016_day_17_data.csv,1,300,187.0,Training at home,,,,,,,,,,,,,
16,20,4698,B,43.962669665334104,31.26487425535946,2.198133483266705,0.4911074963802296,B,620.6149990030099,Correct,sub_016_day_17_data.csv,1,300,187.0,Training at home,,,,,,,,,,,,,
16,20,4699,B,81.98514060630971,62.74051029220778,4.099257030315486,0.9855256310823738,B,1727.594666008372,Correct,sub_016_day_17_data.csv,1,300,187.0,Training at home,,,,,,,,,,,,,
16,20,4700,B,77.9820426281487,57.45824985447353,3.8991021314074352,0.902552078154704,B,960.7626660144888,Correct,sub_016_day_17_data.csv,1,300,188.0,Training at home,,,,,,,,,,,,,
16,20,4701,B,74.52293417340444,62.895604398236514,3.726146708670222,0.9879618436029488,B,1982.1258329902776,Correct,sub_016_day_17_data.csv,1,300,188.0,Training at home,,,,,,,,,,,,,
16,20,4702,A,54.91136827598676,71.00751338581979,2.7455684137993384,1.1153834120128518,A,667.2000830003526,Correct,sub_016_day_17_data.csv,1,300,188.0,Training at home,,,,,,,,,,,,,
16,20,4703,B,55.594797036089886,34.0331731231104,2.7797398518044942,0.5345918333095662,A,903.6302489985246,Incorrect,sub_016_day_17_data.csv,0,300,188.0,Training at home,,,,,,,,,,,,,
16,20,4704,B,61.90410310526118,36.69369935728873,3.095205155263059,0.576383281669454,B,1206.0251660004724,Correct,sub_016_day_17_data.csv,1,300,188.0,Training at home,,,,,,,,,,,,,
16,20,4705,B,46.24661365440042,35.85073139714874,2.312330682720021,0.5631419719155172,B,1848.8927069993224,Correct,sub_016_day_17_data.csv,1,300,188.0,Training at home,,,,,,,,,,,,,
16,20,4706,B,43.9042127442146,18.684987598903287,2.19521063721073,0.2935030988656548,B,1280.1264570152853,Correct,sub_016_day_17_data.csv,1,300,188.0,Training at home,,,,,,,,,,,,,
16,20,4707,A,55.71892841813021,73.20296378794991,2.7859464209065106,1.1498694662861155,A,664.6788329817355,Correct,sub_016_day_17_data.csv,1,300,188.0,Training at home,,,,,,,,,,,,,
16,20,4708,A,14.02854456909515,32.38658536590619,0.7014272284547575,0.508727293301948,A,1122.9518740146889,Correct,sub_016_day_17_data.csv,1,300,188.0,Training at home,,,,,,,,,,,,,
16,20,4709,A,55.629515961843246,80.8695013242336,2.781475798092162,1.2702951562984115,A,880.4979579872452,Correct,sub_016_day_17_data.csv,1,300,188.0,Training at home,,,,,,,,,,,,,
16,20,4710,A,50.34367839261778,69.2391166728798,2.5171839196308894,1.0876055014028287,A,509.51295701088384,Correct,sub_016_day_17_data.csv,1,300,188.0,Training at home,,,,,,,,,,,,,
16,20,4711,A,48.49799928543117,70.92055997298671,2.4248999642715585,1.114017550998047,A,626.711165998131,Correct,sub_016_day_17_data.csv,1,300,188.0,Training at home,,,,,,,,,,,,,
16,20,4712,A,35.710765485515196,44.100190350736504,1.7855382742757595,0.6927241701389265,A,2510.263208008837,Correct,sub_016_day_17_data.csv,1,300,188.0,Training at home,,,,,,,,,,,,,
16,20,4713,B,68.58849591197598,35.75240445978888,3.4294247955987993,0.5615974559952184,B,1015.2924160065596,Correct,sub_016_day_17_data.csv,1,300,188.0,Training at home,,,,,,,,,,,,,
16,20,4714,B,61.128139180110274,51.82628677878641,3.0564069590055136,0.8140854090353661,B,1602.2023739933502,Correct,sub_016_day_17_data.csv,1,300,188.0,Training at home,,,,,,,,,,,,,
16,20,4715,A,32.18271542073461,60.02121628746541,1.6091357710367304,0.9428110607411267,A,534.3263740069233,Correct,sub_016_day_17_data.csv,1,300,188.0,Training at home,,,,,,,,,,,,,
16,20,4716,A,24.390741150060656,55.196555287243285,1.2195370575030329,0.8670254629693318,A,968.7746659910772,Correct,sub_016_day_17_data.csv,1,300,188.0,Training at home,,,,,,,,,,,,,
16,20,4717,B,53.93245797755769,38.12071830673283,2.6966228988778846,0.5987988429099891,A,1202.9622909903992,Incorrect,sub_016_day_17_data.csv,0,300,188.0,Training at home,,,,,,,,,,,,,
16,20,4718,A,65.95231619607398,85.962328637861,3.297615809803699,1.350293100670878,A,867.1242909913417,Correct,sub_016_day_17_data.csv,1,300,188.0,Training at home,,,,,,,,,,,,,
16,20,4719,B,50.23909319747018,23.606216793251164,2.5119546598735094,0.3708055862836292,B,620.1077909790911,Correct,sub_016_day_17_data.csv,1,300,188.0,Training at home,,,,,,,,,,,,,
16,20,4720,A,27.19104411799577,58.13301861682537,1.3595522058997884,0.9131513210880862,A,538.0198319908231,Correct,sub_016_day_17_data.csv,1,300,188.0,Training at home,,,,,,,,,,,,,
16,20,4721,B,34.76155865691128,24.139778013615228,1.7380779328455642,0.3791867463343101,B,823.0741240258794,Correct,sub_016_day_17_data.csv,1,300,188.0,Training at home,,,,,,,,,,,,,
16,20,4722,B,52.81127644346801,29.60676821717662,2.6405638221734007,0.4650620276380892,B,738.9562489988748,Correct,sub_016_day_17_data.csv,1,300,188.0,Training at home,,,,,,,,,,,,,
16,20,4723,A,34.390812920086326,55.69019789483743,1.719540646004316,0.8747795829169153,A,482.4190830113366,Correct,sub_016_day_17_data.csv,1,300,188.0,Training at home,,,,,,,,,,,,,
16,20,4724,B,41.65119103690162,26.556128327844945,2.082559551845081,0.4171426883127274,B,881.4861660066526,Correct,sub_016_day_17_data.csv,1,300,188.0,Training at home,,,,,,,,,,,,,
16,20,4725,B,72.66486708591653,56.029405933343384,3.6332433542958262,0.8801078503259597,B,1474.496665992774,Correct,sub_016_day_17_data.csv,1,300,189.0,Training at home,,,,,,,,,,,,,
16,20,4726,A,53.651968521891874,73.74135649180035,2.682598426094594,1.15832651910193,A,527.7911659795791,Correct,sub_016_day_17_data.csv,1,300,189.0,Training at home,,,,,,,,,,,,,
16,20,4727,A,28.608157760732713,58.41465626935657,1.4304078880366355,0.9175752749889176,A,821.330290986225,Correct,sub_016_day_17_data.csv,1,300,189.0,Training at home,,,,,,,,,,,,,
16,20,4728,B,37.01709042994423,21.70737016206034,1.8508545214972116,0.3409785731494152,B,1473.040540993679,Correct,sub_016_day_17_data.csv,1,300,189.0,Training at home,,,,,,,,,,,,,
16,20,4729,A,37.65037141477381,61.76170695881065,1.8825185707386904,0.9701506242748256,A,595.8309989946429,Correct,sub_016_day_17_data.csv,1,300,189.0,Training at home,,,,,,,,,,,,,
16,20,4730,A,31.63372515050511,42.722908405680585,1.5816862575252555,0.6710898759363787,A,4960.7165819907095,Correct,sub_016_day_17_data.csv,1,300,189.0,Training at home,,,,,,,,,,,,,
16,20,4731,A,45.556113254073935,53.336272750379294,2.2778056627036967,0.8378042132122652,A,1471.8133739952464,Correct,sub_016_day_17_data.csv,1,300,189.0,Training at home,,,,,,,,,,,,,
16,20,4732,B,58.17912587805151,33.72570277737788,2.9089562939025755,0.5297621004128162,B,622.9792500089388,Correct,sub_016_day_17_data.csv,1,300,189.0,Training at home,,,,,,,,,,,,,
16,20,4733,A,21.085238273154797,36.70404293251379,1.0542619136577398,0.5765457581691483,A,1526.8702910107097,Correct,sub_016_day_17_data.csv,1,300,189.0,Training at home,,,,,,,,,,,,,
16,20,4734,A,49.82241658374621,73.63823768301938,2.491120829187311,1.1567067326413638,A,575.4312910139561,Correct,sub_016_day_17_data.csv,1,300,189.0,Training at home,,,,,,,,,,,,,
16,20,4735,A,34.25377549391675,43.86037075276816,1.7126887746958377,0.6889570927031053,A,773.5089159978088,Correct,sub_016_day_17_data.csv,1,300,189.0,Training at home,,,,,,,,,,,,,
16,20,4736,A,22.760138307661837,53.589308178131304,1.1380069153830918,0.8417788844168836,A,463.2532070099842,Correct,sub_016_day_17_data.csv,1,300,189.0,Training at home,,,,,,,,,,,,,
16,20,4737,A,44.46613196986452,71.73111049631234,2.223306598493226,1.1267496488452629,A,1336.8630829791073,Correct,sub_016_day_17_data.csv,1,300,189.0,Training at home,,,,,,,,,,,,,
16,20,4738,B,60.658065338085194,51.46027465459886,3.0329032669042597,0.808336104033004,B,874.6464579890016,Correct,sub_016_day_17_data.csv,1,300,189.0,Training at home,,,,,,,,,,,,,
16,20,4739,B,42.06324705289474,30.57449094503724,2.1031623526447367,0.4802629807008832,B,3172.0346240035724,Correct,sub_016_day_17_data.csv,1,300,189.0,Training at home,,,,,,,,,,,,,
16,20,4740,B,44.17159503376486,18.451752216349306,2.2085797516882426,0.2898394460437108,B,683.9457080059219,Correct,sub_016_day_17_data.csv,1,300,189.0,Training at home,,,,,,,,,,,,,
16,20,4741,B,62.222116122794006,49.67932195124384,3.1111058061397,0.7803609643867488,B,708.7597909849137,Correct,sub_016_day_17_data.csv,1,300,189.0,Training at home,,,,,,,,,,,,,
16,20,4742,A,39.99346575507392,61.731398021906365,1.999673287753696,0.9696745326072423,A,593.6982079874724,Correct,sub_016_day_17_data.csv,1,300,189.0,Training at home,,,,,,,,,,,,,
16,20,4743,A,58.13772282248458,73.03157445561699,2.906886141124229,1.1471772889493117,A,543.7457490188535,Correct,sub_016_day_17_data.csv,1,300,189.0,Training at home,,,,,,,,,,,,,
16,20,4744,A,60.98071760306519,79.01602839749967,3.049035880153259,1.241180871647137,A,618.6229989980347,Correct,sub_016_day_17_data.csv,1,300,189.0,Training at home,,,,,,,,,,,,,
16,20,4745,B,54.2516864304991,33.94145549723544,2.712584321524955,0.5331511362112988,B,1360.959665995324,Correct,sub_016_day_17_data.csv,1,300,189.0,Training at home,,,,,,,,,,,,,
16,20,4746,B,44.91903835622018,20.24430414900372,2.245951917811009,0.3179967859577373,B,1035.2363740094006,Correct,sub_016_day_17_data.csv,1,300,189.0,Training at home,,,,,,,,,,,,,
16,20,4747,A,65.439947949296,87.69773191307596,3.2719973974647996,1.3775527515730328,A,943.3117909939028,Correct,sub_016_day_17_data.csv,1,300,189.0,Training at home,,,,,,,,,,,,,
16,20,4748,A,41.405224603026575,66.6759662876251,2.070261230151329,1.0473436293010183,A,531.3649160088971,Correct,sub_016_day_17_data.csv,1,300,189.0,Training at home,,,,,,,,,,,,,
16,20,4749,A,22.29946371656384,49.98253970075638,1.1149731858281922,0.785123897658282,A,2053.5976249957457,Correct,sub_016_day_17_data.csv,1,300,189.0,Training at home,,,,,,,,,,,,,
16,20,4750,B,48.93065741554505,30.12209215726159,2.4465328707772525,0.4731567171600387,B,735.5444989807438,Correct,sub_016_day_17_data.csv,1,300,190.0,Training at home,,,,,,,,,,,,,
16,20,4751,B,48.798543313824624,34.74052230615189,2.439927165691231,0.5457028482943955,A,7762.505874008639,Incorrect,sub_016_day_17_data.csv,0,300,190.0,Training at home,,,,,,,,,,,,,
16,20,4752,A,56.69698898177538,80.73978568584508,2.834849449088769,1.2682575878153262,A,516.606874007266,Correct,sub_016_day_17_data.csv,1,300,190.0,Training at home,,,,,,,,,,,,,
16,20,4753,B,74.98826529829202,56.77384246006844,3.7494132649146015,0.8918014319430763,B,1915.969583002152,Correct,sub_016_day_17_data.csv,1,300,190.0,Training at home,,,,,,,,,,,,,
16,20,4754,B,64.54974017183874,54.21981532649389,3.2274870085919365,0.8516828675435425,A,2099.8561659944244,Incorrect,sub_016_day_17_data.csv,0,300,190.0,Training at home,,,,,,,,,,,,,
16,20,4755,A,49.67689445847614,75.64098079858603,2.483844722923807,1.1881657479358223,A,649.1856659995392,Correct,sub_016_day_17_data.csv,1,300,190.0,Training at home,,,,,,,,,,,,,
16,20,4756,B,71.3725788449076,42.82669874078765,3.56862894224538,0.6727202107078086,B,2677.658790984424,Correct,sub_016_day_17_data.csv,1,300,190.0,Training at home,,,,,,,,,,,,,
16,20,4757,B,44.31722155165447,34.31550670823481,2.2158610775827237,0.5390267188940088,A,492.4072910216637,Incorrect,sub_016_day_17_data.csv,0,300,190.0,Training at home,,,,,,,,,,,,,
16,20,4758,A,41.286339273949615,61.15346992612434,2.0643169636974807,0.9605964593071828,A,608.5749579942785,Correct,sub_016_day_17_data.csv,1,300,190.0,Training at home,,,,,,,,,,,,,
16,20,4759,B,85.94709215927202,66.06023431046303,4.297354607963601,1.0376717340208552,B,564.7266239975579,Correct,sub_016_day_17_data.csv,1,300,190.0,Training at home,,,,,,,,,,,,,
16,20,4760,B,76.32664879277583,53.90215656669402,3.816332439638791,0.8466930954128637,B,694.7334990254603,Correct,sub_016_day_17_data.csv,1,300,190.0,Training at home,,,,,,,,,,,,,
16,20,4761,B,66.94191157946588,42.59979796534942,3.347095578973294,0.6691560616617557,B,1512.846208002884,Correct,sub_016_day_17_data.csv,1,300,190.0,Training at home,,,,,,,,,,,,,
16,20,4762,A,41.13991577935594,51.65309253096147,2.056995788967797,0.8113648801523119,A,509.17591599863954,Correct,sub_016_day_17_data.csv,1,300,190.0,Training at home,,,,,,,,,,,,,
16,20,4763,B,63.491936781710464,45.99910265557988,3.1745968390855235,0.7225522148724624,B,1217.3110830190126,Correct,sub_016_day_17_data.csv,1,300,190.0,Training at home,,,,,,,,,,,,,
16,20,4764,A,53.33500528897489,61.693810575074465,2.6667502644487446,0.9690841103730712,A,598.2239989971276,Correct,sub_016_day_17_data.csv,1,300,190.0,Training at home,,,,,,,,,,,,,
16,20,4765,B,80.52874227617957,56.933577312942035,4.026437113808979,0.8943105411446262,B,607.1932909835596,Correct,sub_016_day_17_data.csv,1,300,190.0,Training at home,,,,,,,,,,,,,
16,20,4766,A,27.19781026600132,42.06208035869331,1.3598905133000658,0.6607096132478721,A,548.2257080147974,Correct,sub_016_day_17_data.csv,1,300,190.0,Training at home,,,,,,,,,,,,,
16,20,4767,A,54.378132516961465,71.6833267452179,2.7189066258480734,1.1259990634382664,A,801.3476239866577,Correct,sub_016_day_17_data.csv,1,300,190.0,Training at home,,,,,,,,,,,,,
16,20,4768,B,45.96339965337037,36.58318026129219,2.2981699826685182,0.5746472517691334,B,915.9510410099756,Correct,sub_016_day_17_data.csv,1,300,190.0,Training at home,,,,,,,,,,,,,
16,20,4769,B,67.86937320191957,54.211012347899015,3.3934686600959787,0.8515445906791256,A,435.675831977278,Incorrect,sub_016_day_17_data.csv,0,300,190.0,Training at home,,,,,,,,,,,,,
16,20,4770,A,19.589116873931633,50.11586042605789,0.9794558436965816,0.7872180947141745,A,666.2711660028435,Correct,sub_016_day_17_data.csv,1,300,190.0,Training at home,,,,,,,,,,,,,
16,20,4771,B,64.1282543820792,43.132389359772816,3.20641271910396,0.6775219877221842,B,768.4996659809258,Correct,sub_016_day_17_data.csv,1,300,190.0,Training at home,,,,,,,,,,,,,
16,20,4772,A,31.11567217589792,47.789058348507346,1.555783608794896,0.7506687731482232,A,528.293041017605,Correct,sub_016_day_17_data.csv,1,300,190.0,Training at home,,,,,,,,,,,,,
16,20,4773,B,59.77194713028975,36.30641521928402,2.9885973565144877,0.5702998366554166,B,1152.466456987895,Correct,sub_016_day_17_data.csv,1,300,190.0,Training at home,,,,,,,,,,,,,
16,20,4774,A,27.49710661642333,60.26626911651741,1.3748553308211666,0.9466603415785826,A,498.0637489934452,Correct,sub_016_day_17_data.csv,1,300,190.0,Training at home,,,,,,,,,,,,,
16,20,4775,A,45.14021015091247,74.12060170846169,2.257010507545624,1.1642836890347914,A,628.5852490109392,Correct,sub_016_day_17_data.csv,1,300,191.0,Training at home,,,,,,,,,,,,,
16,20,4776,A,37.28869072511374,60.17262512175252,1.864434536255687,0.9451893851485518,A,574.9230000074022,Correct,sub_016_day_17_data.csv,1,300,191.0,Training at home,,,,,,,,,,,,,
16,20,4777,B,57.17472049339551,31.01940299181705,2.8587360246697755,0.4872516427891684,B,601.6982909932267,Correct,sub_016_day_17_data.csv,1,300,191.0,Training at home,,,,,,,,,,,,,
16,20,4778,A,13.759858857639642,33.126897132533244,0.6879929428819821,0.5203560833389561,A,641.4098739915062,Correct,sub_016_day_17_data.csv,1,300,191.0,Training at home,,,,,,,,,,,,,
16,20,4779,B,72.49644391556244,46.866681922195184,3.624822195778122,0.7361801181244897,B,1812.3633739887737,Correct,sub_016_day_17_data.csv,1,300,191.0,Training at home,,,,,,,,,,,,,
16,20,4780,A,28.307614639190444,39.15012761886408,1.4153807319595222,0.6149687665726313,A,687.5028320064303,Correct,sub_016_day_17_data.csv,1,300,191.0,Training at home,,,,,,,,,,,,,
16,20,4781,B,78.27742599224555,63.40692875688072,3.9138712996122775,0.9959937078465392,B,874.8840409971308,Correct,sub_016_day_17_data.csv,1,300,191.0,Training at home,,,,,,,,,,,,,
16,20,4782,A,35.850200786100935,66.62319404514352,1.7925100393050468,1.0465146848545508,A,476.01741601829417,Correct,sub_016_day_17_data.csv,1,300,191.0,Training at home,,,,,,,,,,,,,
16,20,4783,B,44.394989587277166,21.598930752118314,2.219749479363858,0.3392752108812478,B,638.6855829914566,Correct,sub_016_day_17_data.csv,1,300,191.0,Training at home,,,,,,,,,,,,,
16,20,4784,A,52.52591327413153,79.5830888092255,2.6262956637065766,1.2500882357652348,A,521.7682079819497,Correct,sub_016_day_17_data.csv,1,300,191.0,Training at home,,,,,,,,,,,,,
16,20,4785,A,13.73909291664409,41.969973179813195,0.6869546458322046,0.6592627970653089,A,1051.9908330170438,Correct,sub_016_day_17_data.csv,1,300,191.0,Training at home,,,,,,,,,,,,,
16,20,4786,B,69.71538206699978,39.02396453064765,3.485769103349989,0.6129870014171566,B,985.0277499936057,Correct,sub_016_day_17_data.csv,1,300,191.0,Training at home,,,,,,,,,,,,,
16,20,4787,B,42.29732210392662,23.41011024831275,2.114866105196331,0.3677251518791323,B,753.2934579940047,Correct,sub_016_day_17_data.csv,1,300,191.0,Training at home,,,,,,,,,,,,,
16,20,4788,A,35.026351793279964,63.32868239885099,1.751317589663998,0.9947646169287574,A,674.5029579906259,Correct,sub_016_day_17_data.csv,1,300,191.0,Training at home,,,,,,,,,,,,,
16,20,4789,B,76.85831874644012,46.70043494256325,3.842915937322006,0.733568716675024,B,802.0249159890227,Correct,sub_016_day_17_data.csv,1,300,191.0,Training at home,,,,,,,,,,,,,
16,20,4790,A,39.897525053985355,65.23289843058664,1.994876252699268,1.0246759724095007,A,551.0238740243949,Correct,sub_016_day_17_data.csv,1,300,191.0,Training at home,,,,,,,,,,,,,
16,20,4791,B,80.06671633770571,58.72822249965546,4.0033358168852855,0.922500761816522,B,794.0944570000283,Correct,sub_016_day_17_data.csv,1,300,191.0,Training at home,,,,,,,,,,,,,
16,20,4792,B,39.89919242934908,17.338248585274872,1.994959621467454,0.2723485719080658,B,797.9409160034265,Correct,sub_016_day_17_data.csv,1,300,191.0,Training at home,,,,,,,,,,,,,
16,20,4793,B,83.33581680103057,53.976393493275935,4.1667908400515286,0.847859206328738,B,724.6000409941189,Correct,sub_016_day_17_data.csv,1,300,191.0,Training at home,,,,,,,,,,,,,
16,20,4794,B,46.831834748418515,32.332474396901375,2.341591737420926,0.5078773201884272,A,636.8819159979466,Incorrect,sub_016_day_17_data.csv,0,300,191.0,Training at home,,,,,,,,,,,,,
16,20,4795,A,30.236463573192687,42.41605465277861,1.5118231786596343,0.6662698284571622,A,606.935791001888,Correct,sub_016_day_17_data.csv,1,300,191.0,Training at home,,,,,,,,,,,,,
16,20,4796,B,60.148259774945245,52.41589217307394,3.0074129887472623,0.8233469089114192,A,3449.164332996588,Incorrect,sub_016_day_17_data.csv,0,300,191.0,Training at home,,,,,,,,,,,,,
16,20,4797,B,72.88273479577731,46.74761309164618,3.6441367397888658,0.7343097893078684,B,1072.0449990185443,Correct,sub_016_day_17_data.csv,1,300,191.0,Training at home,,,,,,,,,,,,,
16,20,4798,A,26.485256369386747,49.90190534333149,1.3242628184693372,0.7838572961337174,A,1938.1704990228172,Correct,sub_016_day_17_data.csv,1,300,191.0,Training at home,,,,,,,,,,,,,
16,20,4799,B,41.768412602777175,14.546969357311482,2.0884206301388586,0.2285032603246279,B,651.9875829981174,Correct,sub_016_day_17_data.csv,1,300,191.0,Training at home,,,,,,,,,,,,,
