subject,day,trial,cat,x,y,xt,yt,resp,rt,fb,f_name,acc,n_trials,block,session_type,ns_left_digit,ns_right_digit,ns_left_size,ns_right_size,ns_congruent,ns_cue,ns_correct_side,ns_resp,ns_rt,ns_fb,acc_stroop,acc_stroop_mean,resp_key
16,12,2400,B,40.52696488527186,23.01080057861224,2.026348244263593,0.3614528102549398,B,3533.159540995257,Correct,sub_016_day_10_data.csv,1,300,96.0,Training at home,,,,,,,,,,,,,
16,12,2401,B,42.53835272451021,32.881522058436204,2.12691763622551,0.5165017406881696,A,3861.8392079952177,Incorrect,sub_016_day_10_data.csv,0,300,96.0,Training at home,,,,,,,,,,,,,
16,12,2402,A,49.13096081769661,70.58502087060965,2.4565480408848304,1.1087469151029476,A,684.5039580075536,Correct,sub_016_day_10_data.csv,1,300,96.0,Training at home,,,,,,,,,,,,,
16,12,2403,B,45.11665370505196,29.587296206481415,2.255832685252598,0.4647561620093358,B,4989.348249975592,Correct,sub_016_day_10_data.csv,1,300,96.0,Training at home,,,,,,,,,,,,,
16,12,2404,A,25.474476189888954,43.83446069576293,1.2737238094944476,0.6885500984793967,A,749.7949999815319,Correct,sub_016_day_10_data.csv,1,300,96.0,Training at home,,,,,,,,,,,,,
16,12,2405,A,25.422423768692155,45.46818957742525,1.271121188434608,0.714212651742336,A,475.963083008537,Correct,sub_016_day_10_data.csv,1,300,96.0,Training at home,,,,,,,,,,,,,
16,12,2406,B,77.77686197187899,61.27991409094665,3.8888430985939495,0.9625826396036582,B,1915.86500001722,Correct,sub_016_day_10_data.csv,1,300,96.0,Training at home,,,,,,,,,,,,,
16,12,2407,A,21.601534805699615,37.232682262996704,1.080076740284981,0.5848496053543673,A,723.5642080195248,Correct,sub_016_day_10_data.csv,1,300,96.0,Training at home,,,,,,,,,,,,,
16,12,2408,B,53.72996376716385,26.06380681796258,2.6864981883581924,0.409409320119474,B,1080.4823329963256,Correct,sub_016_day_10_data.csv,1,300,96.0,Training at home,,,,,,,,,,,,,
16,12,2409,A,32.808495838555196,63.76247415634242,1.6404247919277597,1.0015786019213722,A,530.0311660103034,Correct,sub_016_day_10_data.csv,1,300,96.0,Training at home,,,,,,,,,,,,,
16,12,2410,B,34.98477540876813,11.457858787676637,1.7492387704384067,0.1799796249661708,B,816.5985409868881,Correct,sub_016_day_10_data.csv,1,300,96.0,Training at home,,,,,,,,,,,,,
16,12,2411,A,33.22587405298765,43.104801458206744,1.6612937026493824,0.6770886379777445,A,778.7496660021134,Correct,sub_016_day_10_data.csv,1,300,96.0,Training at home,,,,,,,,,,,,,
16,12,2412,A,16.958112671124404,36.03247633810008,0.8479056335562203,0.5659968147721162,A,765.283749991795,Correct,sub_016_day_10_data.csv,1,300,96.0,Training at home,,,,,,,,,,,,,
16,12,2413,A,27.38039983274865,36.901804385678986,1.3690199916374326,0.5796521878112835,A,2148.5512500221375,Correct,sub_016_day_10_data.csv,1,300,96.0,Training at home,,,,,,,,,,,,,
16,12,2414,A,59.57461895746138,83.93492076489913,2.978730947873069,1.3184466522732423,A,833.8876249908935,Correct,sub_016_day_10_data.csv,1,300,96.0,Training at home,,,,,,,,,,,,,
16,12,2415,A,61.73638247646974,87.80337362822964,3.086819123823487,1.3792121677542302,A,522.7442079922184,Correct,sub_016_day_10_data.csv,1,300,96.0,Training at home,,,,,,,,,,,,,
16,12,2416,B,61.23338256744103,50.666237539960754,3.061669128372052,0.7958633982028805,A,4140.850999014219,Incorrect,sub_016_day_10_data.csv,0,300,96.0,Training at home,,,,,,,,,,,,,
16,12,2417,A,43.8006024969963,64.05519120566848,2.190030124849815,1.006176590580088,A,985.6949579843786,Correct,sub_016_day_10_data.csv,1,300,96.0,Training at home,,,,,,,,,,,,,
16,12,2418,A,55.58957371400538,66.38642632200055,2.779478685700269,1.042795546156385,A,676.6067080025095,Correct,sub_016_day_10_data.csv,1,300,96.0,Training at home,,,,,,,,,,,,,
16,12,2419,A,30.134430236582737,41.69030303796003,1.5067215118291366,0.6548697487499373,A,563.3137080003507,Correct,sub_016_day_10_data.csv,1,300,96.0,Training at home,,,,,,,,,,,,,
16,12,2420,B,50.1595853350111,20.521191902387315,2.507979266750555,0.3223461286172317,B,837.8687500080559,Correct,sub_016_day_10_data.csv,1,300,96.0,Training at home,,,,,,,,,,,,,
16,12,2421,A,13.543188641461906,32.40115796702039,0.6771594320730954,0.5089561991849683,A,586.5668330225162,Correct,sub_016_day_10_data.csv,1,300,96.0,Training at home,,,,,,,,,,,,,
16,12,2422,B,43.67782644267295,36.214725333852094,2.1838913221336473,0.5688595753030096,B,3220.857667009114,Correct,sub_016_day_10_data.csv,1,300,96.0,Training at home,,,,,,,,,,,,,
16,12,2423,B,40.672186710160986,28.21151556112101,2.033609335508049,0.4431454501672595,B,671.2793739861809,Correct,sub_016_day_10_data.csv,1,300,96.0,Training at home,,,,,,,,,,,,,
16,12,2424,A,58.67143326896145,68.52717507969736,2.933571663448072,1.076422349008194,A,1004.0122920181602,Correct,sub_016_day_10_data.csv,1,300,96.0,Training at home,,,,,,,,,,,,,
16,12,2425,B,56.199721484536994,25.64697517557544,2.80998607422685,0.4028617439919379,B,1881.6259169834664,Correct,sub_016_day_10_data.csv,1,300,97.0,Training at home,,,,,,,,,,,,,
16,12,2426,A,30.82763768127993,49.56421048739674,1.5413818840639966,0.7785527977409188,A,990.317290998064,Correct,sub_016_day_10_data.csv,1,300,97.0,Training at home,,,,,,,,,,,,,
16,12,2427,A,25.748243330663133,57.94088792440039,1.2874121665331566,0.910133339228829,A,1273.4047920093872,Correct,sub_016_day_10_data.csv,1,300,97.0,Training at home,,,,,,,,,,,,,
16,12,2428,B,34.072965428912994,18.931917258410984,1.7036482714456498,0.2973818608869688,B,665.183708013501,Correct,sub_016_day_10_data.csv,1,300,97.0,Training at home,,,,,,,,,,,,,
16,12,2429,A,23.608228828212628,54.77139451585242,1.1804114414106317,0.8603470531893513,A,3174.8729580140207,Correct,sub_016_day_10_data.csv,1,300,97.0,Training at home,,,,,,,,,,,,,
16,12,2430,B,33.70846188999248,17.211022506743994,1.6854230944996238,0.2703501093397776,B,772.679000016069,Correct,sub_016_day_10_data.csv,1,300,97.0,Training at home,,,,,,,,,,,,,
16,12,2431,B,39.433291650599216,13.144431961272986,1.9716645825299608,0.2064722544257304,B,1269.617249025032,Correct,sub_016_day_10_data.csv,1,300,97.0,Training at home,,,,,,,,,,,,,
16,12,2432,A,40.225099328705866,70.44367365813571,2.0112549664352937,1.10652663828138,A,2939.5870830048807,Correct,sub_016_day_10_data.csv,1,300,97.0,Training at home,,,,,,,,,,,,,
16,12,2433,A,49.874127352437405,61.85581128368763,2.4937063676218703,0.9716288115533483,A,848.2301660114899,Correct,sub_016_day_10_data.csv,1,300,97.0,Training at home,,,,,,,,,,,,,
16,12,2434,A,27.287744842347266,53.29349019999392,1.364387242117363,0.8371321864823026,A,540.3405000106432,Correct,sub_016_day_10_data.csv,1,300,97.0,Training at home,,,,,,,,,,,,,
16,12,2435,B,54.01469972817468,42.37450368256809,2.7007349864087344,0.6656171473433478,A,422.42249997798353,Incorrect,sub_016_day_10_data.csv,0,300,97.0,Training at home,,,,,,,,,,,,,
16,12,2436,A,29.312004167995227,49.059716583718114,1.4656002083997612,0.7706282260330308,A,859.9447490123566,Correct,sub_016_day_10_data.csv,1,300,97.0,Training at home,,,,,,,,,,,,,
16,12,2437,A,36.13355274064724,63.32204619055275,1.806677637032362,0.9946603756125704,A,1547.3776659928262,Correct,sub_016_day_10_data.csv,1,300,97.0,Training at home,,,,,,,,,,,,,
16,12,2438,A,34.40191212379439,56.64507600367131,1.7200956061897192,0.8897787731758462,A,598.1744580203667,Correct,sub_016_day_10_data.csv,1,300,97.0,Training at home,,,,,,,,,,,,,
16,12,2439,B,47.33550887298997,19.864704034331208,2.3667754436494985,0.3120340412999522,B,1335.3023749950808,Correct,sub_016_day_10_data.csv,1,300,97.0,Training at home,,,,,,,,,,,,,
16,12,2440,A,21.092073940498494,36.49682442515147,1.0546036970249248,0.5732907774670619,A,655.867749999743,Correct,sub_016_day_10_data.csv,1,300,97.0,Training at home,,,,,,,,,,,,,
16,12,2441,B,44.59071956754672,31.81346658171229,2.2295359783773363,0.4997247644916586,B,4526.2879579968285,Correct,sub_016_day_10_data.csv,1,300,97.0,Training at home,,,,,,,,,,,,,
16,12,2442,B,52.852269794814674,41.88434131136566,2.6426134897407336,0.6579176948211691,B,1515.468832978513,Correct,sub_016_day_10_data.csv,1,300,97.0,Training at home,,,,,,,,,,,,,
16,12,2443,A,54.01207450146501,61.67839315503188,2.7006037250732504,0.9688419341053556,A,634.5032910176087,Correct,sub_016_day_10_data.csv,1,300,97.0,Training at home,,,,,,,,,,,,,
16,12,2444,B,64.8071292324122,34.781082794429956,3.2403564616206095,0.5463399709543975,B,924.6627500106116,Correct,sub_016_day_10_data.csv,1,300,97.0,Training at home,,,,,,,,,,,,,
16,12,2445,B,56.10966728546523,35.67834445206568,2.8054833642732615,0.5604341241142785,B,2715.2430829883087,Correct,sub_016_day_10_data.csv,1,300,97.0,Training at home,,,,,,,,,,,,,
16,12,2446,B,82.0319612273152,65.01605691360501,4.10159806136576,1.021269833825787,B,1152.9982080101036,Correct,sub_016_day_10_data.csv,1,300,97.0,Training at home,,,,,,,,,,,,,
16,12,2447,B,62.925147672119344,31.537619348441453,3.146257383605967,0.4953917662838749,B,2983.0682079773396,Correct,sub_016_day_10_data.csv,1,300,97.0,Training at home,,,,,,,,,,,,,
16,12,2448,B,35.098837710604,22.432971791963197,1.7549418855302,0.3523762968990932,B,3719.623207987752,Correct,sub_016_day_10_data.csv,1,300,97.0,Training at home,,,,,,,,,,,,,
16,12,2449,B,70.20327498892718,52.13172621101795,3.510163749446359,0.8188832404174423,B,1226.490000000922,Correct,sub_016_day_10_data.csv,1,300,97.0,Training at home,,,,,,,,,,,,,
16,12,2450,A,41.38739522456504,49.6199952691208,2.069369761228252,0.7794290630431511,A,1513.0754580022767,Correct,sub_016_day_10_data.csv,1,300,98.0,Training at home,,,,,,,,,,,,,
16,12,2451,B,61.30034097912775,34.54864229147244,3.065017048956388,0.5426888040719573,B,2502.654457988683,Correct,sub_016_day_10_data.csv,1,300,98.0,Training at home,,,,,,,,,,,,,
16,12,2452,B,67.87292710350435,41.51049172417081,3.3936463551752176,0.6520452792377747,B,4025.5055419984274,Correct,sub_016_day_10_data.csv,1,300,98.0,Training at home,,,,,,,,,,,,,
16,12,2453,B,57.6222776623291,45.10872036294526,2.881113883116455,0.7085661225253257,A,753.1884580093902,Incorrect,sub_016_day_10_data.csv,0,300,98.0,Training at home,,,,,,,,,,,,,
16,12,2454,A,28.565649003499825,45.12093144069414,1.4282824501749911,0.7087579336860672,A,1514.8290829965845,Correct,sub_016_day_10_data.csv,1,300,98.0,Training at home,,,,,,,,,,,,,
16,12,2455,A,26.163993207675244,39.69345347179872,1.308199660383762,0.6235033091130556,A,2506.3820829964243,Correct,sub_016_day_10_data.csv,1,300,98.0,Training at home,,,,,,,,,,,,,
16,12,2456,A,42.73278061665407,49.4637082494247,2.1366390308327032,0.7769741122785073,A,869.4021670089569,Correct,sub_016_day_10_data.csv,1,300,98.0,Training at home,,,,,,,,,,,,,
16,12,2457,B,65.90682730856855,56.645414571112184,3.2953413654284276,0.8897840913807714,A,713.0540829966776,Incorrect,sub_016_day_10_data.csv,0,300,98.0,Training at home,,,,,,,,,,,,,
16,12,2458,A,23.196812383895473,46.00981616808242,1.1598406191947737,0.7227205023333231,A,557.5452909979504,Correct,sub_016_day_10_data.csv,1,300,98.0,Training at home,,,,,,,,,,,,,
16,12,2459,B,60.80037848078523,32.151988728297304,3.0400189240392614,0.5050422579356032,B,678.7909580161795,Correct,sub_016_day_10_data.csv,1,300,98.0,Training at home,,,,,,,,,,,,,
16,12,2460,B,66.6821210439531,53.09684336756237,3.334106052197655,0.8340432652617094,B,1540.3107489983086,Correct,sub_016_day_10_data.csv,1,300,98.0,Training at home,,,,,,,,,,,,,
16,12,2461,A,25.8892687023094,50.36529908691004,1.2944634351154702,0.7911362680364463,A,705.2662920032162,Correct,sub_016_day_10_data.csv,1,300,98.0,Training at home,,,,,,,,,,,,,
16,12,2462,B,49.52045323056528,20.509462337363654,2.476022661528264,0.3221618810406911,B,762.3420410091057,Correct,sub_016_day_10_data.csv,1,300,98.0,Training at home,,,,,,,,,,,,,
16,12,2463,B,82.09565869318243,56.397360966364566,4.104782934659122,0.8858876744689133,B,983.3858750062064,Correct,sub_016_day_10_data.csv,1,300,98.0,Training at home,,,,,,,,,,,,,
16,12,2464,B,60.07542565268636,39.739391345116914,3.003771282634318,0.6242248995397455,A,1005.4387910058722,Incorrect,sub_016_day_10_data.csv,0,300,98.0,Training at home,,,,,,,,,,,,,
16,12,2465,A,24.50369517401853,47.675135278546094,1.2251847587009266,0.7488792737499,A,2109.642082999926,Correct,sub_016_day_10_data.csv,1,300,98.0,Training at home,,,,,,,,,,,,,
16,12,2466,A,44.884491688618105,72.19469100647537,2.2442245844309054,1.1340315544706403,A,667.0199170184787,Correct,sub_016_day_10_data.csv,1,300,98.0,Training at home,,,,,,,,,,,,,
16,12,2467,A,50.19195471203592,79.29389510278466,2.509597735601796,1.2455455916471396,A,832.4772490013856,Correct,sub_016_day_10_data.csv,1,300,98.0,Training at home,,,,,,,,,,,,,
16,12,2468,B,67.84831185134881,51.7255358086944,3.39241559256744,0.8125028164979505,B,819.8421659762971,Correct,sub_016_day_10_data.csv,1,300,98.0,Training at home,,,,,,,,,,,,,
16,12,2469,A,53.7427066941719,83.56053201622606,2.6871353347085947,1.3125657675611524,A,717.8018739796244,Correct,sub_016_day_10_data.csv,1,300,98.0,Training at home,,,,,,,,,,,,,
16,12,2470,A,44.41698392136597,55.04965373214917,2.2208491960682983,0.8647179387379088,A,643.1616660265718,Correct,sub_016_day_10_data.csv,1,300,98.0,Training at home,,,,,,,,,,,,,
16,12,2471,B,45.67682280827364,36.87615935490401,2.2838411404136822,0.5792493566098648,A,762.7927919966169,Incorrect,sub_016_day_10_data.csv,0,300,98.0,Training at home,,,,,,,,,,,,,
16,12,2472,B,60.720131597398755,38.031973723908095,3.036006579869938,0.5974048462627486,B,1131.2059159972705,Correct,sub_016_day_10_data.csv,1,300,98.0,Training at home,,,,,,,,,,,,,
16,12,2473,A,12.057602369657545,39.10491680244382,0.6028801184828773,0.6142585967289877,A,2352.219958003843,Correct,sub_016_day_10_data.csv,1,300,98.0,Training at home,,,,,,,,,,,,,
16,12,2474,A,32.178806620284014,40.57200627349272,1.6089403310142003,0.6373035842510185,A,721.6529989964329,Correct,sub_016_day_10_data.csv,1,300,98.0,Training at home,,,,,,,,,,,,,
16,12,2475,B,58.37108045152344,35.77268501686898,2.918554022576172,0.5619160222408861,A,762.9430830129422,Incorrect,sub_016_day_10_data.csv,0,300,99.0,Training at home,,,,,,,,,,,,,
16,12,2476,B,73.05104709485285,45.622555504644154,3.6525523547426424,0.7166374260569132,B,1040.7908739871343,Correct,sub_016_day_10_data.csv,1,300,99.0,Training at home,,,,,,,,,,,,,
16,12,2477,A,53.036564037031845,75.51460199621411,2.6518282018515924,1.1861805943503168,A,749.5366660004947,Correct,sub_016_day_10_data.csv,1,300,99.0,Training at home,,,,,,,,,,,,,
16,12,2478,A,58.16284123303931,84.15358782465874,2.908142061651966,1.321881466415857,A,533.4592080034781,Correct,sub_016_day_10_data.csv,1,300,99.0,Training at home,,,,,,,,,,,,,
16,12,2479,A,52.304926712304066,63.8456901871825,2.615246335615203,1.0028857562771123,A,579.6213329886086,Correct,sub_016_day_10_data.csv,1,300,99.0,Training at home,,,,,,,,,,,,,
16,12,2480,B,65.68924738449775,56.38123200293137,3.2844623692248875,0.8856343213037546,A,591.1629160109442,Incorrect,sub_016_day_10_data.csv,0,300,99.0,Training at home,,,,,,,,,,,,,
16,12,2481,B,40.21195156559964,29.162859858298997,2.010597578279982,0.458089131442504,B,849.6056669973768,Correct,sub_016_day_10_data.csv,1,300,99.0,Training at home,,,,,,,,,,,,,
16,12,2482,A,35.668183328566016,64.37794638277829,1.7834091664283007,1.0112464170466695,A,684.7990409878548,Correct,sub_016_day_10_data.csv,1,300,99.0,Training at home,,,,,,,,,,,,,
16,12,2483,B,67.81956466472785,50.330668559614814,3.3909782332363925,0.7905922929857435,A,732.0125830010511,Incorrect,sub_016_day_10_data.csv,0,300,99.0,Training at home,,,,,,,,,,,,,
16,12,2484,B,77.900624633848,61.29514525294046,3.8950312316924,0.9628218901367852,B,667.217624024488,Correct,sub_016_day_10_data.csv,1,300,99.0,Training at home,,,,,,,,,,,,,
16,12,2485,A,35.735742744345146,61.53672308462077,1.7867871372172572,0.96661658584317,A,927.6240410108584,Correct,sub_016_day_10_data.csv,1,300,99.0,Training at home,,,,,,,,,,,,,
16,12,2486,B,57.49330997564265,47.651905983468254,2.8746654987821323,0.7485143888360769,B,529.5716669934336,Correct,sub_016_day_10_data.csv,1,300,99.0,Training at home,,,,,,,,,,,,,
16,12,2487,B,86.41211576336778,63.96868679128684,4.320605788168389,1.004817782416466,B,589.3260409939103,Correct,sub_016_day_10_data.csv,1,300,99.0,Training at home,,,,,,,,,,,,,
16,12,2488,A,61.561983911587575,74.70239189420535,3.0780991955793784,1.173422427902106,B,2473.600790981436,Incorrect,sub_016_day_10_data.csv,0,300,99.0,Training at home,,,,,,,,,,,,,
16,12,2489,A,57.75367493033944,84.83855936200595,2.887683746516972,1.3326409741640972,A,501.9452490087133,Correct,sub_016_day_10_data.csv,1,300,99.0,Training at home,,,,,,,,,,,,,
16,12,2490,A,42.57826779477504,58.87892845498766,2.128913389738752,0.9248680454271412,A,1149.63641599752,Correct,sub_016_day_10_data.csv,1,300,99.0,Training at home,,,,,,,,,,,,,
16,12,2491,A,61.415720409147745,81.30421715540356,3.070786020457387,1.2771236566064257,A,616.665623994777,Correct,sub_016_day_10_data.csv,1,300,99.0,Training at home,,,,,,,,,,,,,
16,12,2492,A,32.43220443711915,55.48679431312409,1.6216102218559572,0.8715845269267928,A,540.8195409982,Correct,sub_016_day_10_data.csv,1,300,99.0,Training at home,,,,,,,,,,,,,
16,12,2493,B,59.76724427397093,32.24336915304834,2.9883622136985464,0.5064776582910022,B,637.4733750126325,Correct,sub_016_day_10_data.csv,1,300,99.0,Training at home,,,,,,,,,,,,,
16,12,2494,B,67.99891235217319,39.41170392683527,3.3999456176086595,0.6190775976100086,B,651.772915996844,Correct,sub_016_day_10_data.csv,1,300,99.0,Training at home,,,,,,,,,,,,,
16,12,2495,B,54.18093841728909,37.64413877973063,2.7090469208644543,0.591312749205582,B,1881.8165830161888,Correct,sub_016_day_10_data.csv,1,300,99.0,Training at home,,,,,,,,,,,,,
16,12,2496,B,70.09641950065995,56.2330009729299,3.5048209750329975,0.8833059137293213,B,3007.6469579944387,Correct,sub_016_day_10_data.csv,1,300,99.0,Training at home,,,,,,,,,,,,,
16,12,2497,A,25.20276253445957,37.89310875076309,1.2601381267229783,0.595223560365382,A,617.2331249981653,Correct,sub_016_day_10_data.csv,1,300,99.0,Training at home,,,,,,,,,,,,,
16,12,2498,B,55.673494282434106,37.783626019329766,2.7836747141217053,0.5935038096415528,B,977.3018739942928,Correct,sub_016_day_10_data.csv,1,300,99.0,Training at home,,,,,,,,,,,,,
16,12,2499,A,17.350867699329658,31.195550300201383,0.8675433849664829,0.4900185582390176,A,614.4309169903863,Correct,sub_016_day_10_data.csv,1,300,99.0,Training at home,,,,,,,,,,,,,
16,12,2500,B,60.777071412299534,34.20571437442743,3.0388535706149766,0.5373021049474599,B,941.4192079857456,Correct,sub_016_day_10_data.csv,1,300,100.0,Training at home,,,,,,,,,,,,,
16,12,2501,A,40.98322493542615,71.72770617387854,2.0491612467713076,1.1266961738735204,A,598.9708740089554,Correct,sub_016_day_10_data.csv,1,300,100.0,Training at home,,,,,,,,,,,,,
16,12,2502,A,67.69276860168183,89.42462226414263,3.3846384300840917,1.4046786817753636,A,870.0681249902118,Correct,sub_016_day_10_data.csv,1,300,100.0,Training at home,,,,,,,,,,,,,
16,12,2503,A,63.47648755422471,76.01301692125313,3.1738243777112354,1.194009677685027,A,1677.985415997682,Correct,sub_016_day_10_data.csv,1,300,100.0,Training at home,,,,,,,,,,,,,
16,12,2504,B,54.84939060805007,39.547084203573995,2.7424695304025035,0.6212041460242251,B,1222.3544999724254,Correct,sub_016_day_10_data.csv,1,300,100.0,Training at home,,,,,,,,,,,,,
16,12,2505,A,24.616515956506433,56.94920469165857,1.2308257978253216,0.8945560154354797,A,1410.2420000126583,Correct,sub_016_day_10_data.csv,1,300,100.0,Training at home,,,,,,,,,,,,,
16,12,2506,A,43.78627603420633,75.34442403655623,2.1893138017103166,1.1835074452109962,A,1090.7312080089469,Correct,sub_016_day_10_data.csv,1,300,100.0,Training at home,,,,,,,,,,,,,
16,12,2507,A,64.26137386895459,78.39883814962506,3.2130686934477297,1.2314860699041867,A,708.1300410209224,Correct,sub_016_day_10_data.csv,1,300,100.0,Training at home,,,,,,,,,,,,,
16,12,2508,A,31.833378840078694,62.89091133388255,1.591668942003935,0.9878881251204624,A,875.1731239899527,Correct,sub_016_day_10_data.csv,1,300,100.0,Training at home,,,,,,,,,,,,,
16,12,2509,B,59.22218704348408,49.7591129404328,2.9611093521742045,0.7816143183140424,B,726.4661240042187,Correct,sub_016_day_10_data.csv,1,300,100.0,Training at home,,,,,,,,,,,,,
16,12,2510,B,38.91156043845109,22.478986439986,1.9455780219225545,0.353099093300023,B,1137.62870800565,Correct,sub_016_day_10_data.csv,1,300,100.0,Training at home,,,,,,,,,,,,,
16,12,2511,B,70.07117974841348,52.59817737503177,3.5035589874206745,0.8262102381680633,B,1620.511582994368,Correct,sub_016_day_10_data.csv,1,300,100.0,Training at home,,,,,,,,,,,,,
16,12,2512,A,65.22108397233976,79.01227919445651,3.261054198616988,1.2411219793034514,A,667.936790996464,Correct,sub_016_day_10_data.csv,1,300,100.0,Training at home,,,,,,,,,,,,,
16,12,2513,A,62.9573343866615,81.52904627279644,3.147866719333075,1.280655264123998,A,700.8330000098795,Correct,sub_016_day_10_data.csv,1,300,100.0,Training at home,,,,,,,,,,,,,
16,12,2514,A,49.74003200446485,67.52411831393603,2.487001600223242,1.0606663701759471,A,665.1398329995573,Correct,sub_016_day_10_data.csv,1,300,100.0,Training at home,,,,,,,,,,,,,
16,12,2515,A,52.56686747953063,60.412131366935334,2.6283433739765316,0.9489515404503278,A,1885.8160410018172,Correct,sub_016_day_10_data.csv,1,300,100.0,Training at home,,,,,,,,,,,,,
16,12,2516,B,58.559301992714495,26.036801867315816,2.927965099635725,0.4089851273466618,B,679.9775830004364,Correct,sub_016_day_10_data.csv,1,300,100.0,Training at home,,,,,,,,,,,,,
16,12,2517,A,32.39443211127889,46.78185952584994,1.6197216055639445,0.7348477310383992,B,1797.27575002471,Incorrect,sub_016_day_10_data.csv,0,300,100.0,Training at home,,,,,,,,,,,,,
16,12,2518,B,51.8685496361404,25.095832249895516,2.59342748180702,0.3942044111599678,B,2178.878999024164,Correct,sub_016_day_10_data.csv,1,300,100.0,Training at home,,,,,,,,,,,,,
16,12,2519,B,81.08025772034829,53.153178610768755,4.054012886017414,0.8349281771926864,B,873.29220797983,Correct,sub_016_day_10_data.csv,1,300,100.0,Training at home,,,,,,,,,,,,,
16,12,2520,A,49.24108730268574,79.43379973822027,2.462054365134287,1.2477432085215785,A,591.8929580075201,Correct,sub_016_day_10_data.csv,1,300,100.0,Training at home,,,,,,,,,,,,,
16,12,2521,B,60.65386888265359,45.02365669285636,3.0326934441326796,0.7072299455201323,A,1033.8621659902856,Incorrect,sub_016_day_10_data.csv,0,300,100.0,Training at home,,,,,,,,,,,,,
16,12,2522,A,17.175458941536245,32.70905513984848,0.8587729470768123,0.5137926366660572,A,491.88083299668506,Correct,sub_016_day_10_data.csv,1,300,100.0,Training at home,,,,,,,,,,,,,
16,12,2523,B,44.418652486456736,35.667725048119316,2.2209326243228364,0.5602673149071614,B,2235.537958011264,Correct,sub_016_day_10_data.csv,1,300,100.0,Training at home,,,,,,,,,,,,,
16,12,2524,B,73.96115403762701,62.28680082859491,3.6980577018813503,0.9783987794936222,B,3564.7487080132123,Correct,sub_016_day_10_data.csv,1,300,100.0,Training at home,,,,,,,,,,,,,
16,12,2525,A,24.84303166400838,49.28877528001552,1.2421515832004189,0.7742262716206747,A,498.56683300458826,Correct,sub_016_day_10_data.csv,1,300,101.0,Training at home,,,,,,,,,,,,,
16,12,2526,A,43.63710542363535,66.45954091332642,2.1818552711817674,1.0439440274712828,A,480.23637500591576,Correct,sub_016_day_10_data.csv,1,300,101.0,Training at home,,,,,,,,,,,,,
16,12,2527,B,48.31371139506602,26.23280750818347,2.4156855697533013,0.4120639767537218,B,1084.5619160099886,Correct,sub_016_day_10_data.csv,1,300,101.0,Training at home,,,,,,,,,,,,,
16,12,2528,A,40.27644700556511,72.4741977848687,2.0138223502782555,1.138422036678786,A,1425.5124579940457,Correct,sub_016_day_10_data.csv,1,300,101.0,Training at home,,,,,,,,,,,,,
16,12,2529,A,66.12530077139185,84.76838817601597,3.306265038569592,1.3315387277520985,A,753.9232910203282,Correct,sub_016_day_10_data.csv,1,300,101.0,Training at home,,,,,,,,,,,,,
16,12,2530,B,33.22540509307837,20.337774276106813,1.6612702546539184,0.3194650112809231,B,2921.576749999076,Correct,sub_016_day_10_data.csv,1,300,101.0,Training at home,,,,,,,,,,,,,
16,12,2531,B,37.186140538281336,13.31728946055739,1.8593070269140668,0.2091874936750793,B,1178.3652919984888,Correct,sub_016_day_10_data.csv,1,300,101.0,Training at home,,,,,,,,,,,,,
16,12,2532,A,24.88643093483724,53.62667906286458,1.244321546741862,0.8423659049015648,A,1067.4689990119075,Correct,sub_016_day_10_data.csv,1,300,101.0,Training at home,,,,,,,,,,,,,
16,12,2533,A,50.79626881362526,60.632606763958854,2.539813440681263,0.9524147598882596,A,6873.547916999087,Correct,sub_016_day_10_data.csv,1,300,101.0,Training at home,,,,,,,,,,,,,
16,12,2534,B,63.45669774874542,31.584008346988018,3.172834887437271,0.4961204429690812,B,7047.258624981623,Correct,sub_016_day_10_data.csv,1,300,101.0,Training at home,,,,,,,,,,,,,
16,12,2535,A,56.525682041707206,64.53616258943596,2.8262841020853604,1.0137316714092424,A,12322.984750004252,Correct,sub_016_day_10_data.csv,1,300,101.0,Training at home,,,,,,,,,,,,,
16,12,2536,B,37.3713519277668,16.8645544693536,1.8685675963883397,0.2649078021349309,B,782.0483329996932,Correct,sub_016_day_10_data.csv,1,300,101.0,Training at home,,,,,,,,,,,,,
16,12,2537,B,39.82879711292507,29.160738741600433,1.9914398556462536,0.4580558130193159,B,703.994249983225,Correct,sub_016_day_10_data.csv,1,300,101.0,Training at home,,,,,,,,,,,,,
16,12,2538,B,34.34198972423472,18.87078429785384,1.717099486211736,0.2964215865880762,A,3025.0695410068147,Incorrect,sub_016_day_10_data.csv,0,300,101.0,Training at home,,,,,,,,,,,,,
16,12,2539,B,38.621036453559434,17.77756782005977,1.931051822677972,0.2792493823109704,B,924.4575420161708,Correct,sub_016_day_10_data.csv,1,300,101.0,Training at home,,,,,,,,,,,,,
16,12,2540,B,74.89933801210461,43.5937202711646,3.74496690060523,0.6847685567326957,B,837.3887490015477,Correct,sub_016_day_10_data.csv,1,300,101.0,Training at home,,,,,,,,,,,,,
16,12,2541,A,46.65207315405812,58.43024018519209,2.332603657702906,0.917820066566433,B,2983.125416998518,Incorrect,sub_016_day_10_data.csv,0,300,101.0,Training at home,,,,,,,,,,,,,
16,12,2542,A,34.55975695963765,56.135749510311186,1.7279878479818824,0.8817782913267523,A,570.8786240138579,Correct,sub_016_day_10_data.csv,1,300,101.0,Training at home,,,,,,,,,,,,,
16,12,2543,A,55.787947200263744,76.50671285657502,2.789397360013187,1.2017646353025992,A,622.4286670039874,Correct,sub_016_day_10_data.csv,1,300,101.0,Training at home,,,,,,,,,,,,,
16,12,2544,B,46.08068959105465,36.2634825702324,2.3040344795527323,0.5696254521811182,B,3732.710041018436,Correct,sub_016_day_10_data.csv,1,300,101.0,Training at home,,,,,,,,,,,,,
16,12,2545,B,70.82747581713208,52.16588820446186,3.5413737908566043,0.8194198557556192,A,777.0518749894109,Incorrect,sub_016_day_10_data.csv,0,300,101.0,Training at home,,,,,,,,,,,,,
16,12,2546,A,35.79802463249848,57.330101826547875,1.789901231624924,0.9005391336391881,A,726.86933298246,Correct,sub_016_day_10_data.csv,1,300,101.0,Training at home,,,,,,,,,,,,,
16,12,2547,B,82.80887937983553,53.49601913095968,4.140443968991776,0.8403135034906097,B,975.3544160048476,Correct,sub_016_day_10_data.csv,1,300,101.0,Training at home,,,,,,,,,,,,,
16,12,2548,A,35.12834086625826,65.31243238370767,1.7564170433129132,1.0259252888236807,A,624.0637910086662,Correct,sub_016_day_10_data.csv,1,300,101.0,Training at home,,,,,,,,,,,,,
16,12,2549,A,16.55570941481664,30.789151615708132,0.8277854707408321,0.4836348626308549,A,595.2353739994578,Correct,sub_016_day_10_data.csv,1,300,101.0,Training at home,,,,,,,,,,,,,
16,12,2550,A,20.392930973525644,42.730028813501384,1.019646548676282,0.6712017230408807,B,645.6145409902092,Incorrect,sub_016_day_10_data.csv,0,300,102.0,Training at home,,,,,,,,,,,,,
16,12,2551,B,67.94329936690879,36.54931381455298,3.3971649683454395,0.5741152788677379,B,944.729125010781,Correct,sub_016_day_10_data.csv,1,300,102.0,Training at home,,,,,,,,,,,,,
16,12,2552,A,53.98996918242259,72.81842465417265,2.6994984591211293,1.1438291396976534,A,538.93741601496,Correct,sub_016_day_10_data.csv,1,300,102.0,Training at home,,,,,,,,,,,,,
16,12,2553,B,70.58967748752292,56.70907334864452,3.529483874376146,0.8907840411199318,B,765.7029989932198,Correct,sub_016_day_10_data.csv,1,300,102.0,Training at home,,,,,,,,,,,,,
16,12,2554,A,37.75356301108726,51.82108191667854,1.887678150554363,0.8140036512525608,A,1581.1880829860456,Correct,sub_016_day_10_data.csv,1,300,102.0,Training at home,,,,,,,,,,,,,
16,12,2555,A,39.47988255859614,60.381950205622715,1.9739941279298068,0.948477455877045,A,591.0581240023021,Correct,sub_016_day_10_data.csv,1,300,102.0,Training at home,,,,,,,,,,,,,
16,12,2556,A,57.7621167012546,80.5674904028113,2.88810583506273,1.2655511798381909,A,812.7810829901136,Correct,sub_016_day_10_data.csv,1,300,102.0,Training at home,,,,,,,,,,,,,
16,12,2557,A,34.87412586405601,64.22770716056012,1.7437062932028005,1.008886464862661,A,666.7881670000497,Correct,sub_016_day_10_data.csv,1,300,102.0,Training at home,,,,,,,,,,,,,
16,12,2558,B,47.844626632319255,28.71492869053983,2.392231331615963,0.4510530451127734,B,1366.381624015048,Correct,sub_016_day_10_data.csv,1,300,102.0,Training at home,,,,,,,,,,,,,
16,12,2559,B,53.74374776473924,24.679252422955567,2.687187388236962,0.3876607905402265,B,833.007290988462,Correct,sub_016_day_10_data.csv,1,300,102.0,Training at home,,,,,,,,,,,,,
16,12,2560,B,39.14475732967597,23.78883530009271,1.9572378664837984,0.373674151081144,B,633.873125014361,Correct,sub_016_day_10_data.csv,1,300,102.0,Training at home,,,,,,,,,,,,,
16,12,2561,B,61.943897199923015,53.35561266194789,3.0971948599961507,0.8381080038327903,B,1047.0375419827178,Correct,sub_016_day_10_data.csv,1,300,102.0,Training at home,,,,,,,,,,,,,
16,12,2562,B,47.98215131406045,21.130862681089408,2.3991075657030225,0.331922814814626,B,831.8322080012877,Correct,sub_016_day_10_data.csv,1,300,102.0,Training at home,,,,,,,,,,,,,
16,12,2563,B,71.50838935738325,52.50359635220642,3.575419467869162,0.8247245629356779,A,790.4938739957288,Incorrect,sub_016_day_10_data.csv,0,300,102.0,Training at home,,,,,,,,,,,,,
16,12,2564,A,59.36515333288726,68.15067210741972,2.9682576666443627,1.070508254149383,A,746.7412079859059,Correct,sub_016_day_10_data.csv,1,300,102.0,Training at home,,,,,,,,,,,,,
16,12,2565,B,57.09408157681752,39.59188953739359,2.854704078840876,0.6219079465620715,B,3289.029791019857,Correct,sub_016_day_10_data.csv,1,300,102.0,Training at home,,,,,,,,,,,,,
16,12,2566,A,40.36253293606068,57.15330485190362,2.0181266468030343,0.8977620132555916,A,566.0617919929791,Correct,sub_016_day_10_data.csv,1,300,102.0,Training at home,,,,,,,,,,,,,
16,12,2567,B,59.17975549293275,51.80470039034172,2.958987774646638,0.8137463308385893,A,619.8455000121612,Incorrect,sub_016_day_10_data.csv,0,300,102.0,Training at home,,,,,,,,,,,,,
16,12,2568,A,46.41017070725942,57.221618013967145,2.320508535362971,0.8988350738960027,B,904.4650419964456,Incorrect,sub_016_day_10_data.csv,0,300,102.0,Training at home,,,,,,,,,,,,,
16,12,2569,A,52.18868453083925,59.45121580462621,2.6094342265419623,0.9338575140939755,A,442.7126240043435,Correct,sub_016_day_10_data.csv,1,300,102.0,Training at home,,,,,,,,,,,,,
16,12,2570,A,12.080511246669737,39.01298523309961,0.6040255623334868,0.6128145390145641,A,617.6814160135109,Correct,sub_016_day_10_data.csv,1,300,102.0,Training at home,,,,,,,,,,,,,
16,12,2571,A,23.873179427519784,39.587479184439346,1.1936589713759893,0.6218386688998675,A,483.1668330007233,Correct,sub_016_day_10_data.csv,1,300,102.0,Training at home,,,,,,,,,,,,,
16,12,2572,A,12.791190862748604,32.0721074206677,0.6395595431374302,0.5037874852895617,A,601.9653329858556,Correct,sub_016_day_10_data.csv,1,300,102.0,Training at home,,,,,,,,,,,,,
16,12,2573,B,41.13746244343842,14.483712326099976,2.0568731221719214,0.2275096212019181,B,641.7172079964075,Correct,sub_016_day_10_data.csv,1,300,102.0,Training at home,,,,,,,,,,,,,
16,12,2574,A,57.03631495176219,76.60390212091863,2.8518157475881094,1.2032912806969476,A,605.9052080090623,Correct,sub_016_day_10_data.csv,1,300,102.0,Training at home,,,,,,,,,,,,,
16,12,2575,A,14.490562348590473,41.86273888285578,0.7245281174295236,0.6575783646676375,A,517.2040410107002,Correct,sub_016_day_10_data.csv,1,300,103.0,Training at home,,,,,,,,,,,,,
16,12,2576,A,42.581007274705634,68.87602713569206,2.129050363735282,1.081902104289707,A,586.5759160078596,Correct,sub_016_day_10_data.csv,1,300,103.0,Training at home,,,,,,,,,,,,,
16,12,2577,A,61.84509124468062,73.85319989297867,3.0922545622340305,1.1600833511394013,A,641.5502919990104,Correct,sub_016_day_10_data.csv,1,300,103.0,Training at home,,,,,,,,,,,,,
16,12,2578,B,72.16787655728976,62.55262812143732,3.608393827864488,0.982574384845209,B,829.2174999951385,Correct,sub_016_day_10_data.csv,1,300,103.0,Training at home,,,,,,,,,,,,,
16,12,2579,B,53.40499245145993,30.17381611645328,2.6702496225729964,0.4739691952110945,B,2298.120207997272,Correct,sub_016_day_10_data.csv,1,300,103.0,Training at home,,,,,,,,,,,,,
16,12,2580,A,21.449589055806097,41.25969541414119,1.072479452790305,0.6481057800120922,A,867.1321670117322,Correct,sub_016_day_10_data.csv,1,300,103.0,Training at home,,,,,,,,,,,,,
16,12,2581,A,34.17997601046794,45.24106419287333,1.7089988005233971,0.7106449745445755,A,569.5759580121376,Correct,sub_016_day_10_data.csv,1,300,103.0,Training at home,,,,,,,,,,,,,
16,12,2582,A,45.01473468919168,59.292883218220005,2.250736734459585,0.9313704316425876,B,773.2387080031913,Incorrect,sub_016_day_10_data.csv,0,300,103.0,Training at home,,,,,,,,,,,,,
16,12,2583,B,40.34565336411134,15.304239673546675,2.017282668205567,0.2403984346359584,B,649.1711660055444,Correct,sub_016_day_10_data.csv,1,300,103.0,Training at home,,,,,,,,,,,,,
16,12,2584,A,43.706108633754,52.1130660235213,2.1853054316877003,0.818590126877672,A,803.2472920021974,Correct,sub_016_day_10_data.csv,1,300,103.0,Training at home,,,,,,,,,,,,,
16,12,2585,A,38.3961678834256,67.42215855615122,1.91980839417128,1.0590647900458543,A,602.0744160050526,Correct,sub_016_day_10_data.csv,1,300,103.0,Training at home,,,,,,,,,,,,,
16,12,2586,B,81.76107845504622,56.66510934844607,4.088053922752311,0.8900934562197024,B,894.6453329990618,Correct,sub_016_day_10_data.csv,1,300,103.0,Training at home,,,,,,,,,,,,,
16,12,2587,B,39.05605234067555,21.371746218099616,1.952802617033777,0.335706604565836,B,3824.104917002842,Correct,sub_016_day_10_data.csv,1,300,103.0,Training at home,,,,,,,,,,,,,
16,12,2588,B,36.15900037162617,17.53479090896688,1.8079500185813089,0.2754358515092172,B,4270.012499997392,Correct,sub_016_day_10_data.csv,1,300,103.0,Training at home,,,,,,,,,,,,,
16,12,2589,A,64.20420493503754,87.43068151660584,3.2102102467518767,1.3733579337545891,A,900.5532920127735,Correct,sub_016_day_10_data.csv,1,300,103.0,Training at home,,,,,,,,,,,,,
16,12,2590,B,61.69500221735131,48.640252959927714,3.0847501108675655,0.7640393068382905,B,745.8713329979219,Correct,sub_016_day_10_data.csv,1,300,103.0,Training at home,,,,,,,,,,,,,
16,12,2591,B,68.59300070361297,41.315412638052734,3.4296500351806487,0.6489809841186868,B,638.0154159851372,Correct,sub_016_day_10_data.csv,1,300,103.0,Training at home,,,,,,,,,,,,,
16,12,2592,B,72.39873797524393,61.17047068705406,3.6199368987621967,0.9608635066353942,B,1066.7823330149986,Correct,sub_016_day_10_data.csv,1,300,103.0,Training at home,,,,,,,,,,,,,
16,12,2593,B,62.370101362217056,53.9223250387867,3.118505068110853,0.8470099010316664,B,2685.0724999967497,Correct,sub_016_day_10_data.csv,1,300,103.0,Training at home,,,,,,,,,,,,,
16,12,2594,B,60.354074350620934,51.5496299500209,3.0177037175310466,0.8097396937312902,B,1822.0214159809984,Correct,sub_016_day_10_data.csv,1,300,103.0,Training at home,,,,,,,,,,,,,
16,12,2595,B,50.82191833881801,29.707543985187495,2.5410959169409004,0.4666450097003033,B,1191.4109580102377,Correct,sub_016_day_10_data.csv,1,300,103.0,Training at home,,,,,,,,,,,,,
16,12,2596,A,22.088613900919547,39.503888943792305,1.1044306950459772,0.6205256364702247,A,503.5553330089897,Correct,sub_016_day_10_data.csv,1,300,103.0,Training at home,,,,,,,,,,,,,
16,12,2597,B,72.70169432089742,55.126193659291694,3.635084716044871,0.8659202251019952,B,3728.2602499763016,Correct,sub_016_day_10_data.csv,1,300,103.0,Training at home,,,,,,,,,,,,,
16,12,2598,B,45.259456876191734,19.470324296702017,2.262972843809586,0.3058391388676496,B,911.3038330106064,Correct,sub_016_day_10_data.csv,1,300,103.0,Training at home,,,,,,,,,,,,,
16,12,2599,A,28.051070301109533,60.84844994598421,1.4025535150554764,0.9558052166631512,A,684.4298740033992,Correct,sub_016_day_10_data.csv,1,300,103.0,Training at home,,,,,,,,,,,,,
16,12,2600,A,59.998046248110214,70.39496061696289,2.9999023124055104,1.105761455619967,B,741.4015829854179,Incorrect,sub_016_day_10_data.csv,0,300,104.0,Training at home,,,,,,,,,,,,,
16,12,2601,B,32.21784411007239,16.776787115745627,1.6108922055036197,0.2635291557683317,B,710.5365410097875,Correct,sub_016_day_10_data.csv,1,300,104.0,Training at home,,,,,,,,,,,,,
16,12,2602,A,35.79922269097547,53.288630350257776,1.7899611345487734,0.8370558481411595,A,783.6298330221325,Correct,sub_016_day_10_data.csv,1,300,104.0,Training at home,,,,,,,,,,,,,
16,12,2603,A,21.036111219107937,33.198927627794276,1.051805560955397,0.5214875357126887,A,815.0551659928169,Correct,sub_016_day_10_data.csv,1,300,104.0,Training at home,,,,,,,,,,,,,
16,12,2604,A,13.608846035446536,31.752725866680272,0.6804423017723268,0.4987706515710667,A,710.1124170003459,Correct,sub_016_day_10_data.csv,1,300,104.0,Training at home,,,,,,,,,,,,,
16,12,2605,B,45.84361103824267,35.67484607977135,2.2921805519121334,0.5603791718107816,A,871.6389999899548,Incorrect,sub_016_day_10_data.csv,0,300,104.0,Training at home,,,,,,,,,,,,,
16,12,2606,A,56.29258294940374,81.49553568716266,2.8146291474701868,1.2801288810757752,A,615.1817499776371,Correct,sub_016_day_10_data.csv,1,300,104.0,Training at home,,,,,,,,,,,,,
16,12,2607,B,68.8855561701449,45.34077202619859,3.444277808507245,0.7122111815279755,B,597.2604159906041,Correct,sub_016_day_10_data.csv,1,300,104.0,Training at home,,,,,,,,,,,,,
16,12,2608,B,78.14073752601345,60.703449031262835,3.907036876300673,0.9535275476208886,B,537.072373990668,Correct,sub_016_day_10_data.csv,1,300,104.0,Training at home,,,,,,,,,,,,,
16,12,2609,A,19.073321501763573,41.77395690820889,0.9536660750881788,0.6561837806710282,A,537.8173740173224,Correct,sub_016_day_10_data.csv,1,300,104.0,Training at home,,,,,,,,,,,,,
16,12,2610,B,76.48552832962972,62.965778452004365,3.8242764164814855,0.9890641350618968,B,594.8470420262311,Correct,sub_016_day_10_data.csv,1,300,104.0,Training at home,,,,,,,,,,,,,
16,12,2611,A,62.98320410198883,87.10446699909858,3.149160205099441,1.3682337680961134,A,900.7989169913344,Correct,sub_016_day_10_data.csv,1,300,104.0,Training at home,,,,,,,,,,,,,
16,12,2612,A,35.9624071194665,43.7502605535408,1.7981203559733248,0.6872274857382155,A,1311.647291004192,Correct,sub_016_day_10_data.csv,1,300,104.0,Training at home,,,,,,,,,,,,,
16,12,2613,B,47.08442827275991,22.215913451886387,2.3542214136379953,0.3489667524661646,B,607.7387080003973,Correct,sub_016_day_10_data.csv,1,300,104.0,Training at home,,,,,,,,,,,,,
16,12,2614,B,42.39075970941795,16.235189776473117,2.1195379854708976,0.2550217646570203,B,800.2534580009524,Correct,sub_016_day_10_data.csv,1,300,104.0,Training at home,,,,,,,,,,,,,
16,12,2615,B,74.91821260717614,55.241622575770634,3.7459106303588072,0.8677333782821055,B,2556.553417001851,Correct,sub_016_day_10_data.csv,1,300,104.0,Training at home,,,,,,,,,,,,,
16,12,2616,A,13.4070830836462,39.101479857244954,0.6703541541823099,0.6142046093200502,A,607.0145830162801,Correct,sub_016_day_10_data.csv,1,300,104.0,Training at home,,,,,,,,,,,,,
16,12,2617,B,73.83279369267498,61.08957238981213,3.6916396846337487,0.9595927591538782,B,1254.586915980326,Correct,sub_016_day_10_data.csv,1,300,104.0,Training at home,,,,,,,,,,,,,
16,12,2618,B,69.39998299381301,48.4146775759282,3.4699991496906506,0.7604959769922726,B,3309.574083017651,Correct,sub_016_day_10_data.csv,1,300,104.0,Training at home,,,,,,,,,,,,,
16,12,2619,B,69.10914345824608,51.75445303398985,3.455457172912304,0.8129570472107024,B,2684.737874980783,Correct,sub_016_day_10_data.csv,1,300,104.0,Training at home,,,,,,,,,,,,,
16,12,2620,A,51.74452265612254,77.50864379198623,2.587226132806127,1.2175029296330602,B,804.0472499851603,Incorrect,sub_016_day_10_data.csv,0,300,104.0,Training at home,,,,,,,,,,,,,
16,12,2621,B,40.50773169825048,30.668262870121612,2.0253865849125243,0.4817359466556735,A,835.5127919930965,Incorrect,sub_016_day_10_data.csv,0,300,104.0,Training at home,,,,,,,,,,,,,
16,12,2622,B,73.52856687671341,60.62925603388164,3.67642834383567,0.952362126743286,B,712.2131240030285,Correct,sub_016_day_10_data.csv,1,300,104.0,Training at home,,,,,,,,,,,,,
16,12,2623,B,56.54649831141705,25.56671639918387,2.827324915570852,0.4016010420804486,B,700.3259580233134,Correct,sub_016_day_10_data.csv,1,300,104.0,Training at home,,,,,,,,,,,,,
16,12,2624,B,51.42613238670459,43.76857008239664,2.5713066193352296,0.6875150911449364,A,2170.5102490086574,Incorrect,sub_016_day_10_data.csv,0,300,104.0,Training at home,,,,,,,,,,,,,
16,12,2625,A,39.03090850507517,64.86596912078511,1.9515454252537583,1.0189122602892042,A,681.5730830130633,Correct,sub_016_day_10_data.csv,1,300,105.0,Training at home,,,,,,,,,,,,,
16,12,2626,A,59.83975327384765,84.19120172931413,2.9919876636923823,1.3224723042485478,A,717.9347499914002,Correct,sub_016_day_10_data.csv,1,300,105.0,Training at home,,,,,,,,,,,,,
16,12,2627,A,11.603137217449117,37.41740209242301,0.5801568608724559,0.5877511776498574,A,603.0715420201886,Correct,sub_016_day_10_data.csv,1,300,105.0,Training at home,,,,,,,,,,,,,
16,12,2628,A,30.68683776460919,48.81532656132952,1.5343418882304598,0.7667893565382976,A,683.6046249954961,Correct,sub_016_day_10_data.csv,1,300,105.0,Training at home,,,,,,,,,,,,,
16,12,2629,B,38.479367091897345,24.170608320614612,1.9239683545948671,0.3796710276641959,B,1358.77999899094,Correct,sub_016_day_10_data.csv,1,300,105.0,Training at home,,,,,,,,,,,,,
16,12,2630,A,30.053184114608325,46.67530437162478,1.5026592057304162,0.7331739665898198,A,683.1134999811184,Correct,sub_016_day_10_data.csv,1,300,105.0,Training at home,,,,,,,,,,,,,
16,12,2631,A,12.951301340714846,36.07438297361048,0.6475650670357423,0.5666550826633969,A,502.1125000203028,Correct,sub_016_day_10_data.csv,1,300,105.0,Training at home,,,,,,,,,,,,,
16,12,2632,A,45.99423344379993,58.43066513046606,2.2997116721899964,0.9178267415911872,A,722.674749995349,Correct,sub_016_day_10_data.csv,1,300,105.0,Training at home,,,,,,,,,,,,,
16,12,2633,B,65.30337670655265,57.38446693979042,3.2651688353276325,0.9013930988410598,B,848.5250830126461,Correct,sub_016_day_10_data.csv,1,300,105.0,Training at home,,,,,,,,,,,,,
16,12,2634,A,26.206219093550096,55.8062147196169,1.3103109546775047,0.876601970939015,A,668.4194580011535,Correct,sub_016_day_10_data.csv,1,300,105.0,Training at home,,,,,,,,,,,,,
16,12,2635,B,58.68597986354457,29.100515873460743,2.9342989931772285,0.4571098344186872,B,724.5476670213975,Correct,sub_016_day_10_data.csv,1,300,105.0,Training at home,,,,,,,,,,,,,
16,12,2636,B,43.633524385574134,27.902585096748645,2.1816762192787067,0.438292781780548,B,770.7053329795599,Correct,sub_016_day_10_data.csv,1,300,105.0,Training at home,,,,,,,,,,,,,
16,12,2637,A,46.13381186405288,57.55535160469834,2.306690593202644,0.904077348880489,A,770.8726249984466,Correct,sub_016_day_10_data.csv,1,300,105.0,Training at home,,,,,,,,,,,,,
16,12,2638,B,64.36261664583142,40.92034627619198,3.2181308322915707,0.6427752962181758,B,802.3147489875555,Correct,sub_016_day_10_data.csv,1,300,105.0,Training at home,,,,,,,,,,,,,
16,12,2639,A,48.19894527174525,74.25920675118918,2.4099472635872625,1.1664608919547077,A,809.9204169993754,Correct,sub_016_day_10_data.csv,1,300,105.0,Training at home,,,,,,,,,,,,,
16,12,2640,A,32.4553109715195,48.36644461614398,1.622765548575975,0.7597383354316776,A,643.8574999920093,Correct,sub_016_day_10_data.csv,1,300,105.0,Training at home,,,,,,,,,,,,,
16,12,2641,A,18.11260331966816,43.45197809260665,0.905630165983408,0.6825420757983884,A,863.5342499765102,Correct,sub_016_day_10_data.csv,1,300,105.0,Training at home,,,,,,,,,,,,,
16,12,2642,B,47.32124785268336,24.147787948111088,2.366062392634168,0.3793125660911496,B,636.9638739852235,Correct,sub_016_day_10_data.csv,1,300,105.0,Training at home,,,,,,,,,,,,,
16,12,2643,B,65.21727026998224,56.04902463065058,3.2608635134991117,0.8804160201026261,B,1321.757790981792,Correct,sub_016_day_10_data.csv,1,300,105.0,Training at home,,,,,,,,,,,,,
16,12,2644,A,19.338646050610876,45.536427753071585,0.966932302530544,0.7152845344988603,A,526.6562910110224,Correct,sub_016_day_10_data.csv,1,300,105.0,Training at home,,,,,,,,,,,,,
16,12,2645,A,19.646360034128584,34.07917661015334,0.9823180017064292,0.5353144543942341,A,663.4197079984006,Correct,sub_016_day_10_data.csv,1,300,105.0,Training at home,,,,,,,,,,,,,
16,12,2646,B,51.740673220335935,29.621458237026847,2.5870336610167963,0.4652927779303019,B,1130.1757489854936,Correct,sub_016_day_10_data.csv,1,300,105.0,Training at home,,,,,,,,,,,,,
16,12,2647,A,51.54854678974539,60.12425418450139,2.5774273394872695,0.944429576242975,A,597.9812490113545,Correct,sub_016_day_10_data.csv,1,300,105.0,Training at home,,,,,,,,,,,,,
16,12,2648,B,69.81850823798237,41.15871012783429,3.490925411899118,0.6465195068441801,A,615.7552500080783,Incorrect,sub_016_day_10_data.csv,0,300,105.0,Training at home,,,,,,,,,,,,,
16,12,2649,B,45.33545227027989,23.61223364564386,2.2667726135139943,0.3709000987800024,B,1034.0415409882553,Correct,sub_016_day_10_data.csv,1,300,105.0,Training at home,,,,,,,,,,,,,
16,12,2650,B,58.45129611325469,37.4606596578432,2.9225648056627347,0.5884306658985387,A,759.0831670095213,Incorrect,sub_016_day_10_data.csv,0,300,106.0,Training at home,,,,,,,,,,,,,
16,12,2651,A,56.580715656433455,77.28135940783297,2.829035782821673,1.2139327548754024,A,662.9974999814294,Correct,sub_016_day_10_data.csv,1,300,106.0,Training at home,,,,,,,,,,,,,
16,12,2652,B,48.31173594956933,22.04721516794486,2.4155867974784666,0.3463168460186451,B,774.6721659786999,Correct,sub_016_day_10_data.csv,1,300,106.0,Training at home,,,,,,,,,,,,,
16,12,2653,A,19.22354969283553,41.470002254751066,0.9611774846417762,0.6514092721393905,A,554.6832079999149,Correct,sub_016_day_10_data.csv,1,300,106.0,Training at home,,,,,,,,,,,,,
16,12,2654,A,17.806761291122776,37.54964040687205,0.8903380645561387,0.5898283722358383,A,2058.517458004644,Correct,sub_016_day_10_data.csv,1,300,106.0,Training at home,,,,,,,,,,,,,
16,12,2655,B,54.7028875999728,22.77265905835752,2.7351443799986397,0.3577120920022052,B,675.5249580019154,Correct,sub_016_day_10_data.csv,1,300,106.0,Training at home,,,,,,,,,,,,,
16,12,2656,B,54.66706571528517,46.63438032868928,2.733353285764258,0.732531133226613,A,1322.0182079821825,Incorrect,sub_016_day_10_data.csv,0,300,106.0,Training at home,,,,,,,,,,,,,
16,12,2657,B,63.9672684210954,39.029967161848454,3.1983634210547702,0.6130812905275699,B,685.4842489992734,Correct,sub_016_day_10_data.csv,1,300,106.0,Training at home,,,,,,,,,,,,,
16,12,2658,B,59.62405434714029,36.701166747882425,2.981202717357014,0.5765005791666071,B,2234.59662499954,Correct,sub_016_day_10_data.csv,1,300,106.0,Training at home,,,,,,,,,,,,,
16,12,2659,A,43.27120327288729,63.143588933227086,2.1635601636443647,0.9918571755696,A,760.6303330103401,Correct,sub_016_day_10_data.csv,1,300,106.0,Training at home,,,,,,,,,,,,,
16,12,2660,A,55.53083446500206,67.35347505514746,2.776541723250103,1.0579859121349733,A,872.4496659997385,Correct,sub_016_day_10_data.csv,1,300,106.0,Training at home,,,,,,,,,,,,,
16,12,2661,A,36.28890684377246,61.52420514101551,1.8144453421886229,0.9664199544448284,A,510.0392079912126,Correct,sub_016_day_10_data.csv,1,300,106.0,Training at home,,,,,,,,,,,,,
16,12,2662,B,33.14780499024514,18.480774654269137,1.657390249512257,0.2902953294325018,B,1081.6256249963772,Correct,sub_016_day_10_data.csv,1,300,106.0,Training at home,,,,,,,,,,,,,
16,12,2663,B,60.920862396963614,33.452743469143016,3.0460431198481808,0.5254744656254181,B,768.9406659919769,Correct,sub_016_day_10_data.csv,1,300,106.0,Training at home,,,,,,,,,,,,,
16,12,2664,B,48.82558463495559,35.14871049479996,2.4412792317477794,0.5521146533680901,B,1911.6870000143535,Correct,sub_016_day_10_data.csv,1,300,106.0,Training at home,,,,,,,,,,,,,
16,12,2665,A,61.9666747497764,84.16265742743755,3.0983337374888205,1.3220239314031614,A,701.9112919806503,Correct,sub_016_day_10_data.csv,1,300,106.0,Training at home,,,,,,,,,,,,,
16,12,2666,B,79.52867406826864,49.48092725887409,3.976433703413432,0.7772445878464489,B,760.9933330095373,Correct,sub_016_day_10_data.csv,1,300,106.0,Training at home,,,,,,,,,,,,,
16,12,2667,B,38.41496203273255,12.67896370969364,1.9207481016366272,0.1991606962275256,B,738.3577500004321,Correct,sub_016_day_10_data.csv,1,300,106.0,Training at home,,,,,,,,,,,,,
16,12,2668,B,37.26561841073057,19.382565062469407,1.863280920536528,0.3044606200399004,B,1821.8125410203356,Correct,sub_016_day_10_data.csv,1,300,106.0,Training at home,,,,,,,,,,,,,
16,12,2669,A,40.92201929189189,68.52588355984243,2.046100964594595,1.076402061861753,A,509.27516698720865,Correct,sub_016_day_10_data.csv,1,300,106.0,Training at home,,,,,,,,,,,,,
16,12,2670,B,66.68768411843968,52.579963772856246,3.334384205921984,0.8259241395741131,A,835.2670830208808,Incorrect,sub_016_day_10_data.csv,0,300,106.0,Training at home,,,,,,,,,,,,,
16,12,2671,A,54.95623023683315,67.97370945517362,2.7478115118416575,1.0677285313081026,A,583.2945829897653,Correct,sub_016_day_10_data.csv,1,300,106.0,Training at home,,,,,,,,,,,,,
16,12,2672,A,53.61050760286858,60.76275959683016,2.680525380143429,0.9544591958062216,A,1600.6004999799188,Correct,sub_016_day_10_data.csv,1,300,106.0,Training at home,,,,,,,,,,,,,
16,12,2673,A,61.24384150916508,86.38489079697001,3.062192075458254,1.3569306915445876,A,1770.7283750060014,Correct,sub_016_day_10_data.csv,1,300,106.0,Training at home,,,,,,,,,,,,,
16,12,2674,B,64.34010122630781,56.51283518512827,3.2170050613153904,0.8877015392556487,B,980.9713749855292,Correct,sub_016_day_10_data.csv,1,300,106.0,Training at home,,,,,,,,,,,,,
16,12,2675,B,78.63721385040321,51.31926972683566,3.9318606925201607,0.8061212038070997,B,1117.4716250097845,Correct,sub_016_day_10_data.csv,1,300,107.0,Training at home,,,,,,,,,,,,,
16,12,2676,A,35.58702611210192,54.19651396492514,1.7793513056050958,0.8513168506119273,A,634.1221670154482,Correct,sub_016_day_10_data.csv,1,300,107.0,Training at home,,,,,,,,,,,,,
16,12,2677,B,58.52169874611202,26.83300804374123,2.926084937305601,0.4214919047196664,B,3375.9603750077076,Correct,sub_016_day_10_data.csv,1,300,107.0,Training at home,,,,,,,,,,,,,
16,12,2678,B,64.1321815404862,53.248378667271744,3.2066090770243103,0.836423576183342,B,1539.4249580276664,Correct,sub_016_day_10_data.csv,1,300,107.0,Training at home,,,,,,,,,,,,,
16,12,2679,B,44.61243018172423,26.721390881354683,2.230621509086211,0.4197386264328258,B,1160.5252079898492,Correct,sub_016_day_10_data.csv,1,300,107.0,Training at home,,,,,,,,,,,,,
16,12,2680,B,41.59378645212723,20.069862520223605,2.0796893226063617,0.315256663260458,B,851.4271250169259,Correct,sub_016_day_10_data.csv,1,300,107.0,Training at home,,,,,,,,,,,,,
16,12,2681,B,44.834792940170615,34.00093435354282,2.2417396470085307,0.5340854279013947,A,2603.5219999903347,Incorrect,sub_016_day_10_data.csv,0,300,107.0,Training at home,,,,,,,,,,,,,
16,12,2682,A,41.09307632295656,67.97306780979444,2.054653816147828,1.0677184523660552,A,765.3483329922892,Correct,sub_016_day_10_data.csv,1,300,107.0,Training at home,,,,,,,,,,,,,
16,12,2683,A,23.003928615876504,47.19455535472047,1.1501964307938253,0.7413303419591334,A,667.8812489844859,Correct,sub_016_day_10_data.csv,1,300,107.0,Training at home,,,,,,,,,,,,,
16,12,2684,A,67.19619338932723,85.20773867909276,3.3598096694663617,1.338440029316183,A,990.567041997565,Correct,sub_016_day_10_data.csv,1,300,107.0,Training at home,,,,,,,,,,,,,
16,12,2685,A,59.07836959447454,69.05671884572865,2.9539184797237272,1.0847404030337848,A,3911.680624994915,Correct,sub_016_day_10_data.csv,1,300,107.0,Training at home,,,,,,,,,,,,,
16,12,2686,A,21.74234854303556,52.66743757031817,1.087117427151778,0.8272981747715531,A,816.3155409856699,Correct,sub_016_day_10_data.csv,1,300,107.0,Training at home,,,,,,,,,,,,,
16,12,2687,B,51.98732365613615,29.440857102417652,2.599366182806808,0.4624559019417109,B,565.0544579839334,Correct,sub_016_day_10_data.csv,1,300,107.0,Training at home,,,,,,,,,,,,,
16,12,2688,B,70.1387791429567,45.70951135963385,3.5069389571478347,0.7180033254330245,B,583.497667015763,Correct,sub_016_day_10_data.csv,1,300,107.0,Training at home,,,,,,,,,,,,,
16,12,2689,B,84.55803310266313,60.72694439257344,4.227901655133156,0.9538966118933232,B,943.4454170113896,Correct,sub_016_day_10_data.csv,1,300,107.0,Training at home,,,,,,,,,,,,,
16,12,2690,A,61.37411495529459,87.40264472608723,3.0687057477647297,1.3729175328789716,A,790.8599160145968,Correct,sub_016_day_10_data.csv,1,300,107.0,Training at home,,,,,,,,,,,,,
16,12,2691,B,82.90310760069978,53.81645880536594,4.145155380034989,0.8453469581257769,B,654.7652080189437,Correct,sub_016_day_10_data.csv,1,300,107.0,Training at home,,,,,,,,,,,,,
16,12,2692,A,20.5071701091332,42.15374046577437,1.02535850545666,0.6621494068430377,A,525.2653330098838,Correct,sub_016_day_10_data.csv,1,300,107.0,Training at home,,,,,,,,,,,,,
16,12,2693,B,75.88441242234603,46.28970559371131,3.7942206211173017,0.7271169951501889,B,3056.6248329996597,Correct,sub_016_day_10_data.csv,1,300,107.0,Training at home,,,,,,,,,,,,,
16,12,2694,A,60.588111924275275,87.29499477686072,3.029405596213764,1.3712265714307248,B,959.0647080040072,Incorrect,sub_016_day_10_data.csv,0,300,107.0,Training at home,,,,,,,,,,,,,
16,12,2695,B,66.49902814143161,47.32234250903543,3.3249514070715804,0.7433376178852283,B,596.2251249875408,Correct,sub_016_day_10_data.csv,1,300,107.0,Training at home,,,,,,,,,,,,,
16,12,2696,B,50.42112131155257,35.48114562099284,2.5210560655776284,0.5573365321193039,A,1182.3907920042984,Incorrect,sub_016_day_10_data.csv,0,300,107.0,Training at home,,,,,,,,,,,,,
16,12,2697,A,35.83580188750009,69.08050237539493,1.7917900943750045,1.0851139938441647,A,741.4934159896802,Correct,sub_016_day_10_data.csv,1,300,107.0,Training at home,,,,,,,,,,,,,
16,12,2698,A,31.903942808970054,46.20442746986288,1.5951971404485028,0.7257774495132183,A,608.4660000051372,Correct,sub_016_day_10_data.csv,1,300,107.0,Training at home,,,,,,,,,,,,,
16,12,2699,B,37.42812516145054,22.1573234978959,1.8714062580725268,0.3480464236210112,B,655.2793329756241,Correct,sub_016_day_10_data.csv,1,300,107.0,Training at home,,,,,,,,,,,,,
