subject,day,trial,cat,x,y,xt,yt,resp,rt,fb,f_name,acc,n_trials,block,session_type,ns_left_digit,ns_right_digit,ns_left_size,ns_right_size,ns_congruent,ns_cue,ns_correct_side,ns_resp,ns_rt,ns_fb,acc_stroop,acc_stroop_mean,resp_key
16,18,3900,B,69.74168086879752,45.453432740566875,3.487084043439876,0.7139808518910132,B,975.4365410190076,Correct,sub_016_day_15_data.csv,1,300,156.0,Training at home,,,,,,,,,,,,,
16,18,3901,B,41.71889240944043,19.53368405695424,2.085944620472022,0.3068343916543575,B,734.9400409730151,Correct,sub_016_day_15_data.csv,1,300,156.0,Training at home,,,,,,,,,,,,,
16,18,3902,A,65.5675407668265,76.52801167325177,3.2783770383413247,1.2020991963326084,A,837.011583003914,Correct,sub_016_day_15_data.csv,1,300,156.0,Training at home,,,,,,,,,,,,,
16,18,3903,A,32.999981569581315,54.13250888653085,1.6499990784790657,0.8503114611915477,A,516.1685830098577,Correct,sub_016_day_15_data.csv,1,300,156.0,Training at home,,,,,,,,,,,,,
16,18,3904,B,86.31083892372037,60.551242268656694,4.315541946186019,0.951136689384738,B,593.7161659821868,Correct,sub_016_day_15_data.csv,1,300,156.0,Training at home,,,,,,,,,,,,,
16,18,3905,B,52.85637012676614,27.341633300635436,2.642818506338307,0.4294813715721116,B,1544.2986660054885,Correct,sub_016_day_15_data.csv,1,300,156.0,Training at home,,,,,,,,,,,,,
16,18,3906,B,35.39008175503806,20.989329525127538,1.769504087751903,0.32969961719958,B,804.6499990159646,Correct,sub_016_day_15_data.csv,1,300,156.0,Training at home,,,,,,,,,,,,,
16,18,3907,A,26.756467809253003,47.96688796765292,1.33782339046265,0.7534621142737153,A,727.1529579884373,Correct,sub_016_day_15_data.csv,1,300,156.0,Training at home,,,,,,,,,,,,,
16,18,3908,A,42.014809011177064,63.24585125509113,2.1007404505588534,0.9934635083651356,A,971.2764569849242,Correct,sub_016_day_15_data.csv,1,300,156.0,Training at home,,,,,,,,,,,,,
16,18,3909,B,49.06719949567071,38.667024882575866,2.4533599747835355,0.6073802065363704,B,582.2624989959877,Correct,sub_016_day_15_data.csv,1,300,156.0,Training at home,,,,,,,,,,,,,
16,18,3910,B,45.05756074768651,23.94093545135414,2.252878037384326,0.3760633346702079,B,1564.9659580085429,Correct,sub_016_day_15_data.csv,1,300,156.0,Training at home,,,,,,,,,,,,,
16,18,3911,A,38.10155809063283,63.30062405267999,1.9050779045316415,0.9943238774577442,A,451.2613329861779,Correct,sub_016_day_15_data.csv,1,300,156.0,Training at home,,,,,,,,,,,,,
16,18,3912,B,45.00706783221967,28.77109552504747,2.2503533916109832,0.4519353116860964,B,648.4787910012528,Correct,sub_016_day_15_data.csv,1,300,156.0,Training at home,,,,,,,,,,,,,
16,18,3913,A,53.56485646188857,68.77967427926023,2.678242823094428,1.080388597160114,A,540.4584579810034,Correct,sub_016_day_15_data.csv,1,300,156.0,Training at home,,,,,,,,,,,,,
16,18,3914,A,49.09010445991227,69.8481499964432,2.4545052229956132,1.0971721744783194,A,603.7007069971878,Correct,sub_016_day_15_data.csv,1,300,156.0,Training at home,,,,,,,,,,,,,
16,18,3915,B,77.18169543797605,60.02497120470256,3.859084771898802,0.9428700428431622,B,600.5764570145402,Correct,sub_016_day_15_data.csv,1,300,156.0,Training at home,,,,,,,,,,,,,
16,18,3916,B,70.7398811493516,57.42547705678603,3.5369940574675804,0.9020372842524412,A,1306.7473330011126,Incorrect,sub_016_day_15_data.csv,0,300,156.0,Training at home,,,,,,,,,,,,,
16,18,3917,B,79.09784443581427,64.36276648287247,3.9548922217907134,1.0110079717365377,B,648.9492079999764,Correct,sub_016_day_15_data.csv,1,300,156.0,Training at home,,,,,,,,,,,,,
16,18,3918,A,37.69027417934398,44.89354066842992,1.884513708967199,0.7051860877878703,A,640.1619160023984,Correct,sub_016_day_15_data.csv,1,300,156.0,Training at home,,,,,,,,,,,,,
16,18,3919,A,38.75393826372478,67.52802521595156,1.9376969131862387,1.060727739649299,A,713.3877070154995,Correct,sub_016_day_15_data.csv,1,300,156.0,Training at home,,,,,,,,,,,,,
16,18,3920,A,38.537615179997616,70.07954320267896,1.9268807589998809,1.1008068904623238,A,549.4427910016384,Correct,sub_016_day_15_data.csv,1,300,156.0,Training at home,,,,,,,,,,,,,
16,18,3921,A,61.631133139575326,77.36849191326004,3.0815566569787665,1.2153014290700954,A,637.4597909743898,Correct,sub_016_day_15_data.csv,1,300,156.0,Training at home,,,,,,,,,,,,,
16,18,3922,A,50.377708840510934,62.800404279947784,2.518885442025547,0.986466443641765,A,767.4434990040027,Correct,sub_016_day_15_data.csv,1,300,156.0,Training at home,,,,,,,,,,,,,
16,18,3923,B,66.0682910024619,41.31507368932883,3.3034145501230956,0.6489756599245821,B,597.0385829859879,Correct,sub_016_day_15_data.csv,1,300,156.0,Training at home,,,,,,,,,,,,,
16,18,3924,A,24.54030711573627,47.255203219030165,1.2270153557868135,0.7422829963839896,A,646.4432490174659,Correct,sub_016_day_15_data.csv,1,300,156.0,Training at home,,,,,,,,,,,,,
16,18,3925,B,59.439397627532,34.49158667893019,2.9719698813766,0.5417925766059133,B,595.8317070035264,Correct,sub_016_day_15_data.csv,1,300,157.0,Training at home,,,,,,,,,,,,,
16,18,3926,A,56.70547615757605,66.23269087016713,2.8352738078788025,1.040380675326004,A,1262.8848739841487,Correct,sub_016_day_15_data.csv,1,300,157.0,Training at home,,,,,,,,,,,,,
16,18,3927,B,54.757090297708864,47.65416100903715,2.737854514885443,0.7485498106948815,B,607.8723329992499,Correct,sub_016_day_15_data.csv,1,300,157.0,Training at home,,,,,,,,,,,,,
16,18,3928,A,57.50665491523799,79.73068389086885,2.875332745761899,1.2524066538862184,A,2071.028375008609,Correct,sub_016_day_15_data.csv,1,300,157.0,Training at home,,,,,,,,,,,,,
16,18,3929,A,18.6092516604743,45.21545824137671,0.930462583023715,0.7102427571990257,A,760.0835829798598,Correct,sub_016_day_15_data.csv,1,300,157.0,Training at home,,,,,,,,,,,,,
16,18,3930,A,29.31447285347118,50.68197147675263,1.4657236426735591,0.7961105463040675,A,2691.756999003701,Correct,sub_016_day_15_data.csv,1,300,157.0,Training at home,,,,,,,,,,,,,
16,18,3931,B,65.9885365195869,42.28242918648779,3.299426825979345,0.6641708445410035,B,591.7616660008207,Correct,sub_016_day_15_data.csv,1,300,157.0,Training at home,,,,,,,,,,,,,
16,18,3932,B,66.61702667163249,39.873022599735734,3.330851333581625,0.6263239743787479,B,669.7494570107665,Correct,sub_016_day_15_data.csv,1,300,157.0,Training at home,,,,,,,,,,,,,
16,18,3933,A,40.38960908612491,50.184514234091075,2.0194804543062457,0.7882965062089646,A,888.9829579857178,Correct,sub_016_day_15_data.csv,1,300,157.0,Training at home,,,,,,,,,,,,,
16,18,3934,B,54.49513821641661,33.48632653450978,2.724756910820831,0.5260019871826244,A,686.4741249883082,Incorrect,sub_016_day_15_data.csv,0,300,157.0,Training at home,,,,,,,,,,,,,
16,18,3935,B,67.96127422422936,44.710310902036106,3.3980637112114676,0.7023079213477613,B,649.2987500096206,Correct,sub_016_day_15_data.csv,1,300,157.0,Training at home,,,,,,,,,,,,,
16,18,3936,A,57.85785787269285,67.94459857558113,2.8928928936346425,1.0672712586807658,A,605.4792079958133,Correct,sub_016_day_15_data.csv,1,300,157.0,Training at home,,,,,,,,,,,,,
16,18,3937,A,17.477402550382667,41.11969879331597,0.8738701275191333,0.6459067182345327,A,1076.9329579779878,Correct,sub_016_day_15_data.csv,1,300,157.0,Training at home,,,,,,,,,,,,,
16,18,3938,B,49.814400267647414,34.76107046018967,2.490720013382371,0.5460256179432452,B,1737.9347080131993,Correct,sub_016_day_15_data.csv,1,300,157.0,Training at home,,,,,,,,,,,,,
16,18,3939,A,46.96164960453467,60.62531157475084,2.3480824802267337,0.9523001673241476,A,516.7149159824476,Correct,sub_016_day_15_data.csv,1,300,157.0,Training at home,,,,,,,,,,,,,
16,18,3940,A,28.9679024377582,42.78459485727355,1.44839512188791,0.672058844452131,A,571.8358329904731,Correct,sub_016_day_15_data.csv,1,300,157.0,Training at home,,,,,,,,,,,,,
16,18,3941,A,56.539041108533496,65.46585958843428,2.826952055426675,1.0283353177198302,B,660.0650409818627,Incorrect,sub_016_day_15_data.csv,0,300,157.0,Training at home,,,,,,,,,,,,,
16,18,3942,A,46.1604896632942,72.3822141262288,2.3080244831647097,1.136977160747619,A,534.8425830015913,Correct,sub_016_day_15_data.csv,1,300,157.0,Training at home,,,,,,,,,,,,,
16,18,3943,A,28.53625023614485,41.7113558409459,1.4268125118072426,0.6552004454059267,A,624.6151660161559,Correct,sub_016_day_15_data.csv,1,300,157.0,Training at home,,,,,,,,,,,,,
16,18,3944,A,53.74756564381172,79.69584850516469,2.687378282190586,1.2518594609271525,A,1661.279583000578,Correct,sub_016_day_15_data.csv,1,300,157.0,Training at home,,,,,,,,,,,,,
16,18,3945,A,64.11861029116898,86.9279835807084,3.2059305145584487,1.3654615730426385,B,726.0760409990326,Incorrect,sub_016_day_15_data.csv,0,300,157.0,Training at home,,,,,,,,,,,,,
16,18,3946,A,40.90878493549016,70.68253653103615,2.045439246774508,1.1102786875149768,A,592.9132080054842,Correct,sub_016_day_15_data.csv,1,300,157.0,Training at home,,,,,,,,,,,,,
16,18,3947,B,80.10204353129048,59.946033744740014,4.005102176564524,0.9416300961216054,B,654.5024570077658,Correct,sub_016_day_15_data.csv,1,300,157.0,Training at home,,,,,,,,,,,,,
16,18,3948,A,59.48274488303168,77.10101296901988,2.974137244151584,1.211099879639021,A,477.81250000116415,Correct,sub_016_day_15_data.csv,1,300,157.0,Training at home,,,,,,,,,,,,,
16,18,3949,B,72.17556626519813,53.996493889234685,3.6087783132599065,0.8481749426101293,B,568.2732069981284,Correct,sub_016_day_15_data.csv,1,300,157.0,Training at home,,,,,,,,,,,,,
16,18,3950,B,51.10379684274238,29.430062460968745,2.555189842137119,0.4622863401103407,B,621.9003330043051,Correct,sub_016_day_15_data.csv,1,300,158.0,Training at home,,,,,,,,,,,,,
16,18,3951,B,71.77820318053213,54.12012461024676,3.588910159026607,0.8501169294345771,B,657.384958001785,Correct,sub_016_day_15_data.csv,1,300,158.0,Training at home,,,,,,,,,,,,,
16,18,3952,A,26.400506712189028,50.87746551607076,1.3200253356094516,0.7991813594927796,A,561.2920410057995,Correct,sub_016_day_15_data.csv,1,300,158.0,Training at home,,,,,,,,,,,,,
16,18,3953,A,38.06390902751621,65.61445886901971,1.9031954513758107,1.0306695097609098,A,624.8153740016278,Correct,sub_016_day_15_data.csv,1,300,158.0,Training at home,,,,,,,,,,,,,
16,18,3954,A,69.41891112477163,87.5891759886053,3.470945556238582,1.3758475590989294,A,728.5944570030551,Correct,sub_016_day_15_data.csv,1,300,158.0,Training at home,,,,,,,,,,,,,
16,18,3955,B,55.641741890163786,48.43348916567665,2.782087094508189,0.760791468753053,A,706.532791024074,Incorrect,sub_016_day_15_data.csv,0,300,158.0,Training at home,,,,,,,,,,,,,
16,18,3956,A,49.836919848384454,59.67497431173264,2.491845992419223,0.9373723045044944,A,615.8419990097173,Correct,sub_016_day_15_data.csv,1,300,158.0,Training at home,,,,,,,,,,,,,
16,18,3957,B,77.04820051859548,54.50962108043251,3.8524100259297738,0.8562351256812505,B,493.05566601105966,Correct,sub_016_day_15_data.csv,1,300,158.0,Training at home,,,,,,,,,,,,,
16,18,3958,B,60.279469377829066,30.820976541395865,3.0139734688914537,0.4841347673945629,A,761.6903329908382,Incorrect,sub_016_day_15_data.csv,0,300,158.0,Training at home,,,,,,,,,,,,,
16,18,3959,A,38.0343624919322,71.15430082619129,1.90171812459661,1.1176891437344034,A,550.2720410004258,Correct,sub_016_day_15_data.csv,1,300,158.0,Training at home,,,,,,,,,,,,,
16,18,3960,B,46.21791008076619,22.482323733902607,2.3108955040383092,0.3531515153902793,B,682.2773739986587,Correct,sub_016_day_15_data.csv,1,300,158.0,Training at home,,,,,,,,,,,,,
16,18,3961,B,56.432286064206686,48.376643340512715,2.8216143032103345,0.7598985366194415,A,1301.8999159976374,Incorrect,sub_016_day_15_data.csv,0,300,158.0,Training at home,,,,,,,,,,,,,
16,18,3962,B,85.39621150830197,58.96114874191082,4.269810575415098,0.9261595586740106,B,721.0008740075864,Correct,sub_016_day_15_data.csv,1,300,158.0,Training at home,,,,,,,,,,,,,
16,18,3963,A,52.970505159314726,60.23024478811147,2.648525257965736,0.9460944727512296,A,730.875041015679,Correct,sub_016_day_15_data.csv,1,300,158.0,Training at home,,,,,,,,,,,,,
16,18,3964,A,37.19141017253217,69.95552271752791,1.8595705086266088,1.098858781237098,A,541.1042910127435,Correct,sub_016_day_15_data.csv,1,300,158.0,Training at home,,,,,,,,,,,,,
16,18,3965,B,81.68637874030739,64.37510683164714,4.08431893701537,1.0112018134818035,B,678.2242490153294,Correct,sub_016_day_15_data.csv,1,300,158.0,Training at home,,,,,,,,,,,,,
16,18,3966,A,50.99037644813213,59.814971731954216,2.5495188224066068,0.9395713788389428,A,814.7637079819106,Correct,sub_016_day_15_data.csv,1,300,158.0,Training at home,,,,,,,,,,,,,
16,18,3967,B,54.687909579166984,29.36994377802104,2.7343954789583496,0.4613419980468807,B,835.3469989961013,Correct,sub_016_day_15_data.csv,1,300,158.0,Training at home,,,,,,,,,,,,,
16,18,3968,B,50.223668454777666,41.76750522609794,2.5111834227388834,0.6560824378854129,A,728.6911239789333,Incorrect,sub_016_day_15_data.csv,0,300,158.0,Training at home,,,,,,,,,,,,,
16,18,3969,A,60.46003766803814,72.84304871555766,3.023001883401907,1.1442159335493969,A,524.633041000925,Correct,sub_016_day_15_data.csv,1,300,158.0,Training at home,,,,,,,,,,,,,
16,18,3970,B,41.20571696807821,17.69330217779534,2.06028584840391,0.2779257406975306,B,1005.9223319985904,Correct,sub_016_day_15_data.csv,1,300,158.0,Training at home,,,,,,,,,,,,,
16,18,3971,A,44.42471089377061,71.14446585822273,2.221235544688531,1.117534656418812,A,555.5810410005506,Correct,sub_016_day_15_data.csv,1,300,158.0,Training at home,,,,,,,,,,,,,
16,18,3972,B,70.59363339081793,46.25904395032968,3.529681669540896,0.7266353631822153,B,1896.2466660013888,Correct,sub_016_day_15_data.csv,1,300,158.0,Training at home,,,,,,,,,,,,,
16,18,3973,B,77.34624359828983,47.3411879883631,3.867312179914492,0.7436336419822743,B,831.3999579986557,Correct,sub_016_day_15_data.csv,1,300,158.0,Training at home,,,,,,,,,,,,,
16,18,3974,A,59.94687302757673,71.1784250325754,2.997343651378836,1.1180680858821537,A,713.1770000269171,Correct,sub_016_day_15_data.csv,1,300,158.0,Training at home,,,,,,,,,,,,,
16,18,3975,B,57.37891620179582,36.185628348272246,2.8689458100897913,0.5684025209223132,B,3394.4680409913417,Correct,sub_016_day_15_data.csv,1,300,159.0,Training at home,,,,,,,,,,,,,
16,18,3976,A,16.702078028510552,40.42567233482012,0.8351039014255277,0.6350049761174952,A,733.5294990043622,Correct,sub_016_day_15_data.csv,1,300,159.0,Training at home,,,,,,,,,,,,,
16,18,3977,A,33.0500902834564,61.88609790577267,1.6525045141728198,0.9721045527005704,A,636.7864990024827,Correct,sub_016_day_15_data.csv,1,300,159.0,Training at home,,,,,,,,,,,,,
16,18,3978,A,54.70251931935103,66.43573879241958,2.7351259659675513,1.0435701446303791,A,652.9675820202101,Correct,sub_016_day_15_data.csv,1,300,159.0,Training at home,,,,,,,,,,,,,
16,18,3979,B,58.5934499905986,29.488899161463785,2.9296724995299304,0.4632105448405242,B,818.0628329864703,Correct,sub_016_day_15_data.csv,1,300,159.0,Training at home,,,,,,,,,,,,,
16,18,3980,A,45.2235007591811,73.01642483641967,2.2611750379590547,1.146939319287437,A,967.7422489912716,Correct,sub_016_day_15_data.csv,1,300,159.0,Training at home,,,,,,,,,,,,,
16,18,3981,B,78.89818980224754,52.98769943075902,3.944909490112378,0.832328836311483,B,714.1723330132663,Correct,sub_016_day_15_data.csv,1,300,159.0,Training at home,,,,,,,,,,,,,
16,18,3982,B,81.19048873739854,57.556900585210585,4.059524436869927,0.9041016802094785,B,737.0409999857657,Correct,sub_016_day_15_data.csv,1,300,159.0,Training at home,,,,,,,,,,,,,
16,18,3983,B,30.780945993336893,13.925660259279796,1.5390472996668447,0.2187437598347036,B,906.437375000678,Correct,sub_016_day_15_data.csv,1,300,159.0,Training at home,,,,,,,,,,,,,
16,18,3984,B,69.55132465686958,36.22662296615509,3.4775662328434795,0.5690464628742005,B,755.5628319969401,Correct,sub_016_day_15_data.csv,1,300,159.0,Training at home,,,,,,,,,,,,,
16,18,3985,A,12.322483685620234,32.79319657117486,0.6161241842810117,0.5151143271786447,A,617.9296660120599,Correct,sub_016_day_15_data.csv,1,300,159.0,Training at home,,,,,,,,,,,,,
16,18,3986,B,85.58084704494651,60.81211995791543,4.279042352247325,0.9552345465450418,B,1038.191708008526,Correct,sub_016_day_15_data.csv,1,300,159.0,Training at home,,,,,,,,,,,,,
16,18,3987,B,55.51994267384537,28.73441325889514,2.775997133692268,0.4513591079967906,B,722.7308739966247,Correct,sub_016_day_15_data.csv,1,300,159.0,Training at home,,,,,,,,,,,,,
16,18,3988,B,58.40863190704949,47.089391269690864,2.9204315953524747,0.7396784283743808,B,1182.226165983593,Correct,sub_016_day_15_data.csv,1,300,159.0,Training at home,,,,,,,,,,,,,
16,18,3989,B,68.1617036501636,46.26748942126015,3.40808518250818,0.7267680243293719,B,1771.462749020429,Correct,sub_016_day_15_data.csv,1,300,159.0,Training at home,,,,,,,,,,,,,
16,18,3990,A,30.344848374626707,60.93285736391833,1.5172424187313354,0.9571310852836028,A,1073.6653750063851,Correct,sub_016_day_15_data.csv,1,300,159.0,Training at home,,,,,,,,,,,,,
16,18,3991,A,63.386481049774574,88.0348728451585,3.169324052488729,1.3828485489503075,A,557.0565829984844,Correct,sub_016_day_15_data.csv,1,300,159.0,Training at home,,,,,,,,,,,,,
16,18,3992,A,46.0205937235236,59.80450440275713,2.30102968617618,0.9394069584164012,A,605.0601660099346,Correct,sub_016_day_15_data.csv,1,300,159.0,Training at home,,,,,,,,,,,,,
16,18,3993,B,56.29381630169709,25.62262890666822,2.814690815084855,0.4024793136942318,B,876.6323740128428,Correct,sub_016_day_15_data.csv,1,300,159.0,Training at home,,,,,,,,,,,,,
16,18,3994,B,50.32727107444329,19.684050945609265,2.516363553722164,0.3091963492180664,B,647.5987909943797,Correct,sub_016_day_15_data.csv,1,300,159.0,Training at home,,,,,,,,,,,,,
16,18,3995,A,60.48707246257391,76.88118700708068,3.024353623128696,1.2076468615035385,A,750.8158739947248,Correct,sub_016_day_15_data.csv,1,300,159.0,Training at home,,,,,,,,,,,,,
16,18,3996,B,52.6119681236271,22.515054064726193,2.630598406181355,0.3536656422246041,B,795.0873749796301,Correct,sub_016_day_15_data.csv,1,300,159.0,Training at home,,,,,,,,,,,,,
16,18,3997,B,60.88313709215729,30.273601075967637,3.044156854607865,0.4755366136898398,B,550.3977080225013,Correct,sub_016_day_15_data.csv,1,300,159.0,Training at home,,,,,,,,,,,,,
16,18,3998,A,46.753736917083536,57.09637533571674,2.3376868458541766,0.8968677665064659,A,2057.421207020525,Correct,sub_016_day_15_data.csv,1,300,159.0,Training at home,,,,,,,,,,,,,
16,18,3999,B,48.0850301978847,17.48242043097819,2.4042515098942348,0.2746132179646459,B,582.0210819947533,Correct,sub_016_day_15_data.csv,1,300,159.0,Training at home,,,,,,,,,,,,,
16,18,4000,A,44.37339112362979,59.36162536017714,2.2186695561814895,0.9324502306834104,A,901.9138319999912,Correct,sub_016_day_15_data.csv,1,300,160.0,Training at home,,,,,,,,,,,,,
16,18,4001,A,31.734001171739287,49.8978475305612,1.5867000585869644,0.7837935561597733,A,740.6088739808183,Correct,sub_016_day_15_data.csv,1,300,160.0,Training at home,,,,,,,,,,,,,
16,18,4002,B,69.78376595166102,52.97236892842598,3.4891882975830515,0.8320880253439564,B,951.844624010846,Correct,sub_016_day_15_data.csv,1,300,160.0,Training at home,,,,,,,,,,,,,
16,18,4003,B,56.60651307519819,24.63086785929585,2.8303256537599095,0.386900767591524,B,668.5377490066458,Correct,sub_016_day_15_data.csv,1,300,160.0,Training at home,,,,,,,,,,,,,
16,18,4004,B,49.34558031441467,35.77003998629449,2.467279015720733,0.5618744741977796,B,1078.0302080092952,Correct,sub_016_day_15_data.csv,1,300,160.0,Training at home,,,,,,,,,,,,,
16,18,4005,A,63.80748354886965,76.20428482407392,3.1903741774434824,1.197014106876874,A,2080.2611249964684,Correct,sub_016_day_15_data.csv,1,300,160.0,Training at home,,,,,,,,,,,,,
16,18,4006,A,48.22058384659353,63.56463767146197,2.4110291923296763,0.9984709936838096,A,2453.68987400434,Correct,sub_016_day_15_data.csv,1,300,160.0,Training at home,,,,,,,,,,,,,
16,18,4007,A,34.814860124671654,55.05135178166117,1.740743006233583,0.8647446116372705,A,822.1786660142243,Correct,sub_016_day_15_data.csv,1,300,160.0,Training at home,,,,,,,,,,,,,
16,18,4008,B,77.16703483842988,51.39425883931305,3.8583517419214943,0.8072991300313908,B,1050.3316240210552,Correct,sub_016_day_15_data.csv,1,300,160.0,Training at home,,,,,,,,,,,,,
16,18,4009,B,38.46697481876931,12.84544415375585,1.9233487409384653,0.2017757649276866,B,754.004457994597,Correct,sub_016_day_15_data.csv,1,300,160.0,Training at home,,,,,,,,,,,,,
16,18,4010,B,59.22016801365402,50.0676427034091,2.961008400682701,0.7864606924979431,B,668.077665992314,Correct,sub_016_day_15_data.csv,1,300,160.0,Training at home,,,,,,,,,,,,,
16,18,4011,A,54.61666832517655,78.9932155889173,2.730833416258827,1.2408225288878865,A,631.7012080107816,Correct,sub_016_day_15_data.csv,1,300,160.0,Training at home,,,,,,,,,,,,,
16,18,4012,A,41.36845928484383,61.35356249818003,2.0684229642421914,0.9637395060792232,A,628.8344989879988,Correct,sub_016_day_15_data.csv,1,300,160.0,Training at home,,,,,,,,,,,,,
16,18,4013,B,55.441200571632,29.90954076327984,2.7720600285816,0.469817967670822,B,732.5115830171853,Correct,sub_016_day_15_data.csv,1,300,160.0,Training at home,,,,,,,,,,,,,
16,18,4014,A,38.42012953869916,64.80448573461292,1.9210064769349575,1.017946481517623,A,1387.7007910050452,Correct,sub_016_day_15_data.csv,1,300,160.0,Training at home,,,,,,,,,,,,,
16,18,4015,B,43.35164024297236,23.112150384441883,2.167582012148618,0.3630448092821257,B,538.0945819779299,Correct,sub_016_day_15_data.csv,1,300,160.0,Training at home,,,,,,,,,,,,,
16,18,4016,A,34.55829028635195,67.33926117255913,1.7279145143175976,1.0577626409893808,A,563.2217910024337,Correct,sub_016_day_15_data.csv,1,300,160.0,Training at home,,,,,,,,,,,,,
16,18,4017,A,29.62452412182187,45.20099377887577,1.4812262060910937,0.7100155499533704,B,591.2721240019891,Incorrect,sub_016_day_15_data.csv,0,300,160.0,Training at home,,,,,,,,,,,,,
16,18,4018,B,75.78587156515584,59.51238815246948,3.789293578257792,0.9348184070869118,B,559.3655410048086,Correct,sub_016_day_15_data.csv,1,300,160.0,Training at home,,,,,,,,,,,,,
16,18,4019,A,51.47697946950879,61.165849025206455,2.5738489734754397,0.960790909740855,A,418.67158201057464,Correct,sub_016_day_15_data.csv,1,300,160.0,Training at home,,,,,,,,,,,,,
16,18,4020,A,39.02128947148056,62.445818115015214,1.9510644735740277,0.9808966171876812,A,568.786916002864,Correct,sub_016_day_15_data.csv,1,300,160.0,Training at home,,,,,,,,,,,,,
16,18,4021,A,24.297194179193426,37.835074015489496,1.214859708959671,0.5943119528754394,A,1003.8374990108424,Correct,sub_016_day_15_data.csv,1,300,160.0,Training at home,,,,,,,,,,,,,
16,18,4022,B,42.738039717527045,23.941755509569255,2.136901985876352,0.3760762161145286,B,726.4936660067178,Correct,sub_016_day_15_data.csv,1,300,160.0,Training at home,,,,,,,,,,,,,
16,18,4023,B,34.15747226978773,14.5135291549812,1.7078736134893864,0.227977982854751,B,1599.351166019915,Correct,sub_016_day_15_data.csv,1,300,160.0,Training at home,,,,,,,,,,,,,
16,18,4024,A,37.17423000161586,63.45517462203829,1.858711500080793,0.9967515521242648,A,648.8179570005741,Correct,sub_016_day_15_data.csv,1,300,160.0,Training at home,,,,,,,,,,,,,
16,18,4025,A,30.607338787474013,42.92409178492176,1.5303669393737007,0.674250057067621,A,593.1510409864131,Correct,sub_016_day_15_data.csv,1,300,161.0,Training at home,,,,,,,,,,,,,
16,18,4026,B,65.58806645656645,56.71466955271258,3.279403322828323,0.8908719460878729,B,565.8245829981752,Correct,sub_016_day_15_data.csv,1,300,161.0,Training at home,,,,,,,,,,,,,
16,18,4027,B,43.16953579792347,21.261457989160387,2.1584767898961736,0.3339742011167714,B,788.5977079859003,Correct,sub_016_day_15_data.csv,1,300,161.0,Training at home,,,,,,,,,,,,,
16,18,4028,B,44.473666966325624,25.42481095940527,2.223683348316281,0.3993719966448843,B,597.8809160005767,Correct,sub_016_day_15_data.csv,1,300,161.0,Training at home,,,,,,,,,,,,,
16,18,4029,A,32.566224920728956,59.562013025857034,1.6283112460364475,0.9355979127752602,A,891.3056240126025,Correct,sub_016_day_15_data.csv,1,300,161.0,Training at home,,,,,,,,,,,,,
16,18,4030,A,66.58695982751873,78.35146215908482,3.3293479913759363,1.2307418895849978,A,662.2561659896746,Correct,sub_016_day_15_data.csv,1,300,161.0,Training at home,,,,,,,,,,,,,
16,18,4031,B,53.86316056644105,24.52323746412124,2.693158028322052,0.3852101132976064,B,618.0970829736907,Correct,sub_016_day_15_data.csv,1,300,161.0,Training at home,,,,,,,,,,,,,
16,18,4032,A,43.21648165861642,68.31204031138327,2.160824082930821,1.0730430199698575,A,528.1349160068203,Correct,sub_016_day_15_data.csv,1,300,161.0,Training at home,,,,,,,,,,,,,
16,18,4033,B,53.31833755196969,28.30253764642906,2.6659168775984847,0.4445752217398503,B,663.8897500233725,Correct,sub_016_day_15_data.csv,1,300,161.0,Training at home,,,,,,,,,,,,,
16,18,4034,A,30.461778741208775,46.75790751073117,1.5230889370604388,0.7344714936647203,A,994.1417489899322,Correct,sub_016_day_15_data.csv,1,300,161.0,Training at home,,,,,,,,,,,,,
16,18,4035,B,54.098845222765455,36.310845820919766,2.7049422611382727,0.570369432383166,B,833.1124570104294,Correct,sub_016_day_15_data.csv,1,300,161.0,Training at home,,,,,,,,,,,,,
16,18,4036,A,26.118374248135176,53.407772714353456,1.3059187124067588,0.8389273320200311,A,876.8646660028026,Correct,sub_016_day_15_data.csv,1,300,161.0,Training at home,,,,,,,,,,,,,
16,18,4037,B,48.117341433785256,40.77304441145901,2.405867071689263,0.6404614839376498,B,772.5884579995181,Correct,sub_016_day_15_data.csv,1,300,161.0,Training at home,,,,,,,,,,,,,
16,18,4038,B,56.99480088900813,47.2925017401759,2.849740044450407,0.7428688801840957,A,734.4878320000134,Incorrect,sub_016_day_15_data.csv,0,300,161.0,Training at home,,,,,,,,,,,,,
16,18,4039,B,66.33326833804104,50.181530845043,3.3166634169020517,0.7882496432433833,B,769.718331983313,Correct,sub_016_day_15_data.csv,1,300,161.0,Training at home,,,,,,,,,,,,,
16,18,4040,B,55.22203817418762,42.919952863107085,2.7611019087093807,0.6741850430357872,A,1963.2732489844784,Incorrect,sub_016_day_15_data.csv,0,300,161.0,Training at home,,,,,,,,,,,,,
16,18,4041,A,42.33759174232349,69.68927777761104,2.1168795871161747,1.0946766155006062,A,887.2377910010982,Correct,sub_016_day_15_data.csv,1,300,161.0,Training at home,,,,,,,,,,,,,
16,18,4042,B,74.07194626946105,48.23144900443814,3.703597313473052,0.7576178293216681,B,648.9609160053078,Correct,sub_016_day_15_data.csv,1,300,161.0,Training at home,,,,,,,,,,,,,
16,18,4043,A,30.727009421664455,57.29151870156574,1.5363504710832228,0.899933071329206,A,944.4162069994492,Correct,sub_016_day_15_data.csv,1,300,161.0,Training at home,,,,,,,,,,,,,
16,18,4044,B,37.44527037613679,13.38260204688376,1.8722635188068395,0.2102134213820287,B,1090.0729999993928,Correct,sub_016_day_15_data.csv,1,300,161.0,Training at home,,,,,,,,,,,,,
16,18,4045,A,29.07228210449044,41.87388982840462,1.4536141052245222,0.6577535233107217,B,2255.804749991512,Incorrect,sub_016_day_15_data.csv,0,300,161.0,Training at home,,,,,,,,,,,,,
16,18,4046,B,59.78805254760716,48.37431298091566,2.989402627380358,0.75986193141649,A,823.948165983893,Incorrect,sub_016_day_15_data.csv,0,300,161.0,Training at home,,,,,,,,,,,,,
16,18,4047,B,30.408631851388854,13.577166718003795,1.5204315925694427,0.2132696360892228,B,749.1737910022493,Correct,sub_016_day_15_data.csv,1,300,161.0,Training at home,,,,,,,,,,,,,
16,18,4048,A,59.775349748810115,74.08104059219765,2.988767487440506,1.163662264473677,A,672.8058740263805,Correct,sub_016_day_15_data.csv,1,300,161.0,Training at home,,,,,,,,,,,,,
16,18,4049,B,58.193279490581205,49.78581102073071,2.90966397452906,0.7820336907786869,A,858.8214999763295,Incorrect,sub_016_day_15_data.csv,0,300,161.0,Training at home,,,,,,,,,,,,,
16,18,4050,A,36.01397725091528,55.64395368468213,1.800698862545764,0.8740531805624403,A,655.014291027328,Correct,sub_016_day_15_data.csv,1,300,162.0,Training at home,,,,,,,,,,,,,
16,18,4051,A,13.05747392010248,37.48709830666061,0.652873696005124,0.5888459632230169,A,614.3972079735249,Correct,sub_016_day_15_data.csv,1,300,162.0,Training at home,,,,,,,,,,,,,
16,18,4052,A,29.71498016382836,56.53540813317739,1.485749008191418,0.8880561142944537,A,636.1051659914665,Correct,sub_016_day_15_data.csv,1,300,162.0,Training at home,,,,,,,,,,,,,
16,18,4053,A,59.46411764020071,86.2102194479024,2.9732058820100353,1.3541869604094705,A,871.8968330067582,Correct,sub_016_day_15_data.csv,1,300,162.0,Training at home,,,,,,,,,,,,,
16,18,4054,A,38.04655535952408,69.5818835345269,1.902327767976204,1.0929896706750517,A,594.9500830029137,Correct,sub_016_day_15_data.csv,1,300,162.0,Training at home,,,,,,,,,,,,,
16,18,4055,A,26.06440644284104,40.93696152916366,1.303220322142052,0.6430362880015427,B,2505.2674160106108,Incorrect,sub_016_day_15_data.csv,0,300,162.0,Training at home,,,,,,,,,,,,,
16,18,4056,A,56.27905382165797,79.76323960422313,2.813952691082898,1.2529180378357492,A,877.3724990023766,Correct,sub_016_day_15_data.csv,1,300,162.0,Training at home,,,,,,,,,,,,,
16,18,4057,B,77.45685351021024,60.642980265467266,3.872842675510512,0.9525777064689136,B,610.1565830176696,Correct,sub_016_day_15_data.csv,1,300,162.0,Training at home,,,,,,,,,,,,,
16,18,4058,B,42.99987667508864,16.641470440915654,2.149993833754432,0.2614036064105615,B,644.6686660056002,Correct,sub_016_day_15_data.csv,1,300,162.0,Training at home,,,,,,,,,,,,,
16,18,4059,B,61.2032021500759,38.81219857395859,3.060160107503795,0.6096605895480829,B,624.1784160083625,Correct,sub_016_day_15_data.csv,1,300,162.0,Training at home,,,,,,,,,,,,,
16,18,4060,B,81.12370240627835,66.24374980351257,4.056185120313918,1.040554388644777,B,1112.6830000139307,Correct,sub_016_day_15_data.csv,1,300,162.0,Training at home,,,,,,,,,,,,,
16,18,4061,B,66.7517821039544,43.95380299580986,3.33758910519772,0.6904247229448465,B,820.1992500107735,Correct,sub_016_day_15_data.csv,1,300,162.0,Training at home,,,,,,,,,,,,,
16,18,4062,A,52.20574583250013,62.55240381916077,2.610287291625007,0.982570861513288,A,587.3584579967428,Correct,sub_016_day_15_data.csv,1,300,162.0,Training at home,,,,,,,,,,,,,
16,18,4063,A,68.78242632755851,82.71124477844431,3.4391213163779253,1.299225194826139,A,4943.835415993817,Correct,sub_016_day_15_data.csv,1,300,162.0,Training at home,,,,,,,,,,,,,
16,18,4064,A,17.28409280073497,32.54394951298215,0.8642046400367485,0.5111991635439093,A,5240.092666004784,Correct,sub_016_day_15_data.csv,1,300,162.0,Training at home,,,,,,,,,,,,,
16,18,4065,B,39.83405185813899,29.01665253883787,1.9917025929069496,0.4557925122389034,B,3458.1243740103673,Correct,sub_016_day_15_data.csv,1,300,162.0,Training at home,,,,,,,,,,,,,
16,18,4066,A,21.334183641401868,49.0598338759776,1.0667091820700934,0.7706300684555345,A,981.012207979802,Correct,sub_016_day_15_data.csv,1,300,162.0,Training at home,,,,,,,,,,,,,
16,18,4067,B,64.40864716139143,34.353699870690605,3.220432358069571,0.5396266556869511,B,588.0748739873525,Correct,sub_016_day_15_data.csv,1,300,162.0,Training at home,,,,,,,,,,,,,
16,18,4068,A,23.60937571696142,39.842082070254705,1.1804687858480711,0.625837961678169,A,1594.9172069958877,Correct,sub_016_day_15_data.csv,1,300,162.0,Training at home,,,,,,,,,,,,,
16,18,4069,A,43.34648824947946,62.41113384896238,2.167324412473973,0.9803517980105474,A,684.5308329793625,Correct,sub_016_day_15_data.csv,1,300,162.0,Training at home,,,,,,,,,,,,,
16,18,4070,A,48.56614244918227,76.24411673501882,2.4283071224591137,1.1976397850708886,A,646.1545409983955,Correct,sub_016_day_15_data.csv,1,300,162.0,Training at home,,,,,,,,,,,,,
16,18,4071,B,72.46741451205928,50.62629637299402,3.623370725602964,0.795236003819288,B,747.500541008776,Correct,sub_016_day_15_data.csv,1,300,162.0,Training at home,,,,,,,,,,,,,
16,18,4072,B,35.28033284620781,18.8557269333997,1.764016642310391,0.2961850660603184,B,656.7641659930814,Correct,sub_016_day_15_data.csv,1,300,162.0,Training at home,,,,,,,,,,,,,
16,18,4073,B,70.95275174177601,55.26653742908841,3.5476375870888006,0.8681247398828473,B,1103.6401659948751,Correct,sub_016_day_15_data.csv,1,300,162.0,Training at home,,,,,,,,,,,,,
16,18,4074,B,85.16786470946951,68.79023568274178,4.258393235473476,1.08055449529806,B,500.8872500038706,Correct,sub_016_day_15_data.csv,1,300,162.0,Training at home,,,,,,,,,,,,,
16,18,4075,B,59.67373371407489,41.89450837663309,2.9836866857037445,0.6580773987089329,B,821.9424989947584,Correct,sub_016_day_15_data.csv,1,300,163.0,Training at home,,,,,,,,,,,,,
16,18,4076,B,35.215412248913765,16.32517183591735,1.7607706124456883,0.2564351995415447,B,572.842916008085,Correct,sub_016_day_15_data.csv,1,300,163.0,Training at home,,,,,,,,,,,,,
16,18,4077,A,53.16191324819996,73.81809331953045,2.658095662409998,1.159531898373213,A,658.8180830003694,Correct,sub_016_day_15_data.csv,1,300,163.0,Training at home,,,,,,,,,,,,,
16,18,4078,A,27.076539675245467,42.394749149965584,1.3538269837622732,0.66593516240157,A,2149.37016600743,Correct,sub_016_day_15_data.csv,1,300,163.0,Training at home,,,,,,,,,,,,,
16,18,4079,B,73.01005393146971,49.49542428223127,3.6505026965734855,0.777472306556838,B,544.6694159763865,Correct,sub_016_day_15_data.csv,1,300,163.0,Training at home,,,,,,,,,,,,,
16,18,4080,A,35.23744792626026,66.05690961176705,1.7618723963130127,1.0376195097758618,A,604.7811660100706,Correct,sub_016_day_15_data.csv,1,300,163.0,Training at home,,,,,,,,,,,,,
16,18,4081,A,54.95712403769677,75.08742545259982,2.7478562018848383,1.1794705208942942,A,2179.124833026435,Correct,sub_016_day_15_data.csv,1,300,163.0,Training at home,,,,,,,,,,,,,
16,18,4082,B,40.479930523645365,23.354507214825976,2.023996526182268,0.3668517414715355,B,579.2083330161404,Correct,sub_016_day_15_data.csv,1,300,163.0,Training at home,,,,,,,,,,,,,
16,18,4083,A,40.94945276858733,48.448013586532745,2.047472638429366,0.7610196178223488,A,964.6186239842792,Correct,sub_016_day_15_data.csv,1,300,163.0,Training at home,,,,,,,,,,,,,
16,18,4084,A,59.839225691109945,85.44797191215639,2.9919612845554973,1.3422136041168875,A,580.148498993367,Correct,sub_016_day_15_data.csv,1,300,163.0,Training at home,,,,,,,,,,,,,
16,18,4085,A,58.16154301369188,73.02854864354924,2.908077150684594,1.1471297596044958,A,661.7264990054537,Correct,sub_016_day_15_data.csv,1,300,163.0,Training at home,,,,,,,,,,,,,
16,18,4086,B,70.20376433305026,57.917078886757245,3.5101882166525127,0.9097593477400852,A,627.4738750071265,Incorrect,sub_016_day_15_data.csv,0,300,163.0,Training at home,,,,,,,,,,,,,
16,18,4087,A,43.496901935897135,59.25907159492792,2.174845096794857,0.9308393199058856,A,2685.1692910131533,Correct,sub_016_day_15_data.csv,1,300,163.0,Training at home,,,,,,,,,,,,,
16,18,4088,B,74.94122599247902,49.99064493818683,3.747061299623951,0.7852512144301176,B,602.0659159985371,Correct,sub_016_day_15_data.csv,1,300,163.0,Training at home,,,,,,,,,,,,,
16,18,4089,A,42.0102646236856,63.58198763702839,2.10051323118428,0.9987435263056272,A,885.7085829949938,Correct,sub_016_day_15_data.csv,1,300,163.0,Training at home,,,,,,,,,,,,,
16,18,4090,A,63.74634896458046,82.4790872393241,3.1873174482290234,1.2955784727292612,A,1134.348249004688,Correct,sub_016_day_15_data.csv,1,300,163.0,Training at home,,,,,,,,,,,,,
16,18,4091,B,53.477283881134575,45.8772936279898,2.673864194056729,0.7206388431413728,B,5491.38474999927,Correct,sub_016_day_15_data.csv,1,300,163.0,Training at home,,,,,,,,,,,,,
16,18,4092,B,81.22604348073148,59.39928944426846,4.061302174036574,0.9330418567328376,B,1172.197750012856,Correct,sub_016_day_15_data.csv,1,300,163.0,Training at home,,,,,,,,,,,,,
16,18,4093,B,33.680390130027895,16.355857115436283,1.6840195065013948,0.2569172027850948,B,1069.612123974366,Correct,sub_016_day_15_data.csv,1,300,163.0,Training at home,,,,,,,,,,,,,
16,18,4094,A,20.94755086948116,41.69683583368403,1.047377543474058,0.6549723656652069,A,653.709373989841,Correct,sub_016_day_15_data.csv,1,300,163.0,Training at home,,,,,,,,,,,,,
16,18,4095,B,64.17937808885014,50.61673063670055,3.2089689044425076,0.7950857455849593,B,754.2012910125777,Correct,sub_016_day_15_data.csv,1,300,163.0,Training at home,,,,,,,,,,,,,
16,18,4096,B,56.262752221222605,35.13590567425638,2.8131376110611304,0.5519135157173387,B,608.4285830147564,Correct,sub_016_day_15_data.csv,1,300,163.0,Training at home,,,,,,,,,,,,,
16,18,4097,B,31.210747164361575,16.635054943142862,1.5605373582180788,0.2613028320072009,B,649.5044580078684,Correct,sub_016_day_15_data.csv,1,300,163.0,Training at home,,,,,,,,,,,,,
16,18,4098,A,13.666957768307146,35.52502390080803,0.6833478884153572,0.5580257705269016,A,661.2382069870364,Correct,sub_016_day_15_data.csv,1,300,163.0,Training at home,,,,,,,,,,,,,
16,18,4099,A,41.31514522611587,60.16756375271312,2.0657572613057935,0.9451098813495952,A,824.5538740011398,Correct,sub_016_day_15_data.csv,1,300,163.0,Training at home,,,,,,,,,,,,,
16,18,4100,B,76.62059331256762,46.727501410099805,3.831029665628381,0.7339938757528811,B,990.9634990035556,Correct,sub_016_day_15_data.csv,1,300,164.0,Training at home,,,,,,,,,,,,,
16,18,4101,B,38.34665383405711,24.937995425302734,1.9173326917028557,0.3917251161169347,B,1041.3631240080576,Correct,sub_016_day_15_data.csv,1,300,164.0,Training at home,,,,,,,,,,,,,
16,18,4102,B,82.59632210727568,64.53699550913417,4.129816105363784,1.0137447548812668,B,653.693166008452,Correct,sub_016_day_15_data.csv,1,300,164.0,Training at home,,,,,,,,,,,,,
16,18,4103,B,42.75593753294956,26.260210895325223,2.137796876647478,0.4124944281523618,B,680.2108330011833,Correct,sub_016_day_15_data.csv,1,300,164.0,Training at home,,,,,,,,,,,,,
16,18,4104,B,64.32713379392362,44.95252202522468,3.2163566896961813,0.7061125647738962,B,1678.791790996911,Correct,sub_016_day_15_data.csv,1,300,164.0,Training at home,,,,,,,,,,,,,
16,18,4105,A,10.264769826892865,33.718542806207566,0.513238491344643,0.5296496318486733,A,771.2544160021935,Correct,sub_016_day_15_data.csv,1,300,164.0,Training at home,,,,,,,,,,,,,
16,18,4106,A,23.44195805567769,35.95775446406638,1.1720979027838845,0.5648230863194827,A,619.858457997907,Correct,sub_016_day_15_data.csv,1,300,164.0,Training at home,,,,,,,,,,,,,
16,18,4107,B,52.020792652072416,40.40260414106892,2.601039632603621,0.6346426217773933,B,735.2135410183109,Correct,sub_016_day_15_data.csv,1,300,164.0,Training at home,,,,,,,,,,,,,
16,18,4108,A,26.397928202841378,38.82742176092866,1.3198964101420687,0.6098997148098297,A,1290.248416014947,Correct,sub_016_day_15_data.csv,1,300,164.0,Training at home,,,,,,,,,,,,,
16,18,4109,B,49.57488568369378,34.62862034360583,2.478744284184689,0.5439450963771106,B,1001.6387079958804,Correct,sub_016_day_15_data.csv,1,300,164.0,Training at home,,,,,,,,,,,,,
16,18,4110,B,46.51579768188189,28.613821891951854,2.3257898840940947,0.4494648632344137,B,1687.7174990077035,Correct,sub_016_day_15_data.csv,1,300,164.0,Training at home,,,,,,,,,,,,,
16,18,4111,B,42.344193593965144,29.22744688428549,2.117209679698257,0.459103662074286,B,849.6719579852652,Correct,sub_016_day_15_data.csv,1,300,164.0,Training at home,,,,,,,,,,,,,
16,18,4112,B,68.55225977706971,39.21723916039291,3.427612988853485,0.6160229522018216,B,725.9361239848658,Correct,sub_016_day_15_data.csv,1,300,164.0,Training at home,,,,,,,,,,,,,
16,18,4113,A,31.434976680454863,55.10503872252304,1.5717488340227432,0.8655879241322973,A,841.1151659965981,Correct,sub_016_day_15_data.csv,1,300,164.0,Training at home,,,,,,,,,,,,,
16,18,4114,B,45.393620619826905,29.91780399216081,2.269681030991345,0.469947766166559,B,3131.9634999963455,Correct,sub_016_day_15_data.csv,1,300,164.0,Training at home,,,,,,,,,,,,,
16,18,4115,B,30.985704731484567,15.87259782620598,1.5492852365742282,0.2493261836209701,B,577.1831659949385,Correct,sub_016_day_15_data.csv,1,300,164.0,Training at home,,,,,,,,,,,,,
16,18,4116,B,54.61928777441299,33.33176152325929,2.730964388720649,0.5235740856633916,B,533.1556659948546,Correct,sub_016_day_15_data.csv,1,300,164.0,Training at home,,,,,,,,,,,,,
16,18,4117,B,51.13121736029329,25.533199495617357,2.5565608680146648,0.4010745597903705,B,882.5493330077734,Correct,sub_016_day_15_data.csv,1,300,164.0,Training at home,,,,,,,,,,,,,
16,18,4118,A,60.34320079629708,72.75426642515022,3.017160039814854,1.1428213445928324,A,761.0333749908023,Correct,sub_016_day_15_data.csv,1,300,164.0,Training at home,,,,,,,,,,,,,
16,18,4119,A,33.499250660401295,66.18259235177081,1.6749625330200646,1.039593729639256,A,1116.79716600338,Correct,sub_016_day_15_data.csv,1,300,164.0,Training at home,,,,,,,,,,,,,
16,18,4120,A,66.72929163979062,83.56387824998043,3.336464581989531,1.312618330078052,A,10386.249291012064,Correct,sub_016_day_15_data.csv,1,300,164.0,Training at home,,,,,,,,,,,,,
16,18,4121,B,57.56100442133661,33.10528766703078,2.8780502210668306,0.5200166426486034,B,594.2677909915801,Correct,sub_016_day_15_data.csv,1,300,164.0,Training at home,,,,,,,,,,,,,
16,18,4122,B,63.55161643359182,32.5298864336999,3.1775808216795904,0.5109782612111093,B,5576.033749006456,Correct,sub_016_day_15_data.csv,1,300,164.0,Training at home,,,,,,,,,,,,,
16,18,4123,B,47.29841370912574,23.519207089795348,2.364920685456287,0.3694388410577902,B,599.4915410119575,Correct,sub_016_day_15_data.csv,1,300,164.0,Training at home,,,,,,,,,,,,,
16,18,4124,B,30.24290879923129,13.787033753375482,1.5121454399615646,0.2165662197719946,A,798.0342909868341,Incorrect,sub_016_day_15_data.csv,0,300,164.0,Training at home,,,,,,,,,,,,,
16,18,4125,B,76.54700935236954,55.39666919247766,3.827350467618477,0.8701688448421591,B,982.4084989959374,Correct,sub_016_day_15_data.csv,1,300,165.0,Training at home,,,,,,,,,,,,,
16,18,4126,A,35.87027243578858,63.54744002426186,1.793513621789429,0.9982008536732953,A,680.1626659871545,Correct,sub_016_day_15_data.csv,1,300,165.0,Training at home,,,,,,,,,,,,,
16,18,4127,A,50.07152418414423,72.65118613305728,2.503576209207212,1.141202163150987,A,541.0907080222387,Correct,sub_016_day_15_data.csv,1,300,165.0,Training at home,,,,,,,,,,,,,
16,18,4128,A,30.700438209156115,56.47981685601027,1.5350219104578056,0.8871828885546942,A,516.8914579844568,Correct,sub_016_day_15_data.csv,1,300,165.0,Training at home,,,,,,,,,,,,,
16,18,4129,A,47.89191604034998,72.10242366565355,2.3945958020174993,1.1325822224701805,A,560.3278750204481,Correct,sub_016_day_15_data.csv,1,300,165.0,Training at home,,,,,,,,,,,,,
16,18,4130,A,69.2500459227955,89.1441837265475,3.4625022961397747,1.400273563527902,A,1104.2904570058454,Correct,sub_016_day_15_data.csv,1,300,165.0,Training at home,,,,,,,,,,,,,
16,18,4131,B,78.91429276143874,64.41428672729447,3.9457146380719377,1.011817249843474,B,675.0748330086935,Correct,sub_016_day_15_data.csv,1,300,165.0,Training at home,,,,,,,,,,,,,
16,18,4132,B,50.78422558238165,19.879357148768047,2.5392112791190824,0.3122642118832871,B,775.3191660158336,Correct,sub_016_day_15_data.csv,1,300,165.0,Training at home,,,,,,,,,,,,,
16,18,4133,B,53.749192781748306,21.71060062214147,2.6874596390874155,0.3410293170977082,B,727.0957909931894,Correct,sub_016_day_15_data.csv,1,300,165.0,Training at home,,,,,,,,,,,,,
16,18,4134,A,68.90686001576327,88.63148887597191,3.445343000788164,1.392220171647394,A,2018.6481249984352,Correct,sub_016_day_15_data.csv,1,300,165.0,Training at home,,,,,,,,,,,,,
16,18,4135,A,44.10712901398494,74.12759253833313,2.205356450699247,1.1643935007336248,A,874.1636660124641,Correct,sub_016_day_15_data.csv,1,300,165.0,Training at home,,,,,,,,,,,,,
16,18,4136,A,39.77020326979074,71.6976652083888,1.988510163489537,1.1262242914910736,A,530.5516249791253,Correct,sub_016_day_15_data.csv,1,300,165.0,Training at home,,,,,,,,,,,,,
16,18,4137,A,47.260404093671994,74.14518270549219,2.3630202046835995,1.1646698064332364,A,551.1239159968682,Correct,sub_016_day_15_data.csv,1,300,165.0,Training at home,,,,,,,,,,,,,
16,18,4138,B,66.57282884941908,43.221551302353625,3.328641442470954,0.6789225402411426,B,584.4592080102302,Correct,sub_016_day_15_data.csv,1,300,165.0,Training at home,,,,,,,,,,,,,
16,18,4139,B,63.02952362794629,32.72356672698968,3.1514761813973142,0.5140205841438308,B,628.7739989929833,Correct,sub_016_day_15_data.csv,1,300,165.0,Training at home,,,,,,,,,,,,,
16,18,4140,A,55.3967280847388,63.63344754999235,2.76983640423694,0.9995518567282368,B,2364.4839159969706,Incorrect,sub_016_day_15_data.csv,0,300,165.0,Training at home,,,,,,,,,,,,,
16,18,4141,B,37.94809444953253,25.82769584827969,1.8974047224766264,0.4057004976805354,A,1453.935165976873,Incorrect,sub_016_day_15_data.csv,0,300,165.0,Training at home,,,,,,,,,,,,,
16,18,4142,A,24.76642479760484,48.87146086505452,1.238321239880242,0.7676711121192817,A,636.5437079803087,Correct,sub_016_day_15_data.csv,1,300,165.0,Training at home,,,,,,,,,,,,,
16,18,4143,A,68.11887153246484,82.0959819592312,3.4059435766232418,1.2895606690618049,A,969.2539160023445,Correct,sub_016_day_15_data.csv,1,300,165.0,Training at home,,,,,,,,,,,,,
16,18,4144,A,52.35863588872137,80.48445969501665,2.6179317944360685,1.2642469365300404,A,731.978750001872,Correct,sub_016_day_15_data.csv,1,300,165.0,Training at home,,,,,,,,,,,,,
16,18,4145,A,22.70900619205521,41.71649554612257,1.1354503096027606,0.6552811797060499,A,858.4390830073971,Correct,sub_016_day_15_data.csv,1,300,165.0,Training at home,,,,,,,,,,,,,
16,18,4146,B,53.958920066524485,43.069803264152355,2.697946003326224,0.6765388876310936,B,671.7730409873184,Correct,sub_016_day_15_data.csv,1,300,165.0,Training at home,,,,,,,,,,,,,
16,18,4147,A,33.37717285551913,59.89341635722501,1.6688586427759562,0.940803584131264,A,1240.15133199282,Correct,sub_016_day_15_data.csv,1,300,165.0,Training at home,,,,,,,,,,,,,
16,18,4148,A,32.53019255362574,41.60731790542067,1.626509627681287,0.6535662213362232,A,1232.5864569866098,Correct,sub_016_day_15_data.csv,1,300,165.0,Training at home,,,,,,,,,,,,,
16,18,4149,A,24.169505891323556,48.09114151753566,1.208475294566178,0.7554138844711857,A,910.6010409886948,Correct,sub_016_day_15_data.csv,1,300,165.0,Training at home,,,,,,,,,,,,,
16,18,4150,B,64.62413020259214,31.987071568037333,3.2312065101296072,0.5024517452399851,B,695.952206995571,Correct,sub_016_day_15_data.csv,1,300,166.0,Training at home,,,,,,,,,,,,,
16,18,4151,B,78.8746141694828,49.24208758367858,3.94373070847414,0.773492903001549,B,2650.207375001628,Correct,sub_016_day_15_data.csv,1,300,166.0,Training at home,,,,,,,,,,,,,
16,18,4152,A,36.57451965303786,68.5241918463054,1.8287259826518931,1.076375488487653,A,973.0369159951806,Correct,sub_016_day_15_data.csv,1,300,166.0,Training at home,,,,,,,,,,,,,
16,18,4153,A,46.68629320764832,64.52512586429162,2.334314660382416,1.0135583069360763,A,1719.3706239922903,Correct,sub_016_day_15_data.csv,1,300,166.0,Training at home,,,,,,,,,,,,,
16,18,4154,B,35.35050406696933,13.096356005049294,1.7675252033484663,0.2057170790712972,B,992.5556660164148,Correct,sub_016_day_15_data.csv,1,300,166.0,Training at home,,,,,,,,,,,,,
16,18,4155,A,47.65683530816998,58.91758790633751,2.382841765408499,0.925475306668904,A,694.0117909980472,Correct,sub_016_day_15_data.csv,1,300,166.0,Training at home,,,,,,,,,,,,,
16,18,4156,B,66.66153913700072,46.05822942379675,3.333076956850036,0.7234809759757656,B,577.1680409961846,Correct,sub_016_day_15_data.csv,1,300,166.0,Training at home,,,,,,,,,,,,,
16,18,4157,B,51.52978517894495,29.131277870065936,2.5764892589472477,0.4575930427314104,B,1490.8311240142211,Correct,sub_016_day_15_data.csv,1,300,166.0,Training at home,,,,,,,,,,,,,
16,18,4158,A,29.846429318534035,52.35289091778672,1.4923214659267017,0.8223572875075328,A,618.9817079866771,Correct,sub_016_day_15_data.csv,1,300,166.0,Training at home,,,,,,,,,,,,,
16,18,4159,B,77.94474801056964,66.58169027297296,3.897237400528482,1.0458627451258142,A,946.351416001562,Incorrect,sub_016_day_15_data.csv,0,300,166.0,Training at home,,,,,,,,,,,,,
16,18,4160,A,16.842266273846104,32.48263583934108,0.8421133136923052,0.5102360506105322,A,497.4971239862498,Correct,sub_016_day_15_data.csv,1,300,166.0,Training at home,,,,,,,,,,,,,
16,18,4161,A,22.17326921985785,44.33606694734804,1.1086634609928925,0.6964293110542692,A,632.6276659965515,Correct,sub_016_day_15_data.csv,1,300,166.0,Training at home,,,,,,,,,,,,,
16,18,4162,A,44.580371736952024,53.915430028693834,2.229018586847601,0.8469015944663955,A,1895.5697909987064,Correct,sub_016_day_15_data.csv,1,300,166.0,Training at home,,,,,,,,,,,,,
16,18,4163,B,76.20248404740032,47.565031403353416,3.810124202370016,0.7471497661227144,B,597.7954579866491,Correct,sub_016_day_15_data.csv,1,300,166.0,Training at home,,,,,,,,,,,,,
16,18,4164,B,77.91087577036276,46.318292572056826,3.895543788518138,0.7275660383559821,B,549.8495409847237,Correct,sub_016_day_15_data.csv,1,300,166.0,Training at home,,,,,,,,,,,,,
16,18,4165,A,57.53389761016267,85.78924568055899,2.8766948805081336,1.34757431993527,A,806.2020819925237,Correct,sub_016_day_15_data.csv,1,300,166.0,Training at home,,,,,,,,,,,,,
16,18,4166,B,48.24684112633676,36.87759743921805,2.412342056316838,0.5792719459854461,B,652.0207500143442,Correct,sub_016_day_15_data.csv,1,300,166.0,Training at home,,,,,,,,,,,,,
16,18,4167,B,30.7659118618678,10.908081241179769,1.53829559309339,0.1713437394602549,B,748.7042080028914,Correct,sub_016_day_15_data.csv,1,300,166.0,Training at home,,,,,,,,,,,,,
16,18,4168,B,68.31275629019913,52.02817442510715,3.415637814509956,0.817256652768025,B,609.054124011891,Correct,sub_016_day_15_data.csv,1,300,166.0,Training at home,,,,,,,,,,,,,
16,18,4169,B,53.48303024181662,41.12944474163879,2.674151512090831,0.6460598072327989,B,532.6799990143627,Correct,sub_016_day_15_data.csv,1,300,166.0,Training at home,,,,,,,,,,,,,
16,18,4170,B,54.502727528817466,29.35070040835319,2.7251363764408736,0.4610397239029866,B,599.082456988981,Correct,sub_016_day_15_data.csv,1,300,166.0,Training at home,,,,,,,,,,,,,
16,18,4171,B,45.79202247045871,26.491554680191012,2.2896011235229357,0.4161283678273019,B,608.0561660055537,Correct,sub_016_day_15_data.csv,1,300,166.0,Training at home,,,,,,,,,,,,,
16,18,4172,A,31.10970143622167,50.47451159948082,1.5554850718110833,0.7928517741723089,A,668.4865829884075,Correct,sub_016_day_15_data.csv,1,300,166.0,Training at home,,,,,,,,,,,,,
16,18,4173,A,32.93190360290252,53.82668216982413,1.6465951801451262,0.8455075463591609,A,967.7792489819694,Correct,sub_016_day_15_data.csv,1,300,166.0,Training at home,,,,,,,,,,,,,
16,18,4174,B,37.76923452789275,13.693753795115557,1.8884617263946375,0.2151009816140118,B,1110.7653329963796,Correct,sub_016_day_15_data.csv,1,300,166.0,Training at home,,,,,,,,,,,,,
16,18,4175,B,66.87298003204721,49.5906121238097,3.343649001602361,0.7789675136759074,A,726.1770000040997,Incorrect,sub_016_day_15_data.csv,0,300,167.0,Training at home,,,,,,,,,,,,,
16,18,4176,B,35.0744428254541,22.419134048321965,1.7537221412727049,0.3521589341302654,B,996.4995830086992,Correct,sub_016_day_15_data.csv,1,300,167.0,Training at home,,,,,,,,,,,,,
16,18,4177,A,45.16520011096518,67.2251007594846,2.258260005548259,1.0559694134141524,B,2191.7081660067197,Incorrect,sub_016_day_15_data.csv,0,300,167.0,Training at home,,,,,,,,,,,,,
16,18,4178,A,34.73545415469508,56.40157341628279,1.736772707734754,0.8859538434774967,A,515.0045409973245,Correct,sub_016_day_15_data.csv,1,300,167.0,Training at home,,,,,,,,,,,,,
16,18,4179,A,45.319411954576395,62.63019088167099,2.2659705977288196,0.9837927378339202,A,579.8683330067433,Correct,sub_016_day_15_data.csv,1,300,167.0,Training at home,,,,,,,,,,,,,
16,18,4180,A,43.43386937579145,59.68600118101301,2.171693468789573,0.937545514162111,A,526.8900819937699,Correct,sub_016_day_15_data.csv,1,300,167.0,Training at home,,,,,,,,,,,,,
16,18,4181,B,43.468836324467375,35.18022511446221,2.1734418162233684,0.5526096838561481,A,595.1437490002718,Incorrect,sub_016_day_15_data.csv,0,300,167.0,Training at home,,,,,,,,,,,,,
16,18,4182,A,29.803775740017752,62.61248897348528,1.4901887870008874,0.9835146769103664,A,550.7050819869619,Correct,sub_016_day_15_data.csv,1,300,167.0,Training at home,,,,,,,,,,,,,
16,18,4183,A,49.08804944557764,73.11437520382557,2.4544024722788818,1.148477920060731,A,660.5632489954587,Correct,sub_016_day_15_data.csv,1,300,167.0,Training at home,,,,,,,,,,,,,
16,18,4184,A,48.288468290400175,67.01761029712888,2.4144234145200087,1.052710160853019,A,553.097082010936,Correct,sub_016_day_15_data.csv,1,300,167.0,Training at home,,,,,,,,,,,,,
16,18,4185,A,43.674657703798694,65.0596468500558,2.1837328851899347,1.021954542946408,A,545.3445820021443,Correct,sub_016_day_15_data.csv,1,300,167.0,Training at home,,,,,,,,,,,,,
16,18,4186,B,42.40525051211671,32.859783063120936,2.1202625256058356,0.5161602653482752,B,758.7399990006816,Correct,sub_016_day_15_data.csv,1,300,167.0,Training at home,,,,,,,,,,,,,
16,18,4187,A,34.55747321413382,61.295604727733085,1.7278736607066911,0.9628291075499504,B,152.78658299939707,Incorrect,sub_016_day_15_data.csv,0,300,167.0,Training at home,,,,,,,,,,,,,
16,18,4188,B,59.16329282680639,41.96522204498615,2.9581646413403195,0.6591881664139646,B,644.2833750043064,Correct,sub_016_day_15_data.csv,1,300,167.0,Training at home,,,,,,,,,,,,,
16,18,4189,B,37.6603454619843,14.534263842009256,1.883017273099215,0.2283036825569602,B,680.736332986271,Correct,sub_016_day_15_data.csv,1,300,167.0,Training at home,,,,,,,,,,,,,
16,18,4190,A,46.75661987581825,61.81445647746984,2.3378309937909125,0.9709792117763262,A,469.224956992548,Correct,sub_016_day_15_data.csv,1,300,167.0,Training at home,,,,,,,,,,,,,
16,18,4191,B,71.40009296666265,40.21474986904018,3.570004648333133,0.6316918137726386,B,606.7823740013409,Correct,sub_016_day_15_data.csv,1,300,167.0,Training at home,,,,,,,,,,,,,
16,18,4192,A,40.932405773281396,52.901934694281515,2.04662028866407,0.8309816469812091,A,569.392915989738,Correct,sub_016_day_15_data.csv,1,300,167.0,Training at home,,,,,,,,,,,,,
16,18,4193,A,33.16427429015513,62.99119551630477,1.6582137145077565,0.9894633853743068,A,582.814708002843,Correct,sub_016_day_15_data.csv,1,300,167.0,Training at home,,,,,,,,,,,,,
16,18,4194,B,54.132719003370504,33.35630855754293,2.706635950168525,0.5239596695762561,B,1347.3526239977218,Correct,sub_016_day_15_data.csv,1,300,167.0,Training at home,,,,,,,,,,,,,
16,18,4195,A,42.40120747909917,53.24995147389983,2.1200603739549586,0.8364482817720833,A,941.0683320020324,Correct,sub_016_day_15_data.csv,1,300,167.0,Training at home,,,,,,,,,,,,,
16,18,4196,B,59.14835001872503,26.733714564206764,2.9574175009362516,0.4199322063903921,B,610.3570820123423,Correct,sub_016_day_15_data.csv,1,300,167.0,Training at home,,,,,,,,,,,,,
16,18,4197,A,53.74887178790016,80.43723963555624,2.687443589395008,1.263505205570526,A,699.8083740181755,Correct,sub_016_day_15_data.csv,1,300,167.0,Training at home,,,,,,,,,,,,,
16,18,4198,A,46.04809209363298,68.77107201721188,2.3024046046816493,1.0802534731438371,A,708.3316660136916,Correct,sub_016_day_15_data.csv,1,300,167.0,Training at home,,,,,,,,,,,,,
16,18,4199,B,44.81946445455699,16.042161276900963,2.24097322272785,0.2519896800760736,B,538.7783320038579,Correct,sub_016_day_15_data.csv,1,300,167.0,Training at home,,,,,,,,,,,,,
