subject,day,trial,cat,x,y,xt,yt,resp,rt,fb,f_name,acc,n_trials,block,session_type,ns_left_digit,ns_right_digit,ns_left_size,ns_right_size,ns_congruent,ns_cue,ns_correct_side,ns_resp,ns_rt,ns_fb,acc_stroop,acc_stroop_mean,resp_key
16,7,1200,B,33.78487483150042,11.44758412443172,1.6892437415750208,0.1798182309333292,B,2110.0142499926733,Correct,sub_016_day_06_data.csv,1,300,48.0,Training at home,,,,,,,,,,,,,
16,7,1201,B,45.68994191829276,20.907082889198513,2.284497095914638,0.3284076900634946,B,1163.2502489956096,Correct,sub_016_day_06_data.csv,1,300,48.0,Training at home,,,,,,,,,,,,,
16,7,1202,A,52.153109656427944,61.32704848859396,2.607655482821398,0.963323024990559,A,767.856207996374,Correct,sub_016_day_06_data.csv,1,300,48.0,Training at home,,,,,,,,,,,,,
16,7,1203,A,53.76842887805843,63.59804771100339,2.6884214439029215,0.9989957973577068,A,580.3110420092707,Correct,sub_016_day_06_data.csv,1,300,48.0,Training at home,,,,,,,,,,,,,
16,7,1204,B,45.588628287439654,26.01755199472788,2.2794314143719827,0.4086827510551378,B,1507.6767499995185,Correct,sub_016_day_06_data.csv,1,300,48.0,Training at home,,,,,,,,,,,,,
16,7,1205,A,56.15893948473343,82.54843487610677,2.8079469742366716,1.2966677828605622,A,612.1931250090711,Correct,sub_016_day_06_data.csv,1,300,48.0,Training at home,,,,,,,,,,,,,
16,7,1206,A,28.550409168547503,59.99862854552567,1.427520458427375,0.9424562533204316,A,531.6066249943106,Correct,sub_016_day_06_data.csv,1,300,48.0,Training at home,,,,,,,,,,,,,
16,7,1207,A,25.967385610360665,42.985708907354024,1.2983692805180334,0.6752179365634636,A,680.3563330031466,Correct,sub_016_day_06_data.csv,1,300,48.0,Training at home,,,,,,,,,,,,,
16,7,1208,B,51.425953334405776,22.635384706365805,2.571297666720289,0.3555557915234878,B,707.6604579924606,Correct,sub_016_day_06_data.csv,1,300,48.0,Training at home,,,,,,,,,,,,,
16,7,1209,A,42.67519427307779,52.277476455597366,2.1337597136538897,0.8211726799055904,A,551.799791996018,Correct,sub_016_day_06_data.csv,1,300,48.0,Training at home,,,,,,,,,,,,,
16,7,1210,B,72.15114915508725,59.98524304591001,3.6075574577543623,0.9422459943841456,A,1479.9604580039158,Incorrect,sub_016_day_06_data.csv,0,300,48.0,Training at home,,,,,,,,,,,,,
16,7,1211,B,50.41673106913852,41.744670432596095,2.5208365534569257,0.6557237497878547,A,3525.565957999788,Incorrect,sub_016_day_06_data.csv,0,300,48.0,Training at home,,,,,,,,,,,,,
16,7,1212,B,38.221283136539085,29.25928874385439,1.9110641568269544,0.4596038328347774,B,710.8109580003656,Correct,sub_016_day_06_data.csv,1,300,48.0,Training at home,,,,,,,,,,,,,
16,7,1213,A,58.62323286177306,76.87440897124802,2.9311616430886533,1.2075403923656505,A,543.1588330102386,Correct,sub_016_day_06_data.csv,1,300,48.0,Training at home,,,,,,,,,,,,,
16,7,1214,B,67.56757724840259,49.14503931600758,3.378378862420129,0.7719684723777547,B,1206.1943330045324,Correct,sub_016_day_06_data.csv,1,300,48.0,Training at home,,,,,,,,,,,,,
16,7,1215,A,52.61697211838717,59.49318839381105,2.630848605919358,0.9345168179831518,B,2575.293123998563,Incorrect,sub_016_day_06_data.csv,0,300,48.0,Training at home,,,,,,,,,,,,,
16,7,1216,A,67.21046046878207,82.32475769910448,3.3605230234391037,1.293154269980332,A,596.282540995162,Correct,sub_016_day_06_data.csv,1,300,48.0,Training at home,,,,,,,,,,,,,
16,7,1217,A,34.34238053423781,44.87650656365287,1.7171190267118903,0.7049185166957298,A,442.1658750070492,Correct,sub_016_day_06_data.csv,1,300,48.0,Training at home,,,,,,,,,,,,,
16,7,1218,A,61.14325028481972,82.0893611666679,3.057162514240986,1.2894566698954155,A,494.23170801310334,Correct,sub_016_day_06_data.csv,1,300,48.0,Training at home,,,,,,,,,,,,,
16,7,1219,A,52.441639008526685,69.37942966719774,2.622081950426334,1.0898095327635906,A,592.2149580001133,Correct,sub_016_day_06_data.csv,1,300,48.0,Training at home,,,,,,,,,,,,,
16,7,1220,B,68.3983571060171,55.387636307783666,3.419917855300855,0.8700269566211823,B,1359.279208001681,Correct,sub_016_day_06_data.csv,1,300,48.0,Training at home,,,,,,,,,,,,,
16,7,1221,A,49.454652232917184,72.58214277994172,2.472732611645859,1.1401176326963518,A,611.6085420071613,Correct,sub_016_day_06_data.csv,1,300,48.0,Training at home,,,,,,,,,,,,,
16,7,1222,B,62.409729202756886,29.325566393192343,3.1204864601378444,0.4606449197160639,B,762.1917910000775,Correct,sub_016_day_06_data.csv,1,300,48.0,Training at home,,,,,,,,,,,,,
16,7,1223,A,66.33333420410443,77.95116311382519,3.3166667102052214,1.2244540068858645,A,668.5321239929181,Correct,sub_016_day_06_data.csv,1,300,48.0,Training at home,,,,,,,,,,,,,
16,7,1224,B,68.83417301783338,55.03167581700743,3.441708650891669,0.8644355423072281,B,1228.193916991586,Correct,sub_016_day_06_data.csv,1,300,48.0,Training at home,,,,,,,,,,,,,
16,7,1225,B,73.56072969152594,51.56965564222759,3.678036484576297,0.810054256568888,B,683.9202910050517,Correct,sub_016_day_06_data.csv,1,300,49.0,Training at home,,,,,,,,,,,,,
16,7,1226,B,37.18565205588231,12.69066604465748,1.8592826027941152,0.1993445160752869,B,897.9574580007466,Correct,sub_016_day_06_data.csv,1,300,49.0,Training at home,,,,,,,,,,,,,
16,7,1227,A,24.763996841551325,55.26859624004769,1.2381998420775662,0.8681570796097715,A,1321.4490829996066,Correct,sub_016_day_06_data.csv,1,300,49.0,Training at home,,,,,,,,,,,,,
16,7,1228,B,71.71428090330083,53.73628341050781,3.5857140451650418,0.8440875659683521,B,1830.05029099877,Correct,sub_016_day_06_data.csv,1,300,49.0,Training at home,,,,,,,,,,,,,
16,7,1229,B,45.12827390098843,28.77266027818779,2.256413695049422,0.451959890770948,B,1054.2784160061274,Correct,sub_016_day_06_data.csv,1,300,49.0,Training at home,,,,,,,,,,,,,
16,7,1230,B,85.72311413796305,68.44896046879154,4.286155706898153,1.0751937567730685,B,575.3736670012586,Correct,sub_016_day_06_data.csv,1,300,49.0,Training at home,,,,,,,,,,,,,
16,7,1231,A,47.819507792506,56.276070276788104,2.3909753896253,0.8839824447723021,A,835.9928330028197,Correct,sub_016_day_06_data.csv,1,300,49.0,Training at home,,,,,,,,,,,,,
16,7,1232,B,43.15980212507836,15.49939740085599,2.157990106253918,0.2434639650479895,B,667.910167001537,Correct,sub_016_day_06_data.csv,1,300,49.0,Training at home,,,,,,,,,,,,,
16,7,1233,B,79.1815485753251,54.167564811327765,3.959077428766255,0.8508621183705815,B,746.8289999960689,Correct,sub_016_day_06_data.csv,1,300,49.0,Training at home,,,,,,,,,,,,,
16,7,1234,A,39.282739343969595,60.23226682827655,1.9641369671984796,0.946126234883869,A,1203.593373997137,Correct,sub_016_day_06_data.csv,1,300,49.0,Training at home,,,,,,,,,,,,,
16,7,1235,A,51.8435058960465,79.48066819796254,2.592175294802325,1.2484794165656352,A,691.7477079987293,Correct,sub_016_day_06_data.csv,1,300,49.0,Training at home,,,,,,,,,,,,,
16,7,1236,A,24.64472183797727,53.64313739722685,1.2322360918988635,0.8426244318131789,A,726.5520410001045,Correct,sub_016_day_06_data.csv,1,300,49.0,Training at home,,,,,,,,,,,,,
16,7,1237,A,32.91564964951835,51.51073191590906,1.6457824824759175,0.809128684840266,A,734.0317080088425,Correct,sub_016_day_06_data.csv,1,300,49.0,Training at home,,,,,,,,,,,,,
16,7,1238,B,57.44666334061693,38.357580335735456,2.8723331670308467,0.6025194629611341,B,3299.1154170013033,Correct,sub_016_day_06_data.csv,1,300,49.0,Training at home,,,,,,,,,,,,,
16,7,1239,B,46.644685771075615,36.199497709807574,2.332234288553781,0.5686203803438602,B,1925.323916992056,Correct,sub_016_day_06_data.csv,1,300,49.0,Training at home,,,,,,,,,,,,,
16,7,1240,A,43.906128480739625,56.49586403086078,2.195306424036981,0.8874349569878002,A,2208.7405000056606,Correct,sub_016_day_06_data.csv,1,300,49.0,Training at home,,,,,,,,,,,,,
16,7,1241,B,59.53163916031133,33.940080832523684,2.9765819580155664,0.5331295430285008,B,3871.555292003905,Correct,sub_016_day_06_data.csv,1,300,49.0,Training at home,,,,,,,,,,,,,
16,7,1242,B,65.54854089101585,38.63346015568344,3.2774270445507923,0.6068529730392453,B,778.0660829885164,Correct,sub_016_day_06_data.csv,1,300,49.0,Training at home,,,,,,,,,,,,,
16,7,1243,B,47.0819756695624,26.4069794988676,2.35409878347812,0.4147998639856937,B,1216.4999579981668,Correct,sub_016_day_06_data.csv,1,300,49.0,Training at home,,,,,,,,,,,,,
16,7,1244,B,77.24115040297099,62.78738665089319,3.8620575201485496,0.9862619632027396,A,854.5252500043716,Incorrect,sub_016_day_06_data.csv,0,300,49.0,Training at home,,,,,,,,,,,,,
16,7,1245,B,34.491200331266526,15.773830343407134,1.7245600165633264,0.2477747476290981,A,1773.9807079924503,Incorrect,sub_016_day_06_data.csv,0,300,49.0,Training at home,,,,,,,,,,,,,
16,7,1246,A,33.56821086195231,50.28797309619271,1.6784105430976155,0.7899216342146009,A,726.610083002015,Correct,sub_016_day_06_data.csv,1,300,49.0,Training at home,,,,,,,,,,,,,
16,7,1247,A,26.260765463025827,49.86322744517277,1.3130382731512913,0.7832497451301587,A,628.2482079986949,Correct,sub_016_day_06_data.csv,1,300,49.0,Training at home,,,,,,,,,,,,,
16,7,1248,A,35.38061193614489,64.00139727980073,1.7690305968072442,1.0053315975685186,A,632.2299989988096,Correct,sub_016_day_06_data.csv,1,300,49.0,Training at home,,,,,,,,,,,,,
16,7,1249,A,34.82182827089348,52.07467930495239,1.741091413544674,0.8179871497124143,A,578.2545830006711,Correct,sub_016_day_06_data.csv,1,300,49.0,Training at home,,,,,,,,,,,,,
16,7,1250,B,78.1801149414881,60.02044594244997,3.909005747074405,0.9427989601899204,B,551.5635409974493,Correct,sub_016_day_06_data.csv,1,300,50.0,Training at home,,,,,,,,,,,,,
16,7,1251,B,65.76369738570584,41.8816182088263,3.288184869285292,0.6578749204265062,B,1370.9093329962343,Correct,sub_016_day_06_data.csv,1,300,50.0,Training at home,,,,,,,,,,,,,
16,7,1252,A,58.955180385269315,87.10904101263594,2.947759019263466,1.3683056165327454,A,699.9422910012072,Correct,sub_016_day_06_data.csv,1,300,50.0,Training at home,,,,,,,,,,,,,
16,7,1253,A,48.58478519621046,63.289915616515465,2.4292392598105232,0.9941556697358146,A,841.7786659992998,Correct,sub_016_day_06_data.csv,1,300,50.0,Training at home,,,,,,,,,,,,,
16,7,1254,A,23.379214631553783,50.21065193271755,1.168960731577689,0.788707076218898,A,587.5683330086758,Correct,sub_016_day_06_data.csv,1,300,50.0,Training at home,,,,,,,,,,,,,
16,7,1255,A,61.67518355438376,83.95109304836812,3.083759177719188,1.318700685907932,A,765.2633329998935,Correct,sub_016_day_06_data.csv,1,300,50.0,Training at home,,,,,,,,,,,,,
16,7,1256,A,32.795493353638406,54.33760959915815,1.6397746676819205,0.8535331756517274,A,589.6872500015888,Correct,sub_016_day_06_data.csv,1,300,50.0,Training at home,,,,,,,,,,,,,
16,7,1257,A,61.92467321796052,88.61346878668141,3.096233660898026,1.3919371127467337,A,817.3224159982055,Correct,sub_016_day_06_data.csv,1,300,50.0,Training at home,,,,,,,,,,,,,
16,7,1258,A,50.82209166649002,65.75561421288926,2.541104583324501,1.0328867727174875,A,561.9328750035493,Correct,sub_016_day_06_data.csv,1,300,50.0,Training at home,,,,,,,,,,,,,
16,7,1259,B,76.25497685377555,47.45369117554394,3.812748842688777,0.7454008379140381,B,970.0622920063324,Correct,sub_016_day_06_data.csv,1,300,50.0,Training at home,,,,,,,,,,,,,
16,7,1260,A,40.43998623506798,53.31502775602972,2.0219993117533988,0.8374704976213944,A,769.401999990805,Correct,sub_016_day_06_data.csv,1,300,50.0,Training at home,,,,,,,,,,,,,
16,7,1261,A,38.841290267157056,54.15838110847655,1.942064513357853,0.8507178611035306,A,1689.606375002768,Correct,sub_016_day_06_data.csv,1,300,50.0,Training at home,,,,,,,,,,,,,
16,7,1262,B,75.61856446602962,61.437287304315234,3.780928223301481,0.965054652258611,B,1356.6329579916785,Correct,sub_016_day_06_data.csv,1,300,50.0,Training at home,,,,,,,,,,,,,
16,7,1263,A,40.53792612017115,65.28780017335107,2.026896306008558,1.0255383669681908,A,936.1397489992668,Correct,sub_016_day_06_data.csv,1,300,50.0,Training at home,,,,,,,,,,,,,
16,7,1264,B,60.22939633933457,45.36931958477675,3.011469816966729,0.7126596055295108,A,676.6792920097942,Incorrect,sub_016_day_06_data.csv,0,300,50.0,Training at home,,,,,,,,,,,,,
16,7,1265,B,66.55795350165049,49.34833921702712,3.3278976750825247,0.7751618997553475,B,858.1767910072813,Correct,sub_016_day_06_data.csv,1,300,50.0,Training at home,,,,,,,,,,,,,
16,7,1266,B,74.3540639521379,55.970528755487344,3.717703197606895,0.8791830097788764,B,981.698832998518,Correct,sub_016_day_06_data.csv,1,300,50.0,Training at home,,,,,,,,,,,,,
16,7,1267,A,41.08347245392287,63.49820777104226,2.0541736226961436,0.9974275152481236,A,2384.83479100978,Correct,sub_016_day_06_data.csv,1,300,50.0,Training at home,,,,,,,,,,,,,
16,7,1268,B,32.246684358855326,11.007815358367996,1.6123342179427664,0.1729103593096089,B,888.1527079938678,Correct,sub_016_day_06_data.csv,1,300,50.0,Training at home,,,,,,,,,,,,,
16,7,1269,B,71.12192574334533,44.27117067172842,3.5560962871672666,0.6954099227406095,B,634.9251249921508,Correct,sub_016_day_06_data.csv,1,300,50.0,Training at home,,,,,,,,,,,,,
16,7,1270,B,62.62823687561095,49.81838481822595,3.131411843780547,0.7825453587932396,B,2226.034166000318,Correct,sub_016_day_06_data.csv,1,300,50.0,Training at home,,,,,,,,,,,,,
16,7,1271,B,33.75111455024071,16.241055458416472,1.6875557275120354,0.255113902573528,A,575.8197079994716,Incorrect,sub_016_day_06_data.csv,0,300,50.0,Training at home,,,,,,,,,,,,,
16,7,1272,A,39.51954965105615,57.60283788154942,1.9759774825528076,0.9048232615729974,A,771.9540830003098,Correct,sub_016_day_06_data.csv,1,300,50.0,Training at home,,,,,,,,,,,,,
16,7,1273,A,31.84717555922182,57.98637812584876,1.592358777961091,0.9108478976422316,A,662.5889580027433,Correct,sub_016_day_06_data.csv,1,300,50.0,Training at home,,,,,,,,,,,,,
16,7,1274,B,46.176409360570055,31.019483372449116,2.308820468028503,0.4872529054051844,B,3958.9174580032704,Correct,sub_016_day_06_data.csv,1,300,50.0,Training at home,,,,,,,,,,,,,
16,7,1275,A,52.28226215813606,72.39949721923425,2.6141131079068027,1.137248642937705,A,3460.805167007493,Correct,sub_016_day_06_data.csv,1,300,51.0,Training at home,,,,,,,,,,,,,
16,7,1276,A,41.43640666606688,70.6614543720162,2.0718203333033443,1.1099475297354822,A,908.817415998783,Correct,sub_016_day_06_data.csv,1,300,51.0,Training at home,,,,,,,,,,,,,
16,7,1277,A,67.53488000049501,86.51191735432587,3.376744000024751,1.3589260200415874,A,968.46262399049,Correct,sub_016_day_06_data.csv,1,300,51.0,Training at home,,,,,,,,,,,,,
16,7,1278,B,45.95517479746964,33.548402893222644,2.2977587398734816,0.526977080345094,B,580.6303749996005,Correct,sub_016_day_06_data.csv,1,300,51.0,Training at home,,,,,,,,,,,,,
16,7,1279,A,34.77488172798841,52.967481628724734,1.7387440863994204,0.8320112558197699,A,587.0288750011241,Correct,sub_016_day_06_data.csv,1,300,51.0,Training at home,,,,,,,,,,,,,
16,7,1280,B,75.38761165702297,43.67676502506443,3.769380582851148,0.6860730206765501,B,666.6657500027213,Correct,sub_016_day_06_data.csv,1,300,51.0,Training at home,,,,,,,,,,,,,
16,7,1281,A,68.39538114904582,87.66103679498698,3.419769057452291,1.3769763460059783,A,542.2430829930818,Correct,sub_016_day_06_data.csv,1,300,51.0,Training at home,,,,,,,,,,,,,
16,7,1282,B,85.90840347819162,67.36676049140976,4.295420173909581,1.05819459927978,B,674.3383749999339,Correct,sub_016_day_06_data.csv,1,300,51.0,Training at home,,,,,,,,,,,,,
16,7,1283,A,30.628403803694756,59.1777071683613,1.5314201901847375,0.9295612504820596,A,557.6173330046004,Correct,sub_016_day_06_data.csv,1,300,51.0,Training at home,,,,,,,,,,,,,
16,7,1284,A,57.08836054319005,84.23458143843101,2.8544180271595025,1.3231537111259295,A,590.2926249982556,Correct,sub_016_day_06_data.csv,1,300,51.0,Training at home,,,,,,,,,,,,,
16,7,1285,B,69.2239814709658,56.19428165932901,3.46119907354829,0.8826977121735183,A,768.8242080039345,Incorrect,sub_016_day_06_data.csv,0,300,51.0,Training at home,,,,,,,,,,,,,
16,7,1286,B,72.64733307483883,52.0232525751292,3.632366653741941,0.817179340529361,B,1707.4769580067368,Correct,sub_016_day_06_data.csv,1,300,51.0,Training at home,,,,,,,,,,,,,
16,7,1287,B,88.34615278770379,65.7896660141761,4.417307639385189,1.0334216571613086,B,574.3826670077397,Correct,sub_016_day_06_data.csv,1,300,51.0,Training at home,,,,,,,,,,,,,
16,7,1288,A,28.82024064589141,41.59027146288036,1.4410120322945703,0.6532984564429509,A,1031.6317490069196,Correct,sub_016_day_06_data.csv,1,300,51.0,Training at home,,,,,,,,,,,,,
16,7,1289,A,33.622246667738125,50.684205682633944,1.6811123333869062,0.7961456411279842,A,913.3477080031298,Correct,sub_016_day_06_data.csv,1,300,51.0,Training at home,,,,,,,,,,,,,
16,7,1290,A,32.64744717086547,60.35132440458537,1.6323723585432734,0.9479963869192988,A,481.7977499915287,Correct,sub_016_day_06_data.csv,1,300,51.0,Training at home,,,,,,,,,,,,,
16,7,1291,B,39.39237084879737,23.18166401967147,1.969618542439869,0.3641367269109337,B,965.2365829970222,Correct,sub_016_day_06_data.csv,1,300,51.0,Training at home,,,,,,,,,,,,,
16,7,1292,B,74.47514243023336,48.957673744718264,3.723757121511668,0.7690253408662638,B,3633.568417004426,Correct,sub_016_day_06_data.csv,1,300,51.0,Training at home,,,,,,,,,,,,,
16,7,1293,B,52.02595458199136,40.048013549942596,2.601297729099568,0.6290727257968208,B,1515.496833002544,Correct,sub_016_day_06_data.csv,1,300,51.0,Training at home,,,,,,,,,,,,,
16,7,1294,A,49.77852936575861,72.23399378622659,2.4889264682879304,1.134648921091301,A,710.0705419870792,Correct,sub_016_day_06_data.csv,1,300,51.0,Training at home,,,,,,,,,,,,,
16,7,1295,A,39.37645399842931,48.18805341448431,1.9688226999214655,0.7569361729886822,B,3681.128917000024,Incorrect,sub_016_day_06_data.csv,0,300,51.0,Training at home,,,,,,,,,,,,,
16,7,1296,B,72.24272514801046,58.95889581315268,3.612136257400523,0.9261241697518324,A,1240.8199579949724,Incorrect,sub_016_day_06_data.csv,0,300,51.0,Training at home,,,,,,,,,,,,,
16,7,1297,B,47.39539253584201,18.420818590820392,2.3697696267921,0.2893535417901581,B,791.1514160077786,Correct,sub_016_day_06_data.csv,1,300,51.0,Training at home,,,,,,,,,,,,,
16,7,1298,B,64.22255510386526,36.421696618915306,3.211127755193263,0.5721106726463027,B,2219.03941599885,Correct,sub_016_day_06_data.csv,1,300,51.0,Training at home,,,,,,,,,,,,,
16,7,1299,B,81.97407858684718,51.225644108971366,4.09870392934236,0.8046505360407484,B,2460.0510409945855,Correct,sub_016_day_06_data.csv,1,300,51.0,Training at home,,,,,,,,,,,,,
16,7,1300,B,36.9219154448066,17.843693843739462,1.84609577224033,0.2802880874619866,B,2221.692749997601,Correct,sub_016_day_06_data.csv,1,300,52.0,Training at home,,,,,,,,,,,,,
16,7,1301,A,62.94908323705641,77.65218554313788,3.1474541618528207,1.2197576781875674,A,2517.9959160013823,Correct,sub_016_day_06_data.csv,1,300,52.0,Training at home,,,,,,,,,,,,,
16,7,1302,A,27.8733768822679,40.58146620561397,1.393668844113395,0.6374521805172965,A,1715.0076249963604,Correct,sub_016_day_06_data.csv,1,300,52.0,Training at home,,,,,,,,,,,,,
16,7,1303,B,50.33940026347125,28.486368079753134,2.5169700131735624,0.4474628234340361,B,4633.274540989078,Correct,sub_016_day_06_data.csv,1,300,52.0,Training at home,,,,,,,,,,,,,
16,7,1304,B,44.38483453356649,36.115208771594915,2.219241726678325,0.5672963727985212,A,4688.832749001449,Incorrect,sub_016_day_06_data.csv,0,300,52.0,Training at home,,,,,,,,,,,,,
16,7,1305,B,56.61192409115013,38.51112270661264,2.8305962045575064,0.6049313008829468,B,3100.883666003938,Correct,sub_016_day_06_data.csv,1,300,52.0,Training at home,,,,,,,,,,,,,
16,7,1306,A,15.689050864577958,30.905764909449346,0.7844525432288978,0.4854666199654964,A,1401.5236670093143,Correct,sub_016_day_06_data.csv,1,300,52.0,Training at home,,,,,,,,,,,,,
16,7,1307,B,52.410734033850446,23.54686775193182,2.620536701692522,0.369873333722597,B,889.2498740024166,Correct,sub_016_day_06_data.csv,1,300,52.0,Training at home,,,,,,,,,,,,,
16,7,1308,A,28.891633452381814,44.19111025398759,1.444581672619091,0.69415233663952,A,1189.2780409980332,Correct,sub_016_day_06_data.csv,1,300,52.0,Training at home,,,,,,,,,,,,,
16,7,1309,A,49.31677573748266,62.59317626023869,2.4658387868741327,0.9832113135200844,A,1486.9820830062963,Correct,sub_016_day_06_data.csv,1,300,52.0,Training at home,,,,,,,,,,,,,
16,7,1310,B,48.005470289724634,30.49739857744607,2.4002735144862317,0.4790520166225219,B,2917.226916004438,Correct,sub_016_day_06_data.csv,1,300,52.0,Training at home,,,,,,,,,,,,,
16,7,1311,A,24.24950521297315,56.5642407654734,1.2124752606486575,0.8885090162234777,A,1789.0769580117194,Correct,sub_016_day_06_data.csv,1,300,52.0,Training at home,,,,,,,,,,,,,
16,7,1312,A,56.37835320200858,79.79263922334846,2.8189176601004293,1.2533798459730614,A,646.8478329916252,Correct,sub_016_day_06_data.csv,1,300,52.0,Training at home,,,,,,,,,,,,,
16,7,1313,A,40.46313099839715,47.36549984066771,2.0231565499198574,0.7440155316652509,A,3837.9965829954017,Correct,sub_016_day_06_data.csv,1,300,52.0,Training at home,,,,,,,,,,,,,
16,7,1314,B,66.00719775631619,38.885479356634214,3.3003598878158096,0.6108116813905979,B,1942.822041004547,Correct,sub_016_day_06_data.csv,1,300,52.0,Training at home,,,,,,,,,,,,,
16,7,1315,B,86.96519507014057,63.21633868781595,4.348259753507028,0.992999926042434,B,634.6753329999046,Correct,sub_016_day_06_data.csv,1,300,52.0,Training at home,,,,,,,,,,,,,
16,7,1316,B,71.43654669707783,47.40441327149226,3.571827334853891,0.7446267824072728,B,951.4592490013456,Correct,sub_016_day_06_data.csv,1,300,52.0,Training at home,,,,,,,,,,,,,
16,7,1317,B,48.17497418469016,23.86462418055996,2.4087487092345077,0.3748646400316426,A,399.6344579936704,Incorrect,sub_016_day_06_data.csv,0,300,52.0,Training at home,,,,,,,,,,,,,
16,7,1318,A,40.35138992135096,56.258508329428025,2.017569496067548,0.8837065823482563,A,551.8297919916222,Correct,sub_016_day_06_data.csv,1,300,52.0,Training at home,,,,,,,,,,,,,
16,7,1319,B,87.9631097016487,68.2555455966114,4.398155485082436,1.0721556030653876,B,626.4767079992453,Correct,sub_016_day_06_data.csv,1,300,52.0,Training at home,,,,,,,,,,,,,
16,7,1320,B,47.945118294421555,41.02682148295879,2.3972559147210775,0.6444478048550162,A,1743.4592500067083,Incorrect,sub_016_day_06_data.csv,0,300,52.0,Training at home,,,,,,,,,,,,,
16,7,1321,A,42.21705357219746,67.56229729135536,2.110852678609873,1.061266084150858,A,759.9121250095777,Correct,sub_016_day_06_data.csv,1,300,52.0,Training at home,,,,,,,,,,,,,
16,7,1322,B,61.4411969288813,39.44409868226447,3.072059846444065,0.6195864532383645,B,1247.116291007842,Correct,sub_016_day_06_data.csv,1,300,52.0,Training at home,,,,,,,,,,,,,
16,7,1323,B,82.91518958697738,59.635976034495755,4.145759479348869,0.9367597209981442,B,619.7104580060113,Correct,sub_016_day_06_data.csv,1,300,52.0,Training at home,,,,,,,,,,,,,
16,7,1324,A,38.511260483416166,57.55552800747464,1.925563024170808,0.9040801198088196,A,1695.0557910022326,Correct,sub_016_day_06_data.csv,1,300,52.0,Training at home,,,,,,,,,,,,,
16,7,1325,A,27.25112923923392,60.29122921970067,1.362556461961696,0.9470524139625496,A,903.8974160066572,Correct,sub_016_day_06_data.csv,1,300,53.0,Training at home,,,,,,,,,,,,,
16,7,1326,B,37.73470139319417,13.458952571051675,1.8867350696597085,0.211412732611147,B,1335.211415993399,Correct,sub_016_day_06_data.csv,1,300,53.0,Training at home,,,,,,,,,,,,,
16,7,1327,A,19.50759809592756,46.86006890021811,0.975379904796378,0.7360762410181838,A,1548.4342080017086,Correct,sub_016_day_06_data.csv,1,300,53.0,Training at home,,,,,,,,,,,,,
16,7,1328,A,44.56051423805339,73.35343403341581,2.22802571190267,1.152233047374813,B,942.9431239987024,Incorrect,sub_016_day_06_data.csv,0,300,53.0,Training at home,,,,,,,,,,,,,
16,7,1329,B,43.01378704624974,16.689692827810322,2.150689352312487,0.2621610818925958,B,645.6739579880377,Correct,sub_016_day_06_data.csv,1,300,53.0,Training at home,,,,,,,,,,,,,
16,7,1330,B,71.56813688971313,48.51209910777372,3.5784068444856563,0.7620262708360094,B,2095.0154999882216,Correct,sub_016_day_06_data.csv,1,300,53.0,Training at home,,,,,,,,,,,,,
16,7,1331,A,31.054279201556017,44.835652775347384,1.5527139600778008,0.7042767868896708,A,986.5219160128618,Correct,sub_016_day_06_data.csv,1,300,53.0,Training at home,,,,,,,,,,,,,
16,7,1332,A,58.00216239675096,82.70712939454236,2.900108119837548,1.299160550526974,A,749.3939580017468,Correct,sub_016_day_06_data.csv,1,300,53.0,Training at home,,,,,,,,,,,,,
16,7,1333,B,80.74596358432436,64.86628438274343,4.037298179216219,1.0189172124124657,B,1256.0092080093457,Correct,sub_016_day_06_data.csv,1,300,53.0,Training at home,,,,,,,,,,,,,
16,7,1334,B,31.086329674567292,16.44064669886545,1.5543164837283647,0.2582490744471049,A,629.4871249992866,Incorrect,sub_016_day_06_data.csv,0,300,53.0,Training at home,,,,,,,,,,,,,
16,7,1335,A,37.34770549834122,60.364480481057434,1.867385274917061,0.9482030420852724,B,656.0866240033647,Incorrect,sub_016_day_06_data.csv,0,300,53.0,Training at home,,,,,,,,,,,,,
16,7,1336,A,23.71536444599646,43.2144102555535,1.185768222299823,0.6788103689403114,A,1223.5093740018783,Correct,sub_016_day_06_data.csv,1,300,53.0,Training at home,,,,,,,,,,,,,
16,7,1337,A,44.19226195155779,56.91401266351976,2.20961309757789,0.8940032203501506,A,706.0939160000999,Correct,sub_016_day_06_data.csv,1,300,53.0,Training at home,,,,,,,,,,,,,
16,7,1338,B,86.95705819966913,66.22286618404308,4.347852909983456,1.0402263495172486,B,996.456583001418,Correct,sub_016_day_06_data.csv,1,300,53.0,Training at home,,,,,,,,,,,,,
16,7,1339,B,49.47173038385503,42.65815823064146,2.4735865191927515,0.670072782565271,A,897.2253749961965,Incorrect,sub_016_day_06_data.csv,0,300,53.0,Training at home,,,,,,,,,,,,,
16,7,1340,B,43.009632299167926,21.254928920780863,2.1504816149583963,0.333871642750492,B,791.7670419992646,Correct,sub_016_day_06_data.csv,1,300,53.0,Training at home,,,,,,,,,,,,,
16,7,1341,A,27.87348556002638,49.69733268644112,1.3936742780013192,0.7806438763536566,A,1113.5536239889916,Correct,sub_016_day_06_data.csv,1,300,53.0,Training at home,,,,,,,,,,,,,
16,7,1342,A,44.4619653117137,72.29429645302872,2.223098265585685,1.1355961531663883,A,914.9338749994058,Correct,sub_016_day_06_data.csv,1,300,53.0,Training at home,,,,,,,,,,,,,
16,7,1343,B,72.57428726515155,49.65136117833181,3.628714363257578,0.7799217575929033,B,668.7574579991633,Correct,sub_016_day_06_data.csv,1,300,53.0,Training at home,,,,,,,,,,,,,
16,7,1344,B,45.9721431201106,27.3584888721662,2.2986071560055303,0.4297461382705771,B,2212.3414160014363,Correct,sub_016_day_06_data.csv,1,300,53.0,Training at home,,,,,,,,,,,,,
16,7,1345,A,49.03152708606771,75.4122387459438,2.4515763543033855,1.184572676175083,B,762.1313749987166,Incorrect,sub_016_day_06_data.csv,0,300,53.0,Training at home,,,,,,,,,,,,,
16,7,1346,A,62.35135135443156,75.07223781278208,3.117567567721578,1.1792319540059102,A,818.3537080039969,Correct,sub_016_day_06_data.csv,1,300,53.0,Training at home,,,,,,,,,,,,,
16,7,1347,B,85.91568955069823,60.73789679237698,4.295784477534911,0.9540686517871328,B,640.4427079978632,Correct,sub_016_day_06_data.csv,1,300,53.0,Training at home,,,,,,,,,,,,,
16,7,1348,B,66.4111619431806,50.212429557711054,3.3205580971590303,0.7887349990870002,A,3045.4196659993613,Incorrect,sub_016_day_06_data.csv,0,300,53.0,Training at home,,,,,,,,,,,,,
16,7,1349,B,81.89060281702993,62.19261620241797,4.0945301408514965,0.9769193308452292,B,512.1012910094578,Correct,sub_016_day_06_data.csv,1,300,53.0,Training at home,,,,,,,,,,,,,
16,7,1350,A,47.93441404911932,75.35601700494517,2.396720702455966,1.1836895471326163,A,1799.4825829955516,Correct,sub_016_day_06_data.csv,1,300,54.0,Training at home,,,,,,,,,,,,,
16,7,1351,B,57.86989271672835,29.607887402163385,2.8934946358364173,0.4650796077547514,B,817.37770800828,Correct,sub_016_day_06_data.csv,1,300,54.0,Training at home,,,,,,,,,,,,,
16,7,1352,A,23.0269984297159,37.03778545017132,1.151349921485795,0.5817881733774658,A,659.1443740035174,Correct,sub_016_day_06_data.csv,1,300,54.0,Training at home,,,,,,,,,,,,,
16,7,1353,B,46.57077718181287,29.5729749109601,2.3285388590906435,0.4645312036253375,B,2131.0038749943487,Correct,sub_016_day_06_data.csv,1,300,54.0,Training at home,,,,,,,,,,,,,
16,7,1354,A,57.12867349076479,69.72609568731738,2.8564336745382395,1.0952549498738762,A,1075.1221240061568,Correct,sub_016_day_06_data.csv,1,300,54.0,Training at home,,,,,,,,,,,,,
16,7,1355,B,47.2373593998295,35.41452241439613,2.361867969991475,0.5562900172372898,B,4006.9003329990664,Correct,sub_016_day_06_data.csv,1,300,54.0,Training at home,,,,,,,,,,,,,
16,7,1356,A,41.72842439275613,62.00950609599294,2.0864212196378067,0.9740430440195146,A,1073.1300830084365,Correct,sub_016_day_06_data.csv,1,300,54.0,Training at home,,,,,,,,,,,,,
16,7,1357,A,47.483399311619344,79.14063228154862,2.374169965580967,1.243138144880822,A,838.1932909978786,Correct,sub_016_day_06_data.csv,1,300,54.0,Training at home,,,,,,,,,,,,,
16,7,1358,B,82.78431728161593,66.63470592666165,4.139215864080796,1.0466955130665827,B,1599.7862499934854,Correct,sub_016_day_06_data.csv,1,300,54.0,Training at home,,,,,,,,,,,,,
16,7,1359,A,17.731180076498717,40.76937114031402,0.8865590038249358,0.6404037843294313,A,1515.4655829974215,Correct,sub_016_day_06_data.csv,1,300,54.0,Training at home,,,,,,,,,,,,,
16,7,1360,A,15.073795130355323,33.284056004297405,0.7536897565177663,0.5228247291238598,A,613.0801670078654,Correct,sub_016_day_06_data.csv,1,300,54.0,Training at home,,,,,,,,,,,,,
16,7,1361,A,54.8025367001671,76.45508568195963,2.7401268350083554,1.2009536775401128,A,715.0127079949016,Correct,sub_016_day_06_data.csv,1,300,54.0,Training at home,,,,,,,,,,,,,
16,7,1362,A,52.564400280304966,79.95969508930126,2.6282200140152487,1.2560039533791434,A,765.5371669970918,Correct,sub_016_day_06_data.csv,1,300,54.0,Training at home,,,,,,,,,,,,,
16,7,1363,B,71.35843839763105,55.45680490747211,3.5679219198815524,0.8711134544443837,B,1090.9591660019942,Correct,sub_016_day_06_data.csv,1,300,54.0,Training at home,,,,,,,,,,,,,
16,7,1364,B,70.53204310594674,48.86310090661784,3.5266021552973372,0.7675397941992369,B,2194.359582994366,Correct,sub_016_day_06_data.csv,1,300,54.0,Training at home,,,,,,,,,,,,,
16,7,1365,A,27.949962674719423,49.07275472937422,1.397498133735971,0.7708330287460791,A,1807.1765420027075,Correct,sub_016_day_06_data.csv,1,300,54.0,Training at home,,,,,,,,,,,,,
16,7,1366,A,23.668052059656688,46.35081245756081,1.1834026029828344,0.7280768595229564,A,4952.3413330025505,Correct,sub_016_day_06_data.csv,1,300,54.0,Training at home,,,,,,,,,,,,,
16,7,1367,A,52.422196472693784,66.033422639673,2.621109823634689,1.037250577280933,A,978.8174990098923,Correct,sub_016_day_06_data.csv,1,300,54.0,Training at home,,,,,,,,,,,,,
16,7,1368,A,28.364149229898224,49.81125321787698,1.4182074614949114,0.7824333358769163,A,574.0603329904843,Correct,sub_016_day_06_data.csv,1,300,54.0,Training at home,,,,,,,,,,,,,
16,7,1369,B,53.67426633115717,40.42210707094268,2.6837133165578586,0.6349489730834678,A,1553.9920409937622,Incorrect,sub_016_day_06_data.csv,0,300,54.0,Training at home,,,,,,,,,,,,,
16,7,1370,A,66.75461925156736,86.77153093434538,3.337730962578368,1.3630040206203946,A,552.4864579929272,Correct,sub_016_day_06_data.csv,1,300,54.0,Training at home,,,,,,,,,,,,,
16,7,1371,A,27.631545745336275,50.272833949461806,1.3815772872668135,0.7896838290538437,A,763.3642080036225,Correct,sub_016_day_06_data.csv,1,300,54.0,Training at home,,,,,,,,,,,,,
16,7,1372,B,76.80992846504327,51.59251096667619,3.840496423252164,0.8104132671658038,B,562.6057499903254,Correct,sub_016_day_06_data.csv,1,300,54.0,Training at home,,,,,,,,,,,,,
16,7,1373,A,23.2890907638261,55.167155234904534,1.164454538191305,0.8665636480271189,A,2204.657041002065,Correct,sub_016_day_06_data.csv,1,300,54.0,Training at home,,,,,,,,,,,,,
16,7,1374,A,62.79016766310729,81.36317691468994,3.1395083831553645,1.278049794339583,A,879.9940000026254,Correct,sub_016_day_06_data.csv,1,300,54.0,Training at home,,,,,,,,,,,,,
16,7,1375,A,48.46371602643914,70.22155868228481,2.423185801321957,1.1030376643994526,A,708.1317910051439,Correct,sub_016_day_06_data.csv,1,300,55.0,Training at home,,,,,,,,,,,,,
16,7,1376,B,38.92361552170325,22.126273574043775,1.9461807760851624,0.3475586925576694,B,832.9915830108803,Correct,sub_016_day_06_data.csv,1,300,55.0,Training at home,,,,,,,,,,,,,
16,7,1377,A,60.97264970853066,82.67516927654962,3.048632485426533,1.2986585221675042,A,878.2974170026137,Correct,sub_016_day_06_data.csv,1,300,55.0,Training at home,,,,,,,,,,,,,
16,7,1378,B,63.13922288094587,34.83499612849763,3.1569611440472936,0.5471868396255851,B,1582.9909580061212,Correct,sub_016_day_06_data.csv,1,300,55.0,Training at home,,,,,,,,,,,,,
16,7,1379,A,39.41323924069388,52.0313804425934,1.970661962034694,0.8173070127729354,A,575.0977499992587,Correct,sub_016_day_06_data.csv,1,300,55.0,Training at home,,,,,,,,,,,,,
16,7,1380,B,54.830323138327515,30.745029772738835,2.7415161569163757,0.482941798342179,B,2162.420332999318,Correct,sub_016_day_06_data.csv,1,300,55.0,Training at home,,,,,,,,,,,,,
16,7,1381,A,66.16551897817259,86.68392430484555,3.3082759489086295,1.3616278989021824,A,635.9606250043726,Correct,sub_016_day_06_data.csv,1,300,55.0,Training at home,,,,,,,,,,,,,
16,7,1382,B,36.77544653403547,22.280290419616477,1.8387723267017733,0.3499779835105708,B,4519.5867080037715,Correct,sub_016_day_06_data.csv,1,300,55.0,Training at home,,,,,,,,,,,,,
16,7,1383,A,16.31882532663953,46.41859891641384,0.8159412663319765,0.7291416467286843,A,8464.674499991816,Correct,sub_016_day_06_data.csv,1,300,55.0,Training at home,,,,,,,,,,,,,
16,7,1384,A,28.39501001735935,41.65028195850475,1.4197505008679678,0.6542410991039102,A,1854.6234160021413,Correct,sub_016_day_06_data.csv,1,300,55.0,Training at home,,,,,,,,,,,,,
16,7,1385,B,70.08088592501502,47.02232463010812,3.504044296250751,0.7386249480633101,B,615.1741249923361,Correct,sub_016_day_06_data.csv,1,300,55.0,Training at home,,,,,,,,,,,,,
16,7,1386,B,34.16389396000315,16.149399955069306,1.7081946980001574,0.2536741812936454,B,781.8927499902202,Correct,sub_016_day_06_data.csv,1,300,55.0,Training at home,,,,,,,,,,,,,
16,7,1387,A,66.00267311943328,85.13634747787081,3.300133655971664,1.3373186189497344,A,761.5621669974644,Correct,sub_016_day_06_data.csv,1,300,55.0,Training at home,,,,,,,,,,,,,
16,7,1388,B,59.195985481388185,41.91872439862916,2.9597992740694092,0.6584577830929429,B,1187.935291993199,Correct,sub_016_day_06_data.csv,1,300,55.0,Training at home,,,,,,,,,,,,,
16,7,1389,B,83.35303483441405,57.28660976554253,4.167651741720703,0.8998559619424685,B,629.8422079999,Correct,sub_016_day_06_data.csv,1,300,55.0,Training at home,,,,,,,,,,,,,
16,7,1390,A,46.220887071193545,74.01444493598679,2.3110443535596774,1.162616182352112,A,1674.7514580056304,Correct,sub_016_day_06_data.csv,1,300,55.0,Training at home,,,,,,,,,,,,,
16,7,1391,B,74.21661379297296,41.36601312785432,3.710830689648648,0.6497758147538305,B,2436.144207997131,Correct,sub_016_day_06_data.csv,1,300,55.0,Training at home,,,,,,,,,,,,,
16,7,1392,A,59.943692004767,74.05908795463793,2.99718460023835,1.1633174332492544,A,1877.1624159999192,Correct,sub_016_day_06_data.csv,1,300,55.0,Training at home,,,,,,,,,,,,,
16,7,1393,A,36.87563159584452,57.109362813132826,1.8437815797922257,0.8970717733246609,A,1615.005707993987,Correct,sub_016_day_06_data.csv,1,300,55.0,Training at home,,,,,,,,,,,,,
16,7,1394,B,54.315872086914645,38.72070226873095,2.715793604345732,0.608223368946414,B,909.8643329925836,Correct,sub_016_day_06_data.csv,1,300,55.0,Training at home,,,,,,,,,,,,,
16,7,1395,A,22.943336097003492,45.448074564800606,1.1471668048501746,0.7138966858628937,A,626.1094579967903,Correct,sub_016_day_06_data.csv,1,300,55.0,Training at home,,,,,,,,,,,,,
16,7,1396,B,33.06413462220802,20.520468739071102,1.6532067311104013,0.3223347691944239,B,2302.73974899319,Correct,sub_016_day_06_data.csv,1,300,55.0,Training at home,,,,,,,,,,,,,
16,7,1397,A,56.37824768904299,78.57001217350802,2.8189123844521498,1.2341748651837672,A,631.9657910062233,Correct,sub_016_day_06_data.csv,1,300,55.0,Training at home,,,,,,,,,,,,,
16,7,1398,B,35.08097771699138,22.060941456612095,1.7540488858495689,0.3465324580568353,B,1812.9159999953115,Correct,sub_016_day_06_data.csv,1,300,55.0,Training at home,,,,,,,,,,,,,
16,7,1399,A,56.94795334968725,78.02762466446154,2.847397667484363,1.225655062114671,A,751.511082999059,Correct,sub_016_day_06_data.csv,1,300,55.0,Training at home,,,,,,,,,,,,,
16,7,1400,A,53.43961957203601,61.33599107140027,2.6719809786018005,0.9634634947528012,A,1708.9582080079708,Correct,sub_016_day_06_data.csv,1,300,56.0,Training at home,,,,,,,,,,,,,
16,7,1401,A,23.612111905818676,48.479298841774096,1.1806055952909338,0.7615110454625084,A,1630.2037080022274,Correct,sub_016_day_06_data.csv,1,300,56.0,Training at home,,,,,,,,,,,,,
16,7,1402,A,40.20052895392561,69.26242105536156,2.010026447696281,1.0879715657868343,A,1736.382249000599,Correct,sub_016_day_06_data.csv,1,300,56.0,Training at home,,,,,,,,,,,,,
16,7,1403,A,62.63824146511164,72.90357850503798,3.131912073255582,1.1451667332591704,A,1199.8097920004511,Correct,sub_016_day_06_data.csv,1,300,56.0,Training at home,,,,,,,,,,,,,
16,7,1404,B,38.77765611183554,12.660468598509112,1.938882805591777,0.1988701757004025,B,704.4104170054197,Correct,sub_016_day_06_data.csv,1,300,56.0,Training at home,,,,,,,,,,,,,
16,7,1405,A,15.56272871485588,43.36676643331447,0.778136435742794,0.6812035741842258,A,651.9556660059607,Correct,sub_016_day_06_data.csv,1,300,56.0,Training at home,,,,,,,,,,,,,
16,7,1406,A,17.045534647851685,32.47196237830582,0.8522767323925842,0.5100683922766485,A,844.0279999922495,Correct,sub_016_day_06_data.csv,1,300,56.0,Training at home,,,,,,,,,,,,,
16,7,1407,B,66.66377442339967,36.96949152556444,3.3331887211699835,0.5807154149183169,A,864.3827490013791,Incorrect,sub_016_day_06_data.csv,0,300,56.0,Training at home,,,,,,,,,,,,,
16,7,1408,B,80.81547517357981,66.44908895629202,4.0407737586789905,1.043779848514108,B,1079.8914170009084,Correct,sub_016_day_06_data.csv,1,300,56.0,Training at home,,,,,,,,,,,,,
16,7,1409,A,31.57227553179841,46.23178094591595,1.5786137765899206,0.7262071169103106,A,507.31449999148026,Correct,sub_016_day_06_data.csv,1,300,56.0,Training at home,,,,,,,,,,,,,
16,7,1410,B,62.76674828354177,42.49711612500461,3.138337414177089,0.667543139085334,B,2268.994500002009,Correct,sub_016_day_06_data.csv,1,300,56.0,Training at home,,,,,,,,,,,,,
16,7,1411,B,36.40842689396817,19.939553624578053,1.8204213446984088,0.3132097759141707,B,733.9793749997625,Correct,sub_016_day_06_data.csv,1,300,56.0,Training at home,,,,,,,,,,,,,
16,7,1412,A,41.75586150380321,59.25188768379646,2.0877930751901603,0.9307264752937128,A,1025.9098740061745,Correct,sub_016_day_06_data.csv,1,300,56.0,Training at home,,,,,,,,,,,,,
16,7,1413,B,44.053497143585034,17.40163908155256,2.202674857179252,0.2733443074951328,B,1044.93000000366,Correct,sub_016_day_06_data.csv,1,300,56.0,Training at home,,,,,,,,,,,,,
16,7,1414,B,47.565931467850035,22.67283675602611,2.3782965733925017,0.3561440869438613,B,620.0231660041027,Correct,sub_016_day_06_data.csv,1,300,56.0,Training at home,,,,,,,,,,,,,
16,7,1415,B,38.58598738794771,19.85513201996716,1.9292993693973857,0.3118836844499215,B,652.8753750026226,Correct,sub_016_day_06_data.csv,1,300,56.0,Training at home,,,,,,,,,,,,,
16,7,1416,A,42.51487104047438,71.49226203664674,2.125743552023719,1.122997826014229,A,1146.2030410039006,Correct,sub_016_day_06_data.csv,1,300,56.0,Training at home,,,,,,,,,,,,,
16,7,1417,B,54.98427414900715,45.05281399165308,2.7492137074503575,0.7076879472986239,A,1224.3579579953805,Incorrect,sub_016_day_06_data.csv,0,300,56.0,Training at home,,,,,,,,,,,,,
16,7,1418,A,16.659986676425746,39.16003807931462,0.8329993338212873,0.6151244397213568,A,777.5624999922002,Correct,sub_016_day_06_data.csv,1,300,56.0,Training at home,,,,,,,,,,,,,
16,7,1419,A,48.666326582378105,57.18455820254032,2.433316329118905,0.8982529397393931,A,1344.0146670036484,Correct,sub_016_day_06_data.csv,1,300,56.0,Training at home,,,,,,,,,,,,,
16,7,1420,B,66.99224685404238,43.94911979551557,3.3496123427021187,0.6903511594066474,A,1308.3734579995507,Incorrect,sub_016_day_06_data.csv,0,300,56.0,Training at home,,,,,,,,,,,,,
16,7,1421,A,41.959037350325914,53.13259285627143,2.0979518675162954,0.8346048169171992,A,1601.1002080049366,Correct,sub_016_day_06_data.csv,1,300,56.0,Training at home,,,,,,,,,,,,,
16,7,1422,A,52.63358888909012,66.07044768049762,2.6316794444545057,1.037832165262201,A,847.4225829995703,Correct,sub_016_day_06_data.csv,1,300,56.0,Training at home,,,,,,,,,,,,,
16,7,1423,B,60.601240624895766,41.75732657553584,3.030062031244788,0.6559225520162661,B,2400.3724989888724,Correct,sub_016_day_06_data.csv,1,300,56.0,Training at home,,,,,,,,,,,,,
16,7,1424,B,84.72659267678335,69.22905432496793,4.236329633839167,1.0874474424114395,B,569.5396660012193,Correct,sub_016_day_06_data.csv,1,300,56.0,Training at home,,,,,,,,,,,,,
16,7,1425,A,43.48019497473737,60.37432802441077,2.174009748736869,0.9483577269345465,A,1002.4954999971668,Correct,sub_016_day_06_data.csv,1,300,57.0,Training at home,,,,,,,,,,,,,
16,7,1426,B,77.95228421823873,54.69691193634547,3.8976142109119367,0.859177083566354,B,700.3763329994399,Correct,sub_016_day_06_data.csv,1,300,57.0,Training at home,,,,,,,,,,,,,
16,7,1427,A,34.22100735696719,44.974268542379974,1.7110503678483595,0.7064541582665772,A,688.4559580066707,Correct,sub_016_day_06_data.csv,1,300,57.0,Training at home,,,,,,,,,,,,,
16,7,1428,B,58.51710491600282,36.402226515715846,2.9258552458001414,0.5718048369804224,B,2233.5307079920312,Correct,sub_016_day_06_data.csv,1,300,57.0,Training at home,,,,,,,,,,,,,
16,7,1429,A,38.972744569546336,67.14931062987974,1.9486372284773168,1.0547789048422458,A,1749.9387080024462,Correct,sub_016_day_06_data.csv,1,300,57.0,Training at home,,,,,,,,,,,,,
16,7,1430,B,83.73893399827239,56.46505852950199,4.186946699913619,0.8869510653040057,B,2104.8930830002064,Correct,sub_016_day_06_data.csv,1,300,57.0,Training at home,,,,,,,,,,,,,
16,7,1431,B,40.684134614637955,30.417901120289866,2.034206730731898,0.4778032734856169,A,609.851000001072,Incorrect,sub_016_day_06_data.csv,0,300,57.0,Training at home,,,,,,,,,,,,,
16,7,1432,A,53.41193207348606,77.83194594319372,2.670596603674303,1.2225813479486765,A,800.0743750017136,Correct,sub_016_day_06_data.csv,1,300,57.0,Training at home,,,,,,,,,,,,,
16,7,1433,B,76.78008318235761,62.49550714744426,3.8390041591178807,0.9816771306838964,B,950.3912490035872,Correct,sub_016_day_06_data.csv,1,300,57.0,Training at home,,,,,,,,,,,,,
16,7,1434,A,39.33886874898896,55.04465246956984,1.9669434374494477,0.8646393790890193,A,798.3515830128454,Correct,sub_016_day_06_data.csv,1,300,57.0,Training at home,,,,,,,,,,,,,
16,7,1435,B,79.27276482861484,61.00863858791854,3.963638241430742,0.9583214539665984,B,771.309250005288,Correct,sub_016_day_06_data.csv,1,300,57.0,Training at home,,,,,,,,,,,,,
16,7,1436,A,47.75580733270084,70.99367813042596,2.387790366635042,1.1151660883293228,A,2253.6807079886785,Correct,sub_016_day_06_data.csv,1,300,57.0,Training at home,,,,,,,,,,,,,
16,7,1437,B,75.64266786515637,54.84629650968986,3.7821333932578183,0.8615236109572458,B,1878.3983329922191,Correct,sub_016_day_06_data.csv,1,300,57.0,Training at home,,,,,,,,,,,,,
16,7,1438,B,75.17879423344068,50.7738607607977,3.758939711672034,0.7975539398025657,B,2298.575916007394,Correct,sub_016_day_06_data.csv,1,300,57.0,Training at home,,,,,,,,,,,,,
16,7,1439,B,84.60728756027845,58.841548226050776,4.230364378013922,0.924280878164053,B,676.221790999989,Correct,sub_016_day_06_data.csv,1,300,57.0,Training at home,,,,,,,,,,,,,
16,7,1440,A,49.26229190716175,69.07123201199171,2.4631145953580873,1.0849683753163466,A,2016.9712500064632,Correct,sub_016_day_06_data.csv,1,300,57.0,Training at home,,,,,,,,,,,,,
16,7,1441,A,35.06819769923918,44.65953454376939,1.753409884961959,0.7015103281772276,A,1555.365416003042,Correct,sub_016_day_06_data.csv,1,300,57.0,Training at home,,,,,,,,,,,,,
16,7,1442,B,63.97517055006243,30.98546867697263,3.198758527503122,0.4867186038180693,B,1157.5995410094038,Correct,sub_016_day_06_data.csv,1,300,57.0,Training at home,,,,,,,,,,,,,
16,7,1443,B,36.719109826059025,16.264861407853548,1.8359554913029512,0.2554878455528442,B,745.7381659914972,Correct,sub_016_day_06_data.csv,1,300,57.0,Training at home,,,,,,,,,,,,,
16,7,1444,B,44.714434624103106,20.588015927791997,2.235721731205155,0.3233957979537049,B,638.9050829893677,Correct,sub_016_day_06_data.csv,1,300,57.0,Training at home,,,,,,,,,,,,,
16,7,1445,A,61.5345444498051,87.23157041147962,3.0767272224902547,1.3702303038290258,A,537.9392080067191,Correct,sub_016_day_06_data.csv,1,300,57.0,Training at home,,,,,,,,,,,,,
16,7,1446,B,67.96356307097005,48.14606545773243,3.3981781535485025,0.7562766277063275,B,1662.7173330052756,Correct,sub_016_day_06_data.csv,1,300,57.0,Training at home,,,,,,,,,,,,,
16,7,1447,B,66.86660420888566,57.22126874501988,3.343330210444283,0.8988295875922085,B,2843.6374579905532,Correct,sub_016_day_06_data.csv,1,300,57.0,Training at home,,,,,,,,,,,,,
16,7,1448,A,66.48717286783426,83.65899642968296,3.324358643391713,1.3141124429509334,A,662.4697920051403,Correct,sub_016_day_06_data.csv,1,300,57.0,Training at home,,,,,,,,,,,,,
16,7,1449,B,53.3997321502907,40.3953477881033,2.669986607514535,0.6345286392515502,B,6528.4205000061775,Correct,sub_016_day_06_data.csv,1,300,57.0,Training at home,,,,,,,,,,,,,
16,7,1450,A,21.906076031323007,46.9428308542674,1.0953038015661505,0.7373762627523738,A,549.8419999930775,Correct,sub_016_day_06_data.csv,1,300,58.0,Training at home,,,,,,,,,,,,,
16,7,1451,B,82.39002277282145,53.21695441978204,4.1195011386410725,0.8359299652580506,B,548.8602920086123,Correct,sub_016_day_06_data.csv,1,300,58.0,Training at home,,,,,,,,,,,,,
16,7,1452,B,37.24274124019749,26.62769801411222,1.8621370620098745,0.4182669023157123,A,628.7757499958389,Incorrect,sub_016_day_06_data.csv,0,300,58.0,Training at home,,,,,,,,,,,,,
16,7,1453,A,45.54958022050779,67.25096591624605,2.2774790110253895,1.0563757023464808,A,2546.754625000176,Correct,sub_016_day_06_data.csv,1,300,58.0,Training at home,,,,,,,,,,,,,
16,7,1454,A,59.44813484887631,70.82371574200138,2.972406742443815,1.1124963253750166,A,2779.122207997716,Correct,sub_016_day_06_data.csv,1,300,58.0,Training at home,,,,,,,,,,,,,
16,7,1455,A,29.60215754320209,48.10445791977715,1.4801078771601044,0.7556230580284561,A,1310.5351660051383,Correct,sub_016_day_06_data.csv,1,300,58.0,Training at home,,,,,,,,,,,,,
16,7,1456,A,41.9664351217788,57.53129933231619,2.09832175608894,0.9036995366693996,A,550.7188329938799,Correct,sub_016_day_06_data.csv,1,300,58.0,Training at home,,,,,,,,,,,,,
16,7,1457,B,39.408709136412114,26.522113120005844,1.9704354568206055,0.4166083786774391,B,905.7257909880718,Correct,sub_016_day_06_data.csv,1,300,58.0,Training at home,,,,,,,,,,,,,
16,7,1458,B,59.09153436057183,52.17554714764028,2.954576718028591,0.8195715780802729,B,650.9717909939354,Correct,sub_016_day_06_data.csv,1,300,58.0,Training at home,,,,,,,,,,,,,
16,7,1459,A,45.70177410542685,74.08231869321843,2.2850887052713427,1.163682340837564,A,683.5379999974975,Correct,sub_016_day_06_data.csv,1,300,58.0,Training at home,,,,,,,,,,,,,
16,7,1460,A,59.21323655756804,83.48915876002985,2.9606618278784023,1.3114446390745085,A,720.6877080025151,Correct,sub_016_day_06_data.csv,1,300,58.0,Training at home,,,,,,,,,,,,,
16,7,1461,B,49.34104469528516,28.033408845209248,2.4670522347642585,0.4403477564159425,B,791.6983750037616,Correct,sub_016_day_06_data.csv,1,300,58.0,Training at home,,,,,,,,,,,,,
16,7,1462,B,44.23948065868686,21.239680719065195,2.211974032934343,0.3336321245580399,B,2227.3952919931617,Correct,sub_016_day_06_data.csv,1,300,58.0,Training at home,,,,,,,,,,,,,
16,7,1463,A,16.002121154718274,45.84292561565171,0.8001060577359138,0.7200989916659738,A,613.5652079974534,Correct,sub_016_day_06_data.csv,1,300,58.0,Training at home,,,,,,,,,,,,,
16,7,1464,A,44.39576905869296,61.35687943030436,2.2197884529346483,0.9637916083271943,A,778.8092910050182,Correct,sub_016_day_06_data.csv,1,300,58.0,Training at home,,,,,,,,,,,,,
16,7,1465,B,76.90268141694652,47.49544411029736,3.845134070847326,0.7460566914794738,B,1126.885042001959,Correct,sub_016_day_06_data.csv,1,300,58.0,Training at home,,,,,,,,,,,,,
16,7,1466,B,71.97975924045382,57.973361434281664,3.5989879620226906,0.9106434319292254,B,1474.6782909933245,Correct,sub_016_day_06_data.csv,1,300,58.0,Training at home,,,,,,,,,,,,,
16,7,1467,B,63.48721778651189,33.68973548940773,3.1743608893255946,0.5291971275745333,B,591.5699159959331,Correct,sub_016_day_06_data.csv,1,300,58.0,Training at home,,,,,,,,,,,,,
16,7,1468,B,38.00265234450255,26.83637095473447,1.9001326172251276,0.4215447292020216,B,1718.4724580001784,Correct,sub_016_day_06_data.csv,1,300,58.0,Training at home,,,,,,,,,,,,,
16,7,1469,B,74.76772286269457,43.419097329951654,3.738386143134728,0.6820255859863815,B,1033.103082998423,Correct,sub_016_day_06_data.csv,1,300,58.0,Training at home,,,,,,,,,,,,,
16,7,1470,B,75.1248262652208,49.72266300811836,3.75624131326104,0.7810417641161281,B,521.8006670038449,Correct,sub_016_day_06_data.csv,1,300,58.0,Training at home,,,,,,,,,,,,,
16,7,1471,A,66.4633993394151,86.13227942657966,3.323169966970755,1.3529626814174298,A,606.4560410013655,Correct,sub_016_day_06_data.csv,1,300,58.0,Training at home,,,,,,,,,,,,,
16,7,1472,B,45.66267686282207,21.760409292692067,2.2831338431411035,0.3418117098651423,B,2316.2012079992564,Correct,sub_016_day_06_data.csv,1,300,58.0,Training at home,,,,,,,,,,,,,
16,7,1473,A,37.75211379949728,47.56045772829201,1.887605689974864,0.7470779230028504,B,1153.5061659960777,Incorrect,sub_016_day_06_data.csv,0,300,58.0,Training at home,,,,,,,,,,,,,
16,7,1474,B,62.13630646362591,29.606189890523364,3.1068153231812956,0.465052943304263,B,585.0478329957696,Correct,sub_016_day_06_data.csv,1,300,58.0,Training at home,,,,,,,,,,,,,
16,7,1475,B,65.2878052776799,33.561804133678756,3.264390263883995,0.5271875865379237,B,1276.0291250015143,Correct,sub_016_day_06_data.csv,1,300,59.0,Training at home,,,,,,,,,,,,,
16,7,1476,B,70.83842080460134,53.28163560348192,3.541921040230067,0.8369459749157357,B,1448.680999004864,Correct,sub_016_day_06_data.csv,1,300,59.0,Training at home,,,,,,,,,,,,,
16,7,1477,A,65.25251135041898,89.21192114592274,3.2626255675209497,1.401337580423314,A,814.2410830041626,Correct,sub_016_day_06_data.csv,1,300,59.0,Training at home,,,,,,,,,,,,,
16,7,1478,A,54.64862278860184,72.16282355002971,2.7324311394300924,1.1335309816353494,A,706.9075830077054,Correct,sub_016_day_06_data.csv,1,300,59.0,Training at home,,,,,,,,,,,,,
16,7,1479,A,56.003717174455886,84.39575688298207,2.8001858587227946,1.3256854490886336,A,1817.3085000016729,Correct,sub_016_day_06_data.csv,1,300,59.0,Training at home,,,,,,,,,,,,,
16,7,1480,A,19.80101604561076,33.060153736113264,0.990050802280538,0.519307680519613,A,540.9019580110908,Correct,sub_016_day_06_data.csv,1,300,59.0,Training at home,,,,,,,,,,,,,
16,7,1481,A,28.67531247386754,40.8618400774226,1.4337656236933771,0.6418562829969591,A,649.8653330054367,Correct,sub_016_day_06_data.csv,1,300,59.0,Training at home,,,,,,,,,,,,,
16,7,1482,B,60.45400301261816,50.31487446610872,3.022700150630908,0.7903441999450992,B,885.4593739961274,Correct,sub_016_day_06_data.csv,1,300,59.0,Training at home,,,,,,,,,,,,,
16,7,1483,B,78.2677862427598,56.51501046135451,3.91338931213799,0.8877357084147082,B,1044.0417490026448,Correct,sub_016_day_06_data.csv,1,300,59.0,Training at home,,,,,,,,,,,,,
16,7,1484,B,75.81410115333041,45.05618855943211,3.79070505766652,0.7077409548853419,B,699.3405409884872,Correct,sub_016_day_06_data.csv,1,300,59.0,Training at home,,,,,,,,,,,,,
16,7,1485,B,45.01267442729125,25.226851509922092,2.2506337213645624,0.3962624568838591,B,1144.0695829951435,Correct,sub_016_day_06_data.csv,1,300,59.0,Training at home,,,,,,,,,,,,,
16,7,1486,B,34.95590560223639,21.08329252904273,1.7477952801118195,0.3311755846136259,B,1115.6846659869188,Correct,sub_016_day_06_data.csv,1,300,59.0,Training at home,,,,,,,,,,,,,
16,7,1487,B,46.178969552492234,19.459530451637363,2.3089484776246114,0.3056695895458541,B,656.6275420045713,Correct,sub_016_day_06_data.csv,1,300,59.0,Training at home,,,,,,,,,,,,,
16,7,1488,A,52.93409349395184,83.33356840016498,2.646704674697592,1.3090006314169045,A,712.4812080000993,Correct,sub_016_day_06_data.csv,1,300,59.0,Training at home,,,,,,,,,,,,,
16,7,1489,A,43.96512289286002,64.21568417317887,2.1982561446430013,1.0086976082185055,A,759.3242910079425,Correct,sub_016_day_06_data.csv,1,300,59.0,Training at home,,,,,,,,,,,,,
16,7,1490,A,64.14292385787661,81.56267309475678,3.2071461928938305,1.2811834730081688,A,741.5768330101855,Correct,sub_016_day_06_data.csv,1,300,59.0,Training at home,,,,,,,,,,,,,
16,7,1491,B,55.814231773487435,25.32983805800611,2.790711588674372,0.3978801657982557,B,715.6537499977276,Correct,sub_016_day_06_data.csv,1,300,59.0,Training at home,,,,,,,,,,,,,
16,7,1492,A,27.3552287061292,44.26684318745942,1.36776143530646,0.6953419467766696,A,1920.734583007288,Correct,sub_016_day_06_data.csv,1,300,59.0,Training at home,,,,,,,,,,,,,
16,7,1493,B,86.41113105413083,67.2600300608936,4.320556552706542,1.0565180815976598,B,723.0499170109397,Correct,sub_016_day_06_data.csv,1,300,59.0,Training at home,,,,,,,,,,,,,
16,7,1494,B,74.99873234910856,53.58412490282243,3.749936617455428,0.8416974657187243,B,1668.9076659968125,Correct,sub_016_day_06_data.csv,1,300,59.0,Training at home,,,,,,,,,,,,,
16,7,1495,A,68.06796117050874,85.38618577684957,3.403398058525437,1.3412430697730195,A,1026.2021250091493,Correct,sub_016_day_06_data.csv,1,300,59.0,Training at home,,,,,,,,,,,,,
16,7,1496,A,37.98882063498896,62.29680856434295,1.899441031749448,0.9785559806391476,A,838.5464989987668,Correct,sub_016_day_06_data.csv,1,300,59.0,Training at home,,,,,,,,,,,,,
16,7,1497,A,62.50739793320916,83.70788019232455,3.1253698966604584,1.314880307298907,A,909.538623993285,Correct,sub_016_day_06_data.csv,1,300,59.0,Training at home,,,,,,,,,,,,,
16,7,1498,B,72.2681807975112,39.23494532250344,3.613409039875561,0.6163010799458701,B,603.2837910024682,Correct,sub_016_day_06_data.csv,1,300,59.0,Training at home,,,,,,,,,,,,,
16,7,1499,A,67.48959023613283,82.66562518964133,3.374479511806641,1.2985086040009228,A,721.453374993871,Correct,sub_016_day_06_data.csv,1,300,59.0,Training at home,,,,,,,,,,,,,
