subject,day,trial,cat,x,y,xt,yt,resp,rt,fb,f_name,acc,n_trials,block,session_type,ns_left_digit,ns_right_digit,ns_left_size,ns_right_size,ns_congruent,ns_cue,ns_correct_side,ns_resp,ns_rt,ns_fb,acc_stroop,acc_stroop_mean,resp_key
16,15,3300,A,35.69841347717823,63.80235716516883,1.7849206738589114,1.0022050827590323,A,1551.1850409966428,Correct,sub_016_day_13_data.csv,1,300,132.0,Training at home,,,,,,,,,,,,,
16,15,3301,A,12.75884422273191,32.904756213578395,0.6379422111365954,0.5168667019437049,A,739.2191660183016,Correct,sub_016_day_13_data.csv,1,300,132.0,Training at home,,,,,,,,,,,,,
16,15,3302,B,57.74799698108893,45.83538697340623,2.887399849054446,0.7199805749504916,A,1690.1135829975829,Incorrect,sub_016_day_13_data.csv,0,300,132.0,Training at home,,,,,,,,,,,,,
16,15,3303,A,67.61173162433381,83.93516538343756,3.3805865812166904,1.3184504947322588,A,681.693708000239,Correct,sub_016_day_13_data.csv,1,300,132.0,Training at home,,,,,,,,,,,,,
16,15,3304,A,13.538802377467654,33.67817446752014,0.6769401188733827,0.529015527467383,A,521.5008329832926,Correct,sub_016_day_13_data.csv,1,300,132.0,Training at home,,,,,,,,,,,,,
16,15,3305,B,50.23640849857148,30.723613712204763,2.511820424928574,0.4826053956499656,A,655.3684999817051,Incorrect,sub_016_day_13_data.csv,0,300,132.0,Training at home,,,,,,,,,,,,,
16,15,3306,A,54.342378776252545,64.77139021701291,2.717118938812627,1.0174266183428278,A,649.3274169915821,Correct,sub_016_day_13_data.csv,1,300,132.0,Training at home,,,,,,,,,,,,,
16,15,3307,B,75.1518216714393,55.28951892150742,3.7575910835719646,0.8684857323216079,B,1098.315999988699,Correct,sub_016_day_13_data.csv,1,300,132.0,Training at home,,,,,,,,,,,,,
16,15,3308,A,55.8663238245674,82.02426470910835,2.7933161912283704,1.2884341371311967,A,636.8425830150954,Correct,sub_016_day_13_data.csv,1,300,132.0,Training at home,,,,,,,,,,,,,
16,15,3309,B,45.464149930031496,35.612457790357524,2.273207496501575,0.5593991788523189,B,2382.3559579905123,Correct,sub_016_day_13_data.csv,1,300,132.0,Training at home,,,,,,,,,,,,,
16,15,3310,A,30.77989080789877,61.73407725139936,1.5389945403949383,0.9697166178457048,A,878.96775000263,Correct,sub_016_day_13_data.csv,1,300,132.0,Training at home,,,,,,,,,,,,,
16,15,3311,A,24.47617934232902,46.60820813572062,1.223808967116451,0.7321200213808196,A,651.9997910072561,Correct,sub_016_day_13_data.csv,1,300,132.0,Training at home,,,,,,,,,,,,,
16,15,3312,A,57.14552299696792,81.93410260994955,2.857276149848396,1.287017874189449,A,971.1977489932906,Correct,sub_016_day_13_data.csv,1,300,132.0,Training at home,,,,,,,,,,,,,
16,15,3313,A,31.72082448693138,41.545513717826175,1.5860412243465691,0.6525954034276834,A,1661.1892909859307,Correct,sub_016_day_13_data.csv,1,300,132.0,Training at home,,,,,,,,,,,,,
16,15,3314,B,55.4781285214591,47.92809609123201,2.773906426072955,0.7528527729038007,A,478.1071660108864,Incorrect,sub_016_day_13_data.csv,0,300,132.0,Training at home,,,,,,,,,,,,,
16,15,3315,A,37.576186598037125,67.01846827906813,1.878809329901856,1.052723638001805,A,910.2498749853112,Correct,sub_016_day_13_data.csv,1,300,132.0,Training at home,,,,,,,,,,,,,
16,15,3316,A,34.47331272174752,58.72733148589812,1.723665636087376,0.9224867658051504,A,661.949416011339,Correct,sub_016_day_13_data.csv,1,300,132.0,Training at home,,,,,,,,,,,,,
16,15,3317,A,27.322125215123023,37.67951814378041,1.3661062607561514,0.5918684869565193,A,1183.2482080208138,Correct,sub_016_day_13_data.csv,1,300,132.0,Training at home,,,,,,,,,,,,,
16,15,3318,A,52.38406897877681,63.37567202582987,2.61920344893884,0.9955027282633164,A,628.0704170058016,Correct,sub_016_day_13_data.csv,1,300,132.0,Training at home,,,,,,,,,,,,,
16,15,3319,B,68.7146369220336,51.59953920234116,3.4357318461016804,0.8105236664334676,B,594.2503740079701,Correct,sub_016_day_13_data.csv,1,300,132.0,Training at home,,,,,,,,,,,,,
16,15,3320,A,59.37118158269526,68.75261748865927,2.968559079134763,1.079963590087205,A,554.6930420096032,Correct,sub_016_day_13_data.csv,1,300,132.0,Training at home,,,,,,,,,,,,,
16,15,3321,B,38.09825220885249,27.24262493240956,1.9049126104426248,0.4279261517608,B,1622.0282909926027,Correct,sub_016_day_13_data.csv,1,300,132.0,Training at home,,,,,,,,,,,,,
16,15,3322,B,82.16756225876495,59.48687344715847,4.108378112938247,0.934417623033094,A,894.9588329996914,Incorrect,sub_016_day_13_data.csv,0,300,132.0,Training at home,,,,,,,,,,,,,
16,15,3323,A,38.9249664471936,61.82272425588484,1.94624832235968,0.9711090817359768,B,913.5622490139212,Incorrect,sub_016_day_13_data.csv,0,300,132.0,Training at home,,,,,,,,,,,,,
16,15,3324,A,30.71065490607663,40.75937463072677,1.5355327453038317,0.640246759524027,A,773.3269580057822,Correct,sub_016_day_13_data.csv,1,300,132.0,Training at home,,,,,,,,,,,,,
16,15,3325,B,77.88375758613253,53.632346142354464,3.8941878793066262,0.8424549231780284,B,2641.0129999858327,Correct,sub_016_day_13_data.csv,1,300,133.0,Training at home,,,,,,,,,,,,,
16,15,3326,B,47.279160847253195,21.390295812297833,2.36395804236266,0.335997980910137,B,3893.524499988416,Correct,sub_016_day_13_data.csv,1,300,133.0,Training at home,,,,,,,,,,,,,
16,15,3327,B,69.99719213401353,43.26645691860799,3.499859606700676,0.6796279160117908,B,1130.4554999805987,Correct,sub_016_day_13_data.csv,1,300,133.0,Training at home,,,,,,,,,,,,,
16,15,3328,A,13.703937518997344,31.56617976485401,0.6851968759498672,0.4958403922558007,A,1770.7501240074637,Correct,sub_016_day_13_data.csv,1,300,133.0,Training at home,,,,,,,,,,,,,
16,15,3329,B,69.93422969798512,58.65905868506384,3.496711484899256,0.9214143391574456,B,686.0884580237325,Correct,sub_016_day_13_data.csv,1,300,133.0,Training at home,,,,,,,,,,,,,
16,15,3330,A,36.54805111189434,60.89688725748864,1.8274025555947169,0.956566068173061,A,1025.524333002977,Correct,sub_016_day_13_data.csv,1,300,133.0,Training at home,,,,,,,,,,,,,
16,15,3331,A,45.13902149853165,61.715435868440565,2.256951074926582,0.9694237996869244,A,592.6822499895934,Correct,sub_016_day_13_data.csv,1,300,133.0,Training at home,,,,,,,,,,,,,
16,15,3332,B,48.21079510390686,20.08297940564049,2.410539755195343,0.3154627028147764,B,570.3701240126975,Correct,sub_016_day_13_data.csv,1,300,133.0,Training at home,,,,,,,,,,,,,
16,15,3333,A,32.606508937699616,49.63307607226237,1.6303254468849808,0.7796345358184139,A,430.13020799844526,Correct,sub_016_day_13_data.csv,1,300,133.0,Training at home,,,,,,,,,,,,,
16,15,3334,A,20.206011549008014,44.036703946940975,1.010300577450401,0.6917269280400921,A,695.3898739884607,Correct,sub_016_day_13_data.csv,1,300,133.0,Training at home,,,,,,,,,,,,,
16,15,3335,A,23.812422686954783,49.57657872957709,1.1906211343477393,0.7787470776347771,A,931.5777489973698,Correct,sub_016_day_13_data.csv,1,300,133.0,Training at home,,,,,,,,,,,,,
16,15,3336,A,25.4661106275501,49.68721390929904,1.2733055313775052,0.7804849309739923,A,695.3554580104537,Correct,sub_016_day_13_data.csv,1,300,133.0,Training at home,,,,,,,,,,,,,
16,15,3337,B,72.71134551135097,49.38603550110979,3.635567275567548,0.775754031601056,B,1182.259708002675,Correct,sub_016_day_13_data.csv,1,300,133.0,Training at home,,,,,,,,,,,,,
16,15,3338,B,73.91396710077801,61.10795822440558,3.6956983550389,0.9598815631683228,B,518.6891240009572,Correct,sub_016_day_13_data.csv,1,300,133.0,Training at home,,,,,,,,,,,,,
16,15,3339,B,42.863616169247905,32.00391514265098,2.1431808084623953,0.5027163234913172,B,1273.080000013579,Correct,sub_016_day_13_data.csv,1,300,133.0,Training at home,,,,,,,,,,,,,
16,15,3340,A,46.46998103296984,55.58275239220694,2.3234990516484917,0.8730918329082891,A,650.7320829841774,Correct,sub_016_day_13_data.csv,1,300,133.0,Training at home,,,,,,,,,,,,,
16,15,3341,A,36.97994934190507,44.37022099275718,1.8489974670952536,0.6969658015450079,A,626.9079160119873,Correct,sub_016_day_13_data.csv,1,300,133.0,Training at home,,,,,,,,,,,,,
16,15,3342,B,30.644485214676703,13.691006040561028,1.5322242607338352,0.2150578199864,B,734.9597490101587,Correct,sub_016_day_13_data.csv,1,300,133.0,Training at home,,,,,,,,,,,,,
16,15,3343,B,36.41704200153524,18.852681607161873,1.820852100076762,0.2961372301876357,B,1326.9773749925662,Correct,sub_016_day_13_data.csv,1,300,133.0,Training at home,,,,,,,,,,,,,
16,15,3344,B,66.21893476038927,34.405487802230894,3.3109467380194637,0.5404401386133091,B,1252.3296659928749,Correct,sub_016_day_13_data.csv,1,300,133.0,Training at home,,,,,,,,,,,,,
16,15,3345,B,34.212929122956616,10.628935945152651,1.7106464561478307,0.1669589354038402,A,854.3747079966124,Incorrect,sub_016_day_13_data.csv,0,300,133.0,Training at home,,,,,,,,,,,,,
16,15,3346,A,31.293900617268772,48.50730977588006,1.5646950308634384,0.7619510401865458,B,923.2540419907308,Incorrect,sub_016_day_13_data.csv,0,300,133.0,Training at home,,,,,,,,,,,,,
16,15,3347,B,62.33519312329577,43.46912556510188,3.1167596561647883,0.6828114276664817,B,854.700624011457,Correct,sub_016_day_13_data.csv,1,300,133.0,Training at home,,,,,,,,,,,,,
16,15,3348,B,73.73337195114237,41.25211904365795,3.6866685975571185,0.647986770662837,B,1215.4789160122164,Correct,sub_016_day_13_data.csv,1,300,133.0,Training at home,,,,,,,,,,,,,
16,15,3349,A,24.27296077035032,46.64674695723156,1.213648038517516,0.7327253877735035,A,630.8202910004184,Correct,sub_016_day_13_data.csv,1,300,133.0,Training at home,,,,,,,,,,,,,
16,15,3350,B,34.29997407729191,21.19938015808688,1.7149987038645953,0.3329990848265148,B,847.3533749929629,Correct,sub_016_day_13_data.csv,1,300,134.0,Training at home,,,,,,,,,,,,,
16,15,3351,A,28.906046230092297,57.05513593855236,1.4453023115046149,0.8962199795706154,A,1161.306458001491,Correct,sub_016_day_13_data.csv,1,300,134.0,Training at home,,,,,,,,,,,,,
16,15,3352,A,42.920126610240914,59.52922110401473,2.1460063305120456,0.9350828184714756,A,639.4054580014199,Correct,sub_016_day_13_data.csv,1,300,134.0,Training at home,,,,,,,,,,,,,
16,15,3353,A,23.437028337926208,39.91970899313881,1.1718514168963103,0.6270573225314365,A,989.6116250019986,Correct,sub_016_day_13_data.csv,1,300,134.0,Training at home,,,,,,,,,,,,,
16,15,3354,A,63.54043074808863,73.30982450848428,3.177021537404432,1.151548030559056,B,670.4082490177825,Incorrect,sub_016_day_13_data.csv,0,300,134.0,Training at home,,,,,,,,,,,,,
16,15,3355,B,50.501492270502794,31.58185719257517,2.52507461352514,0.4960866527145806,B,525.3992079815362,Correct,sub_016_day_13_data.csv,1,300,134.0,Training at home,,,,,,,,,,,,,
16,15,3356,A,44.05034571870131,53.00357016898255,2.2025172859350652,0.8325781332845333,A,1573.7065830035135,Correct,sub_016_day_13_data.csv,1,300,134.0,Training at home,,,,,,,,,,,,,
16,15,3357,B,80.25847296337543,61.58533056259533,4.012923648168771,0.967380110321742,B,742.0100000163075,Correct,sub_016_day_13_data.csv,1,300,134.0,Training at home,,,,,,,,,,,,,
16,15,3358,A,45.67678547833796,66.64754702153465,2.283839273916898,1.0468972205131677,A,1244.4331659935417,Correct,sub_016_day_13_data.csv,1,300,134.0,Training at home,,,,,,,,,,,,,
16,15,3359,A,29.31253876114876,54.95494502246763,1.4656269380574378,0.8632302578050765,A,608.9292919787113,Correct,sub_016_day_13_data.csv,1,300,134.0,Training at home,,,,,,,,,,,,,
16,15,3360,A,52.321113996148554,62.91274100379471,2.6160556998074274,0.988231024773594,A,724.6717489906587,Correct,sub_016_day_13_data.csv,1,300,134.0,Training at home,,,,,,,,,,,,,
16,15,3361,A,64.2421988688713,74.16149803089473,3.212109943443565,1.164926086965364,A,2061.363999993773,Correct,sub_016_day_13_data.csv,1,300,134.0,Training at home,,,,,,,,,,,,,
16,15,3362,B,64.83487381932528,37.53130012249606,3.241743690966264,0.5895402837225366,B,812.4121250002645,Correct,sub_016_day_13_data.csv,1,300,134.0,Training at home,,,,,,,,,,,,,
16,15,3363,B,65.31757563031977,40.82531888871281,3.265878781515988,0.6412826095062039,B,1088.3395409910008,Correct,sub_016_day_13_data.csv,1,300,134.0,Training at home,,,,,,,,,,,,,
16,15,3364,B,65.32330821044934,56.8250780331081,3.266165410522467,0.8926062384423957,B,692.0878330129199,Correct,sub_016_day_13_data.csv,1,300,134.0,Training at home,,,,,,,,,,,,,
16,15,3365,B,85.1953094660539,58.071995369464986,4.2597654733026955,0.9121927701600584,B,1361.4315830054693,Correct,sub_016_day_13_data.csv,1,300,134.0,Training at home,,,,,,,,,,,,,
16,15,3366,B,80.82483444549857,67.03124696320515,4.041241722274929,1.0529243651028422,B,1068.8954999786802,Correct,sub_016_day_13_data.csv,1,300,134.0,Training at home,,,,,,,,,,,,,
16,15,3367,B,69.97974180745408,40.14345234604722,3.4989870903727036,0.6305718749003695,B,1298.4259579970967,Correct,sub_016_day_13_data.csv,1,300,134.0,Training at home,,,,,,,,,,,,,
16,15,3368,B,65.32011361175164,53.00144732980159,3.266005680587582,0.8325447878046552,B,2608.827582997037,Correct,sub_016_day_13_data.csv,1,300,134.0,Training at home,,,,,,,,,,,,,
16,15,3369,B,56.0318858914036,28.230093524051902,2.80159429457018,0.4434372721265712,B,683.130917022936,Correct,sub_016_day_13_data.csv,1,300,134.0,Training at home,,,,,,,,,,,,,
16,15,3370,B,71.9556875356352,48.62429972026243,3.5977843767817603,0.7637887139356234,B,705.5512910010293,Correct,sub_016_day_13_data.csv,1,300,134.0,Training at home,,,,,,,,,,,,,
16,15,3371,A,45.54884262563381,61.280274093764184,2.2774421312816906,0.9625882945146924,A,1633.135832991684,Correct,sub_016_day_13_data.csv,1,300,134.0,Training at home,,,,,,,,,,,,,
16,15,3372,A,31.851192396988715,56.33995640915932,1.5925596198494358,0.8849859657929204,A,1174.6850830095354,Correct,sub_016_day_13_data.csv,1,300,134.0,Training at home,,,,,,,,,,,,,
16,15,3373,B,80.77154070041536,49.99332087410217,4.038577035020768,0.7852932479331831,B,782.7232909912709,Correct,sub_016_day_13_data.csv,1,300,134.0,Training at home,,,,,,,,,,,,,
16,15,3374,B,38.42685040970341,13.524440868378736,1.9213425204851704,0.212441420380041,B,852.2671659884509,Correct,sub_016_day_13_data.csv,1,300,134.0,Training at home,,,,,,,,,,,,,
16,15,3375,B,82.36856586149895,55.62949055882813,4.118428293074947,0.873825994312786,B,2233.5474579886068,Correct,sub_016_day_13_data.csv,1,300,135.0,Training at home,,,,,,,,,,,,,
16,15,3376,B,56.8371525796457,32.33459007890178,2.841857628982285,0.5079105532435763,B,2280.5622080049943,Correct,sub_016_day_13_data.csv,1,300,135.0,Training at home,,,,,,,,,,,,,
16,15,3377,B,35.94408147919535,11.965169048870482,1.7972040739597674,0.1879484359144574,A,872.7933750196826,Incorrect,sub_016_day_13_data.csv,0,300,135.0,Training at home,,,,,,,,,,,,,
16,15,3378,B,86.21939252835783,69.83894191265284,4.310969626417892,1.0970275342363724,B,648.7768329971004,Correct,sub_016_day_13_data.csv,1,300,135.0,Training at home,,,,,,,,,,,,,
16,15,3379,A,22.162638580489514,49.60411328459935,1.1081319290244758,0.7791795894136658,A,1380.270958004985,Correct,sub_016_day_13_data.csv,1,300,135.0,Training at home,,,,,,,,,,,,,
16,15,3380,A,15.195170375366756,37.31847051148108,0.7597585187683379,0.5861971640103815,A,2958.9473330124747,Correct,sub_016_day_13_data.csv,1,300,135.0,Training at home,,,,,,,,,,,,,
16,15,3381,B,57.120853769021835,32.318223071733115,2.8560426884510917,0.5076534608961645,B,1706.008415989345,Correct,sub_016_day_13_data.csv,1,300,135.0,Training at home,,,,,,,,,,,,,
16,15,3382,A,18.458697797511036,32.581091141623446,0.9229348898755518,0.5117825828823185,A,644.7640830010641,Correct,sub_016_day_13_data.csv,1,300,135.0,Training at home,,,,,,,,,,,,,
16,15,3383,A,38.11582083820216,58.03093970992277,1.905791041910108,0.9115478693680278,A,561.3137079926673,Correct,sub_016_day_13_data.csv,1,300,135.0,Training at home,,,,,,,,,,,,,
16,15,3384,B,50.09025195904343,28.601065632384437,2.5045125979521714,0.4492644883776923,B,1172.8616249747574,Correct,sub_016_day_13_data.csv,1,300,135.0,Training at home,,,,,,,,,,,,,
16,15,3385,A,66.67945283197676,89.47814548676928,3.3339726415988378,1.405519422590365,A,668.2396670221351,Correct,sub_016_day_13_data.csv,1,300,135.0,Training at home,,,,,,,,,,,,,
16,15,3386,B,74.87293202097604,44.83033105726148,3.7436466010488014,0.704193193537455,B,568.2202499883715,Correct,sub_016_day_13_data.csv,1,300,135.0,Training at home,,,,,,,,,,,,,
16,15,3387,B,72.2020466751237,39.65077832828236,3.610102333756185,0.6228329695262461,B,793.5369579936378,Correct,sub_016_day_13_data.csv,1,300,135.0,Training at home,,,,,,,,,,,,,
16,15,3388,B,45.66796661617608,21.447151776794325,2.283398330808804,0.3368910723120116,B,1023.878332984168,Correct,sub_016_day_13_data.csv,1,300,135.0,Training at home,,,,,,,,,,,,,
16,15,3389,A,65.76738416131447,83.02926692550668,3.288369208065723,1.3042206750305887,A,841.8138329870999,Correct,sub_016_day_13_data.csv,1,300,135.0,Training at home,,,,,,,,,,,,,
16,15,3390,A,48.441489713707185,67.77149635649631,2.4220744856853593,1.064552175381781,A,1471.711624006275,Correct,sub_016_day_13_data.csv,1,300,135.0,Training at home,,,,,,,,,,,,,
16,15,3391,A,49.912276870272265,69.51106096551086,2.4956138435136133,1.0918771923624058,A,1059.1010409989394,Correct,sub_016_day_13_data.csv,1,300,135.0,Training at home,,,,,,,,,,,,,
16,15,3392,A,47.582685712668805,62.86403684876502,2.3791342856334405,0.9874659816953912,A,582.1984579961281,Correct,sub_016_day_13_data.csv,1,300,135.0,Training at home,,,,,,,,,,,,,
16,15,3393,B,56.23992739195601,25.188097827676007,2.8119963695978005,0.3956537154666399,B,1077.6539579965174,Correct,sub_016_day_13_data.csv,1,300,135.0,Training at home,,,,,,,,,,,,,
16,15,3394,B,82.84250905267828,54.70416818680683,4.142125452633914,0.859291064482064,B,1229.5873750117607,Correct,sub_016_day_13_data.csv,1,300,135.0,Training at home,,,,,,,,,,,,,
16,15,3395,A,40.82685973830246,50.07119396057346,2.041342986915123,0.786516475515036,A,2717.5950829987414,Correct,sub_016_day_13_data.csv,1,300,135.0,Training at home,,,,,,,,,,,,,
16,15,3396,B,85.09552309681979,58.96895598285208,4.2547761548409895,0.9262821945279398,B,1187.98641601461,Correct,sub_016_day_13_data.csv,1,300,135.0,Training at home,,,,,,,,,,,,,
16,15,3397,B,84.7134575003341,56.41770446266453,4.235672875016705,0.8862072293615347,A,663.3574579900596,Incorrect,sub_016_day_13_data.csv,0,300,135.0,Training at home,,,,,,,,,,,,,
16,15,3398,B,83.10639710204687,64.01648003137416,4.155319855102343,1.0055685168762136,B,1257.9253750154749,Correct,sub_016_day_13_data.csv,1,300,135.0,Training at home,,,,,,,,,,,,,
16,15,3399,A,42.133500251482864,53.01990308381404,2.106675012574143,0.8328346901107652,A,732.033207983477,Correct,sub_016_day_13_data.csv,1,300,135.0,Training at home,,,,,,,,,,,,,
16,15,3400,A,31.413653838676073,64.40899090677348,1.5706826919338035,1.0117340632892566,A,651.8040419905446,Correct,sub_016_day_13_data.csv,1,300,136.0,Training at home,,,,,,,,,,,,,
16,15,3401,B,74.79416467561273,42.17393663083136,3.739708233780637,0.6624666474619063,B,858.0274579871912,Correct,sub_016_day_13_data.csv,1,300,136.0,Training at home,,,,,,,,,,,,,
16,15,3402,A,39.57307405285017,60.76907250897283,1.978653702642508,0.9545583587982726,A,675.7860410143621,Correct,sub_016_day_13_data.csv,1,300,136.0,Training at home,,,,,,,,,,,,,
16,15,3403,A,35.539677540897564,45.0964734511403,1.7769838770448785,0.7083737484845476,A,423.33454100298695,Correct,sub_016_day_13_data.csv,1,300,136.0,Training at home,,,,,,,,,,,,,
16,15,3404,A,59.19232710718484,83.8458747097568,2.959616355359242,1.3170479201099108,A,586.0597910068464,Correct,sub_016_day_13_data.csv,1,300,136.0,Training at home,,,,,,,,,,,,,
16,15,3405,B,79.05832305044382,50.59378017857893,3.952916152522191,0.7947252406318023,B,652.1195420064032,Correct,sub_016_day_13_data.csv,1,300,136.0,Training at home,,,,,,,,,,,,,
16,15,3406,A,14.667262688083976,36.94027659461825,0.7333631344041989,0.5802565078561384,A,493.99320798693225,Correct,sub_016_day_13_data.csv,1,300,136.0,Training at home,,,,,,,,,,,,,
16,15,3407,A,29.213894778990863,57.131396572622656,1.460694738949543,0.8974178788093821,A,676.6130000178237,Correct,sub_016_day_13_data.csv,1,300,136.0,Training at home,,,,,,,,,,,,,
16,15,3408,A,56.48399470610578,68.48017372490102,2.8241997353052892,1.0756840534535093,A,633.9226659911219,Correct,sub_016_day_13_data.csv,1,300,136.0,Training at home,,,,,,,,,,,,,
16,15,3409,B,55.87824001817404,41.90662388309647,2.793912000908702,0.6582677086394322,B,875.9535830176901,Correct,sub_016_day_13_data.csv,1,300,136.0,Training at home,,,,,,,,,,,,,
16,15,3410,B,85.16590928637333,57.54332579332456,4.258295464318667,0.9038884478771626,B,567.8769999940414,Correct,sub_016_day_13_data.csv,1,300,136.0,Training at home,,,,,,,,,,,,,
16,15,3411,A,38.32402178399763,63.8567417286619,1.9162010891998815,1.003059353484725,A,1227.9842080024537,Correct,sub_016_day_13_data.csv,1,300,136.0,Training at home,,,,,,,,,,,,,
16,15,3412,A,52.24237570657954,77.70720244832654,2.6121187853289767,1.2206218817133871,A,708.5557079990394,Correct,sub_016_day_13_data.csv,1,300,136.0,Training at home,,,,,,,,,,,,,
16,15,3413,B,78.57016442411225,53.35464092707316,3.928508221205613,0.8380927398570718,B,564.409832993988,Correct,sub_016_day_13_data.csv,1,300,136.0,Training at home,,,,,,,,,,,,,
16,15,3414,B,71.0834706743966,44.25989129943916,3.5541735337198297,0.6952327467750044,B,754.362832987681,Correct,sub_016_day_13_data.csv,1,300,136.0,Training at home,,,,,,,,,,,,,
16,15,3415,B,84.35459038625157,60.89918731358618,4.217729519312579,0.9566021973697552,B,557.3369990161154,Correct,sub_016_day_13_data.csv,1,300,136.0,Training at home,,,,,,,,,,,,,
16,15,3416,A,35.448214447003345,59.62055028348809,1.7724107223501673,0.9365174138679352,A,555.4300409858115,Correct,sub_016_day_13_data.csv,1,300,136.0,Training at home,,,,,,,,,,,,,
16,15,3417,B,35.93340864299519,14.057815151324409,1.7966704321497593,0.2208196440246202,B,678.0828739865683,Correct,sub_016_day_13_data.csv,1,300,136.0,Training at home,,,,,,,,,,,,,
16,15,3418,B,70.10083986431815,52.355845858558,3.505041993215907,0.8224037036086271,B,594.9261659989133,Correct,sub_016_day_13_data.csv,1,300,136.0,Training at home,,,,,,,,,,,,,
16,15,3419,A,60.98324474520004,83.53829782692722,3.0491622372600022,1.3122165137323538,A,614.0017490251921,Correct,sub_016_day_13_data.csv,1,300,136.0,Training at home,,,,,,,,,,,,,
16,15,3420,B,84.07956923337986,67.60615414923355,4.203978461668993,1.0619549860634565,B,740.273416013224,Correct,sub_016_day_13_data.csv,1,300,136.0,Training at home,,,,,,,,,,,,,
16,15,3421,A,52.82709299948016,72.03836857248426,2.6413546499740077,1.131576047419552,A,505.6348330108449,Correct,sub_016_day_13_data.csv,1,300,136.0,Training at home,,,,,,,,,,,,,
16,15,3422,A,55.39911588183834,74.60457427978837,2.769955794091917,1.1718859124078858,A,526.3035409734584,Correct,sub_016_day_13_data.csv,1,300,136.0,Training at home,,,,,,,,,,,,,
16,15,3423,A,47.26206092879105,69.75492201027522,2.3631030464395524,1.095707752696048,A,865.7150829967577,Correct,sub_016_day_13_data.csv,1,300,136.0,Training at home,,,,,,,,,,,,,
16,15,3424,B,49.695348440707896,29.264327163960463,2.484767422035395,0.459682976152732,B,595.3808329941239,Correct,sub_016_day_13_data.csv,1,300,136.0,Training at home,,,,,,,,,,,,,
16,15,3425,B,50.37601499473422,26.476435541062408,2.518800749736711,0.4158908769452267,B,810.158499982208,Correct,sub_016_day_13_data.csv,1,300,137.0,Training at home,,,,,,,,,,,,,
16,15,3426,A,15.95770607234426,37.66967897094348,0.7978853036172129,0.5917139335910098,A,1126.5850830241106,Correct,sub_016_day_13_data.csv,1,300,137.0,Training at home,,,,,,,,,,,,,
16,15,3427,B,67.76604723672997,44.877507422475546,3.3883023618364985,0.7049342381493529,B,789.6738330018707,Correct,sub_016_day_13_data.csv,1,300,137.0,Training at home,,,,,,,,,,,,,
16,15,3428,B,36.39852395966068,12.4178239388218,1.819926197983034,0.1950587222988702,B,1230.780500016408,Correct,sub_016_day_13_data.csv,1,300,137.0,Training at home,,,,,,,,,,,,,
16,15,3429,B,79.21290683041097,63.54785651554807,3.9606453415205487,0.9982073959031204,B,584.2865000013262,Correct,sub_016_day_13_data.csv,1,300,137.0,Training at home,,,,,,,,,,,,,
16,15,3430,B,88.85225887236834,69.45968685359243,4.442612943618417,1.0910702096994678,B,1377.3264579940587,Correct,sub_016_day_13_data.csv,1,300,137.0,Training at home,,,,,,,,,,,,,
16,15,3431,B,70.83491254936845,51.52290152129214,3.541745627468423,0.8093198445546087,B,3268.622040981427,Correct,sub_016_day_13_data.csv,1,300,137.0,Training at home,,,,,,,,,,,,,
16,15,3432,A,26.99263832024381,55.61170946730547,1.3496319160121906,0.8735466895802839,A,487.55208298098296,Correct,sub_016_day_13_data.csv,1,300,137.0,Training at home,,,,,,,,,,,,,
16,15,3433,B,73.27507429550406,50.38749865435383,3.663753714775203,0.7914849780264178,B,677.9853329935577,Correct,sub_016_day_13_data.csv,1,300,137.0,Training at home,,,,,,,,,,,,,
16,15,3434,B,70.03739451471367,39.76354777263013,3.5018697257356837,0.624604347815808,B,603.0560829967726,Correct,sub_016_day_13_data.csv,1,300,137.0,Training at home,,,,,,,,,,,,,
16,15,3435,B,60.55453361293523,50.529136645829496,3.0277266806467615,0.7937098223938637,B,873.1144990015309,Correct,sub_016_day_13_data.csv,1,300,137.0,Training at home,,,,,,,,,,,,,
16,15,3436,A,17.290431815842364,35.900795834462414,0.8645215907921182,0.5639283822578709,A,1651.29199999501,Correct,sub_016_day_13_data.csv,1,300,137.0,Training at home,,,,,,,,,,,,,
16,15,3437,A,31.417012219105324,55.61065365224783,1.570850610955266,0.8735301048761408,A,1178.5604169999715,Correct,sub_016_day_13_data.csv,1,300,137.0,Training at home,,,,,,,,,,,,,
16,15,3438,B,80.08880154943056,56.896804790918935,4.004440077471528,0.8937329197194173,B,2495.9832910099067,Correct,sub_016_day_13_data.csv,1,300,137.0,Training at home,,,,,,,,,,,,,
16,15,3439,B,85.28571809746288,65.81603591544935,4.2642859048731445,1.033835874601888,B,1232.9176249913871,Correct,sub_016_day_13_data.csv,1,300,137.0,Training at home,,,,,,,,,,,,,
16,15,3440,B,57.84821897665616,51.05807033657873,2.892410948832808,0.8020182933793333,A,2143.341123999562,Incorrect,sub_016_day_13_data.csv,0,300,137.0,Training at home,,,,,,,,,,,,,
16,15,3441,B,72.68750183711208,61.30764953682807,3.634375091855605,0.9630183069687838,B,2486.2012490048073,Correct,sub_016_day_13_data.csv,1,300,137.0,Training at home,,,,,,,,,,,,,
16,15,3442,A,61.1227220692716,75.13693045379301,3.0561361034635803,1.1802481436346166,A,1935.2051239984576,Correct,sub_016_day_13_data.csv,1,300,137.0,Training at home,,,,,,,,,,,,,
16,15,3443,A,13.845946334018771,40.66385114348607,0.6922973167009387,0.6387462800952238,A,958.9765419950708,Correct,sub_016_day_13_data.csv,1,300,137.0,Training at home,,,,,,,,,,,,,
16,15,3444,B,79.26993820208858,63.37480091570973,3.9634969101044297,0.9954890448975467,B,2277.7043329842854,Correct,sub_016_day_13_data.csv,1,300,137.0,Training at home,,,,,,,,,,,,,
16,15,3445,A,37.133736415563,54.2042858539534,1.85668682077815,0.8514389311593058,A,767.8251239995006,Correct,sub_016_day_13_data.csv,1,300,137.0,Training at home,,,,,,,,,,,,,
16,15,3446,B,69.81094073434534,41.92125236135766,3.4905470367172664,0.658497492238625,B,714.3052920000628,Correct,sub_016_day_13_data.csv,1,300,137.0,Training at home,,,,,,,,,,,,,
16,15,3447,B,54.402050033893175,27.021064661681592,2.7201025016946585,0.4244458911665683,B,971.5896660054568,Correct,sub_016_day_13_data.csv,1,300,137.0,Training at home,,,,,,,,,,,,,
16,15,3448,A,51.70299355436421,60.200379509363174,2.5851496777182104,0.9456253500496642,A,626.103916001739,Correct,sub_016_day_13_data.csv,1,300,137.0,Training at home,,,,,,,,,,,,,
16,15,3449,B,59.06686990246177,42.36944633822236,2.9533434951230886,0.6655377067641317,A,1507.2582080028951,Incorrect,sub_016_day_13_data.csv,0,300,137.0,Training at home,,,,,,,,,,,,,
16,15,3450,A,47.103217742556055,67.32709417268055,2.355160887127803,1.0575715222022068,A,820.7928329939023,Correct,sub_016_day_13_data.csv,1,300,138.0,Training at home,,,,,,,,,,,,,
16,15,3451,A,34.097011956864,42.15463030599939,1.7048505978432005,0.6621633844206066,B,1326.953374984441,Incorrect,sub_016_day_13_data.csv,0,300,138.0,Training at home,,,,,,,,,,,,,
16,15,3452,A,54.66467073214048,69.1396237035415,2.7332335366070244,1.0860426694950436,A,678.4040830098093,Correct,sub_016_day_13_data.csv,1,300,138.0,Training at home,,,,,,,,,,,,,
16,15,3453,B,61.09415545188501,46.95782621526152,3.0547077725942504,0.7376118093320589,A,1737.1096659917384,Incorrect,sub_016_day_13_data.csv,0,300,138.0,Training at home,,,,,,,,,,,,,
16,15,3454,A,64.85856638756384,80.97567333438184,3.242928319378192,1.2719629023339043,A,1137.6489989925176,Correct,sub_016_day_13_data.csv,1,300,138.0,Training at home,,,,,,,,,,,,,
16,15,3455,B,67.56438134591906,38.11186869629571,3.378219067295953,0.5986598335543072,B,2986.868873995263,Correct,sub_016_day_13_data.csv,1,300,138.0,Training at home,,,,,,,,,,,,,
16,15,3456,A,30.04575670478227,45.37918814418066,1.5022878352391134,0.712814620498135,A,790.6903750263155,Correct,sub_016_day_13_data.csv,1,300,138.0,Training at home,,,,,,,,,,,,,
16,15,3457,A,34.28201889905079,65.51469438635709,1.7141009449525395,1.0291024129317996,A,638.4326250117738,Correct,sub_016_day_13_data.csv,1,300,138.0,Training at home,,,,,,,,,,,,,
16,15,3458,A,64.88916773083524,86.75498920996348,3.244458386541762,1.3627441838214154,A,658.121749991551,Correct,sub_016_day_13_data.csv,1,300,138.0,Training at home,,,,,,,,,,,,,
16,15,3459,B,69.44679982645556,43.9374872281924,3.472339991322778,0.6901684354664229,B,748.7182500190102,Correct,sub_016_day_13_data.csv,1,300,138.0,Training at home,,,,,,,,,,,,,
16,15,3460,A,58.31646371340663,80.29483200240756,2.9158231856703316,1.2612682716999508,A,722.5327079941053,Correct,sub_016_day_13_data.csv,1,300,138.0,Training at home,,,,,,,,,,,,,
16,15,3461,B,57.383175459982546,33.42019107743176,2.869158772999127,0.5249631338521338,B,2135.1921659952495,Correct,sub_016_day_13_data.csv,1,300,138.0,Training at home,,,,,,,,,,,,,
16,15,3462,B,48.29049077743833,29.39827489524446,2.4145245388719165,0.4617870221955661,B,3797.2223329998087,Correct,sub_016_day_13_data.csv,1,300,138.0,Training at home,,,,,,,,,,,,,
16,15,3463,A,50.568400463214395,66.8092916002729,2.5284200231607197,1.049437898414778,A,444.12324897712097,Correct,sub_016_day_13_data.csv,1,300,138.0,Training at home,,,,,,,,,,,,,
16,15,3464,A,29.626126188570147,57.63272281590816,1.4813063094285073,0.9052926930241696,A,1702.5981670012698,Correct,sub_016_day_13_data.csv,1,300,138.0,Training at home,,,,,,,,,,,,,
16,15,3465,A,33.95216237704611,55.228993645414285,1.6976081188523051,0.8675350035079544,A,3455.96024999395,Correct,sub_016_day_13_data.csv,1,300,138.0,Training at home,,,,,,,,,,,,,
16,15,3466,A,32.0761326157766,56.14493097776478,1.60380663078883,0.8819225134802592,A,551.9089580047876,Correct,sub_016_day_13_data.csv,1,300,138.0,Training at home,,,,,,,,,,,,,
16,15,3467,B,58.95244777544245,32.48724018498134,2.947622388772122,0.5103083755027225,B,5712.552665994735,Correct,sub_016_day_13_data.csv,1,300,138.0,Training at home,,,,,,,,,,,,,
16,15,3468,A,29.41106416592592,58.22013538274142,1.470553208296296,0.914519748047118,A,522.1114160085563,Correct,sub_016_day_13_data.csv,1,300,138.0,Training at home,,,,,,,,,,,,,
16,15,3469,A,46.91097935594928,69.53244143406063,2.345548967797464,1.092213035977037,A,541.9449580076616,Correct,sub_016_day_13_data.csv,1,300,138.0,Training at home,,,,,,,,,,,,,
16,15,3470,A,44.52900827966113,70.57955910557817,2.2264504139830565,1.1086611218984548,B,787.1012079995126,Incorrect,sub_016_day_13_data.csv,0,300,138.0,Training at home,,,,,,,,,,,,,
16,15,3471,B,38.43624809846621,23.67644008930742,1.9218124049233103,0.3719086512386353,B,1228.3938330074309,Correct,sub_016_day_13_data.csv,1,300,138.0,Training at home,,,,,,,,,,,,,
16,15,3472,B,67.68387911991567,54.22106528065141,3.3841939559957837,0.8517025017775353,B,597.9442909883801,Correct,sub_016_day_13_data.csv,1,300,138.0,Training at home,,,,,,,,,,,,,
16,15,3473,A,24.02856953262182,46.70788475908133,1.201428476631091,0.7336857381192429,A,563.4655829926487,Correct,sub_016_day_13_data.csv,1,300,138.0,Training at home,,,,,,,,,,,,,
16,15,3474,A,49.38397164948148,76.15911606207949,2.469198582474074,1.1963045976226068,A,645.2571660047397,Correct,sub_016_day_13_data.csv,1,300,138.0,Training at home,,,,,,,,,,,,,
16,15,3475,A,58.05871365758495,67.81334478257331,2.9029356828792476,1.0652095289214203,A,1352.840791019844,Correct,sub_016_day_13_data.csv,1,300,139.0,Training at home,,,,,,,,,,,,,
16,15,3476,B,73.72761836361039,56.75884916980239,3.68638091818052,0.8915659178903116,B,3007.9748750140425,Correct,sub_016_day_13_data.csv,1,300,139.0,Training at home,,,,,,,,,,,,,
16,15,3477,A,13.359524903664871,38.81016250658877,0.6679762451832437,0.6096286070766266,A,1704.0077080018818,Correct,sub_016_day_13_data.csv,1,300,139.0,Training at home,,,,,,,,,,,,,
16,15,3478,B,52.617765792645685,34.542528786680066,2.630888289632284,0.5425927733632403,A,806.8864999804646,Incorrect,sub_016_day_13_data.csv,0,300,139.0,Training at home,,,,,,,,,,,,,
16,15,3479,A,48.08845155172956,69.21392165209234,2.4044225775864785,1.087209738941764,A,1394.5980000135023,Correct,sub_016_day_13_data.csv,1,300,139.0,Training at home,,,,,,,,,,,,,
16,15,3480,A,52.07161673551903,60.12018043720808,2.603580836775951,0.9443655859701284,B,1177.1591249853373,Incorrect,sub_016_day_13_data.csv,0,300,139.0,Training at home,,,,,,,,,,,,,
16,15,3481,A,43.428172803004784,63.936704671755955,2.171408640150239,1.0043154084576438,A,419.90449899458326,Correct,sub_016_day_13_data.csv,1,300,139.0,Training at home,,,,,,,,,,,,,
16,15,3482,B,70.66836433608557,53.44624281675932,3.5334182168042787,0.8395316189755367,B,622.5136249850038,Correct,sub_016_day_13_data.csv,1,300,139.0,Training at home,,,,,,,,,,,,,
16,15,3483,A,57.81485038025802,85.8994088657253,2.890742519012901,1.3493047592013427,A,741.9652500248048,Correct,sub_016_day_13_data.csv,1,300,139.0,Training at home,,,,,,,,,,,,,
16,15,3484,B,71.46348137373806,39.50918399728912,3.5731740686869036,0.6206088109760546,B,1544.0275830042085,Correct,sub_016_day_13_data.csv,1,300,139.0,Training at home,,,,,,,,,,,,,
16,15,3485,B,54.6478247071206,33.991489600850166,2.7323912353560296,0.5339370700730237,B,1353.1566240126267,Correct,sub_016_day_13_data.csv,1,300,139.0,Training at home,,,,,,,,,,,,,
16,15,3486,A,51.55703977726811,63.30230954186863,2.5778519888634053,0.994350353060008,A,1486.0964170075022,Correct,sub_016_day_13_data.csv,1,300,139.0,Training at home,,,,,,,,,,,,,
16,15,3487,B,62.09938363565111,34.83198663820591,3.104969181782556,0.5471395666626278,B,1193.513541977154,Correct,sub_016_day_13_data.csv,1,300,139.0,Training at home,,,,,,,,,,,,,
16,15,3488,B,55.09072686147975,42.739719606270675,2.754536343073988,0.671353945657738,A,751.0592080070637,Incorrect,sub_016_day_13_data.csv,0,300,139.0,Training at home,,,,,,,,,,,,,
16,15,3489,B,52.69440087514566,39.86004357019973,2.6347200437572833,0.6261201002595427,B,694.4362500216812,Correct,sub_016_day_13_data.csv,1,300,139.0,Training at home,,,,,,,,,,,,,
16,15,3490,A,16.70635246516336,35.112408569029526,0.835317623258168,0.5515444240515323,A,854.7215419821441,Correct,sub_016_day_13_data.csv,1,300,139.0,Training at home,,,,,,,,,,,,,
16,15,3491,B,37.18178392458649,11.474529611504622,1.8590891962293243,0.1802414896545072,B,862.2684169968124,Correct,sub_016_day_13_data.csv,1,300,139.0,Training at home,,,,,,,,,,,,,
16,15,3492,B,46.098870120761845,29.714659825995753,2.304943506038092,0.4667567850663401,B,1325.9417910012417,Correct,sub_016_day_13_data.csv,1,300,139.0,Training at home,,,,,,,,,,,,,
16,15,3493,A,46.65181239316538,62.42085565666688,2.332590619658269,0.980504507808868,A,985.9066240023822,Correct,sub_016_day_13_data.csv,1,300,139.0,Training at home,,,,,,,,,,,,,
16,15,3494,A,25.52350447312251,54.54210629207799,1.2761752236561257,0.8567454021925293,A,1756.3721250044182,Correct,sub_016_day_13_data.csv,1,300,139.0,Training at home,,,,,,,,,,,,,
16,15,3495,B,61.071237321845835,42.007872325729416,3.0535618660922914,0.6598581154572476,B,910.194500000216,Correct,sub_016_day_13_data.csv,1,300,139.0,Training at home,,,,,,,,,,,,,
16,15,3496,B,61.13983824336798,48.0168376726154,3.056991912168399,0.7542467224045108,A,1872.551374981413,Incorrect,sub_016_day_13_data.csv,0,300,139.0,Training at home,,,,,,,,,,,,,
16,15,3497,A,36.891321414849735,48.10430565263967,1.844566070742487,0.7556206662218538,A,791.6837490047328,Correct,sub_016_day_13_data.csv,1,300,139.0,Training at home,,,,,,,,,,,,,
16,15,3498,A,26.995160484462865,59.98955424807469,1.3497580242231433,0.9423137145893892,A,611.7633329995442,Correct,sub_016_day_13_data.csv,1,300,139.0,Training at home,,,,,,,,,,,,,
16,15,3499,A,21.803864507295103,35.62077491481406,1.0901932253647553,0.5595298239377772,A,982.3577500064856,Correct,sub_016_day_13_data.csv,1,300,139.0,Training at home,,,,,,,,,,,,,
16,15,3500,B,73.49817923798511,48.21651347868796,3.674908961899256,0.7573832226317966,B,881.662250001682,Correct,sub_016_day_13_data.csv,1,300,140.0,Training at home,,,,,,,,,,,,,
16,15,3501,A,36.035034834310785,57.239915334875704,1.801751741715539,0.8991224875407362,A,510.84824901772663,Correct,sub_016_day_13_data.csv,1,300,140.0,Training at home,,,,,,,,,,,,,
16,15,3502,A,30.846215127191744,58.91247003260631,1.5423107563595873,0.925394915296324,A,595.6741660193074,Correct,sub_016_day_13_data.csv,1,300,140.0,Training at home,,,,,,,,,,,,,
16,15,3503,B,82.54937936125364,57.50344623468747,4.127468968062682,0.903262021234949,B,761.982291995082,Correct,sub_016_day_13_data.csv,1,300,140.0,Training at home,,,,,,,,,,,,,
16,15,3504,A,23.037801974158864,47.97489889667644,1.1518900987079432,0.7535879496525589,A,608.1419159891084,Correct,sub_016_day_13_data.csv,1,300,140.0,Training at home,,,,,,,,,,,,,
16,15,3505,B,40.50325575903837,24.765473128171067,2.0251627879519187,0.3890151422106883,A,2081.0944989789277,Incorrect,sub_016_day_13_data.csv,0,300,140.0,Training at home,,,,,,,,,,,,,
16,15,3506,A,58.10460571550699,69.21941500189068,2.9052302857753496,1.0872960282786144,A,700.0190410180949,Correct,sub_016_day_13_data.csv,1,300,140.0,Training at home,,,,,,,,,,,,,
16,15,3507,A,54.678013201169165,75.21313449249976,2.7339006600584583,1.1814451538754918,A,658.1210409931373,Correct,sub_016_day_13_data.csv,1,300,140.0,Training at home,,,,,,,,,,,,,
16,15,3508,A,24.5059306482344,55.74311155949012,1.22529653241172,0.8756107488176522,A,700.7228750153445,Correct,sub_016_day_13_data.csv,1,300,140.0,Training at home,,,,,,,,,,,,,
16,15,3509,A,20.381393822559694,43.20767295643056,1.0190696911279848,0.6787045396931631,A,1189.3326249846723,Correct,sub_016_day_13_data.csv,1,300,140.0,Training at home,,,,,,,,,,,,,
16,15,3510,B,80.96542923061462,60.09702191810697,4.048271461530731,0.944001812802748,B,930.4777499928604,Correct,sub_016_day_13_data.csv,1,300,140.0,Training at home,,,,,,,,,,,,,
16,15,3511,B,63.560963719232525,53.187642268756434,3.1780481859616265,0.8354695310664358,B,1502.324833010789,Correct,sub_016_day_13_data.csv,1,300,140.0,Training at home,,,,,,,,,,,,,
16,15,3512,B,42.41187457190148,15.435750290357724,2.120593728595074,0.2424641985741717,B,967.0692079816944,Correct,sub_016_day_13_data.csv,1,300,140.0,Training at home,,,,,,,,,,,,,
16,15,3513,B,84.10897384414343,64.54827864841131,4.205448692207171,1.0139219900185794,B,670.1614999910817,Correct,sub_016_day_13_data.csv,1,300,140.0,Training at home,,,,,,,,,,,,,
16,15,3514,A,42.194765885208895,64.7491347729298,2.109738294260445,1.0170770306446584,A,534.8727910022717,Correct,sub_016_day_13_data.csv,1,300,140.0,Training at home,,,,,,,,,,,,,
16,15,3515,A,23.407382709328136,52.08399205849984,1.1703691354664068,0.818133434103061,A,831.6589159949217,Correct,sub_016_day_13_data.csv,1,300,140.0,Training at home,,,,,,,,,,,,,
16,15,3516,B,44.22957157491826,34.50082712544963,2.211478578745913,0.5419377252004202,A,2184.0858749928884,Incorrect,sub_016_day_13_data.csv,0,300,140.0,Training at home,,,,,,,,,,,,,
16,15,3517,B,50.70113588843242,36.74985472047365,2.535056794421621,0.577265368051661,B,1152.519042021595,Correct,sub_016_day_13_data.csv,1,300,140.0,Training at home,,,,,,,,,,,,,
16,15,3518,A,22.643952850689068,42.94741492298341,1.132197642534453,0.6746164160635867,A,1472.0696239965037,Correct,sub_016_day_13_data.csv,1,300,140.0,Training at home,,,,,,,,,,,,,
16,15,3519,B,34.91991011198668,10.285263532047622,1.745995505599334,0.161560541762579,B,617.2285829961766,Correct,sub_016_day_13_data.csv,1,300,140.0,Training at home,,,,,,,,,,,,,
16,15,3520,B,43.15290283166215,15.36308796422042,2.1576451415831075,0.2413228214242431,B,621.0491250094492,Correct,sub_016_day_13_data.csv,1,300,140.0,Training at home,,,,,,,,,,,,,
16,15,3521,A,20.19325394943911,40.79069409615877,1.0096626974719556,0.6407387245366046,A,2920.5198750132695,Correct,sub_016_day_13_data.csv,1,300,140.0,Training at home,,,,,,,,,,,,,
16,15,3522,A,55.98095585176724,79.12242959283503,2.799047792588362,1.2428522177151309,A,672.1369579900056,Correct,sub_016_day_13_data.csv,1,300,140.0,Training at home,,,,,,,,,,,,,
16,15,3523,A,50.584189158653224,68.60939477557969,2.5292094579326614,1.0777138529710155,A,872.7091670152731,Correct,sub_016_day_13_data.csv,1,300,140.0,Training at home,,,,,,,,,,,,,
16,15,3524,B,40.7102019394752,12.65885407572484,2.03551009697376,0.1988448148358118,B,618.650999997044,Correct,sub_016_day_13_data.csv,1,300,140.0,Training at home,,,,,,,,,,,,,
16,15,3525,B,87.0821065337972,64.99360884161253,4.35410532668986,1.0209172203354926,B,786.1422920250334,Correct,sub_016_day_13_data.csv,1,300,141.0,Training at home,,,,,,,,,,,,,
16,15,3526,B,60.58921353259174,50.20955360372966,3.0294606766295873,0.7886898237075002,A,567.5844580109697,Incorrect,sub_016_day_13_data.csv,0,300,141.0,Training at home,,,,,,,,,,,,,
16,15,3527,B,61.751122434615624,48.66701935334585,3.087556121730781,0.764459752362918,A,943.737333000172,Incorrect,sub_016_day_13_data.csv,0,300,141.0,Training at home,,,,,,,,,,,,,
16,15,3528,B,82.00591705563338,57.48816890458417,4.100295852781669,0.903022045494854,B,504.5653749839403,Correct,sub_016_day_13_data.csv,1,300,141.0,Training at home,,,,,,,,,,,,,
16,15,3529,B,52.46079215825783,45.16167303578954,2.623039607912892,0.7093979011653034,B,1893.792291986756,Correct,sub_016_day_13_data.csv,1,300,141.0,Training at home,,,,,,,,,,,,,
16,15,3530,A,21.6231863327183,45.555764103768894,1.081159316635915,0.7155882691853498,A,1619.291290990077,Correct,sub_016_day_13_data.csv,1,300,141.0,Training at home,,,,,,,,,,,,,
16,15,3531,A,29.45957620724286,45.929279530397835,1.472978810362143,0.7214554357868496,A,593.936165998457,Correct,sub_016_day_13_data.csv,1,300,141.0,Training at home,,,,,,,,,,,,,
16,15,3532,A,38.75005684536957,66.68880756107987,1.9375028422684784,1.04754533955276,A,484.6611249959096,Correct,sub_016_day_13_data.csv,1,300,141.0,Training at home,,,,,,,,,,,,,
16,15,3533,A,19.758678610124697,34.34590760507656,0.9879339305062348,0.5395042550649116,A,588.116541999625,Correct,sub_016_day_13_data.csv,1,300,141.0,Training at home,,,,,,,,,,,,,
16,15,3534,B,39.908490440108494,27.542592373573044,1.9954245220054248,0.4326380293081767,A,566.9184160069562,Incorrect,sub_016_day_13_data.csv,0,300,141.0,Training at home,,,,,,,,,,,,,
16,15,3535,B,47.31184796705706,22.9851817905967,2.3655923983528533,0.3610503912738224,B,807.0630409929436,Correct,sub_016_day_13_data.csv,1,300,141.0,Training at home,,,,,,,,,,,,,
16,15,3536,A,33.40725164857684,56.31540362816397,1.670362582428842,0.8846002916109197,A,618.8286250107922,Correct,sub_016_day_13_data.csv,1,300,141.0,Training at home,,,,,,,,,,,,,
16,15,3537,B,52.53650781797259,21.584092218397565,2.6268253908986297,0.3390421277386121,B,880.4067489982117,Correct,sub_016_day_13_data.csv,1,300,141.0,Training at home,,,,,,,,,,,,,
16,15,3538,A,40.499991889116735,53.20796072169698,2.0249995944558368,0.8357886925788874,A,5474.793541012332,Correct,sub_016_day_13_data.csv,1,300,141.0,Training at home,,,,,,,,,,,,,
16,15,3539,B,83.12564388443184,69.12566175087466,4.156282194221592,1.0858233556554038,B,787.8127080039121,Correct,sub_016_day_13_data.csv,1,300,141.0,Training at home,,,,,,,,,,,,,
16,15,3540,B,46.23321016860905,32.17189260396347,2.311660508430452,0.5053549072834572,B,2643.500500009395,Correct,sub_016_day_13_data.csv,1,300,141.0,Training at home,,,,,,,,,,,,,
16,15,3541,A,53.30056888150391,71.2023237968512,2.6650284440751957,1.118443486793547,A,1062.191208009608,Correct,sub_016_day_13_data.csv,1,300,141.0,Training at home,,,,,,,,,,,,,
16,15,3542,B,37.67722648055471,25.049950953840806,1.883861324027735,0.3934837094468545,A,825.8946250134613,Incorrect,sub_016_day_13_data.csv,0,300,141.0,Training at home,,,,,,,,,,,,,
16,15,3543,B,41.045032806779055,29.553105821409225,2.052251640338953,0.4642191006965048,A,648.9573330036364,Incorrect,sub_016_day_13_data.csv,0,300,141.0,Training at home,,,,,,,,,,,,,
16,15,3544,B,63.99159601031375,52.06705146717687,3.1995798005156875,0.8178673319168226,B,1797.5097080052365,Correct,sub_016_day_13_data.csv,1,300,141.0,Training at home,,,,,,,,,,,,,
16,15,3545,A,28.556978614171957,38.59302765239181,1.427848930708598,0.6062178607627093,A,1310.3480419958942,Correct,sub_016_day_13_data.csv,1,300,141.0,Training at home,,,,,,,,,,,,,
16,15,3546,B,67.51602266848968,36.8598418029847,3.375801133424484,0.5789930411036934,B,671.5800410020165,Correct,sub_016_day_13_data.csv,1,300,141.0,Training at home,,,,,,,,,,,,,
16,15,3547,B,87.43967619181998,69.66539892181444,4.371983809591,1.0943015273108725,B,1326.3167499972042,Correct,sub_016_day_13_data.csv,1,300,141.0,Training at home,,,,,,,,,,,,,
16,15,3548,A,12.828259031258426,32.62080580607767,0.6414129515629213,0.5124064193727644,A,717.7978330000769,Correct,sub_016_day_13_data.csv,1,300,141.0,Training at home,,,,,,,,,,,,,
16,15,3549,A,35.889283734000415,47.395167960795035,1.7944641867000206,0.7444815574064401,A,2507.4243329872843,Correct,sub_016_day_13_data.csv,1,300,141.0,Training at home,,,,,,,,,,,,,
16,15,3550,B,46.09771737100611,36.5441590042565,2.304885868550306,0.5740343072969476,A,740.7426240097266,Incorrect,sub_016_day_13_data.csv,0,300,142.0,Training at home,,,,,,,,,,,,,
16,15,3551,A,58.351148852585254,77.49127902206047,2.9175574426292625,1.2172301644649102,A,670.6183330097701,Correct,sub_016_day_13_data.csv,1,300,142.0,Training at home,,,,,,,,,,,,,
16,15,3552,B,69.07681242314995,55.80743190971085,3.453840621157497,0.8766210905163009,B,764.5980410161428,Correct,sub_016_day_13_data.csv,1,300,142.0,Training at home,,,,,,,,,,,,,
16,15,3553,B,46.416694324901755,17.021413180646462,2.3208347162450877,0.267371733010177,B,606.9731249881443,Correct,sub_016_day_13_data.csv,1,300,142.0,Training at home,,,,,,,,,,,,,
16,15,3554,A,39.659097955066834,58.54935560825902,1.9829548977533415,0.9196911272566144,A,592.274749011267,Correct,sub_016_day_13_data.csv,1,300,142.0,Training at home,,,,,,,,,,,,,
16,15,3555,B,68.16179582249892,42.21409625568404,3.4080897911249455,0.6630974733739469,B,916.2870410073084,Correct,sub_016_day_13_data.csv,1,300,142.0,Training at home,,,,,,,,,,,,,
16,15,3556,A,60.99785529848741,81.24992743353255,3.049892764924371,1.276270875649448,A,732.7987500175368,Correct,sub_016_day_13_data.csv,1,300,142.0,Training at home,,,,,,,,,,,,,
16,15,3557,B,39.88644357920952,19.197054895740653,1.994322178960476,0.301546633155094,B,907.9591250047088,Correct,sub_016_day_13_data.csv,1,300,142.0,Training at home,,,,,,,,,,,,,
16,15,3558,A,55.97701683056869,66.87990723967519,2.7988508415284343,1.050547126284652,A,1126.5962079924066,Correct,sub_016_day_13_data.csv,1,300,142.0,Training at home,,,,,,,,,,,,,
16,15,3559,B,49.84990071394404,38.82779950913727,2.492495035697202,0.6099056484648151,A,869.8441669985186,Incorrect,sub_016_day_13_data.csv,0,300,142.0,Training at home,,,,,,,,,,,,,
16,15,3560,A,43.5741828273017,70.61366490387415,2.1787091413650845,1.109196854525312,A,577.005040977383,Correct,sub_016_day_13_data.csv,1,300,142.0,Training at home,,,,,,,,,,,,,
16,15,3561,A,48.2823202342996,64.20260947173499,2.4141160117149796,1.0084922312884854,A,607.7068750164472,Correct,sub_016_day_13_data.csv,1,300,142.0,Training at home,,,,,,,,,,,,,
16,15,3562,A,53.48515798333206,76.75695810286798,2.674257899166603,1.205695478439348,A,529.1225000109989,Correct,sub_016_day_13_data.csv,1,300,142.0,Training at home,,,,,,,,,,,,,
16,15,3563,B,53.29789707435217,27.966199899406067,2.6648948537176085,0.4392920407639885,B,1297.6045419927686,Correct,sub_016_day_13_data.csv,1,300,142.0,Training at home,,,,,,,,,,,,,
16,15,3564,B,32.096371903794854,17.639275931720118,1.604818595189743,0.2770770984086758,A,1020.923041010974,Incorrect,sub_016_day_13_data.csv,0,300,142.0,Training at home,,,,,,,,,,,,,
16,15,3565,B,81.81488183961487,62.309433315753225,4.090744091980744,0.9787542897705672,B,537.4984160007443,Correct,sub_016_day_13_data.csv,1,300,142.0,Training at home,,,,,,,,,,,,,
16,15,3566,B,38.54765723888855,17.536440350941547,1.927382861944427,0.2754617608831678,B,1022.1329579944722,Correct,sub_016_day_13_data.csv,1,300,142.0,Training at home,,,,,,,,,,,,,
16,15,3567,A,51.10335356134185,78.4431461621119,2.5551676780670927,1.2321820585368055,A,443.7557499913965,Correct,sub_016_day_13_data.csv,1,300,142.0,Training at home,,,,,,,,,,,,,
16,15,3568,B,45.479338454180315,37.00865447047756,2.273966922709016,0.5813305850184768,B,742.8089579916559,Correct,sub_016_day_13_data.csv,1,300,142.0,Training at home,,,,,,,,,,,,,
16,15,3569,B,59.70009583291212,52.79382795495245,2.985004791645606,0.8292835102908103,B,953.5501249774824,Correct,sub_016_day_13_data.csv,1,300,142.0,Training at home,,,,,,,,,,,,,
16,15,3570,A,15.16845191785751,40.98898380677328,0.7584225958928755,0.6438534520273497,A,495.9356659965124,Correct,sub_016_day_13_data.csv,1,300,142.0,Training at home,,,,,,,,,,,,,
16,15,3571,B,62.92746886208597,44.92853950664619,3.1463734431042987,0.7057358482529924,A,2614.0585420071147,Incorrect,sub_016_day_13_data.csv,0,300,142.0,Training at home,,,,,,,,,,,,,
16,15,3572,B,58.97557290175461,31.71324810146446,2.9487786450877302,0.498150536285156,B,661.7985000193585,Correct,sub_016_day_13_data.csv,1,300,142.0,Training at home,,,,,,,,,,,,,
16,15,3573,A,55.00527009200782,76.05136287129665,2.750263504600391,1.1946120144597854,A,720.4717080167029,Correct,sub_016_day_13_data.csv,1,300,142.0,Training at home,,,,,,,,,,,,,
16,15,3574,A,46.03955905069466,59.02735235595985,2.3019779525347333,0.9271994826116982,A,956.103250005981,Correct,sub_016_day_13_data.csv,1,300,142.0,Training at home,,,,,,,,,,,,,
16,15,3575,A,31.55048691687577,63.701375521041,1.5775243458437882,1.0006188668023357,A,513.0865410028491,Correct,sub_016_day_13_data.csv,1,300,143.0,Training at home,,,,,,,,,,,,,
16,15,3576,B,38.91987669317476,16.20419771348365,1.9459938346587375,0.2545349424699838,B,705.6915830180515,Correct,sub_016_day_13_data.csv,1,300,143.0,Training at home,,,,,,,,,,,,,
16,15,3577,B,50.01918505883992,19.345507405708325,2.500959252941996,0.303878519728701,B,666.1951240093913,Correct,sub_016_day_13_data.csv,1,300,143.0,Training at home,,,,,,,,,,,,,
16,15,3578,A,45.87254460574164,62.11448487127417,2.2936272302870817,0.9756920467655464,A,664.832624985138,Correct,sub_016_day_13_data.csv,1,300,143.0,Training at home,,,,,,,,,,,,,
16,15,3579,A,46.254397730614954,66.82870536841821,2.312719886530748,1.0497428491716971,A,780.1967909908853,Correct,sub_016_day_13_data.csv,1,300,143.0,Training at home,,,,,,,,,,,,,
16,15,3580,B,62.334547417574235,38.00621186568361,3.116727370878712,0.5970001799400443,B,760.3353330050595,Correct,sub_016_day_13_data.csv,1,300,143.0,Training at home,,,,,,,,,,,,,
16,15,3581,B,46.15097588288204,35.87470949634234,2.307548794144102,0.5635186190168855,B,1818.605582986493,Correct,sub_016_day_13_data.csv,1,300,143.0,Training at home,,,,,,,,,,,,,
16,15,3582,B,43.577092534629905,36.080736840904855,2.178854626731495,0.5667548889774665,B,2230.327750003198,Correct,sub_016_day_13_data.csv,1,300,143.0,Training at home,,,,,,,,,,,,,
16,15,3583,A,49.787111733529976,81.00533797892626,2.4893555866764987,1.272428873480765,A,564.3686249968596,Correct,sub_016_day_13_data.csv,1,300,143.0,Training at home,,,,,,,,,,,,,
16,15,3584,B,84.81925697809504,65.02173461043866,4.240962848904752,1.0213590188790964,B,584.9262909905519,Correct,sub_016_day_13_data.csv,1,300,143.0,Training at home,,,,,,,,,,,,,
16,15,3585,B,53.95114457650855,42.105827800355385,2.6975572288254273,0.6613967964545668,B,1246.765707997838,Correct,sub_016_day_13_data.csv,1,300,143.0,Training at home,,,,,,,,,,,,,
16,15,3586,A,38.31560822335495,56.4373154973776,1.9157804111677477,0.8865152787744545,A,623.6846240062732,Correct,sub_016_day_13_data.csv,1,300,143.0,Training at home,,,,,,,,,,,,,
16,15,3587,A,49.554317014772664,59.05350534585172,2.477715850738633,0.9276102928162668,A,659.7337490238715,Correct,sub_016_day_13_data.csv,1,300,143.0,Training at home,,,,,,,,,,,,,
16,15,3588,B,78.68075484920466,49.22776823830953,3.9340377424602337,0.7732679752504709,B,816.7969169735443,Correct,sub_016_day_13_data.csv,1,300,143.0,Training at home,,,,,,,,,,,,,
16,15,3589,A,31.143699750978932,47.32647067419671,1.5571849875489463,0.7434024629519459,A,708.4900420159101,Correct,sub_016_day_13_data.csv,1,300,143.0,Training at home,,,,,,,,,,,,,
16,15,3590,A,60.51237310329553,75.3753940485704,3.025618655164777,1.1839939210221229,A,938.2193330093288,Correct,sub_016_day_13_data.csv,1,300,143.0,Training at home,,,,,,,,,,,,,
16,15,3591,A,23.997625914035076,39.571294654509344,1.1998812957017535,0.6215844428982181,A,615.4795000038575,Correct,sub_016_day_13_data.csv,1,300,143.0,Training at home,,,,,,,,,,,,,
16,15,3592,B,46.50601273937512,28.942594742353975,2.3253006369687563,0.4546292150920291,B,1281.9823749887291,Correct,sub_016_day_13_data.csv,1,300,143.0,Training at home,,,,,,,,,,,,,
16,15,3593,A,61.54625505812217,76.81007435989521,3.077312752906108,1.2065298266536628,A,859.0059989946894,Correct,sub_016_day_13_data.csv,1,300,143.0,Training at home,,,,,,,,,,,,,
16,15,3594,B,43.767393050156585,14.90357706484474,2.1883696525078293,0.2341048410956278,B,1128.3244999940507,Correct,sub_016_day_13_data.csv,1,300,143.0,Training at home,,,,,,,,,,,,,
16,15,3595,A,19.927972934557197,41.22216505388583,0.99639864672786,0.6475162544917682,A,532.1465410233941,Correct,sub_016_day_13_data.csv,1,300,143.0,Training at home,,,,,,,,,,,,,
16,15,3596,A,50.39172608779042,66.69642512818108,2.5195863043895206,1.0476649960169768,A,636.8152490176726,Correct,sub_016_day_13_data.csv,1,300,143.0,Training at home,,,,,,,,,,,,,
16,15,3597,A,22.703010727026697,46.46833532601953,1.1351505363513348,0.7299229044238501,A,657.29762398405,Correct,sub_016_day_13_data.csv,1,300,143.0,Training at home,,,,,,,,,,,,,
16,15,3598,B,54.69647661152956,47.78506788244676,2.734823830576478,0.7506060910539217,A,642.3830830026418,Incorrect,sub_016_day_13_data.csv,0,300,143.0,Training at home,,,,,,,,,,,,,
16,15,3599,A,66.35887652278332,86.7982257854521,3.3179438261391656,1.3634233423610225,A,709.7425830143038,Correct,sub_016_day_13_data.csv,1,300,143.0,Training at home,,,,,,,,,,,,,
