subject,day,trial,cat,x,y,xt,yt,resp,rt,fb,f_name,acc,n_trials,block,session_type,ns_left_digit,ns_right_digit,ns_left_size,ns_right_size,ns_congruent,ns_cue,ns_correct_side,ns_resp,ns_rt,ns_fb,acc_stroop,acc_stroop_mean,resp_key
16,9,1800,A,62.60641965148048,83.95011835056914,3.1303209825740237,1.3186853753907084,A,1409.0694569895277,Correct,sub_016_day_08_data.csv,1,300,72.0,Training at home,,,,,,,,,,,,,
16,9,1801,A,28.857068471258007,47.6394369435982,1.4428534235629005,0.7483185256158115,A,1750.3395410021767,Correct,sub_016_day_08_data.csv,1,300,72.0,Training at home,,,,,,,,,,,,,
16,9,1802,A,56.21697869094323,74.3476220821149,2.8108489345471614,1.1678497167252122,A,551.8176659970777,Correct,sub_016_day_08_data.csv,1,300,72.0,Training at home,,,,,,,,,,,,,
16,9,1803,B,52.31769171820626,34.77596381874723,2.6158845859103135,0.5462595622724037,B,2513.0211239884375,Correct,sub_016_day_08_data.csv,1,300,72.0,Training at home,,,,,,,,,,,,,
16,9,1804,B,57.66775015648983,49.3411050283679,2.8833875078244917,0.775048265385615,A,935.5577909882412,Incorrect,sub_016_day_08_data.csv,0,300,72.0,Training at home,,,,,,,,,,,,,
16,9,1805,B,66.86828870391568,45.32264157282565,3.3434144351957844,0.7119263890323622,B,645.7084989961004,Correct,sub_016_day_08_data.csv,1,300,72.0,Training at home,,,,,,,,,,,,,
16,9,1806,A,15.000893562002432,33.528218190303704,0.7500446781001215,0.5266600197730689,A,664.8255830077687,Correct,sub_016_day_08_data.csv,1,300,72.0,Training at home,,,,,,,,,,,,,
16,9,1807,B,54.93734230064144,43.89196552928181,2.7468671150320723,0.6894533822920408,A,803.5456239886116,Incorrect,sub_016_day_08_data.csv,0,300,72.0,Training at home,,,,,,,,,,,,,
16,9,1808,A,26.24487250675976,58.66514626563728,1.312243625337988,0.921509962649484,A,3024.2274570045993,Correct,sub_016_day_08_data.csv,1,300,72.0,Training at home,,,,,,,,,,,,,
16,9,1809,A,27.7137293939768,48.08851257836909,1.3856864696988402,0.7553725891913234,A,2676.010499999393,Correct,sub_016_day_08_data.csv,1,300,72.0,Training at home,,,,,,,,,,,,,
16,9,1810,A,59.88116491066357,86.52310308011711,2.9940582455331786,1.3591017250114417,A,1161.5762500005076,Correct,sub_016_day_08_data.csv,1,300,72.0,Training at home,,,,,,,,,,,,,
16,9,1811,B,75.07266114355721,47.06087820590986,3.753633057177861,0.7392305462158522,A,1426.7351249873172,Incorrect,sub_016_day_08_data.csv,0,300,72.0,Training at home,,,,,,,,,,,,,
16,9,1812,B,69.59239908880375,57.529845488438966,3.4796199544401873,0.9036766997431788,B,474.0144160023192,Correct,sub_016_day_08_data.csv,1,300,72.0,Training at home,,,,,,,,,,,,,
16,9,1813,B,72.15100689753312,53.275188032540406,3.607550344876656,0.8368446967082191,B,1353.7229579960697,Correct,sub_016_day_08_data.csv,1,300,72.0,Training at home,,,,,,,,,,,,,
16,9,1814,A,32.93175525410151,41.3399920033717,1.6465877627050756,0.6493670758862665,A,737.0135829987703,Correct,sub_016_day_08_data.csv,1,300,72.0,Training at home,,,,,,,,,,,,,
16,9,1815,A,38.53151565283039,54.04749667599266,1.9265757826415195,0.8489760925110865,A,2528.2483319897437,Correct,sub_016_day_08_data.csv,1,300,72.0,Training at home,,,,,,,,,,,,,
16,9,1816,B,70.71646146958362,50.7952343643052,3.535823073479181,0.7978896755813653,B,894.333499003551,Correct,sub_016_day_08_data.csv,1,300,72.0,Training at home,,,,,,,,,,,,,
16,9,1817,B,49.92822696520474,35.63183660633815,2.4964113482602373,0.559703580581919,A,556.6089579951949,Incorrect,sub_016_day_08_data.csv,0,300,72.0,Training at home,,,,,,,,,,,,,
16,9,1818,B,86.82662370879757,62.96127967937944,4.341331185439879,0.988993468506754,B,722.1095409913687,Correct,sub_016_day_08_data.csv,1,300,72.0,Training at home,,,,,,,,,,,,,
16,9,1819,A,24.06955479165238,53.30700308312092,1.203477739582619,0.8373444463541057,A,793.3724989998154,Correct,sub_016_day_08_data.csv,1,300,72.0,Training at home,,,,,,,,,,,,,
16,9,1820,A,28.547507032471103,58.31497756890407,1.4273753516235552,0.9160095256236128,A,769.4754989934154,Correct,sub_016_day_08_data.csv,1,300,72.0,Training at home,,,,,,,,,,,,,
16,9,1821,A,48.74383511035951,61.96847733737102,2.4371917555179756,0.973398565786152,A,2916.1482909985352,Correct,sub_016_day_08_data.csv,1,300,72.0,Training at home,,,,,,,,,,,,,
16,9,1822,B,54.42848517597184,39.57641985134286,2.721424258798592,0.6216649493018199,B,1110.8879579987845,Correct,sub_016_day_08_data.csv,1,300,72.0,Training at home,,,,,,,,,,,,,
16,9,1823,B,49.8442037018699,37.87639827193764,2.4922101850934952,0.5949610727778021,B,2790.5669570027385,Correct,sub_016_day_08_data.csv,1,300,72.0,Training at home,,,,,,,,,,,,,
16,9,1824,B,58.63017133817511,39.22848832495323,2.9315085669087555,0.6161996536655302,A,797.3865410021972,Incorrect,sub_016_day_08_data.csv,0,300,72.0,Training at home,,,,,,,,,,,,,
16,9,1825,B,58.42903313596164,48.61037885063488,2.921451656798082,0.7635700454268559,B,920.0313740002456,Correct,sub_016_day_08_data.csv,1,300,73.0,Training at home,,,,,,,,,,,,,
16,9,1826,A,68.38170504803252,84.07331066915835,3.4190852524016258,1.3206204758060012,A,563.605290997657,Correct,sub_016_day_08_data.csv,1,300,73.0,Training at home,,,,,,,,,,,,,
16,9,1827,A,31.550262088832056,62.49550981127586,1.5775131044416029,0.9816771725272654,A,585.8879990119021,Correct,sub_016_day_08_data.csv,1,300,73.0,Training at home,,,,,,,,,,,,,
16,9,1828,B,46.888506297444664,16.986519094193568,2.3444253148722334,0.2668236179819063,B,609.7250000020722,Correct,sub_016_day_08_data.csv,1,300,73.0,Training at home,,,,,,,,,,,,,
16,9,1829,B,59.62496977578221,29.255503731163625,2.9812484887891104,0.4595443779944622,B,1068.6323749978328,Correct,sub_016_day_08_data.csv,1,300,73.0,Training at home,,,,,,,,,,,,,
16,9,1830,A,62.1798980641341,86.77352912606882,3.108994903206705,1.3630354081425888,A,628.4765819873428,Correct,sub_016_day_08_data.csv,1,300,73.0,Training at home,,,,,,,,,,,,,
16,9,1831,B,37.073039009045175,23.1794698451406,1.8536519504522588,0.3641022608979993,B,2281.4946250000503,Correct,sub_016_day_08_data.csv,1,300,73.0,Training at home,,,,,,,,,,,,,
16,9,1832,A,32.40582608395415,57.37838517364245,1.6202913041977076,0.9012975666818032,A,710.8630820002872,Correct,sub_016_day_08_data.csv,1,300,73.0,Training at home,,,,,,,,,,,,,
16,9,1833,B,88.75200212544087,63.22319868981833,4.437600106272043,0.9931076827019056,B,635.1502489997074,Correct,sub_016_day_08_data.csv,1,300,73.0,Training at home,,,,,,,,,,,,,
16,9,1834,A,17.904541875851795,39.13147951736697,0.8952270937925897,0.6146758428792977,A,654.0689159883186,Correct,sub_016_day_08_data.csv,1,300,73.0,Training at home,,,,,,,,,,,,,
16,9,1835,A,23.921429964963817,55.72183769363151,1.1960714982481906,0.8752765797141778,A,1667.4695409892593,Correct,sub_016_day_08_data.csv,1,300,73.0,Training at home,,,,,,,,,,,,,
16,9,1836,A,21.93814456616536,52.42728028801788,1.096907228308268,0.8235257930026498,A,579.9422079871874,Correct,sub_016_day_08_data.csv,1,300,73.0,Training at home,,,,,,,,,,,,,
16,9,1837,A,36.82645174048196,68.54946927697405,1.841322587024098,1.0767725454401045,A,1495.5224989971612,Correct,sub_016_day_08_data.csv,1,300,73.0,Training at home,,,,,,,,,,,,,
16,9,1838,A,66.76968176677642,80.55769527484247,3.338484088338821,1.2653973183278515,B,765.3140409965999,Incorrect,sub_016_day_08_data.csv,0,300,73.0,Training at home,,,,,,,,,,,,,
16,9,1839,B,57.54014357227389,34.71050611020742,2.877007178613695,0.5452313549910562,B,833.880541002145,Correct,sub_016_day_08_data.csv,1,300,73.0,Training at home,,,,,,,,,,,,,
16,9,1840,A,53.58551152687659,82.30825867639278,2.679275576343829,1.2928951039376195,A,1569.0716660028556,Correct,sub_016_day_08_data.csv,1,300,73.0,Training at home,,,,,,,,,,,,,
16,9,1841,A,44.47715417317467,58.25376164952516,2.2238577086587332,0.9150479482105952,A,1731.37720800878,Correct,sub_016_day_08_data.csv,1,300,73.0,Training at home,,,,,,,,,,,,,
16,9,1842,A,55.481493249020154,76.46348689115858,2.7740746624510075,1.2010856434256163,A,3447.8279989998555,Correct,sub_016_day_08_data.csv,1,300,73.0,Training at home,,,,,,,,,,,,,
16,9,1843,A,48.89753371295996,72.8959748636747,2.444876685647998,1.1450472955399331,A,2095.0812910014065,Correct,sub_016_day_08_data.csv,1,300,73.0,Training at home,,,,,,,,,,,,,
16,9,1844,B,44.253027204871096,25.468554419612033,2.2126513602435547,0.4000591173110251,B,903.4135830006562,Correct,sub_016_day_08_data.csv,1,300,73.0,Training at home,,,,,,,,,,,,,
16,9,1845,B,65.9389039574829,57.747861801993544,3.2969451978741455,0.9071012919883076,B,1206.3696659897687,Correct,sub_016_day_08_data.csv,1,300,73.0,Training at home,,,,,,,,,,,,,
16,9,1846,A,41.70853904878281,61.403068282410054,2.085426952439141,0.9645171411194592,A,2759.536083001876,Correct,sub_016_day_08_data.csv,1,300,73.0,Training at home,,,,,,,,,,,,,
16,9,1847,A,42.36578337508968,57.65743704110363,2.118289168754484,0.9056809031657358,A,641.0250829940196,Correct,sub_016_day_08_data.csv,1,300,73.0,Training at home,,,,,,,,,,,,,
16,9,1848,B,79.64085332589048,57.13909437156928,3.982042666294524,0.8975387955524798,B,554.036999004893,Correct,sub_016_day_08_data.csv,1,300,73.0,Training at home,,,,,,,,,,,,,
16,9,1849,A,39.333784186855766,65.77287706133343,1.9666892093427883,1.0331579369067487,A,844.6179989987286,Correct,sub_016_day_08_data.csv,1,300,73.0,Training at home,,,,,,,,,,,,,
16,9,1850,A,54.56526205414614,83.32783609506248,2.7282631027073068,1.3089105885789134,A,878.2222910085693,Correct,sub_016_day_08_data.csv,1,300,74.0,Training at home,,,,,,,,,,,,,
16,9,1851,A,41.6146952623134,68.64685977292072,2.08073476311567,1.0783023517730823,A,609.9470829940401,Correct,sub_016_day_08_data.csv,1,300,74.0,Training at home,,,,,,,,,,,,,
16,9,1852,B,83.67403839244933,66.22308806903476,4.183701919622467,1.0402298348785477,B,846.864832987194,Correct,sub_016_day_08_data.csv,1,300,74.0,Training at home,,,,,,,,,,,,,
16,9,1853,A,23.24853583762885,51.78612209923212,1.1624267918814426,0.8134545037242582,A,522.0462069992209,Correct,sub_016_day_08_data.csv,1,300,74.0,Training at home,,,,,,,,,,,,,
16,9,1854,A,32.46380794811054,64.88329796505174,1.623190397405527,1.0191844611384206,A,843.2098750054138,Correct,sub_016_day_08_data.csv,1,300,74.0,Training at home,,,,,,,,,,,,,
16,9,1855,B,33.34623415848883,17.03592071273373,1.6673117079244415,0.2675996167913124,B,1142.8106240055058,Correct,sub_016_day_08_data.csv,1,300,74.0,Training at home,,,,,,,,,,,,,
16,9,1856,A,48.18768398965881,58.72207510468109,2.4093841994829406,0.922404198762071,A,1727.2154569945997,Correct,sub_016_day_08_data.csv,1,300,74.0,Training at home,,,,,,,,,,,,,
16,9,1857,B,54.164031038238065,42.00759535835222,2.7082015519119036,0.65985376486386,B,1404.2193739878712,Correct,sub_016_day_08_data.csv,1,300,74.0,Training at home,,,,,,,,,,,,,
16,9,1858,A,47.5026946692767,75.08252784269979,2.375134733463835,1.1793935894178835,A,885.7474569958868,Correct,sub_016_day_08_data.csv,1,300,74.0,Training at home,,,,,,,,,,,,,
16,9,1859,A,64.61956128279638,89.03764767605746,3.230978064139819,1.398600099160092,A,1332.7495830017142,Correct,sub_016_day_08_data.csv,1,300,74.0,Training at home,,,,,,,,,,,,,
16,9,1860,B,58.48534529004966,38.82450950765122,2.924267264502483,0.6098539692423208,B,1284.6454579994315,Correct,sub_016_day_08_data.csv,1,300,74.0,Training at home,,,,,,,,,,,,,
16,9,1861,B,50.88051200500046,39.57738990426267,2.544025600250023,0.6216801868574523,B,2405.7560000073863,Correct,sub_016_day_08_data.csv,1,300,74.0,Training at home,,,,,,,,,,,,,
16,9,1862,B,82.21348592125017,68.4620047441259,4.110674296062508,1.0753986557708777,B,2565.358082007151,Correct,sub_016_day_08_data.csv,1,300,74.0,Training at home,,,,,,,,,,,,,
16,9,1863,B,69.43091229766085,51.899151651825576,3.4715456148830426,0.815229967784589,B,1123.1023750005988,Correct,sub_016_day_08_data.csv,1,300,74.0,Training at home,,,,,,,,,,,,,
16,9,1864,B,43.03786759104829,26.101964104302496,2.1518933795524147,0.4100086933717061,A,808.8415829988662,Incorrect,sub_016_day_08_data.csv,0,300,74.0,Training at home,,,,,,,,,,,,,
16,9,1865,B,52.94428010281489,38.50810128919052,2.6472140051407447,0.6048838405690629,B,2252.7166660001967,Correct,sub_016_day_08_data.csv,1,300,74.0,Training at home,,,,,,,,,,,,,
16,9,1866,A,54.4093878300567,81.76612645030602,2.720469391502835,1.2843793108438772,A,547.436373992241,Correct,sub_016_day_08_data.csv,1,300,74.0,Training at home,,,,,,,,,,,,,
16,9,1867,B,70.09126611279356,49.37897161728714,3.504563305639678,0.775643072373441,B,740.426374002709,Correct,sub_016_day_08_data.csv,1,300,74.0,Training at home,,,,,,,,,,,,,
16,9,1868,B,40.14581706337337,23.021347345084124,2.007290853168669,0.3616184784752758,B,688.500666001346,Correct,sub_016_day_08_data.csv,1,300,74.0,Training at home,,,,,,,,,,,,,
16,9,1869,B,52.77335334698858,24.39862464232832,2.638667667349429,0.3832526996701676,B,1115.3284159954635,Correct,sub_016_day_08_data.csv,1,300,74.0,Training at home,,,,,,,,,,,,,
16,9,1870,A,56.07967228290042,68.78862741646951,2.803983614145021,1.08052923271053,A,1175.3619160008384,Correct,sub_016_day_08_data.csv,1,300,74.0,Training at home,,,,,,,,,,,,,
16,9,1871,B,59.619160006467666,52.428478655814224,2.9809580003233833,0.8235446169199762,B,4181.175791003625,Correct,sub_016_day_08_data.csv,1,300,74.0,Training at home,,,,,,,,,,,,,
16,9,1872,A,46.29335712498953,70.71512633427542,2.3146678562494767,1.110790606947169,A,881.4957910071826,Correct,sub_016_day_08_data.csv,1,300,74.0,Training at home,,,,,,,,,,,,,
16,9,1873,B,42.742684921791735,29.268950011981044,2.137134246089587,0.4597555916796326,B,429.8847080062842,Correct,sub_016_day_08_data.csv,1,300,74.0,Training at home,,,,,,,,,,,,,
16,9,1874,A,48.84073902433927,70.120644559539,2.4420369512169633,1.1014525090661442,A,957.7529999951366,Correct,sub_016_day_08_data.csv,1,300,74.0,Training at home,,,,,,,,,,,,,
16,9,1875,B,78.90843111815948,48.71967221455904,3.945421555907974,0.7652868215728073,B,728.5015410016058,Correct,sub_016_day_08_data.csv,1,300,75.0,Training at home,,,,,,,,,,,,,
16,9,1876,B,51.85840047318005,34.75660581159825,2.592920023659002,0.5459554874071668,B,1002.4897909897844,Correct,sub_016_day_08_data.csv,1,300,75.0,Training at home,,,,,,,,,,,,,
16,9,1877,A,49.27233901429704,63.21993364306422,2.463616950714852,0.9930563954674236,A,1943.179373993189,Correct,sub_016_day_08_data.csv,1,300,75.0,Training at home,,,,,,,,,,,,,
16,9,1878,B,44.65950977041653,37.32692928181162,2.232975488520826,0.5863300340640255,B,5013.794749989756,Correct,sub_016_day_08_data.csv,1,300,75.0,Training at home,,,,,,,,,,,,,
16,9,1879,A,48.15786182437174,70.5638446097545,2.407893091218587,1.1084142791752822,A,716.0552910063416,Correct,sub_016_day_08_data.csv,1,300,75.0,Training at home,,,,,,,,,,,,,
16,9,1880,B,87.02515537853512,67.62126060526842,4.351257768926756,1.0621922777199606,B,931.0642079944956,Correct,sub_016_day_08_data.csv,1,300,75.0,Training at home,,,,,,,,,,,,,
16,9,1881,A,19.56856356951026,37.99041796612333,0.978428178475513,0.5967520899458938,A,992.669333005324,Correct,sub_016_day_08_data.csv,1,300,75.0,Training at home,,,,,,,,,,,,,
16,9,1882,A,38.39747292173997,52.22591498897969,1.9198736460869985,0.8203627542819182,A,1935.7335829990916,Correct,sub_016_day_08_data.csv,1,300,75.0,Training at home,,,,,,,,,,,,,
16,9,1883,B,60.05228983789484,28.16922899683042,3.002614491894742,0.4424812143686552,B,851.4304159907624,Correct,sub_016_day_08_data.csv,1,300,75.0,Training at home,,,,,,,,,,,,,
16,9,1884,A,65.0195875955634,89.20809742758772,3.25097937977817,1.4012775175961605,B,2436.867708005593,Incorrect,sub_016_day_08_data.csv,0,300,75.0,Training at home,,,,,,,,,,,,,
16,9,1885,A,23.573592650453936,44.94822443178328,1.1786796325226967,0.706045058333978,A,600.8433749957476,Correct,sub_016_day_08_data.csv,1,300,75.0,Training at home,,,,,,,,,,,,,
16,9,1886,B,85.7608685322013,65.96554088402048,4.288043426610065,1.0361842931565797,B,901.6273330053082,Correct,sub_016_day_08_data.csv,1,300,75.0,Training at home,,,,,,,,,,,,,
16,9,1887,B,55.41681919640499,28.6340837131346,2.7708409598202492,0.449783135177294,B,2344.2311240069102,Correct,sub_016_day_08_data.csv,1,300,75.0,Training at home,,,,,,,,,,,,,
16,9,1888,B,72.76603163035843,53.66602167972911,3.6383015815179216,0.8429838972821379,B,672.8044990013586,Correct,sub_016_day_08_data.csv,1,300,75.0,Training at home,,,,,,,,,,,,,
16,9,1889,A,61.441867316472184,84.17186965470262,3.07209336582361,1.3221686367306569,A,1820.1235409942456,Correct,sub_016_day_08_data.csv,1,300,75.0,Training at home,,,,,,,,,,,,,
16,9,1890,A,69.5649060504627,87.36310111778455,3.478245302523135,1.372296383332271,B,1027.9051659890683,Incorrect,sub_016_day_08_data.csv,0,300,75.0,Training at home,,,,,,,,,,,,,
16,9,1891,B,37.12756191040853,21.367336062258225,1.8563780955204263,0.3356373299998734,B,983.3785829978297,Correct,sub_016_day_08_data.csv,1,300,75.0,Training at home,,,,,,,,,,,,,
16,9,1892,B,47.7366223244488,23.311924966274557,2.38683111622244,0.3661828610754231,B,468.8217490038369,Correct,sub_016_day_08_data.csv,1,300,75.0,Training at home,,,,,,,,,,,,,
16,9,1893,A,61.917691490050835,88.0295677321161,3.095884574502542,1.3827652164295052,A,486.2105829961365,Correct,sub_016_day_08_data.csv,1,300,75.0,Training at home,,,,,,,,,,,,,
16,9,1894,A,60.76173504411638,77.87127059872708,3.0380867522058193,1.2231990581933192,A,474.99787400010973,Correct,sub_016_day_08_data.csv,1,300,75.0,Training at home,,,,,,,,,,,,,
16,9,1895,A,27.890818345868716,58.42303252408174,1.394540917293436,0.9177068488904636,B,617.7899989997968,Incorrect,sub_016_day_08_data.csv,0,300,75.0,Training at home,,,,,,,,,,,,,
16,9,1896,B,62.26313697815338,47.51401131946584,3.1131568489076695,0.7463483445190808,B,1731.0086240031524,Correct,sub_016_day_08_data.csv,1,300,75.0,Training at home,,,,,,,,,,,,,
16,9,1897,A,14.49133662807063,37.14812105629406,0.7245668314035315,0.5835213210255886,A,1080.53395699244,Correct,sub_016_day_08_data.csv,1,300,75.0,Training at home,,,,,,,,,,,,,
16,9,1898,A,39.11137099807897,49.58706393834799,1.9555685499039483,0.7789117789090071,B,2178.497790999245,Incorrect,sub_016_day_08_data.csv,0,300,75.0,Training at home,,,,,,,,,,,,,
16,9,1899,B,45.98924252139631,32.63768700349601,2.299462126069815,0.5126715886017307,A,638.6259579885518,Incorrect,sub_016_day_08_data.csv,0,300,75.0,Training at home,,,,,,,,,,,,,
16,9,1900,A,42.89890624649591,70.55019743403653,2.1449453123247957,1.1081999098403932,A,573.1306249945192,Correct,sub_016_day_08_data.csv,1,300,76.0,Training at home,,,,,,,,,,,,,
16,9,1901,A,61.74658506170612,76.09447613591696,3.087329253085306,1.1952892360368028,B,3051.983248995384,Incorrect,sub_016_day_08_data.csv,0,300,76.0,Training at home,,,,,,,,,,,,,
16,9,1902,A,49.80249401144646,67.97200439134537,2.490124700572323,1.0677017482281188,A,671.8331659940304,Correct,sub_016_day_08_data.csv,1,300,76.0,Training at home,,,,,,,,,,,,,
16,9,1903,B,75.40402210243623,56.782095226835736,3.7702011051218114,0.891931066100316,B,548.7070409872103,Correct,sub_016_day_08_data.csv,1,300,76.0,Training at home,,,,,,,,,,,,,
16,9,1904,A,59.6559351187145,73.93339863944828,2.982796755935725,1.1613431101030816,A,749.7018739959458,Correct,sub_016_day_08_data.csv,1,300,76.0,Training at home,,,,,,,,,,,,,
16,9,1905,A,50.638859663918346,59.21403371681726,2.531942983195917,0.9301318665708572,A,669.123290994321,Correct,sub_016_day_08_data.csv,1,300,76.0,Training at home,,,,,,,,,,,,,
16,9,1906,A,28.557357120078574,50.49759783549217,1.4278678560039288,0.7932144119195702,B,1246.9741250097286,Incorrect,sub_016_day_08_data.csv,0,300,76.0,Training at home,,,,,,,,,,,,,
16,9,1907,A,27.312526502534705,49.10497474188931,1.365626325126735,0.771339139519159,A,771.4564990019426,Correct,sub_016_day_08_data.csv,1,300,76.0,Training at home,,,,,,,,,,,,,
16,9,1908,A,42.61906168592989,59.71791647063328,2.1309530842964945,0.938046838359152,A,589.2324989981716,Correct,sub_016_day_08_data.csv,1,300,76.0,Training at home,,,,,,,,,,,,,
16,9,1909,B,74.12752862055908,52.53126305596619,3.706376431027954,0.8251591505020816,B,730.5809579993365,Correct,sub_016_day_08_data.csv,1,300,76.0,Training at home,,,,,,,,,,,,,
16,9,1910,A,54.775955955911705,69.83314350705072,2.7387977977955855,1.0969364530941614,A,1583.7722910073353,Correct,sub_016_day_08_data.csv,1,300,76.0,Training at home,,,,,,,,,,,,,
16,9,1911,A,30.737540526482498,53.92903775127724,1.5368770263241247,0.8471153440728961,A,1049.3113739939872,Correct,sub_016_day_08_data.csv,1,300,76.0,Training at home,,,,,,,,,,,,,
16,9,1912,A,55.465243259592576,74.57671703034974,2.773262162979629,1.1714483317569575,A,2544.6416250051698,Correct,sub_016_day_08_data.csv,1,300,76.0,Training at home,,,,,,,,,,,,,
16,9,1913,A,26.744753528909943,57.32227539062373,1.3372376764454972,0.9004161962711724,A,1267.0672490057768,Correct,sub_016_day_08_data.csv,1,300,76.0,Training at home,,,,,,,,,,,,,
16,9,1914,A,51.278780532350765,69.24611329903884,2.5639390266175384,1.0877154041495345,A,1628.2052490132628,Correct,sub_016_day_08_data.csv,1,300,76.0,Training at home,,,,,,,,,,,,,
16,9,1915,B,71.68959064173005,47.20210466128222,3.5844795320865024,0.7414489261893037,B,952.7929159958148,Correct,sub_016_day_08_data.csv,1,300,76.0,Training at home,,,,,,,,,,,,,
16,9,1916,B,61.07608053802767,30.120604543807804,3.0538040269013833,0.4731333497825497,B,764.9297070020111,Correct,sub_016_day_08_data.csv,1,300,76.0,Training at home,,,,,,,,,,,,,
16,9,1917,B,58.233311657717,31.000683748590692,2.91166558288585,0.486957601604165,B,2614.1695830010576,Correct,sub_016_day_08_data.csv,1,300,76.0,Training at home,,,,,,,,,,,,,
16,9,1918,A,37.363108508011365,66.3972322742591,1.868155425400568,1.0429652856575375,A,1211.0114160022931,Correct,sub_016_day_08_data.csv,1,300,76.0,Training at home,,,,,,,,,,,,,
16,9,1919,B,62.401044800642154,40.32707807847849,3.1200522400321073,0.6334562611604502,B,543.3105830015847,Correct,sub_016_day_08_data.csv,1,300,76.0,Training at home,,,,,,,,,,,,,
16,9,1920,A,37.74523619059356,59.92436916008525,1.887261809529678,0.941289789621633,A,693.453915999271,Correct,sub_016_day_08_data.csv,1,300,76.0,Training at home,,,,,,,,,,,,,
16,9,1921,A,27.42672693290391,50.68047527895085,1.3713363466451955,0.7960870440839557,A,3802.5149989989586,Correct,sub_016_day_08_data.csv,1,300,76.0,Training at home,,,,,,,,,,,,,
16,9,1922,B,64.85841336015754,56.510819534134185,3.2429206680078773,0.8876698774838726,B,678.9072910032701,Correct,sub_016_day_08_data.csv,1,300,76.0,Training at home,,,,,,,,,,,,,
16,9,1923,B,68.12649958990379,45.68092657898109,3.4063249794951895,0.7175543167485086,B,1200.78645698959,Correct,sub_016_day_08_data.csv,1,300,76.0,Training at home,,,,,,,,,,,,,
16,9,1924,A,37.57719721551464,48.2331410224124,1.878859860775732,0.7576444074778562,A,885.7572070119204,Correct,sub_016_day_08_data.csv,1,300,76.0,Training at home,,,,,,,,,,,,,
16,9,1925,B,53.43905311233146,33.37696342560185,2.6719526556165727,0.52428411548503,B,1085.6810830009636,Correct,sub_016_day_08_data.csv,1,300,77.0,Training at home,,,,,,,,,,,,,
16,9,1926,B,60.92425868890042,31.15275504069482,3.046212934445021,0.4893463318746462,B,1100.2779160044156,Correct,sub_016_day_08_data.csv,1,300,77.0,Training at home,,,,,,,,,,,,,
16,9,1927,A,16.593063942068696,35.63638927288446,0.8296531971034348,0.5597750937007997,A,515.2987909968942,Correct,sub_016_day_08_data.csv,1,300,77.0,Training at home,,,,,,,,,,,,,
16,9,1928,B,49.36918264095466,22.990846783881345,2.468459132047733,0.3611393767802507,B,639.3837490031729,Correct,sub_016_day_08_data.csv,1,300,77.0,Training at home,,,,,,,,,,,,,
16,9,1929,B,41.896219701066066,34.11918476557034,2.094810985053303,0.5359429010299428,B,747.7772080019349,Correct,sub_016_day_08_data.csv,1,300,77.0,Training at home,,,,,,,,,,,,,
16,9,1930,A,37.3336085960943,63.45537962878117,1.866680429804715,0.996754772362652,A,1798.2158319937298,Correct,sub_016_day_08_data.csv,1,300,77.0,Training at home,,,,,,,,,,,,,
16,9,1931,B,52.242827321369035,25.58988125972046,2.6121413660684514,0.4019649148588646,B,832.3664159979671,Correct,sub_016_day_08_data.csv,1,300,77.0,Training at home,,,,,,,,,,,,,
16,9,1932,A,43.59223055609392,74.72736554797271,2.179611527804696,1.1738147131381504,A,2985.4054159950465,Correct,sub_016_day_08_data.csv,1,300,77.0,Training at home,,,,,,,,,,,,,
16,9,1933,A,31.94628167610759,47.67618286833185,1.5973140838053794,0.7488957292517745,A,1146.658750003553,Correct,sub_016_day_08_data.csv,1,300,77.0,Training at home,,,,,,,,,,,,,
16,9,1934,A,11.363849360235251,31.34173188862132,0.5681924680117626,0.4923147732603685,A,1328.4560829924883,Correct,sub_016_day_08_data.csv,1,300,77.0,Training at home,,,,,,,,,,,,,
16,9,1935,A,51.312613004571254,76.64758909477744,2.565630650228562,1.20397751407761,A,2217.435749989818,Correct,sub_016_day_08_data.csv,1,300,77.0,Training at home,,,,,,,,,,,,,
16,9,1936,A,36.36502705026056,64.82495154804909,1.8182513525130275,1.0182679577633265,A,1159.320790990023,Correct,sub_016_day_08_data.csv,1,300,77.0,Training at home,,,,,,,,,,,,,
16,9,1937,A,51.50293167351841,75.37151077657823,2.5751465836759206,1.1839329227283104,A,1934.216915993602,Correct,sub_016_day_08_data.csv,1,300,77.0,Training at home,,,,,,,,,,,,,
16,9,1938,B,55.338050146996906,44.798466262345706,2.7669025073498457,0.7036926625093773,A,1629.4814990105806,Incorrect,sub_016_day_08_data.csv,0,300,77.0,Training at home,,,,,,,,,,,,,
16,9,1939,A,63.48199218318372,89.05184986547802,3.1740996091591858,1.3988231866298346,A,896.1037080007372,Correct,sub_016_day_08_data.csv,1,300,77.0,Training at home,,,,,,,,,,,,,
16,9,1940,A,39.12861875293771,52.08148162465473,1.9564309376468856,0.8180940003004356,A,964.3884990073276,Correct,sub_016_day_08_data.csv,1,300,77.0,Training at home,,,,,,,,,,,,,
16,9,1941,B,62.6155357051856,37.69120348323956,3.13077678525928,0.592052039839517,B,1987.005332004628,Correct,sub_016_day_08_data.csv,1,300,77.0,Training at home,,,,,,,,,,,,,
16,9,1942,B,46.29792291075469,25.137492565550325,2.314896145537735,0.3948588098680046,B,1018.6167909996584,Correct,sub_016_day_08_data.csv,1,300,77.0,Training at home,,,,,,,,,,,,,
16,9,1943,B,78.92262043851825,64.53674588410662,3.946131021925913,1.0137408337805036,B,2255.198749990086,Correct,sub_016_day_08_data.csv,1,300,77.0,Training at home,,,,,,,,,,,,,
16,9,1944,B,66.73046081678918,53.637389771481665,3.3365230408394586,0.8425341483190956,B,743.7945410056273,Correct,sub_016_day_08_data.csv,1,300,77.0,Training at home,,,,,,,,,,,,,
16,9,1945,B,62.37321901684771,53.740207828435786,3.1186609508423855,0.8441492105810127,B,945.687415995053,Correct,sub_016_day_08_data.csv,1,300,77.0,Training at home,,,,,,,,,,,,,
16,9,1946,B,73.85141869801977,62.986297676572946,3.692570934900989,0.9893864502877072,B,1493.911500001559,Correct,sub_016_day_08_data.csv,1,300,77.0,Training at home,,,,,,,,,,,,,
16,9,1947,A,41.6515672367273,51.232934880359934,2.082578361836365,0.804765059209915,A,1227.1243750001304,Correct,sub_016_day_08_data.csv,1,300,77.0,Training at home,,,,,,,,,,,,,
16,9,1948,B,84.30369487541961,57.88182439098576,4.215184743770981,0.9092055714154768,B,921.2787069991464,Correct,sub_016_day_08_data.csv,1,300,77.0,Training at home,,,,,,,,,,,,,
16,9,1949,A,17.372131195909063,35.57364334609461,0.8686065597954531,0.5587894829875714,A,850.0282080058241,Correct,sub_016_day_08_data.csv,1,300,77.0,Training at home,,,,,,,,,,,,,
16,9,1950,A,40.21496932201163,72.42790820771405,2.0107484661005817,1.1376949217011518,A,1036.545916009345,Correct,sub_016_day_08_data.csv,1,300,78.0,Training at home,,,,,,,,,,,,,
16,9,1951,B,73.15227092452783,47.02797125026407,3.657613546226392,0.7387136449653081,A,624.7780410049018,Incorrect,sub_016_day_08_data.csv,0,300,78.0,Training at home,,,,,,,,,,,,,
16,9,1952,A,43.16945159284501,60.700951683473626,2.1584725796422504,0.9534883193735486,A,744.868581998162,Correct,sub_016_day_08_data.csv,1,300,78.0,Training at home,,,,,,,,,,,,,
16,9,1953,B,82.5456543293811,67.16571569000634,4.127282716469055,1.055036594924123,B,678.8398329954362,Correct,sub_016_day_08_data.csv,1,300,78.0,Training at home,,,,,,,,,,,,,
16,9,1954,B,69.20334281203948,47.42745232193365,3.460167140601974,0.7449886789653347,B,1179.9441660114098,Correct,sub_016_day_08_data.csv,1,300,78.0,Training at home,,,,,,,,,,,,,
16,9,1955,A,52.388956329715995,80.22729201295755,2.6194478164858,1.2602073560265523,A,1161.3945830031298,Correct,sub_016_day_08_data.csv,1,300,78.0,Training at home,,,,,,,,,,,,,
16,9,1956,A,42.32375503342698,56.81122689695635,2.1161877516713488,0.8923886653045046,A,669.5169989980059,Correct,sub_016_day_08_data.csv,1,300,78.0,Training at home,,,,,,,,,,,,,
16,9,1957,A,52.01186659552146,75.37445478324358,2.600593329776073,1.1839791670768702,A,736.4394159958465,Correct,sub_016_day_08_data.csv,1,300,78.0,Training at home,,,,,,,,,,,,,
16,9,1958,B,68.87846714860996,45.93675130794588,3.443923357430498,0.7215728021941206,B,1951.2452070048312,Correct,sub_016_day_08_data.csv,1,300,78.0,Training at home,,,,,,,,,,,,,
16,9,1959,B,52.23550519815099,23.85155429871235,2.61177525990755,0.3746593388076638,B,809.1136239963816,Correct,sub_016_day_08_data.csv,1,300,78.0,Training at home,,,,,,,,,,,,,
16,9,1960,B,60.97477700229131,48.46455368397026,3.0487388501145656,0.7612794290653456,B,1919.202207995113,Correct,sub_016_day_08_data.csv,1,300,78.0,Training at home,,,,,,,,,,,,,
16,9,1961,B,53.956356844481114,25.66948151129214,2.697817842224056,0.4032152726866719,B,2909.7566660057055,Correct,sub_016_day_08_data.csv,1,300,78.0,Training at home,,,,,,,,,,,,,
16,9,1962,A,43.106646830702914,72.01857949713312,2.1553323415351455,1.1312652013508295,A,570.7331250014249,Correct,sub_016_day_08_data.csv,1,300,78.0,Training at home,,,,,,,,,,,,,
16,9,1963,A,27.13510473077625,50.928887808366575,1.3567552365388125,0.7999890989713161,A,758.1164580042241,Correct,sub_016_day_08_data.csv,1,300,78.0,Training at home,,,,,,,,,,,,,
16,9,1964,A,37.39546183925846,52.34116278963231,1.8697730919629232,0.8221730625012815,A,691.5114580042427,Correct,sub_016_day_08_data.csv,1,300,78.0,Training at home,,,,,,,,,,,,,
16,9,1965,B,88.2954166435338,64.14659972066524,4.41477083217669,1.007612432176035,B,661.4466250030091,Correct,sub_016_day_08_data.csv,1,300,78.0,Training at home,,,,,,,,,,,,,
16,9,1966,B,42.93818476829958,27.57927356266093,2.146909238414979,0.4332142160789938,B,1150.1081659953345,Correct,sub_016_day_08_data.csv,1,300,78.0,Training at home,,,,,,,,,,,,,
16,9,1967,A,41.47516915824604,51.171899641839005,2.073758457912302,0.8038063199251777,A,548.2500000071013,Correct,sub_016_day_08_data.csv,1,300,78.0,Training at home,,,,,,,,,,,,,
16,9,1968,B,32.813214673374404,20.33711066778884,1.6406607336687202,0.3194545873458402,A,810.229041002458,Incorrect,sub_016_day_08_data.csv,0,300,78.0,Training at home,,,,,,,,,,,,,
16,9,1969,B,57.76726189440913,45.55793486708009,2.8883630947204564,0.7156223674557056,B,1828.0438750080064,Correct,sub_016_day_08_data.csv,1,300,78.0,Training at home,,,,,,,,,,,,,
16,9,1970,A,46.54167621194294,74.1729420954585,2.327083810597147,1.1651058499111675,A,898.4970830060774,Correct,sub_016_day_08_data.csv,1,300,78.0,Training at home,,,,,,,,,,,,,
16,9,1971,B,44.63693848817984,28.06236868301938,2.231846924408992,0.4408026564845098,B,1499.9110830103746,Correct,sub_016_day_08_data.csv,1,300,78.0,Training at home,,,,,,,,,,,,,
16,9,1972,B,65.42007110129636,56.764772994641014,3.2710035550648175,0.8916589691132825,A,2239.0531660057604,Incorrect,sub_016_day_08_data.csv,0,300,78.0,Training at home,,,,,,,,,,,,,
16,9,1973,B,78.91650967701102,51.178274126842446,3.9458254838505513,0.803906450101464,B,737.3952079942683,Correct,sub_016_day_08_data.csv,1,300,78.0,Training at home,,,,,,,,,,,,,
16,9,1974,B,58.651920476487625,28.703807509816105,2.9325960238243813,0.450878354014469,B,677.010748986504,Correct,sub_016_day_08_data.csv,1,300,78.0,Training at home,,,,,,,,,,,,,
16,9,1975,A,50.91551414135253,62.263140970708186,2.5457757070676266,0.9780271313150124,A,3013.459750000038,Correct,sub_016_day_08_data.csv,1,300,79.0,Training at home,,,,,,,,,,,,,
16,9,1976,A,34.835516132256686,52.981327986232806,1.7417758066128344,0.8322287538949015,A,1844.196041012765,Correct,sub_016_day_08_data.csv,1,300,79.0,Training at home,,,,,,,,,,,,,
16,9,1977,A,29.06858333704304,58.66620593181893,1.4534291668521522,0.9215266078469416,A,592.7898740046658,Correct,sub_016_day_08_data.csv,1,300,79.0,Training at home,,,,,,,,,,,,,
16,9,1978,A,66.89958609008686,79.51658410484103,3.344979304504343,1.2490435823116175,A,2094.397458000458,Correct,sub_016_day_08_data.csv,1,300,79.0,Training at home,,,,,,,,,,,,,
16,9,1979,A,23.616135248445374,50.56073885175964,1.180806762422269,0.7942062286838006,A,674.9167490052059,Correct,sub_016_day_08_data.csv,1,300,79.0,Training at home,,,,,,,,,,,,,
16,9,1980,B,59.68420478918274,47.89048053580621,2.984210239459137,0.7522619091408689,A,2573.955707004643,Incorrect,sub_016_day_08_data.csv,0,300,79.0,Training at home,,,,,,,,,,,,,
16,9,1981,A,15.539786411778335,43.11937927921397,0.7769893205889169,0.6773176258546528,A,680.4979989974527,Correct,sub_016_day_08_data.csv,1,300,79.0,Training at home,,,,,,,,,,,,,
16,9,1982,A,51.13402588549395,65.78332904504883,2.5567012942746974,1.0333221162830273,A,2777.4743320042035,Correct,sub_016_day_08_data.csv,1,300,79.0,Training at home,,,,,,,,,,,,,
16,9,1983,B,30.43324190185636,13.086538816490208,1.521662095092818,0.2055628710340165,B,718.1976240099175,Correct,sub_016_day_08_data.csv,1,300,79.0,Training at home,,,,,,,,,,,,,
16,9,1984,B,33.55951754419851,15.660529393942532,1.6779758772099256,0.2459950204766843,B,831.5860820002854,Correct,sub_016_day_08_data.csv,1,300,79.0,Training at home,,,,,,,,,,,,,
16,9,1985,B,43.7448339747428,35.83793767156023,2.18724169873714,0.5629410085439126,B,958.5700829920823,Correct,sub_016_day_08_data.csv,1,300,79.0,Training at home,,,,,,,,,,,,,
16,9,1986,B,73.41007590414003,49.0429987656282,3.6705037952070017,0.7703656231605543,B,600.6774569978006,Correct,sub_016_day_08_data.csv,1,300,79.0,Training at home,,,,,,,,,,,,,
16,9,1987,B,38.08527970492408,24.93082616606688,1.904263985246204,0.3916125016561995,B,852.7515830064658,Correct,sub_016_day_08_data.csv,1,300,79.0,Training at home,,,,,,,,,,,,,
16,9,1988,B,49.26232015566032,29.525423428589477,2.463116007783016,0.4637842666869233,B,1010.1303740084404,Correct,sub_016_day_08_data.csv,1,300,79.0,Training at home,,,,,,,,,,,,,
16,9,1989,A,13.408447293426544,33.646084899292994,0.6704223646713272,0.5285114657083867,B,1278.2008319918532,Incorrect,sub_016_day_08_data.csv,0,300,79.0,Training at home,,,,,,,,,,,,,
16,9,1990,A,52.88986443384379,70.70251040913755,2.6444932216921893,1.110592436458512,A,690.8824160054792,Correct,sub_016_day_08_data.csv,1,300,79.0,Training at home,,,,,,,,,,,,,
16,9,1991,A,37.81696278815492,50.67538776822373,1.890848139407746,0.7960071296523287,A,873.326041008113,Correct,sub_016_day_08_data.csv,1,300,79.0,Training at home,,,,,,,,,,,,,
16,9,1992,B,71.85222396864637,41.564985562796394,3.592611198432319,0.6529012664532349,B,594.9442910059588,Correct,sub_016_day_08_data.csv,1,300,79.0,Training at home,,,,,,,,,,,,,
16,9,1993,B,38.661382203606045,15.890570794279078,1.9330691101803024,0.2496085023432784,B,732.4712910049129,Correct,sub_016_day_08_data.csv,1,300,79.0,Training at home,,,,,,,,,,,,,
16,9,1994,B,47.667701509453984,35.267080902671424,2.3833850754726993,0.5539740113869472,B,2296.9434580008965,Correct,sub_016_day_08_data.csv,1,300,79.0,Training at home,,,,,,,,,,,,,
16,9,1995,B,72.32326617972801,47.91582811857971,3.6161633089864007,0.7526600680400062,B,748.8679160014726,Correct,sub_016_day_08_data.csv,1,300,79.0,Training at home,,,,,,,,,,,,,
16,9,1996,A,37.425634984814906,50.25990133835231,1.8712817492407452,0.7894806840735771,A,578.2940829958534,Correct,sub_016_day_08_data.csv,1,300,79.0,Training at home,,,,,,,,,,,,,
16,9,1997,A,42.01798456671978,69.25479044572602,2.100899228335989,1.0878517044509672,A,571.090623998316,Correct,sub_016_day_08_data.csv,1,300,79.0,Training at home,,,,,,,,,,,,,
16,9,1998,A,22.071878392301205,41.65430859795909,1.10359391961506,0.6543043494085521,A,1135.718457997427,Correct,sub_016_day_08_data.csv,1,300,79.0,Training at home,,,,,,,,,,,,,
16,9,1999,B,34.20630076239402,21.90560280426041,1.7103150381197012,0.3440924042116023,B,784.6670830040239,Correct,sub_016_day_08_data.csv,1,300,79.0,Training at home,,,,,,,,,,,,,
16,9,2000,B,65.43280150310345,35.679023133680644,3.2716400751551724,0.5604447848201569,B,727.2724159993231,Correct,sub_016_day_08_data.csv,1,300,80.0,Training at home,,,,,,,,,,,,,
16,9,2001,A,33.47175368772865,46.29309542410534,1.6735876843864326,0.727170242481503,A,1415.3303330094786,Correct,sub_016_day_08_data.csv,1,300,80.0,Training at home,,,,,,,,,,,,,
16,9,2002,B,71.31824826650544,57.88012264491012,3.5659124133252713,0.9091788404506292,B,1676.3134570064722,Correct,sub_016_day_08_data.csv,1,300,80.0,Training at home,,,,,,,,,,,,,
16,9,2003,A,18.260468482977263,36.98093529341924,0.9130234241488632,0.580895173203427,A,2041.326915990794,Correct,sub_016_day_08_data.csv,1,300,80.0,Training at home,,,,,,,,,,,,,
16,9,2004,A,49.3892442564054,76.62731564508243,2.46946221282027,1.2036590594744858,A,902.7032500016504,Correct,sub_016_day_08_data.csv,1,300,80.0,Training at home,,,,,,,,,,,,,
16,9,2005,A,56.15521673480973,75.61077067210498,2.8077608367404867,1.187691208378738,A,1107.8385000000708,Correct,sub_016_day_08_data.csv,1,300,80.0,Training at home,,,,,,,,,,,,,
16,9,2006,B,45.04954562319225,36.167787238174014,2.2524772811596123,0.5681222734202307,A,1058.1993320083711,Incorrect,sub_016_day_08_data.csv,0,300,80.0,Training at home,,,,,,,,,,,,,
16,9,2007,B,59.0025130879814,39.703376151824166,2.95012565439907,0.6236591742064149,B,586.693415985792,Correct,sub_016_day_08_data.csv,1,300,80.0,Training at home,,,,,,,,,,,,,
16,9,2008,B,65.44514444434421,55.4044762362013,3.2722572222172106,0.8702914775982012,B,558.3058739866829,Correct,sub_016_day_08_data.csv,1,300,80.0,Training at home,,,,,,,,,,,,,
16,9,2009,B,43.70644983641657,16.806629225492564,2.1853224918208283,0.2639979145320747,B,736.6627080045873,Correct,sub_016_day_08_data.csv,1,300,80.0,Training at home,,,,,,,,,,,,,
16,9,2010,A,55.98629123531691,66.85745139442855,2.7993145617658457,1.050194390692367,A,1036.4500409923494,Correct,sub_016_day_08_data.csv,1,300,80.0,Training at home,,,,,,,,,,,,,
16,9,2011,B,42.44178324217057,19.267636984122127,2.1220891621085287,0.3026553340067653,B,1098.562041006517,Correct,sub_016_day_08_data.csv,1,300,80.0,Training at home,,,,,,,,,,,,,
16,9,2012,B,66.54190621360637,43.21195942363934,3.3270953106803183,0.678771871362628,B,1585.3098320076242,Correct,sub_016_day_08_data.csv,1,300,80.0,Training at home,,,,,,,,,,,,,
16,9,2013,A,41.57197174578713,65.64705324212308,2.0785985872893566,1.0311815009763594,A,1416.9711239956089,Correct,sub_016_day_08_data.csv,1,300,80.0,Training at home,,,,,,,,,,,,,
16,9,2014,B,37.504871446137386,16.490193497718213,1.8752435723068692,0.2590273537435286,B,1431.0258330078796,Correct,sub_016_day_08_data.csv,1,300,80.0,Training at home,,,,,,,,,,,,,
16,9,2015,A,41.99208882546062,70.89452083846436,2.0996044412730313,1.1136085292294406,A,694.3746239994653,Correct,sub_016_day_08_data.csv,1,300,80.0,Training at home,,,,,,,,,,,,,
16,9,2016,B,66.55870054295534,36.80693891717629,3.3279350271477663,0.5781620445166463,B,849.328582000453,Correct,sub_016_day_08_data.csv,1,300,80.0,Training at home,,,,,,,,,,,,,
16,9,2017,B,34.49205369293754,15.63220354729744,1.724602684646877,0.2455500791180497,B,874.5841240015579,Correct,sub_016_day_08_data.csv,1,300,80.0,Training at home,,,,,,,,,,,,,
16,9,2018,B,66.90902161094434,36.15354187606336,3.345451080547217,0.5678985077954579,B,2049.631665999186,Correct,sub_016_day_08_data.csv,1,300,80.0,Training at home,,,,,,,,,,,,,
16,9,2019,B,55.1222321275462,25.944218242068285,2.7561116063773103,0.4075308271620601,B,730.5888740083901,Correct,sub_016_day_08_data.csv,1,300,80.0,Training at home,,,,,,,,,,,,,
16,9,2020,B,55.379089933534246,31.32331852641452,2.768954496676713,0.4920255368431846,B,741.7136240110267,Correct,sub_016_day_08_data.csv,1,300,80.0,Training at home,,,,,,,,,,,,,
16,9,2021,B,37.599962232780186,26.013962715337374,1.8799981116390092,0.4086263707863135,B,1045.3282069938723,Correct,sub_016_day_08_data.csv,1,300,80.0,Training at home,,,,,,,,,,,,,
16,9,2022,B,42.24911412272985,23.4761994879858,2.1124557061364926,0.3687632792283232,B,1172.6546239951858,Correct,sub_016_day_08_data.csv,1,300,80.0,Training at home,,,,,,,,,,,,,
16,9,2023,B,40.666324059589606,26.23920820177304,2.0333162029794805,0.4121645186135161,B,668.4659159946023,Correct,sub_016_day_08_data.csv,1,300,80.0,Training at home,,,,,,,,,,,,,
16,9,2024,A,44.63504953524792,65.76958557163753,2.2317524767623964,1.0331062343075088,A,624.021540992544,Correct,sub_016_day_08_data.csv,1,300,80.0,Training at home,,,,,,,,,,,,,
16,9,2025,B,70.74373526455484,47.66206416014247,3.5371867632277425,0.7486739531021448,B,835.1206240040483,Correct,sub_016_day_08_data.csv,1,300,81.0,Training at home,,,,,,,,,,,,,
16,9,2026,A,50.86284262916773,58.64163081508884,2.543142131458387,0.9211405828160396,A,608.4471250069328,Correct,sub_016_day_08_data.csv,1,300,81.0,Training at home,,,,,,,,,,,,,
16,9,2027,B,83.34114570299248,54.09857736730018,4.167057285149624,0.8497784661338463,B,637.28120700398,Correct,sub_016_day_08_data.csv,1,300,81.0,Training at home,,,,,,,,,,,,,
16,9,2028,A,50.80830143065219,76.17599287274408,2.5404150715326095,1.196569697944606,A,595.258625005954,Correct,sub_016_day_08_data.csv,1,300,81.0,Training at home,,,,,,,,,,,,,
16,9,2029,A,25.97760658472174,48.62693455590521,1.298880329236087,0.7638301018371172,A,968.743916004314,Correct,sub_016_day_08_data.csv,1,300,81.0,Training at home,,,,,,,,,,,,,
16,9,2030,A,53.253747349609625,69.93361430239085,2.662687367480481,1.098514644656866,A,1109.48025000107,Correct,sub_016_day_08_data.csv,1,300,81.0,Training at home,,,,,,,,,,,,,
16,9,2031,A,49.10314245553924,58.35559836238008,2.4551571227769617,0.9166475955554492,A,548.5498749912949,Correct,sub_016_day_08_data.csv,1,300,81.0,Training at home,,,,,,,,,,,,,
16,9,2032,A,28.655609838113794,59.70726367340102,1.4327804919056897,0.9378795046115268,A,627.5622489920352,Correct,sub_016_day_08_data.csv,1,300,81.0,Training at home,,,,,,,,,,,,,
16,9,2033,A,68.49947840973684,83.66588828234867,3.4249739204868423,1.3142206999194548,B,1217.3887490062043,Incorrect,sub_016_day_08_data.csv,0,300,81.0,Training at home,,,,,,,,,,,,,
16,9,2034,A,33.82996127891825,56.41606835808341,1.6914980639459123,0.8861815294908721,B,1591.8848739966052,Incorrect,sub_016_day_08_data.csv,0,300,81.0,Training at home,,,,,,,,,,,,,
16,9,2035,B,76.95713968126668,64.85273086700238,3.8478569840633337,1.0187043142850534,B,679.668374999892,Correct,sub_016_day_08_data.csv,1,300,81.0,Training at home,,,,,,,,,,,,,
16,9,2036,B,61.4744981109268,53.90190191969174,3.07372490554634,0.8466890954271057,B,1345.528791003744,Correct,sub_016_day_08_data.csv,1,300,81.0,Training at home,,,,,,,,,,,,,
16,9,2037,B,47.28349149653502,31.77170025063476,2.364174574826751,0.4990687004972557,B,1629.0888320072554,Correct,sub_016_day_08_data.csv,1,300,81.0,Training at home,,,,,,,,,,,,,
16,9,2038,A,39.53705076394499,64.07605291868902,1.9768525381972497,1.0065042856019213,A,2314.257833000738,Correct,sub_016_day_08_data.csv,1,300,81.0,Training at home,,,,,,,,,,,,,
16,9,2039,B,59.68608410138039,27.166002530870035,2.9843042050690194,0.4267225698919152,B,689.6787080040667,Correct,sub_016_day_08_data.csv,1,300,81.0,Training at home,,,,,,,,,,,,,
16,9,2040,B,30.852756596199885,13.717591134456598,1.5426378298099943,0.2154754176647866,B,1223.610415996518,Correct,sub_016_day_08_data.csv,1,300,81.0,Training at home,,,,,,,,,,,,,
16,9,2041,A,61.629055320989416,78.1499098393861,3.0814527660494706,1.2275759131506,A,2065.06987400644,Correct,sub_016_day_08_data.csv,1,300,81.0,Training at home,,,,,,,,,,,,,
16,9,2042,B,68.44946420324803,40.16707100141955,3.422473210162401,0.6309428758713963,B,572.3584989900701,Correct,sub_016_day_08_data.csv,1,300,81.0,Training at home,,,,,,,,,,,,,
16,9,2043,A,13.488915527146949,41.2323075901464,0.6744457763573473,0.647675573078793,A,726.0225409991108,Correct,sub_016_day_08_data.csv,1,300,81.0,Training at home,,,,,,,,,,,,,
16,9,2044,A,17.235727350498273,44.92684731245377,0.8617863675249137,0.7057092673287756,A,1002.6261239981976,Correct,sub_016_day_08_data.csv,1,300,81.0,Training at home,,,,,,,,,,,,,
16,9,2045,B,63.41077503797923,54.80684167684476,3.1705387518989614,0.860903855892172,B,591.2647490040399,Correct,sub_016_day_08_data.csv,1,300,81.0,Training at home,,,,,,,,,,,,,
16,9,2046,B,54.57159803030989,24.497469676652855,2.7285799015154946,0.3848053538385567,B,1978.4617499972228,Correct,sub_016_day_08_data.csv,1,300,81.0,Training at home,,,,,,,,,,,,,
16,9,2047,B,36.8618173288572,17.230144833737633,1.84309086644286,0.2706504821497914,B,772.2844160016393,Correct,sub_016_day_08_data.csv,1,300,81.0,Training at home,,,,,,,,,,,,,
16,9,2048,B,53.17126178690168,44.5600248766398,2.658563089345084,0.6999472339811501,B,771.3429569994332,Correct,sub_016_day_08_data.csv,1,300,81.0,Training at home,,,,,,,,,,,,,
16,9,2049,A,30.599154848634672,53.07065695600749,1.5299577424317337,0.8336319300708859,A,819.6804159961175,Correct,sub_016_day_08_data.csv,1,300,81.0,Training at home,,,,,,,,,,,,,
16,9,2050,B,74.54275007291173,53.50020257289113,3.727137503645587,0.8403792168428028,B,1236.0339160077274,Correct,sub_016_day_08_data.csv,1,300,82.0,Training at home,,,,,,,,,,,,,
16,9,2051,B,68.64677894418851,49.67160967347661,3.4323389472094252,0.7802398202108691,B,890.1627500017639,Correct,sub_016_day_08_data.csv,1,300,82.0,Training at home,,,,,,,,,,,,,
16,9,2052,A,56.3338206676873,84.0165817185741,2.816691033384365,1.3197293795339946,A,1011.738666013116,Correct,sub_016_day_08_data.csv,1,300,82.0,Training at home,,,,,,,,,,,,,
16,9,2053,A,25.82775544936815,37.61737485941397,1.2913877724684075,0.5908923425283414,A,950.014166010078,Correct,sub_016_day_08_data.csv,1,300,82.0,Training at home,,,,,,,,,,,,,
16,9,2054,B,80.10229471318812,58.59286934047049,4.005114735659406,0.9203746393638436,B,603.4424579993356,Correct,sub_016_day_08_data.csv,1,300,82.0,Training at home,,,,,,,,,,,,,
16,9,2055,A,17.29896287753409,38.81413240573339,0.8649481438767046,0.6096909661065678,A,621.2126660102513,Correct,sub_016_day_08_data.csv,1,300,82.0,Training at home,,,,,,,,,,,,,
16,9,2056,A,51.68104281886134,73.45256883708858,2.584052140943067,1.1537902532294804,A,1359.5969159941887,Correct,sub_016_day_08_data.csv,1,300,82.0,Training at home,,,,,,,,,,,,,
16,9,2057,B,52.78435809645228,22.001526505018756,2.6392179048226136,0.3455991701796402,B,708.5041239915881,Correct,sub_016_day_08_data.csv,1,300,82.0,Training at home,,,,,,,,,,,,,
16,9,2058,A,49.64749858990509,67.91616190618421,2.482374929495254,1.0668245765224165,B,763.5839159920579,Incorrect,sub_016_day_08_data.csv,0,300,82.0,Training at home,,,,,,,,,,,,,
16,9,2059,B,46.22163555329614,35.51817147127167,2.311081777664807,0.5579181328154482,B,650.9827080008108,Correct,sub_016_day_08_data.csv,1,300,82.0,Training at home,,,,,,,,,,,,,
16,9,2060,A,56.377089308127005,65.21875406899723,2.8188544654063503,1.0244537932972055,A,861.0021239874186,Correct,sub_016_day_08_data.csv,1,300,82.0,Training at home,,,,,,,,,,,,,
16,9,2061,A,19.601403905454823,39.705502843768784,0.9800701952727412,0.6236925802053632,A,639.8058740014676,Correct,sub_016_day_08_data.csv,1,300,82.0,Training at home,,,,,,,,,,,,,
16,9,2062,B,66.99918109127842,40.54498725443789,3.3499590545639206,0.6368791704921694,B,639.5661240094341,Correct,sub_016_day_08_data.csv,1,300,82.0,Training at home,,,,,,,,,,,,,
16,9,2063,B,67.07577185018307,46.992394092546,3.3537885925091535,0.7381548002786946,B,681.6708330006804,Correct,sub_016_day_08_data.csv,1,300,82.0,Training at home,,,,,,,,,,,,,
16,9,2064,B,62.54868254544916,54.05446351841698,3.127434127272458,0.8490855274159813,B,738.5612910002237,Correct,sub_016_day_08_data.csv,1,300,82.0,Training at home,,,,,,,,,,,,,
16,9,2065,B,62.39285894805145,29.88850246136957,3.119642947402572,0.4694874987971954,B,1450.4579990025377,Correct,sub_016_day_08_data.csv,1,300,82.0,Training at home,,,,,,,,,,,,,
16,9,2066,B,37.96490912952549,17.114458846067727,1.8982454564762743,0.2688332909048561,B,2796.097416008706,Correct,sub_016_day_08_data.csv,1,300,82.0,Training at home,,,,,,,,,,,,,
16,9,2067,B,49.9900584994801,27.58040020655079,2.4995029249740046,0.4332319133598319,B,684.0157500118949,Correct,sub_016_day_08_data.csv,1,300,82.0,Training at home,,,,,,,,,,,,,
16,9,2068,A,51.65929035303493,64.65756753490442,2.5829645176517464,1.0156386958332082,A,1014.2863740038592,Correct,sub_016_day_08_data.csv,1,300,82.0,Training at home,,,,,,,,,,,,,
16,9,2069,A,54.42628840058352,61.77310551676624,2.721314420029176,0.9703296724044996,B,1617.6672500005225,Incorrect,sub_016_day_08_data.csv,0,300,82.0,Training at home,,,,,,,,,,,,,
16,9,2070,B,59.06486595441913,44.064067509926815,2.953243297720957,0.6921567538823539,A,886.5002490056213,Incorrect,sub_016_day_08_data.csv,0,300,82.0,Training at home,,,,,,,,,,,,,
16,9,2071,B,85.53704507800475,60.79122377610939,4.276852253900238,0.9549063100887922,B,627.3018740030238,Correct,sub_016_day_08_data.csv,1,300,82.0,Training at home,,,,,,,,,,,,,
16,9,2072,B,67.25175202858173,55.1152147649553,3.3625876014290865,0.8657477690330364,B,2936.765666003339,Correct,sub_016_day_08_data.csv,1,300,82.0,Training at home,,,,,,,,,,,,,
16,9,2073,B,46.97705577888726,25.239729580185863,2.348852788944363,0.3964647451385245,B,659.229041004437,Correct,sub_016_day_08_data.csv,1,300,82.0,Training at home,,,,,,,,,,,,,
16,9,2074,A,54.54826181182061,79.53080062851095,2.7274130905910305,1.2492668949432222,A,602.5272909901105,Correct,sub_016_day_08_data.csv,1,300,82.0,Training at home,,,,,,,,,,,,,
16,9,2075,A,36.141246361530825,55.61407935923589,1.8070623180765413,0.873583915755676,A,738.9315409964183,Correct,sub_016_day_08_data.csv,1,300,83.0,Training at home,,,,,,,,,,,,,
16,9,2076,B,75.63175791457928,48.22107014652167,3.781587895728964,0.7574547986027529,B,731.9586239900673,Correct,sub_016_day_08_data.csv,1,300,83.0,Training at home,,,,,,,,,,,,,
16,9,2077,B,52.31129189422058,24.56909708234502,2.6155645947110293,0.3859304744961477,B,1756.3620409928262,Correct,sub_016_day_08_data.csv,1,300,83.0,Training at home,,,,,,,,,,,,,
16,9,2078,A,55.72133667922179,75.60964664834829,2.7860668339610895,1.1876735522548556,A,621.1026240052888,Correct,sub_016_day_08_data.csv,1,300,83.0,Training at home,,,,,,,,,,,,,
16,9,2079,A,59.07553473396547,77.64806653342589,2.9537767366982735,1.2196929769343112,A,3392.163624012028,Correct,sub_016_day_08_data.csv,1,300,83.0,Training at home,,,,,,,,,,,,,
16,9,2080,A,15.014406609038865,41.249358991819875,0.7507203304519433,0.6479434158699471,A,558.335416004411,Correct,sub_016_day_08_data.csv,1,300,83.0,Training at home,,,,,,,,,,,,,
16,9,2081,B,37.32370828849615,17.52204202830147,1.8661854144248076,0.2752355925600174,B,918.555832002312,Correct,sub_016_day_08_data.csv,1,300,83.0,Training at home,,,,,,,,,,,,,
16,9,2082,B,76.29147944871566,45.07386115427881,3.8145739724357832,0.7080185553560432,B,625.4364579945104,Correct,sub_016_day_08_data.csv,1,300,83.0,Training at home,,,,,,,,,,,,,
16,9,2083,A,18.022109757337734,37.13953368309433,0.9011054878668868,0.5833864308827991,A,547.6046240073629,Correct,sub_016_day_08_data.csv,1,300,83.0,Training at home,,,,,,,,,,,,,
16,9,2084,A,41.78098283588,57.20942044697677,2.0890491417940003,0.8986434749617598,A,768.5351240070304,Correct,sub_016_day_08_data.csv,1,300,83.0,Training at home,,,,,,,,,,,,,
16,9,2085,A,47.44515510258157,70.75690537322446,2.3722577551290787,1.1114468705563505,A,799.6233330050018,Correct,sub_016_day_08_data.csv,1,300,83.0,Training at home,,,,,,,,,,,,,
16,9,2086,B,80.05344748551252,63.08821894037315,4.002672374275626,0.9909874257557038,B,598.3241659996565,Correct,sub_016_day_08_data.csv,1,300,83.0,Training at home,,,,,,,,,,,,,
16,9,2087,A,31.59630229258204,50.33522519488673,1.579815114629102,0.79066386844522,A,759.8500409949338,Correct,sub_016_day_08_data.csv,1,300,83.0,Training at home,,,,,,,,,,,,,
16,9,2088,A,12.479664171061684,33.21020326496287,0.6239832085530843,0.5216646530071556,B,769.7587910079164,Incorrect,sub_016_day_08_data.csv,0,300,83.0,Training at home,,,,,,,,,,,,,
16,9,2089,B,47.81842327653653,26.330518046082,2.3909211638268264,0.4135988102939233,B,665.6217079871567,Correct,sub_016_day_08_data.csv,1,300,83.0,Training at home,,,,,,,,,,,,,
16,9,2090,A,18.34828992659565,41.445473308712955,0.9174144963297826,0.6510239723560225,A,665.8115830068709,Correct,sub_016_day_08_data.csv,1,300,83.0,Training at home,,,,,,,,,,,,,
16,9,2091,B,44.97968768848919,34.087233797669825,2.24898438442446,0.5354410163997861,B,2756.855458006612,Correct,sub_016_day_08_data.csv,1,300,83.0,Training at home,,,,,,,,,,,,,
16,9,2092,A,55.32655841693256,76.09732042291198,2.7663279208466283,1.195333913992444,A,970.973415998742,Correct,sub_016_day_08_data.csv,1,300,83.0,Training at home,,,,,,,,,,,,,
16,9,2093,A,21.36992180906507,50.4671154488838,1.0684960904532534,0.7927355957104064,A,611.260833000415,Correct,sub_016_day_08_data.csv,1,300,83.0,Training at home,,,,,,,,,,,,,
16,9,2094,A,64.79888739743622,83.94046187815319,3.239944369871811,1.3185336918767008,B,540.3943740093382,Incorrect,sub_016_day_08_data.csv,0,300,83.0,Training at home,,,,,,,,,,,,,
16,9,2095,B,76.81749960915033,59.47233536963816,3.840874980457517,0.9341892594454184,B,688.0496659869095,Correct,sub_016_day_08_data.csv,1,300,83.0,Training at home,,,,,,,,,,,,,
16,9,2096,A,23.08210909006426,43.234825423041755,1.154105454503213,0.679131049641326,A,1968.481000003521,Correct,sub_016_day_08_data.csv,1,300,83.0,Training at home,,,,,,,,,,,,,
16,9,2097,B,78.86483016456452,65.07681212989952,3.943241508228226,1.0222241745316774,B,1525.2403330086963,Correct,sub_016_day_08_data.csv,1,300,83.0,Training at home,,,,,,,,,,,,,
16,9,2098,A,58.47157931412393,80.06242256387281,2.9235789657061964,1.257617592776323,A,607.4118329997873,Correct,sub_016_day_08_data.csv,1,300,83.0,Training at home,,,,,,,,,,,,,
16,9,2099,B,56.91756681475711,39.87944026943141,2.845878340737855,0.6264247828985935,A,659.7744569880888,Incorrect,sub_016_day_08_data.csv,0,300,83.0,Training at home,,,,,,,,,,,,,
