subject,day,trial,cat,x,y,xt,yt,resp,rt,fb,f_name,acc,n_trials,block,session_type,ns_left_digit,ns_right_digit,ns_left_size,ns_right_size,ns_congruent,ns_cue,ns_correct_side,ns_resp,ns_rt,ns_fb,acc_stroop,acc_stroop_mean,resp_key
16,23,0,A,66.77315950112254,83.85089105701721,3.338657975056127,1.3171267167084166,A,1515.7667910098098,Correct,sub_016_day_23_data.csv,1,600,,Button-Switch at home,,,,,,,,,,,,,k
16,23,1,A,36.972741695222616,64.24925246997833,1.8486370847611309,1.0092248977915992,A,4613.976624037605,Correct,sub_016_day_23_data.csv,1,600,,Button-Switch at home,,,,,,,,,,,,,k
16,23,2,A,29.525786554090416,53.674111714046056,1.4762893277045208,0.8431109752440247,A,1175.0841249595396,Correct,sub_016_day_23_data.csv,1,600,,Button-Switch at home,,,,,,,,,,,,,k
16,23,3,A,20.284589523537257,49.248006022743866,1.0142294761768629,0.77358586962499,A,1160.6267909519374,Correct,sub_016_day_23_data.csv,1,600,,Button-Switch at home,,,,,,,,,,,,,k
16,23,4,A,62.423754269916394,81.62546476448588,3.1211877134958197,1.282169802249807,A,1502.0824989769608,Correct,sub_016_day_23_data.csv,1,600,,Button-Switch at home,,,,,,,,,,,,,k
16,23,5,B,69.5168351809531,52.93994030884471,3.4758417590476545,0.8315786377787434,B,1076.7211659695022,Correct,sub_016_day_23_data.csv,1,600,,Button-Switch at home,,,,,,,,,,,,,d
16,23,6,B,68.17499743359896,57.0290796964136,3.408749871679948,0.8958106890761989,B,1077.358833048493,Correct,sub_016_day_23_data.csv,1,600,,Button-Switch at home,,,,,,,,,,,,,d
16,23,7,A,31.280715777072096,56.961427629985785,1.5640357888536047,0.8947480129017499,A,1044.9996669776738,Correct,sub_016_day_23_data.csv,1,600,,Button-Switch at home,,,,,,,,,,,,,k
16,23,8,A,36.11188095671618,61.424855782620334,1.8055940478358088,0.9648593783724628,A,1057.8610000084154,Correct,sub_016_day_23_data.csv,1,600,,Button-Switch at home,,,,,,,,,,,,,k
16,23,9,A,16.99437742204213,46.5272477726581,0.8497188711021066,0.7308482989716738,A,1215.78533295542,Correct,sub_016_day_23_data.csv,1,600,,Button-Switch at home,,,,,,,,,,,,,k
16,23,10,B,67.93669480312835,51.77079476605728,3.3968347401564176,0.8132137425377521,B,2952.8664160170592,Correct,sub_016_day_23_data.csv,1,600,,Button-Switch at home,,,,,,,,,,,,,d
16,23,11,A,50.380826410011736,60.66591647335462,2.5190413205005866,0.9529379875799144,A,952.5187910185196,Correct,sub_016_day_23_data.csv,1,600,,Button-Switch at home,,,,,,,,,,,,,k
16,23,12,A,63.55585212733775,80.27865894682024,3.1777926063668875,1.261014225936855,A,972.1274159965104,Correct,sub_016_day_23_data.csv,1,600,,Button-Switch at home,,,,,,,,,,,,,k
16,23,13,A,23.67473920136213,48.97374759558183,1.1837369600681065,0.7692778283252033,A,825.8207080070861,Correct,sub_016_day_23_data.csv,1,600,,Button-Switch at home,,,,,,,,,,,,,k
16,23,14,B,79.43720407666352,50.317293925186505,3.971860203833176,0.7903822047194211,B,764.4593750010245,Correct,sub_016_day_23_data.csv,1,600,,Button-Switch at home,,,,,,,,,,,,,d
16,23,15,B,65.74425907588758,54.27246199780539,3.2872129537943793,0.8525098395226831,A,1066.5744579746388,Incorrect,sub_016_day_23_data.csv,0,600,,Button-Switch at home,,,,,,,,,,,,,k
16,23,16,B,70.27179824183237,59.96138328536564,3.5135899120916183,0.9418712061419324,B,3915.731290995609,Correct,sub_016_day_23_data.csv,1,600,,Button-Switch at home,,,,,,,,,,,,,d
16,23,17,B,76.53985928489658,50.38180118100245,3.826992964244829,0.7913954823242944,B,824.0467489813454,Correct,sub_016_day_23_data.csv,1,600,,Button-Switch at home,,,,,,,,,,,,,d
16,23,18,B,62.97521720292167,44.27325377488547,3.1487608601460835,0.6954426440484838,B,709.3388749635778,Correct,sub_016_day_23_data.csv,1,600,,Button-Switch at home,,,,,,,,,,,,,d
16,23,19,B,61.98450911577545,38.73763706209949,3.0992254557887726,0.6084893800585972,B,491.67391599621624,Correct,sub_016_day_23_data.csv,1,600,,Button-Switch at home,,,,,,,,,,,,,d
16,23,20,A,30.810440896642447,46.28248470441814,1.5405220448321222,0.72700356968641,A,1014.0345830004662,Correct,sub_016_day_23_data.csv,1,600,,Button-Switch at home,,,,,,,,,,,,,k
16,23,21,B,82.66053730801377,58.35338128803167,4.133026865400689,0.916612769833022,B,822.2444579587318,Correct,sub_016_day_23_data.csv,1,600,,Button-Switch at home,,,,,,,,,,,,,d
16,23,22,B,66.25185860077455,53.92606365179881,3.3125929300387273,0.8470686270275337,A,736.0032909782603,Incorrect,sub_016_day_23_data.csv,0,600,,Button-Switch at home,,,,,,,,,,,,,k
16,23,23,B,51.91286904660165,37.75185829649703,2.595643452330082,0.5930048034181898,B,736.6576670319773,Correct,sub_016_day_23_data.csv,1,600,,Button-Switch at home,,,,,,,,,,,,,d
16,23,24,A,46.927651956775755,72.40019843262164,2.3463825978387876,1.137259657571837,A,1098.0977920116857,Correct,sub_016_day_23_data.csv,1,600,,Button-Switch at home,,,,,,,,,,,,,k
16,23,25,B,74.45646580079108,55.82748633567265,3.722823290039554,0.8769361047026687,B,1166.6978750145065,Correct,sub_016_day_23_data.csv,1,600,,Button-Switch at home,,,,,,,,,,,,,d
16,23,26,A,18.514126864463396,33.94645007231914,0.9257063432231698,0.5332295908132525,A,6227.41141601,Correct,sub_016_day_23_data.csv,1,600,,Button-Switch at home,,,,,,,,,,,,,k
16,23,27,A,53.04822593130285,64.980623141432,2.6524112965651425,1.0207132414340483,A,1200.1732909702696,Correct,sub_016_day_23_data.csv,1,600,,Button-Switch at home,,,,,,,,,,,,,k
16,23,28,B,48.61063179133342,20.3784863224041,2.430531589566671,0.3201045146087239,A,2031.988165981602,Incorrect,sub_016_day_23_data.csv,0,600,,Button-Switch at home,,,,,,,,,,,,,k
16,23,29,B,39.92636693782397,28.849763109708896,1.996318346891198,0.4531710192163364,B,874.8488329583779,Correct,sub_016_day_23_data.csv,1,600,,Button-Switch at home,,,,,,,,,,,,,d
16,23,30,B,48.15947455974378,25.491706525295804,2.407973727987189,0.4004227897366814,A,1874.590165971313,Incorrect,sub_016_day_23_data.csv,0,600,,Button-Switch at home,,,,,,,,,,,,,k
16,23,31,A,41.46800237183051,70.86242626091033,2.0734001185915254,1.1131043887841217,B,1046.5204999782145,Incorrect,sub_016_day_23_data.csv,0,600,,Button-Switch at home,,,,,,,,,,,,,d
16,23,32,A,46.07852561852675,73.21428857720296,2.3039262809263374,1.1500473556597195,A,838.6049579712562,Correct,sub_016_day_23_data.csv,1,600,,Button-Switch at home,,,,,,,,,,,,,k
16,23,33,A,16.389116500076675,38.88919532823148,0.8194558250038338,0.6108700517359527,A,753.1782080186531,Correct,sub_016_day_23_data.csv,1,600,,Button-Switch at home,,,,,,,,,,,,,k
16,23,34,B,62.092510801437534,44.32316820820109,3.104625540071877,0.6962266981335461,A,501.4811249566265,Incorrect,sub_016_day_23_data.csv,0,600,,Button-Switch at home,,,,,,,,,,,,,k
16,23,35,B,62.37115993886593,41.43390714864012,3.118557996943297,0.650842291538447,B,766.6416250285693,Correct,sub_016_day_23_data.csv,1,600,,Button-Switch at home,,,,,,,,,,,,,d
16,23,36,B,34.951242703047825,20.115776910344792,1.7475621351523911,0.3159778848139519,A,585.3030829457566,Incorrect,sub_016_day_23_data.csv,0,600,,Button-Switch at home,,,,,,,,,,,,,k
16,23,37,A,45.98058773490287,77.68126290125281,2.2990293867451435,1.2202144242607658,A,908.1485830247402,Correct,sub_016_day_23_data.csv,1,600,,Button-Switch at home,,,,,,,,,,,,,k
16,23,38,A,67.40336362184385,82.70022649703104,3.3701681810921924,1.2990521200664236,A,1839.7170410025865,Correct,sub_016_day_23_data.csv,1,600,,Button-Switch at home,,,,,,,,,,,,,k
16,23,39,A,20.009594943268123,42.94601852270499,1.0004797471634062,0.6745944814593059,A,1430.0106249866076,Correct,sub_016_day_23_data.csv,1,600,,Button-Switch at home,,,,,,,,,,,,,k
16,23,40,A,16.155025799146955,42.74852601560278,0.8077512899573478,0.6714922764120492,A,1198.5228330013342,Correct,sub_016_day_23_data.csv,1,600,,Button-Switch at home,,,,,,,,,,,,,k
16,23,41,A,31.890873224816147,44.82890333875109,1.5945436612408073,0.7041707669875368,A,584.913166007027,Correct,sub_016_day_23_data.csv,1,600,,Button-Switch at home,,,,,,,,,,,,,k
16,23,42,A,28.43932518705914,48.80987255880154,1.421966259352957,0.7667036852669246,B,892.2632920439355,Incorrect,sub_016_day_23_data.csv,0,600,,Button-Switch at home,,,,,,,,,,,,,d
16,23,43,B,67.97845971061003,49.583656728283174,3.3989229855305014,0.7788582585784626,A,600.261416984722,Incorrect,sub_016_day_23_data.csv,0,600,,Button-Switch at home,,,,,,,,,,,,,k
16,23,44,B,54.92540634914051,25.894233810199125,2.746270317457026,0.4067456735422901,A,1198.2157080201432,Incorrect,sub_016_day_23_data.csv,0,600,,Button-Switch at home,,,,,,,,,,,,,k
16,23,45,B,36.63100011225413,18.85085856142411,1.8315500056127063,0.2961085938521512,B,890.1777919963934,Correct,sub_016_day_23_data.csv,1,600,,Button-Switch at home,,,,,,,,,,,,,d
16,23,46,A,51.41329013042101,81.70814516459059,2.57066450652105,1.283468542937631,A,796.9112920109183,Correct,sub_016_day_23_data.csv,1,600,,Button-Switch at home,,,,,,,,,,,,,k
16,23,47,B,59.78961763760897,35.98187786825434,2.989480881880448,0.5652020158663649,A,599.284541036468,Incorrect,sub_016_day_23_data.csv,0,600,,Button-Switch at home,,,,,,,,,,,,,k
16,23,48,B,85.9645750136097,65.01976808460438,4.298228750680485,1.021328128763526,B,729.0447499835864,Correct,sub_016_day_23_data.csv,1,600,,Button-Switch at home,,,,,,,,,,,,,d
16,23,49,B,69.03468452260805,48.338987680769165,3.451734226130402,0.7593070428993596,B,605.3232499980368,Correct,sub_016_day_23_data.csv,1,600,,Button-Switch at home,,,,,,,,,,,,,d
16,23,50,B,69.2056102655556,53.08977990450333,3.4602805132777803,0.8339323126434336,B,838.3409579982981,Correct,sub_016_day_23_data.csv,1,600,,Button-Switch at home,,,,,,,,,,,,,d
16,23,51,A,24.07660022786405,38.45269554876967,1.2038300113932023,0.6040135292336987,A,822.4470830173232,Correct,sub_016_day_23_data.csv,1,600,,Button-Switch at home,,,,,,,,,,,,,k
16,23,52,B,40.30179912852649,16.35643201035887,2.0150899564263245,0.2569262332134218,A,634.9251249921508,Incorrect,sub_016_day_23_data.csv,0,600,,Button-Switch at home,,,,,,,,,,,,,k
16,23,53,B,80.38874017559854,53.06196699852643,4.019437008779927,0.8334954285379734,A,628.4933330025524,Incorrect,sub_016_day_23_data.csv,0,600,,Button-Switch at home,,,,,,,,,,,,,k
16,23,54,B,78.44329637513813,47.99516341325754,3.9221648187569063,0.7539062639346576,B,1298.5103750252165,Correct,sub_016_day_23_data.csv,1,600,,Button-Switch at home,,,,,,,,,,,,,d
16,23,55,A,34.233738120514055,59.64159157515485,1.7116869060257027,0.936847929704547,A,2567.4461660091765,Correct,sub_016_day_23_data.csv,1,600,,Button-Switch at home,,,,,,,,,,,,,k
16,23,56,B,55.026159108154864,25.9914415160978,2.7513079554077433,0.408272608615908,A,1277.6377080008388,Incorrect,sub_016_day_23_data.csv,0,600,,Button-Switch at home,,,,,,,,,,,,,k
16,23,57,A,27.368561790603714,38.82322295213149,1.3684280895301857,0.6098337600754745,B,1078.7169159739278,Incorrect,sub_016_day_23_data.csv,0,600,,Button-Switch at home,,,,,,,,,,,,,d
16,23,58,B,83.91869660656097,58.54748782308815,4.195934830328048,0.9196617881557582,A,930.2505829837172,Incorrect,sub_016_day_23_data.csv,0,600,,Button-Switch at home,,,,,,,,,,,,,k
16,23,59,A,51.63450635229899,63.38091126093886,2.5817253176149495,0.9955850259759604,A,1420.3860830166377,Correct,sub_016_day_23_data.csv,1,600,,Button-Switch at home,,,,,,,,,,,,,k
16,23,60,B,46.55203909298202,37.16666612228421,2.327601954649101,0.5838126262409636,B,831.3313329708762,Correct,sub_016_day_23_data.csv,1,600,,Button-Switch at home,,,,,,,,,,,,,d
16,23,61,B,49.8879589378541,25.74250456066008,2.4943979468927053,0.4043623160638572,B,1198.296123999171,Correct,sub_016_day_23_data.csv,1,600,,Button-Switch at home,,,,,,,,,,,,,d
16,23,62,B,53.99754239164935,37.1552276499128,2.6998771195824673,0.583632951137112,A,1117.4372500390746,Incorrect,sub_016_day_23_data.csv,0,600,,Button-Switch at home,,,,,,,,,,,,,k
16,23,63,A,49.2088405872669,64.6737083166795,2.460442029363345,1.0158922346404469,A,1301.1656659655273,Correct,sub_016_day_23_data.csv,1,600,,Button-Switch at home,,,,,,,,,,,,,k
16,23,64,A,41.17512194577462,71.3000391119085,2.0587560972887307,1.1199783953731834,A,1747.8141669998877,Correct,sub_016_day_23_data.csv,1,600,,Button-Switch at home,,,,,,,,,,,,,k
16,23,65,B,83.91018543039824,64.03145051340731,4.195509271519913,1.005803672658094,B,5114.805750024971,Correct,sub_016_day_23_data.csv,1,600,,Button-Switch at home,,,,,,,,,,,,,d
16,23,66,B,71.37266296013712,51.70433551468184,3.568633148006856,0.8121698030583316,A,792.2005409491248,Incorrect,sub_016_day_23_data.csv,0,600,,Button-Switch at home,,,,,,,,,,,,,k
16,23,67,A,12.48434768090378,32.21694019361426,0.624217384045189,0.5060625131670016,B,620.4320000251755,Incorrect,sub_016_day_23_data.csv,0,600,,Button-Switch at home,,,,,,,,,,,,,d
16,23,68,B,79.50064171979594,57.57464734673951,3.9750320859897967,0.9043804456876996,A,1084.966542024631,Incorrect,sub_016_day_23_data.csv,0,600,,Button-Switch at home,,,,,,,,,,,,,k
16,23,69,A,51.902547420239294,80.28432914419552,2.595127371011965,1.261103293188948,B,1031.395208032336,Incorrect,sub_016_day_23_data.csv,0,600,,Button-Switch at home,,,,,,,,,,,,,d
16,23,70,A,25.391737828266734,44.57199349615437,1.2695868914133368,0.7001352366168531,A,624.9252499546856,Correct,sub_016_day_23_data.csv,1,600,,Button-Switch at home,,,,,,,,,,,,,k
16,23,71,B,82.08870056869148,62.25970330353668,4.104435028434574,0.9779731325653552,A,818.6010409845039,Incorrect,sub_016_day_23_data.csv,0,600,,Button-Switch at home,,,,,,,,,,,,,k
16,23,72,B,44.13713167631531,16.56087803038016,2.2068565838157657,0.2601376637861946,A,2363.9349159784615,Incorrect,sub_016_day_23_data.csv,0,600,,Button-Switch at home,,,,,,,,,,,,,k
16,23,73,A,27.69458614990281,48.03664181580049,1.3847293074951406,0.7545578051582155,B,1244.243749009911,Incorrect,sub_016_day_23_data.csv,0,600,,Button-Switch at home,,,,,,,,,,,,,d
16,23,74,B,47.740903827925294,40.02237597970856,2.3870451913962647,0.628670011785305,A,688.0723329959437,Incorrect,sub_016_day_23_data.csv,0,600,,Button-Switch at home,,,,,,,,,,,,,k
16,23,75,A,65.65369786776853,85.32034139354305,3.2826848933884265,1.3402087886186398,A,931.149500014726,Correct,sub_016_day_23_data.csv,1,600,,Button-Switch at home,,,,,,,,,,,,,k
16,23,76,A,24.81603345381872,57.38010872945029,1.240801672690936,0.9013246402331228,A,1024.675082997419,Correct,sub_016_day_23_data.csv,1,600,,Button-Switch at home,,,,,,,,,,,,,k
16,23,77,A,60.59496357236175,74.24771426251192,3.029748178618087,1.1662803683647076,A,744.4245420047082,Correct,sub_016_day_23_data.csv,1,600,,Button-Switch at home,,,,,,,,,,,,,k
16,23,78,A,24.490059789486835,41.5583336957844,1.2245029894743418,0.6527967791705471,A,1079.1119170025922,Correct,sub_016_day_23_data.csv,1,600,,Button-Switch at home,,,,,,,,,,,,,k
16,23,79,A,47.8768848037484,73.02896718806151,2.39384424018742,1.1471363340863203,A,992.992875049822,Correct,sub_016_day_23_data.csv,1,600,,Button-Switch at home,,,,,,,,,,,,,k
16,23,80,B,70.7686324388796,58.06193929688591,3.53843162194398,0.9120348097413664,A,812.8781670238823,Incorrect,sub_016_day_23_data.csv,0,600,,Button-Switch at home,,,,,,,,,,,,,k
16,23,81,B,68.88361256443903,60.33257195951687,3.4441806282219516,0.9477018242009786,A,1569.5355419884436,Incorrect,sub_016_day_23_data.csv,0,600,,Button-Switch at home,,,,,,,,,,,,,k
16,23,82,A,48.936580863456335,58.84619277803788,2.446829043172817,0.9243538346160628,B,1275.2628329908475,Incorrect,sub_016_day_23_data.csv,0,600,,Button-Switch at home,,,,,,,,,,,,,d
16,23,83,A,27.84043578341152,55.02964382132787,1.3920217891705755,0.864403623793733,A,649.4894999777898,Correct,sub_016_day_23_data.csv,1,600,,Button-Switch at home,,,,,,,,,,,,,k
16,23,84,A,16.573829510271196,37.40535913777565,0.8286914755135598,0.5875620073606191,A,1844.2068330477923,Correct,sub_016_day_23_data.csv,1,600,,Button-Switch at home,,,,,,,,,,,,,k
16,23,85,A,36.982248740414846,61.40408353909661,1.849112437020742,0.9645330887341992,A,1817.6278750179335,Correct,sub_016_day_23_data.csv,1,600,,Button-Switch at home,,,,,,,,,,,,,k
16,23,86,B,45.87718547788816,37.8100434519171,2.293859273894408,0.5939187737022681,B,1923.2285829493776,Correct,sub_016_day_23_data.csv,1,600,,Button-Switch at home,,,,,,,,,,,,,d
16,23,87,A,58.237762975397985,86.01613434858102,2.911888148769899,1.351138278798474,A,750.0683329999447,Correct,sub_016_day_23_data.csv,1,600,,Button-Switch at home,,,,,,,,,,,,,k
16,23,88,A,25.775058796838614,42.26005681662618,1.2887529398419306,0.6638194201770004,A,1542.5224580103531,Correct,sub_016_day_23_data.csv,1,600,,Button-Switch at home,,,,,,,,,,,,,k
16,23,89,A,56.50978877058678,71.45440861805926,2.825489438529339,1.122403225905491,A,807.8655419521965,Correct,sub_016_day_23_data.csv,1,600,,Button-Switch at home,,,,,,,,,,,,,k
16,23,90,B,41.11437741924273,21.822103443050384,2.0557188709621363,0.3427807993128181,A,597.0287499949336,Incorrect,sub_016_day_23_data.csv,0,600,,Button-Switch at home,,,,,,,,,,,,,k
16,23,91,A,35.51514127719378,64.00904117866747,1.775757063859689,1.0054516676511416,A,2230.1613749586977,Correct,sub_016_day_23_data.csv,1,600,,Button-Switch at home,,,,,,,,,,,,,k
16,23,92,A,21.492125981128353,38.36189331086665,1.0746062990564176,0.6025872110160704,A,13158.932083053514,Correct,sub_016_day_23_data.csv,1,600,,Button-Switch at home,,,,,,,,,,,,,k
16,23,93,A,29.11135047238036,57.70044144479877,1.455567523619018,0.9063564147593391,A,1049.8376660398208,Correct,sub_016_day_23_data.csv,1,600,,Button-Switch at home,,,,,,,,,,,,,k
16,23,94,A,60.2630284393388,73.56390801218996,3.0131514219669397,1.1555391649022564,A,654.9997920519672,Correct,sub_016_day_23_data.csv,1,600,,Button-Switch at home,,,,,,,,,,,,,k
16,23,95,A,17.836146233933555,32.337675777374784,0.8918073116966778,0.5079590232818461,A,2979.1294579626992,Correct,sub_016_day_23_data.csv,1,600,,Button-Switch at home,,,,,,,,,,,,,k
16,23,96,B,66.51739128276823,56.825165681250745,3.3258695641384115,0.8926076152162008,A,633.7135410285555,Incorrect,sub_016_day_23_data.csv,0,600,,Button-Switch at home,,,,,,,,,,,,,k
16,23,97,B,48.12213914116367,24.724117485369472,2.4061069570581837,0.3883655292926384,A,661.0261250170879,Incorrect,sub_016_day_23_data.csv,0,600,,Button-Switch at home,,,,,,,,,,,,,k
16,23,98,B,45.81229359333005,18.58342305673904,2.2906146796665023,0.2919077267680127,B,827.9614169732668,Correct,sub_016_day_23_data.csv,1,600,,Button-Switch at home,,,,,,,,,,,,,d
16,23,99,A,39.642044686248965,47.39224066552816,1.9821022343124484,0.7444355755599137,B,628.3767079585232,Incorrect,sub_016_day_23_data.csv,0,600,,Button-Switch at home,,,,,,,,,,,,,d
16,23,100,B,74.37939549724345,45.844423373061815,3.718969774862172,0.720122518384356,A,592.117165972013,Incorrect,sub_016_day_23_data.csv,0,600,,Button-Switch at home,,,,,,,,,,,,,k
16,23,101,B,79.01180320572104,65.87034575450346,3.950590160286052,1.0346889715588383,B,1127.7415829827078,Correct,sub_016_day_23_data.csv,1,600,,Button-Switch at home,,,,,,,,,,,,,d
16,23,102,A,27.56914411549321,57.44684079679286,1.3784572057746605,0.9023728650957342,A,2042.7492919843644,Correct,sub_016_day_23_data.csv,1,600,,Button-Switch at home,,,,,,,,,,,,,k
16,23,103,B,48.30510061969435,32.55035124825851,2.4152550309847176,0.5112997217664815,A,553.638999001123,Incorrect,sub_016_day_23_data.csv,0,600,,Button-Switch at home,,,,,,,,,,,,,k
16,23,104,A,35.67293157808389,55.81829710613843,1.7836465789041944,0.8767917606226845,B,881.0372080188245,Incorrect,sub_016_day_23_data.csv,0,600,,Button-Switch at home,,,,,,,,,,,,,d
16,23,105,B,60.19398200513265,35.56941523282357,3.009699100256632,0.558723067939617,B,1127.3065830464477,Correct,sub_016_day_23_data.csv,1,600,,Button-Switch at home,,,,,,,,,,,,,d
16,23,106,B,62.78507789218009,38.137193739071094,3.1392538946090047,0.5990576383959819,B,456.98524999897927,Correct,sub_016_day_23_data.csv,1,600,,Button-Switch at home,,,,,,,,,,,,,d
16,23,107,B,50.584024561892946,43.21056543296199,2.529201228094647,0.6787499746082722,A,3547.0790000399575,Incorrect,sub_016_day_23_data.csv,0,600,,Button-Switch at home,,,,,,,,,,,,,k
16,23,108,B,55.28471108824455,27.871838984738623,2.7642355544122275,0.4378098229824623,B,857.2473750100471,Correct,sub_016_day_23_data.csv,1,600,,Button-Switch at home,,,,,,,,,,,,,d
16,23,109,B,45.20242918429233,30.428656586743912,2.2601214592146164,0.4779722199576067,B,683.0271239741705,Correct,sub_016_day_23_data.csv,1,600,,Button-Switch at home,,,,,,,,,,,,,d
16,23,110,B,53.415189422303065,43.22921454380308,2.6707594711151534,0.679042914156344,A,791.9587080250494,Incorrect,sub_016_day_23_data.csv,0,600,,Button-Switch at home,,,,,,,,,,,,,k
16,23,111,B,74.02157049497977,62.663433951915906,3.701078524748988,0.9843149187602412,B,640.6736660283059,Correct,sub_016_day_23_data.csv,1,600,,Button-Switch at home,,,,,,,,,,,,,d
16,23,112,B,37.50146330047743,15.709007259928892,1.8750731650238717,0.2467565090149066,B,761.9264580425806,Correct,sub_016_day_23_data.csv,1,600,,Button-Switch at home,,,,,,,,,,,,,d
16,23,113,B,74.14556900198232,63.17911250649498,3.707278450099116,0.9924151785536384,A,584.8035829840228,Incorrect,sub_016_day_23_data.csv,0,600,,Button-Switch at home,,,,,,,,,,,,,k
16,23,114,B,49.57037362858392,41.92661596371893,2.478518681429196,0.6585817435074998,A,736.8890409707092,Incorrect,sub_016_day_23_data.csv,0,600,,Button-Switch at home,,,,,,,,,,,,,k
16,23,115,B,74.10552953419531,57.10795878962174,3.7052764767097655,0.8970497189749215,B,690.4685000190511,Correct,sub_016_day_23_data.csv,1,600,,Button-Switch at home,,,,,,,,,,,,,d
16,23,116,A,44.033719868715046,72.87218359299163,2.201685993435752,1.1446735831339458,A,725.9796250145882,Correct,sub_016_day_23_data.csv,1,600,,Button-Switch at home,,,,,,,,,,,,,k
16,23,117,B,42.48045699453997,27.72733896578639,2.1240228497269986,0.4355400219925427,B,1998.863667016849,Correct,sub_016_day_23_data.csv,1,600,,Button-Switch at home,,,,,,,,,,,,,d
16,23,118,B,84.77918934694962,62.59675261639872,4.238959467347481,0.9832674907912794,A,574.4855829980224,Incorrect,sub_016_day_23_data.csv,0,600,,Button-Switch at home,,,,,,,,,,,,,k
16,23,119,A,32.277412787988155,58.589928109491986,1.6138706393994078,0.9203284386156708,A,904.31874897331,Correct,sub_016_day_23_data.csv,1,600,,Button-Switch at home,,,,,,,,,,,,,k
16,23,120,B,71.68735568915625,55.566942804557705,3.5843677844578123,0.8728434964862135,B,1625.737583031878,Correct,sub_016_day_23_data.csv,1,600,,Button-Switch at home,,,,,,,,,,,,,d
16,23,121,A,63.323009085584246,79.51880768217498,3.1661504542792125,1.2490785101827029,A,1455.7517500361428,Correct,sub_016_day_23_data.csv,1,600,,Button-Switch at home,,,,,,,,,,,,,k
16,23,122,B,86.44678001186318,58.33955369423789,4.32233900059316,0.9163955664976252,A,846.9239990226924,Incorrect,sub_016_day_23_data.csv,0,600,,Button-Switch at home,,,,,,,,,,,,,k
16,23,123,B,72.41820659779253,60.816086159315375,3.6209103298896266,0.9552968474909456,A,1249.9813750036992,Incorrect,sub_016_day_23_data.csv,0,600,,Button-Switch at home,,,,,,,,,,,,,k
16,23,124,B,76.04511203596303,61.23611615962132,3.802255601798151,0.9618946633071878,B,634.2864999896847,Correct,sub_016_day_23_data.csv,1,600,,Button-Switch at home,,,,,,,,,,,,,d
16,23,125,B,84.34675596509355,69.0856450429959,4.217337798254678,1.0851947746779402,B,531.536833033897,Correct,sub_016_day_23_data.csv,1,600,,Button-Switch at home,,,,,,,,,,,,,d
16,23,126,B,42.970075998473746,34.75420507094764,2.1485037999236876,0.5459177766612112,A,1489.198082999792,Incorrect,sub_016_day_23_data.csv,0,600,,Button-Switch at home,,,,,,,,,,,,,k
16,23,127,B,62.047507709399554,48.23046529666808,3.1023753854699776,0.7576023772761495,A,660.2131669642404,Incorrect,sub_016_day_23_data.csv,0,600,,Button-Switch at home,,,,,,,,,,,,,k
16,23,128,B,54.39405704038635,43.64974475007284,2.7197028520193176,0.6856485871894924,B,625.4382909974083,Correct,sub_016_day_23_data.csv,1,600,,Button-Switch at home,,,,,,,,,,,,,d
16,23,129,B,45.12289500201392,16.142152876412588,2.256144750100696,0.2535603444483056,A,774.0169999888167,Incorrect,sub_016_day_23_data.csv,0,600,,Button-Switch at home,,,,,,,,,,,,,k
16,23,130,A,13.23212398951041,30.644165546090633,0.6616061994755205,0.4813574267749388,A,1604.729833023157,Correct,sub_016_day_23_data.csv,1,600,,Button-Switch at home,,,,,,,,,,,,,k
16,23,131,B,53.078332849286035,22.44051343527471,2.653916642464302,0.3524947607552104,B,1595.7455830066465,Correct,sub_016_day_23_data.csv,1,600,,Button-Switch at home,,,,,,,,,,,,,d
16,23,132,A,64.062578824838,82.4711439992101,3.2031289412419,1.2954537006053215,A,1007.6035829843022,Correct,sub_016_day_23_data.csv,1,600,,Button-Switch at home,,,,,,,,,,,,,k
16,23,133,B,57.658809630848715,42.140357322473896,2.882940481542436,0.6619391849196642,B,1096.7872500186786,Correct,sub_016_day_23_data.csv,1,600,,Button-Switch at home,,,,,,,,,,,,,d
16,23,134,B,78.44774132323636,63.521141866985786,3.922387066161818,0.997787763184788,B,928.5053330240772,Correct,sub_016_day_23_data.csv,1,600,,Button-Switch at home,,,,,,,,,,,,,d
16,23,135,A,48.91024557683832,78.06105961102091,2.445512278841916,1.226180257027091,A,692.7238330245018,Correct,sub_016_day_23_data.csv,1,600,,Button-Switch at home,,,,,,,,,,,,,k
16,23,136,A,64.40947107618724,81.63450636688557,3.220473553809362,1.2823118274081844,A,1001.9313329830766,Correct,sub_016_day_23_data.csv,1,600,,Button-Switch at home,,,,,,,,,,,,,k
16,23,137,B,87.77066550837316,61.20173415282685,4.3885332754186575,0.9613545920073818,A,670.828000002075,Incorrect,sub_016_day_23_data.csv,0,600,,Button-Switch at home,,,,,,,,,,,,,k
16,23,138,A,58.371135772510414,73.9027369328845,2.9185567886255206,1.160861477142645,A,1004.5218329760246,Correct,sub_016_day_23_data.csv,1,600,,Button-Switch at home,,,,,,,,,,,,,k
16,23,139,A,25.54262938897497,56.2124251713207,1.2771314694487483,0.8829827097934355,A,8580.267666024156,Correct,sub_016_day_23_data.csv,1,600,,Button-Switch at home,,,,,,,,,,,,,k
16,23,140,A,14.391629112165774,39.17388037850603,0.7195814556082887,0.6153418740485993,A,662.5532499747351,Correct,sub_016_day_23_data.csv,1,600,,Button-Switch at home,,,,,,,,,,,,,k
16,23,141,A,65.39002244453397,76.80436572712792,3.2695011222266985,1.2064401556598436,B,1426.803791022394,Incorrect,sub_016_day_23_data.csv,0,600,,Button-Switch at home,,,,,,,,,,,,,d
16,23,142,B,81.77429685205169,60.97479273506043,4.0887148426025846,0.9577898045531308,A,893.6541249859147,Incorrect,sub_016_day_23_data.csv,0,600,,Button-Switch at home,,,,,,,,,,,,,k
16,23,143,A,58.38641768447184,73.37584928453883,2.919320884223592,1.1525851453160951,B,2251.7577490070835,Incorrect,sub_016_day_23_data.csv,0,600,,Button-Switch at home,,,,,,,,,,,,,d
16,23,144,A,47.14073483844669,57.066103932174165,2.3570367419223346,0.8963922644115497,A,681.6117910202593,Correct,sub_016_day_23_data.csv,1,600,,Button-Switch at home,,,,,,,,,,,,,k
16,23,145,A,36.03328098465168,45.283607680281975,1.801664049232584,0.711313246082081,A,6961.268124985509,Correct,sub_016_day_23_data.csv,1,600,,Button-Switch at home,,,,,,,,,,,,,k
16,23,146,A,60.14486150364119,72.04153949142197,3.007243075182059,1.1316258560977512,A,3159.039040969219,Correct,sub_016_day_23_data.csv,1,600,,Button-Switch at home,,,,,,,,,,,,,k
16,23,147,B,51.26794472928154,39.45959333608783,2.563397236464078,0.6198298426914713,A,1804.0798740112225,Incorrect,sub_016_day_23_data.csv,0,600,,Button-Switch at home,,,,,,,,,,,,,k
16,23,148,B,41.45464356998398,15.49717558754092,2.0727321784991988,0.2434290648860482,A,867.7756669931114,Incorrect,sub_016_day_23_data.csv,0,600,,Button-Switch at home,,,,,,,,,,,,,k
16,23,149,A,51.98593165626913,68.05811779153028,2.599296582813457,1.0690544143551015,B,597.1316659706645,Incorrect,sub_016_day_23_data.csv,0,600,,Button-Switch at home,,,,,,,,,,,,,d
16,23,150,A,19.75916430488306,48.680282732078126,0.9879582152441532,0.7646680930288535,A,986.5576659794896,Correct,sub_016_day_23_data.csv,1,600,,Button-Switch at home,,,,,,,,,,,,,k
16,23,151,B,46.81190481823192,24.28336620193908,2.3405952409115964,0.3814422243222125,A,1013.3723330218344,Incorrect,sub_016_day_23_data.csv,0,600,,Button-Switch at home,,,,,,,,,,,,,k
16,23,152,B,56.157894831581466,46.38132008282512,2.807894741579073,0.7285560721800005,A,785.8600830077194,Incorrect,sub_016_day_23_data.csv,0,600,,Button-Switch at home,,,,,,,,,,,,,k
16,23,153,A,44.99654971002008,55.75960928922577,2.2498274855010036,0.8758698945503443,B,1343.9562079729512,Incorrect,sub_016_day_23_data.csv,0,600,,Button-Switch at home,,,,,,,,,,,,,d
16,23,154,B,40.129646943226106,17.995842670500657,2.006482347161305,0.2826780356440129,B,880.5508330115117,Correct,sub_016_day_23_data.csv,1,600,,Button-Switch at home,,,,,,,,,,,,,d
16,23,155,A,61.711577725389766,74.41525701999495,3.0855788862694884,1.1689121238450622,A,982.6685409643688,Correct,sub_016_day_23_data.csv,1,600,,Button-Switch at home,,,,,,,,,,,,,k
16,23,156,B,79.16374594218169,66.87067328788149,3.958187297109084,1.0504020797090583,B,1502.0201670122333,Correct,sub_016_day_23_data.csv,1,600,,Button-Switch at home,,,,,,,,,,,,,d
16,23,157,A,37.20815429477337,67.54912112006737,1.8604077147386688,1.061059113336254,A,910.0054999580608,Correct,sub_016_day_23_data.csv,1,600,,Button-Switch at home,,,,,,,,,,,,,k
16,23,158,A,42.87236699477123,52.86832675666015,2.1436183497385612,0.830453734731541,A,969.6459579863586,Correct,sub_016_day_23_data.csv,1,600,,Button-Switch at home,,,,,,,,,,,,,k
16,23,159,A,66.08363927129027,77.2993389788497,3.3041819635645133,1.2142151773165069,A,749.1337080136873,Correct,sub_016_day_23_data.csv,1,600,,Button-Switch at home,,,,,,,,,,,,,k
16,23,160,A,39.521487568446005,70.79453026077616,1.9760743784223,1.1120378809079734,A,2339.8917500162497,Correct,sub_016_day_23_data.csv,1,600,,Button-Switch at home,,,,,,,,,,,,,k
16,23,161,B,82.5077825682427,67.93902084120283,4.125389128412135,1.0671836438340332,B,1243.4612920042127,Correct,sub_016_day_23_data.csv,1,600,,Button-Switch at home,,,,,,,,,,,,,d
16,23,162,A,54.24572935640181,67.99963058712963,2.7122864678200904,1.0681356994967313,B,520.3472499852069,Incorrect,sub_016_day_23_data.csv,0,600,,Button-Switch at home,,,,,,,,,,,,,d
16,23,163,B,54.68887997426625,46.04001094173083,2.7344439987133127,0.7231948007286763,B,1161.6339579923078,Correct,sub_016_day_23_data.csv,1,600,,Button-Switch at home,,,,,,,,,,,,,d
16,23,164,B,65.26448532830618,53.67049084245384,3.263224266415309,0.8430540987260564,A,990.1316660107112,Incorrect,sub_016_day_23_data.csv,0,600,,Button-Switch at home,,,,,,,,,,,,,k
16,23,165,B,42.97314548401653,20.794525115905,2.1486572742008265,0.3266396366950779,A,1067.458333040122,Incorrect,sub_016_day_23_data.csv,0,600,,Button-Switch at home,,,,,,,,,,,,,k
16,23,166,A,54.285386546699016,81.29236095053994,2.7142693273349505,1.2769374197759302,A,1070.7979159778915,Correct,sub_016_day_23_data.csv,1,600,,Button-Switch at home,,,,,,,,,,,,,k
16,23,167,B,57.84575488369186,34.84238190974206,2.892287744184593,0.5473028552060778,B,1417.6929580280555,Correct,sub_016_day_23_data.csv,1,600,,Button-Switch at home,,,,,,,,,,,,,d
16,23,168,B,53.23279358987324,24.08976210735896,2.6616396794936623,0.3784010983160233,B,1690.6932489946485,Correct,sub_016_day_23_data.csv,1,600,,Button-Switch at home,,,,,,,,,,,,,d
16,23,169,B,85.16322680326495,65.0074672344789,4.258161340163247,1.0211349074615903,B,1616.4355829823762,Correct,sub_016_day_23_data.csv,1,600,,Button-Switch at home,,,,,,,,,,,,,d
16,23,170,B,76.24031627413466,60.49517968366965,3.812015813706733,0.9502560603590554,B,929.8917910200544,Correct,sub_016_day_23_data.csv,1,600,,Button-Switch at home,,,,,,,,,,,,,d
16,23,171,A,45.50638117657472,64.63063609497819,2.275319058828736,1.0152156577640938,B,905.9109580121004,Incorrect,sub_016_day_23_data.csv,0,600,,Button-Switch at home,,,,,,,,,,,,,d
16,23,172,B,65.51370407127483,49.6368333982993,3.2756852035637416,0.7796935557577879,B,2221.4419579831883,Correct,sub_016_day_23_data.csv,1,600,,Button-Switch at home,,,,,,,,,,,,,d
16,23,173,A,38.52980710887774,61.47931736559426,1.926490355443887,0.9657148589173318,A,1154.4859579880722,Correct,sub_016_day_23_data.csv,1,600,,Button-Switch at home,,,,,,,,,,,,,k
16,23,174,A,41.0508605413083,68.64882310866072,2.0525430270654152,1.0783331917787686,A,665.8114159945399,Correct,sub_016_day_23_data.csv,1,600,,Button-Switch at home,,,,,,,,,,,,,k
16,23,175,A,61.46250019123825,73.41432877325607,3.0731250095619123,1.153189579711435,B,3399.733541009482,Incorrect,sub_016_day_23_data.csv,0,600,,Button-Switch at home,,,,,,,,,,,,,d
16,23,176,B,45.3074196460124,25.80898893717917,2.26537098230062,0.4054066502081115,B,977.163332980126,Correct,sub_016_day_23_data.csv,1,600,,Button-Switch at home,,,,,,,,,,,,,d
16,23,177,A,18.195659199535356,34.32653802295144,0.9097829599767678,0.5391999983803747,A,1636.7236660444178,Correct,sub_016_day_23_data.csv,1,600,,Button-Switch at home,,,,,,,,,,,,,k
16,23,178,B,68.61518577117175,51.01571476890842,3.430759288558588,0.801352973678175,A,1094.634082983248,Incorrect,sub_016_day_23_data.csv,0,600,,Button-Switch at home,,,,,,,,,,,,,k
16,23,179,A,49.15821220885283,65.87347264073301,2.457910610442642,1.0347380885728754,A,1636.128208017908,Correct,sub_016_day_23_data.csv,1,600,,Button-Switch at home,,,,,,,,,,,,,k
16,23,180,A,36.97161770926549,52.20620712244525,1.8485808854632744,0.8200531838383057,B,1208.8072079932315,Incorrect,sub_016_day_23_data.csv,0,600,,Button-Switch at home,,,,,,,,,,,,,d
16,23,181,A,60.566290482421266,75.64421949071037,3.0283145241210634,1.1882166211927476,A,703.1207489781082,Correct,sub_016_day_23_data.csv,1,600,,Button-Switch at home,,,,,,,,,,,,,k
16,23,182,A,26.372366385746155,41.86343484629715,1.3186183192873075,0.6575892968358105,A,902.4328329833224,Correct,sub_016_day_23_data.csv,1,600,,Button-Switch at home,,,,,,,,,,,,,k
16,23,183,B,65.18645790072605,44.96685510167693,3.259322895036303,0.7063377082123247,B,1101.307708013337,Correct,sub_016_day_23_data.csv,1,600,,Button-Switch at home,,,,,,,,,,,,,d
16,23,184,B,52.992171156253185,26.59656693672959,2.6496085578126594,0.4177778964956943,A,723.8422490190715,Incorrect,sub_016_day_23_data.csv,0,600,,Button-Switch at home,,,,,,,,,,,,,k
16,23,185,B,44.185125975023695,33.8691593167173,2.209256298751185,0.5320155104633069,B,1702.349541010335,Correct,sub_016_day_23_data.csv,1,600,,Button-Switch at home,,,,,,,,,,,,,d
16,23,186,B,80.98080787558303,52.836976270692574,4.049040393779151,0.82996128244953,A,859.290749009233,Incorrect,sub_016_day_23_data.csv,0,600,,Button-Switch at home,,,,,,,,,,,,,k
16,23,187,A,61.2359282567149,85.59019598408022,3.061796412835745,1.3444476546144857,A,1482.7132500358855,Correct,sub_016_day_23_data.csv,1,600,,Button-Switch at home,,,,,,,,,,,,,k
16,23,188,A,18.199179290524164,44.06758404578038,0.9099589645262084,0.6922119914983721,B,972.22045797389,Incorrect,sub_016_day_23_data.csv,0,600,,Button-Switch at home,,,,,,,,,,,,,d
16,23,189,A,59.68984514312582,79.97701610758764,2.984492257156291,1.2562760312981494,A,816.7416659998707,Correct,sub_016_day_23_data.csv,1,600,,Button-Switch at home,,,,,,,,,,,,,k
16,23,190,B,52.39143015027991,44.12747984576687,2.6195715075139954,0.6931528325244644,A,1011.1470410483888,Incorrect,sub_016_day_23_data.csv,0,600,,Button-Switch at home,,,,,,,,,,,,,k
16,23,191,B,62.759977241803306,37.30565000767909,3.137998862090165,0.5859957800075832,B,925.9945829981008,Correct,sub_016_day_23_data.csv,1,600,,Button-Switch at home,,,,,,,,,,,,,d
16,23,192,A,11.524729107206642,33.85579948793387,0.5762364553603321,0.5318056547635106,A,1939.949791005347,Correct,sub_016_day_23_data.csv,1,600,,Button-Switch at home,,,,,,,,,,,,,k
16,23,193,A,40.32313279870663,55.40227930201094,2.0161566399353315,0.8702569682366372,A,2136.330083012581,Correct,sub_016_day_23_data.csv,1,600,,Button-Switch at home,,,,,,,,,,,,,k
16,23,194,B,81.39232236894945,63.54749281081619,4.069616118447473,0.9982016828425516,B,1010.6416669441388,Correct,sub_016_day_23_data.csv,1,600,,Button-Switch at home,,,,,,,,,,,,,d
16,23,195,A,41.925279698930275,70.54091828093071,2.0962639849465137,1.1080541532442492,A,786.0066670109518,Correct,sub_016_day_23_data.csv,1,600,,Button-Switch at home,,,,,,,,,,,,,k
16,23,196,B,39.50533177828735,27.365921452581823,1.9752665889143677,0.4298628889707319,A,617.1677079983056,Incorrect,sub_016_day_23_data.csv,0,600,,Button-Switch at home,,,,,,,,,,,,,k
16,23,197,B,58.348691457438974,30.551977723070184,2.9174345728719486,0.4799093438371815,A,886.9949159561656,Incorrect,sub_016_day_23_data.csv,0,600,,Button-Switch at home,,,,,,,,,,,,,k
16,23,198,A,32.68474510595404,64.1918933154427,1.6342372552977025,1.0083239022990726,A,1626.2839160044678,Correct,sub_016_day_23_data.csv,1,600,,Button-Switch at home,,,,,,,,,,,,,k
16,23,199,B,72.14137471491796,52.37094498503315,3.607068735745898,0.8226408801326768,A,1209.0083329821937,Incorrect,sub_016_day_23_data.csv,0,600,,Button-Switch at home,,,,,,,,,,,,,k
16,23,200,A,44.0207194371822,51.67723589619908,2.20103597185911,0.8117441232466289,A,1008.3082490018568,Correct,sub_016_day_23_data.csv,1,600,,Button-Switch at home,,,,,,,,,,,,,k
16,23,201,A,62.742766560209546,86.5832373346902,3.137138328010477,1.3600463116734212,A,1262.1577499667185,Correct,sub_016_day_23_data.csv,1,600,,Button-Switch at home,,,,,,,,,,,,,k
16,23,202,A,37.5314414986001,54.00939246732528,1.876572074930005,0.8483775530009849,B,1257.5659159920178,Incorrect,sub_016_day_23_data.csv,0,600,,Button-Switch at home,,,,,,,,,,,,,d
16,23,203,B,70.22503773546853,43.22090345806589,3.5112518867734264,0.6789123639268674,A,1046.3536659954116,Incorrect,sub_016_day_23_data.csv,0,600,,Button-Switch at home,,,,,,,,,,,,,k
16,23,204,B,70.739171852258,50.28335203353079,3.5369585926128995,0.7898490467320485,B,1325.6768329883926,Correct,sub_016_day_23_data.csv,1,600,,Button-Switch at home,,,,,,,,,,,,,d
16,23,205,B,77.99448704958377,52.88708571463373,3.899724352479189,0.830748399754335,A,2089.110000000801,Incorrect,sub_016_day_23_data.csv,0,600,,Button-Switch at home,,,,,,,,,,,,,k
16,23,206,B,85.85097995462823,62.672873083576775,4.292548997731411,0.9844631882936512,B,1358.8823750033043,Correct,sub_016_day_23_data.csv,1,600,,Button-Switch at home,,,,,,,,,,,,,d
16,23,207,B,75.14424485255708,46.59913616869423,3.7572122426278542,0.731977519256001,B,2126.162917003967,Correct,sub_016_day_23_data.csv,1,600,,Button-Switch at home,,,,,,,,,,,,,d
16,23,208,A,50.892812274700205,77.49553953022365,2.54464061373501,1.2172970883706402,A,868.5657499590889,Correct,sub_016_day_23_data.csv,1,600,,Button-Switch at home,,,,,,,,,,,,,k
16,23,209,B,71.29189421632907,50.24510420892104,3.5645947108164533,0.7892482513079996,B,3547.786498966161,Correct,sub_016_day_23_data.csv,1,600,,Button-Switch at home,,,,,,,,,,,,,d
16,23,210,A,59.26473297230434,78.71089288966614,2.963236648615217,1.236387814298341,A,913.728748972062,Correct,sub_016_day_23_data.csv,1,600,,Button-Switch at home,,,,,,,,,,,,,k
16,23,211,B,56.488727720356955,27.88006836669799,2.8244363860178474,0.4379390898119981,B,799.6477080159821,Correct,sub_016_day_23_data.csv,1,600,,Button-Switch at home,,,,,,,,,,,,,d
16,23,212,A,27.37978653892126,50.9463421177347,1.368989326946063,0.8002632706217379,A,719.116790976841,Correct,sub_016_day_23_data.csv,1,600,,Button-Switch at home,,,,,,,,,,,,,k
16,23,213,A,54.581949694429504,81.43998001744019,2.729097484721475,1.2792562146564483,A,2629.0609579882585,Correct,sub_016_day_23_data.csv,1,600,,Button-Switch at home,,,,,,,,,,,,,k
16,23,214,B,86.78191969737699,64.03869962795022,4.33909598486885,1.0059175414830592,A,707.34508294845,Incorrect,sub_016_day_23_data.csv,0,600,,Button-Switch at home,,,,,,,,,,,,,k
16,23,215,A,23.333952545897095,40.31970795003512,1.1666976272948546,0.6333404914535815,A,2255.997541011311,Correct,sub_016_day_23_data.csv,1,600,,Button-Switch at home,,,,,,,,,,,,,k
16,23,216,A,17.63495463834279,45.75633807919387,0.8817477319171395,0.7187388778238318,A,1082.6422499958426,Correct,sub_016_day_23_data.csv,1,600,,Button-Switch at home,,,,,,,,,,,,,k
16,23,217,B,51.67977578856646,20.948373313856656,2.5839887894283233,0.3290562785373427,B,836.7667910060845,Correct,sub_016_day_23_data.csv,1,600,,Button-Switch at home,,,,,,,,,,,,,d
16,23,218,A,34.37779834584893,52.18987574813963,1.7188899172924466,0.8197966512105979,A,1148.4848330146633,Correct,sub_016_day_23_data.csv,1,600,,Button-Switch at home,,,,,,,,,,,,,k
16,23,219,B,57.88581687505357,50.32998254420269,2.894290843752678,0.7905815170808486,A,701.8152080127038,Incorrect,sub_016_day_23_data.csv,0,600,,Button-Switch at home,,,,,,,,,,,,,k
16,23,220,A,28.045317219488073,40.801326955460816,1.4022658609744036,0.6409057450999545,B,699.9129580217414,Incorrect,sub_016_day_23_data.csv,0,600,,Button-Switch at home,,,,,,,,,,,,,d
16,23,221,A,37.15327448866773,46.09173054011477,1.857663724433387,0.7240072102803242,A,1014.0822919784114,Correct,sub_016_day_23_data.csv,1,600,,Button-Switch at home,,,,,,,,,,,,,k
16,23,222,A,34.5714193028715,58.142389598663215,1.728570965143575,0.91329852012658,A,1665.153082984034,Correct,sub_016_day_23_data.csv,1,600,,Button-Switch at home,,,,,,,,,,,,,k
16,23,223,B,57.46911775655277,38.06752176759748,2.8734558878276384,0.5979632336272689,A,1409.9042079760693,Incorrect,sub_016_day_23_data.csv,0,600,,Button-Switch at home,,,,,,,,,,,,,k
16,23,224,B,31.00123041092203,16.890667398042005,1.5500615205461017,0.2653179830595869,B,396.3720419560559,Correct,sub_016_day_23_data.csv,1,600,,Button-Switch at home,,,,,,,,,,,,,d
16,23,225,A,57.23204928528226,71.07772471637935,2.861602464264113,1.116486289014275,A,1936.3085830118507,Correct,sub_016_day_23_data.csv,1,600,,Button-Switch at home,,,,,,,,,,,,,k
16,23,226,A,12.798046540018994,40.10349126519387,0.6399023270009497,0.6299441677101775,A,1390.4658749816008,Correct,sub_016_day_23_data.csv,1,600,,Button-Switch at home,,,,,,,,,,,,,k
16,23,227,B,49.468697870348,22.558024249360365,2.4734348935174,0.3543406163064547,A,1387.04595802119,Incorrect,sub_016_day_23_data.csv,0,600,,Button-Switch at home,,,,,,,,,,,,,k
16,23,228,A,31.334264152805027,61.12839048657478,1.5667132076402512,0.9602025123919576,A,3850.3589989850298,Correct,sub_016_day_23_data.csv,1,600,,Button-Switch at home,,,,,,,,,,,,,k
16,23,229,B,70.81135931375674,52.22677456731243,3.5405679656878366,0.8203762565067949,A,328.6249990342185,Incorrect,sub_016_day_23_data.csv,0,600,,Button-Switch at home,,,,,,,,,,,,,k
16,23,230,A,20.871091642694612,35.72003584788578,1.0435545821347303,0.56108901102841,A,1397.1608750289306,Correct,sub_016_day_23_data.csv,1,600,,Button-Switch at home,,,,,,,,,,,,,k
16,23,231,B,77.39450507187098,46.44883221327984,3.869725253593549,0.7296165502453245,B,1208.6722500389442,Correct,sub_016_day_23_data.csv,1,600,,Button-Switch at home,,,,,,,,,,,,,d
16,23,232,A,51.41351300454366,68.75153064611098,2.5706756502271833,1.0799465180043788,A,1230.4003750323318,Correct,sub_016_day_23_data.csv,1,600,,Button-Switch at home,,,,,,,,,,,,,k
16,23,233,B,50.09769215364329,29.130718102352613,2.5048846076821643,0.4575842499207309,A,841.6177079780027,Incorrect,sub_016_day_23_data.csv,0,600,,Button-Switch at home,,,,,,,,,,,,,k
16,23,234,B,81.89874357798182,64.02439960596698,4.094937178899091,1.0056929172630156,A,435.3335410123691,Incorrect,sub_016_day_23_data.csv,0,600,,Button-Switch at home,,,,,,,,,,,,,k
16,23,235,A,43.54214735561096,75.60576898189007,2.1771073677805477,1.1876126420125643,A,1473.7681249971502,Correct,sub_016_day_23_data.csv,1,600,,Button-Switch at home,,,,,,,,,,,,,k
16,23,236,B,63.11365359639995,50.97620053669492,3.1556826798199977,0.8007322855700041,B,2636.1262079444714,Correct,sub_016_day_23_data.csv,1,600,,Button-Switch at home,,,,,,,,,,,,,d
16,23,237,A,36.76170704845089,67.86127097398115,1.8380853524225444,1.0659623517756271,A,3479.5599579811096,Correct,sub_016_day_23_data.csv,1,600,,Button-Switch at home,,,,,,,,,,,,,k
16,23,238,A,41.924277604897966,68.13438445639216,2.096213880244898,1.0702524083253209,A,876.0997080244124,Correct,sub_016_day_23_data.csv,1,600,,Button-Switch at home,,,,,,,,,,,,,k
16,23,239,A,15.725283238467211,30.63895011556492,0.7862641619233607,0.4812755029838144,B,3956.8342909915377,Incorrect,sub_016_day_23_data.csv,0,600,,Button-Switch at home,,,,,,,,,,,,,d
16,23,240,B,74.59736244273822,57.75950564648774,3.729868122136911,0.9072841930699204,A,1019.8054159991444,Incorrect,sub_016_day_23_data.csv,0,600,,Button-Switch at home,,,,,,,,,,,,,k
16,23,241,B,56.87490392373662,26.319127334409803,2.843745196186831,0.4134198854133807,A,776.0363330016844,Incorrect,sub_016_day_23_data.csv,0,600,,Button-Switch at home,,,,,,,,,,,,,k
16,23,242,A,21.212841778887487,48.12787544250766,1.0606420889443742,0.7559908996153333,B,1341.346415982116,Incorrect,sub_016_day_23_data.csv,0,600,,Button-Switch at home,,,,,,,,,,,,,d
16,23,243,B,61.672204777489135,51.73451843283339,3.083610238874457,0.8126439152279756,A,3320.3477910137735,Incorrect,sub_016_day_23_data.csv,0,600,,Button-Switch at home,,,,,,,,,,,,,k
16,23,244,B,52.622094677062,37.51470401135658,2.6311047338531,0.5892795926183668,A,7048.018666042481,Incorrect,sub_016_day_23_data.csv,0,600,,Button-Switch at home,,,,,,,,,,,,,k
16,23,245,B,71.37707367553867,49.93642594766252,3.5688536837769336,0.7843995445185364,A,1241.4745410205796,Incorrect,sub_016_day_23_data.csv,0,600,,Button-Switch at home,,,,,,,,,,,,,k
16,23,246,A,17.527633779259897,43.151368090781034,0.876381688962995,0.6778201049317336,A,557.5277490424924,Correct,sub_016_day_23_data.csv,1,600,,Button-Switch at home,,,,,,,,,,,,,k
16,23,247,A,29.138936591835385,39.40500735507538,1.4569468295917694,0.6189724081067828,A,12199.046875000931,Correct,sub_016_day_23_data.csv,1,600,,Button-Switch at home,,,,,,,,,,,,,k
16,23,248,B,34.113268577727666,15.903376113002349,1.7056634288863832,0.2498096478194178,A,528.7691660341807,Incorrect,sub_016_day_23_data.csv,0,600,,Button-Switch at home,,,,,,,,,,,,,k
16,23,249,A,32.190088406051125,55.07625367152952,1.6095044203025564,0.865135769608625,A,3122.4469580338337,Correct,sub_016_day_23_data.csv,1,600,,Button-Switch at home,,,,,,,,,,,,,k
16,23,250,A,40.86269566586187,66.87361246747193,2.0431347832930937,1.050448248234103,A,3745.199708035216,Correct,sub_016_day_23_data.csv,1,600,,Button-Switch at home,,,,,,,,,,,,,k
16,23,251,B,71.5654743309697,54.93744668333204,3.5782737165484857,0.8629553945366844,A,885.8079580240883,Incorrect,sub_016_day_23_data.csv,0,600,,Button-Switch at home,,,,,,,,,,,,,k
16,23,252,A,40.49564559601699,71.20198098103363,2.0247822798008497,1.1184381018552771,A,1105.3819580120037,Correct,sub_016_day_23_data.csv,1,600,,Button-Switch at home,,,,,,,,,,,,,k
16,23,253,A,33.80635702773224,47.24253664127195,1.6903178513866122,0.7420840302458329,A,6228.653624013532,Correct,sub_016_day_23_data.csv,1,600,,Button-Switch at home,,,,,,,,,,,,,k
16,23,254,B,41.13190452213619,26.752949360603846,2.05659522610681,0.420234345865664,A,493.9325830200687,Incorrect,sub_016_day_23_data.csv,0,600,,Button-Switch at home,,,,,,,,,,,,,k
16,23,255,A,44.75630857476491,55.6945781176916,2.2378154287382457,0.8748483872966138,A,19.09316598903388,Correct,sub_016_day_23_data.csv,1,600,,Button-Switch at home,,,,,,,,,,,,,k
16,23,256,B,62.733599434872275,55.113214453916605,3.136679971743614,0.8657163482207161,A,9702.135249972343,Incorrect,sub_016_day_23_data.csv,0,600,,Button-Switch at home,,,,,,,,,,,,,k
16,23,257,B,49.287179406286825,35.05558028923862,2.4643589703143416,0.550651767519996,A,2213.881083007436,Incorrect,sub_016_day_23_data.csv,0,600,,Button-Switch at home,,,,,,,,,,,,,k
16,23,258,B,58.83399572724107,40.57727030984316,2.941699786362053,0.6373862715406524,A,7721.22024995042,Incorrect,sub_016_day_23_data.csv,0,600,,Button-Switch at home,,,,,,,,,,,,,k
16,23,259,A,38.35014809238419,47.84824420457925,1.917507404619209,0.7515984624013828,B,1104.1875420487486,Incorrect,sub_016_day_23_data.csv,0,600,,Button-Switch at home,,,,,,,,,,,,,d
16,23,260,B,67.30339166281401,43.07505093210291,3.3651695831407005,0.6766213178065035,B,744.0243750461377,Correct,sub_016_day_23_data.csv,1,600,,Button-Switch at home,,,,,,,,,,,,,d
16,23,261,B,77.94252249547694,48.75001956263352,3.897126124773847,0.7657635166016408,B,552.8880830388516,Correct,sub_016_day_23_data.csv,1,600,,Button-Switch at home,,,,,,,,,,,,,d
16,23,262,B,52.52507766927837,44.81506811351916,2.626253883463918,0.7039534437777899,B,1506.7181249614805,Correct,sub_016_day_23_data.csv,1,600,,Button-Switch at home,,,,,,,,,,,,,d
16,23,263,B,70.95679944050424,53.31351310683888,3.547839972025212,0.8374467055675409,B,1357.1859169751406,Correct,sub_016_day_23_data.csv,1,600,,Button-Switch at home,,,,,,,,,,,,,d
16,23,264,B,52.903654051048925,24.91082957434304,2.645182702552446,0.3912983959279173,B,765.0373740470968,Correct,sub_016_day_23_data.csv,1,600,,Button-Switch at home,,,,,,,,,,,,,d
16,23,265,A,51.805263148594406,80.77503048008643,2.59026315742972,1.268811211748656,B,1075.4630420124158,Incorrect,sub_016_day_23_data.csv,0,600,,Button-Switch at home,,,,,,,,,,,,,d
16,23,266,A,65.19205647720648,85.05113555345906,3.259602823860324,1.3359801131710831,A,808.2882500020787,Correct,sub_016_day_23_data.csv,1,600,,Button-Switch at home,,,,,,,,,,,,,k
16,23,267,A,24.7058956518107,45.804137466646054,1.235294782590535,0.7194897088461611,A,49.32975000701845,Correct,sub_016_day_23_data.csv,1,600,,Button-Switch at home,,,,,,,,,,,,,k
16,23,268,A,35.36761312382011,51.59983911188074,1.7683806561910052,0.810528377401499,B,765.6612489954568,Incorrect,sub_016_day_23_data.csv,0,600,,Button-Switch at home,,,,,,,,,,,,,d
16,23,269,B,80.95175067591444,56.12743038946342,4.047587533795722,0.881647614882054,A,309.595457976684,Incorrect,sub_016_day_23_data.csv,0,600,,Button-Switch at home,,,,,,,,,,,,,k
16,23,270,B,61.31302186336164,37.22771591613402,3.065651093168082,0.5847715941602722,A,1033.041333022993,Incorrect,sub_016_day_23_data.csv,0,600,,Button-Switch at home,,,,,,,,,,,,,k
16,23,271,A,43.34816802317459,65.84402110391868,2.1674084011587293,1.034275464914411,A,520.5802079872228,Correct,sub_016_day_23_data.csv,1,600,,Button-Switch at home,,,,,,,,,,,,,k
16,23,272,A,66.85414355375086,80.56570892924839,3.342707177687543,1.2655231965169016,A,3147.277290991042,Correct,sub_016_day_23_data.csv,1,600,,Button-Switch at home,,,,,,,,,,,,,k
16,23,273,A,65.15403832355507,86.50423812728047,3.2577019161777536,1.358805395025232,A,6006.0562080470845,Correct,sub_016_day_23_data.csv,1,600,,Button-Switch at home,,,,,,,,,,,,,k
16,23,274,B,43.28427887938432,33.480903982151474,2.164213943969216,0.5259168099293616,A,710.0997490342706,Incorrect,sub_016_day_23_data.csv,0,600,,Button-Switch at home,,,,,,,,,,,,,k
16,23,275,B,46.15228940157186,20.01865313239056,2.307614470078593,0.3144522680774024,B,1040.248083008919,Correct,sub_016_day_23_data.csv,1,600,,Button-Switch at home,,,,,,,,,,,,,d
16,23,276,B,61.26391766160916,38.31446575758967,3.063195883080458,0.601842220751307,A,2428.2107909675688,Incorrect,sub_016_day_23_data.csv,0,600,,Button-Switch at home,,,,,,,,,,,,,k
16,23,277,A,40.65849001781033,71.58504672622605,2.032924500890517,1.1244552845099691,A,807.2286660317332,Correct,sub_016_day_23_data.csv,1,600,,Button-Switch at home,,,,,,,,,,,,,k
16,23,278,B,41.085909163024496,18.09321906365954,2.0542954581512247,0.2842076204509181,B,410.183958010748,Correct,sub_016_day_23_data.csv,1,600,,Button-Switch at home,,,,,,,,,,,,,d
16,23,279,A,58.381845445210715,73.20856851299438,2.919092272260536,1.149957505101241,B,1963.7353750295008,Incorrect,sub_016_day_23_data.csv,0,600,,Button-Switch at home,,,,,,,,,,,,,d
16,23,280,B,44.21144109060177,33.837287741508185,2.2105720545300884,0.5315148729306304,A,155.6577499723062,Incorrect,sub_016_day_23_data.csv,0,600,,Button-Switch at home,,,,,,,,,,,,,k
16,23,281,B,81.02692292046179,50.41528047904136,4.051346146023089,0.7919213739081262,B,695.7960829604417,Correct,sub_016_day_23_data.csv,1,600,,Button-Switch at home,,,,,,,,,,,,,d
16,23,282,B,35.34422064716521,23.38306888295172,1.7672110323582604,0.3673003871053261,A,659.1138750081882,Incorrect,sub_016_day_23_data.csv,0,600,,Button-Switch at home,,,,,,,,,,,,,k
16,23,283,A,28.262208535818196,47.781141937625335,1.4131104267909098,0.7505444224568747,B,677.9694990254939,Incorrect,sub_016_day_23_data.csv,0,600,,Button-Switch at home,,,,,,,,,,,,,d
16,23,284,B,44.248207545636845,16.804429719827752,2.212410377281842,0.2639633647778842,B,550.3682079724967,Correct,sub_016_day_23_data.csv,1,600,,Button-Switch at home,,,,,,,,,,,,,d
16,23,285,A,49.10164776881215,60.668627524322744,2.455082388440607,0.9529805726689392,A,811.0473330016248,Correct,sub_016_day_23_data.csv,1,600,,Button-Switch at home,,,,,,,,,,,,,k
16,23,286,B,57.46377392529732,29.0843039433976,2.873188696264866,0.4568551780167528,B,1766.416417027358,Correct,sub_016_day_23_data.csv,1,600,,Button-Switch at home,,,,,,,,,,,,,d
16,23,287,B,65.73265982391261,36.186633231873515,3.286632991195631,0.5684183055970106,A,355.0894580548629,Incorrect,sub_016_day_23_data.csv,0,600,,Button-Switch at home,,,,,,,,,,,,,k
16,23,288,A,18.97220150481003,48.44002591409657,0.9486100752405016,0.7608941477571249,A,522.6581659517251,Correct,sub_016_day_23_data.csv,1,600,,Button-Switch at home,,,,,,,,,,,,,k
16,23,289,B,40.18727381129408,31.462458436113216,2.0093636905647037,0.4942111414338374,A,2791.1050830152817,Incorrect,sub_016_day_23_data.csv,0,600,,Button-Switch at home,,,,,,,,,,,,,k
16,23,290,A,29.251461553284862,44.7844754867929,1.462573077664243,0.7034728959209038,A,1581.7208740045317,Correct,sub_016_day_23_data.csv,1,600,,Button-Switch at home,,,,,,,,,,,,,k
16,23,291,B,72.62428789957032,54.60804066184222,3.631214394978516,0.8577810968508811,B,1980.191874958109,Correct,sub_016_day_23_data.csv,1,600,,Button-Switch at home,,,,,,,,,,,,,d
16,23,292,A,30.327023233356375,56.51215798669276,1.5163511616678187,0.8876909018474989,A,478.065165982116,Correct,sub_016_day_23_data.csv,1,600,,Button-Switch at home,,,,,,,,,,,,,k
16,23,293,B,45.968562052890306,35.621614649965366,2.2984281026445155,0.5595430144666887,B,342.11541595868766,Correct,sub_016_day_23_data.csv,1,600,,Button-Switch at home,,,,,,,,,,,,,d
16,23,294,B,77.60792745353993,64.5791227600824,3.880396372676996,1.0144064881917414,A,2091.0095419967547,Incorrect,sub_016_day_23_data.csv,0,600,,Button-Switch at home,,,,,,,,,,,,,k
16,23,295,A,42.720664753758406,57.726878260818495,2.1360332376879203,0.9067716832942986,B,681.2298750155605,Incorrect,sub_016_day_23_data.csv,0,600,,Button-Switch at home,,,,,,,,,,,,,d
16,23,296,A,29.235959115377153,60.10431328568504,1.4617979557688576,0.9441163453368376,B,577.0386239746585,Incorrect,sub_016_day_23_data.csv,0,600,,Button-Switch at home,,,,,,,,,,,,,d
16,23,297,B,79.87009492579563,64.26299050433761,3.993504746289781,1.0094406943306884,B,780.0930830417201,Correct,sub_016_day_23_data.csv,1,600,,Button-Switch at home,,,,,,,,,,,,,d
16,23,298,B,63.3557082933721,53.52042746961226,3.1677854146686055,0.8406969087775961,A,542.5206249929033,Incorrect,sub_016_day_23_data.csv,0,600,,Button-Switch at home,,,,,,,,,,,,,k
16,23,299,A,38.96726322298648,56.38921581177372,1.948363161149324,0.8857597306797885,B,2575.035125017166,Incorrect,sub_016_day_23_data.csv,0,600,,Button-Switch at home,,,,,,,,,,,,,d
16,23,300,B,45.13849929073948,19.04605871650505,2.256924964536974,0.2991747907180606,A,1024.8897499986924,Incorrect,sub_016_day_23_data.csv,0,600,,Button-Switch at home,,,,,,,,,,,,,k
16,23,301,A,26.60851236146726,53.9867125214644,1.330425618073363,0.8480212972444832,B,238.5426659602672,Incorrect,sub_016_day_23_data.csv,0,600,,Button-Switch at home,,,,,,,,,,,,,d
16,23,302,A,44.505410857959774,65.70306099422974,2.2252705428979884,1.0320612686891713,A,1766.111249977257,Correct,sub_016_day_23_data.csv,1,600,,Button-Switch at home,,,,,,,,,,,,,k
16,23,303,B,33.9774205550055,14.583672253738836,1.698871027750275,0.2290797880735361,A,4777.982375002466,Incorrect,sub_016_day_23_data.csv,0,600,,Button-Switch at home,,,,,,,,,,,,,k
16,23,304,B,70.01901774198888,44.67949681977054,3.5009508870994437,0.7018238948753983,B,201.44020800944415,Correct,sub_016_day_23_data.csv,1,600,,Button-Switch at home,,,,,,,,,,,,,d
16,23,305,B,65.59501955980915,35.535760308477265,3.2797509779904575,0.5581944176241997,B,415.0057079968974,Correct,sub_016_day_23_data.csv,1,600,,Button-Switch at home,,,,,,,,,,,,,d
16,23,306,A,24.008041657411955,49.13159677685199,1.2004020828705977,0.7717573174664709,A,1208.9506239863113,Correct,sub_016_day_23_data.csv,1,600,,Button-Switch at home,,,,,,,,,,,,,k
16,23,307,A,38.13767867042147,46.23324610231876,1.9068839335210737,0.7262301315332678,B,164.12737499922514,Incorrect,sub_016_day_23_data.csv,0,600,,Button-Switch at home,,,,,,,,,,,,,d
16,23,308,A,32.111786667433535,42.958687624724874,1.6055893333716766,0.6747934872484721,A,268.2941249804571,Correct,sub_016_day_23_data.csv,1,600,,Button-Switch at home,,,,,,,,,,,,,k
16,23,309,B,71.32377423068499,61.98790125604859,3.5661887115342497,0.9737036759872588,B,504.8116249963641,Correct,sub_016_day_23_data.csv,1,600,,Button-Switch at home,,,,,,,,,,,,,d
16,23,310,B,54.10847876204953,25.922589404586997,2.7054239381024763,0.4071910821773755,A,863.0675000022165,Incorrect,sub_016_day_23_data.csv,0,600,,Button-Switch at home,,,,,,,,,,,,,k
16,23,311,A,16.074197127677877,38.93766468613033,0.8037098563838938,0.6116314066294488,B,20.02416696632281,Incorrect,sub_016_day_23_data.csv,0,600,,Button-Switch at home,,,,,,,,,,,,,d
16,23,312,B,38.3643539107224,16.89886623451144,1.91821769553612,0.2654467700816887,B,1573.826875013765,Correct,sub_016_day_23_data.csv,1,600,,Button-Switch at home,,,,,,,,,,,,,d
16,23,313,B,89.35474791319959,64.45611008093258,4.46773739565998,1.012474209546164,B,688.4164160001092,Correct,sub_016_day_23_data.csv,1,600,,Button-Switch at home,,,,,,,,,,,,,d
16,23,314,B,71.88040312943866,50.450480915381775,3.594020156471933,0.7924743010691772,B,520.2609580010176,Correct,sub_016_day_23_data.csv,1,600,,Button-Switch at home,,,,,,,,,,,,,d
16,23,315,A,55.42213702047755,64.83105701701992,2.771106851023877,1.018363862245654,B,95.10595799656583,Incorrect,sub_016_day_23_data.csv,0,600,,Button-Switch at home,,,,,,,,,,,,,d
16,23,316,A,60.31348846493685,85.6065140337038,3.015674423246843,1.344703977938577,A,1252.211333019659,Correct,sub_016_day_23_data.csv,1,600,,Button-Switch at home,,,,,,,,,,,,,k
16,23,317,B,72.26375393716658,45.331959385443504,3.613187696858329,0.7120727528907009,A,540.780248993542,Incorrect,sub_016_day_23_data.csv,0,600,,Button-Switch at home,,,,,,,,,,,,,k
16,23,318,A,46.89173328096956,64.55617455487992,2.344586664048478,1.0140460186273554,B,3604.779958026484,Incorrect,sub_016_day_23_data.csv,0,600,,Button-Switch at home,,,,,,,,,,,,,d
16,23,319,B,32.17345772522174,12.204200822464898,1.6086728862610868,0.1917031382339512,B,2777.417792007327,Correct,sub_016_day_23_data.csv,1,600,,Button-Switch at home,,,,,,,,,,,,,d
16,23,320,A,45.953901740266176,64.37179521065768,2.297695087013309,1.0111497946609438,A,1213.775998970959,Correct,sub_016_day_23_data.csv,1,600,,Button-Switch at home,,,,,,,,,,,,,k
16,23,321,A,39.767136780853335,71.340352938233,1.9883568390426667,1.120611643476279,A,408.7929580127821,Correct,sub_016_day_23_data.csv,1,600,,Button-Switch at home,,,,,,,,,,,,,k
16,23,322,A,24.986006219416517,42.64254717527817,1.2493003109708258,0.6698275646810503,B,299.23312400933355,Incorrect,sub_016_day_23_data.csv,0,600,,Button-Switch at home,,,,,,,,,,,,,d
16,23,323,A,41.26180363898754,51.78098765518406,2.0630901819493768,0.8133738520657501,A,109.04916597064584,Correct,sub_016_day_23_data.csv,1,600,,Button-Switch at home,,,,,,,,,,,,,k
16,23,324,A,20.253475314157473,38.170460989711984,1.0126737657078737,0.5995801991470747,A,1.3927080435678365,Correct,sub_016_day_23_data.csv,1,600,,Button-Switch at home,,,,,,,,,,,,,k
16,23,325,A,41.21049235926857,59.67891817377484,2.060524617963429,0.9374342545445872,B,427.44741699425504,Incorrect,sub_016_day_23_data.csv,0,600,,Button-Switch at home,,,,,,,,,,,,,d
16,23,326,A,28.815117596640196,60.57081092743707,1.44075587983201,0.9514440731580632,A,1516.9950000126846,Correct,sub_016_day_23_data.csv,1,600,,Button-Switch at home,,,,,,,,,,,,,k
16,23,327,B,42.509807545218095,21.25545017730524,2.125490377260905,0.3338798306288301,A,345.56133300065994,Incorrect,sub_016_day_23_data.csv,0,600,,Button-Switch at home,,,,,,,,,,,,,k
16,23,328,A,36.37886378180122,54.18711618408255,1.818943189090061,0.8511692306156515,B,3023.380749975331,Incorrect,sub_016_day_23_data.csv,0,600,,Button-Switch at home,,,,,,,,,,,,,d
16,23,329,B,69.97331586946595,40.667236661809014,3.4986657934732976,0.6387994596926835,B,1002.548333024606,Correct,sub_016_day_23_data.csv,1,600,,Button-Switch at home,,,,,,,,,,,,,d
16,23,330,B,42.85509596850508,14.053097355701354,2.142754798425254,0.2207455370642676,A,577.4484999710694,Incorrect,sub_016_day_23_data.csv,0,600,,Button-Switch at home,,,,,,,,,,,,,k
16,23,331,A,41.48036504834624,52.93945330509587,2.074018252417312,0.8315709879417453,B,342.7973330253735,Incorrect,sub_016_day_23_data.csv,0,600,,Button-Switch at home,,,,,,,,,,,,,d
16,23,332,A,58.708498999821366,70.10417091589123,2.9354249499910683,1.1011937416768356,A,162.80245798407122,Correct,sub_016_day_23_data.csv,1,600,,Button-Switch at home,,,,,,,,,,,,,k
16,23,333,A,32.328162313740314,54.648449747615686,1.6164081156870156,0.8584158412859021,B,712.4789169756696,Incorrect,sub_016_day_23_data.csv,0,600,,Button-Switch at home,,,,,,,,,,,,,d
16,23,334,B,66.3584106340408,54.19446243570039,3.3179205317020397,0.8512846252662217,A,572.4552079918794,Incorrect,sub_016_day_23_data.csv,0,600,,Button-Switch at home,,,,,,,,,,,,,k
16,23,335,A,51.35218808961632,82.18977819373202,2.567609404480816,1.2910340168680154,A,971.6916240286082,Correct,sub_016_day_23_data.csv,1,600,,Button-Switch at home,,,,,,,,,,,,,k
16,23,336,A,49.26737469355072,65.94374908810563,2.463368734677536,1.0358419884268066,A,537.7814990351908,Correct,sub_016_day_23_data.csv,1,600,,Button-Switch at home,,,,,,,,,,,,,k
16,23,337,B,85.47367628799456,65.62832804039387,4.273683814399728,1.030887366195412,B,242.2937079682015,Correct,sub_016_day_23_data.csv,1,600,,Button-Switch at home,,,,,,,,,,,,,d
16,23,338,B,53.505889842795895,41.53953041397872,2.6752944921397948,0.6525014179106268,B,895.6805830239318,Correct,sub_016_day_23_data.csv,1,600,,Button-Switch at home,,,,,,,,,,,,,d
16,23,339,B,49.48009198120461,26.884267863236133,2.47400459906023,0.4222970920814139,A,662.0617920416407,Incorrect,sub_016_day_23_data.csv,0,600,,Button-Switch at home,,,,,,,,,,,,,k
16,23,340,B,85.77756813351641,57.66583033365022,4.2888784066758205,0.905812744696755,B,412.9196249996312,Correct,sub_016_day_23_data.csv,1,600,,Button-Switch at home,,,,,,,,,,,,,d
16,23,341,B,77.82264312371048,64.82834172605007,3.891132156185524,1.0183212105548376,A,861.896708025597,Incorrect,sub_016_day_23_data.csv,0,600,,Button-Switch at home,,,,,,,,,,,,,k
16,23,342,A,56.39039883314945,77.7853965536443,2.819519941657473,1.221850151847489,B,521.7129170196131,Incorrect,sub_016_day_23_data.csv,0,600,,Button-Switch at home,,,,,,,,,,,,,d
16,23,343,A,52.150895444111626,79.79114487433532,2.607544772205581,1.2533563727936536,A,545.8665000041947,Correct,sub_016_day_23_data.csv,1,600,,Button-Switch at home,,,,,,,,,,,,,k
16,23,344,A,14.113580996997896,30.41744643643788,0.7056790498498948,0.4777961313283713,A,905.3769999882206,Correct,sub_016_day_23_data.csv,1,600,,Button-Switch at home,,,,,,,,,,,,,k
16,23,345,B,30.751005107740657,15.596431302447208,1.5375502553870328,0.2449881700099302,A,473.0475830147043,Incorrect,sub_016_day_23_data.csv,0,600,,Button-Switch at home,,,,,,,,,,,,,k
16,23,346,B,77.58258144140162,65.71696045440497,3.87912907207008,1.0322796008990482,B,265.3606670210138,Correct,sub_016_day_23_data.csv,1,600,,Button-Switch at home,,,,,,,,,,,,,d
16,23,347,A,33.802859857497694,66.93966252045617,1.6901429928748848,1.0514857600402254,A,325.5144170252606,Correct,sub_016_day_23_data.csv,1,600,,Button-Switch at home,,,,,,,,,,,,,k
16,23,348,A,46.9160340142555,63.04499368103417,2.345801700712775,0.9903084449697592,B,3262.544292025268,Incorrect,sub_016_day_23_data.csv,0,600,,Button-Switch at home,,,,,,,,,,,,,d
16,23,349,A,22.757247016485703,45.29319132944549,1.137862350824285,0.7114637856911143,A,871.2522079586051,Correct,sub_016_day_23_data.csv,1,600,,Button-Switch at home,,,,,,,,,,,,,k
16,23,350,B,68.97368323168905,56.03832848616504,3.448684161584453,0.8802480054579386,B,334.39100004034117,Correct,sub_016_day_23_data.csv,1,600,,Button-Switch at home,,,,,,,,,,,,,d
16,23,351,B,68.5039492041859,42.088503561717175,3.4251974602092954,0.6611246679503925,B,2029.1720000095663,Correct,sub_016_day_23_data.csv,1,600,,Button-Switch at home,,,,,,,,,,,,,d
16,23,352,B,71.02597367921445,46.445847187195234,3.551298683960722,0.7295696615652334,B,507.3564989725128,Correct,sub_016_day_23_data.csv,1,600,,Button-Switch at home,,,,,,,,,,,,,d
16,23,353,A,16.22405701301185,41.956338761621325,0.8112028506505925,0.6590486281251712,B,788.5634169797413,Incorrect,sub_016_day_23_data.csv,0,600,,Button-Switch at home,,,,,,,,,,,,,d
16,23,354,A,29.772255913486212,47.96045134638152,1.4886127956743107,0.7533610080632144,A,1607.6050830306483,Correct,sub_016_day_23_data.csv,1,600,,Button-Switch at home,,,,,,,,,,,,,k
16,23,355,B,82.04268146497597,65.12319910643258,4.1021340732487985,1.0229528194551698,B,730.5847490206361,Correct,sub_016_day_23_data.csv,1,600,,Button-Switch at home,,,,,,,,,,,,,d
16,23,356,B,48.496435689972714,36.92468336586005,2.4248217844986355,0.5800115699915758,B,974.8202920309268,Correct,sub_016_day_23_data.csv,1,600,,Button-Switch at home,,,,,,,,,,,,,d
16,23,357,B,38.82094702017117,29.84317882866022,1.9410473510085584,0.468775556839427,B,885.5140000232495,Correct,sub_016_day_23_data.csv,1,600,,Button-Switch at home,,,,,,,,,,,,,d
16,23,358,A,38.261123579332335,62.83214392491074,1.9130561789666165,0.9869650088189806,B,82.96749897999689,Incorrect,sub_016_day_23_data.csv,0,600,,Button-Switch at home,,,,,,,,,,,,,d
16,23,359,B,47.09741525849352,22.8045930688062,2.354870762924676,0.3582137102653314,B,2879.9665410188027,Correct,sub_016_day_23_data.csv,1,600,,Button-Switch at home,,,,,,,,,,,,,d
16,23,360,A,12.712296032356964,38.61387979160823,0.6356148016178481,0.6065454053995789,B,2377.2407909855247,Incorrect,sub_016_day_23_data.csv,0,600,,Button-Switch at home,,,,,,,,,,,,,d
16,23,361,B,54.792230733118714,35.515271682918886,2.7396115366559353,0.5578725830465179,A,125.26500003878029,Incorrect,sub_016_day_23_data.csv,0,600,,Button-Switch at home,,,,,,,,,,,,,k
16,23,362,B,77.58516553726541,57.250038002072785,3.87925827686327,0.8992814940252417,A,494.4824579870328,Incorrect,sub_016_day_23_data.csv,0,600,,Button-Switch at home,,,,,,,,,,,,,k
16,23,363,B,51.25632407036211,21.450953905174664,2.5628162035181052,0.3369507960049501,A,619.1965829930268,Incorrect,sub_016_day_23_data.csv,0,600,,Button-Switch at home,,,,,,,,,,,,,k
16,23,364,B,75.94977533658994,52.3637259320044,3.7974887668294968,0.8225274835128719,A,324.2087489925325,Incorrect,sub_016_day_23_data.csv,0,600,,Button-Switch at home,,,,,,,,,,,,,k
16,23,365,A,12.14206898737784,33.83592389609389,0.607103449368892,0.5314934496969594,A,348.1087079853751,Correct,sub_016_day_23_data.csv,1,600,,Button-Switch at home,,,,,,,,,,,,,k
16,23,366,B,81.27202612404963,59.09098211993712,4.063601306202481,0.9281989766070012,A,725.3497499623336,Incorrect,sub_016_day_23_data.csv,0,600,,Button-Switch at home,,,,,,,,,,,,,k
16,23,367,A,37.14106034110409,67.1384151873964,1.8570530170552044,1.05460775963193,A,686.8471670313738,Correct,sub_016_day_23_data.csv,1,600,,Button-Switch at home,,,,,,,,,,,,,k
16,23,368,A,18.243084501119437,41.463510369058575,0.912154225055972,0.6513072978373932,A,305.4711659788154,Correct,sub_016_day_23_data.csv,1,600,,Button-Switch at home,,,,,,,,,,,,,k
16,23,369,A,41.76229328665505,70.65879425125794,2.0881146643327524,1.1099057446563232,B,1421.2659999611787,Incorrect,sub_016_day_23_data.csv,0,600,,Button-Switch at home,,,,,,,,,,,,,d
16,23,370,B,46.07228925566872,29.389292319222413,2.303614462783436,0.4616459242213603,A,4316.25312496908,Incorrect,sub_016_day_23_data.csv,0,600,,Button-Switch at home,,,,,,,,,,,,,k
16,23,371,B,46.09244918187189,27.8543627604429,2.304622459093595,0.4375353070931627,A,3627.832249971106,Incorrect,sub_016_day_23_data.csv,0,600,,Button-Switch at home,,,,,,,,,,,,,k
16,23,372,B,65.30054581686525,44.51944220814441,3.2650272908432623,0.6993097629151092,A,401.5562909771688,Incorrect,sub_016_day_23_data.csv,0,600,,Button-Switch at home,,,,,,,,,,,,,k
16,23,373,B,64.23911679443835,44.80938339481206,3.2119558397219174,0.7038641484251501,B,3261.366499005817,Correct,sub_016_day_23_data.csv,1,600,,Button-Switch at home,,,,,,,,,,,,,d
16,23,374,A,47.43710221218173,71.27304226771803,2.3718551106090864,1.119554329936289,B,2929.2507910286076,Incorrect,sub_016_day_23_data.csv,0,600,,Button-Switch at home,,,,,,,,,,,,,d
16,23,375,B,68.22006420800892,43.23032442587401,3.411003210400446,0.679060348143146,A,2915.296374994796,Incorrect,sub_016_day_23_data.csv,0,600,,Button-Switch at home,,,,,,,,,,,,,k
16,23,376,A,29.781832062223422,39.209034529427846,1.4890916031111712,0.6158940741599952,A,376.1849580332637,Correct,sub_016_day_23_data.csv,1,600,,Button-Switch at home,,,,,,,,,,,,,k
16,23,377,B,37.38605502882979,22.588325600522374,1.8693027514414893,0.3548165888174767,A,3119.7772080195136,Incorrect,sub_016_day_23_data.csv,0,600,,Button-Switch at home,,,,,,,,,,,,,k
16,23,378,A,15.492087151319474,36.13272983065853,0.7746043575659738,0.5675715929507081,A,120.12704100925475,Correct,sub_016_day_23_data.csv,1,600,,Button-Switch at home,,,,,,,,,,,,,k
16,23,379,B,76.7047595471704,61.855711334363235,3.83523797735852,0.9716272415530322,A,2007.9927489859983,Incorrect,sub_016_day_23_data.csv,0,600,,Button-Switch at home,,,,,,,,,,,,,k
16,23,380,A,31.88042632647136,40.81430381764629,1.594021316323568,0.6411095851744971,A,617.8198739653453,Correct,sub_016_day_23_data.csv,1,600,,Button-Switch at home,,,,,,,,,,,,,k
16,23,381,A,53.58664192711131,76.65881641849701,2.679332096355566,1.204153872466194,B,891.2119580199942,Incorrect,sub_016_day_23_data.csv,0,600,,Button-Switch at home,,,,,,,,,,,,,d
16,23,382,A,55.60464467844636,67.86585668680023,2.7802322339223178,1.0660343839841468,A,1069.6546660037711,Correct,sub_016_day_23_data.csv,1,600,,Button-Switch at home,,,,,,,,,,,,,k
16,23,383,A,32.163031074172835,58.47466922216043,1.6081515537086415,0.918517956247162,B,1187.32970795827,Incorrect,sub_016_day_23_data.csv,0,600,,Button-Switch at home,,,,,,,,,,,,,d
16,23,384,A,42.741027266335855,73.9887102782678,2.1370513633167927,1.1622119432939486,A,4081.145582953468,Correct,sub_016_day_23_data.csv,1,600,,Button-Switch at home,,,,,,,,,,,,,k
16,23,385,A,38.8451541115034,65.36068828811705,1.94225770557517,1.026683290797605,B,3076.681583013851,Incorrect,sub_016_day_23_data.csv,0,600,,Button-Switch at home,,,,,,,,,,,,,d
16,23,386,A,28.322128576681393,49.3570470147036,1.4161064288340697,0.7752986815213945,A,35.8924160245806,Correct,sub_016_day_23_data.csv,1,600,,Button-Switch at home,,,,,,,,,,,,,k
16,23,387,B,45.55961850731998,17.2671532401886,2.2779809253659993,0.2712318088389284,B,2897.911500011105,Correct,sub_016_day_23_data.csv,1,600,,Button-Switch at home,,,,,,,,,,,,,d
16,23,388,A,47.4437234057988,59.898273267963575,2.37218617028994,0.9408798763067414,A,1783.022083051037,Correct,sub_016_day_23_data.csv,1,600,,Button-Switch at home,,,,,,,,,,,,,k
16,23,389,B,88.77007640620944,68.34834163351042,4.438503820310472,1.0736132398044087,A,667.7103749825619,Incorrect,sub_016_day_23_data.csv,0,600,,Button-Switch at home,,,,,,,,,,,,,k
16,23,390,B,60.803896318115434,43.31991926742057,3.040194815905772,0.6804677006231571,B,315.646665985696,Correct,sub_016_day_23_data.csv,1,600,,Button-Switch at home,,,,,,,,,,,,,d
16,23,391,A,46.10125001322032,68.46142418846401,2.305062500661016,1.0753895364238657,B,985.5073330109008,Incorrect,sub_016_day_23_data.csv,0,600,,Button-Switch at home,,,,,,,,,,,,,d
16,23,392,B,39.72162056455986,13.947806245856096,1.986081028227993,0.2190916281783767,B,3122.975042031612,Correct,sub_016_day_23_data.csv,1,600,,Button-Switch at home,,,,,,,,,,,,,d
16,23,393,B,64.55605388806684,53.08750274025759,3.2278026944033424,0.8338965430311063,B,11125.854082987644,Correct,sub_016_day_23_data.csv,1,600,,Button-Switch at home,,,,,,,,,,,,,d
16,23,394,B,62.74017377573968,48.80859579415555,3.137008688786984,0.7666836298947639,B,141.5390829788521,Correct,sub_016_day_23_data.csv,1,600,,Button-Switch at home,,,,,,,,,,,,,d
16,23,395,B,78.4749281995658,51.29558192858311,3.92374640997829,0.8057491167422502,A,36.81174898520112,Incorrect,sub_016_day_23_data.csv,0,600,,Button-Switch at home,,,,,,,,,,,,,k
16,23,396,B,40.85690246758705,23.42777657635939,2.0428451233793523,0.3680026539111684,A,2787.558290991001,Incorrect,sub_016_day_23_data.csv,0,600,,Button-Switch at home,,,,,,,,,,,,,k
16,23,397,A,36.65098064895281,63.3194588340459,1.8325490324476408,0.9946197335115996,A,5891.767749970313,Correct,sub_016_day_23_data.csv,1,600,,Button-Switch at home,,,,,,,,,,,,,k
16,23,398,B,64.29881779732699,47.24698615720144,3.2149408898663494,0.7421539230786135,B,456.6787909716368,Correct,sub_016_day_23_data.csv,1,600,,Button-Switch at home,,,,,,,,,,,,,d
16,23,399,A,66.49064049030498,87.49552403804648,3.3245320245152494,1.3743764776995795,A,73.45216703834012,Correct,sub_016_day_23_data.csv,1,600,,Button-Switch at home,,,,,,,,,,,,,k
16,23,400,B,76.82879771602506,57.329651271285975,3.841439885801253,0.9005320563336838,A,35.09124997071922,Incorrect,sub_016_day_23_data.csv,0,600,,Button-Switch at home,,,,,,,,,,,,,k
16,23,401,B,84.36828649012396,57.85079855700509,4.218414324506198,0.908718218754951,A,57.441540993750095,Incorrect,sub_016_day_23_data.csv,0,600,,Button-Switch at home,,,,,,,,,,,,,k
16,23,402,B,66.03093426532712,40.02082128328165,3.301546713266356,0.6286455906709383,B,2793.5125829535536,Correct,sub_016_day_23_data.csv,1,600,,Button-Switch at home,,,,,,,,,,,,,d
16,23,403,B,77.96891830129334,49.91855123151486,3.8984459150646673,0.784118769133864,B,884.2110409750603,Correct,sub_016_day_23_data.csv,1,600,,Button-Switch at home,,,,,,,,,,,,,d
16,23,404,B,33.934943337191854,15.195357608926855,1.6967471668595926,0.2386881191643718,A,466.2847489817068,Incorrect,sub_016_day_23_data.csv,0,600,,Button-Switch at home,,,,,,,,,,,,,k
16,23,405,A,33.715130969732286,43.82498561091249,1.6857565484866144,0.6884012641946055,A,2649.8187910183333,Correct,sub_016_day_23_data.csv,1,600,,Button-Switch at home,,,,,,,,,,,,,k
16,23,406,A,36.217676761704226,56.36258869702556,1.8108838380852117,0.8853414729393931,B,7.4107910040766,Incorrect,sub_016_day_23_data.csv,0,600,,Button-Switch at home,,,,,,,,,,,,,d
16,23,407,A,54.23588770139763,61.45153937329482,2.7117943850698816,0.9652785232346346,B,557.5583740137517,Incorrect,sub_016_day_23_data.csv,0,600,,Button-Switch at home,,,,,,,,,,,,,d
16,23,408,B,68.74459324095606,50.15097462514724,3.4372296620478036,0.7877696672636535,B,1920.82370800199,Correct,sub_016_day_23_data.csv,1,600,,Button-Switch at home,,,,,,,,,,,,,d
16,23,409,A,45.00398058672028,68.39521689814997,2.250199029336014,1.074349554739542,B,4865.818249993026,Incorrect,sub_016_day_23_data.csv,0,600,,Button-Switch at home,,,,,,,,,,,,,d
16,23,410,B,38.56191524767681,14.821048875668584,1.9280957623838404,0.2328084913314784,B,636.340916971676,Correct,sub_016_day_23_data.csv,1,600,,Button-Switch at home,,,,,,,,,,,,,d
16,23,411,B,77.50816289212563,58.04772900091184,3.875408144606281,0.9118115949341792,B,316.1414160276763,Correct,sub_016_day_23_data.csv,1,600,,Button-Switch at home,,,,,,,,,,,,,d
16,23,412,A,24.87980026051907,46.80394275856722,1.2439900130259534,0.7351946136467599,B,1553.5040000104343,Incorrect,sub_016_day_23_data.csv,0,600,,Button-Switch at home,,,,,,,,,,,,,d
16,23,413,A,56.3095622372975,73.62874822104942,2.815478111864875,1.1565576725213071,B,49.72216597525403,Incorrect,sub_016_day_23_data.csv,0,600,,Button-Switch at home,,,,,,,,,,,,,d
16,23,414,A,33.96761111316901,58.989006566825026,1.6983805556584508,0.9265971483644876,B,5068.840832973365,Incorrect,sub_016_day_23_data.csv,0,600,,Button-Switch at home,,,,,,,,,,,,,d
16,23,415,A,26.262827729469997,41.00190888355539,1.3131413864734998,0.6440564786586783,A,248.36754199350253,Correct,sub_016_day_23_data.csv,1,600,,Button-Switch at home,,,,,,,,,,,,,k
16,23,416,A,28.580922374365755,50.172000172740304,1.4290461187182877,0.7880999357929339,B,236.20520799886435,Incorrect,sub_016_day_23_data.csv,0,600,,Button-Switch at home,,,,,,,,,,,,,d
16,23,417,B,36.48425976065461,23.500076874233606,1.8242129880327305,0.3691383443344384,B,86.12454094691202,Correct,sub_016_day_23_data.csv,1,600,,Button-Switch at home,,,,,,,,,,,,,d
16,23,418,B,77.68630471124786,55.109112299585846,3.884315235562393,0.8656519117311691,A,225.8617499610409,Incorrect,sub_016_day_23_data.csv,0,600,,Button-Switch at home,,,,,,,,,,,,,k
16,23,419,A,63.51955783317915,79.28575611661674,3.1759778916589574,1.245417744751376,B,3007.6832919730805,Incorrect,sub_016_day_23_data.csv,0,600,,Button-Switch at home,,,,,,,,,,,,,d
16,23,420,B,49.89916168127941,42.9458980262938,2.4949580840639705,0.674592588706105,B,2522.54679199541,Correct,sub_016_day_23_data.csv,1,600,,Button-Switch at home,,,,,,,,,,,,,d
16,23,421,B,77.75782081782957,65.21652745955626,3.8878910408914784,1.024418817797895,A,2406.409832998179,Incorrect,sub_016_day_23_data.csv,0,600,,Button-Switch at home,,,,,,,,,,,,,k
16,23,422,A,45.199491288611256,58.20913057483947,2.259974564430563,0.9143468849288234,B,1721.9402079936117,Incorrect,sub_016_day_23_data.csv,0,600,,Button-Switch at home,,,,,,,,,,,,,d
16,23,423,A,16.493903485033357,45.90761444417973,0.8246951742516678,0.7211151214083386,A,377.3039579973556,Correct,sub_016_day_23_data.csv,1,600,,Button-Switch at home,,,,,,,,,,,,,k
16,23,424,B,66.81935143977249,43.958907383468365,3.3409675719886245,0.6905049024786917,A,1104.49408297427,Incorrect,sub_016_day_23_data.csv,0,600,,Button-Switch at home,,,,,,,,,,,,,k
16,23,425,A,45.62306883647629,61.86357924959945,2.281153441823814,0.971750830476558,A,759.1360000078566,Correct,sub_016_day_23_data.csv,1,600,,Button-Switch at home,,,,,,,,,,,,,k
16,23,426,A,57.770109874665565,70.82323304313863,2.888505493733278,1.1124887431590111,B,2087.654915987514,Incorrect,sub_016_day_23_data.csv,0,600,,Button-Switch at home,,,,,,,,,,,,,d
16,23,427,A,33.32308518463961,59.17603092766484,1.6661542592319805,0.9295349201547712,A,160.07108299527317,Correct,sub_016_day_23_data.csv,1,600,,Button-Switch at home,,,,,,,,,,,,,k
16,23,428,A,16.09960607729901,39.010968490506635,0.8049803038649506,0.6127828600959927,A,2974.11341604311,Correct,sub_016_day_23_data.csv,1,600,,Button-Switch at home,,,,,,,,,,,,,k
16,23,429,B,57.21712963730204,44.2605133338808,2.8608564818651017,0.695242517669165,B,292.06420795526356,Correct,sub_016_day_23_data.csv,1,600,,Button-Switch at home,,,,,,,,,,,,,d
16,23,430,A,17.495716472170997,35.629549686391854,0.8747858236085498,0.5596676577274059,B,146.53874898795038,Incorrect,sub_016_day_23_data.csv,0,600,,Button-Switch at home,,,,,,,,,,,,,d
16,23,431,A,29.389759287857483,50.787416908825975,1.469487964392874,0.7977668792778486,A,351.47875000257045,Correct,sub_016_day_23_data.csv,1,600,,Button-Switch at home,,,,,,,,,,,,,k
16,23,432,A,44.22833014544515,57.05360176894639,2.211416507272258,0.8961958808907982,B,3271.352833020501,Incorrect,sub_016_day_23_data.csv,0,600,,Button-Switch at home,,,,,,,,,,,,,d
16,23,433,B,73.47622550390409,63.58020688984554,3.673811275195204,0.9987155543942896,A,2315.7082080142573,Incorrect,sub_016_day_23_data.csv,0,600,,Button-Switch at home,,,,,,,,,,,,,k
16,23,434,A,56.041356898815806,64.86239501895223,2.8020678449407903,1.0188561184288976,A,798.5991240129806,Correct,sub_016_day_23_data.csv,1,600,,Button-Switch at home,,,,,,,,,,,,,k
16,23,435,B,83.52429697873293,64.0510842733593,4.176214848936647,1.0061120790382316,B,432.1208330220543,Correct,sub_016_day_23_data.csv,1,600,,Button-Switch at home,,,,,,,,,,,,,d
16,23,436,A,46.14758498781572,75.38205820604101,2.307379249390786,1.1840986013628834,A,3340.1361250435,Correct,sub_016_day_23_data.csv,1,600,,Button-Switch at home,,,,,,,,,,,,,k
16,23,437,B,39.21657318320249,17.64498798649449,1.9608286591601245,0.2771668231552562,B,315.5294159660116,Correct,sub_016_day_23_data.csv,1,600,,Button-Switch at home,,,,,,,,,,,,,d
16,23,438,A,40.51251396367409,70.5304454136781,2.0256256981837044,1.107889645830135,A,789.5215000025928,Correct,sub_016_day_23_data.csv,1,600,,Button-Switch at home,,,,,,,,,,,,,k
16,23,439,A,50.7206318423668,70.52657329726736,2.53603159211834,1.1078288227677862,B,352.51441603759304,Incorrect,sub_016_day_23_data.csv,0,600,,Button-Switch at home,,,,,,,,,,,,,d
16,23,440,A,34.99096124670983,55.35221693951683,1.7495480623354915,0.869470590485473,A,948.499708028976,Correct,sub_016_day_23_data.csv,1,600,,Button-Switch at home,,,,,,,,,,,,,k
16,23,441,A,34.850418058740956,44.87460469288644,1.742520902937048,0.7048886421795906,A,992.4090410349892,Correct,sub_016_day_23_data.csv,1,600,,Button-Switch at home,,,,,,,,,,,,,k
16,23,442,A,23.93901253588693,39.83635496307117,1.1969506267943466,0.6257480004888986,A,541.6281240177341,Correct,sub_016_day_23_data.csv,1,600,,Button-Switch at home,,,,,,,,,,,,,k
16,23,443,B,78.15094992119766,46.85353093988864,3.907547496059883,0.7359735429774812,B,727.0397920510732,Correct,sub_016_day_23_data.csv,1,600,,Button-Switch at home,,,,,,,,,,,,,d
16,23,444,B,79.93665070905762,64.35423670364247,3.996832535452881,1.010873986277709,A,21.985250001307577,Incorrect,sub_016_day_23_data.csv,0,600,,Button-Switch at home,,,,,,,,,,,,,k
16,23,445,A,35.46424049372246,58.10275932211978,1.773212024686123,0.9126760091983368,B,647.7526659728028,Incorrect,sub_016_day_23_data.csv,0,600,,Button-Switch at home,,,,,,,,,,,,,d
16,23,446,B,43.03821236701867,25.3104013368555,2.1519106183509336,0.3975748544963725,B,1027.011375001166,Correct,sub_016_day_23_data.csv,1,600,,Button-Switch at home,,,,,,,,,,,,,d
16,23,447,A,43.100535798457,53.39991695840008,2.15502678992285,0.8388039340940735,A,450.54958295077085,Correct,sub_016_day_23_data.csv,1,600,,Button-Switch at home,,,,,,,,,,,,,k
16,23,448,A,24.164594462711737,55.04665304481059,1.2082297231355867,0.8646708040514159,B,501.1136659886688,Incorrect,sub_016_day_23_data.csv,0,600,,Button-Switch at home,,,,,,,,,,,,,d
16,23,449,A,53.977839265862094,80.1123785733315,2.698891963293105,1.2584022999379127,A,2114.2001249827445,Correct,sub_016_day_23_data.csv,1,600,,Button-Switch at home,,,,,,,,,,,,,k
16,23,450,A,11.319091251515983,30.67087463687995,0.5659545625757992,0.4817769721919778,A,1010.2739990106784,Correct,sub_016_day_23_data.csv,1,600,,Button-Switch at home,,,,,,,,,,,,,k
16,23,451,B,48.15001334195947,37.24896375141547,2.4075006670979735,0.5851053543763967,A,427.91099997702986,Incorrect,sub_016_day_23_data.csv,0,600,,Button-Switch at home,,,,,,,,,,,,,k
16,23,452,A,51.53034237614065,79.66072697394296,2.5765171188070326,1.2513077732048072,A,818.0121660116129,Correct,sub_016_day_23_data.csv,1,600,,Button-Switch at home,,,,,,,,,,,,,k
16,23,453,A,34.187432260501396,61.30208961949603,1.7093716130250698,0.9629309719915592,B,1465.8705000183545,Incorrect,sub_016_day_23_data.csv,0,600,,Button-Switch at home,,,,,,,,,,,,,d
16,23,454,A,33.02918493685287,63.16659266524981,1.6514592468426434,0.9922185173472384,A,584.2185409856029,Correct,sub_016_day_23_data.csv,1,600,,Button-Switch at home,,,,,,,,,,,,,k
16,23,455,A,62.94112333282912,77.26507965130641,3.1470561666414563,1.2136770330578723,B,638.8530830154195,Incorrect,sub_016_day_23_data.csv,0,600,,Button-Switch at home,,,,,,,,,,,,,d
16,23,456,B,86.24802470062832,63.665358502225985,4.312401235031416,1.000053112793768,A,203.4728330327198,Incorrect,sub_016_day_23_data.csv,0,600,,Button-Switch at home,,,,,,,,,,,,,k
16,23,457,B,38.714863262685434,28.65273883041703,1.935743163134272,0.4500761690743257,B,1198.1053330237046,Correct,sub_016_day_23_data.csv,1,600,,Button-Switch at home,,,,,,,,,,,,,d
16,23,458,A,21.60718332824591,46.93584224646478,1.0803591664122956,0.7372664859577162,B,617.3901670263149,Incorrect,sub_016_day_23_data.csv,0,600,,Button-Switch at home,,,,,,,,,,,,,d
16,23,459,A,51.145288441903176,58.62262124511483,2.557264422095159,0.9208419811891482,A,252.5297079700977,Correct,sub_016_day_23_data.csv,1,600,,Button-Switch at home,,,,,,,,,,,,,k
16,23,460,B,86.76039974485938,60.87438123883051,4.338019987242969,0.9562125444586714,A,203.5507499822415,Incorrect,sub_016_day_23_data.csv,0,600,,Button-Switch at home,,,,,,,,,,,,,k
16,23,461,A,36.270138857952965,52.95641208865191,1.813506942897648,0.8318373758909128,B,565.840623981785,Incorrect,sub_016_day_23_data.csv,0,600,,Button-Switch at home,,,,,,,,,,,,,d
16,23,462,B,77.92946258534349,58.1624268667744,3.896473129267174,0.9136132647980604,B,1061.849332996644,Correct,sub_016_day_23_data.csv,1,600,,Button-Switch at home,,,,,,,,,,,,,d
16,23,463,A,45.27505523403524,59.62224201419634,2.2637527617017623,0.9365439875117596,B,68.52437398629263,Incorrect,sub_016_day_23_data.csv,0,600,,Button-Switch at home,,,,,,,,,,,,,d
16,23,464,A,33.74780911956391,56.17674503654917,1.6873904559781954,0.8824222475470488,B,344.0588749945164,Incorrect,sub_016_day_23_data.csv,0,600,,Button-Switch at home,,,,,,,,,,,,,d
16,23,465,A,52.14051904102226,63.65122736821791,2.6070259520511128,0.999831141459835,A,353.24679099721834,Correct,sub_016_day_23_data.csv,1,600,,Button-Switch at home,,,,,,,,,,,,,k
16,23,466,A,30.381823454663348,62.60533434414559,1.5190911727331673,0.9834022922555028,A,3639.8780830204487,Correct,sub_016_day_23_data.csv,1,600,,Button-Switch at home,,,,,,,,,,,,,k
16,23,467,B,63.948024153532984,30.90328584684284,3.197401207676649,0.4854276789411345,B,6440.749750006944,Correct,sub_016_day_23_data.csv,1,600,,Button-Switch at home,,,,,,,,,,,,,d
16,23,468,A,53.462658192321456,63.479458275208685,2.6731329096160725,0.997132998856277,B,2454.1472499840893,Incorrect,sub_016_day_23_data.csv,0,600,,Button-Switch at home,,,,,,,,,,,,,d
16,23,469,A,61.24154430695483,84.50988945830193,3.062077215347742,1.3274782393894342,A,4600.031749054324,Correct,sub_016_day_23_data.csv,1,600,,Button-Switch at home,,,,,,,,,,,,,k
16,23,470,B,72.13028096537643,54.67518806757866,3.606514048268821,0.8588358458337271,B,281.52633301215246,Correct,sub_016_day_23_data.csv,1,600,,Button-Switch at home,,,,,,,,,,,,,d
16,23,471,B,75.18128694944629,51.86897442686742,3.7590643474723144,0.8147559450434176,B,1962.0091250399128,Correct,sub_016_day_23_data.csv,1,600,,Button-Switch at home,,,,,,,,,,,,,d
16,23,472,B,72.57524339692148,55.12201789636807,3.6287621698460737,0.865854632371375,A,6381.271374993958,Incorrect,sub_016_day_23_data.csv,0,600,,Button-Switch at home,,,,,,,,,,,,,k
16,23,473,B,40.92292151183486,31.923907056575555,2.046146075591743,0.5014595594141056,B,9194.423125009052,Correct,sub_016_day_23_data.csv,1,600,,Button-Switch at home,,,,,,,,,,,,,d
16,23,474,B,82.07446468700357,52.08737143893528,4.103723234350179,0.8181865172868095,A,2521.0867910063826,Incorrect,sub_016_day_23_data.csv,0,600,,Button-Switch at home,,,,,,,,,,,,,k
16,23,475,B,66.08594285089623,58.044961928970274,3.3042971425448115,0.9117681298697612,B,62.2299580136314,Correct,sub_016_day_23_data.csv,1,600,,Button-Switch at home,,,,,,,,,,,,,d
16,23,476,A,49.284768105439575,58.31288776610629,2.464238405271979,0.9159766990780284,A,6476.827000034973,Correct,sub_016_day_23_data.csv,1,600,,Button-Switch at home,,,,,,,,,,,,,k
16,23,477,B,66.66167326664436,37.73554930303638,3.333083663332218,0.5927486223479727,A,9577.71441602381,Incorrect,sub_016_day_23_data.csv,0,600,,Button-Switch at home,,,,,,,,,,,,,k
16,23,478,A,42.18851798090874,58.85647654136915,2.109425899045437,0.9245153715927268,B,532.5744990259409,Incorrect,sub_016_day_23_data.csv,0,600,,Button-Switch at home,,,,,,,,,,,,,d
16,23,479,B,37.6965614159184,27.653486827819304,1.8848280707959195,0.4343799553220962,A,320.7800409873016,Incorrect,sub_016_day_23_data.csv,0,600,,Button-Switch at home,,,,,,,,,,,,,k
16,23,480,A,37.308286637129626,52.63029254194286,1.8654143318564815,0.8267147020302468,B,8280.476832995191,Incorrect,sub_016_day_23_data.csv,0,600,,Button-Switch at home,,,,,,,,,,,,,d
16,23,481,B,48.82690343679198,41.34438169741106,2.441345171839599,0.6494360290389943,A,246.47091596852988,Incorrect,sub_016_day_23_data.csv,0,600,,Button-Switch at home,,,,,,,,,,,,,k
16,23,482,B,48.16024858072319,29.207364471585706,2.40801242903616,0.458788208273266,B,17216.74379101023,Correct,sub_016_day_23_data.csv,1,600,,Button-Switch at home,,,,,,,,,,,,,d
16,23,483,A,17.92749614557588,42.44114674649366,0.8963748072787939,0.6666639741435542,B,53.32050001015887,Incorrect,sub_016_day_23_data.csv,0,600,,Button-Switch at home,,,,,,,,,,,,,d
16,23,484,B,60.870452050572766,43.94764909794665,3.0435226025286384,0.6903280577432565,A,128.94104100996628,Incorrect,sub_016_day_23_data.csv,0,600,,Button-Switch at home,,,,,,,,,,,,,k
16,23,485,A,60.561591218409816,83.13631113481807,3.028079560920491,1.305902121538499,B,161.4562920294702,Incorrect,sub_016_day_23_data.csv,0,600,,Button-Switch at home,,,,,,,,,,,,,d
16,23,486,A,29.74582396368867,53.190771277118415,1.4872911981844337,0.835518681414851,A,511.18445803876966,Correct,sub_016_day_23_data.csv,1,600,,Button-Switch at home,,,,,,,,,,,,,k
16,23,487,B,59.306575393840994,42.49019716868496,2.9653287696920496,0.6674344563736124,B,393.0985829792917,Correct,sub_016_day_23_data.csv,1,600,,Button-Switch at home,,,,,,,,,,,,,d
16,23,488,B,49.28294170701214,22.706830147834207,2.464147085350607,0.3566780538937358,A,47.75383300147951,Incorrect,sub_016_day_23_data.csv,0,600,,Button-Switch at home,,,,,,,,,,,,,k
16,23,489,A,26.89411069428636,44.77268503260283,1.344705534714318,0.7032876918995736,A,10357.066666998437,Correct,sub_016_day_23_data.csv,1,600,,Button-Switch at home,,,,,,,,,,,,,k
16,23,490,B,60.175852880948355,40.48839350841397,3.0087926440474178,0.63599019800843,A,13160.65845801495,Incorrect,sub_016_day_23_data.csv,0,600,,Button-Switch at home,,,,,,,,,,,,,k
16,23,491,A,51.08495556718213,73.80137528173195,2.5542477783591067,1.1592692920495622,A,14373.594957985915,Correct,sub_016_day_23_data.csv,1,600,,Button-Switch at home,,,,,,,,,,,,,k
16,23,492,A,51.91559732017817,63.43862506013397,2.595779866008909,0.996491592213771,B,117239.56483299844,Incorrect,sub_016_day_23_data.csv,0,600,,Button-Switch at home,,,,,,,,,,,,,d
16,23,493,A,12.959057277835026,35.030982277974054,0.6479528638917513,0.5502653828625876,B,80.48649900592864,Incorrect,sub_016_day_23_data.csv,0,600,,Button-Switch at home,,,,,,,,,,,,,d
16,23,494,A,33.97003371752532,49.508245068327184,1.698501685876266,0.7776736949938989,A,69.59324999479577,Correct,sub_016_day_23_data.csv,1,600,,Button-Switch at home,,,,,,,,,,,,,k
16,23,495,B,35.72941358363879,24.428229689959903,1.7864706791819396,0.3837177346709104,B,421.57687502913177,Correct,sub_016_day_23_data.csv,1,600,,Button-Switch at home,,,,,,,,,,,,,d
16,23,496,B,72.62129251703335,39.76362005376439,3.631064625851668,0.6246054832052099,A,113.85762505233288,Incorrect,sub_016_day_23_data.csv,0,600,,Button-Switch at home,,,,,,,,,,,,,k
16,23,497,B,37.05845642519966,27.310228477980917,1.852922821259983,0.428988065771418,B,744.4355409825221,Correct,sub_016_day_23_data.csv,1,600,,Button-Switch at home,,,,,,,,,,,,,d
16,23,498,B,52.16090701355742,36.983424760338025,2.6080453506778714,0.5809342776583439,B,177.93795798206702,Correct,sub_016_day_23_data.csv,1,600,,Button-Switch at home,,,,,,,,,,,,,d
16,23,499,B,59.9456986005821,51.54638335434268,2.997284930029105,0.8096886963256308,A,25.75699897715822,Incorrect,sub_016_day_23_data.csv,0,600,,Button-Switch at home,,,,,,,,,,,,,k
16,23,500,B,39.95683307396895,30.372956532479428,1.9978416536984471,0.4770972855511975,B,770.1517079840414,Correct,sub_016_day_23_data.csv,1,600,,Button-Switch at home,,,,,,,,,,,,,d
16,23,501,B,75.30238607275915,62.333860539321186,3.7651193036379578,0.9791379917011108,B,818.9450000063516,Correct,sub_016_day_23_data.csv,1,600,,Button-Switch at home,,,,,,,,,,,,,d
16,23,502,A,40.318295403244704,48.2999450534641,2.015914770162235,0.7586937627437674,B,18.949708028230816,Incorrect,sub_016_day_23_data.csv,0,600,,Button-Switch at home,,,,,,,,,,,,,d
16,23,503,B,77.4467776802121,51.22590992265482,3.8723388840106048,0.8046547114323245,A,355.7573749567382,Incorrect,sub_016_day_23_data.csv,0,600,,Button-Switch at home,,,,,,,,,,,,,k
16,23,504,A,20.75066669597806,39.534425763854344,1.037533334798903,0.6210053077180793,B,52.16608301270753,Incorrect,sub_016_day_23_data.csv,0,600,,Button-Switch at home,,,,,,,,,,,,,d
16,23,505,A,19.2504098122292,47.03686014200571,0.96252049061146,0.7388532713502786,B,124.80429199058564,Incorrect,sub_016_day_23_data.csv,0,600,,Button-Switch at home,,,,,,,,,,,,,d
16,23,506,A,39.24059756807595,48.44634051180214,1.9620298784037973,0.760993337225936,A,262.497165997047,Correct,sub_016_day_23_data.csv,1,600,,Button-Switch at home,,,,,,,,,,,,,k
16,23,507,A,56.335959451922456,79.52887890636595,2.8167979725961225,1.2492367086023577,A,816.1279989872128,Correct,sub_016_day_23_data.csv,1,600,,Button-Switch at home,,,,,,,,,,,,,k
16,23,508,B,35.22071273990403,22.65878226511863,1.7610356369952016,0.3559233195169369,B,379.53879102133214,Correct,sub_016_day_23_data.csv,1,600,,Button-Switch at home,,,,,,,,,,,,,d
16,23,509,B,76.71635962359417,53.05522108914237,3.835817981179708,0.8333894640411597,A,268.1817500269972,Incorrect,sub_016_day_23_data.csv,0,600,,Button-Switch at home,,,,,,,,,,,,,k
16,23,510,B,61.256785709794634,30.354588740057668,3.0628392854897317,0.4768087649425231,B,268.66845798213035,Correct,sub_016_day_23_data.csv,1,600,,Button-Switch at home,,,,,,,,,,,,,d
16,23,511,A,66.23830119183586,83.02382156124087,3.3119150595917928,1.304135139448721,A,688.128833018709,Correct,sub_016_day_23_data.csv,1,600,,Button-Switch at home,,,,,,,,,,,,,k
16,23,512,B,47.92236535881081,19.27951067654943,2.3961182679405404,0.3028418455312683,B,3627.426791994367,Correct,sub_016_day_23_data.csv,1,600,,Button-Switch at home,,,,,,,,,,,,,d
16,23,513,A,27.000268625797897,51.70487828583882,1.3500134312898948,0.8121783288877282,A,35.65479104872793,Correct,sub_016_day_23_data.csv,1,600,,Button-Switch at home,,,,,,,,,,,,,k
16,23,514,B,37.63250695481468,13.557222149031738,1.881625347740734,0.2129563475324146,B,7.024833001196384,Correct,sub_016_day_23_data.csv,1,600,,Button-Switch at home,,,,,,,,,,,,,d
16,23,515,A,13.343681943267336,37.27136072412925,0.6671840971633668,0.585457165201098,A,425.4000420332886,Correct,sub_016_day_23_data.csv,1,600,,Button-Switch at home,,,,,,,,,,,,,k
16,23,516,A,64.91801333279358,87.2923287138267,3.245900666639679,1.3711846930105167,B,376.04370794724673,Incorrect,sub_016_day_23_data.csv,0,600,,Button-Switch at home,,,,,,,,,,,,,d
16,23,517,A,16.712387183100276,41.46622996745704,0.8356193591550138,0.6513500171891398,A,725.7854579947889,Correct,sub_016_day_23_data.csv,1,600,,Button-Switch at home,,,,,,,,,,,,,k
16,23,518,A,51.41893415588186,61.62627262753461,2.570946707794093,0.9680232267739224,B,323.29454098362476,Incorrect,sub_016_day_23_data.csv,0,600,,Button-Switch at home,,,,,,,,,,,,,d
16,23,519,B,37.216691494998955,25.25322356395982,1.8608345747499475,0.3966767081399842,A,43.784624023828655,Incorrect,sub_016_day_23_data.csv,0,600,,Button-Switch at home,,,,,,,,,,,,,k
16,23,520,A,49.408804567352945,78.63645139044215,2.470440228367647,1.2352184899629195,B,330.6406249757856,Incorrect,sub_016_day_23_data.csv,0,600,,Button-Switch at home,,,,,,,,,,,,,d
16,23,521,B,38.73466843003778,18.84960942146161,1.9367334215018888,0.2960889724075037,A,39.1738330363296,Incorrect,sub_016_day_23_data.csv,0,600,,Button-Switch at home,,,,,,,,,,,,,k
16,23,522,B,46.59956434502873,27.26098756117481,2.3299782172514365,0.4282145912589476,B,138.54270800948143,Correct,sub_016_day_23_data.csv,1,600,,Button-Switch at home,,,,,,,,,,,,,d
16,23,523,A,32.200928602591894,59.39060205822119,1.6100464301295947,0.9329053955919128,B,191.202332964167,Incorrect,sub_016_day_23_data.csv,0,600,,Button-Switch at home,,,,,,,,,,,,,d
16,23,524,B,33.23748185650106,11.39756174088732,1.661874092825053,0.1790324811700385,A,286.57649899832904,Incorrect,sub_016_day_23_data.csv,0,600,,Button-Switch at home,,,,,,,,,,,,,k
16,23,525,A,67.73294134757575,85.65308527037752,3.3866470673787874,1.3454355172135906,B,92.7983740111813,Incorrect,sub_016_day_23_data.csv,0,600,,Button-Switch at home,,,,,,,,,,,,,d
16,23,526,A,43.82112142410325,71.74488655308744,2.1910560712051623,1.126966042639063,A,147.73862500442192,Correct,sub_016_day_23_data.csv,1,600,,Button-Switch at home,,,,,,,,,,,,,k
16,23,527,A,40.40429021123322,48.769028823305504,2.0202145105616607,0.7660621133700273,B,338.62441597739235,Incorrect,sub_016_day_23_data.csv,0,600,,Button-Switch at home,,,,,,,,,,,,,d
16,23,528,A,44.30505437521009,67.62647570982679,2.2152527187605044,1.0622741963908022,A,421.3356240070425,Correct,sub_016_day_23_data.csv,1,600,,Button-Switch at home,,,,,,,,,,,,,k
16,23,529,A,19.09482368101,40.65600839426322,0.9547411840505,0.6386230864785115,A,1531.5837490488775,Correct,sub_016_day_23_data.csv,1,600,,Button-Switch at home,,,,,,,,,,,,,k
16,23,530,A,68.97744561201611,88.44938760386142,3.448872280600806,1.3893597315540358,A,391.6281670099124,Correct,sub_016_day_23_data.csv,1,600,,Button-Switch at home,,,,,,,,,,,,,k
16,23,531,B,49.923635273117064,26.021621685419262,2.496181763655853,0.40874667760703,B,883.2929579657502,Correct,sub_016_day_23_data.csv,1,600,,Button-Switch at home,,,,,,,,,,,,,d
16,23,532,B,58.94847383504798,27.564927549058105,2.947423691752399,0.4329888694242792,B,500.14199898578227,Correct,sub_016_day_23_data.csv,1,600,,Button-Switch at home,,,,,,,,,,,,,d
16,23,533,A,32.81019997692982,54.142974406693455,1.640509998846491,0.8504758531978417,B,1195.520790992305,Incorrect,sub_016_day_23_data.csv,0,600,,Button-Switch at home,,,,,,,,,,,,,d
16,23,534,B,57.81702449537786,45.76920457842411,2.890851224768893,0.7189409843211276,B,455.4366659722291,Correct,sub_016_day_23_data.csv,1,600,,Button-Switch at home,,,,,,,,,,,,,d
16,23,535,B,62.62794258596341,32.04728856146073,3.1313971292981706,0.5033976315607862,A,382.63087504310533,Incorrect,sub_016_day_23_data.csv,0,600,,Button-Switch at home,,,,,,,,,,,,,k
16,23,536,B,73.10121512535822,48.153710124412235,3.655060756267911,0.7563967098497296,B,2908.686833048705,Correct,sub_016_day_23_data.csv,1,600,,Button-Switch at home,,,,,,,,,,,,,d
16,23,537,B,84.66593142641854,63.50052398926299,4.233296571320927,0.9974638983188552,A,1241.0110410419293,Incorrect,sub_016_day_23_data.csv,0,600,,Button-Switch at home,,,,,,,,,,,,,k
16,23,538,A,49.81640242876353,61.85630601639601,2.4908201214381767,0.9716365827965592,B,322.7139580412768,Incorrect,sub_016_day_23_data.csv,0,600,,Button-Switch at home,,,,,,,,,,,,,d
16,23,539,B,58.14404633979982,27.80993017768837,2.907202316989991,0.4368373617153543,B,203.2780410372652,Correct,sub_016_day_23_data.csv,1,600,,Button-Switch at home,,,,,,,,,,,,,d
16,23,540,B,45.50591037228313,28.34149774102292,2.2752955186141564,0.4451872054746467,A,59.53099898761138,Incorrect,sub_016_day_23_data.csv,0,600,,Button-Switch at home,,,,,,,,,,,,,k
16,23,541,B,31.995055627867107,17.758260398505442,1.5997527813933552,0.2789461020423962,B,7603.303375013638,Correct,sub_016_day_23_data.csv,1,600,,Button-Switch at home,,,,,,,,,,,,,d
16,23,542,A,49.165190771916784,65.44871211763883,2.4582595385958395,1.028065965878437,A,10319.194082985632,Correct,sub_016_day_23_data.csv,1,600,,Button-Switch at home,,,,,,,,,,,,,k
16,23,543,A,24.20844547089584,44.1744263275794,1.210422273544792,0.6938902661363349,B,2720.6844160100445,Incorrect,sub_016_day_23_data.csv,0,600,,Button-Switch at home,,,,,,,,,,,,,d
16,23,544,B,78.85173127751368,50.22724967277102,3.942586563875684,0.788967792909989,A,101.62958304863425,Incorrect,sub_016_day_23_data.csv,0,600,,Button-Switch at home,,,,,,,,,,,,,k
16,23,545,A,55.451443328943526,77.09639070206795,2.7725721664471763,1.2110272732395255,B,357.0174580090679,Incorrect,sub_016_day_23_data.csv,0,600,,Button-Switch at home,,,,,,,,,,,,,d
16,23,546,A,42.709494176601375,50.84166474935835,2.1354747088300687,0.7986190023642966,A,481.9787080050446,Correct,sub_016_day_23_data.csv,1,600,,Button-Switch at home,,,,,,,,,,,,,k
16,23,547,B,38.03798455922354,13.620389637629952,1.9018992279611768,0.213948580123044,B,1705.7599580148235,Correct,sub_016_day_23_data.csv,1,600,,Button-Switch at home,,,,,,,,,,,,,d
16,23,548,B,64.69268417321965,51.69192056468131,3.234634208660982,0.8119747894797497,A,353.65383297903463,Incorrect,sub_016_day_23_data.csv,0,600,,Button-Switch at home,,,,,,,,,,,,,k
