subject,day,trial,cat,x,y,xt,yt,resp,rt,fb,f_name,acc,n_trials,block,session_type,ns_left_digit,ns_right_digit,ns_left_size,ns_right_size,ns_congruent,ns_cue,ns_correct_side,ns_resp,ns_rt,ns_fb,acc_stroop,acc_stroop_mean,resp_key
16,24,600,A,31.191158997306385,55.36958280799769,1.5595579498653191,0.8697433729096863,A,1882.71779200295,Correct,sub_016_day_24_data.csv,1,600,,Button-Switch at home,,,,,,,,,,,,,k
16,24,601,A,30.342992725270165,47.28001823818354,1.5171496362635082,0.7426727897933441,A,934.0518749668264,Correct,sub_016_day_24_data.csv,1,600,,Button-Switch at home,,,,,,,,,,,,,k
16,24,602,B,55.3153169172019,39.993618071069605,2.7657658458600953,0.6282182836127412,B,1209.4196249963716,Correct,sub_016_day_24_data.csv,1,600,,Button-Switch at home,,,,,,,,,,,,,d
16,24,603,A,42.36425935033222,69.24991334743123,2.118212967516611,1.0877750951700986,A,1727.587042027153,Correct,sub_016_day_24_data.csv,1,600,,Button-Switch at home,,,,,,,,,,,,,k
16,24,604,B,82.83575106228557,60.7963132942652,4.141787553114279,0.9549862560530352,A,802.9139590216801,Incorrect,sub_016_day_24_data.csv,0,600,,Button-Switch at home,,,,,,,,,,,,,k
16,24,605,A,41.06158038407967,52.024442289711345,2.053079019203983,0.8171980285223165,B,111.96537502110004,Incorrect,sub_016_day_24_data.csv,0,600,,Button-Switch at home,,,,,,,,,,,,,d
16,24,606,A,12.148492448321814,36.221498572011434,0.6074246224160907,0.5689659690792215,A,738.2874579634517,Correct,sub_016_day_24_data.csv,1,600,,Button-Switch at home,,,,,,,,,,,,,k
16,24,607,A,30.085465080792645,56.82191609668969,1.5042732540396322,0.8925565708612797,A,2517.907458008267,Correct,sub_016_day_24_data.csv,1,600,,Button-Switch at home,,,,,,,,,,,,,k
16,24,608,B,57.121062109501715,32.907076431344585,2.8560531054750857,0.5169031478391498,B,899.1635419661179,Correct,sub_016_day_24_data.csv,1,600,,Button-Switch at home,,,,,,,,,,,,,d
16,24,609,B,65.13190680966845,44.72633897620515,3.2565953404834227,0.7025596897480647,B,1107.6969590503722,Correct,sub_016_day_24_data.csv,1,600,,Button-Switch at home,,,,,,,,,,,,,d
16,24,610,B,82.02043871076869,60.20401379548811,4.1010219355384345,0.94568243728262,A,1082.2012919816189,Incorrect,sub_016_day_24_data.csv,0,600,,Button-Switch at home,,,,,,,,,,,,,k
16,24,611,A,50.475899567305646,72.27645719401434,2.523794978365282,1.1353159347410628,A,1279.237708018627,Correct,sub_016_day_24_data.csv,1,600,,Button-Switch at home,,,,,,,,,,,,,k
16,24,612,A,16.2848266408125,30.937156184519974,0.814241332040625,0.4859597129612399,A,1406.7346660303883,Correct,sub_016_day_24_data.csv,1,600,,Button-Switch at home,,,,,,,,,,,,,k
16,24,613,A,50.438821925697894,70.8035706894131,2.5219410962848947,1.1121798876289293,A,1783.900500042364,Correct,sub_016_day_24_data.csv,1,600,,Button-Switch at home,,,,,,,,,,,,,k
16,24,614,B,77.94714998537395,55.595316624918546,3.8973574992686975,0.8732891914142129,B,1029.064041969832,Correct,sub_016_day_24_data.csv,1,600,,Button-Switch at home,,,,,,,,,,,,,d
16,24,615,B,76.76621706404993,61.56142676091584,3.838310853202496,0.9670046302829964,B,1052.8197080129758,Correct,sub_016_day_24_data.csv,1,600,,Button-Switch at home,,,,,,,,,,,,,d
16,24,616,B,32.67532848070087,12.40597085814574,1.6337664240350436,0.1948725345429985,A,679.333875013981,Incorrect,sub_016_day_24_data.csv,0,600,,Button-Switch at home,,,,,,,,,,,,,k
16,24,617,A,68.46493367237144,85.61148107839715,3.423246683618572,1.3447820000941704,A,1305.356374999974,Correct,sub_016_day_24_data.csv,1,600,,Button-Switch at home,,,,,,,,,,,,,k
16,24,618,B,73.07371730713109,48.440102674907536,3.6536858653565543,0.760895353513124,B,2434.710083005484,Correct,sub_016_day_24_data.csv,1,600,,Button-Switch at home,,,,,,,,,,,,,d
16,24,619,B,56.147897003466504,37.247098331461366,2.8073948501733255,0.5850760524282783,A,1479.1238749749027,Incorrect,sub_016_day_24_data.csv,0,600,,Button-Switch at home,,,,,,,,,,,,,k
16,24,620,B,54.07075887444265,35.0849834710162,2.7035379437221327,0.551113631619319,B,4177.547917002812,Correct,sub_016_day_24_data.csv,1,600,,Button-Switch at home,,,,,,,,,,,,,d
16,24,621,B,74.01091697723737,46.52817604379079,3.700545848861868,0.7308628802205288,B,1596.7304589576088,Correct,sub_016_day_24_data.csv,1,600,,Button-Switch at home,,,,,,,,,,,,,d
16,24,622,B,38.72226324837143,22.743994707428485,1.9361131624185717,0.3572618334307123,A,1423.7721250392497,Incorrect,sub_016_day_24_data.csv,0,600,,Button-Switch at home,,,,,,,,,,,,,k
16,24,623,B,76.84657089445497,63.77166469481505,3.842328544722749,1.0017229665621128,B,1324.0537910023704,Correct,sub_016_day_24_data.csv,1,600,,Button-Switch at home,,,,,,,,,,,,,d
16,24,624,A,35.34561088530381,42.98190363416179,1.7672805442651909,0.6751581634719356,B,1900.350250012707,Incorrect,sub_016_day_24_data.csv,0,600,,Button-Switch at home,,,,,,,,,,,,,d
16,24,625,A,58.98987136626816,73.40521187316057,2.9494935683134083,1.1530463717796176,A,1438.737582997419,Correct,sub_016_day_24_data.csv,1,600,,Button-Switch at home,,,,,,,,,,,,,k
16,24,626,B,39.74222056560567,24.801417385815096,1.9871110282802835,0.3895797532894544,B,843.7215000158176,Correct,sub_016_day_24_data.csv,1,600,,Button-Switch at home,,,,,,,,,,,,,d
16,24,627,B,57.15016734487671,29.28252401199446,2.8575083672438355,0.4599688115732425,B,1548.4674589824865,Correct,sub_016_day_24_data.csv,1,600,,Button-Switch at home,,,,,,,,,,,,,d
16,24,628,A,33.33203572906693,45.488182579983075,1.666601786453347,0.7145267010921301,A,1168.9355000271462,Correct,sub_016_day_24_data.csv,1,600,,Button-Switch at home,,,,,,,,,,,,,k
16,24,629,B,60.027500355681305,41.846348228643784,3.0013750177840652,0.6573209008733378,B,4197.798624983989,Correct,sub_016_day_24_data.csv,1,600,,Button-Switch at home,,,,,,,,,,,,,d
16,24,630,A,36.891574831676905,60.30468688252794,1.8445787415838453,0.9472638064359128,A,2367.3179170000367,Correct,sub_016_day_24_data.csv,1,600,,Button-Switch at home,,,,,,,,,,,,,k
16,24,631,B,61.36258303313775,44.8001727826498,3.068129151656888,0.7037194684676301,B,805.1596250152215,Correct,sub_016_day_24_data.csv,1,600,,Button-Switch at home,,,,,,,,,,,,,d
16,24,632,A,22.15881053775264,42.885885411984574,1.107940526887632,0.673649912764922,B,739.054124976974,Incorrect,sub_016_day_24_data.csv,0,600,,Button-Switch at home,,,,,,,,,,,,,d
16,24,633,A,29.57490036115245,47.84533922880078,1.4787450180576227,0.7515528311485604,A,1219.2389580304734,Correct,sub_016_day_24_data.csv,1,600,,Button-Switch at home,,,,,,,,,,,,,k
16,24,634,B,46.60658889815521,21.4852210969982,2.3303294449077607,0.33748906379541,A,935.664957971312,Incorrect,sub_016_day_24_data.csv,0,600,,Button-Switch at home,,,,,,,,,,,,,k
16,24,635,B,70.65693128198019,53.48342149434999,3.5328465640990094,0.8401156202774819,B,537.5470420112833,Correct,sub_016_day_24_data.csv,1,600,,Button-Switch at home,,,,,,,,,,,,,d
16,24,636,A,38.4888542580636,47.238543808003875,1.92444271290318,0.742021310967523,B,3510.2848749957047,Incorrect,sub_016_day_24_data.csv,0,600,,Button-Switch at home,,,,,,,,,,,,,d
16,24,637,A,40.18141649345773,58.389366953676614,2.009070824672887,0.9171780313471454,A,871.3149160030298,Correct,sub_016_day_24_data.csv,1,600,,Button-Switch at home,,,,,,,,,,,,,k
16,24,638,A,36.784698107947214,66.46583956061757,1.839234905397361,1.04404296639157,A,763.1883330177516,Correct,sub_016_day_24_data.csv,1,600,,Button-Switch at home,,,,,,,,,,,,,k
16,24,639,A,46.03067224230413,53.2539076148932,2.301533612115206,0.83651042468949,A,1494.9090839945711,Correct,sub_016_day_24_data.csv,1,600,,Button-Switch at home,,,,,,,,,,,,,k
16,24,640,B,47.20069284931828,37.45397743979924,2.360034642465914,0.5883257018629557,A,605.9019169770181,Incorrect,sub_016_day_24_data.csv,0,600,,Button-Switch at home,,,,,,,,,,,,,k
16,24,641,A,33.419410620104074,53.66639979734179,1.670970531005204,0.8429898367397088,A,1839.8628329741769,Correct,sub_016_day_24_data.csv,1,600,,Button-Switch at home,,,,,,,,,,,,,k
16,24,642,A,49.428010392302426,72.90114324828812,2.4714005196151216,1.1451284803355954,A,1445.3720829915255,Correct,sub_016_day_24_data.csv,1,600,,Button-Switch at home,,,,,,,,,,,,,k
16,24,643,A,63.24923758831467,83.68914711622195,3.1624618794157335,1.3145860488275916,A,616.5722080040723,Correct,sub_016_day_24_data.csv,1,600,,Button-Switch at home,,,,,,,,,,,,,k
16,24,644,A,48.94006371829626,80.0132612653093,2.447003185914813,1.2568453689042822,A,932.5162500026636,Correct,sub_016_day_24_data.csv,1,600,,Button-Switch at home,,,,,,,,,,,,,k
16,24,645,B,70.3295068656207,58.98252100429675,3.5164753432810354,0.9264952733865216,B,839.0207500196993,Correct,sub_016_day_24_data.csv,1,600,,Button-Switch at home,,,,,,,,,,,,,d
16,24,646,B,81.64407603631186,57.07228117697893,4.082203801815592,0.8964892963460401,B,2150.80649999436,Correct,sub_016_day_24_data.csv,1,600,,Button-Switch at home,,,,,,,,,,,,,d
16,24,647,A,63.67601677967416,82.11908719979787,3.183800838983708,1.2899236053319232,B,755.7787080295384,Incorrect,sub_016_day_24_data.csv,0,600,,Button-Switch at home,,,,,,,,,,,,,d
16,24,648,A,21.681426454655472,34.597793867133674,1.0840713227327736,0.5434608752170058,B,1477.7515000314452,Incorrect,sub_016_day_24_data.csv,0,600,,Button-Switch at home,,,,,,,,,,,,,d
16,24,649,A,53.934439760546034,74.52470237654661,2.696721988027302,1.170631287485623,B,1676.2496250448748,Incorrect,sub_016_day_24_data.csv,0,600,,Button-Switch at home,,,,,,,,,,,,,d
16,24,650,B,48.8398391142322,18.11710621010104,2.44199195571161,0.2845828388697973,A,2210.3138330276124,Incorrect,sub_016_day_24_data.csv,0,600,,Button-Switch at home,,,,,,,,,,,,,k
16,24,651,B,63.13237050488502,31.37474153733526,3.1566185252442507,0.4928332876098549,B,657.6513749896549,Correct,sub_016_day_24_data.csv,1,600,,Button-Switch at home,,,,,,,,,,,,,d
16,24,652,A,60.19840390523195,83.44761274372932,3.0099201952615977,1.3107920357765304,A,757.183666981291,Correct,sub_016_day_24_data.csv,1,600,,Button-Switch at home,,,,,,,,,,,,,k
16,24,653,B,56.94398749101036,30.2420764096721,2.8471993745505184,0.4750414253896353,A,912.4910830287264,Incorrect,sub_016_day_24_data.csv,0,600,,Button-Switch at home,,,,,,,,,,,,,k
16,24,654,A,50.73185826903287,69.40953930750135,2.5365929134516434,1.090282493887491,B,1117.2558329999447,Incorrect,sub_016_day_24_data.csv,0,600,,Button-Switch at home,,,,,,,,,,,,,d
16,24,655,B,67.10536459917205,46.2567600363042,3.3552682299586025,0.7265994875445961,A,660.1975829689763,Incorrect,sub_016_day_24_data.csv,0,600,,Button-Switch at home,,,,,,,,,,,,,k
16,24,656,A,25.67402455988324,54.08930775116825,1.283701227994162,0.8496328593441381,A,1545.319041993935,Correct,sub_016_day_24_data.csv,1,600,,Button-Switch at home,,,,,,,,,,,,,k
16,24,657,B,62.82236955916959,54.58999765568492,3.1411184779584795,0.8574976779729189,B,801.6940419911407,Correct,sub_016_day_24_data.csv,1,600,,Button-Switch at home,,,,,,,,,,,,,d
16,24,658,A,46.15733172155433,70.17627114817616,2.3078665860777163,1.102326289477178,B,528.6841670167632,Incorrect,sub_016_day_24_data.csv,0,600,,Button-Switch at home,,,,,,,,,,,,,d
16,24,659,B,36.25513992089188,18.25849956449204,1.812756996044594,0.2868038404869031,A,803.4840830368921,Incorrect,sub_016_day_24_data.csv,0,600,,Button-Switch at home,,,,,,,,,,,,,k
16,24,660,B,48.357350771742745,28.24510333183229,2.4178675385871373,0.4436730456358446,A,766.0768330097198,Incorrect,sub_016_day_24_data.csv,0,600,,Button-Switch at home,,,,,,,,,,,,,k
16,24,661,B,67.45512253350508,49.219985544565866,3.3727561266752537,0.7731457249830195,B,673.061040986795,Correct,sub_016_day_24_data.csv,1,600,,Button-Switch at home,,,,,,,,,,,,,d
16,24,662,B,69.98247407974517,58.753146843106755,3.499123703987259,0.9228922724879328,B,986.7618330172264,Correct,sub_016_day_24_data.csv,1,600,,Button-Switch at home,,,,,,,,,,,,,d
16,24,663,B,50.998245294919855,27.289890575666693,2.5499122647459926,0.428668598748919,B,1030.5604159948416,Correct,sub_016_day_24_data.csv,1,600,,Button-Switch at home,,,,,,,,,,,,,d
16,24,664,A,42.08172803192216,61.90411140018215,2.104086401596108,0.972387508009082,B,568.4853750281036,Incorrect,sub_016_day_24_data.csv,0,600,,Button-Switch at home,,,,,,,,,,,,,d
16,24,665,A,22.133860967518544,36.66268382350349,1.1066930483759272,0.5758960908040197,B,781.5033330116421,Incorrect,sub_016_day_24_data.csv,0,600,,Button-Switch at home,,,,,,,,,,,,,d
16,24,666,A,26.999635492429498,49.09681797572548,1.3499817746214748,0.7712110133358724,B,1175.5020419950597,Incorrect,sub_016_day_24_data.csv,0,600,,Button-Switch at home,,,,,,,,,,,,,d
16,24,667,B,88.76398373742299,68.81956490450585,4.43819918687115,1.0810151976362077,B,1363.779750012327,Correct,sub_016_day_24_data.csv,1,600,,Button-Switch at home,,,,,,,,,,,,,d
16,24,668,B,80.97362076999704,54.50889337059131,4.048681038499852,0.8562236948417952,A,893.0345420376398,Incorrect,sub_016_day_24_data.csv,0,600,,Button-Switch at home,,,,,,,,,,,,,k
16,24,669,B,82.05312505132541,64.11275630126003,4.102656252566271,1.007080820987156,B,860.280541004613,Correct,sub_016_day_24_data.csv,1,600,,Button-Switch at home,,,,,,,,,,,,,d
16,24,670,B,86.35137663556726,63.24080251411458,4.317568831778363,0.9933842029273264,B,641.5150410030037,Correct,sub_016_day_24_data.csv,1,600,,Button-Switch at home,,,,,,,,,,,,,d
16,24,671,A,37.179410198008405,58.172394039870575,1.8589705099004203,0.9137698287869402,A,1585.9892909647897,Correct,sub_016_day_24_data.csv,1,600,,Button-Switch at home,,,,,,,,,,,,,k
16,24,672,B,49.166767059672694,37.556860908318406,2.4583383529836347,0.5899417916073341,A,2095.787708007265,Incorrect,sub_016_day_24_data.csv,0,600,,Button-Switch at home,,,,,,,,,,,,,k
16,24,673,B,82.18289432150877,65.8703621927061,4.109144716075439,1.0346892297695216,B,960.7422919943928,Correct,sub_016_day_24_data.csv,1,600,,Button-Switch at home,,,,,,,,,,,,,d
16,24,674,A,51.728131056259315,72.14136086836746,2.586406552812966,1.133193846620167,A,2801.249874988571,Correct,sub_016_day_24_data.csv,1,600,,Button-Switch at home,,,,,,,,,,,,,k
16,24,675,B,57.16452194149005,45.12068671323121,2.8582260970745024,0.7087540895160688,A,876.6165410052054,Incorrect,sub_016_day_24_data.csv,0,600,,Button-Switch at home,,,,,,,,,,,,,k
16,24,676,A,47.01659125932784,73.89936564355963,2.350829562966392,1.1608085210537644,B,612.0099169784226,Incorrect,sub_016_day_24_data.csv,0,600,,Button-Switch at home,,,,,,,,,,,,,d
16,24,677,B,76.35500165461497,46.56040619842421,3.817750082730748,0.7313691503056308,B,639.2650410416536,Correct,sub_016_day_24_data.csv,1,600,,Button-Switch at home,,,,,,,,,,,,,d
16,24,678,A,23.82505689922349,49.92081308756394,1.1912528449611743,0.7841542982856005,B,813.4227499831468,Incorrect,sub_016_day_24_data.csv,0,600,,Button-Switch at home,,,,,,,,,,,,,d
16,24,679,A,26.05677474375439,35.93317424457002,1.3028387371877193,0.5644369811345158,A,1278.2109169638716,Correct,sub_016_day_24_data.csv,1,600,,Button-Switch at home,,,,,,,,,,,,,k
16,24,680,B,53.53616068949411,46.862992389476325,2.6768080344747056,0.736122163080066,B,886.5885830018669,Correct,sub_016_day_24_data.csv,1,600,,Button-Switch at home,,,,,,,,,,,,,d
16,24,681,B,64.69805484145567,56.758781848648525,3.234902742072784,0.8915648604120995,A,1697.2853749757633,Incorrect,sub_016_day_24_data.csv,0,600,,Button-Switch at home,,,,,,,,,,,,,k
16,24,682,A,57.25738627895883,76.92408028580415,2.8628693139479418,1.2083206275501688,A,1025.3812920418568,Correct,sub_016_day_24_data.csv,1,600,,Button-Switch at home,,,,,,,,,,,,,k
16,24,683,A,28.40495530268958,49.30452449372954,1.4202477651344791,0.7744736596911936,B,758.9296249789186,Incorrect,sub_016_day_24_data.csv,0,600,,Button-Switch at home,,,,,,,,,,,,,d
16,24,684,A,33.92480896425292,49.5877526655369,1.696240448212646,0.778922597410392,A,565.6988330301829,Correct,sub_016_day_24_data.csv,1,600,,Button-Switch at home,,,,,,,,,,,,,k
16,24,685,B,79.05064880828526,58.03636165274669,3.952532440414263,0.9116330370467468,B,676.5277079539374,Correct,sub_016_day_24_data.csv,1,600,,Button-Switch at home,,,,,,,,,,,,,d
16,24,686,A,29.781863364160618,41.40607661827997,1.489093168208031,0.6504051305898224,A,945.9884589887224,Correct,sub_016_day_24_data.csv,1,600,,Button-Switch at home,,,,,,,,,,,,,k
16,24,687,B,55.11068432604983,32.63489489041053,2.7555342163024914,0.512627730191944,B,3123.023334017489,Correct,sub_016_day_24_data.csv,1,600,,Button-Switch at home,,,,,,,,,,,,,d
16,24,688,B,83.63262577868777,59.39989840525065,4.181631288934389,0.9330514222695776,A,650.6198329734616,Incorrect,sub_016_day_24_data.csv,0,600,,Button-Switch at home,,,,,,,,,,,,,k
16,24,689,B,72.42404914133544,52.00940418704489,3.621202457066772,0.8169618105580124,B,872.5870000198483,Correct,sub_016_day_24_data.csv,1,600,,Button-Switch at home,,,,,,,,,,,,,d
16,24,690,A,51.57637392786968,60.22514737077118,2.578818696393484,0.9460144027068872,B,4074.1740410448983,Incorrect,sub_016_day_24_data.csv,0,600,,Button-Switch at home,,,,,,,,,,,,,d
16,24,691,B,48.01580395895871,35.818053416357,2.4007901979479356,0.5626286673935698,B,1384.9419170292094,Correct,sub_016_day_24_data.csv,1,600,,Button-Switch at home,,,,,,,,,,,,,d
16,24,692,B,54.00701744020833,29.409363943507767,2.700350872010416,0.4619612085583628,B,2607.03541705152,Correct,sub_016_day_24_data.csv,1,600,,Button-Switch at home,,,,,,,,,,,,,d
16,24,693,B,57.70974233757245,32.14967653199355,2.8854871168786222,0.5050059380409955,B,2922.212374978699,Correct,sub_016_day_24_data.csv,1,600,,Button-Switch at home,,,,,,,,,,,,,d
16,24,694,A,39.13620910776723,66.82240097887839,1.9568104553883616,1.0496438200523788,A,4014.827125007286,Correct,sub_016_day_24_data.csv,1,600,,Button-Switch at home,,,,,,,,,,,,,k
16,24,695,A,48.93054849660454,57.93552723597465,2.4465274248302267,0.9100491337319466,B,1559.7819579998031,Incorrect,sub_016_day_24_data.csv,0,600,,Button-Switch at home,,,,,,,,,,,,,d
16,24,696,A,40.47371075069876,63.54433719618689,2.023685537534938,0.9981521145638668,B,1101.805082987994,Incorrect,sub_016_day_24_data.csv,0,600,,Button-Switch at home,,,,,,,,,,,,,d
16,24,697,B,57.67235700796936,40.28733248251331,2.8836178503984677,0.6328319387989662,A,578.3676250139251,Incorrect,sub_016_day_24_data.csv,0,600,,Button-Switch at home,,,,,,,,,,,,,k
16,24,698,B,72.53262598429582,42.859086045225226,3.626631299214791,0.6732289492962619,B,1250.71641698014,Correct,sub_016_day_24_data.csv,1,600,,Button-Switch at home,,,,,,,,,,,,,d
16,24,699,B,50.45095024310811,22.490957770148903,2.5225475121554055,0.3532871385144903,B,1116.5400000172667,Correct,sub_016_day_24_data.csv,1,600,,Button-Switch at home,,,,,,,,,,,,,d
16,24,700,B,42.1559721902798,20.037917219099427,2.10779860951399,0.3147548676438159,A,2597.2685419837944,Incorrect,sub_016_day_24_data.csv,0,600,,Button-Switch at home,,,,,,,,,,,,,k
16,24,701,A,21.10985673011464,52.03211344936727,1.055492836505732,0.8173185268164146,A,994.8880419833586,Correct,sub_016_day_24_data.csv,1,600,,Button-Switch at home,,,,,,,,,,,,,k
16,24,702,A,24.012729765715974,53.69412568492265,1.200636488285799,0.8434253539634001,B,773.5883339773864,Incorrect,sub_016_day_24_data.csv,0,600,,Button-Switch at home,,,,,,,,,,,,,d
16,24,703,B,79.19786190860907,55.863258077509315,3.9598930954304534,0.8774980059094697,B,859.6919169649482,Correct,sub_016_day_24_data.csv,1,600,,Button-Switch at home,,,,,,,,,,,,,d
16,24,704,B,46.3836751679394,20.22701995839013,2.31918375839697,0.3177252865264627,B,1343.5364160104657,Correct,sub_016_day_24_data.csv,1,600,,Button-Switch at home,,,,,,,,,,,,,d
16,24,705,A,31.75136508186339,52.20653230053593,1.5875682540931697,0.8200582917238097,A,1763.7292920262553,Correct,sub_016_day_24_data.csv,1,600,,Button-Switch at home,,,,,,,,,,,,,k
16,24,706,A,37.276639175560945,61.92303241135574,1.8638319587780472,0.9726847185575892,A,4152.451583009679,Correct,sub_016_day_24_data.csv,1,600,,Button-Switch at home,,,,,,,,,,,,,k
16,24,707,B,38.30955976146481,17.131312619252544,1.9154779880732409,0.2690980293549695,B,1889.2652500071565,Correct,sub_016_day_24_data.csv,1,600,,Button-Switch at home,,,,,,,,,,,,,d
16,24,708,A,18.009956694311214,38.924731934017345,0.9004978347155607,0.6114282594343046,A,857.1055419743061,Correct,sub_016_day_24_data.csv,1,600,,Button-Switch at home,,,,,,,,,,,,,k
16,24,709,A,57.2617172064373,81.78377169774757,2.863085860321865,1.284656481742543,A,831.8117499584332,Correct,sub_016_day_24_data.csv,1,600,,Button-Switch at home,,,,,,,,,,,,,k
16,24,710,B,53.73870924519733,37.995894299357246,2.6869354622598665,0.5968381119871751,B,1465.447916998528,Correct,sub_016_day_24_data.csv,1,600,,Button-Switch at home,,,,,,,,,,,,,d
16,24,711,A,54.320675737308136,75.93266180499725,2.716033786865407,1.192747462470488,A,2167.8389579756185,Correct,sub_016_day_24_data.csv,1,600,,Button-Switch at home,,,,,,,,,,,,,k
16,24,712,A,21.58171110511548,52.70493122622457,1.079085555255774,0.827887123741312,B,2244.135625020135,Incorrect,sub_016_day_24_data.csv,0,600,,Button-Switch at home,,,,,,,,,,,,,d
16,24,713,B,70.03616791715436,43.86486948915449,3.5018083958577177,0.6890277586890141,B,1571.3276250171475,Correct,sub_016_day_24_data.csv,1,600,,Button-Switch at home,,,,,,,,,,,,,d
16,24,714,B,35.327602469807786,22.61625067086877,1.7663801234903895,0.3552552347967327,B,1252.9845830285922,Correct,sub_016_day_24_data.csv,1,600,,Button-Switch at home,,,,,,,,,,,,,d
16,24,715,A,45.20657605824513,56.30661071117362,2.260328802912257,0.8844621727938171,A,2477.569874958135,Correct,sub_016_day_24_data.csv,1,600,,Button-Switch at home,,,,,,,,,,,,,k
16,24,716,A,26.07186993827229,47.813908271567406,1.3035934969136145,0.7510591148268622,B,1182.935374963563,Incorrect,sub_016_day_24_data.csv,0,600,,Button-Switch at home,,,,,,,,,,,,,d
16,24,717,A,55.63590664553654,80.03254249730136,2.7817953322768267,1.2571482377881744,B,647.3791670287028,Incorrect,sub_016_day_24_data.csv,0,600,,Button-Switch at home,,,,,,,,,,,,,d
16,24,718,B,40.892033319221454,28.630160743792995,2.044601665961073,0.4497215133189748,A,589.6992919733748,Incorrect,sub_016_day_24_data.csv,0,600,,Button-Switch at home,,,,,,,,,,,,,k
16,24,719,A,33.94651362052629,64.69251519990736,1.6973256810263144,1.016187652471375,A,752.06079200143,Correct,sub_016_day_24_data.csv,1,600,,Button-Switch at home,,,,,,,,,,,,,k
16,24,720,B,75.64076595914706,47.42123987872393,3.782038297957353,0.7448910941355921,B,1309.8110420396551,Correct,sub_016_day_24_data.csv,1,600,,Button-Switch at home,,,,,,,,,,,,,d
16,24,721,A,51.06682875677023,66.36664429097434,2.5533414378385113,1.0424848107396598,B,657.999999995809,Incorrect,sub_016_day_24_data.csv,0,600,,Button-Switch at home,,,,,,,,,,,,,d
16,24,722,A,45.45427040952578,77.66466712799324,2.272713520476289,1.2199537384640011,A,1112.4963749898598,Correct,sub_016_day_24_data.csv,1,600,,Button-Switch at home,,,,,,,,,,,,,k
16,24,723,A,42.21194018242917,51.44317830380787,2.1105970091214585,0.8080675551827633,A,1225.632541987579,Correct,sub_016_day_24_data.csv,1,600,,Button-Switch at home,,,,,,,,,,,,,k
16,24,724,B,75.22741359948469,46.066231330903896,3.7613706799742346,0.7236066696386781,B,1915.088583948091,Correct,sub_016_day_24_data.csv,1,600,,Button-Switch at home,,,,,,,,,,,,,d
16,24,725,B,78.99429206855581,67.19731328448762,3.9497146034277906,1.0555329287775903,B,1361.4650419913232,Correct,sub_016_day_24_data.csv,1,600,,Button-Switch at home,,,,,,,,,,,,,d
16,24,726,A,48.72875777528657,67.30587453403885,2.4364378887643285,1.057238204897864,A,3907.950458000414,Correct,sub_016_day_24_data.csv,1,600,,Button-Switch at home,,,,,,,,,,,,,k
16,24,727,A,61.191258504279126,82.8198831331196,3.0595629252139567,1.300931682110869,B,777.8564590262249,Incorrect,sub_016_day_24_data.csv,0,600,,Button-Switch at home,,,,,,,,,,,,,d
16,24,728,A,24.86919141634809,46.190216660911915,1.2434595708174043,0.7255542266482087,A,1376.7649999936111,Correct,sub_016_day_24_data.csv,1,600,,Button-Switch at home,,,,,,,,,,,,,k
16,24,729,B,85.76942921454378,60.9936804324919,4.288471460727189,0.9580864918106003,B,1526.3799580279738,Correct,sub_016_day_24_data.csv,1,600,,Button-Switch at home,,,,,,,,,,,,,d
16,24,730,A,42.900575105162225,63.84005772176091,2.1450287552581115,1.002797281717162,A,961.294250038918,Correct,sub_016_day_24_data.csv,1,600,,Button-Switch at home,,,,,,,,,,,,,k
16,24,731,A,36.09021652755131,55.719605606579314,1.8045108263775655,0.8752415181727511,B,992.6988339866512,Incorrect,sub_016_day_24_data.csv,0,600,,Button-Switch at home,,,,,,,,,,,,,d
16,24,732,B,61.07870813561378,50.20131726824927,3.053935406780689,0.7885604476523116,B,2427.4278339580633,Correct,sub_016_day_24_data.csv,1,600,,Button-Switch at home,,,,,,,,,,,,,d
16,24,733,B,35.2830097918816,11.007166727046773,1.7641504895940798,0.1729001706326407,B,1404.4315420323985,Correct,sub_016_day_24_data.csv,1,600,,Button-Switch at home,,,,,,,,,,,,,d
16,24,734,A,46.340866100138186,71.30291500725383,2.3170433050069095,1.12002356983163,A,811.3562089856714,Correct,sub_016_day_24_data.csv,1,600,,Button-Switch at home,,,,,,,,,,,,,k
16,24,735,B,71.7442796350691,50.920170490566605,3.5872139817534556,0.7998521676635191,B,2072.0387500477955,Correct,sub_016_day_24_data.csv,1,600,,Button-Switch at home,,,,,,,,,,,,,d
16,24,736,B,54.6206551146539,37.12779754190319,2.731032755732695,0.5832020800080612,B,896.4481659932062,Correct,sub_016_day_24_data.csv,1,600,,Button-Switch at home,,,,,,,,,,,,,d
16,24,737,A,35.9962878071608,53.43219036810283,1.79981439035804,0.8393108836282157,A,3411.734458000865,Correct,sub_016_day_24_data.csv,1,600,,Button-Switch at home,,,,,,,,,,,,,k
16,24,738,A,46.45447908212565,75.19262499440204,2.3227239541062827,1.1811229914327286,B,1915.9477920038623,Incorrect,sub_016_day_24_data.csv,0,600,,Button-Switch at home,,,,,,,,,,,,,d
16,24,739,A,23.484760804082335,39.895466008221675,1.1742380402041166,0.6266765146148526,A,942.0600410085171,Correct,sub_016_day_24_data.csv,1,600,,Button-Switch at home,,,,,,,,,,,,,k
16,24,740,A,60.661875663813085,81.69080130088594,3.0330937831906546,1.283196106163634,A,1060.6318750069477,Correct,sub_016_day_24_data.csv,1,600,,Button-Switch at home,,,,,,,,,,,,,k
16,24,741,A,27.1458508106961,53.21425185105728,1.357292540534805,0.8358875134077931,B,1179.4764579972252,Incorrect,sub_016_day_24_data.csv,0,600,,Button-Switch at home,,,,,,,,,,,,,d
16,24,742,A,68.2593907917867,86.90829991877214,3.412969539589335,1.365152382803965,B,73.25791701441631,Incorrect,sub_016_day_24_data.csv,0,600,,Button-Switch at home,,,,,,,,,,,,,d
16,24,743,B,51.72581427857651,20.19860787815196,2.586290713928826,0.3172789906137155,A,246.5594590175897,Incorrect,sub_016_day_24_data.csv,0,600,,Button-Switch at home,,,,,,,,,,,,,k
16,24,744,A,12.213541372016325,31.119877020998555,0.6106770686008162,0.4888298851489344,A,901.737999985926,Correct,sub_016_day_24_data.csv,1,600,,Button-Switch at home,,,,,,,,,,,,,k
16,24,745,A,26.34169581507288,39.067969039258614,1.3170847907536438,0.6136782226220417,A,2220.6894590053707,Correct,sub_016_day_24_data.csv,1,600,,Button-Switch at home,,,,,,,,,,,,,k
16,24,746,A,32.98437619184623,55.74238766295245,1.6492188095923117,0.8755993778774286,A,5406.422915984876,Correct,sub_016_day_24_data.csv,1,600,,Button-Switch at home,,,,,,,,,,,,,k
16,24,747,B,52.492006800662814,41.9479248420687,2.624600340033141,0.6589164625858991,B,1083.6367919691838,Correct,sub_016_day_24_data.csv,1,600,,Button-Switch at home,,,,,,,,,,,,,d
16,24,748,A,32.75601425752347,60.08774550722664,1.6378007128761736,0.9438560992813816,A,1036.495374981314,Correct,sub_016_day_24_data.csv,1,600,,Button-Switch at home,,,,,,,,,,,,,k
16,24,749,A,69.74879956911346,85.7054611134602,3.4874399784556727,1.3462582350328614,A,3014.814625028521,Correct,sub_016_day_24_data.csv,1,600,,Button-Switch at home,,,,,,,,,,,,,k
16,24,750,B,72.36582047680926,46.93461734380123,3.618291023840463,0.73724724523167,A,891.5423330035992,Incorrect,sub_016_day_24_data.csv,0,600,,Button-Switch at home,,,,,,,,,,,,,k
16,24,751,B,53.97894290064531,34.693345085719045,2.6989471450322653,0.5449617902487526,A,760.6493330094963,Incorrect,sub_016_day_24_data.csv,0,600,,Button-Switch at home,,,,,,,,,,,,,k
16,24,752,A,45.23980941714249,69.96401853121871,2.2619904708571243,1.098992233166484,A,1855.0615420099348,Correct,sub_016_day_24_data.csv,1,600,,Button-Switch at home,,,,,,,,,,,,,k
16,24,753,B,65.48964610519056,36.100896108575256,3.274482305259528,0.5670715500135418,A,707.6983750448562,Incorrect,sub_016_day_24_data.csv,0,600,,Button-Switch at home,,,,,,,,,,,,,k
16,24,754,B,36.03944157225855,23.78071732713007,1.801972078612928,0.3735466342600366,B,1247.2828330355696,Correct,sub_016_day_24_data.csv,1,600,,Button-Switch at home,,,,,,,,,,,,,d
16,24,755,A,51.9175455372345,73.68336422884623,2.5958772768617253,1.1574155787656213,A,798.0272500426508,Correct,sub_016_day_24_data.csv,1,600,,Button-Switch at home,,,,,,,,,,,,,k
16,24,756,A,56.757324825320715,68.98603643037549,2.8378662412660356,1.0836301262497272,A,1146.5683749993332,Correct,sub_016_day_24_data.csv,1,600,,Button-Switch at home,,,,,,,,,,,,,k
16,24,757,A,19.16529166987864,34.886405948411586,0.958264583493932,0.5479943831884054,A,6739.309875003528,Correct,sub_016_day_24_data.csv,1,600,,Button-Switch at home,,,,,,,,,,,,,k
16,24,758,A,23.01352577599703,55.107023381682936,1.1506762887998516,0.8656190990854804,B,670.2962919953279,Incorrect,sub_016_day_24_data.csv,0,600,,Button-Switch at home,,,,,,,,,,,,,d
16,24,759,B,31.58080835182909,15.377386867705436,1.5790404175914543,0.2415474280749578,A,1072.0166660030372,Incorrect,sub_016_day_24_data.csv,0,600,,Button-Switch at home,,,,,,,,,,,,,k
16,24,760,A,48.758354636198334,79.22464819488474,2.4379177318099168,1.2444578637614288,A,788.611916010268,Correct,sub_016_day_24_data.csv,1,600,,Button-Switch at home,,,,,,,,,,,,,k
16,24,761,B,67.36166581411209,52.12462643366762,3.3680832907056044,0.8187717173756127,B,489.95074996491894,Correct,sub_016_day_24_data.csv,1,600,,Button-Switch at home,,,,,,,,,,,,,d
16,24,762,B,68.09203632401133,53.309936559592195,3.4046018162005667,0.8373905252947639,A,617.8752910345793,Incorrect,sub_016_day_24_data.csv,0,600,,Button-Switch at home,,,,,,,,,,,,,k
16,24,763,B,69.30449051666758,48.1112528739276,3.465224525833379,0.7557297929186587,B,1231.2313329894096,Correct,sub_016_day_24_data.csv,1,600,,Button-Switch at home,,,,,,,,,,,,,d
16,24,764,A,21.597672025254184,51.100982694954055,1.079883601262709,0.8026923591284341,B,469.6931660291739,Incorrect,sub_016_day_24_data.csv,0,600,,Button-Switch at home,,,,,,,,,,,,,d
16,24,765,B,56.591786007656886,36.60994157390451,2.8295893003828443,0.5750676174846497,B,757.5802089995705,Correct,sub_016_day_24_data.csv,1,600,,Button-Switch at home,,,,,,,,,,,,,d
16,24,766,B,52.548508729714186,39.92607950877948,2.627425436485709,0.6271573903571178,B,1846.9466660171747,Correct,sub_016_day_24_data.csv,1,600,,Button-Switch at home,,,,,,,,,,,,,d
16,24,767,A,39.986062506007926,52.370481728248386,1.9993031253003963,0.8226336033121181,B,1170.7080000196584,Incorrect,sub_016_day_24_data.csv,0,600,,Button-Switch at home,,,,,,,,,,,,,d
16,24,768,B,70.34679160415843,47.11053917553967,3.517339580207921,0.740010618902648,B,883.6856659618206,Correct,sub_016_day_24_data.csv,1,600,,Button-Switch at home,,,,,,,,,,,,,d
16,24,769,A,26.360619603379032,55.756458932641934,1.3180309801689516,0.8758204088648446,A,795.0027500046417,Correct,sub_016_day_24_data.csv,1,600,,Button-Switch at home,,,,,,,,,,,,,k
16,24,770,B,68.43704151585777,50.86113733271371,3.4218520757928887,0.7989248769883748,A,636.3962909672409,Incorrect,sub_016_day_24_data.csv,0,600,,Button-Switch at home,,,,,,,,,,,,,k
16,24,771,A,37.74743464957055,46.31913909471646,1.8873717324785275,0.7275793355028252,B,798.3618750004098,Incorrect,sub_016_day_24_data.csv,0,600,,Button-Switch at home,,,,,,,,,,,,,d
16,24,772,B,50.3349115568742,24.273141873293568,2.51674557784371,0.3812816209434092,A,575.6130830268376,Incorrect,sub_016_day_24_data.csv,0,600,,Button-Switch at home,,,,,,,,,,,,,k
16,24,773,A,37.62429967234035,56.993054771580006,1.8812149836170176,0.8952448108801823,B,679.5491669909097,Incorrect,sub_016_day_24_data.csv,0,600,,Button-Switch at home,,,,,,,,,,,,,d
16,24,774,A,44.91500022132224,62.00963957488553,2.2457500110661117,0.9740451407010564,B,1202.9657499515451,Incorrect,sub_016_day_24_data.csv,0,600,,Button-Switch at home,,,,,,,,,,,,,d
16,24,775,A,29.303154236468306,52.43441751954023,1.465157711823415,0.8236379043732376,A,814.7428329684772,Correct,sub_016_day_24_data.csv,1,600,,Button-Switch at home,,,,,,,,,,,,,k
16,24,776,A,26.578229670051968,51.539533734822726,1.3289114835025984,0.8095811027538119,A,1058.450540993363,Correct,sub_016_day_24_data.csv,1,600,,Button-Switch at home,,,,,,,,,,,,,k
16,24,777,B,47.3785885232235,37.98036712276538,2.368929426161175,0.5965942116676151,B,1508.9075000141747,Correct,sub_016_day_24_data.csv,1,600,,Button-Switch at home,,,,,,,,,,,,,d
16,24,778,B,38.18229383423696,23.6191832952733,1.909114691711848,0.3710092636211068,B,732.6582089881413,Correct,sub_016_day_24_data.csv,1,600,,Button-Switch at home,,,,,,,,,,,,,d
16,24,779,B,56.8836318805416,39.22633476087109,2.84418159402708,0.6161658255600327,B,1126.2259999639357,Correct,sub_016_day_24_data.csv,1,600,,Button-Switch at home,,,,,,,,,,,,,d
16,24,780,B,82.36740079383354,66.88703837066086,4.118370039691677,1.0506591418282338,B,1105.3041249979287,Correct,sub_016_day_24_data.csv,1,600,,Button-Switch at home,,,,,,,,,,,,,d
16,24,781,A,29.69537011868499,48.14065992201967,1.4847685059342497,0.756191717749908,A,7318.257457984146,Correct,sub_016_day_24_data.csv,1,600,,Button-Switch at home,,,,,,,,,,,,,k
16,24,782,B,70.31260618760558,49.63387891216205,3.515630309380279,0.7796471467980682,B,1093.0690839886663,Correct,sub_016_day_24_data.csv,1,600,,Button-Switch at home,,,,,,,,,,,,,d
16,24,783,B,86.84975883552437,64.18111459253548,4.342487941776218,1.0081545905155704,B,10865.540708007757,Correct,sub_016_day_24_data.csv,1,600,,Button-Switch at home,,,,,,,,,,,,,d
16,24,784,A,15.49203089915369,44.1988272194492,0.7746015449576845,0.6942735544495311,A,2334.1066249995492,Correct,sub_016_day_24_data.csv,1,600,,Button-Switch at home,,,,,,,,,,,,,k
16,24,785,A,58.88361427028883,77.62274473274186,2.9441807135144415,1.2192952230192882,A,1589.0069580054842,Correct,sub_016_day_24_data.csv,1,600,,Button-Switch at home,,,,,,,,,,,,,k
16,24,786,B,41.58996421082018,32.602831890514075,2.0794982105410087,0.5121240857673103,B,3269.746290985495,Correct,sub_016_day_24_data.csv,1,600,,Button-Switch at home,,,,,,,,,,,,,d
16,24,787,B,51.72821919612067,43.93125754860824,2.586410959806033,0.6900705798883439,B,3685.96366600832,Correct,sub_016_day_24_data.csv,1,600,,Button-Switch at home,,,,,,,,,,,,,d
16,24,788,A,49.827603453355096,68.29099230247775,2.4913801726677547,1.072712398619106,A,1504.1482920059934,Correct,sub_016_day_24_data.csv,1,600,,Button-Switch at home,,,,,,,,,,,,,k
16,24,789,A,23.876174181867267,50.54152691315555,1.1938087090933631,0.7939044482579013,A,633.8788749999367,Correct,sub_016_day_24_data.csv,1,600,,Button-Switch at home,,,,,,,,,,,,,k
16,24,790,B,67.56991394612415,36.071043500687885,3.378495697306207,0.5666026263453946,B,896.1381670087576,Correct,sub_016_day_24_data.csv,1,600,,Button-Switch at home,,,,,,,,,,,,,d
16,24,791,A,25.581146151946452,35.881011017591604,1.2790573075973226,0.563617603081201,A,1003.7458750302904,Correct,sub_016_day_24_data.csv,1,600,,Button-Switch at home,,,,,,,,,,,,,k
16,24,792,B,87.00565121563,60.6166451801422,4.350282560781499,0.9521640359159694,B,754.8339170170948,Correct,sub_016_day_24_data.csv,1,600,,Button-Switch at home,,,,,,,,,,,,,d
16,24,793,B,46.14748101390954,20.809875121807323,2.3073740506954774,0.3268807540239544,B,1288.0198329803534,Correct,sub_016_day_24_data.csv,1,600,,Button-Switch at home,,,,,,,,,,,,,d
16,24,794,A,34.69112667362821,56.42570240404052,1.7345563336814107,0.8863328607308882,A,1085.7547500054352,Correct,sub_016_day_24_data.csv,1,600,,Button-Switch at home,,,,,,,,,,,,,k
16,24,795,A,11.538455141739576,30.340783852573583,0.5769227570869788,0.4765919182770049,B,29.050374985672537,Incorrect,sub_016_day_24_data.csv,0,600,,Button-Switch at home,,,,,,,,,,,,,d
16,24,796,A,51.23776515708901,76.6036684774125,2.5618882578544504,1.2032876106333357,A,930.4377919761464,Correct,sub_016_day_24_data.csv,1,600,,Button-Switch at home,,,,,,,,,,,,,k
16,24,797,B,53.29522403156586,22.511016420148476,2.664761201578293,0.3536022190518882,B,869.9237079708837,Correct,sub_016_day_24_data.csv,1,600,,Button-Switch at home,,,,,,,,,,,,,d
16,24,798,B,42.134578781751614,32.60083048739013,2.1067289390875805,0.5120926478005549,A,1221.1304170195945,Incorrect,sub_016_day_24_data.csv,0,600,,Button-Switch at home,,,,,,,,,,,,,k
16,24,799,B,84.69545909659946,68.80640428123826,4.234772954829973,1.080808471049337,B,2445.8053749985993,Correct,sub_016_day_24_data.csv,1,600,,Button-Switch at home,,,,,,,,,,,,,d
16,24,800,B,43.15207628144315,29.40167561241528,2.1576038140721576,0.4618404405359702,A,3098.5708750085905,Incorrect,sub_016_day_24_data.csv,0,600,,Button-Switch at home,,,,,,,,,,,,,k
16,24,801,B,80.35964268322965,58.26840865764074,4.017982134161483,0.9152780228760604,B,557.2228750097565,Correct,sub_016_day_24_data.csv,1,600,,Button-Switch at home,,,,,,,,,,,,,d
16,24,802,B,50.32000426623281,29.945218712208774,2.5160002133116404,0.4703783955820734,A,936.6462920443156,Incorrect,sub_016_day_24_data.csv,0,600,,Button-Switch at home,,,,,,,,,,,,,k
16,24,803,A,65.24600622656087,78.39095286480338,3.2623003113280435,1.23136220813985,B,583.9857920072973,Incorrect,sub_016_day_24_data.csv,0,600,,Button-Switch at home,,,,,,,,,,,,,d
16,24,804,B,41.52767945195748,20.610219189856164,2.076383972597874,0.3237445659786375,A,785.1771669811569,Incorrect,sub_016_day_24_data.csv,0,600,,Button-Switch at home,,,,,,,,,,,,,k
16,24,805,A,60.19489369847639,82.15707538829601,3.0097446849238194,1.2905203224014676,B,908.7497080327012,Incorrect,sub_016_day_24_data.csv,0,600,,Button-Switch at home,,,,,,,,,,,,,d
16,24,806,A,28.882914904206046,53.005733470102854,1.4441457452103024,0.8326121143390686,B,1439.6263340022415,Incorrect,sub_016_day_24_data.csv,0,600,,Button-Switch at home,,,,,,,,,,,,,d
16,24,807,B,72.01521897881265,41.78915522916119,3.6007609489406325,0.6564225153382813,B,1158.0047910101712,Correct,sub_016_day_24_data.csv,1,600,,Button-Switch at home,,,,,,,,,,,,,d
16,24,808,A,60.28171745283945,85.91587977735048,3.0140858726419726,1.3495634836761408,A,1532.819791988004,Correct,sub_016_day_24_data.csv,1,600,,Button-Switch at home,,,,,,,,,,,,,k
16,24,809,A,47.23087439656483,74.769124982896,2.3615437198282416,1.1744706688080155,A,1505.604375037365,Correct,sub_016_day_24_data.csv,1,600,,Button-Switch at home,,,,,,,,,,,,,k
16,24,810,A,29.458466713399737,48.53684863525521,1.472923335669987,0.7624150355045877,A,2773.574791965075,Correct,sub_016_day_24_data.csv,1,600,,Button-Switch at home,,,,,,,,,,,,,k
16,24,811,A,66.12542395868928,80.622057043275,3.306271197934464,1.26640831062225,A,2740.313124959357,Correct,sub_016_day_24_data.csv,1,600,,Button-Switch at home,,,,,,,,,,,,,k
16,24,812,B,57.08565607102203,40.03336013822156,2.854282803551102,0.6288425505437566,A,2309.1157079907134,Incorrect,sub_016_day_24_data.csv,0,600,,Button-Switch at home,,,,,,,,,,,,,k
16,24,813,A,62.13680978879928,86.05888768087362,3.106840489439964,1.3518098465717086,A,991.7757920338772,Correct,sub_016_day_24_data.csv,1,600,,Button-Switch at home,,,,,,,,,,,,,k
16,24,814,B,66.53332706579474,38.00873366395065,3.326666353289737,0.597039792254592,B,1018.864665995352,Correct,sub_016_day_24_data.csv,1,600,,Button-Switch at home,,,,,,,,,,,,,d
16,24,815,A,47.18902680323166,56.47435584957867,2.359451340161583,0.8870971072662605,B,805.2287499886006,Incorrect,sub_016_day_24_data.csv,0,600,,Button-Switch at home,,,,,,,,,,,,,d
16,24,816,A,40.50932717952713,55.26748332400455,2.025466358976357,0.8681395979654454,A,2586.622333037667,Correct,sub_016_day_24_data.csv,1,600,,Button-Switch at home,,,,,,,,,,,,,k
16,24,817,A,47.14430762537528,55.71037976534379,2.357215381268764,0.8750965989975075,A,1462.109167012386,Correct,sub_016_day_24_data.csv,1,600,,Button-Switch at home,,,,,,,,,,,,,k
16,24,818,A,23.473658517658496,34.564626292296765,1.1736829258829249,0.5429398801697806,B,1090.7682499964722,Incorrect,sub_016_day_24_data.csv,0,600,,Button-Switch at home,,,,,,,,,,,,,d
16,24,819,A,39.82067521338102,46.99171251156209,1.9910337606690511,0.7381440940296351,A,824.1789580206387,Correct,sub_016_day_24_data.csv,1,600,,Button-Switch at home,,,,,,,,,,,,,k
16,24,820,A,34.447350528534315,60.274314409965555,1.7223675264267158,0.946786716752546,B,588.0525829852559,Incorrect,sub_016_day_24_data.csv,0,600,,Button-Switch at home,,,,,,,,,,,,,d
16,24,821,B,71.08650129885307,61.38470619616126,3.5543250649426534,0.9642287101431404,A,1928.2397500355728,Incorrect,sub_016_day_24_data.csv,0,600,,Button-Switch at home,,,,,,,,,,,,,k
16,24,822,A,37.32025426702381,67.71909976582845,1.8660127133511903,1.0637291316602049,B,550.901459006127,Incorrect,sub_016_day_24_data.csv,0,600,,Button-Switch at home,,,,,,,,,,,,,d
16,24,823,A,53.87775503370147,64.74679550704644,2.6938877516850734,1.0170402855420886,A,3942.9271659464575,Correct,sub_016_day_24_data.csv,1,600,,Button-Switch at home,,,,,,,,,,,,,k
16,24,824,A,68.89044254367761,89.4921320167769,3.444522127183881,1.4057391224899711,A,1264.9035829817876,Correct,sub_016_day_24_data.csv,1,600,,Button-Switch at home,,,,,,,,,,,,,k
16,24,825,B,48.16484685564079,31.418954607257778,2.4082423427820396,0.493527784888161,A,842.3110420117155,Incorrect,sub_016_day_24_data.csv,0,600,,Button-Switch at home,,,,,,,,,,,,,k
16,24,826,B,84.74605589831899,57.20193817107723,4.23730279491595,0.898525943646769,A,718.8552910229191,Incorrect,sub_016_day_24_data.csv,0,600,,Button-Switch at home,,,,,,,,,,,,,k
16,24,827,A,34.18090531756151,61.17906721931178,1.7090452658780757,0.9609985406483302,B,482.94891603291035,Incorrect,sub_016_day_24_data.csv,0,600,,Button-Switch at home,,,,,,,,,,,,,d
16,24,828,A,47.93098697981917,76.4271785045028,2.3965493489909586,1.2005153126217087,B,924.7090420103632,Incorrect,sub_016_day_24_data.csv,0,600,,Button-Switch at home,,,,,,,,,,,,,d
16,24,829,A,35.329300684918735,58.1758964919294,1.7664650342459367,0.913824845175228,A,996.279124985449,Correct,sub_016_day_24_data.csv,1,600,,Button-Switch at home,,,,,,,,,,,,,k
16,24,830,B,36.41840204758195,19.1098560050173,1.8209201023790973,0.3001769161826057,A,579.8498339718208,Incorrect,sub_016_day_24_data.csv,0,600,,Button-Switch at home,,,,,,,,,,,,,k
16,24,831,A,36.455960587643,55.37796131909357,1.82279802938215,0.8698749822542203,A,1371.1326660122722,Correct,sub_016_day_24_data.csv,1,600,,Button-Switch at home,,,,,,,,,,,,,k
16,24,832,A,58.45086903008145,75.7861152672764,2.9225434515040725,1.190445514838924,A,2521.815999993123,Correct,sub_016_day_24_data.csv,1,600,,Button-Switch at home,,,,,,,,,,,,,k
16,24,833,A,21.512414205891645,42.164048877927165,1.0756207102945825,0.6623113310024846,B,1377.9052079771643,Incorrect,sub_016_day_24_data.csv,0,600,,Button-Switch at home,,,,,,,,,,,,,d
16,24,834,B,65.31330337336799,56.32521542954646,3.2656651686683995,0.8847544150266281,A,858.891166979447,Incorrect,sub_016_day_24_data.csv,0,600,,Button-Switch at home,,,,,,,,,,,,,k
16,24,835,B,70.68586208314613,50.625846465738704,3.534293104157307,0.7952289366926476,A,912.9580419976264,Incorrect,sub_016_day_24_data.csv,0,600,,Button-Switch at home,,,,,,,,,,,,,k
16,24,836,B,52.77330145046685,29.00228236279276,2.6386650725233425,0.4555667860414328,B,496.8503339914605,Correct,sub_016_day_24_data.csv,1,600,,Button-Switch at home,,,,,,,,,,,,,d
16,24,837,A,62.89400501940793,82.73936921100986,3.1447002509703963,1.2996669723798104,B,825.2832920406945,Incorrect,sub_016_day_24_data.csv,0,600,,Button-Switch at home,,,,,,,,,,,,,d
16,24,838,A,20.203375393262668,39.16092059195553,1.0101687696631334,0.6151383021975039,A,1319.6877079899425,Correct,sub_016_day_24_data.csv,1,600,,Button-Switch at home,,,,,,,,,,,,,k
16,24,839,A,54.45158453433904,73.71855775437125,2.722579226716952,1.157968397371838,A,1496.461583010387,Correct,sub_016_day_24_data.csv,1,600,,Button-Switch at home,,,,,,,,,,,,,k
16,24,840,A,17.908226533325358,32.33018916587294,0.895411326666268,0.5078414238633737,A,643.8737920252606,Correct,sub_016_day_24_data.csv,1,600,,Button-Switch at home,,,,,,,,,,,,,k
16,24,841,B,73.14363319553236,61.49806346862434,3.657181659776618,0.9660093220151454,A,627.9949999880046,Incorrect,sub_016_day_24_data.csv,0,600,,Button-Switch at home,,,,,,,,,,,,,k
16,24,842,A,26.92207150703845,49.01095245117011,1.3461035753519224,0.7698622408301734,B,759.7529579652473,Incorrect,sub_016_day_24_data.csv,0,600,,Button-Switch at home,,,,,,,,,,,,,d
16,24,843,A,47.32190659452993,75.30054884877877,2.3660953297264964,1.1828182553730138,B,1014.6897080121562,Incorrect,sub_016_day_24_data.csv,0,600,,Button-Switch at home,,,,,,,,,,,,,d
16,24,844,A,30.82643680262328,41.26532610869144,1.541321840131164,0.6481942267552605,A,669.6260410244577,Correct,sub_016_day_24_data.csv,1,600,,Button-Switch at home,,,,,,,,,,,,,k
16,24,845,A,25.768976603879302,50.9535725846216,1.2884488301939652,0.8003768465300076,A,1699.539708031807,Correct,sub_016_day_24_data.csv,1,600,,Button-Switch at home,,,,,,,,,,,,,k
16,24,846,A,56.79750064605498,64.68157339518545,2.839875032302749,1.0160157790047182,A,1365.372458996717,Correct,sub_016_day_24_data.csv,1,600,,Button-Switch at home,,,,,,,,,,,,,k
16,24,847,A,51.91316141001174,66.83594304996868,2.595658070500587,1.0498565384076368,A,642.8469159873202,Correct,sub_016_day_24_data.csv,1,600,,Button-Switch at home,,,,,,,,,,,,,k
16,24,848,A,44.235493463620266,76.04977091688147,2.2117746731810133,1.1945870080983074,B,477.5152909569442,Incorrect,sub_016_day_24_data.csv,0,600,,Button-Switch at home,,,,,,,,,,,,,d
16,24,849,B,60.38538377245333,48.60066684283207,3.0192691886226664,0.7634174895650313,A,607.2362499544397,Incorrect,sub_016_day_24_data.csv,0,600,,Button-Switch at home,,,,,,,,,,,,,k
16,24,850,B,58.41559018330653,47.94362283813618,2.9207795091653264,0.7530966664738423,B,447.8570409701206,Correct,sub_016_day_24_data.csv,1,600,,Button-Switch at home,,,,,,,,,,,,,d
16,24,851,A,25.36571992503042,49.72895315015832,1.268285996251521,0.7811405694362419,A,911.5616250201128,Correct,sub_016_day_24_data.csv,1,600,,Button-Switch at home,,,,,,,,,,,,,k
16,24,852,A,38.10749202072377,51.8540693874101,1.9053746010361885,0.8145218172311148,A,724.3237500078976,Correct,sub_016_day_24_data.csv,1,600,,Button-Switch at home,,,,,,,,,,,,,k
16,24,853,A,61.580514427077134,82.90965315307952,3.0790257213538563,1.3023417862869624,B,311.58675003098324,Incorrect,sub_016_day_24_data.csv,0,600,,Button-Switch at home,,,,,,,,,,,,,d
16,24,854,A,20.43536733051682,35.05116811469168,1.0217683665258408,0.5505824612442809,A,165.16637499444187,Correct,sub_016_day_24_data.csv,1,600,,Button-Switch at home,,,,,,,,,,,,,k
16,24,855,B,43.80011888587807,21.211090137420506,2.1900059442939037,0.3331830247517558,A,1677.8559579979628,Incorrect,sub_016_day_24_data.csv,0,600,,Button-Switch at home,,,,,,,,,,,,,k
16,24,856,B,74.48789194889072,54.76758711203877,3.724394597444536,0.8602872466301001,B,1201.9080410245806,Correct,sub_016_day_24_data.csv,1,600,,Button-Switch at home,,,,,,,,,,,,,d
16,24,857,B,57.59086104247721,34.51507893319116,2.8795430521238603,0.5421615920729259,B,1627.1289580035957,Correct,sub_016_day_24_data.csv,1,600,,Button-Switch at home,,,,,,,,,,,,,d
16,24,858,B,76.49191725883476,45.17382521304813,3.824595862941738,0.7095887871193068,A,409.3972910195589,Incorrect,sub_016_day_24_data.csv,0,600,,Button-Switch at home,,,,,,,,,,,,,k
16,24,859,A,27.445572493000434,56.47166934767291,1.3722786246500218,0.8870549077930056,B,289.7188750212081,Incorrect,sub_016_day_24_data.csv,0,600,,Button-Switch at home,,,,,,,,,,,,,d
16,24,860,B,55.35140302756768,27.408347491704863,2.7675701513783846,0.4305293156348811,A,439.2234170227312,Incorrect,sub_016_day_24_data.csv,0,600,,Button-Switch at home,,,,,,,,,,,,,k
16,24,861,B,62.29874882571664,43.6678884452047,3.114937441285832,0.6859335876861685,B,821.9307079561986,Correct,sub_016_day_24_data.csv,1,600,,Button-Switch at home,,,,,,,,,,,,,d
16,24,862,A,22.039152315236564,43.60448670407696,1.1019576157618285,0.6849376754654101,A,1373.6101670074277,Correct,sub_016_day_24_data.csv,1,600,,Button-Switch at home,,,,,,,,,,,,,k
16,24,863,B,41.5631707777505,27.314773758032867,2.078158538887525,0.4290594628635167,B,1000.5127919721416,Correct,sub_016_day_24_data.csv,1,600,,Button-Switch at home,,,,,,,,,,,,,d
16,24,864,A,46.27335221610775,52.98989966897928,2.3136676108053877,0.8323633975726277,B,916.1986660328694,Incorrect,sub_016_day_24_data.csv,0,600,,Button-Switch at home,,,,,,,,,,,,,d
16,24,865,B,64.50075170422788,52.36379189781359,3.225037585211394,0.8225285197013796,A,702.8912089881487,Incorrect,sub_016_day_24_data.csv,0,600,,Button-Switch at home,,,,,,,,,,,,,k
16,24,866,B,77.07375995925293,47.099942682182906,3.853687997962646,0.7398441695742306,B,622.5258749909699,Correct,sub_016_day_24_data.csv,1,600,,Button-Switch at home,,,,,,,,,,,,,d
16,24,867,B,48.67956610428552,20.342227232148893,2.4339783052142763,0.3195349581508659,B,894.5209160447121,Correct,sub_016_day_24_data.csv,1,600,,Button-Switch at home,,,,,,,,,,,,,d
16,24,868,B,86.53887445492958,63.70971198764915,4.326943722746479,1.0007498157136006,B,710.0557500380091,Correct,sub_016_day_24_data.csv,1,600,,Button-Switch at home,,,,,,,,,,,,,d
16,24,869,A,47.05734704986509,78.7171341994,2.3528673524932544,1.2364858525623843,B,566.7166250059381,Incorrect,sub_016_day_24_data.csv,0,600,,Button-Switch at home,,,,,,,,,,,,,d
16,24,870,B,59.11059473552173,35.45992083136723,2.955529736776086,0.5570031339034947,B,820.0703329639509,Correct,sub_016_day_24_data.csv,1,600,,Button-Switch at home,,,,,,,,,,,,,d
16,24,871,A,46.6282561625503,72.5245206681467,2.3314128081275154,1.139212506680854,A,2353.284624987282,Correct,sub_016_day_24_data.csv,1,600,,Button-Switch at home,,,,,,,,,,,,,k
16,24,872,B,30.826166759861454,15.320242367882386,1.5413083379930728,0.240649804370772,B,818.3407089672983,Correct,sub_016_day_24_data.csv,1,600,,Button-Switch at home,,,,,,,,,,,,,d
16,24,873,B,56.63565790191938,34.02535429787754,2.831782895095969,0.53446901549001,A,616.4718749932945,Incorrect,sub_016_day_24_data.csv,0,600,,Button-Switch at home,,,,,,,,,,,,,k
16,24,874,A,24.32086594014913,56.50796860783497,1.2160432970074566,0.8876250952382848,B,1328.961041988805,Incorrect,sub_016_day_24_data.csv,0,600,,Button-Switch at home,,,,,,,,,,,,,d
16,24,875,B,83.43486415317199,62.735451625368,4.171743207658599,0.98544616972947,A,654.2588750016876,Incorrect,sub_016_day_24_data.csv,0,600,,Button-Switch at home,,,,,,,,,,,,,k
16,24,876,A,61.598868464899965,81.26180105722574,3.0799434232449983,1.2764573860942785,B,360.9947499935515,Incorrect,sub_016_day_24_data.csv,0,600,,Button-Switch at home,,,,,,,,,,,,,d
16,24,877,A,13.609653359619507,39.02080156531681,0.6804826679809753,0.6129373176739219,A,472.9797500185669,Correct,sub_016_day_24_data.csv,1,600,,Button-Switch at home,,,,,,,,,,,,,k
16,24,878,B,59.64218578440591,52.35074519418657,2.9821092892202956,0.8223235825600387,B,1211.410916002933,Correct,sub_016_day_24_data.csv,1,600,,Button-Switch at home,,,,,,,,,,,,,d
16,24,879,A,43.262029425135296,64.76764573967732,2.163101471256765,1.0173678002303823,A,428.0011669616215,Correct,sub_016_day_24_data.csv,1,600,,Button-Switch at home,,,,,,,,,,,,,k
16,24,880,B,72.7974635490621,46.054711803666635,3.6398731774531057,0.7234257213279711,B,427.17874998925254,Correct,sub_016_day_24_data.csv,1,600,,Button-Switch at home,,,,,,,,,,,,,d
16,24,881,B,54.02093779760915,25.32028265554827,2.701046889880457,0.3977300698874375,A,331.5705829882063,Incorrect,sub_016_day_24_data.csv,0,600,,Button-Switch at home,,,,,,,,,,,,,k
16,24,882,B,78.0128910026263,57.4382527973246,3.9006445501313154,0.9022379651155416,B,303.51429199799895,Correct,sub_016_day_24_data.csv,1,600,,Button-Switch at home,,,,,,,,,,,,,d
16,24,883,A,40.446960478527195,55.69814608046128,2.0223480239263596,0.8749044327247414,A,421.1762499762699,Correct,sub_016_day_24_data.csv,1,600,,Button-Switch at home,,,,,,,,,,,,,k
16,24,884,B,37.8137461521754,26.702406386867985,1.8906873076087696,0.4194404186907681,B,487.3648749780841,Correct,sub_016_day_24_data.csv,1,600,,Button-Switch at home,,,,,,,,,,,,,d
16,24,885,B,66.75399659583185,56.588938422762375,3.3376998297915925,0.8888969661169773,B,549.9709589639679,Correct,sub_016_day_24_data.csv,1,600,,Button-Switch at home,,,,,,,,,,,,,d
16,24,886,A,33.567292298534696,45.52024116259472,1.6783646149267348,0.7150302761302163,A,676.8712910125032,Correct,sub_016_day_24_data.csv,1,600,,Button-Switch at home,,,,,,,,,,,,,k
16,24,887,B,86.56188183388812,59.53346528286542,4.328094091694407,0.935149485876965,A,538.1806670338847,Incorrect,sub_016_day_24_data.csv,0,600,,Button-Switch at home,,,,,,,,,,,,,k
16,24,888,B,58.32080148984455,49.9330644051023,2.9160400744922277,0.7843467415314771,B,303.6602500360459,Correct,sub_016_day_24_data.csv,1,600,,Button-Switch at home,,,,,,,,,,,,,d
16,24,889,A,65.68392927675623,76.6926374853146,3.2841964638378114,1.2046851325414476,B,297.7646660292521,Incorrect,sub_016_day_24_data.csv,0,600,,Button-Switch at home,,,,,,,,,,,,,d
16,24,890,A,16.31876809997995,33.27441769112477,0.8159384049989974,0.5226733308545791,A,3300.710875017103,Correct,sub_016_day_24_data.csv,1,600,,Button-Switch at home,,,,,,,,,,,,,k
16,24,891,A,46.71380498482009,56.486803752066805,2.3356902492410043,0.8872926384613071,B,896.8013330013491,Incorrect,sub_016_day_24_data.csv,0,600,,Button-Switch at home,,,,,,,,,,,,,d
16,24,892,B,51.03171478492416,43.67444885325437,2.551585739246208,0.6860366383348353,A,809.1773340129294,Incorrect,sub_016_day_24_data.csv,0,600,,Button-Switch at home,,,,,,,,,,,,,k
16,24,893,A,48.160435344309846,70.0206318749899,2.4080217672154927,1.099881513490918,B,392.39762496436015,Incorrect,sub_016_day_24_data.csv,0,600,,Button-Switch at home,,,,,,,,,,,,,d
16,24,894,A,62.624421116144426,88.2302413076341,3.131221055807221,1.38591738958259,A,1054.5247090049088,Correct,sub_016_day_24_data.csv,1,600,,Button-Switch at home,,,,,,,,,,,,,k
16,24,895,A,50.65365149447669,78.0803474784904,2.532682574723834,1.2264832301408186,A,1240.1925830054097,Correct,sub_016_day_24_data.csv,1,600,,Button-Switch at home,,,,,,,,,,,,,k
16,24,896,A,43.377093271406544,66.96043468786728,2.168854663570327,1.051812048482915,A,3007.4190830346197,Correct,sub_016_day_24_data.csv,1,600,,Button-Switch at home,,,,,,,,,,,,,k
16,24,897,A,60.78480262907686,81.17535223916519,3.039240131453843,1.2750994512356255,B,1770.7702080369927,Incorrect,sub_016_day_24_data.csv,0,600,,Button-Switch at home,,,,,,,,,,,,,d
16,24,898,B,58.0630912181219,45.65918248294191,2.9031545609060947,0.7172127612866301,A,369.8811660287902,Incorrect,sub_016_day_24_data.csv,0,600,,Button-Switch at home,,,,,,,,,,,,,k
16,24,899,B,64.02717642587984,48.88553785544832,3.201358821293992,0.7678922329673108,A,378.813374962192,Incorrect,sub_016_day_24_data.csv,0,600,,Button-Switch at home,,,,,,,,,,,,,k
16,24,900,A,57.60624052703061,75.81350157772336,2.8803120263515303,1.1908756979974695,A,275.11250000679865,Correct,sub_016_day_24_data.csv,1,600,,Button-Switch at home,,,,,,,,,,,,,k
16,24,901,A,55.67697662769357,81.33439612877211,2.7838488313846783,1.277597706811563,B,784.0023339958861,Incorrect,sub_016_day_24_data.csv,0,600,,Button-Switch at home,,,,,,,,,,,,,d
16,24,902,A,10.556873839697564,31.772932265298945,0.5278436919848781,0.4990880529383463,A,316.66733301244676,Correct,sub_016_day_24_data.csv,1,600,,Button-Switch at home,,,,,,,,,,,,,k
16,24,903,B,54.31913376064601,36.34723206833735,2.7159566880323007,0.5709409862210596,B,529.0964999585412,Correct,sub_016_day_24_data.csv,1,600,,Button-Switch at home,,,,,,,,,,,,,d
16,24,904,B,48.96737358901778,34.239987841452525,2.4483686794508888,0.5378404713085554,A,691.1640000180341,Incorrect,sub_016_day_24_data.csv,0,600,,Button-Switch at home,,,,,,,,,,,,,k
16,24,905,B,72.60663990440054,63.07517611159888,3.630331995220027,0.9907825494804072,B,381.321958033368,Correct,sub_016_day_24_data.csv,1,600,,Button-Switch at home,,,,,,,,,,,,,d
16,24,906,B,48.57341477391411,34.550338076004024,2.428670738695706,0.5427154413930897,A,635.926750022918,Incorrect,sub_016_day_24_data.csv,0,600,,Button-Switch at home,,,,,,,,,,,,,k
16,24,907,B,52.11734791422156,37.1989720154614,2.605867395711078,0.5843200860243292,A,636.3098750007339,Incorrect,sub_016_day_24_data.csv,0,600,,Button-Switch at home,,,,,,,,,,,,,k
16,24,908,A,37.27327200998363,44.97860006079452,1.8636636004991811,0.7065221975987275,B,740.4133749660105,Incorrect,sub_016_day_24_data.csv,0,600,,Button-Switch at home,,,,,,,,,,,,,d
16,24,909,A,44.23599934393842,74.67906944935562,2.211799967196921,1.1730560797950875,A,452.9114590259269,Correct,sub_016_day_24_data.csv,1,600,,Button-Switch at home,,,,,,,,,,,,,k
16,24,910,A,49.707996822185144,74.65011417563919,2.4853998411092575,1.1726012514191368,B,533.1617079791613,Incorrect,sub_016_day_24_data.csv,0,600,,Button-Switch at home,,,,,,,,,,,,,d
16,24,911,A,37.2939406046105,66.81500839111524,1.8646970302305248,1.04952769755534,A,392.50866597285494,Correct,sub_016_day_24_data.csv,1,600,,Button-Switch at home,,,,,,,,,,,,,k
16,24,912,B,58.760512289978365,30.989589595761316,2.938025614498918,0.4867833350590321,A,427.1517919842154,Incorrect,sub_016_day_24_data.csv,0,600,,Button-Switch at home,,,,,,,,,,,,,k
16,24,913,B,87.8563351591294,66.1614522615726,4.39281675795647,1.0392616618789414,B,933.827583969105,Correct,sub_016_day_24_data.csv,1,600,,Button-Switch at home,,,,,,,,,,,,,d
16,24,914,A,39.12182005359283,66.62682416521422,1.9560910026796416,1.0465717066472793,B,644.1970420419239,Incorrect,sub_016_day_24_data.csv,0,600,,Button-Switch at home,,,,,,,,,,,,,d
16,24,915,A,42.95465965252863,52.23947265247007,2.1477329826264313,0.8205757175620243,A,664.7146249888465,Correct,sub_016_day_24_data.csv,1,600,,Button-Switch at home,,,,,,,,,,,,,k
16,24,916,B,61.45550245400827,45.05136215386655,3.072775122700414,0.7076651418840019,A,691.1787079880014,Incorrect,sub_016_day_24_data.csv,0,600,,Button-Switch at home,,,,,,,,,,,,,k
16,24,917,B,59.76995592411933,37.55323146986089,2.9884977962059667,0.5898847805213601,B,321.02137501351535,Correct,sub_016_day_24_data.csv,1,600,,Button-Switch at home,,,,,,,,,,,,,d
16,24,918,A,38.8009938217911,57.24932662274819,1.9400496910895553,0.8992703197049413,A,549.4478750042617,Correct,sub_016_day_24_data.csv,1,600,,Button-Switch at home,,,,,,,,,,,,,k
16,24,919,A,31.23633623270243,46.17039083866309,1.5618168116351216,0.7252428033605672,B,561.7050000000745,Incorrect,sub_016_day_24_data.csv,0,600,,Button-Switch at home,,,,,,,,,,,,,d
16,24,920,A,66.1848142781395,86.34188709471862,3.309240713906975,1.3562551909692366,A,969.6494579548016,Correct,sub_016_day_24_data.csv,1,600,,Button-Switch at home,,,,,,,,,,,,,k
16,24,921,B,76.35005756667879,43.96213932770067,3.817502878333939,0.6905556697399768,B,358.1397089874372,Correct,sub_016_day_24_data.csv,1,600,,Button-Switch at home,,,,,,,,,,,,,d
16,24,922,A,36.83078047374297,46.62352991872331,1.8415390236871485,0.7323606953854253,A,581.673167005647,Correct,sub_016_day_24_data.csv,1,600,,Button-Switch at home,,,,,,,,,,,,,k
16,24,923,A,39.47063323186818,48.83089347045019,1.973531661593409,0.7670338809749607,A,562.7022090484388,Correct,sub_016_day_24_data.csv,1,600,,Button-Switch at home,,,,,,,,,,,,,k
16,24,924,A,14.281805660393545,33.19381847548405,0.7140902830196773,0.5214072813358692,B,3189.769500051625,Incorrect,sub_016_day_24_data.csv,0,600,,Button-Switch at home,,,,,,,,,,,,,d
16,24,925,A,50.61845781621381,72.28926081844367,2.5309228908106904,1.1355170536032957,A,1607.2167090023868,Correct,sub_016_day_24_data.csv,1,600,,Button-Switch at home,,,,,,,,,,,,,k
16,24,926,B,77.82822679348573,47.37880418022824,3.891411339674286,0.7442245157423721,B,742.1292919898406,Correct,sub_016_day_24_data.csv,1,600,,Button-Switch at home,,,,,,,,,,,,,d
16,24,927,B,41.34693067057019,29.27509636989523,2.0673465335285095,0.4598521384439804,B,722.297583008185,Correct,sub_016_day_24_data.csv,1,600,,Button-Switch at home,,,,,,,,,,,,,d
16,24,928,B,52.65460726216104,22.4389261302862,2.632730363108052,0.3524698274267558,A,535.1313750143163,Incorrect,sub_016_day_24_data.csv,0,600,,Button-Switch at home,,,,,,,,,,,,,k
16,24,929,B,35.04256129513905,12.3411234093415,1.7521280647569526,0.1938539131991613,A,1180.9874160098843,Incorrect,sub_016_day_24_data.csv,0,600,,Button-Switch at home,,,,,,,,,,,,,k
16,24,930,A,63.70613234978512,80.12903849848416,3.185306617489256,1.258663993430258,A,935.6737500056624,Correct,sub_016_day_24_data.csv,1,600,,Button-Switch at home,,,,,,,,,,,,,k
16,24,931,A,40.472464702598394,57.35016740478927,2.0236232351299197,0.900854323005154,A,2056.373957952019,Correct,sub_016_day_24_data.csv,1,600,,Button-Switch at home,,,,,,,,,,,,,k
16,24,932,B,65.70108285558841,45.07044828242885,3.285054142779421,0.707964946090386,B,359.1239579836838,Correct,sub_016_day_24_data.csv,1,600,,Button-Switch at home,,,,,,,,,,,,,d
16,24,933,A,40.46040815180572,58.56020978817433,2.0230204075902862,0.9198616243160278,B,554.6142499661073,Incorrect,sub_016_day_24_data.csv,0,600,,Button-Switch at home,,,,,,,,,,,,,d
16,24,934,B,65.6919283139232,51.08097712049703,3.28459641569616,0.8023781122997088,A,332.9144589952193,Incorrect,sub_016_day_24_data.csv,0,600,,Button-Switch at home,,,,,,,,,,,,,k
16,24,935,A,15.006222949817309,31.115821120828127,0.7503111474908652,0.4887661752180388,B,371.1449999827891,Incorrect,sub_016_day_24_data.csv,0,600,,Button-Switch at home,,,,,,,,,,,,,d
16,24,936,B,56.80581290403856,26.27120526036947,2.8402906452019283,0.4126671272346313,A,663.8289160327986,Incorrect,sub_016_day_24_data.csv,0,600,,Button-Switch at home,,,,,,,,,,,,,k
16,24,937,A,42.10953307461199,53.45542559408912,2.1054766537305993,0.8396758617045309,B,603.5682499641553,Incorrect,sub_016_day_24_data.csv,0,600,,Button-Switch at home,,,,,,,,,,,,,d
16,24,938,A,29.156360265938545,55.247541649676016,1.4578180132969272,0.8678263548775915,A,343.74079102417454,Correct,sub_016_day_24_data.csv,1,600,,Button-Switch at home,,,,,,,,,,,,,k
16,24,939,A,55.42177611416422,84.79943644250122,2.771088805708211,1.3320264327815818,A,766.1643330357037,Correct,sub_016_day_24_data.csv,1,600,,Button-Switch at home,,,,,,,,,,,,,k
16,24,940,B,86.13954221467709,65.67369812962515,4.306977110733855,1.0316000378905206,A,521.9640409923159,Incorrect,sub_016_day_24_data.csv,0,600,,Button-Switch at home,,,,,,,,,,,,,k
16,24,941,A,35.334881973866885,58.52734298637337,1.7667440986933445,0.9193453538006032,B,301.8053330015391,Incorrect,sub_016_day_24_data.csv,0,600,,Button-Switch at home,,,,,,,,,,,,,d
16,24,942,A,57.40270799387386,75.34923118033454,2.8701353996936927,1.18358295564889,B,430.0420409999788,Incorrect,sub_016_day_24_data.csv,0,600,,Button-Switch at home,,,,,,,,,,,,,d
16,24,943,A,38.215326029616925,71.08114336785816,1.9107663014808465,1.1165399890661305,A,251.2387500028126,Correct,sub_016_day_24_data.csv,1,600,,Button-Switch at home,,,,,,,,,,,,,k
16,24,944,A,67.19143256645812,84.71181849415318,3.3595716283229056,1.330650133267318,B,1491.442708997056,Incorrect,sub_016_day_24_data.csv,0,600,,Button-Switch at home,,,,,,,,,,,,,d
16,24,945,A,51.35366580620641,72.91133035735952,2.567683290310321,1.1452884990706955,A,570.8710829494521,Correct,sub_016_day_24_data.csv,1,600,,Button-Switch at home,,,,,,,,,,,,,k
16,24,946,A,66.8191524839603,87.07226995072209,3.3409576241980146,1.3677280180428792,B,348.5728329978883,Incorrect,sub_016_day_24_data.csv,0,600,,Button-Switch at home,,,,,,,,,,,,,d
16,24,947,B,43.00170864942183,25.38703786503153,2.1500854324710916,0.3987786582659448,B,410.13816598569974,Correct,sub_016_day_24_data.csv,1,600,,Button-Switch at home,,,,,,,,,,,,,d
16,24,948,A,55.55816833021652,77.48265928500359,2.777908416510826,1.2170947659518412,A,440.2107499772683,Correct,sub_016_day_24_data.csv,1,600,,Button-Switch at home,,,,,,,,,,,,,k
16,24,949,A,47.298031827043275,66.84528562891475,2.364901591352164,1.0500032912945498,B,284.28645798703656,Incorrect,sub_016_day_24_data.csv,0,600,,Button-Switch at home,,,,,,,,,,,,,d
16,24,950,B,64.94883297597224,53.2799474763704,3.2474416487986115,0.8369194578770764,A,405.718749971129,Incorrect,sub_016_day_24_data.csv,0,600,,Button-Switch at home,,,,,,,,,,,,,k
16,24,951,A,27.318838812363193,46.80813404643592,1.3659419406181597,0.7352604502426469,B,301.54549999861047,Incorrect,sub_016_day_24_data.csv,0,600,,Button-Switch at home,,,,,,,,,,,,,d
16,24,952,A,17.39268189978006,32.83921292094785,0.869634094989003,0.515837150310604,A,966.8919160030782,Correct,sub_016_day_24_data.csv,1,600,,Button-Switch at home,,,,,,,,,,,,,k
16,24,953,B,69.2009093402101,41.963125423485025,3.460045467010505,0.6591552327604382,B,1028.2270419993438,Correct,sub_016_day_24_data.csv,1,600,,Button-Switch at home,,,,,,,,,,,,,d
16,24,954,B,64.84751191145679,42.52686266128023,3.2423755955728395,0.6680103965845002,B,672.5802920409478,Correct,sub_016_day_24_data.csv,1,600,,Button-Switch at home,,,,,,,,,,,,,d
16,24,955,B,72.80587901091526,44.21662875562683,3.640293950545763,0.6945531803259223,A,718.541957961861,Incorrect,sub_016_day_24_data.csv,0,600,,Button-Switch at home,,,,,,,,,,,,,k
16,24,956,A,33.205278484348746,60.008180058824074,1.6602639242174373,0.942606288140476,B,389.2758329748176,Incorrect,sub_016_day_24_data.csv,0,600,,Button-Switch at home,,,,,,,,,,,,,d
16,24,957,B,62.6952551601057,51.372743129994845,3.1347627580052855,0.8069611620597367,A,790.914166951552,Incorrect,sub_016_day_24_data.csv,0,600,,Button-Switch at home,,,,,,,,,,,,,k
16,24,958,B,56.46826113951898,26.76214773097935,2.8234130569759492,0.4203788335296473,B,779.9267079681158,Correct,sub_016_day_24_data.csv,1,600,,Button-Switch at home,,,,,,,,,,,,,d
16,24,959,A,50.28974770213823,66.59349875795182,2.5144873851069116,1.0460482323741125,B,524.4936660164967,Incorrect,sub_016_day_24_data.csv,0,600,,Button-Switch at home,,,,,,,,,,,,,d
16,24,960,A,67.14080681737764,87.43841905573322,3.357040340868882,1.373479474734986,A,986.7175839608536,Correct,sub_016_day_24_data.csv,1,600,,Button-Switch at home,,,,,,,,,,,,,k
16,24,961,B,70.67288987408625,43.865369212067186,3.5336444937043128,0.6890356083181708,B,370.4657499911264,Correct,sub_016_day_24_data.csv,1,600,,Button-Switch at home,,,,,,,,,,,,,d
16,24,962,A,20.9660440147294,52.86039373648694,1.0483022007364702,0.8303291231420565,A,389.7626250400208,Correct,sub_016_day_24_data.csv,1,600,,Button-Switch at home,,,,,,,,,,,,,k
16,24,963,A,59.1651782908328,81.32550172903919,2.9582589145416396,1.2774579939072677,B,314.52720798552036,Incorrect,sub_016_day_24_data.csv,0,600,,Button-Switch at home,,,,,,,,,,,,,d
16,24,964,B,77.27559920215754,64.33307277769948,3.863779960107877,1.010541544106391,B,1088.1381669896657,Correct,sub_016_day_24_data.csv,1,600,,Button-Switch at home,,,,,,,,,,,,,d
16,24,965,A,51.6626708192605,61.849113949097514,2.5831335409630247,0.9715236100676136,B,991.4073750260286,Incorrect,sub_016_day_24_data.csv,0,600,,Button-Switch at home,,,,,,,,,,,,,d
16,24,966,B,51.512026753001265,36.01125341691915,2.575601337650063,0.5656634459057679,A,464.78983300039545,Incorrect,sub_016_day_24_data.csv,0,600,,Button-Switch at home,,,,,,,,,,,,,k
16,24,967,A,50.64539442801696,70.02548669692038,2.5322697214008483,1.0999577728554744,B,3215.7104169600643,Incorrect,sub_016_day_24_data.csv,0,600,,Button-Switch at home,,,,,,,,,,,,,d
16,24,968,A,68.97661019264942,82.83498538560539,3.448830509632471,1.301168907738179,A,761.1245410516858,Correct,sub_016_day_24_data.csv,1,600,,Button-Switch at home,,,,,,,,,,,,,k
16,24,969,A,23.756973550806,44.785950912672675,1.1878486775403,0.7034960718564278,B,3602.10904100677,Incorrect,sub_016_day_24_data.csv,0,600,,Button-Switch at home,,,,,,,,,,,,,d
16,24,970,B,47.15382858567935,26.02665394995608,2.3576914292839675,0.4088257242335289,B,2167.919958010316,Correct,sub_016_day_24_data.csv,1,600,,Button-Switch at home,,,,,,,,,,,,,d
16,24,971,A,24.154282730152445,56.740830004949146,1.2077141365076225,0.8912828735106776,A,1059.121124970261,Correct,sub_016_day_24_data.csv,1,600,,Button-Switch at home,,,,,,,,,,,,,k
16,24,972,B,72.24489063384235,60.13289074357453,3.6122445316921175,0.944565238995657,B,329.6571670216508,Correct,sub_016_day_24_data.csv,1,600,,Button-Switch at home,,,,,,,,,,,,,d
16,24,973,A,46.88102594421664,57.97595890281965,2.344051297210832,0.91068423286961,A,672.8236250346527,Correct,sub_016_day_24_data.csv,1,600,,Button-Switch at home,,,,,,,,,,,,,k
16,24,974,B,49.366271403478216,25.11044198345943,2.4683135701739105,0.3944339003181443,B,966.6783750290052,Correct,sub_016_day_24_data.csv,1,600,,Button-Switch at home,,,,,,,,,,,,,d
16,24,975,B,44.605340969752454,17.438744385606572,2.230267048487623,0.2739271562482593,B,731.2415839987807,Correct,sub_016_day_24_data.csv,1,600,,Button-Switch at home,,,,,,,,,,,,,d
16,24,976,A,20.65802848425624,38.621494487599946,1.0329014242128125,0.6066650167645135,B,591.8297919561155,Incorrect,sub_016_day_24_data.csv,0,600,,Button-Switch at home,,,,,,,,,,,,,d
16,24,977,A,21.837576502767632,48.80080734966183,1.0918788251383815,0.7665612892947421,A,691.6158749954775,Correct,sub_016_day_24_data.csv,1,600,,Button-Switch at home,,,,,,,,,,,,,k
16,24,978,B,42.44425583172518,25.774127898356944,2.122212791586259,0.4048590542908095,A,654.2452920111828,Incorrect,sub_016_day_24_data.csv,0,600,,Button-Switch at home,,,,,,,,,,,,,k
16,24,979,B,52.00901222716022,39.36914668839428,2.6004506113580113,0.618409110071792,B,458.0145410145633,Correct,sub_016_day_24_data.csv,1,600,,Button-Switch at home,,,,,,,,,,,,,d
16,24,980,B,47.438593565355816,35.15818366743578,2.3719296782677906,0.5522634576158845,A,330.87583404267207,Incorrect,sub_016_day_24_data.csv,0,600,,Button-Switch at home,,,,,,,,,,,,,k
16,24,981,A,52.93929233798012,72.72076629074417,2.646964616899006,1.1422951257121108,B,686.8495839880779,Incorrect,sub_016_day_24_data.csv,0,600,,Button-Switch at home,,,,,,,,,,,,,d
16,24,982,B,40.69236790245946,21.460442423912426,2.034618395122973,0.33709984130875,B,635.5319580179639,Correct,sub_016_day_24_data.csv,1,600,,Button-Switch at home,,,,,,,,,,,,,d
16,24,983,B,71.12286365832246,52.17248324256981,3.5561431829161227,0.8195234503719694,B,442.9646669887006,Correct,sub_016_day_24_data.csv,1,600,,Button-Switch at home,,,,,,,,,,,,,d
16,24,984,B,57.952752050294606,25.664168761702157,2.8976376025147306,0.4031318202112608,B,441.058750031516,Correct,sub_016_day_24_data.csv,1,600,,Button-Switch at home,,,,,,,,,,,,,d
16,24,985,B,72.2730599529239,48.73667952567749,3.613652997646195,0.7655539717911425,B,701.9504170166329,Correct,sub_016_day_24_data.csv,1,600,,Button-Switch at home,,,,,,,,,,,,,d
16,24,986,A,48.36662637146882,65.1485743785861,2.4183313185734407,1.0233514132980717,B,530.0101659959182,Incorrect,sub_016_day_24_data.csv,0,600,,Button-Switch at home,,,,,,,,,,,,,d
16,24,987,A,66.31798326882792,78.3189261126698,3.3158991634413955,1.2302308145630263,A,1074.5323749724776,Correct,sub_016_day_24_data.csv,1,600,,Button-Switch at home,,,,,,,,,,,,,k
16,24,988,B,81.88676188855776,54.799483994847016,4.094338094427888,0.8607882816936142,A,657.7332500019111,Incorrect,sub_016_day_24_data.csv,0,600,,Button-Switch at home,,,,,,,,,,,,,k
16,24,989,B,53.067865376445184,37.591547091982854,2.653393268822259,0.5904866409062404,B,732.8434170340188,Correct,sub_016_day_24_data.csv,1,600,,Button-Switch at home,,,,,,,,,,,,,d
16,24,990,B,62.30564518254648,32.50650288615548,3.115282259127324,0.5106109533052074,A,480.7199159986339,Incorrect,sub_016_day_24_data.csv,0,600,,Button-Switch at home,,,,,,,,,,,,,k
16,24,991,A,39.45552006283963,59.62958046234467,1.9727760031419816,0.9366592595857174,B,1227.724957978353,Incorrect,sub_016_day_24_data.csv,0,600,,Button-Switch at home,,,,,,,,,,,,,d
16,24,992,B,43.13037790154504,28.140226232579508,2.156518895077252,0.4420256400131328,B,2159.9937079590745,Correct,sub_016_day_24_data.csv,1,600,,Button-Switch at home,,,,,,,,,,,,,d
16,24,993,A,33.414086179755806,44.271732905139146,1.6707043089877902,0.6954187542823733,B,433.924000011757,Incorrect,sub_016_day_24_data.csv,0,600,,Button-Switch at home,,,,,,,,,,,,,d
16,24,994,B,51.94278059415241,44.073123973433056,2.59713902970762,0.6922990124784474,B,373.2090000412427,Correct,sub_016_day_24_data.csv,1,600,,Button-Switch at home,,,,,,,,,,,,,d
16,24,995,A,21.305336527733147,50.162283212082855,1.0652668263866574,0.7879473021318505,A,475.4269589902833,Correct,sub_016_day_24_data.csv,1,600,,Button-Switch at home,,,,,,,,,,,,,k
16,24,996,A,21.537090159840425,39.42109323359682,1.076854507992021,0.6192250844957304,B,443.89624998439103,Incorrect,sub_016_day_24_data.csv,0,600,,Button-Switch at home,,,,,,,,,,,,,d
16,24,997,A,18.831224428388413,47.210307802026335,0.9415612214194208,0.7415777808227942,A,588.6080000200309,Correct,sub_016_day_24_data.csv,1,600,,Button-Switch at home,,,,,,,,,,,,,k
16,24,998,B,66.5851671283304,43.84869922088184,3.3292583564165197,0.6887737567089544,B,135.5180829996243,Correct,sub_016_day_24_data.csv,1,600,,Button-Switch at home,,,,,,,,,,,,,d
16,24,999,A,17.53964697552413,39.7362675836939,0.8769823487762065,0.624175831610055,B,777.6318750111386,Incorrect,sub_016_day_24_data.csv,0,600,,Button-Switch at home,,,,,,,,,,,,,d
16,24,1000,A,30.45439851176471,45.49205357765683,1.522719925588235,0.7145875065813998,B,1197.0341670094058,Incorrect,sub_016_day_24_data.csv,0,600,,Button-Switch at home,,,,,,,,,,,,,d
16,24,1001,A,35.975565178860094,45.319883180642776,1.7987782589430048,0.7118830603092748,B,1074.2962079821154,Incorrect,sub_016_day_24_data.csv,0,600,,Button-Switch at home,,,,,,,,,,,,,d
16,24,1002,B,72.77666742930577,49.17108566878446,3.638833371465289,0.7723776075304379,B,409.00225000223145,Correct,sub_016_day_24_data.csv,1,600,,Button-Switch at home,,,,,,,,,,,,,d
16,24,1003,B,67.62054976276174,53.537808139256,3.3810274881380873,0.8409699236979323,B,436.0385420150123,Correct,sub_016_day_24_data.csv,1,600,,Button-Switch at home,,,,,,,,,,,,,d
16,24,1004,B,73.65495444739109,51.53033012611216,3.682747722369555,0.8094365328062538,A,315.23258303059265,Incorrect,sub_016_day_24_data.csv,0,600,,Button-Switch at home,,,,,,,,,,,,,k
16,24,1005,A,52.14174904505933,61.34558162055587,2.6070874522529666,0.9636141427466568,B,583.0087499925867,Incorrect,sub_016_day_24_data.csv,0,600,,Button-Switch at home,,,,,,,,,,,,,d
16,24,1006,B,44.15593477103263,15.57880531775367,2.2077967385516315,0.2447113016898026,B,783.659707987681,Correct,sub_016_day_24_data.csv,1,600,,Button-Switch at home,,,,,,,,,,,,,d
16,24,1007,A,28.34151579599497,37.753922171744506,1.4170757897997484,0.5930372226947668,A,434.782832977362,Correct,sub_016_day_24_data.csv,1,600,,Button-Switch at home,,,,,,,,,,,,,k
16,24,1008,B,63.81679167987054,32.43466579818641,3.190839583993527,0.5094825389661128,B,442.6200410234742,Correct,sub_016_day_24_data.csv,1,600,,Button-Switch at home,,,,,,,,,,,,,d
16,24,1009,A,22.61352940668457,36.66726713746651,1.1306764703342285,0.5759680853313961,B,630.5932080140337,Incorrect,sub_016_day_24_data.csv,0,600,,Button-Switch at home,,,,,,,,,,,,,d
16,24,1010,A,39.62417024431623,65.91039029642951,1.981208512215812,1.035317989752495,B,435.8747499645688,Incorrect,sub_016_day_24_data.csv,0,600,,Button-Switch at home,,,,,,,,,,,,,d
16,24,1011,B,43.675555362457374,14.638203982255444,2.1837777681228685,0.2299363704620127,A,376.70604104641825,Incorrect,sub_016_day_24_data.csv,0,600,,Button-Switch at home,,,,,,,,,,,,,k
16,24,1012,B,81.35324939328217,65.84880544816981,4.067662469664109,1.0343506172181691,B,362.40262497449294,Correct,sub_016_day_24_data.csv,1,600,,Button-Switch at home,,,,,,,,,,,,,d
16,24,1013,A,29.81872212842747,57.682108009162114,1.4909361064213738,0.9060684338257832,B,520.1662500039674,Incorrect,sub_016_day_24_data.csv,0,600,,Button-Switch at home,,,,,,,,,,,,,d
16,24,1014,A,32.190886934519995,40.739680868792405,1.6095443467259998,0.6399374106349544,B,284.56549998372793,Incorrect,sub_016_day_24_data.csv,0,600,,Button-Switch at home,,,,,,,,,,,,,d
16,24,1015,A,33.99817308474275,48.77171552574046,1.6999086542371376,0.7661043159931875,B,383.2886660238728,Incorrect,sub_016_day_24_data.csv,0,600,,Button-Switch at home,,,,,,,,,,,,,d
16,24,1016,B,49.09905545730886,20.45796361041644,2.454952772865443,0.321352940929458,B,474.81966600753367,Correct,sub_016_day_24_data.csv,1,600,,Button-Switch at home,,,,,,,,,,,,,d
16,24,1017,A,43.49804594073824,58.950154552164534,2.1749022970369123,0.9259868623453148,B,348.8226250046864,Incorrect,sub_016_day_24_data.csv,0,600,,Button-Switch at home,,,,,,,,,,,,,d
16,24,1018,B,56.16180483408437,25.390742182231776,2.808090241704219,0.3988368455444591,B,377.4790840107016,Correct,sub_016_day_24_data.csv,1,600,,Button-Switch at home,,,,,,,,,,,,,d
16,24,1019,A,24.753441659978897,49.13660900843519,1.237672082998945,0.7718360494160701,A,372.9577500489541,Correct,sub_016_day_24_data.csv,1,600,,Button-Switch at home,,,,,,,,,,,,,k
16,24,1020,A,42.78206646657047,74.58567925558353,2.1391033233285235,1.1715891100617293,B,3207.0910000475124,Incorrect,sub_016_day_24_data.csv,0,600,,Button-Switch at home,,,,,,,,,,,,,d
16,24,1021,A,22.172520383585745,39.80127876656818,1.1086260191792874,0.6251970248826502,A,515.9748330479488,Correct,sub_016_day_24_data.csv,1,600,,Button-Switch at home,,,,,,,,,,,,,k
16,24,1022,B,50.69174707569124,25.516884622265028,2.534587353784562,0.4008182863590309,B,667.9190410068259,Correct,sub_016_day_24_data.csv,1,600,,Button-Switch at home,,,,,,,,,,,,,d
16,24,1023,B,61.857564691216496,52.548438313234094,3.092878234560825,0.8254289388123633,B,615.8352079801261,Correct,sub_016_day_24_data.csv,1,600,,Button-Switch at home,,,,,,,,,,,,,d
16,24,1024,B,43.80592044981239,24.59245664712897,2.1902960224906196,0.3862974056817292,B,345.7901669899002,Correct,sub_016_day_24_data.csv,1,600,,Button-Switch at home,,,,,,,,,,,,,d
16,24,1025,A,25.799491778427683,44.40520501876355,1.289974588921384,0.697515329340481,A,661.9242090382613,Correct,sub_016_day_24_data.csv,1,600,,Button-Switch at home,,,,,,,,,,,,,k
16,24,1026,B,81.45817427483848,52.35347955213949,4.072908713741924,0.8223665337543244,B,756.3933749916032,Correct,sub_016_day_24_data.csv,1,600,,Button-Switch at home,,,,,,,,,,,,,d
16,24,1027,B,75.66886314822163,60.53164750801487,3.7834431574110816,0.9508288956043324,B,446.66812499053776,Correct,sub_016_day_24_data.csv,1,600,,Button-Switch at home,,,,,,,,,,,,,d
16,24,1028,B,76.25768593278957,58.32820594421072,3.8128842966394783,0.9162173164570244,B,532.0677499985322,Correct,sub_016_day_24_data.csv,1,600,,Button-Switch at home,,,,,,,,,,,,,d
16,24,1029,B,60.06695664109663,40.493374517948205,3.003347832054832,0.6360684395232311,B,467.5185000523925,Correct,sub_016_day_24_data.csv,1,600,,Button-Switch at home,,,,,,,,,,,,,d
16,24,1030,B,33.407515486407895,12.061819428989049,1.6703757743203949,0.1894666165351931,A,819.9620829545893,Incorrect,sub_016_day_24_data.csv,0,600,,Button-Switch at home,,,,,,,,,,,,,k
16,24,1031,A,40.67439355954354,68.38093778099444,2.033719677977177,1.0741252588917645,B,140.6710840528831,Incorrect,sub_016_day_24_data.csv,0,600,,Button-Switch at home,,,,,,,,,,,,,d
16,24,1032,A,54.65059825208487,79.08859948318559,2.7325299126042433,1.2423208155954066,A,1076.6312499763444,Correct,sub_016_day_24_data.csv,1,600,,Button-Switch at home,,,,,,,,,,,,,k
16,24,1033,B,68.66678939450259,38.572332475158646,3.433339469725129,0.605892781678907,B,880.5202500079758,Correct,sub_016_day_24_data.csv,1,600,,Button-Switch at home,,,,,,,,,,,,,d
16,24,1034,B,71.40498509231203,41.06520917814059,3.5702492546156015,0.6450507973608731,B,951.9474160042593,Correct,sub_016_day_24_data.csv,1,600,,Button-Switch at home,,,,,,,,,,,,,d
16,24,1035,B,80.51067905752474,49.0312191671244,4.025533952876237,0.7701805896599453,B,718.8571249716915,Correct,sub_016_day_24_data.csv,1,600,,Button-Switch at home,,,,,,,,,,,,,d
16,24,1036,A,50.31398336730857,75.8629271532522,2.5156991683654284,1.1916520731223736,B,597.3713750136085,Incorrect,sub_016_day_24_data.csv,0,600,,Button-Switch at home,,,,,,,,,,,,,d
16,24,1037,A,53.959592941634526,67.16034998376271,2.697979647081726,1.0549523106075418,B,649.4638330186717,Incorrect,sub_016_day_24_data.csv,0,600,,Button-Switch at home,,,,,,,,,,,,,d
16,24,1038,B,74.68586302286165,47.4052243125886,3.734293151143083,0.7446395222110229,A,641.0630000173114,Incorrect,sub_016_day_24_data.csv,0,600,,Button-Switch at home,,,,,,,,,,,,,k
16,24,1039,A,37.69330207379575,54.20711750028105,1.8846651036897872,0.8514834105558083,B,363.3835830260068,Incorrect,sub_016_day_24_data.csv,0,600,,Button-Switch at home,,,,,,,,,,,,,d
16,24,1040,A,45.77068070955264,67.17088720863613,2.288534035477632,1.0551178289487992,B,948.5003749723546,Incorrect,sub_016_day_24_data.csv,0,600,,Button-Switch at home,,,,,,,,,,,,,d
16,24,1041,B,71.41960503934007,53.60159779991294,3.5709802519670033,0.8419719293444066,B,673.1887920177542,Correct,sub_016_day_24_data.csv,1,600,,Button-Switch at home,,,,,,,,,,,,,d
16,24,1042,A,17.75392565185084,45.83836289201586,0.8876962825925419,0.7200273205707,A,571.2680830038153,Correct,sub_016_day_24_data.csv,1,600,,Button-Switch at home,,,,,,,,,,,,,k
16,24,1043,B,44.81830634547841,27.241360489226896,2.2409153172739207,0.4279062899337323,B,638.2485419744626,Correct,sub_016_day_24_data.csv,1,600,,Button-Switch at home,,,,,,,,,,,,,d
16,24,1044,A,30.945057157785953,62.57198277307379,1.5472528578892977,0.9828784070021784,B,641.2160419858992,Incorrect,sub_016_day_24_data.csv,0,600,,Button-Switch at home,,,,,,,,,,,,,d
16,24,1045,A,56.78178956041897,77.75755498243271,2.839089478020949,1.221412817469575,B,723.5312080010772,Incorrect,sub_016_day_24_data.csv,0,600,,Button-Switch at home,,,,,,,,,,,,,d
16,24,1046,A,39.82331991281676,50.33238321957465,1.991165995640838,0.7906192268014095,B,791.242208040785,Incorrect,sub_016_day_24_data.csv,0,600,,Button-Switch at home,,,,,,,,,,,,,d
16,24,1047,B,67.94434213659048,57.99119304406739,3.397217106829524,0.910923530200748,A,482.7867079875432,Incorrect,sub_016_day_24_data.csv,0,600,,Button-Switch at home,,,,,,,,,,,,,k
16,24,1048,A,46.10527784799371,76.5196922084593,2.3052638923996853,1.2019685144852394,B,245.23150001186875,Incorrect,sub_016_day_24_data.csv,0,600,,Button-Switch at home,,,,,,,,,,,,,d
16,24,1049,A,28.460474288534854,55.31963084213465,1.4230237144267426,0.8689587292647478,B,573.6316250404343,Incorrect,sub_016_day_24_data.csv,0,600,,Button-Switch at home,,,,,,,,,,,,,d
16,24,1050,B,73.76762915566263,49.22304244476449,3.688381457783131,0.7731937426590535,B,1061.5415839711204,Correct,sub_016_day_24_data.csv,1,600,,Button-Switch at home,,,,,,,,,,,,,d
16,24,1051,B,86.9872153646816,64.72814044197423,4.349360768234081,1.016747252465173,B,658.1899159937166,Correct,sub_016_day_24_data.csv,1,600,,Button-Switch at home,,,,,,,,,,,,,d
16,24,1052,B,66.69606242567595,41.62755908635517,3.3348031212837976,0.6538841690628422,B,1464.8943340289406,Correct,sub_016_day_24_data.csv,1,600,,Button-Switch at home,,,,,,,,,,,,,d
16,24,1053,A,49.41364909178259,57.36588922534233,2.4706824545891295,0.9011012807849068,B,615.7087920000777,Incorrect,sub_016_day_24_data.csv,0,600,,Button-Switch at home,,,,,,,,,,,,,d
16,24,1054,A,19.27137257538671,48.103813415072175,0.9635686287693358,0.7556129341722245,A,790.0339589687064,Correct,sub_016_day_24_data.csv,1,600,,Button-Switch at home,,,,,,,,,,,,,k
16,24,1055,B,40.55247202339542,16.943293274580967,2.0276236011697706,0.2661446283952046,B,792.8502499707974,Correct,sub_016_day_24_data.csv,1,600,,Button-Switch at home,,,,,,,,,,,,,d
16,24,1056,A,45.365803272146174,71.00741361326008,2.2682901636073085,1.1153818447891488,A,722.1373330103233,Correct,sub_016_day_24_data.csv,1,600,,Button-Switch at home,,,,,,,,,,,,,k
16,24,1057,B,65.69221335903416,45.055669706466745,3.284610667951708,0.7077328047620205,B,1222.456624964252,Correct,sub_016_day_24_data.csv,1,600,,Button-Switch at home,,,,,,,,,,,,,d
16,24,1058,A,29.26526243792407,40.90228019402439,1.4632631218962036,0.6424915148630916,A,1184.686457971111,Correct,sub_016_day_24_data.csv,1,600,,Button-Switch at home,,,,,,,,,,,,,k
16,24,1059,B,59.72304917040638,42.61860047335227,2.9861524585203187,0.6694514107668098,B,992.87858401658,Correct,sub_016_day_24_data.csv,1,600,,Button-Switch at home,,,,,,,,,,,,,d
16,24,1060,B,41.03931388452794,17.1417603445501,2.051965694226397,0.2692621418401771,A,834.764167026151,Incorrect,sub_016_day_24_data.csv,0,600,,Button-Switch at home,,,,,,,,,,,,,k
16,24,1061,B,75.37207882392198,44.80290375345347,3.768603941196099,0.7037623664567,B,377.14166700607166,Correct,sub_016_day_24_data.csv,1,600,,Button-Switch at home,,,,,,,,,,,,,d
16,24,1062,A,10.86558060816336,33.62061201697259,0.5432790304081679,0.5281113386085691,A,1016.5334999910556,Correct,sub_016_day_24_data.csv,1,600,,Button-Switch at home,,,,,,,,,,,,,k
16,24,1063,B,58.72753467973936,40.62415467746025,2.9363767339869677,0.6381227294650228,B,3144.7577080107294,Correct,sub_016_day_24_data.csv,1,600,,Button-Switch at home,,,,,,,,,,,,,d
16,24,1064,A,41.82276928247266,72.49944232655845,2.0911384641236332,1.1388185770123649,A,3409.4110829755664,Correct,sub_016_day_24_data.csv,1,600,,Button-Switch at home,,,,,,,,,,,,,k
16,24,1065,A,45.57606664534637,56.53259344232979,2.2788033322673185,0.8880119012340089,B,524.0013329894282,Incorrect,sub_016_day_24_data.csv,0,600,,Button-Switch at home,,,,,,,,,,,,,d
16,24,1066,B,67.46656386614802,44.27148783086258,3.373328193307401,0.6954149046646391,B,388.7326670228504,Correct,sub_016_day_24_data.csv,1,600,,Button-Switch at home,,,,,,,,,,,,,d
16,24,1067,A,61.95241755253298,77.0081510866658,3.097620877626649,1.2096412086020107,A,496.62016599904746,Correct,sub_016_day_24_data.csv,1,600,,Button-Switch at home,,,,,,,,,,,,,k
16,24,1068,B,83.17720783155264,53.196727370291384,4.158860391577632,0.8356122395076323,B,761.2456669448875,Correct,sub_016_day_24_data.csv,1,600,,Button-Switch at home,,,,,,,,,,,,,d
16,24,1069,B,52.32431942142178,26.766062148746727,2.616215971071089,0.4204403210601528,B,634.7352919983678,Correct,sub_016_day_24_data.csv,1,600,,Button-Switch at home,,,,,,,,,,,,,d
16,24,1070,B,50.975461218262296,20.331865109259557,2.5487730609131147,0.3193721903051423,A,627.2816249984317,Incorrect,sub_016_day_24_data.csv,0,600,,Button-Switch at home,,,,,,,,,,,,,k
16,24,1071,B,60.339509921965806,40.12982564066704,3.0169754960982904,0.6303578271127945,B,559.6912909531966,Correct,sub_016_day_24_data.csv,1,600,,Button-Switch at home,,,,,,,,,,,,,d
16,24,1072,B,42.111411850069054,29.529004590824904,2.1055705925034527,0.4638405194517739,B,1078.1806249869987,Correct,sub_016_day_24_data.csv,1,600,,Button-Switch at home,,,,,,,,,,,,,d
16,24,1073,B,77.13021874915214,49.38065995439148,3.856510937457607,0.7756695927106599,A,549.3154579889961,Incorrect,sub_016_day_24_data.csv,0,600,,Button-Switch at home,,,,,,,,,,,,,k
16,24,1074,B,83.07363442527028,52.72377249294318,4.1536817212635135,0.8281830816668496,B,461.7755000363104,Correct,sub_016_day_24_data.csv,1,600,,Button-Switch at home,,,,,,,,,,,,,d
16,24,1075,B,50.121911808595286,34.998885129311155,2.5060955904297644,0.5497612020303849,B,581.4930420019664,Correct,sub_016_day_24_data.csv,1,600,,Button-Switch at home,,,,,,,,,,,,,d
16,24,1076,A,39.12013022440641,69.98006323767159,1.9560065112203204,1.099244262826091,B,572.2695420263335,Incorrect,sub_016_day_24_data.csv,0,600,,Button-Switch at home,,,,,,,,,,,,,d
16,24,1077,A,54.07190330953084,70.81496831152892,2.703595165476542,1.112358921058466,B,1354.8770840279758,Incorrect,sub_016_day_24_data.csv,0,600,,Button-Switch at home,,,,,,,,,,,,,d
16,24,1078,A,35.323137478006316,50.896345856014904,1.7661568739003155,0.7994779311791087,A,1707.4518330045976,Correct,sub_016_day_24_data.csv,1,600,,Button-Switch at home,,,,,,,,,,,,,k
16,24,1079,A,33.65038465156738,50.50609792849483,1.6825192325783689,0.7933479310682301,A,1051.501499954611,Correct,sub_016_day_24_data.csv,1,600,,Button-Switch at home,,,,,,,,,,,,,k
16,24,1080,B,81.54825642744153,50.531729051179745,4.077412821372076,0.7937505438018811,A,356.9860000279732,Incorrect,sub_016_day_24_data.csv,0,600,,Button-Switch at home,,,,,,,,,,,,,k
16,24,1081,A,67.20365189568054,84.44227130159292,3.360182594784027,1.3264160958676028,A,756.831125007011,Correct,sub_016_day_24_data.csv,1,600,,Button-Switch at home,,,,,,,,,,,,,k
16,24,1082,A,12.584234415617845,40.49628897254583,0.6292117207808922,0.6361142196689965,B,620.5254579544999,Incorrect,sub_016_day_24_data.csv,0,600,,Button-Switch at home,,,,,,,,,,,,,d
16,24,1083,B,80.86942961940149,66.2293585060674,4.043471480970075,1.04032833067313,B,791.0774999763817,Correct,sub_016_day_24_data.csv,1,600,,Button-Switch at home,,,,,,,,,,,,,d
16,24,1084,B,70.45057273496958,59.695740740597635,3.522528636748479,0.9376985028063122,B,457.50225003575906,Correct,sub_016_day_24_data.csv,1,600,,Button-Switch at home,,,,,,,,,,,,,d
16,24,1085,A,29.56630083720792,51.0319751900658,1.478315041860396,0.8016083917764365,B,429.4463749974966,Incorrect,sub_016_day_24_data.csv,0,600,,Button-Switch at home,,,,,,,,,,,,,d
16,24,1086,B,74.45641764461601,54.84775830892076,3.7228208822308,0.8615465728458699,B,556.0942500014789,Correct,sub_016_day_24_data.csv,1,600,,Button-Switch at home,,,,,,,,,,,,,d
16,24,1087,B,67.94417247561069,50.16772771913536,3.3972086237805343,0.7880328242486433,B,1060.4244170244783,Correct,sub_016_day_24_data.csv,1,600,,Button-Switch at home,,,,,,,,,,,,,d
16,24,1088,B,58.27577588032621,46.91012805085338,2.9137887940163103,0.7368625683175873,B,520.3341660089791,Correct,sub_016_day_24_data.csv,1,600,,Button-Switch at home,,,,,,,,,,,,,d
16,24,1089,B,57.45934134237986,46.43995753022486,2.8729670671189926,0.7294771470498821,B,2384.5362500287592,Correct,sub_016_day_24_data.csv,1,600,,Button-Switch at home,,,,,,,,,,,,,d
16,24,1090,B,48.49845912106068,30.24289380699472,2.4249229560530337,0.4750542650367543,B,625.4525830154307,Correct,sub_016_day_24_data.csv,1,600,,Button-Switch at home,,,,,,,,,,,,,d
16,24,1091,B,58.74479057102278,29.58766059494005,2.9372395285511392,0.4647618858098594,B,647.2471250453964,Correct,sub_016_day_24_data.csv,1,600,,Button-Switch at home,,,,,,,,,,,,,d
16,24,1092,A,51.93739579385344,64.61721760877263,2.596869789692672,1.0150048806756655,A,1380.588957981672,Correct,sub_016_day_24_data.csv,1,600,,Button-Switch at home,,,,,,,,,,,,,k
16,24,1093,B,52.13635672653521,25.450154818474843,2.6068178363267607,0.3997700970522171,A,2159.8987079923972,Incorrect,sub_016_day_24_data.csv,0,600,,Button-Switch at home,,,,,,,,,,,,,k
16,24,1094,A,22.75606085645362,43.27681614044089,1.1378030428226809,0.6797906382878265,B,583.2184579921886,Incorrect,sub_016_day_24_data.csv,0,600,,Button-Switch at home,,,,,,,,,,,,,d
16,24,1095,B,66.28719785887338,40.52975630165679,3.314359892943669,0.636639923245348,A,738.9552080421709,Incorrect,sub_016_day_24_data.csv,0,600,,Button-Switch at home,,,,,,,,,,,,,k
16,24,1096,B,56.50220652725825,38.422780526166726,2.8251103263629123,0.6035436251574917,B,415.46524997102097,Correct,sub_016_day_24_data.csv,1,600,,Button-Switch at home,,,,,,,,,,,,,d
16,24,1097,B,48.78049963992267,38.04816792885371,2.439024981996133,0.5976592242391879,B,850.5029170191847,Correct,sub_016_day_24_data.csv,1,600,,Button-Switch at home,,,,,,,,,,,,,d
16,24,1098,B,35.156062369866724,12.96218523327668,1.7578031184933365,0.2036095295166606,A,352.18624997651204,Incorrect,sub_016_day_24_data.csv,0,600,,Button-Switch at home,,,,,,,,,,,,,k
16,24,1099,A,45.72871215305271,70.66304208563052,2.2864356076526353,1.109972469482616,A,683.1569999922067,Correct,sub_016_day_24_data.csv,1,600,,Button-Switch at home,,,,,,,,,,,,,k
16,24,1100,A,26.232903355636157,55.16400824479889,1.311645167781808,0.8665142152221348,B,1485.8888339949772,Incorrect,sub_016_day_24_data.csv,0,600,,Button-Switch at home,,,,,,,,,,,,,d
16,24,1101,B,56.99838170109925,46.150750405347026,2.849919085054962,0.7249342921554719,B,395.32829099334776,Correct,sub_016_day_24_data.csv,1,600,,Button-Switch at home,,,,,,,,,,,,,d
16,24,1102,B,35.45834071477894,18.299439604829026,1.7729170357389472,0.2874469251367048,B,653.5896669956855,Correct,sub_016_day_24_data.csv,1,600,,Button-Switch at home,,,,,,,,,,,,,d
16,24,1103,B,67.48410513129873,45.68802026256059,3.3742052565649368,0.7176657440696098,B,284.00270896963775,Correct,sub_016_day_24_data.csv,1,600,,Button-Switch at home,,,,,,,,,,,,,d
16,24,1104,A,14.851967168873411,36.71273037666724,0.7425983584436706,0.5766822202228032,B,774.0459580090828,Incorrect,sub_016_day_24_data.csv,0,600,,Button-Switch at home,,,,,,,,,,,,,d
16,24,1105,A,38.5762908686526,67.700885942502,1.9288145434326296,1.063443029592424,A,731.8919160170481,Correct,sub_016_day_24_data.csv,1,600,,Button-Switch at home,,,,,,,,,,,,,k
16,24,1106,B,75.97948208955752,52.101371192219105,3.798974104477876,0.8184064248971521,B,369.256415986456,Correct,sub_016_day_24_data.csv,1,600,,Button-Switch at home,,,,,,,,,,,,,d
16,24,1107,A,63.27939251854405,84.57942460544513,3.1639696259272023,1.3285704949265909,B,338.65654200781137,Incorrect,sub_016_day_24_data.csv,0,600,,Button-Switch at home,,,,,,,,,,,,,d
16,24,1108,A,42.060800738256226,72.30406214930059,2.1030400369128115,1.135749552364713,A,1029.2282089940272,Correct,sub_016_day_24_data.csv,1,600,,Button-Switch at home,,,,,,,,,,,,,k
16,24,1109,A,20.205826014763428,40.691557618478086,1.0102913007381715,0.6391814923866826,B,338.66254199529067,Incorrect,sub_016_day_24_data.csv,0,600,,Button-Switch at home,,,,,,,,,,,,,d
16,24,1110,B,70.90671948874402,51.73128436310203,3.5453359744372004,0.8125931145794294,B,252.15275003574789,Correct,sub_016_day_24_data.csv,1,600,,Button-Switch at home,,,,,,,,,,,,,d
16,24,1111,B,59.8955962160993,30.00616516473731,2.994779810804965,0.4713357402197035,B,391.62412501173094,Correct,sub_016_day_24_data.csv,1,600,,Button-Switch at home,,,,,,,,,,,,,d
16,24,1112,B,52.12443290086316,36.505877884327354,2.606221645043158,0.5734329888712446,B,321.50799996452406,Correct,sub_016_day_24_data.csv,1,600,,Button-Switch at home,,,,,,,,,,,,,d
16,24,1113,B,66.13172663848428,35.980746300039414,3.306586331924214,0.5651842412344098,B,280.25512502063066,Correct,sub_016_day_24_data.csv,1,600,,Button-Switch at home,,,,,,,,,,,,,d
16,24,1114,B,67.28909501246274,46.03070386874529,3.364454750623137,0.7230486055680874,A,51.614167052321136,Incorrect,sub_016_day_24_data.csv,0,600,,Button-Switch at home,,,,,,,,,,,,,k
16,24,1115,B,35.58362582064599,13.799390466146672,1.7791812910322995,0.216760318562317,A,696.8220000271685,Incorrect,sub_016_day_24_data.csv,0,600,,Button-Switch at home,,,,,,,,,,,,,k
16,24,1116,B,50.46377380018728,24.295658939338708,2.523188690009364,0.3816353181897484,B,570.1455409871414,Correct,sub_016_day_24_data.csv,1,600,,Button-Switch at home,,,,,,,,,,,,,d
16,24,1117,A,20.694252649259944,38.79769703515461,1.0347126324629972,0.6094327999092212,B,1047.4122079904191,Incorrect,sub_016_day_24_data.csv,0,600,,Button-Switch at home,,,,,,,,,,,,,d
16,24,1118,B,45.91835698167148,26.19443434714156,2.295917849083574,0.4114612125496004,B,670.7961670472287,Correct,sub_016_day_24_data.csv,1,600,,Button-Switch at home,,,,,,,,,,,,,d
16,24,1119,A,18.478006628760824,35.56337823967718,0.9239003314380412,0.5586282390730247,A,3504.8740840284154,Correct,sub_016_day_24_data.csv,1,600,,Button-Switch at home,,,,,,,,,,,,,k
16,24,1120,B,59.46795802159161,29.249988603427273,2.973397901079581,0.4594577465705615,B,628.810667025391,Correct,sub_016_day_24_data.csv,1,600,,Button-Switch at home,,,,,,,,,,,,,d
16,24,1121,B,87.27971983076768,64.02811170038157,4.363985991538384,1.0057512267057271,A,721.6141250100918,Incorrect,sub_016_day_24_data.csv,0,600,,Button-Switch at home,,,,,,,,,,,,,k
16,24,1122,B,53.00203875471006,37.96460900834636,2.650101937735503,0.5963466837851489,A,497.3285829764791,Incorrect,sub_016_day_24_data.csv,0,600,,Button-Switch at home,,,,,,,,,,,,,k
16,24,1123,B,88.58172586662198,65.15042091982136,4.429086293331099,1.0233804186999678,B,1340.3151669772342,Correct,sub_016_day_24_data.csv,1,600,,Button-Switch at home,,,,,,,,,,,,,d
16,24,1124,B,56.79725224131935,29.27023739964697,2.8398626120659674,0.4597758139178006,B,718.8709580223076,Correct,sub_016_day_24_data.csv,1,600,,Button-Switch at home,,,,,,,,,,,,,d
16,24,1125,A,56.611541920620354,74.7824241145547,2.8305770960310177,1.1746795710796063,B,730.4994590231217,Incorrect,sub_016_day_24_data.csv,0,600,,Button-Switch at home,,,,,,,,,,,,,d
16,24,1126,A,57.241799287305376,82.45626548004527,2.862089964365269,1.2952199893727996,A,682.7530419686809,Correct,sub_016_day_24_data.csv,1,600,,Button-Switch at home,,,,,,,,,,,,,k
16,24,1127,B,83.00455957709676,56.456797887951126,4.150227978854838,0.886821307449955,B,786.7066249600612,Correct,sub_016_day_24_data.csv,1,600,,Button-Switch at home,,,,,,,,,,,,,d
16,24,1128,B,52.92925956757991,26.40741764948239,2.6464629783789957,0.4148067464394566,B,843.9706659992225,Correct,sub_016_day_24_data.csv,1,600,,Button-Switch at home,,,,,,,,,,,,,d
16,24,1129,B,41.76604145232534,19.38317112465812,2.088302072616267,0.3044701400424987,B,2292.4127499572933,Correct,sub_016_day_24_data.csv,1,600,,Button-Switch at home,,,,,,,,,,,,,d
16,24,1130,B,47.829641153350735,38.24440835050236,2.391482057667537,0.6007417615741318,B,2204.7197080100887,Correct,sub_016_day_24_data.csv,1,600,,Button-Switch at home,,,,,,,,,,,,,d
16,24,1131,B,57.17527286131124,48.927212949516715,2.858763643065562,0.7685468638141256,B,2319.756207987666,Correct,sub_016_day_24_data.csv,1,600,,Button-Switch at home,,,,,,,,,,,,,d
16,24,1132,A,62.03825938542892,85.8142035228926,3.101912969271446,1.3479663568058935,A,654.5612500049174,Correct,sub_016_day_24_data.csv,1,600,,Button-Switch at home,,,,,,,,,,,,,k
16,24,1133,B,37.8740245944136,26.188204961691017,1.8937012297206797,0.4113633615917612,B,731.0049579828046,Correct,sub_016_day_24_data.csv,1,600,,Button-Switch at home,,,,,,,,,,,,,d
16,24,1134,B,85.57520699594882,60.042053296597814,4.278760349797441,0.9431383677151928,B,807.6271250029095,Correct,sub_016_day_24_data.csv,1,600,,Button-Switch at home,,,,,,,,,,,,,d
16,24,1135,A,41.32874524022402,73.8344651720987,2.066437262011201,1.1597890668319837,B,713.8058329583146,Incorrect,sub_016_day_24_data.csv,0,600,,Button-Switch at home,,,,,,,,,,,,,d
16,24,1136,B,52.18507908628275,27.02858376272385,2.6092539543141373,0.4245640009295481,B,617.9558750009164,Correct,sub_016_day_24_data.csv,1,600,,Button-Switch at home,,,,,,,,,,,,,d
16,24,1137,A,68.01576437072657,83.58683021626217,3.4007882185363285,1.312978858721333,A,585.3354170103557,Correct,sub_016_day_24_data.csv,1,600,,Button-Switch at home,,,,,,,,,,,,,k
16,24,1138,B,64.01239051270501,49.1195996549332,3.2006195256352505,0.7715688671160492,B,554.0185410063714,Correct,sub_016_day_24_data.csv,1,600,,Button-Switch at home,,,,,,,,,,,,,d
16,24,1139,B,42.444537261829026,29.593146100810824,2.122226863091451,0.4648480519345835,B,442.0012909686193,Correct,sub_016_day_24_data.csv,1,600,,Button-Switch at home,,,,,,,,,,,,,d
16,24,1140,B,88.68316506573146,63.836968930391194,4.434158253286573,1.0027487630957843,B,504.9421660369262,Correct,sub_016_day_24_data.csv,1,600,,Button-Switch at home,,,,,,,,,,,,,d
16,24,1141,B,45.56297395228512,34.491499575925936,2.278148697614256,0.541791208395122,A,728.4905830165371,Incorrect,sub_016_day_24_data.csv,0,600,,Button-Switch at home,,,,,,,,,,,,,k
16,24,1142,A,12.240639843945209,36.84144302861792,0.6120319921972603,0.5787040338317649,B,685.164958005771,Incorrect,sub_016_day_24_data.csv,0,600,,Button-Switch at home,,,,,,,,,,,,,d
16,24,1143,B,87.84683094096704,62.85016062630805,4.392341547048352,0.9872480145027392,A,424.7680830303579,Incorrect,sub_016_day_24_data.csv,0,600,,Button-Switch at home,,,,,,,,,,,,,k
16,24,1144,A,48.98003277139673,68.4716799414533,2.4490016385698365,1.0755506334151064,B,722.4237499758601,Incorrect,sub_016_day_24_data.csv,0,600,,Button-Switch at home,,,,,,,,,,,,,d
16,24,1145,B,67.16533046750932,45.47350021667705,3.358266523375466,0.7142960710686325,B,543.5688750003465,Correct,sub_016_day_24_data.csv,1,600,,Button-Switch at home,,,,,,,,,,,,,d
16,24,1146,A,29.48410760163259,45.62199061775702,1.4742053800816295,0.7166285528344397,B,722.5327499909326,Incorrect,sub_016_day_24_data.csv,0,600,,Button-Switch at home,,,,,,,,,,,,,d
16,24,1147,B,49.12998481241956,37.114484908212305,2.456499240620978,0.5829929656470451,A,217.57920796517283,Incorrect,sub_016_day_24_data.csv,0,600,,Button-Switch at home,,,,,,,,,,,,,k
