subject,day,trial,cat,x,y,xt,yt,resp,rt,fb,f_name,acc,n_trials,block,session_type,ns_left_digit,ns_right_digit,ns_left_size,ns_right_size,ns_congruent,ns_cue,ns_correct_side,ns_resp,ns_rt,ns_fb,acc_stroop,acc_stroop_mean,resp_key
16,17,3600,A,44.82169677580797,75.8552389587981,2.2410848387903983,1.1915313072462916,A,1937.0413740107324,Correct,sub_016_day_14_data.csv,1,300,144.0,Training at home,,,,,,,,,,,,,
16,17,3601,A,13.045808710760705,39.65537636342,0.6522904355380351,0.622905195293293,A,739.0173739986494,Correct,sub_016_day_14_data.csv,1,300,144.0,Training at home,,,,,,,,,,,,,
16,17,3602,A,33.876203362673216,62.485454294247305,1.6938101681336608,0.9815192208351406,A,700.7507079979405,Correct,sub_016_day_14_data.csv,1,300,144.0,Training at home,,,,,,,,,,,,,
16,17,3603,B,55.953170071027245,35.030999374667786,2.797658503551362,0.5502656514168248,B,880.7902499975171,Correct,sub_016_day_14_data.csv,1,300,144.0,Training at home,,,,,,,,,,,,,
16,17,3604,B,60.688174939346865,48.54733781448946,3.0344087469673435,0.7625797991467104,A,1363.4332499932498,Incorrect,sub_016_day_14_data.csv,0,300,144.0,Training at home,,,,,,,,,,,,,
16,17,3605,B,77.4154267794479,58.58682982564167,3.870771338972395,0.9202797708867564,B,583.9992499968503,Correct,sub_016_day_14_data.csv,1,300,144.0,Training at home,,,,,,,,,,,,,
16,17,3606,A,30.57386812596964,63.249562490616455,1.5286934062984818,0.993521804316446,A,562.1328749984968,Correct,sub_016_day_14_data.csv,1,300,144.0,Training at home,,,,,,,,,,,,,
16,17,3607,A,23.06157905156364,36.13084182626724,1.153078952578182,0.56754193624708,A,513.9702500018757,Correct,sub_016_day_14_data.csv,1,300,144.0,Training at home,,,,,,,,,,,,,
16,17,3608,A,32.575114679301585,63.61245555895221,1.6287557339650791,0.9992221153040576,A,723.7184569821693,Correct,sub_016_day_14_data.csv,1,300,144.0,Training at home,,,,,,,,,,,,,
16,17,3609,B,76.02887221259827,48.75691239859,3.8014436106299136,0.7658717890156571,B,614.8451659828424,Correct,sub_016_day_14_data.csv,1,300,144.0,Training at home,,,,,,,,,,,,,
16,17,3610,A,66.46449163484715,88.65337160351996,3.3232245817423576,1.3925639047279212,A,757.2704580088612,Correct,sub_016_day_14_data.csv,1,300,144.0,Training at home,,,,,,,,,,,,,
16,17,3611,B,69.97628931440843,38.2041979315172,3.498814465720421,0.600110137789724,B,1177.4475409765728,Correct,sub_016_day_14_data.csv,1,300,144.0,Training at home,,,,,,,,,,,,,
16,17,3612,B,42.88616841036097,24.074174021048165,2.1443084205180485,0.3781562412288358,B,1362.9773319989908,Correct,sub_016_day_14_data.csv,1,300,144.0,Training at home,,,,,,,,,,,,,
16,17,3613,A,40.83692134853821,73.81100072500423,2.0418460674269108,1.1594204881589212,A,565.1529580063652,Correct,sub_016_day_14_data.csv,1,300,144.0,Training at home,,,,,,,,,,,,,
16,17,3614,A,35.38490790792391,43.41248375912977,1.7692453953961955,0.6819217002588415,B,758.9144160156138,Incorrect,sub_016_day_14_data.csv,0,300,144.0,Training at home,,,,,,,,,,,,,
16,17,3615,B,50.906836807283,31.989012761415104,2.5453418403641503,0.5024822374342591,B,680.8995820174459,Correct,sub_016_day_14_data.csv,1,300,144.0,Training at home,,,,,,,,,,,,,
16,17,3616,A,60.81277967286499,77.76205890328778,3.0406389836432495,1.2214835648929283,A,538.5746659885626,Correct,sub_016_day_14_data.csv,1,300,144.0,Training at home,,,,,,,,,,,,,
16,17,3617,A,32.661952004266126,52.2855092278797,1.6330976002133064,0.821298858397541,A,973.4024580102414,Correct,sub_016_day_14_data.csv,1,300,144.0,Training at home,,,,,,,,,,,,,
16,17,3618,B,66.56016060744935,49.95987322554776,3.3280080303724673,0.7847678534982913,B,2825.103957002284,Correct,sub_016_day_14_data.csv,1,300,144.0,Training at home,,,,,,,,,,,,,
16,17,3619,A,61.89711562404297,74.05416432669158,3.094855781202148,1.163240093082328,A,833.5761240159627,Correct,sub_016_day_14_data.csv,1,300,144.0,Training at home,,,,,,,,,,,,,
16,17,3620,B,39.24718240908278,22.44811379083109,1.962359120454139,0.3526141468611133,B,1079.2455000046175,Correct,sub_016_day_14_data.csv,1,300,144.0,Training at home,,,,,,,,,,,,,
16,17,3621,A,18.45604294493522,38.247364232719406,0.922802147246761,0.6007881924634216,A,719.85512500396,Correct,sub_016_day_14_data.csv,1,300,144.0,Training at home,,,,,,,,,,,,,
16,17,3622,B,41.43275592655522,30.543442942767346,2.071637796327761,0.4797752798216844,A,531.907583004795,Incorrect,sub_016_day_14_data.csv,0,300,144.0,Training at home,,,,,,,,,,,,,
16,17,3623,B,39.922624426495986,26.79256455626956,1.9961312213247993,0.4208566199040336,B,1100.7928750186693,Correct,sub_016_day_14_data.csv,1,300,144.0,Training at home,,,,,,,,,,,,,
16,17,3624,B,75.2619944773031,50.05460698119816,3.7630997238651553,0.7862559278522825,B,1230.3834990016185,Correct,sub_016_day_14_data.csv,1,300,144.0,Training at home,,,,,,,,,,,,,
16,17,3625,B,50.943781858029986,31.234564485551296,2.5471890929014993,0.490631391629423,B,984.6355410118122,Correct,sub_016_day_14_data.csv,1,300,145.0,Training at home,,,,,,,,,,,,,
16,17,3626,A,21.904123471634907,33.89397488347602,1.095206173581745,0.5324053124744261,A,6142.740250012139,Correct,sub_016_day_14_data.csv,1,300,145.0,Training at home,,,,,,,,,,,,,
16,17,3627,B,49.803642836262334,20.85479043397827,2.4901821418131167,0.3275862820977041,B,2673.6942080024164,Correct,sub_016_day_14_data.csv,1,300,145.0,Training at home,,,,,,,,,,,,,
16,17,3628,A,25.84534712539491,50.67531308562674,1.2922673562697455,0.7960059565408383,A,1107.3814159899484,Correct,sub_016_day_14_data.csv,1,300,145.0,Training at home,,,,,,,,,,,,,
16,17,3629,A,17.045023719874138,38.41801591880176,0.8522511859937069,0.6034687828800166,A,957.0282489876264,Correct,sub_016_day_14_data.csv,1,300,145.0,Training at home,,,,,,,,,,,,,
16,17,3630,B,80.26296583248393,61.76462263683555,4.013148291624196,0.9701964236381418,B,3673.2723749883007,Correct,sub_016_day_14_data.csv,1,300,145.0,Training at home,,,,,,,,,,,,,
16,17,3631,B,66.12443864395615,37.446165529879345,3.306221932197808,0.5882029926688814,B,1215.655581996543,Correct,sub_016_day_14_data.csv,1,300,145.0,Training at home,,,,,,,,,,,,,
16,17,3632,A,53.37326774667496,81.68395087613041,2.6686633873337477,1.2830884999432042,A,610.3556659945752,Correct,sub_016_day_14_data.csv,1,300,145.0,Training at home,,,,,,,,,,,,,
16,17,3633,A,56.141248519760126,64.37161760541836,2.807062425988006,1.0111470048443687,A,1325.8051659795456,Correct,sub_016_day_14_data.csv,1,300,145.0,Training at home,,,,,,,,,,,,,
16,17,3634,B,85.5971080270811,64.83132128166946,4.279855401354055,1.018368013305062,B,580.0860819872469,Correct,sub_016_day_14_data.csv,1,300,145.0,Training at home,,,,,,,,,,,,,
16,17,3635,A,23.80487463261609,54.201148788423666,1.1902437316308043,0.8513896542491955,A,1131.0562079888768,Correct,sub_016_day_14_data.csv,1,300,145.0,Training at home,,,,,,,,,,,,,
16,17,3636,A,58.50105937588229,85.37454341257808,2.9250529687941142,1.3410601919426903,A,1462.9809580219444,Correct,sub_016_day_14_data.csv,1,300,145.0,Training at home,,,,,,,,,,,,,
16,17,3637,A,15.59797408900533,41.426967938066205,0.7798987044502665,0.6507332906736435,A,552.2808329842519,Correct,sub_016_day_14_data.csv,1,300,145.0,Training at home,,,,,,,,,,,,,
16,17,3638,A,20.93772704633187,34.74347214140882,1.0468863523165934,0.5457491841982579,A,499.11554099526256,Correct,sub_016_day_14_data.csv,1,300,145.0,Training at home,,,,,,,,,,,,,
16,17,3639,A,43.405700310734154,72.32733257948443,2.1702850155367077,1.13611508342727,A,459.3089999980293,Correct,sub_016_day_14_data.csv,1,300,145.0,Training at home,,,,,,,,,,,,,
16,17,3640,A,21.528338251557013,43.697452357241616,1.0764169125778509,0.6863979765305013,A,584.8031240166165,Correct,sub_016_day_14_data.csv,1,300,145.0,Training at home,,,,,,,,,,,,,
16,17,3641,A,24.640686547860657,42.776114043298946,1.2320343273930328,0.6719256281377357,A,584.1498330119066,Correct,sub_016_day_14_data.csv,1,300,145.0,Training at home,,,,,,,,,,,,,
16,17,3642,B,69.00689842541772,40.502524275740555,3.4503449212708857,0.6362121635825441,B,583.2544580043759,Correct,sub_016_day_14_data.csv,1,300,145.0,Training at home,,,,,,,,,,,,,
16,17,3643,B,41.56688359876689,21.570341186037844,2.0783441799383446,0.3388261270274091,B,1306.4354159869254,Correct,sub_016_day_14_data.csv,1,300,145.0,Training at home,,,,,,,,,,,,,
16,17,3644,A,58.01256280427933,82.36727516239381,2.9006281402139664,1.293822132731927,A,581.7858329974115,Correct,sub_016_day_14_data.csv,1,300,145.0,Training at home,,,,,,,,,,,,,
16,17,3645,B,36.57629262806245,25.73081431266927,1.8288146314031224,0.4041786860778245,B,658.5302909952588,Correct,sub_016_day_14_data.csv,1,300,145.0,Training at home,,,,,,,,,,,,,
16,17,3646,A,22.84360643474077,52.6817563864994,1.1421803217370383,0.8275230942101685,A,508.04087400319986,Correct,sub_016_day_14_data.csv,1,300,145.0,Training at home,,,,,,,,,,,,,
16,17,3647,A,22.15010835824045,50.20343624595572,1.1075054179120225,0.7885937324762902,A,628.6906659952365,Correct,sub_016_day_14_data.csv,1,300,145.0,Training at home,,,,,,,,,,,,,
16,17,3648,A,29.937276203506933,49.651108019850085,1.4968638101753466,0.7799177809887715,A,559.9448320281226,Correct,sub_016_day_14_data.csv,1,300,145.0,Training at home,,,,,,,,,,,,,
16,17,3649,B,40.42373631844478,25.681916053469138,2.0211868159222393,0.4034105940184421,B,1620.074915990699,Correct,sub_016_day_14_data.csv,1,300,145.0,Training at home,,,,,,,,,,,,,
16,17,3650,A,27.156947065203468,50.805381731818585,1.3578473532601734,0.7980490700575318,A,1158.356250001816,Correct,sub_016_day_14_data.csv,1,300,146.0,Training at home,,,,,,,,,,,,,
16,17,3651,B,30.9141684184773,12.70745568393927,1.545708420923865,0.1996082471124073,B,1143.9930829801597,Correct,sub_016_day_14_data.csv,1,300,146.0,Training at home,,,,,,,,,,,,,
16,17,3652,A,27.73942742101267,57.25321776882132,1.3869713710506335,0.8993314416845285,A,742.4029569956474,Correct,sub_016_day_14_data.csv,1,300,146.0,Training at home,,,,,,,,,,,,,
16,17,3653,A,63.20793461114657,77.44490268698804,3.160396730557329,1.2165016866970906,A,612.182707991451,Correct,sub_016_day_14_data.csv,1,300,146.0,Training at home,,,,,,,,,,,,,
16,17,3654,B,68.36461652443029,58.59927273199604,3.418230826221514,0.9204752236027172,B,703.2485819945578,Correct,sub_016_day_14_data.csv,1,300,146.0,Training at home,,,,,,,,,,,,,
16,17,3655,B,60.678337945864975,42.2792000495906,3.0339168972932486,0.6641201213772352,B,614.2387489962857,Correct,sub_016_day_14_data.csv,1,300,146.0,Training at home,,,,,,,,,,,,,
16,17,3656,B,53.00272806864579,22.364439970742783,2.650136403432289,0.3512998015686773,B,652.3892910045106,Correct,sub_016_day_14_data.csv,1,300,146.0,Training at home,,,,,,,,,,,,,
16,17,3657,B,54.90225366486999,28.50276202117376,2.7451126832434993,0.4477203388636883,B,554.5962910109665,Correct,sub_016_day_14_data.csv,1,300,146.0,Training at home,,,,,,,,,,,,,
16,17,3658,A,42.864110702979055,71.55572313205535,2.1432055351489527,1.1239946705698514,A,566.8851660157088,Correct,sub_016_day_14_data.csv,1,300,146.0,Training at home,,,,,,,,,,,,,
16,17,3659,A,47.23747236218091,58.28977034225614,2.3618736181090454,0.9156135714333404,A,3391.732624004362,Correct,sub_016_day_14_data.csv,1,300,146.0,Training at home,,,,,,,,,,,,,
16,17,3660,A,24.830062971437577,53.74560542908478,1.2415031485718786,0.8442339958937423,A,766.2706240080297,Correct,sub_016_day_14_data.csv,1,300,146.0,Training at home,,,,,,,,,,,,,
16,17,3661,A,28.772946041783747,52.66614522042601,1.4386473020891872,0.8272778745869177,A,502.53287400119007,Correct,sub_016_day_14_data.csv,1,300,146.0,Training at home,,,,,,,,,,,,,
16,17,3662,B,54.47788633425533,40.15032309993214,2.7238943167127667,0.6306798004500168,B,789.930416009156,Correct,sub_016_day_14_data.csv,1,300,146.0,Training at home,,,,,,,,,,,,,
16,17,3663,B,63.58805721110894,37.08064143109997,3.179402860555447,0.5824613535517049,B,688.2194569916464,Correct,sub_016_day_14_data.csv,1,300,146.0,Training at home,,,,,,,,,,,,,
16,17,3664,A,29.99058772163105,56.651469369340745,1.4995293860815524,0.8898791999289403,A,388.4862490231171,Correct,sub_016_day_14_data.csv,1,300,146.0,Training at home,,,,,,,,,,,,,
16,17,3665,B,55.69183091743293,29.21618778033439,2.784591545871647,0.4589268044829921,B,587.7709159976803,Correct,sub_016_day_14_data.csv,1,300,146.0,Training at home,,,,,,,,,,,,,
16,17,3666,A,36.357998160984046,48.88518258324133,1.8178999080492024,0.7678866523645334,A,445.8567910187412,Correct,sub_016_day_14_data.csv,1,300,146.0,Training at home,,,,,,,,,,,,,
16,17,3667,B,47.27630352246162,25.15948972170409,2.363815176123081,0.3952043403888674,B,824.8196660133544,Correct,sub_016_day_14_data.csv,1,300,146.0,Training at home,,,,,,,,,,,,,
16,17,3668,A,32.69903966939737,54.57595933322352,1.6349519834698685,0.8572771645193515,A,570.9443330124486,Correct,sub_016_day_14_data.csv,1,300,146.0,Training at home,,,,,,,,,,,,,
16,17,3669,A,35.84322931957122,50.87665732210333,1.792161465978561,0.7991686644116258,A,606.411582994042,Correct,sub_016_day_14_data.csv,1,300,146.0,Training at home,,,,,,,,,,,,,
16,17,3670,B,79.29525395538683,57.835283142057015,3.9647626977693418,0.9084745031868596,B,540.6178330013063,Correct,sub_016_day_14_data.csv,1,300,146.0,Training at home,,,,,,,,,,,,,
16,17,3671,A,39.855754221435426,70.58476258853285,1.992787711071771,1.1087428580175724,A,557.4616240046453,Correct,sub_016_day_14_data.csv,1,300,146.0,Training at home,,,,,,,,,,,,,
16,17,3672,A,57.68816146730813,70.13805510762454,2.8844080733654063,1.1017259933159465,A,1099.3590830184985,Correct,sub_016_day_14_data.csv,1,300,146.0,Training at home,,,,,,,,,,,,,
16,17,3673,A,56.769953566568965,69.382430251597,2.838497678328448,1.0898566658331168,A,1099.7895829787012,Correct,sub_016_day_14_data.csv,1,300,146.0,Training at home,,,,,,,,,,,,,
16,17,3674,A,59.37512644462861,85.52110667653224,2.9687563222314304,1.3433624023093134,A,681.8247079791036,Correct,sub_016_day_14_data.csv,1,300,146.0,Training at home,,,,,,,,,,,,,
16,17,3675,B,79.83761139692632,52.65709626729483,3.991880569846316,0.8271357339635199,B,614.4152499909978,Correct,sub_016_day_14_data.csv,1,300,147.0,Training at home,,,,,,,,,,,,,
16,17,3676,B,44.75680979902671,31.567394122221646,2.237840489951336,0.4958594673367257,B,2233.2107489928603,Correct,sub_016_day_14_data.csv,1,300,147.0,Training at home,,,,,,,,,,,,,
16,17,3677,A,41.774383404092475,61.105769568487574,2.088719170204624,0.9598471838415564,A,502.96391602023505,Correct,sub_016_day_14_data.csv,1,300,147.0,Training at home,,,,,,,,,,,,,
16,17,3678,A,27.684467147870844,60.65768056541661,1.3842233573935423,0.952808618240546,A,551.1201660265215,Correct,sub_016_day_14_data.csv,1,300,147.0,Training at home,,,,,,,,,,,,,
16,17,3679,B,74.72768736308174,50.68013117514802,3.736384368154087,0.7960816389140604,B,2888.1584990012925,Correct,sub_016_day_14_data.csv,1,300,147.0,Training at home,,,,,,,,,,,,,
16,17,3680,A,43.21011959848201,71.59279458515684,2.1605059799241007,1.1245769875934593,A,1710.355332994368,Correct,sub_016_day_14_data.csv,1,300,147.0,Training at home,,,,,,,,,,,,,
16,17,3681,A,42.64547078836847,59.732737455153874,2.1322735394184233,0.9382796458395964,A,781.7148320027627,Correct,sub_016_day_14_data.csv,1,300,147.0,Training at home,,,,,,,,,,,,,
16,17,3682,A,23.80494007899277,40.9760072475744,1.190247003949639,0.6436496167121093,A,1060.548291017767,Correct,sub_016_day_14_data.csv,1,300,147.0,Training at home,,,,,,,,,,,,,
16,17,3683,B,50.09799584994866,34.252144346607025,2.504899792497433,0.538031425244989,A,1726.1893740214873,Incorrect,sub_016_day_14_data.csv,0,300,147.0,Training at home,,,,,,,,,,,,,
16,17,3684,A,48.711550190948216,56.274139809703584,2.435577509547411,0.8839521210662484,A,672.6282069867011,Correct,sub_016_day_14_data.csv,1,300,147.0,Training at home,,,,,,,,,,,,,
16,17,3685,A,38.45056781494326,59.75847766111901,1.9225283907471633,0.9386839720494063,A,4777.379915991332,Correct,sub_016_day_14_data.csv,1,300,147.0,Training at home,,,,,,,,,,,,,
16,17,3686,B,71.65470836295596,56.99437882144995,3.5827354181477977,0.8952656090069043,B,4712.199041008716,Correct,sub_016_day_14_data.csv,1,300,147.0,Training at home,,,,,,,,,,,,,
16,17,3687,B,46.03312132282652,15.862817461221276,2.3016560661413257,0.2491725540070432,B,690.9781240101438,Correct,sub_016_day_14_data.csv,1,300,147.0,Training at home,,,,,,,,,,,,,
16,17,3688,A,47.910539977895205,56.06780296994453,2.3955269988947605,0.8807109895664884,A,564.847623987589,Correct,sub_016_day_14_data.csv,1,300,147.0,Training at home,,,,,,,,,,,,,
16,17,3689,B,87.30289673896343,64.61003546204034,4.365144836948172,1.01489206377861,B,680.1844989822712,Correct,sub_016_day_14_data.csv,1,300,147.0,Training at home,,,,,,,,,,,,,
16,17,3690,A,59.94996015706684,81.96596888699074,2.9974980078533418,1.2875184284986982,A,604.7972489905078,Correct,sub_016_day_14_data.csv,1,300,147.0,Training at home,,,,,,,,,,,,,
16,17,3691,A,17.860249877120008,39.48246372437618,0.8930124938560005,0.6201890899106286,A,580.1424999954179,Correct,sub_016_day_14_data.csv,1,300,147.0,Training at home,,,,,,,,,,,,,
16,17,3692,B,48.75936401790156,21.82988235129717,2.437968200895078,0.3429029901178233,B,667.1692070085555,Correct,sub_016_day_14_data.csv,1,300,147.0,Training at home,,,,,,,,,,,,,
16,17,3693,A,34.84697370166911,48.68521049612666,1.7423486850834553,0.764745498165521,A,582.4570819968358,Correct,sub_016_day_14_data.csv,1,300,147.0,Training at home,,,,,,,,,,,,,
16,17,3694,B,73.02803372587442,52.036171737269186,3.6514016862937217,0.8173822742537086,B,1736.9962490047328,Correct,sub_016_day_14_data.csv,1,300,147.0,Training at home,,,,,,,,,,,,,
16,17,3695,B,82.463568167339,54.14973286736025,4.12317840836695,0.8505820148497436,B,766.221083002165,Correct,sub_016_day_14_data.csv,1,300,147.0,Training at home,,,,,,,,,,,,,
16,17,3696,A,50.626221380935405,81.36463080017148,2.5313110690467706,1.2780726319193227,A,670.7975820172578,Correct,sub_016_day_14_data.csv,1,300,147.0,Training at home,,,,,,,,,,,,,
16,17,3697,B,39.67236453479255,16.127142783271758,1.9836182267396276,0.253324566456601,B,3921.893999009626,Correct,sub_016_day_14_data.csv,1,300,147.0,Training at home,,,,,,,,,,,,,
16,17,3698,A,50.56269593367792,69.52217946751955,2.5281347966838963,1.092051841383553,A,1294.3813750171105,Correct,sub_016_day_14_data.csv,1,300,147.0,Training at home,,,,,,,,,,,,,
16,17,3699,B,53.47452511356191,36.34016450378058,2.673726255678096,0.5708299691766082,B,1815.1487490104048,Correct,sub_016_day_14_data.csv,1,300,147.0,Training at home,,,,,,,,,,,,,
16,17,3700,A,59.83023788724402,70.88685282755014,2.9915118943622008,1.1134880803956622,A,646.5867910010274,Correct,sub_016_day_14_data.csv,1,300,148.0,Training at home,,,,,,,,,,,,,
16,17,3701,B,65.89574637781882,57.53908948557459,3.294787318890941,0.9038219041106345,B,808.2775830116589,Correct,sub_016_day_14_data.csv,1,300,148.0,Training at home,,,,,,,,,,,,,
16,17,3702,B,68.68183515330415,53.88934345630319,3.434091757665208,0.8464918275454965,B,514.0827910217922,Correct,sub_016_day_14_data.csv,1,300,148.0,Training at home,,,,,,,,,,,,,
16,17,3703,B,57.50501847738242,27.373434854572658,2.875250923869121,0.4299809092132211,B,688.1928330112714,Correct,sub_016_day_14_data.csv,1,300,148.0,Training at home,,,,,,,,,,,,,
16,17,3704,B,66.03192880629436,37.23582574837819,3.3015964403147176,0.584898983107273,B,622.5374159985222,Correct,sub_016_day_14_data.csv,1,300,148.0,Training at home,,,,,,,,,,,,,
16,17,3705,B,72.01254099273025,48.38596030707296,3.6006270496365125,0.7600448871879387,A,951.04795799125,Incorrect,sub_016_day_14_data.csv,0,300,148.0,Training at home,,,,,,,,,,,,,
16,17,3706,B,51.697086547060664,29.010192170293312,2.5848543273530336,0.455691033007108,B,1293.1998330168426,Correct,sub_016_day_14_data.csv,1,300,148.0,Training at home,,,,,,,,,,,,,
16,17,3707,B,40.10322901113491,23.344210296126462,2.0051614505567454,0.3666899978508306,A,1008.8750830036588,Incorrect,sub_016_day_14_data.csv,0,300,148.0,Training at home,,,,,,,,,,,,,
16,17,3708,B,87.87009668156199,66.16490997250115,4.3935048340781,1.0393159754751982,B,1366.2477080069948,Correct,sub_016_day_14_data.csv,1,300,148.0,Training at home,,,,,,,,,,,,,
16,17,3709,B,63.511105909789315,47.889160773550195,3.175555295489466,0.752241178363829,B,920.3815409855451,Correct,sub_016_day_14_data.csv,1,300,148.0,Training at home,,,,,,,,,,,,,
16,17,3710,A,14.983033298427962,35.44393016650744,0.7491516649213981,0.5567519531272471,A,592.4539160041604,Correct,sub_016_day_14_data.csv,1,300,148.0,Training at home,,,,,,,,,,,,,
16,17,3711,B,58.26153502544142,30.749409200734167,2.9130767512720706,0.4830105902362642,B,687.3837489983998,Correct,sub_016_day_14_data.csv,1,300,148.0,Training at home,,,,,,,,,,,,,
16,17,3712,B,47.73945078093183,27.893575808632164,2.3869725390465915,0.4381512642137439,A,668.5255410266109,Incorrect,sub_016_day_14_data.csv,0,300,148.0,Training at home,,,,,,,,,,,,,
16,17,3713,A,11.16286247480256,36.26246749650228,0.558143123740128,0.5696095074402512,A,557.0932910195552,Correct,sub_016_day_14_data.csv,1,300,148.0,Training at home,,,,,,,,,,,,,
16,17,3714,A,50.33378568546279,58.20106668467342,2.5166892842731396,0.9142202176382984,A,671.1339579778723,Correct,sub_016_day_14_data.csv,1,300,148.0,Training at home,,,,,,,,,,,,,
16,17,3715,A,19.03900010589808,36.70425575932296,0.951950005294904,0.5765491012448493,A,605.2929580037016,Correct,sub_016_day_14_data.csv,1,300,148.0,Training at home,,,,,,,,,,,,,
16,17,3716,A,45.45157641662352,65.36603750722112,2.272578820831177,1.026767316134804,A,506.36483301059343,Correct,sub_016_day_14_data.csv,1,300,148.0,Training at home,,,,,,,,,,,,,
16,17,3717,A,32.6569335540431,45.83309642550891,1.6328466777021549,0.7199445951082569,A,700.734748999821,Correct,sub_016_day_14_data.csv,1,300,148.0,Training at home,,,,,,,,,,,,,
16,17,3718,A,34.48585756224027,61.5435476635772,1.7242928781120133,0.966723786078737,A,517.8576660109684,Correct,sub_016_day_14_data.csv,1,300,148.0,Training at home,,,,,,,,,,,,,
16,17,3719,B,53.63211838517499,36.687658414637305,2.68160591925875,0.5762883907641816,B,874.7804570011795,Correct,sub_016_day_14_data.csv,1,300,148.0,Training at home,,,,,,,,,,,,,
16,17,3720,B,65.83665822869808,39.06015502245343,3.291832911434904,0.6135554803330907,A,771.9326239894144,Incorrect,sub_016_day_14_data.csv,0,300,148.0,Training at home,,,,,,,,,,,,,
16,17,3721,A,49.87320575251006,79.94235123012943,2.4936602876255027,1.255731516676348,A,1113.0229579866864,Correct,sub_016_day_14_data.csv,1,300,148.0,Training at home,,,,,,,,,,,,,
16,17,3722,B,50.94671067637051,38.607877892671496,2.5473355338185253,0.6064511277915428,A,980.2992079930846,Incorrect,sub_016_day_14_data.csv,0,300,148.0,Training at home,,,,,,,,,,,,,
16,17,3723,A,47.23765178568019,54.630365576720635,2.3618825892840096,0.8581317757937513,B,1992.3515819828024,Incorrect,sub_016_day_14_data.csv,0,300,148.0,Training at home,,,,,,,,,,,,,
16,17,3724,A,64.35695372795459,84.29300908124756,3.2178476863977297,1.3240714903931252,A,723.5448329884093,Correct,sub_016_day_14_data.csv,1,300,148.0,Training at home,,,,,,,,,,,,,
16,17,3725,B,73.97941426881141,49.35834079987394,3.6989707134405703,0.7753190042513266,B,527.2684579831548,Correct,sub_016_day_14_data.csv,1,300,149.0,Training at home,,,,,,,,,,,,,
16,17,3726,A,43.37660580017675,69.49909678523922,2.168830290008837,1.0916892594581675,A,549.7090830176603,Correct,sub_016_day_14_data.csv,1,300,149.0,Training at home,,,,,,,,,,,,,
16,17,3727,A,23.671514178147028,48.537050572027965,1.1835757089073513,0.7624182075199967,A,785.2759990200866,Correct,sub_016_day_14_data.csv,1,300,149.0,Training at home,,,,,,,,,,,,,
16,17,3728,A,29.04652746418764,46.61422994240209,1.452326373209382,0.7322146116989788,A,497.6455829746555,Correct,sub_016_day_14_data.csv,1,300,149.0,Training at home,,,,,,,,,,,,,
16,17,3729,A,39.79061044058847,50.33928786743138,1.9895305220294237,0.7907276847563212,A,522.7394579851534,Correct,sub_016_day_14_data.csv,1,300,149.0,Training at home,,,,,,,,,,,,,
16,17,3730,B,77.52727126445893,60.2691058588171,3.8763635632229465,0.9467049010224268,B,706.6161239927169,Correct,sub_016_day_14_data.csv,1,300,149.0,Training at home,,,,,,,,,,,,,
16,17,3731,A,35.008853668304326,59.00531381622724,1.7504426834152162,0.9268533020390992,A,1108.1996249849908,Correct,sub_016_day_14_data.csv,1,300,149.0,Training at home,,,,,,,,,,,,,
16,17,3732,A,16.81292368587435,38.895363477650825,0.8406461842937175,0.6109669408004629,A,682.8782910015434,Correct,sub_016_day_14_data.csv,1,300,149.0,Training at home,,,,,,,,,,,,,
16,17,3733,A,32.91689800704995,61.46165693281476,1.6458449003524975,0.9654374494879352,A,461.19533298769966,Correct,sub_016_day_14_data.csv,1,300,149.0,Training at home,,,,,,,,,,,,,
16,17,3734,B,41.314011474779704,27.428838893409317,2.0657005737389853,0.4308511938201635,B,2641.971375007415,Correct,sub_016_day_14_data.csv,1,300,149.0,Training at home,,,,,,,,,,,,,
16,17,3735,A,25.643862385994417,47.642628184818705,1.282193119299721,0.7483686535156824,A,477.326541004004,Correct,sub_016_day_14_data.csv,1,300,149.0,Training at home,,,,,,,,,,,,,
16,17,3736,A,36.94305672768969,60.35292420567289,1.847152836384484,0.9480215165360178,A,693.7739989953116,Correct,sub_016_day_14_data.csv,1,300,149.0,Training at home,,,,,,,,,,,,,
16,17,3737,B,66.67499356378235,37.51049808452158,3.3337496781891174,0.589213526074135,B,667.6660829980392,Correct,sub_016_day_14_data.csv,1,300,149.0,Training at home,,,,,,,,,,,,,
16,17,3738,B,34.81938586753115,15.961833919937623,1.7409692933765577,0.250727900903482,B,936.283540999284,Correct,sub_016_day_14_data.csv,1,300,149.0,Training at home,,,,,,,,,,,,,
16,17,3739,A,15.576291694015126,38.89056822514699,0.7788145847007563,0.6108916171502722,A,474.01179099688306,Correct,sub_016_day_14_data.csv,1,300,149.0,Training at home,,,,,,,,,,,,,
16,17,3740,A,15.95940597344595,39.130739027121166,0.7979702986722975,0.6146642112857164,A,470.4362910124473,Correct,sub_016_day_14_data.csv,1,300,149.0,Training at home,,,,,,,,,,,,,
16,17,3741,A,67.72744649484676,81.89642301733022,3.3863723247423376,1.286426004532633,A,383.0648330040276,Correct,sub_016_day_14_data.csv,1,300,149.0,Training at home,,,,,,,,,,,,,
16,17,3742,B,69.06430691497454,40.639954181249394,3.4532153457487267,0.6383709074901944,B,722.2560409863945,Correct,sub_016_day_14_data.csv,1,300,149.0,Training at home,,,,,,,,,,,,,
16,17,3743,B,61.8471591730998,53.80441444508958,3.09235795865499,0.8451577657569698,A,582.5847910018638,Incorrect,sub_016_day_14_data.csv,0,300,149.0,Training at home,,,,,,,,,,,,,
16,17,3744,A,38.85061389713574,68.50530045430706,1.9425306948567869,1.076078743196063,A,566.7107079934794,Correct,sub_016_day_14_data.csv,1,300,149.0,Training at home,,,,,,,,,,,,,
16,17,3745,A,58.93778493129624,76.1415347922673,2.946889246564812,1.1960284316821927,A,775.8088739938103,Correct,sub_016_day_14_data.csv,1,300,149.0,Training at home,,,,,,,,,,,,,
16,17,3746,A,25.10897832710335,37.60330498954572,1.2554489163551676,0.5906713335292663,A,778.8992490095552,Correct,sub_016_day_14_data.csv,1,300,149.0,Training at home,,,,,,,,,,,,,
16,17,3747,B,75.01308450188968,45.71541583280229,3.750654225094484,0.7180960726806709,B,1116.216957976576,Correct,sub_016_day_14_data.csv,1,300,149.0,Training at home,,,,,,,,,,,,,
16,17,3748,B,31.384567590526412,13.537270200301124,1.5692283795263204,0.2126429430546301,B,723.3622069761623,Correct,sub_016_day_14_data.csv,1,300,149.0,Training at home,,,,,,,,,,,,,
16,17,3749,A,48.57056044367915,69.83829203692804,2.428528022183958,1.0970173260123584,A,1071.0048330074642,Correct,sub_016_day_14_data.csv,1,300,149.0,Training at home,,,,,,,,,,,,,
16,17,3750,B,76.14209569925674,48.628391908027645,3.807104784962837,0.763852993870725,B,831.9195410003886,Correct,sub_016_day_14_data.csv,1,300,150.0,Training at home,,,,,,,,,,,,,
16,17,3751,B,48.22464386452699,19.60657017830654,2.4112321932263496,0.3079792841713027,B,852.634458016837,Correct,sub_016_day_14_data.csv,1,300,150.0,Training at home,,,,,,,,,,,,,
16,17,3752,B,80.45206129599524,56.74721504572972,4.022603064799762,0.8913831694967234,B,625.8247079967987,Correct,sub_016_day_14_data.csv,1,300,150.0,Training at home,,,,,,,,,,,,,
16,17,3753,B,58.33948732333545,34.3669645197367,2.916974366166772,0.5398350163069294,A,972.939706989564,Incorrect,sub_016_day_14_data.csv,0,300,150.0,Training at home,,,,,,,,,,,,,
16,17,3754,A,23.342472328778207,52.84943764789264,1.1671236164389105,0.8301570253048567,A,741.3067079905886,Correct,sub_016_day_14_data.csv,1,300,150.0,Training at home,,,,,,,,,,,,,
16,17,3755,B,56.52865106622476,42.87259546550102,2.8264325533112378,0.6734411547737255,B,1039.6444579819215,Correct,sub_016_day_14_data.csv,1,300,150.0,Training at home,,,,,,,,,,,,,
16,17,3756,B,53.03874394664906,36.849052957165405,2.651937197332453,0.5788235703098604,B,2753.7501660117414,Correct,sub_016_day_14_data.csv,1,300,150.0,Training at home,,,,,,,,,,,,,
16,17,3757,A,61.84451917215414,75.87174559444942,3.092225958607707,1.1917905928727806,A,668.3439570188057,Correct,sub_016_day_14_data.csv,1,300,150.0,Training at home,,,,,,,,,,,,,
16,17,3758,B,53.394599593201136,42.82596800084447,2.6697299796600564,0.6727087322716226,A,955.7059159851632,Incorrect,sub_016_day_14_data.csv,0,300,150.0,Training at home,,,,,,,,,,,,,
16,17,3759,A,39.22686917002317,46.61777912655588,1.9613434585011589,0.7322703621532979,A,578.2651659974363,Correct,sub_016_day_14_data.csv,1,300,150.0,Training at home,,,,,,,,,,,,,
16,17,3760,A,21.49503779941656,47.82474010135418,1.074751889970828,0.7512292608112775,A,1100.2181239891795,Correct,sub_016_day_14_data.csv,1,300,150.0,Training at home,,,,,,,,,,,,,
16,17,3761,A,28.190499530554575,44.26195957048933,1.409524976527729,0.6952652351006885,A,862.3749160033185,Correct,sub_016_day_14_data.csv,1,300,150.0,Training at home,,,,,,,,,,,,,
16,17,3762,A,52.42198767296783,70.60055582841221,2.6210993836483913,1.108990937649479,B,3505.557083000894,Incorrect,sub_016_day_14_data.csv,0,300,150.0,Training at home,,,,,,,,,,,,,
16,17,3763,B,64.85565282425135,51.76901737281155,3.2427826412125675,0.8131858233099355,B,832.2864159999881,Correct,sub_016_day_14_data.csv,1,300,150.0,Training at home,,,,,,,,,,,,,
16,17,3764,B,35.66752244237094,13.170492741970191,1.783376122118547,0.2068816162116562,B,647.9769579891581,Correct,sub_016_day_14_data.csv,1,300,150.0,Training at home,,,,,,,,,,,,,
16,17,3765,A,16.15549896352032,31.097086907581044,0.8077749481760159,0.4884718988844997,A,617.1303319861181,Correct,sub_016_day_14_data.csv,1,300,150.0,Training at home,,,,,,,,,,,,,
16,17,3766,A,52.7849119245635,63.15708675656017,2.639245596228175,0.9920691988827132,B,832.7162910136394,Incorrect,sub_016_day_14_data.csv,0,300,150.0,Training at home,,,,,,,,,,,,,
16,17,3767,A,36.74513319797953,58.70988711128292,1.8372566598989764,0.9222127502094624,A,561.6108330141287,Correct,sub_016_day_14_data.csv,1,300,150.0,Training at home,,,,,,,,,,,,,
16,17,3768,A,36.17034087421086,62.219458930422256,1.808517043710543,0.977340975430732,A,479.84133299905807,Correct,sub_016_day_14_data.csv,1,300,150.0,Training at home,,,,,,,,,,,,,
16,17,3769,A,32.268921881896176,63.17326789372247,1.6134460940948088,0.9923233715908922,A,465.5496240011416,Correct,sub_016_day_14_data.csv,1,300,150.0,Training at home,,,,,,,,,,,,,
16,17,3770,A,36.55083091871167,59.09963549259811,1.8275415459355833,0.928334903466904,A,486.626416008221,Correct,sub_016_day_14_data.csv,1,300,150.0,Training at home,,,,,,,,,,,,,
16,17,3771,A,31.685399585761843,43.981122526341224,1.584269979288092,0.6908538571269308,A,503.26674900134094,Correct,sub_016_day_14_data.csv,1,300,150.0,Training at home,,,,,,,,,,,,,
16,17,3772,B,66.3398905487421,50.32089606174736,3.3169945274371053,0.7904387869482054,B,589.4478739937767,Correct,sub_016_day_14_data.csv,1,300,150.0,Training at home,,,,,,,,,,,,,
16,17,3773,A,59.60753167915145,73.73052367694267,2.9803765839575727,1.158156357644057,A,875.187874014955,Correct,sub_016_day_14_data.csv,1,300,150.0,Training at home,,,,,,,,,,,,,
16,17,3774,B,44.86825179193426,26.511263612237784,2.243412589596713,0.4164379550079431,B,702.0074989995919,Correct,sub_016_day_14_data.csv,1,300,150.0,Training at home,,,,,,,,,,,,,
16,17,3775,A,52.643965342699566,61.6829743207476,2.632198267134978,0.9689138948881428,A,1314.6004989976063,Correct,sub_016_day_14_data.csv,1,300,151.0,Training at home,,,,,,,,,,,,,
16,17,3776,A,31.777497953371004,52.32450616108079,1.5888748976685505,0.8219114207918263,A,576.5209579840302,Correct,sub_016_day_14_data.csv,1,300,151.0,Training at home,,,,,,,,,,,,,
16,17,3777,A,58.412618647226296,78.80998962713049,2.9206309323613144,1.2379444222104048,A,1033.9651250105817,Correct,sub_016_day_14_data.csv,1,300,151.0,Training at home,,,,,,,,,,,,,
16,17,3778,A,40.994888810791,68.44784233532894,2.0497444405395497,1.0751761931737094,A,1180.195291002747,Correct,sub_016_day_14_data.csv,1,300,151.0,Training at home,,,,,,,,,,,,,
16,17,3779,B,83.89535411826924,55.84578165847343,4.194767705913462,0.8772234869611986,B,579.4532909931149,Correct,sub_016_day_14_data.csv,1,300,151.0,Training at home,,,,,,,,,,,,,
16,17,3780,B,55.3378577638068,44.431716240357545,2.76689288819034,0.6979317666354677,B,604.8877069843002,Correct,sub_016_day_14_data.csv,1,300,151.0,Training at home,,,,,,,,,,,,,
16,17,3781,A,15.769303909437902,42.418227590264394,0.788465195471895,0.6663039608793724,A,603.3266239974182,Correct,sub_016_day_14_data.csv,1,300,151.0,Training at home,,,,,,,,,,,,,
16,17,3782,B,39.36881120587139,28.749317062916784,1.9684405602935695,0.4515932164029153,B,1550.0108750129584,Correct,sub_016_day_14_data.csv,1,300,151.0,Training at home,,,,,,,,,,,,,
16,17,3783,B,87.15039425905763,66.38671174846324,4.3575197129528815,1.0428000296247768,B,788.2522080035415,Correct,sub_016_day_14_data.csv,1,300,151.0,Training at home,,,,,,,,,,,,,
16,17,3784,B,35.7177758991499,12.765245626668468,1.7858887949574949,0.2005160094100544,B,1071.4706250000745,Correct,sub_016_day_14_data.csv,1,300,151.0,Training at home,,,,,,,,,,,,,
16,17,3785,A,37.071853104575325,66.51281672289186,1.8535926552287665,1.044780881931007,A,810.2197500120383,Correct,sub_016_day_14_data.csv,1,300,151.0,Training at home,,,,,,,,,,,,,
16,17,3786,A,32.62898345680814,59.120372312670085,1.6314491728404072,0.9286606366748889,A,797.6885829993989,Correct,sub_016_day_14_data.csv,1,300,151.0,Training at home,,,,,,,,,,,,,
16,17,3787,B,60.60635520300784,49.163921362828496,3.030317760150392,0.7722650708756416,B,656.2565820058808,Correct,sub_016_day_14_data.csv,1,300,151.0,Training at home,,,,,,,,,,,,,
16,17,3788,A,51.94855357330237,71.90418293989067,2.5974276786651185,1.1294682644316854,A,817.6846239948645,Correct,sub_016_day_14_data.csv,1,300,151.0,Training at home,,,,,,,,,,,,,
16,17,3789,B,67.01044258791909,55.64595680932751,3.3505221293959546,0.874084645570791,A,631.2288329936564,Incorrect,sub_016_day_14_data.csv,0,300,151.0,Training at home,,,,,,,,,,,,,
16,17,3790,B,84.70985853758779,58.23748975212599,4.23549292687939,0.9147923498439492,B,516.7562490096316,Correct,sub_016_day_14_data.csv,1,300,151.0,Training at home,,,,,,,,,,,,,
16,17,3791,B,36.50536457897299,18.413881256795698,1.8252682289486497,0.2892445704021207,B,656.6510829725303,Correct,sub_016_day_14_data.csv,1,300,151.0,Training at home,,,,,,,,,,,,,
16,17,3792,A,54.57082079878332,70.24561331781688,2.728541039939166,1.103415513730814,A,768.0016660015099,Correct,sub_016_day_14_data.csv,1,300,151.0,Training at home,,,,,,,,,,,,,
16,17,3793,B,62.78508689984915,31.136621067964796,3.1392543449924575,0.4890929000236369,B,605.8337500144262,Correct,sub_016_day_14_data.csv,1,300,151.0,Training at home,,,,,,,,,,,,,
16,17,3794,B,48.28397038770778,24.37267578319368,2.4141985193853888,0.3828450959440355,B,546.6032909753267,Correct,sub_016_day_14_data.csv,1,300,151.0,Training at home,,,,,,,,,,,,,
16,17,3795,A,50.649471773414774,78.80951777953332,2.532473588670739,1.2379370104456804,A,596.1836659989785,Correct,sub_016_day_14_data.csv,1,300,151.0,Training at home,,,,,,,,,,,,,
16,17,3796,B,84.23158092179598,64.34857765397533,4.211579046089799,1.010785094133406,B,625.9507069771644,Correct,sub_016_day_14_data.csv,1,300,151.0,Training at home,,,,,,,,,,,,,
16,17,3797,A,28.838368193096528,56.62965407245888,1.4419184096548263,0.8895365260468407,B,689.2178319976665,Incorrect,sub_016_day_14_data.csv,0,300,151.0,Training at home,,,,,,,,,,,,,
16,17,3798,A,51.01318073481889,80.95422656412794,2.5506590367409445,1.2716260172545402,A,464.2810829973314,Correct,sub_016_day_14_data.csv,1,300,151.0,Training at home,,,,,,,,,,,,,
16,17,3799,A,47.03060517255468,70.33179087770806,2.3515302586277342,1.1047691876761063,A,917.4387499806472,Correct,sub_016_day_14_data.csv,1,300,151.0,Training at home,,,,,,,,,,,,,
16,17,3800,A,12.512823790056586,36.85532876488513,0.6256411895028293,0.5789221504669985,A,633.160666009644,Correct,sub_016_day_14_data.csv,1,300,152.0,Training at home,,,,,,,,,,,,,
16,17,3801,A,31.164569348336812,48.30710846285828,1.5582284674168403,0.7588062853154044,A,523.8889990141615,Correct,sub_016_day_14_data.csv,1,300,152.0,Training at home,,,,,,,,,,,,,
16,17,3802,B,53.6173771283859,26.636932961499703,2.680868856419295,0.4184119645300563,B,733.3112079941202,Correct,sub_016_day_14_data.csv,1,300,152.0,Training at home,,,,,,,,,,,,,
16,17,3803,B,79.00211318426747,56.346009832144034,3.950105659213374,0.8850810527388098,B,629.7405819932465,Correct,sub_016_day_14_data.csv,1,300,152.0,Training at home,,,,,,,,,,,,,
16,17,3804,B,63.2315844380212,34.505099864738604,3.16157922190106,0.5420048412322248,B,540.3727500233799,Correct,sub_016_day_14_data.csv,1,300,152.0,Training at home,,,,,,,,,,,,,
16,17,3805,B,82.66560482549181,60.219400642957616,4.133280241274591,0.9459241333174808,B,1616.7941660096403,Correct,sub_016_day_14_data.csv,1,300,152.0,Training at home,,,,,,,,,,,,,
16,17,3806,A,13.897087273489788,41.95351440283854,0.6948543636744894,0.6590042632011557,A,481.74441599985585,Correct,sub_016_day_14_data.csv,1,300,152.0,Training at home,,,,,,,,,,,,,
16,17,3807,A,54.64708700944727,72.00765716321405,2.7323543504723635,1.1310936337308284,A,705.7856240135152,Correct,sub_016_day_14_data.csv,1,300,152.0,Training at home,,,,,,,,,,,,,
16,17,3808,A,57.3298391546405,79.29537205551836,2.866491957732025,1.245568791566429,A,569.7263740003109,Correct,sub_016_day_14_data.csv,1,300,152.0,Training at home,,,,,,,,,,,,,
16,17,3809,A,12.833393331028518,39.343039922470766,0.6416696665514259,0.6179990259516204,A,512.9178330244031,Correct,sub_016_day_14_data.csv,1,300,152.0,Training at home,,,,,,,,,,,,,
16,17,3810,A,27.160239925265763,60.07674711936956,1.3580119962632882,0.943683337008916,A,553.854790981859,Correct,sub_016_day_14_data.csv,1,300,152.0,Training at home,,,,,,,,,,,,,
16,17,3811,B,62.61561945274845,45.15984086414948,3.1307809726374223,0.7093691214804807,B,610.3425829787739,Correct,sub_016_day_14_data.csv,1,300,152.0,Training at home,,,,,,,,,,,,,
16,17,3812,B,85.51987505372901,56.47972696839197,4.275993752686451,0.8871814766032877,B,625.6559159955941,Correct,sub_016_day_14_data.csv,1,300,152.0,Training at home,,,,,,,,,,,,,
16,17,3813,B,59.35299693004728,48.65462465113531,2.9676498465023644,0.7642650568358776,B,654.0775410248898,Correct,sub_016_day_14_data.csv,1,300,152.0,Training at home,,,,,,,,,,,,,
16,17,3814,B,36.08251375403201,19.39849732931412,1.8041256877016003,0.3047108835022723,B,2428.027125017252,Correct,sub_016_day_14_data.csv,1,300,152.0,Training at home,,,,,,,,,,,,,
16,17,3815,B,37.58094123269758,26.612301753449778,1.8790470616348791,0.418025058418763,B,569.8896250105463,Correct,sub_016_day_14_data.csv,1,300,152.0,Training at home,,,,,,,,,,,,,
16,17,3816,A,28.621893770632703,58.51931471258209,1.4310946885316351,0.9192192459707847,A,696.5771660034079,Correct,sub_016_day_14_data.csv,1,300,152.0,Training at home,,,,,,,,,,,,,
16,17,3817,A,22.024562050401123,39.32040896795388,1.1012281025200563,0.6176435397493507,A,3751.718915998936,Correct,sub_016_day_14_data.csv,1,300,152.0,Training at home,,,,,,,,,,,,,
16,17,3818,A,22.4661422335339,51.041779334437976,1.123307111676695,0.8017623949161083,A,511.8575829837937,Correct,sub_016_day_14_data.csv,1,300,152.0,Training at home,,,,,,,,,,,,,
16,17,3819,A,23.524535839590943,55.62396530980664,1.1762267919795475,0.8737392039041102,A,564.4049159891438,Correct,sub_016_day_14_data.csv,1,300,152.0,Training at home,,,,,,,,,,,,,
16,17,3820,B,35.09218751962249,11.40724231383383,1.7546093759811243,0.1791845432542949,B,787.8315410052892,Correct,sub_016_day_14_data.csv,1,300,152.0,Training at home,,,,,,,,,,,,,
16,17,3821,B,47.834147371217256,38.171390637593746,2.391707368560863,0.5995948020218537,B,1952.310541004408,Correct,sub_016_day_14_data.csv,1,300,152.0,Training at home,,,,,,,,,,,,,
16,17,3822,A,47.836659538887304,63.780448286968905,2.391832976944366,1.001860938905026,B,586.102248984389,Incorrect,sub_016_day_14_data.csv,0,300,152.0,Training at home,,,,,,,,,,,,,
16,17,3823,B,65.01007416183064,40.0350014798772,3.250503708091532,0.6288683326781935,B,680.4192909912672,Correct,sub_016_day_14_data.csv,1,300,152.0,Training at home,,,,,,,,,,,,,
16,17,3824,A,44.80005521089784,53.58667862168631,2.2400027605448916,0.8417375794408346,B,2602.571583003737,Incorrect,sub_016_day_14_data.csv,0,300,152.0,Training at home,,,,,,,,,,,,,
16,17,3825,A,45.139021783595325,66.4152341981569,2.256951089179766,1.043248059216877,A,437.78912400011905,Correct,sub_016_day_14_data.csv,1,300,153.0,Training at home,,,,,,,,,,,,,
16,17,3826,A,62.2098953998015,71.95042138754023,3.1104947699900753,1.1301945762689318,A,617.6909579953644,Correct,sub_016_day_14_data.csv,1,300,153.0,Training at home,,,,,,,,,,,,,
16,17,3827,B,46.228524942844786,25.35251653615416,2.311426247142239,0.3982363984999784,B,842.3951250151731,Correct,sub_016_day_14_data.csv,1,300,153.0,Training at home,,,,,,,,,,,,,
16,17,3828,B,61.3612302755387,33.14218332793484,3.068061513776935,0.5205961983348312,B,579.8418739868794,Correct,sub_016_day_14_data.csv,1,300,153.0,Training at home,,,,,,,,,,,,,
16,17,3829,A,28.18290226188243,60.70844869094501,1.4091451130941215,0.9536060820915286,A,595.9659580257721,Correct,sub_016_day_14_data.csv,1,300,153.0,Training at home,,,,,,,,,,,,,
16,17,3830,A,46.8958535041695,74.61242722974913,2.3447926752084753,1.1720092662574144,A,608.7846239970531,Correct,sub_016_day_14_data.csv,1,300,153.0,Training at home,,,,,,,,,,,,,
16,17,3831,B,61.640350644241245,35.67486272994211,3.082017532212062,0.5603794333510522,B,609.1754990047775,Correct,sub_016_day_14_data.csv,1,300,153.0,Training at home,,,,,,,,,,,,,
16,17,3832,B,46.03789248297234,20.01492019735091,2.3018946241486167,0.3143936312709179,B,646.2364989856724,Correct,sub_016_day_14_data.csv,1,300,153.0,Training at home,,,,,,,,,,,,,
16,17,3833,B,56.18983488244136,35.955701270806735,2.809491744122068,0.5647908348351781,B,627.5542080111336,Correct,sub_016_day_14_data.csv,1,300,153.0,Training at home,,,,,,,,,,,,,
16,17,3834,A,51.435620928267646,71.80837868450257,2.571781046413382,1.127963374707136,A,755.8167490060441,Correct,sub_016_day_14_data.csv,1,300,153.0,Training at home,,,,,,,,,,,,,
16,17,3835,B,76.16559581274939,58.48356623950913,3.8082797906374695,0.9186577102688696,B,1243.9996249740943,Correct,sub_016_day_14_data.csv,1,300,153.0,Training at home,,,,,,,,,,,,,
16,17,3836,B,56.30225472781054,29.11334454592359,2.8151127363905273,0.4573113467345102,B,671.8159160227515,Correct,sub_016_day_14_data.csv,1,300,153.0,Training at home,,,,,,,,,,,,,
16,17,3837,B,43.06546291537772,35.095645752264396,2.1532731457688863,0.5512811143415183,A,912.9885820148048,Incorrect,sub_016_day_14_data.csv,0,300,153.0,Training at home,,,,,,,,,,,,,
16,17,3838,B,55.90623836149248,45.82668291086665,2.795311918074624,0.7198438518558379,B,823.7015409977175,Correct,sub_016_day_14_data.csv,1,300,153.0,Training at home,,,,,,,,,,,,,
16,17,3839,A,32.48227130069218,53.20224938958937,1.6241135650346092,0.8356989791839301,A,611.9004569773097,Correct,sub_016_day_14_data.csv,1,300,153.0,Training at home,,,,,,,,,,,,,
16,17,3840,B,61.04455224016833,45.27851082028803,3.0522276120084166,0.7112331847925142,B,1472.884333023103,Correct,sub_016_day_14_data.csv,1,300,153.0,Training at home,,,,,,,,,,,,,
16,17,3841,A,35.33697282972557,50.72856954766998,1.7668486414862783,0.7968425070903944,A,527.938000013819,Correct,sub_016_day_14_data.csv,1,300,153.0,Training at home,,,,,,,,,,,,,
16,17,3842,A,27.69148520452187,37.74533254429337,1.3845742602260935,0.5929022971422789,A,565.3042079939041,Correct,sub_016_day_14_data.csv,1,300,153.0,Training at home,,,,,,,,,,,,,
16,17,3843,B,51.75727102755677,35.279879890443475,2.5878635513778385,0.5541750574167374,B,2160.221291007474,Correct,sub_016_day_14_data.csv,1,300,153.0,Training at home,,,,,,,,,,,,,
16,17,3844,A,15.687703859915754,39.50018716961181,0.7843851929957877,0.6204674891373714,A,534.984457975952,Correct,sub_016_day_14_data.csv,1,300,153.0,Training at home,,,,,,,,,,,,,
16,17,3845,B,51.01920884230352,29.50777491031276,2.550960442115176,0.4635070444100989,B,1053.2000410021285,Correct,sub_016_day_14_data.csv,1,300,153.0,Training at home,,,,,,,,,,,,,
16,17,3846,B,63.02161971540696,35.8996959664982,3.151080985770348,0.5639111055722894,B,753.989165998064,Correct,sub_016_day_14_data.csv,1,300,153.0,Training at home,,,,,,,,,,,,,
16,17,3847,B,36.54960768837909,24.558620164639365,1.8274803844189549,0.3857659034576658,B,1816.3442499935627,Correct,sub_016_day_14_data.csv,1,300,153.0,Training at home,,,,,,,,,,,,,
16,17,3848,B,36.14726666841244,23.580834190231464,1.807363333420622,0.3704068772877508,B,1038.5729570116382,Correct,sub_016_day_14_data.csv,1,300,153.0,Training at home,,,,,,,,,,,,,
16,17,3849,A,20.095392493789017,32.858509369126764,1.0047696246894506,0.5161402582098001,A,804.8635830054991,Correct,sub_016_day_14_data.csv,1,300,153.0,Training at home,,,,,,,,,,,,,
16,17,3850,B,82.51757201572215,56.130442574627054,4.125878600786108,0.8816949301759606,B,1299.5549999759533,Correct,sub_016_day_14_data.csv,1,300,154.0,Training at home,,,,,,,,,,,,,
16,17,3851,B,34.963970117302566,15.739380501788048,1.748198505865128,0.2472336107823588,B,775.6497490045149,Correct,sub_016_day_14_data.csv,1,300,154.0,Training at home,,,,,,,,,,,,,
16,17,3852,B,33.7654896503212,18.333819752581697,1.68827448251606,0.2879869672347505,B,951.8380409863312,Correct,sub_016_day_14_data.csv,1,300,154.0,Training at home,,,,,,,,,,,,,
16,17,3853,A,48.85872038114012,74.65302034732781,2.442936019057006,1.172646901457272,A,640.269874013029,Correct,sub_016_day_14_data.csv,1,300,154.0,Training at home,,,,,,,,,,,,,
16,17,3854,A,32.95885116175965,63.50184787772705,1.6479425580879823,0.9974846939102197,A,602.1600820240565,Correct,sub_016_day_14_data.csv,1,300,154.0,Training at home,,,,,,,,,,,,,
16,17,3855,B,58.91693971942299,31.01632307026479,2.9458469859711496,0.4872032634945574,B,760.488208004972,Correct,sub_016_day_14_data.csv,1,300,154.0,Training at home,,,,,,,,,,,,,
16,17,3856,B,57.53107249374719,43.52021312013506,2.876553624687359,0.6836139091043922,B,3604.151666018879,Correct,sub_016_day_14_data.csv,1,300,154.0,Training at home,,,,,,,,,,,,,
16,17,3857,B,71.80283687725135,58.615414181839526,3.590141843862568,0.92072877290395,A,777.2814159980044,Incorrect,sub_016_day_14_data.csv,0,300,154.0,Training at home,,,,,,,,,,,,,
16,17,3858,B,50.00504820769381,39.12723003298977,2.50025241038469,0.614609092134793,B,762.4499989906326,Correct,sub_016_day_14_data.csv,1,300,154.0,Training at home,,,,,,,,,,,,,
16,17,3859,B,61.2511194554179,40.250325762664744,3.062555972770895,0.6322506386029177,B,715.4880409943871,Correct,sub_016_day_14_data.csv,1,300,154.0,Training at home,,,,,,,,,,,,,
16,17,3860,B,64.60174594035473,41.39118368239187,3.2300872970177363,0.6501711928999402,B,793.195332022151,Correct,sub_016_day_14_data.csv,1,300,154.0,Training at home,,,,,,,,,,,,,
16,17,3861,A,27.58406394192944,49.19622630362505,1.379203197096472,0.772772515699047,A,823.905374010792,Correct,sub_016_day_14_data.csv,1,300,154.0,Training at home,,,,,,,,,,,,,
16,17,3862,B,79.08553230680056,53.97834803058877,3.954276615340029,0.8478899081290537,B,637.858582980698,Correct,sub_016_day_14_data.csv,1,300,154.0,Training at home,,,,,,,,,,,,,
16,17,3863,A,66.46231552804602,88.29150060323067,3.323115776402301,1.386879648347641,A,595.8737909968477,Correct,sub_016_day_14_data.csv,1,300,154.0,Training at home,,,,,,,,,,,,,
16,17,3864,B,43.12007851897805,31.087070272091992,2.1560039259489026,0.4883145579421692,B,660.7877910137177,Correct,sub_016_day_14_data.csv,1,300,154.0,Training at home,,,,,,,,,,,,,
16,17,3865,A,37.59362157952698,69.45478232265573,1.8796810789763492,1.0909931695076671,A,638.2789159833919,Correct,sub_016_day_14_data.csv,1,300,154.0,Training at home,,,,,,,,,,,,,
16,17,3866,A,34.2262497630785,55.5604824582394,1.711312488153925,0.8727420176035474,A,2726.093583012698,Correct,sub_016_day_14_data.csv,1,300,154.0,Training at home,,,,,,,,,,,,,
16,17,3867,B,65.0538888417695,39.184112939119174,3.252694442088475,0.6155026067348478,B,931.7928740056232,Correct,sub_016_day_14_data.csv,1,300,154.0,Training at home,,,,,,,,,,,,,
16,17,3868,A,46.67195292159254,59.2289069264422,2.3335976460796273,0.9303654944013222,A,1083.7920409976505,Correct,sub_016_day_14_data.csv,1,300,154.0,Training at home,,,,,,,,,,,,,
16,17,3869,B,51.843698119554915,38.72181694832525,2.5921849059777458,0.6082408782925367,B,589.2694579961244,Correct,sub_016_day_14_data.csv,1,300,154.0,Training at home,,,,,,,,,,,,,
16,17,3870,B,58.84579912839672,44.52091931030133,2.942289956419836,0.6993329651815331,B,979.6093739860224,Correct,sub_016_day_14_data.csv,1,300,154.0,Training at home,,,,,,,,,,,,,
16,17,3871,B,40.286937445380445,17.127623055016375,2.014346872269022,0.269040073815473,B,646.3314569846261,Correct,sub_016_day_14_data.csv,1,300,154.0,Training at home,,,,,,,,,,,,,
16,17,3872,B,79.5766559214538,54.559062542932715,3.9788327960726906,0.8570117503581175,B,543.9789580123033,Correct,sub_016_day_14_data.csv,1,300,154.0,Training at home,,,,,,,,,,,,,
16,17,3873,A,11.934920883339068,37.96315869773893,0.5967460441669534,0.5963239023594005,A,1162.4292909982614,Correct,sub_016_day_14_data.csv,1,300,154.0,Training at home,,,,,,,,,,,,,
16,17,3874,B,71.9703373609583,55.91183075888436,3.598516868047915,0.8782609838043347,B,601.4272070024163,Correct,sub_016_day_14_data.csv,1,300,154.0,Training at home,,,,,,,,,,,,,
16,17,3875,B,46.158016485240786,16.38301764872714,2.307900824262039,0.2573438394443655,B,930.1045409811196,Correct,sub_016_day_14_data.csv,1,300,155.0,Training at home,,,,,,,,,,,,,
16,17,3876,B,54.91704219657354,33.257960182370624,2.745852109828677,0.522414816911587,B,569.4675830018241,Correct,sub_016_day_14_data.csv,1,300,155.0,Training at home,,,,,,,,,,,,,
16,17,3877,A,50.92312393214351,73.69406405425931,2.5461561966071757,1.1575836512301836,A,863.1224569980986,Correct,sub_016_day_14_data.csv,1,300,155.0,Training at home,,,,,,,,,,,,,
16,17,3878,B,62.758787763063765,50.860126030464585,3.137939388153188,0.7989089914897927,B,689.9321659875568,Correct,sub_016_day_14_data.csv,1,300,155.0,Training at home,,,,,,,,,,,,,
16,17,3879,B,75.58178776138206,52.822597294566435,3.779089388069103,0.82973541802071,B,612.538957997458,Correct,sub_016_day_14_data.csv,1,300,155.0,Training at home,,,,,,,,,,,,,
16,17,3880,A,53.86898405815689,82.08845423154983,2.6934492029078445,1.2894424237918944,A,1037.6844160200562,Correct,sub_016_day_14_data.csv,1,300,155.0,Training at home,,,,,,,,,,,,,
16,17,3881,B,77.32498410362577,45.74594976199009,3.866249205181288,0.7185756985187791,B,660.0402909971308,Correct,sub_016_day_14_data.csv,1,300,155.0,Training at home,,,,,,,,,,,,,
16,17,3882,B,63.06305340551609,32.03706552222131,3.153152670275804,0.5032370484359266,B,637.4997499806341,Correct,sub_016_day_14_data.csv,1,300,155.0,Training at home,,,,,,,,,,,,,
16,17,3883,B,76.57515715846924,52.764621511108366,3.8287578579234616,0.8288247365437199,B,621.9959580048453,Correct,sub_016_day_14_data.csv,1,300,155.0,Training at home,,,,,,,,,,,,,
16,17,3884,B,74.5767630521672,47.760279650455026,3.7288381526083594,0.7502167184163181,B,690.3580829966813,Correct,sub_016_day_14_data.csv,1,300,155.0,Training at home,,,,,,,,,,,,,
16,17,3885,A,33.553714762442226,41.991187219384074,1.677685738122111,0.6595960264196532,A,610.413624002831,Correct,sub_016_day_14_data.csv,1,300,155.0,Training at home,,,,,,,,,,,,,
16,17,3886,B,36.612214081843625,18.50990552209057,1.8306107040921813,0.2907529160342043,A,570.483207993675,Incorrect,sub_016_day_14_data.csv,0,300,155.0,Training at home,,,,,,,,,,,,,
16,17,3887,A,47.28587300042604,73.50453460601354,2.3642936500213017,1.154606529618944,A,678.6629990092479,Correct,sub_016_day_14_data.csv,1,300,155.0,Training at home,,,,,,,,,,,,,
16,17,3888,B,74.98403019059103,44.69724388779852,3.749201509529552,0.7021026651680956,B,616.1937909782864,Correct,sub_016_day_14_data.csv,1,300,155.0,Training at home,,,,,,,,,,,,,
16,17,3889,B,66.04921973588189,39.92474878124829,3.3024609867940944,0.6271364873379384,B,648.3982909994666,Correct,sub_016_day_14_data.csv,1,300,155.0,Training at home,,,,,,,,,,,,,
16,17,3890,B,41.68310720839695,25.96637548485301,2.0841553604198477,0.4078788723178416,B,661.8348739866633,Correct,sub_016_day_14_data.csv,1,300,155.0,Training at home,,,,,,,,,,,,,
16,17,3891,B,59.188139712397806,37.94607861269426,2.9594069856198906,0.5960556090109053,B,737.5214580097236,Correct,sub_016_day_14_data.csv,1,300,155.0,Training at home,,,,,,,,,,,,,
16,17,3892,A,39.84502205509954,70.3799428303063,1.9922511027549772,1.1055255567787996,A,1355.8207489841152,Correct,sub_016_day_14_data.csv,1,300,155.0,Training at home,,,,,,,,,,,,,
16,17,3893,A,24.25206897049244,41.86178358298809,1.2126034485246222,0.6575633588524059,A,986.8118320009672,Correct,sub_016_day_14_data.csv,1,300,155.0,Training at home,,,,,,,,,,,,,
16,17,3894,B,48.60797742690238,40.66931946858124,2.430398871345119,0.6388321763449558,B,2665.0699570018332,Correct,sub_016_day_14_data.csv,1,300,155.0,Training at home,,,,,,,,,,,,,
16,17,3895,B,35.63847494805338,20.86651271724492,1.781923747402669,0.3277704152926731,B,660.1143319858238,Correct,sub_016_day_14_data.csv,1,300,155.0,Training at home,,,,,,,,,,,,,
16,17,3896,B,46.07807226481592,23.703444498448334,2.303903613240796,0.3723328355054934,B,502.9275409760885,Correct,sub_016_day_14_data.csv,1,300,155.0,Training at home,,,,,,,,,,,,,
16,17,3897,A,59.01946292322552,74.73195089289939,2.9509731461612763,1.1738867395678296,A,582.6141239958815,Correct,sub_016_day_14_data.csv,1,300,155.0,Training at home,,,,,,,,,,,,,
16,17,3898,A,23.230170450865856,44.99128649083904,1.1615085225432928,0.7067214755758681,A,938.0704580107704,Correct,sub_016_day_14_data.csv,1,300,155.0,Training at home,,,,,,,,,,,,,
16,17,3899,B,38.285006428856406,27.93210895254047,1.9142503214428204,0.4387565414228543,B,577.8562490013428,Correct,sub_016_day_14_data.csv,1,300,155.0,Training at home,,,,,,,,,,,,,
