subject,day,trial,cat,x,y,xt,yt,resp,rt,fb,f_name,acc,n_trials,block,session_type,ns_left_digit,ns_right_digit,ns_left_size,ns_right_size,ns_congruent,ns_cue,ns_correct_side,ns_resp,ns_rt,ns_fb,acc_stroop,acc_stroop_mean,resp_key
9,23,0,A,39.64079486586953,70.23374186682958,1.9820397432934769,1.1032290374147684,A,620.7919170010427,Correct,sub_009_day_23_data.csv,1,600,,Button-Switch at home,,,,,,,,,,,,,k
9,23,1,B,57.49238813136467,47.095710612994885,2.8746194065682333,0.7397776923868778,B,371.7951660000835,Correct,sub_009_day_23_data.csv,1,600,,Button-Switch at home,,,,,,,,,,,,,d
9,23,2,B,80.36152802765835,60.300180937046385,4.018076401382917,0.9471930272098013,B,528.8392080001358,Correct,sub_009_day_23_data.csv,1,600,,Button-Switch at home,,,,,,,,,,,,,d
9,23,3,A,53.245032078237315,82.04745275560296,2.6622516039118658,1.2887983741137894,A,356.3262079987908,Correct,sub_009_day_23_data.csv,1,600,,Button-Switch at home,,,,,,,,,,,,,k
9,23,4,B,55.01636065334677,25.64275584972951,2.7508180326673384,0.4027954669765347,B,360.3359169974283,Correct,sub_009_day_23_data.csv,1,600,,Button-Switch at home,,,,,,,,,,,,,d
9,23,5,B,47.38359489141472,18.53860343402641,2.3691797445707357,0.2912037017807594,B,364.9138330001733,Correct,sub_009_day_23_data.csv,1,600,,Button-Switch at home,,,,,,,,,,,,,d
9,23,6,A,57.48024263197899,71.06006168652726,2.8740121315989495,1.116208838790158,A,381.04666599974735,Correct,sub_009_day_23_data.csv,1,600,,Button-Switch at home,,,,,,,,,,,,,k
9,23,7,B,46.999107332200495,39.81382245578736,2.349955366610025,0.6253940606921495,B,410.1445419983065,Correct,sub_009_day_23_data.csv,1,600,,Button-Switch at home,,,,,,,,,,,,,d
9,23,8,B,71.87576764492279,59.884997864752954,3.5937883822461396,0.9406713467607416,B,836.7274580014055,Correct,sub_009_day_23_data.csv,1,600,,Button-Switch at home,,,,,,,,,,,,,d
9,23,9,B,52.67476421243749,23.38720796951257,2.6337382106218747,0.3673654037249867,B,403.0310829984955,Correct,sub_009_day_23_data.csv,1,600,,Button-Switch at home,,,,,,,,,,,,,d
9,23,10,B,75.23540983758211,45.63055375971497,3.7617704918791057,0.7167630623537734,B,384.1686240011768,Correct,sub_009_day_23_data.csv,1,600,,Button-Switch at home,,,,,,,,,,,,,d
9,23,11,B,67.38330209711852,52.88473417529168,3.369165104855926,0.830711461860727,B,894.4809579988942,Correct,sub_009_day_23_data.csv,1,600,,Button-Switch at home,,,,,,,,,,,,,d
9,23,12,B,68.10320569739032,36.606101734286106,3.405160284869516,0.5750073014249691,B,392.3826239988557,Correct,sub_009_day_23_data.csv,1,600,,Button-Switch at home,,,,,,,,,,,,,d
9,23,13,A,14.5094901059725,38.815131187551536,0.725474505298625,0.6097066549346799,A,389.1321240007528,Correct,sub_009_day_23_data.csv,1,600,,Button-Switch at home,,,,,,,,,,,,,k
9,23,14,B,54.20437578957629,31.11465551008194,2.710218789478814,0.488747865847253,B,408.1220409971138,Correct,sub_009_day_23_data.csv,1,600,,Button-Switch at home,,,,,,,,,,,,,d
9,23,15,A,18.255058712247312,34.0497685102216,0.9127529356123656,0.5348525130407262,A,499.3380409978272,Correct,sub_009_day_23_data.csv,1,600,,Button-Switch at home,,,,,,,,,,,,,k
9,23,16,A,43.294431583821726,65.29855638108994,2.1647215791910863,1.0257073250842554,A,459.90491599877714,Correct,sub_009_day_23_data.csv,1,600,,Button-Switch at home,,,,,,,,,,,,,k
9,23,17,B,52.355837550524875,26.241705047015117,2.6177918775262436,0.4122037389668644,B,412.1003750005912,Correct,sub_009_day_23_data.csv,1,600,,Button-Switch at home,,,,,,,,,,,,,d
9,23,18,B,53.64325386735603,27.363730884740008,2.6821626933678018,0.4298284796115366,B,609.3897079990711,Correct,sub_009_day_23_data.csv,1,600,,Button-Switch at home,,,,,,,,,,,,,d
9,23,19,A,42.462662401011855,50.559195402324754,2.1231331200505927,0.7941819842367714,A,382.49870800063945,Correct,sub_009_day_23_data.csv,1,600,,Button-Switch at home,,,,,,,,,,,,,k
9,23,20,B,60.349160575198894,50.767975343975365,3.0174580287599446,0.7974614918913038,A,1417.3564160009846,Incorrect,sub_009_day_23_data.csv,0,600,,Button-Switch at home,,,,,,,,,,,,,k
9,23,21,A,44.77442392771398,59.12032430299919,2.238721196385699,0.9286598825407416,A,864.4114580019959,Correct,sub_009_day_23_data.csv,1,600,,Button-Switch at home,,,,,,,,,,,,,k
9,23,22,A,61.55879319756572,70.33475864871554,3.077939659878286,1.1048158053140793,A,465.60583300015423,Correct,sub_009_day_23_data.csv,1,600,,Button-Switch at home,,,,,,,,,,,,,k
9,23,23,A,62.39772729685252,81.2989822780091,3.119886364842626,1.277041427344601,A,449.0782489992853,Correct,sub_009_day_23_data.csv,1,600,,Button-Switch at home,,,,,,,,,,,,,k
9,23,24,B,40.96536454455995,25.887306943223887,2.0482682272279975,0.4066368665702811,B,423.5354160009592,Correct,sub_009_day_23_data.csv,1,600,,Button-Switch at home,,,,,,,,,,,,,d
9,23,25,A,39.16425253104983,51.90530761790919,1.9582126265524915,0.8153266654737092,A,599.8237079984392,Correct,sub_009_day_23_data.csv,1,600,,Button-Switch at home,,,,,,,,,,,,,k
9,23,26,B,48.53455240378898,23.39318490830472,2.4267276201894488,0.3674592892599886,B,351.06699999960256,Correct,sub_009_day_23_data.csv,1,600,,Button-Switch at home,,,,,,,,,,,,,d
9,23,27,B,40.80740495246273,18.0241470321401,2.0403702476231365,0.283122639516968,A,400.03216600234737,Incorrect,sub_009_day_23_data.csv,0,600,,Button-Switch at home,,,,,,,,,,,,,k
9,23,28,A,65.04964562148822,77.00122929563635,3.2524822810744114,1.2095324813627717,A,530.46041700145,Correct,sub_009_day_23_data.csv,1,600,,Button-Switch at home,,,,,,,,,,,,,k
9,23,29,B,52.24795627753505,20.597758117957557,2.6123978138767527,0.3235488279189749,B,361.0970419977093,Correct,sub_009_day_23_data.csv,1,600,,Button-Switch at home,,,,,,,,,,,,,d
9,23,30,B,50.72081773005681,31.68410439997348,2.5360408865028403,0.4976927480926436,B,335.3667500014126,Correct,sub_009_day_23_data.csv,1,600,,Button-Switch at home,,,,,,,,,,,,,d
9,23,31,A,44.35133745383075,69.34702518391104,2.2175668726915374,1.0893005243304066,A,421.4144580000721,Correct,sub_009_day_23_data.csv,1,600,,Button-Switch at home,,,,,,,,,,,,,k
9,23,32,A,31.315348631731393,51.3346566757571,1.5657674315865695,0.8063629014355638,A,403.516040998511,Correct,sub_009_day_23_data.csv,1,600,,Button-Switch at home,,,,,,,,,,,,,k
9,23,33,A,37.813727676704616,68.15079472156832,1.8906863838352308,1.070510180167925,A,368.57879200033494,Correct,sub_009_day_23_data.csv,1,600,,Button-Switch at home,,,,,,,,,,,,,k
9,23,34,B,51.08714619865599,20.058104860915165,2.5543573099327994,0.315071974379924,B,360.8207910001511,Correct,sub_009_day_23_data.csv,1,600,,Button-Switch at home,,,,,,,,,,,,,d
9,23,35,B,31.551955404434892,14.935871382331136,1.5775977702217443,0.2346121190484676,B,396.3669579970883,Correct,sub_009_day_23_data.csv,1,600,,Button-Switch at home,,,,,,,,,,,,,d
9,23,36,B,67.93932417293857,56.058605069809005,3.396966208646928,0.8805665092890174,B,472.3051240034693,Correct,sub_009_day_23_data.csv,1,600,,Button-Switch at home,,,,,,,,,,,,,d
9,23,37,A,40.078381419814654,64.99057214924038,2.0039190709907326,1.0208695200832547,A,377.26779199874727,Correct,sub_009_day_23_data.csv,1,600,,Button-Switch at home,,,,,,,,,,,,,k
9,23,38,B,53.568766866071634,39.67034542490027,2.6784383433035814,0.6231403287611809,B,427.6987499979441,Correct,sub_009_day_23_data.csv,1,600,,Button-Switch at home,,,,,,,,,,,,,d
9,23,39,A,50.89427655626285,74.17150221473862,2.5447138278131427,1.1650832323177096,A,395.04124999803025,Correct,sub_009_day_23_data.csv,1,600,,Button-Switch at home,,,,,,,,,,,,,k
9,23,40,B,34.70416166387353,20.241292093094824,1.7352080831936765,0.3179494726941593,B,389.9485829970218,Correct,sub_009_day_23_data.csv,1,600,,Button-Switch at home,,,,,,,,,,,,,d
9,23,41,B,47.69444300001387,19.911611635229733,2.3847221500006937,0.3127708641718538,B,356.28149900003336,Correct,sub_009_day_23_data.csv,1,600,,Button-Switch at home,,,,,,,,,,,,,d
9,23,42,A,32.47265987383253,45.083732533108154,1.6236329936916265,0.7081736146120987,A,938.4620830023778,Correct,sub_009_day_23_data.csv,1,600,,Button-Switch at home,,,,,,,,,,,,,k
9,23,43,B,58.19621607184979,45.21306196783088,2.9098108035924897,0.7102051166221879,B,429.17562399816234,Correct,sub_009_day_23_data.csv,1,600,,Button-Switch at home,,,,,,,,,,,,,d
9,23,44,B,45.51037361170586,31.21741660507935,2.275518680585293,0.4903620333528465,B,436.8759159988258,Correct,sub_009_day_23_data.csv,1,600,,Button-Switch at home,,,,,,,,,,,,,d
9,23,45,A,47.42604309669208,56.683419236755654,2.371302154834604,0.8903810672727096,A,516.0341660011909,Correct,sub_009_day_23_data.csv,1,600,,Button-Switch at home,,,,,,,,,,,,,k
9,23,46,B,82.97046496108266,56.33257914465868,4.148523248054133,0.8848700839931264,B,448.1532489990059,Correct,sub_009_day_23_data.csv,1,600,,Button-Switch at home,,,,,,,,,,,,,d
9,23,47,A,37.76736883258648,47.65056071947748,1.8883684416293245,0.7484932574787242,A,389.68641699830187,Correct,sub_009_day_23_data.csv,1,600,,Button-Switch at home,,,,,,,,,,,,,k
9,23,48,A,28.77834811363372,39.91558547978157,1.4389174056816862,0.626992550535086,B,381.97958299861057,Incorrect,sub_009_day_23_data.csv,0,600,,Button-Switch at home,,,,,,,,,,,,,d
9,23,49,A,13.013599199137108,30.80396533206164,0.6506799599568553,0.4838675559431976,B,394.16154100035783,Incorrect,sub_009_day_23_data.csv,0,600,,Button-Switch at home,,,,,,,,,,,,,d
9,23,50,A,50.132151379798586,68.96576551473004,2.506607568989929,1.083311711451361,A,467.80733299965505,Correct,sub_009_day_23_data.csv,1,600,,Button-Switch at home,,,,,,,,,,,,,k
9,23,51,B,69.52505220384036,52.79441407656782,3.476252610192018,0.8292927170676151,B,469.6215830008441,Correct,sub_009_day_23_data.csv,1,600,,Button-Switch at home,,,,,,,,,,,,,d
9,23,52,A,50.125442224731785,57.210910991472595,2.5062721112365893,0.8986668883799491,A,432.0727499980421,Correct,sub_009_day_23_data.csv,1,600,,Button-Switch at home,,,,,,,,,,,,,k
9,23,53,B,57.212648010345895,44.04121593320756,2.8606324005172947,0.691797802154633,B,712.3303330008639,Correct,sub_009_day_23_data.csv,1,600,,Button-Switch at home,,,,,,,,,,,,,d
9,23,54,B,70.81131698253262,55.8685488672045,3.5405658491266307,0.87758111343966,B,524.0540420018078,Correct,sub_009_day_23_data.csv,1,600,,Button-Switch at home,,,,,,,,,,,,,d
9,23,55,A,61.67055497275908,73.16985474254618,3.083527748637954,1.1493493906170766,A,605.5842079986178,Correct,sub_009_day_23_data.csv,1,600,,Button-Switch at home,,,,,,,,,,,,,k
9,23,56,A,28.24236118825582,38.828322756665074,1.412118059412791,0.6099138676177619,A,405.94833299837774,Correct,sub_009_day_23_data.csv,1,600,,Button-Switch at home,,,,,,,,,,,,,k
9,23,57,A,47.078467051391726,60.232285911179815,2.3539233525695864,0.9461265346374126,A,446.3382499998261,Correct,sub_009_day_23_data.csv,1,600,,Button-Switch at home,,,,,,,,,,,,,k
9,23,58,B,71.27636375256652,62.00202237953444,3.563818187628326,0.9739254900762766,B,437.00391599850263,Correct,sub_009_day_23_data.csv,1,600,,Button-Switch at home,,,,,,,,,,,,,d
9,23,59,B,64.15032618088861,49.67233947431388,3.2075163090444305,0.7802512838956138,B,721.8528740013426,Correct,sub_009_day_23_data.csv,1,600,,Button-Switch at home,,,,,,,,,,,,,d
9,23,60,B,32.91864421637972,14.747131593729677,1.645932210818986,0.2316474013819154,B,560.5519999990065,Correct,sub_009_day_23_data.csv,1,600,,Button-Switch at home,,,,,,,,,,,,,d
9,23,61,A,39.90710235223669,69.21135034726277,1.9953551176118345,1.0871693489799503,A,536.3710830024502,Correct,sub_009_day_23_data.csv,1,600,,Button-Switch at home,,,,,,,,,,,,,k
9,23,62,B,46.217806507519015,27.509859482213933,2.3108903253759507,0.432123862253054,B,477.33462500036694,Correct,sub_009_day_23_data.csv,1,600,,Button-Switch at home,,,,,,,,,,,,,d
9,23,63,B,40.66794036403762,15.142347727720496,2.0333970182018812,0.237855441897544,B,442.32341600218206,Correct,sub_009_day_23_data.csv,1,600,,Button-Switch at home,,,,,,,,,,,,,d
9,23,64,B,44.76363285107545,34.177148521502275,2.2381816425537724,0.5368533935789941,B,471.8734169982781,Correct,sub_009_day_23_data.csv,1,600,,Button-Switch at home,,,,,,,,,,,,,d
9,23,65,B,37.605299366224955,13.44915472085262,1.880264968311248,0.2112588283401154,B,419.2342079986702,Correct,sub_009_day_23_data.csv,1,600,,Button-Switch at home,,,,,,,,,,,,,d
9,23,66,A,36.08344978299861,57.36892029319944,1.804172489149931,0.9011488926874688,A,388.2927919985377,Correct,sub_009_day_23_data.csv,1,600,,Button-Switch at home,,,,,,,,,,,,,k
9,23,67,A,36.75139752081955,57.43315573170524,1.8375698760409775,0.9021579005960184,A,428.01174899796024,Correct,sub_009_day_23_data.csv,1,600,,Button-Switch at home,,,,,,,,,,,,,k
9,23,68,A,24.372014105050894,50.68840488485061,1.2186007052525447,0.7962116020421584,A,414.95450000002165,Correct,sub_009_day_23_data.csv,1,600,,Button-Switch at home,,,,,,,,,,,,,k
9,23,69,B,70.86128225638573,49.45774791336272,3.5430641128192866,0.7768804875385811,B,351.64612399967154,Correct,sub_009_day_23_data.csv,1,600,,Button-Switch at home,,,,,,,,,,,,,d
9,23,70,B,88.40908707847228,62.89481815723967,4.420454353923614,0.9879494933582504,B,440.6129579983826,Correct,sub_009_day_23_data.csv,1,600,,Button-Switch at home,,,,,,,,,,,,,d
9,23,71,A,19.133096543745783,42.723329558730725,0.9566548271872892,0.6710964913930206,A,338.8014580013987,Correct,sub_009_day_23_data.csv,1,600,,Button-Switch at home,,,,,,,,,,,,,k
9,23,72,A,52.811628739324206,74.2230842098968,2.64058143696621,1.1658934804029415,A,494.7252909987583,Correct,sub_009_day_23_data.csv,1,600,,Button-Switch at home,,,,,,,,,,,,,k
9,23,73,A,17.410832185419864,43.00905097243063,0.8705416092709932,0.6755845928642851,A,455.1641239995661,Correct,sub_009_day_23_data.csv,1,600,,Button-Switch at home,,,,,,,,,,,,,k
9,23,74,A,54.62848396734302,79.17952465438333,2.7314241983671512,1.243749064844713,A,498.208249999152,Correct,sub_009_day_23_data.csv,1,600,,Button-Switch at home,,,,,,,,,,,,,k
9,23,75,A,45.926157324295616,62.00143044328501,2.296307866214781,0.9739161919634136,A,427.5688740017358,Correct,sub_009_day_23_data.csv,1,600,,Button-Switch at home,,,,,,,,,,,,,k
9,23,76,B,40.97226921892357,31.049119271992023,2.0486134609461786,0.487718425026617,B,708.9928330024122,Correct,sub_009_day_23_data.csv,1,600,,Button-Switch at home,,,,,,,,,,,,,d
9,23,77,B,68.88023573345468,41.246941438201866,3.444011786672734,0.647905441026517,B,533.613832998526,Correct,sub_009_day_23_data.csv,1,600,,Button-Switch at home,,,,,,,,,,,,,d
9,23,78,A,38.31928000702808,62.99540578654929,1.915964000351404,0.989529520144656,A,376.0907490031968,Correct,sub_009_day_23_data.csv,1,600,,Button-Switch at home,,,,,,,,,,,,,k
9,23,79,B,33.14646493293742,17.43858826764658,1.657323246646871,0.2739247039530783,B,489.43995800073026,Correct,sub_009_day_23_data.csv,1,600,,Button-Switch at home,,,,,,,,,,,,,d
9,23,80,B,56.716420772210505,38.445128709834435,2.835821038610525,0.6038946696056495,B,535.295915997267,Correct,sub_009_day_23_data.csv,1,600,,Button-Switch at home,,,,,,,,,,,,,d
9,23,81,A,21.973640736859547,38.977086682130896,1.0986820368429775,0.612250645894575,A,368.3356660003483,Correct,sub_009_day_23_data.csv,1,600,,Button-Switch at home,,,,,,,,,,,,,k
9,23,82,A,18.869855981867513,43.726084274135715,0.9434927990933756,0.6868477256293648,B,427.59662499884143,Incorrect,sub_009_day_23_data.csv,0,600,,Button-Switch at home,,,,,,,,,,,,,d
9,23,83,B,72.49778113141707,48.687557206325586,3.624889056570854,0.7647823602031263,B,546.8289989985351,Correct,sub_009_day_23_data.csv,1,600,,Button-Switch at home,,,,,,,,,,,,,d
9,23,84,B,76.18253704274099,54.47669949096674,3.8091268521370494,0.8557179945631996,B,399.95395799996913,Correct,sub_009_day_23_data.csv,1,600,,Button-Switch at home,,,,,,,,,,,,,d
9,23,85,A,31.03083442689786,41.75385057999136,1.551541721344893,0.6558679512059338,A,414.93575000276905,Correct,sub_009_day_23_data.csv,1,600,,Button-Switch at home,,,,,,,,,,,,,k
9,23,86,B,64.5581058984687,43.095912186759875,3.227905294923435,0.6769490056283782,B,459.1713330009952,Correct,sub_009_day_23_data.csv,1,600,,Button-Switch at home,,,,,,,,,,,,,d
9,23,87,B,49.47372981643235,28.7382143442768,2.473686490821618,0.451418815306344,B,409.2710410004656,Correct,sub_009_day_23_data.csv,1,600,,Button-Switch at home,,,,,,,,,,,,,d
9,23,88,A,28.92010809580863,41.34194559242661,1.4460054047904316,0.6493977627913817,A,856.599582999479,Correct,sub_009_day_23_data.csv,1,600,,Button-Switch at home,,,,,,,,,,,,,k
9,23,89,A,60.56529148964499,83.11092815857782,3.02826457448225,1.3055034066800857,A,1903.9897910006405,Correct,sub_009_day_23_data.csv,1,600,,Button-Switch at home,,,,,,,,,,,,,k
9,23,90,A,51.97171500880457,63.48253125500793,2.5985857504402285,0.9971812691100866,A,1499.381165998784,Correct,sub_009_day_23_data.csv,1,600,,Button-Switch at home,,,,,,,,,,,,,k
9,23,91,B,66.86647164351123,44.885311484771755,3.343323582175562,0.7050568240732425,B,688.6825419969682,Correct,sub_009_day_23_data.csv,1,600,,Button-Switch at home,,,,,,,,,,,,,d
9,23,92,B,52.63679094006694,22.270949526375443,2.631839547003347,0.3498312571026509,B,458.78220799932024,Correct,sub_009_day_23_data.csv,1,600,,Button-Switch at home,,,,,,,,,,,,,d
9,23,93,A,36.779346524192846,49.34997559164668,1.8389673262096424,0.7751876038677641,A,354.3879989993002,Correct,sub_009_day_23_data.csv,1,600,,Button-Switch at home,,,,,,,,,,,,,k
9,23,94,B,45.03746094849984,34.26927841750559,2.251873047424992,0.5383005666012941,B,431.616000001668,Correct,sub_009_day_23_data.csv,1,600,,Button-Switch at home,,,,,,,,,,,,,d
9,23,95,A,45.75313007267293,55.928175334743784,2.287656503633646,0.8785177238015646,A,367.23091599924373,Correct,sub_009_day_23_data.csv,1,600,,Button-Switch at home,,,,,,,,,,,,,k
9,23,96,A,19.796317509224806,32.220695680627216,0.9898158754612404,0.5061215042190542,A,400.42075000019395,Correct,sub_009_day_23_data.csv,1,600,,Button-Switch at home,,,,,,,,,,,,,k
9,23,97,B,43.2798210492376,22.680732504085864,2.16399105246188,0.3562681130643569,B,465.0711659996887,Correct,sub_009_day_23_data.csv,1,600,,Button-Switch at home,,,,,,,,,,,,,d
9,23,98,B,56.22599800339407,28.508955038675506,2.811299900169703,0.4478176185551234,A,434.59674999758136,Incorrect,sub_009_day_23_data.csv,0,600,,Button-Switch at home,,,,,,,,,,,,,k
9,23,99,A,33.85004353025835,55.82748384434704,1.6925021765129171,0.8769360655690175,A,490.2773329995398,Correct,sub_009_day_23_data.csv,1,600,,Button-Switch at home,,,,,,,,,,,,,k
9,23,100,B,39.52771470388993,30.48070326013096,1.9763857351944965,0.4787897671913894,B,491.4517920005892,Correct,sub_009_day_23_data.csv,1,600,,Button-Switch at home,,,,,,,,,,,,,d
9,23,101,A,58.507281076801576,74.3073672707504,2.9253640538400787,1.1672173956269405,A,604.3040830008977,Correct,sub_009_day_23_data.csv,1,600,,Button-Switch at home,,,,,,,,,,,,,k
9,23,102,A,38.81726128118656,63.03547964456031,1.940863064059328,0.990158998834298,A,526.709290999861,Correct,sub_009_day_23_data.csv,1,600,,Button-Switch at home,,,,,,,,,,,,,k
9,23,103,A,18.007554308518845,40.530773323267184,0.9003777154259422,0.6366558985834467,A,463.5437489996548,Correct,sub_009_day_23_data.csv,1,600,,Button-Switch at home,,,,,,,,,,,,,k
9,23,104,A,44.885701094651694,67.97893720516596,2.2442850547325848,1.0678106486129562,A,362.0613749990298,Correct,sub_009_day_23_data.csv,1,600,,Button-Switch at home,,,,,,,,,,,,,k
9,23,105,B,70.59761773155057,38.5978779447091,3.5298808865775286,0.6062940489762679,B,366.25350000031176,Correct,sub_009_day_23_data.csv,1,600,,Button-Switch at home,,,,,,,,,,,,,d
9,23,106,B,46.2220126437342,23.262442051505783,2.3111006321867102,0.3654055852678441,B,579.987582998001,Correct,sub_009_day_23_data.csv,1,600,,Button-Switch at home,,,,,,,,,,,,,d
9,23,107,A,36.60144455644327,67.94320384155833,1.8300722278221633,1.0672493502499674,A,332.59808299771976,Correct,sub_009_day_23_data.csv,1,600,,Button-Switch at home,,,,,,,,,,,,,k
9,23,108,B,74.08377953111562,53.35454030337655,3.7041889765557814,0.8380911592637416,B,376.4143749976938,Correct,sub_009_day_23_data.csv,1,600,,Button-Switch at home,,,,,,,,,,,,,d
9,23,109,B,66.57745202436494,34.7262359529308,3.3288726012182472,0.5454784387827657,B,471.3126249989727,Correct,sub_009_day_23_data.csv,1,600,,Button-Switch at home,,,,,,,,,,,,,d
9,23,110,A,45.35195208164021,67.32436562908457,2.2675976040820105,1.057528662339626,A,376.0608329976094,Correct,sub_009_day_23_data.csv,1,600,,Button-Switch at home,,,,,,,,,,,,,k
9,23,111,A,46.46491095224837,64.36637536139611,2.3232455476124185,1.0110646598678252,A,500.99724999745376,Correct,sub_009_day_23_data.csv,1,600,,Button-Switch at home,,,,,,,,,,,,,k
9,23,112,B,51.8009919711869,29.41835255843997,2.5900495985593452,0.4621024013915475,B,460.0724170013564,Correct,sub_009_day_23_data.csv,1,600,,Button-Switch at home,,,,,,,,,,,,,d
9,23,113,B,47.85585189601709,39.00827566214891,2.392792594800855,0.6127405612470627,B,722.2175409988267,Correct,sub_009_day_23_data.csv,1,600,,Button-Switch at home,,,,,,,,,,,,,d
9,23,114,B,50.49831125942514,38.98542619871915,2.5249155629712567,0.6123816427148157,B,598.4129579992441,Correct,sub_009_day_23_data.csv,1,600,,Button-Switch at home,,,,,,,,,,,,,d
9,23,115,B,74.06104241578677,52.43899667801352,3.703052120789339,0.8237098336263342,B,440.69424999906914,Correct,sub_009_day_23_data.csv,1,600,,Button-Switch at home,,,,,,,,,,,,,d
9,23,116,B,66.76401153377783,56.59267511615087,3.3382005766888914,0.8889556619594674,B,574.216165998223,Correct,sub_009_day_23_data.csv,1,600,,Button-Switch at home,,,,,,,,,,,,,d
9,23,117,B,77.1804968278569,61.324301854487615,3.8590248413928454,0.963279880962906,B,447.5950000014563,Correct,sub_009_day_23_data.csv,1,600,,Button-Switch at home,,,,,,,,,,,,,d
9,23,118,A,22.24957427211283,51.84042428810379,1.1124787136056415,0.8143074805124239,A,394.51166599974385,Correct,sub_009_day_23_data.csv,1,600,,Button-Switch at home,,,,,,,,,,,,,k
9,23,119,A,59.94469551764725,74.40645354039762,2.997234775882362,1.1687738391109173,A,1259.7377080019214,Correct,sub_009_day_23_data.csv,1,600,,Button-Switch at home,,,,,,,,,,,,,k
9,23,120,A,10.398452879223274,32.444068938170915,0.5199226439611637,0.5096302431435927,A,1020.1468330014904,Correct,sub_009_day_23_data.csv,1,600,,Button-Switch at home,,,,,,,,,,,,,k
9,23,121,B,76.62400131491603,60.96128966270773,3.8312000657458016,0.95757769878861,B,572.7765830015414,Correct,sub_009_day_23_data.csv,1,600,,Button-Switch at home,,,,,,,,,,,,,d
9,23,122,B,40.280774650796104,28.60021283171748,2.014038732539805,0.4492510926161408,B,528.7265829974785,Correct,sub_009_day_23_data.csv,1,600,,Button-Switch at home,,,,,,,,,,,,,d
9,23,123,A,47.18030519222427,76.05787753524152,2.3590152596112133,1.1947143465617345,A,660.2682909979194,Correct,sub_009_day_23_data.csv,1,600,,Button-Switch at home,,,,,,,,,,,,,k
9,23,124,A,49.20060937637386,76.07890326226624,2.460030468818693,1.1950446179095209,A,537.0599579982809,Correct,sub_009_day_23_data.csv,1,600,,Button-Switch at home,,,,,,,,,,,,,k
9,23,125,B,86.65518278641053,69.82533656461588,4.332759139320527,1.09681382192916,B,753.2232500016107,Correct,sub_009_day_23_data.csv,1,600,,Button-Switch at home,,,,,,,,,,,,,d
9,23,126,B,31.918512532942263,11.074793572075896,1.5959256266471131,0.1739624506302855,B,575.1847909996286,Correct,sub_009_day_23_data.csv,1,600,,Button-Switch at home,,,,,,,,,,,,,d
9,23,127,A,57.148944390246655,66.88072238902608,2.8574472195123324,1.0505599306207136,A,619.3263739987742,Correct,sub_009_day_23_data.csv,1,600,,Button-Switch at home,,,,,,,,,,,,,k
9,23,128,B,68.5067596373397,48.97583369326751,3.425337981866985,0.7693105966710233,B,758.1495830017957,Correct,sub_009_day_23_data.csv,1,600,,Button-Switch at home,,,,,,,,,,,,,d
9,23,129,B,56.958231120421786,49.00383928881213,2.847911556021089,0.7697505075371354,B,880.4327079997165,Correct,sub_009_day_23_data.csv,1,600,,Button-Switch at home,,,,,,,,,,,,,d
9,23,130,A,23.040374233311976,44.495911683076805,1.1520187116655989,0.6989401462916718,A,1226.3626660023874,Correct,sub_009_day_23_data.csv,1,600,,Button-Switch at home,,,,,,,,,,,,,k
9,23,131,A,33.25672667439487,44.425504696380855,1.6628363337197436,0.6978341959308447,A,1142.4630830006208,Correct,sub_009_day_23_data.csv,1,600,,Button-Switch at home,,,,,,,,,,,,,k
9,23,132,B,57.83852724993338,30.208834579551027,2.8919263624966685,0.474519263943134,B,377.9634159982379,Correct,sub_009_day_23_data.csv,1,600,,Button-Switch at home,,,,,,,,,,,,,d
9,23,133,A,44.34674371138883,70.18265853266045,2.2173371855694417,1.1024266222780352,A,666.7965830019966,Correct,sub_009_day_23_data.csv,1,600,,Button-Switch at home,,,,,,,,,,,,,k
9,23,134,B,71.24049692064895,49.23588227774486,3.5620248460324477,0.7733954302838756,B,766.4623750024475,Correct,sub_009_day_23_data.csv,1,600,,Button-Switch at home,,,,,,,,,,,,,d
9,23,135,A,40.965193517662,62.34407517727359,2.0482596758831,0.9792984428588624,A,918.5541660008312,Correct,sub_009_day_23_data.csv,1,600,,Button-Switch at home,,,,,,,,,,,,,k
9,23,136,B,34.30280923021523,11.33555487847478,1.7151404615107615,0.1780584796529015,B,1300.604582997039,Correct,sub_009_day_23_data.csv,1,600,,Button-Switch at home,,,,,,,,,,,,,d
9,23,137,A,59.624588377277696,68.45700840323511,2.981229418863885,1.0753201734316908,A,963.4176670006128,Correct,sub_009_day_23_data.csv,1,600,,Button-Switch at home,,,,,,,,,,,,,k
9,23,138,B,75.28170074098567,56.46410619925424,3.764085037049284,0.886936106135455,B,579.8764159990242,Correct,sub_009_day_23_data.csv,1,600,,Button-Switch at home,,,,,,,,,,,,,d
9,23,139,A,50.54989305751711,72.92012024699874,2.5274946528758555,1.145426570334278,A,631.4752910002426,Correct,sub_009_day_23_data.csv,1,600,,Button-Switch at home,,,,,,,,,,,,,k
9,23,140,A,54.127231279928495,71.09430320743444,2.7063615639964245,1.1167467033428065,A,645.7569170015631,Correct,sub_009_day_23_data.csv,1,600,,Button-Switch at home,,,,,,,,,,,,,k
9,23,141,B,69.30235453973388,39.66051046523355,3.465117726986694,0.6229858415759941,B,430.0586249992193,Correct,sub_009_day_23_data.csv,1,600,,Button-Switch at home,,,,,,,,,,,,,d
9,23,142,B,65.19654755727326,53.15799875788032,3.2598273778636635,0.8350038918864607,B,957.67537500069,Correct,sub_009_day_23_data.csv,1,600,,Button-Switch at home,,,,,,,,,,,,,d
9,23,143,A,47.411036851067195,70.28583604424959,2.37055184255336,1.1040473308401562,A,1433.7771239988797,Correct,sub_009_day_23_data.csv,1,600,,Button-Switch at home,,,,,,,,,,,,,k
9,23,144,B,69.70067557142147,46.88289046754257,3.4850337785710734,0.7364347213594333,B,1118.927583000186,Correct,sub_009_day_23_data.csv,1,600,,Button-Switch at home,,,,,,,,,,,,,d
9,23,145,A,65.55121961427437,82.51682112539282,3.2775609807137185,1.2961711952255857,A,967.929708000156,Correct,sub_009_day_23_data.csv,1,600,,Button-Switch at home,,,,,,,,,,,,,k
9,23,146,A,53.99599251162408,80.36139741602821,2.699799625581204,1.26231387877202,A,964.791291997244,Correct,sub_009_day_23_data.csv,1,600,,Button-Switch at home,,,,,,,,,,,,,k
9,23,147,B,64.65755521147832,47.66408193688479,3.232877760573916,0.748705648265096,B,952.7535830020496,Correct,sub_009_day_23_data.csv,1,600,,Button-Switch at home,,,,,,,,,,,,,d
9,23,148,A,12.85228232128241,36.15434180130977,0.6426141160641206,0.5679110729918457,A,1169.0915409999434,Correct,sub_009_day_23_data.csv,1,600,,Button-Switch at home,,,,,,,,,,,,,k
9,23,149,A,25.27354518622108,46.99320995919524,1.263677259311054,0.7381676158820523,A,1043.935749999946,Correct,sub_009_day_23_data.csv,1,600,,Button-Switch at home,,,,,,,,,,,,,k
9,23,150,B,77.2772650236081,65.72415135378472,3.8638632511804047,1.0323925552823687,B,808.5602489991288,Correct,sub_009_day_23_data.csv,1,600,,Button-Switch at home,,,,,,,,,,,,,d
9,23,151,B,85.39275074068576,57.4325746252983,4.269637537034288,0.9021487725979236,B,956.9284999997762,Correct,sub_009_day_23_data.csv,1,600,,Button-Switch at home,,,,,,,,,,,,,d
9,23,152,B,73.11050589755753,58.41287809259747,3.655525294877876,0.917547343453702,B,909.6194159974402,Correct,sub_009_day_23_data.csv,1,600,,Button-Switch at home,,,,,,,,,,,,,d
9,23,153,A,55.28812259769404,66.53385360735031,2.7644061298847022,1.0451113285393523,A,765.3260829974897,Correct,sub_009_day_23_data.csv,1,600,,Button-Switch at home,,,,,,,,,,,,,k
9,23,154,B,73.15419573264755,52.60286885243079,3.6577097866323776,0.8262839317227194,B,577.1642919971782,Correct,sub_009_day_23_data.csv,1,600,,Button-Switch at home,,,,,,,,,,,,,d
9,23,155,A,58.54776927431794,77.14659849258351,2.9273884637158973,1.2118159353687088,A,398.74595800210955,Correct,sub_009_day_23_data.csv,1,600,,Button-Switch at home,,,,,,,,,,,,,k
9,23,156,A,20.11138592500052,47.10419740850793,1.005569296250026,0.7399110026590593,A,401.53329099848634,Correct,sub_009_day_23_data.csv,1,600,,Button-Switch at home,,,,,,,,,,,,,k
9,23,157,B,87.03095817865932,59.09404429233424,4.351547908932966,0.9282470770985354,B,616.6342910000822,Correct,sub_009_day_23_data.csv,1,600,,Button-Switch at home,,,,,,,,,,,,,d
9,23,158,A,28.78013357794996,47.396530797387726,1.439006678897498,0.7445029647935781,A,650.7049989995721,Correct,sub_009_day_23_data.csv,1,600,,Button-Switch at home,,,,,,,,,,,,,k
9,23,159,B,73.12351045769857,55.18360223573653,3.656175522884928,0.8668219969120559,B,988.9032079991013,Correct,sub_009_day_23_data.csv,1,600,,Button-Switch at home,,,,,,,,,,,,,d
9,23,160,B,65.14541818968364,40.131522742261886,3.2572709094841823,0.6303844851223082,B,691.0478329991747,Correct,sub_009_day_23_data.csv,1,600,,Button-Switch at home,,,,,,,,,,,,,d
9,23,161,B,56.46177873954915,35.91934712409635,2.8230889369774577,0.5642197852340137,B,697.0790000013949,Correct,sub_009_day_23_data.csv,1,600,,Button-Switch at home,,,,,,,,,,,,,d
9,23,162,A,27.112739561488816,43.61341712570666,1.3556369780744406,0.6850779542003367,A,744.562167001277,Correct,sub_009_day_23_data.csv,1,600,,Button-Switch at home,,,,,,,,,,,,,k
9,23,163,B,77.02392263530953,55.45367666743959,3.8511961317654766,0.8710643161648596,B,594.1023330015014,Correct,sub_009_day_23_data.csv,1,600,,Button-Switch at home,,,,,,,,,,,,,d
9,23,164,A,37.285163645829606,47.011488490854155,1.8642581822914803,0.7384547343859427,A,443.6795830006304,Correct,sub_009_day_23_data.csv,1,600,,Button-Switch at home,,,,,,,,,,,,,k
9,23,165,B,33.60529671419078,11.737631607816493,1.680264835709539,0.1843742861482982,B,576.4037079970876,Correct,sub_009_day_23_data.csv,1,600,,Button-Switch at home,,,,,,,,,,,,,d
9,23,166,A,49.52463390094841,60.18100093250936,2.4762316950474204,0.9453209520762594,A,641.0966659968835,Correct,sub_009_day_23_data.csv,1,600,,Button-Switch at home,,,,,,,,,,,,,k
9,23,167,A,21.033053027419335,40.50650666696525,1.0516526513709668,0.6362747188376199,A,1004.7882919971016,Correct,sub_009_day_23_data.csv,1,600,,Button-Switch at home,,,,,,,,,,,,,k
9,23,168,A,28.639574702662173,37.9137968815652,1.4319787351331086,0.5955485287641041,A,793.3074989996385,Correct,sub_009_day_23_data.csv,1,600,,Button-Switch at home,,,,,,,,,,,,,k
9,23,169,B,44.831825907061976,28.75153145332953,2.241591295353099,0.4516279999661796,B,2144.242040998506,Correct,sub_009_day_23_data.csv,1,600,,Button-Switch at home,,,,,,,,,,,,,d
9,23,170,B,38.19637123297032,15.805822993780048,1.909818561648516,0.2482772870060001,B,831.299792000209,Correct,sub_009_day_23_data.csv,1,600,,Button-Switch at home,,,,,,,,,,,,,d
9,23,171,A,47.935583625884966,73.03040880638797,2.396779181294248,1.1471589789740386,A,867.8689159969508,Correct,sub_009_day_23_data.csv,1,600,,Button-Switch at home,,,,,,,,,,,,,k
9,23,172,B,38.979040347688056,17.82993068768161,1.9489520173844028,0.2800718963121787,B,884.5562910028093,Correct,sub_009_day_23_data.csv,1,600,,Button-Switch at home,,,,,,,,,,,,,d
9,23,173,A,64.97878752819862,89.4757089556864,3.248939376409931,1.4054811496496145,A,791.76145800011,Correct,sub_009_day_23_data.csv,1,600,,Button-Switch at home,,,,,,,,,,,,,k
9,23,174,A,27.44512797869006,53.631400402762594,1.3722563989345031,0.8424400675352582,A,833.1360000011045,Correct,sub_009_day_23_data.csv,1,600,,Button-Switch at home,,,,,,,,,,,,,k
9,23,175,A,61.7736799364366,83.48517338206263,3.08868399682183,1.3113820369037903,A,408.5775409985217,Correct,sub_009_day_23_data.csv,1,600,,Button-Switch at home,,,,,,,,,,,,,k
9,23,176,B,42.944854644344005,29.150416691648623,2.1472427322172,0.4578936746378229,B,651.9061250000959,Correct,sub_009_day_23_data.csv,1,600,,Button-Switch at home,,,,,,,,,,,,,d
9,23,177,B,63.276637429373345,37.57146747068994,3.163831871468667,0.590171230952537,B,764.0146239973546,Correct,sub_009_day_23_data.csv,1,600,,Button-Switch at home,,,,,,,,,,,,,d
9,23,178,B,61.46172978442384,40.83897390261425,3.0730864892211915,0.6414971019629909,B,512.3535829989123,Correct,sub_009_day_23_data.csv,1,600,,Button-Switch at home,,,,,,,,,,,,,d
9,23,179,B,43.468842160935864,26.06973406416644,2.1734421080467934,0.4095024250851243,B,1252.9160829981265,Correct,sub_009_day_23_data.csv,1,600,,Button-Switch at home,,,,,,,,,,,,,d
9,23,180,A,30.719601163955986,42.33174931037376,1.5359800581977994,0.6649455632353749,A,457.66091600307846,Correct,sub_009_day_23_data.csv,1,600,,Button-Switch at home,,,,,,,,,,,,,k
9,23,181,B,62.549043024528025,47.5042639711715,3.127452151226401,0.7461952335301134,B,506.44412499968894,Correct,sub_009_day_23_data.csv,1,600,,Button-Switch at home,,,,,,,,,,,,,d
9,23,182,A,26.0903990368448,45.33399250426103,1.30451995184224,0.7121046890464061,A,363.3969580005214,Correct,sub_009_day_23_data.csv,1,600,,Button-Switch at home,,,,,,,,,,,,,k
9,23,183,A,58.36685148240268,66.36842619560286,2.918342574120134,1.0425128008321116,A,640.0682909988973,Correct,sub_009_day_23_data.csv,1,600,,Button-Switch at home,,,,,,,,,,,,,k
9,23,184,A,35.96263965509845,45.39569475504487,1.7981319827549225,0.7130739057352684,A,457.67037499899743,Correct,sub_009_day_23_data.csv,1,600,,Button-Switch at home,,,,,,,,,,,,,k
9,23,185,B,64.97923272155307,34.625734629494225,3.248961636077654,0.5438997676858437,B,609.0038750007807,Correct,sub_009_day_23_data.csv,1,600,,Button-Switch at home,,,,,,,,,,,,,d
9,23,186,B,72.99335982647378,53.609822234920586,3.64966799132369,0.8421011184674062,B,536.4037079998525,Correct,sub_009_day_23_data.csv,1,600,,Button-Switch at home,,,,,,,,,,,,,d
9,23,187,A,37.455246599903475,47.995465427419006,1.872762329995174,0.7539110079620122,A,512.5346239983628,Correct,sub_009_day_23_data.csv,1,600,,Button-Switch at home,,,,,,,,,,,,,k
9,23,188,B,64.31466287430342,43.156841639008135,3.215733143715171,0.6779060832262302,B,494.5720000032452,Correct,sub_009_day_23_data.csv,1,600,,Button-Switch at home,,,,,,,,,,,,,d
9,23,189,B,75.54132552111221,51.48259213708997,3.7770662760556104,0.8086866662282075,B,483.3130830011214,Correct,sub_009_day_23_data.csv,1,600,,Button-Switch at home,,,,,,,,,,,,,d
9,23,190,A,56.47354791402766,79.57947627903971,2.823677395701383,1.250031490273772,A,606.6265409972402,Correct,sub_009_day_23_data.csv,1,600,,Button-Switch at home,,,,,,,,,,,,,k
9,23,191,B,35.482418830362484,12.530606365997468,1.7741209415181245,0.1968303045222157,B,594.8163329994713,Correct,sub_009_day_23_data.csv,1,600,,Button-Switch at home,,,,,,,,,,,,,d
9,23,192,B,85.62702004971561,65.29911989651274,4.28135100248578,1.0257161767638177,B,475.1670830009971,Correct,sub_009_day_23_data.csv,1,600,,Button-Switch at home,,,,,,,,,,,,,d
9,23,193,A,49.93468380236403,64.57599840650944,2.496734190118201,1.0143574109605813,A,539.1710420008167,Correct,sub_009_day_23_data.csv,1,600,,Button-Switch at home,,,,,,,,,,,,,k
9,23,194,B,59.53690201399115,26.833170513644752,2.9768451006995575,0.421494456790943,B,519.5212079997873,Correct,sub_009_day_23_data.csv,1,600,,Button-Switch at home,,,,,,,,,,,,,d
9,23,195,A,24.445151290330017,51.473866383208545,1.2222575645165008,0.8085496024067529,A,533.0990000002203,Correct,sub_009_day_23_data.csv,1,600,,Button-Switch at home,,,,,,,,,,,,,k
9,23,196,A,34.44160936253555,48.14131125184236,1.7220804681267776,0.7562019488148379,A,760.1089580020925,Correct,sub_009_day_23_data.csv,1,600,,Button-Switch at home,,,,,,,,,,,,,k
9,23,197,B,80.29354005881393,61.85292106866362,4.014677002940697,0.9715834121619148,B,475.0977080002486,Correct,sub_009_day_23_data.csv,1,600,,Button-Switch at home,,,,,,,,,,,,,d
9,23,198,A,38.81868203001438,46.80185581289747,1.9409341015007189,0.7351618319808373,A,583.7886250010342,Correct,sub_009_day_23_data.csv,1,600,,Button-Switch at home,,,,,,,,,,,,,k
9,23,199,B,82.15747669245093,62.60065877665521,4.107873834622547,0.9833288486131072,B,649.4957079994492,Correct,sub_009_day_23_data.csv,1,600,,Button-Switch at home,,,,,,,,,,,,,d
9,23,200,A,26.30592975489742,48.92705226024931,1.315296487744871,0.7685443397130156,A,359.0628749989264,Correct,sub_009_day_23_data.csv,1,600,,Button-Switch at home,,,,,,,,,,,,,k
9,23,201,A,40.12839827697606,68.12458312309353,2.0064199138488026,1.0700984493418892,A,571.9692490019952,Correct,sub_009_day_23_data.csv,1,600,,Button-Switch at home,,,,,,,,,,,,,k
9,23,202,A,35.79474620158194,68.8308253928639,1.789737310079097,1.081192076973715,A,349.588583001605,Correct,sub_009_day_23_data.csv,1,600,,Button-Switch at home,,,,,,,,,,,,,k
9,23,203,A,36.600579053087486,64.98301256377206,1.8300289526543745,1.0207507743923978,A,310.9794170013629,Correct,sub_009_day_23_data.csv,1,600,,Button-Switch at home,,,,,,,,,,,,,k
9,23,204,A,40.16352086413157,61.14456292407708,2.0081760432065785,0.9604565484461968,A,353.8329170005454,Correct,sub_009_day_23_data.csv,1,600,,Button-Switch at home,,,,,,,,,,,,,k
9,23,205,A,37.60915082745729,52.402331125469274,1.8804575413728648,0.82313389247377,A,493.3869579981547,Correct,sub_009_day_23_data.csv,1,600,,Button-Switch at home,,,,,,,,,,,,,k
9,23,206,A,44.191221243750206,74.36680184585035,2.20956106218751,1.1681509917494568,A,848.5283330010134,Correct,sub_009_day_23_data.csv,1,600,,Button-Switch at home,,,,,,,,,,,,,k
9,23,207,A,17.922334092792372,39.97051781942627,0.8961167046396186,0.6278554257084475,A,626.2183740000182,Correct,sub_009_day_23_data.csv,1,600,,Button-Switch at home,,,,,,,,,,,,,k
9,23,208,A,30.15962574643393,48.538163087551425,1.507981287321697,0.7624356828729741,A,839.5367080011056,Correct,sub_009_day_23_data.csv,1,600,,Button-Switch at home,,,,,,,,,,,,,k
9,23,209,B,45.8329465291822,35.358790966265985,2.29164732645911,0.5554145896971918,B,1115.706541997497,Correct,sub_009_day_23_data.csv,1,600,,Button-Switch at home,,,,,,,,,,,,,d
9,23,210,B,51.88382977006666,21.12422644922144,2.5941914885033333,0.3318185731282063,B,614.4542080000974,Correct,sub_009_day_23_data.csv,1,600,,Button-Switch at home,,,,,,,,,,,,,d
9,23,211,A,55.72155445364432,84.07616676548345,2.786077722682216,1.3206653392621657,A,458.0232079970301,Correct,sub_009_day_23_data.csv,1,600,,Button-Switch at home,,,,,,,,,,,,,k
9,23,212,A,54.416430140203815,69.64682796287929,2.720821507010191,1.0940098153700686,A,435.78441600038786,Correct,sub_009_day_23_data.csv,1,600,,Button-Switch at home,,,,,,,,,,,,,k
9,23,213,A,58.34298160825871,72.41066884233032,2.917149080412935,1.1374241263829414,A,1462.5205410011404,Correct,sub_009_day_23_data.csv,1,600,,Button-Switch at home,,,,,,,,,,,,,k
9,23,214,B,69.66662163124381,44.12747088702706,3.4833310815621905,0.6931526918009083,B,584.8828329981188,Correct,sub_009_day_23_data.csv,1,600,,Button-Switch at home,,,,,,,,,,,,,d
9,23,215,B,85.7364957325069,60.79053415340438,4.286824786625345,0.954895477520673,B,662.4330410013499,Correct,sub_009_day_23_data.csv,1,600,,Button-Switch at home,,,,,,,,,,,,,d
9,23,216,B,40.191955885576625,24.57812390223316,2.009597794278831,0.3860722674513769,B,573.1215000014345,Correct,sub_009_day_23_data.csv,1,600,,Button-Switch at home,,,,,,,,,,,,,d
9,23,217,A,40.970575875303965,56.974041374957075,2.048528793765198,0.8949461491444303,A,767.2405409975909,Correct,sub_009_day_23_data.csv,1,600,,Button-Switch at home,,,,,,,,,,,,,k
9,23,218,B,75.02234788573233,45.05065668390205,3.751117394286616,0.707654060387713,B,394.45612500276184,Correct,sub_009_day_23_data.csv,1,600,,Button-Switch at home,,,,,,,,,,,,,d
9,23,219,A,35.75098653330888,53.91254666885622,1.7875493266654443,0.8468563027559779,A,379.3246250024822,Correct,sub_009_day_23_data.csv,1,600,,Button-Switch at home,,,,,,,,,,,,,k
9,23,220,B,69.49631838027014,38.288665752411845,3.474815919013507,0.6014369552176608,B,1031.963707999239,Correct,sub_009_day_23_data.csv,1,600,,Button-Switch at home,,,,,,,,,,,,,d
9,23,221,A,37.30470495281226,59.991243482190626,1.8652352476406129,0.9423402490168332,A,1020.0518749988988,Correct,sub_009_day_23_data.csv,1,600,,Button-Switch at home,,,,,,,,,,,,,k
9,23,222,B,55.95016872921177,44.73812658805303,2.7975084364605887,0.7027448491219879,B,427.6551249968179,Correct,sub_009_day_23_data.csv,1,600,,Button-Switch at home,,,,,,,,,,,,,d
9,23,223,B,76.87101569078615,53.27746400074725,3.843550784539308,0.8368804475332111,B,599.5570830018551,Correct,sub_009_day_23_data.csv,1,600,,Button-Switch at home,,,,,,,,,,,,,d
9,23,224,B,76.71665299979296,47.68738526993735,3.8358326499896473,0.7490716961647065,B,403.72116599974106,Correct,sub_009_day_23_data.csv,1,600,,Button-Switch at home,,,,,,,,,,,,,d
9,23,225,A,52.76329968586192,71.52703383440178,2.638164984293096,1.123544020136126,A,667.4066660016251,Correct,sub_009_day_23_data.csv,1,600,,Button-Switch at home,,,,,,,,,,,,,k
9,23,226,B,83.63364127896148,59.42104394488571,4.181682063948074,0.933383575629446,B,448.7206659978256,Correct,sub_009_day_23_data.csv,1,600,,Button-Switch at home,,,,,,,,,,,,,d
9,23,227,A,39.94046260655974,50.688495445914704,1.997023130327987,0.7962130245720267,A,346.31858300053864,Correct,sub_009_day_23_data.csv,1,600,,Button-Switch at home,,,,,,,,,,,,,k
9,23,228,B,59.23066658565015,39.89863226287151,2.9615333292825072,0.6267262500265892,B,540.1918330026092,Correct,sub_009_day_23_data.csv,1,600,,Button-Switch at home,,,,,,,,,,,,,d
9,23,229,A,66.16205941814076,85.18878590585888,3.3081029709070378,1.3381423198504,A,616.8197490005696,Correct,sub_009_day_23_data.csv,1,600,,Button-Switch at home,,,,,,,,,,,,,k
9,23,230,A,46.877360721362734,71.41467298406805,2.3438680360681365,1.1217790600263282,A,490.07383299976937,Correct,sub_009_day_23_data.csv,1,600,,Button-Switch at home,,,,,,,,,,,,,k
9,23,231,A,35.061012950807864,62.25326477065774,1.7530506475403933,0.9778719963273932,A,557.7621660013392,Correct,sub_009_day_23_data.csv,1,600,,Button-Switch at home,,,,,,,,,,,,,k
9,23,232,B,69.3076445630581,44.57466143145151,3.465382228152905,0.7001771444465017,B,680.5446660000598,Correct,sub_009_day_23_data.csv,1,600,,Button-Switch at home,,,,,,,,,,,,,d
9,23,233,A,63.84170309284651,86.93465068428951,3.1920851546423257,1.365566299660794,A,601.5506250005274,Correct,sub_009_day_23_data.csv,1,600,,Button-Switch at home,,,,,,,,,,,,,k
9,23,234,A,33.46241156297694,50.86914461424847,1.673120578148847,0.7990506550725989,A,452.1455419999256,Correct,sub_009_day_23_data.csv,1,600,,Button-Switch at home,,,,,,,,,,,,,k
9,23,235,A,43.99858063531116,73.11273428967974,2.1999290317655578,1.148452144641602,A,408.9544989983551,Correct,sub_009_day_23_data.csv,1,600,,Button-Switch at home,,,,,,,,,,,,,k
9,23,236,A,33.30906421242494,62.25683938507958,1.6654532106212472,0.9779281462394284,A,478.5647909993713,Correct,sub_009_day_23_data.csv,1,600,,Button-Switch at home,,,,,,,,,,,,,k
9,23,237,B,46.52008411059155,29.23553495945514,2.326004205529577,0.4592307092619592,B,397.1581240002706,Correct,sub_009_day_23_data.csv,1,600,,Button-Switch at home,,,,,,,,,,,,,d
9,23,238,A,44.26772376551127,68.47916022764021,2.213386188275563,1.075668133475764,A,530.7943329971749,Correct,sub_009_day_23_data.csv,1,600,,Button-Switch at home,,,,,,,,,,,,,k
9,23,239,A,50.403215120714314,63.49047436598467,2.520160756035716,0.9973060392055424,A,449.66499900328927,Correct,sub_009_day_23_data.csv,1,600,,Button-Switch at home,,,,,,,,,,,,,k
9,23,240,B,50.73882135072874,21.19733446893494,2.5369410675364374,0.3329669512164585,B,476.56316600114224,Correct,sub_009_day_23_data.csv,1,600,,Button-Switch at home,,,,,,,,,,,,,d
9,23,241,A,21.66115050079934,53.1659423763713,1.083057525039967,0.8351286699539316,A,363.10504200082505,Correct,sub_009_day_23_data.csv,1,600,,Button-Switch at home,,,,,,,,,,,,,k
9,23,242,A,24.586965213358273,38.185114947270144,1.2293482606679136,0.5998103829741285,A,400.2242909991765,Correct,sub_009_day_23_data.csv,1,600,,Button-Switch at home,,,,,,,,,,,,,k
9,23,243,A,65.49308794075064,87.79892510717085,3.2746543970375317,1.379142290548842,A,546.4625829990837,Correct,sub_009_day_23_data.csv,1,600,,Button-Switch at home,,,,,,,,,,,,,k
9,23,244,A,11.138162973321194,32.998069828104704,0.5569081486660596,0.5183324687730837,A,455.15216599960695,Correct,sub_009_day_23_data.csv,1,600,,Button-Switch at home,,,,,,,,,,,,,k
9,23,245,A,21.370603663590483,34.53282975281477,1.0685301831795242,0.5424404212955496,A,420.7497079987661,Correct,sub_009_day_23_data.csv,1,600,,Button-Switch at home,,,,,,,,,,,,,k
9,23,246,B,50.87309463565542,42.185515090449776,2.5436547317827713,0.6626485214802919,B,553.5516669988283,Correct,sub_009_day_23_data.csv,1,600,,Button-Switch at home,,,,,,,,,,,,,d
9,23,247,A,30.326419681000033,57.41524916731311,1.5163209840500016,0.9018766249402916,A,468.9523329980147,Correct,sub_009_day_23_data.csv,1,600,,Button-Switch at home,,,,,,,,,,,,,k
9,23,248,A,19.54395424428685,39.427440111202486,0.9771977122143426,0.6193247810160264,A,334.8561239981791,Correct,sub_009_day_23_data.csv,1,600,,Button-Switch at home,,,,,,,,,,,,,k
9,23,249,A,28.52405013080963,45.03297413231556,1.4262025065404815,0.7073763035169087,A,352.08583300118335,Correct,sub_009_day_23_data.csv,1,600,,Button-Switch at home,,,,,,,,,,,,,k
9,23,250,A,57.136068256137875,72.7764081510902,2.8568034128068938,1.1431691460105864,A,491.6029159976461,Correct,sub_009_day_23_data.csv,1,600,,Button-Switch at home,,,,,,,,,,,,,k
9,23,251,A,64.4683020453462,80.74313393700679,3.2234151022673103,1.2683101820215863,A,487.0147500005259,Correct,sub_009_day_23_data.csv,1,600,,Button-Switch at home,,,,,,,,,,,,,k
9,23,252,A,32.72526311655497,62.09295748037232,1.6362631558277485,0.9753538953000054,A,436.138541001128,Correct,sub_009_day_23_data.csv,1,600,,Button-Switch at home,,,,,,,,,,,,,k
9,23,253,A,32.66396894517807,56.1928665388414,1.6331984472589034,0.8826754835128793,A,467.355332999432,Correct,sub_009_day_23_data.csv,1,600,,Button-Switch at home,,,,,,,,,,,,,k
9,23,254,B,61.59809148412083,37.900788151202406,3.079904574206042,0.5953441881054028,B,694.6005409990903,Correct,sub_009_day_23_data.csv,1,600,,Button-Switch at home,,,,,,,,,,,,,d
9,23,255,A,14.004843361069842,41.38224287733445,0.7002421680534922,0.6500307510625123,A,592.16429099979,Correct,sub_009_day_23_data.csv,1,600,,Button-Switch at home,,,,,,,,,,,,,k
9,23,256,B,65.320275204726,40.78755773682339,3.2660137602362997,0.6406894587193694,B,649.7758750010689,Correct,sub_009_day_23_data.csv,1,600,,Button-Switch at home,,,,,,,,,,,,,d
9,23,257,A,23.366823364173055,49.25989539232505,1.1683411682086529,0.7737726274056503,A,439.484332997381,Correct,sub_009_day_23_data.csv,1,600,,Button-Switch at home,,,,,,,,,,,,,k
9,23,258,A,20.570827855211988,37.08403021220583,1.0285413927605993,0.5825145844008388,A,953.860582998459,Correct,sub_009_day_23_data.csv,1,600,,Button-Switch at home,,,,,,,,,,,,,k
9,23,259,A,57.878430840168136,76.83901035511049,2.8939215420084063,1.206984352203626,A,632.383457999822,Correct,sub_009_day_23_data.csv,1,600,,Button-Switch at home,,,,,,,,,,,,,k
9,23,260,A,55.344626329000526,81.09591293546517,2.7672313164500264,1.2738516215710742,A,1204.5849159985664,Correct,sub_009_day_23_data.csv,1,600,,Button-Switch at home,,,,,,,,,,,,,k
9,23,261,B,45.66894479358383,26.90934668830984,2.2834472396791914,0.422691029344475,B,612.3313329990197,Correct,sub_009_day_23_data.csv,1,600,,Button-Switch at home,,,,,,,,,,,,,d
9,23,262,A,28.069411218263586,38.73195341283288,1.4034705609131797,0.6084001015046895,A,400.8976660006738,Correct,sub_009_day_23_data.csv,1,600,,Button-Switch at home,,,,,,,,,,,,,k
9,23,263,B,62.25441872641043,30.73112329284732,3.1127209363205215,0.4827233558668565,B,938.1707499996992,Correct,sub_009_day_23_data.csv,1,600,,Button-Switch at home,,,,,,,,,,,,,d
9,23,264,A,53.75445070946175,78.29432778912678,2.6877225354730876,1.2298444250003595,A,855.7169579980837,Correct,sub_009_day_23_data.csv,1,600,,Button-Switch at home,,,,,,,,,,,,,k
9,23,265,B,39.203197286288926,18.878021552637374,1.9601598643144464,0.2965352691203767,B,500.07600000026287,Correct,sub_009_day_23_data.csv,1,600,,Button-Switch at home,,,,,,,,,,,,,d
9,23,266,B,76.64960050842114,53.24450406235983,3.832480025421057,0.8363627140317077,B,461.3458749990969,Correct,sub_009_day_23_data.csv,1,600,,Button-Switch at home,,,,,,,,,,,,,d
9,23,267,A,28.71888896713607,42.57115020167779,1.4359444483568036,0.668706063642293,A,378.92666599873337,Correct,sub_009_day_23_data.csv,1,600,,Button-Switch at home,,,,,,,,,,,,,k
9,23,268,B,36.39371476622925,15.236915853881056,1.8196857383114624,0.2393409145495928,B,1213.8853750002454,Correct,sub_009_day_23_data.csv,1,600,,Button-Switch at home,,,,,,,,,,,,,d
9,23,269,A,52.69688439258228,81.90524551011771,2.6348442196291137,1.286564587925271,A,574.5476659976703,Correct,sub_009_day_23_data.csv,1,600,,Button-Switch at home,,,,,,,,,,,,,k
9,23,270,A,36.717202014291715,57.72180629656775,1.8358601007145856,0.9066920130661512,A,998.538790998282,Correct,sub_009_day_23_data.csv,1,600,,Button-Switch at home,,,,,,,,,,,,,k
9,23,271,A,51.51510443631486,62.63459740701139,2.5757552218157427,0.9838619553721064,A,1947.276625000086,Correct,sub_009_day_23_data.csv,1,600,,Button-Switch at home,,,,,,,,,,,,,k
9,23,272,A,58.293840490899086,86.24296840683161,2.914692024544954,1.354701379853394,A,778.4211660000437,Correct,sub_009_day_23_data.csv,1,600,,Button-Switch at home,,,,,,,,,,,,,k
9,23,273,B,45.92215966808766,17.643212694195544,2.296107983404383,0.2771389369290344,B,628.5017079972022,Correct,sub_009_day_23_data.csv,1,600,,Button-Switch at home,,,,,,,,,,,,,d
9,23,274,B,48.87627134908217,30.20324714781747,2.4438135674541086,0.4744314967707012,B,789.8956239987456,Correct,sub_009_day_23_data.csv,1,600,,Button-Switch at home,,,,,,,,,,,,,d
9,23,275,B,77.97263673553064,55.3586673833497,3.898631836776532,0.8695719138202617,B,534.0764169995964,Correct,sub_009_day_23_data.csv,1,600,,Button-Switch at home,,,,,,,,,,,,,d
9,23,276,B,60.75915605561312,28.875056708563857,3.0379578027806557,0.4535683301380644,B,832.7208330010762,Correct,sub_009_day_23_data.csv,1,600,,Button-Switch at home,,,,,,,,,,,,,d
9,23,277,A,48.237224505269886,56.28785410941208,2.4118612252634946,0.8841675447823153,A,854.3384170006902,Correct,sub_009_day_23_data.csv,1,600,,Button-Switch at home,,,,,,,,,,,,,k
9,23,278,A,28.950117725869983,59.1664459149686,1.4475058862934993,0.929384359127416,A,2055.0433749995136,Correct,sub_009_day_23_data.csv,1,600,,Button-Switch at home,,,,,,,,,,,,,k
9,23,279,B,62.86148793252059,38.824905112994166,3.1430743966260297,0.6098601833965164,B,1073.016040998482,Correct,sub_009_day_23_data.csv,1,600,,Button-Switch at home,,,,,,,,,,,,,d
9,23,280,A,54.63708771196972,69.57170172682872,2.731854385598486,1.0928297352137273,A,368.5033330002625,Correct,sub_009_day_23_data.csv,1,600,,Button-Switch at home,,,,,,,,,,,,,k
9,23,281,A,23.6978130820848,55.07701166490381,1.18489065410424,0.8651476761407056,A,556.349541999225,Correct,sub_009_day_23_data.csv,1,600,,Button-Switch at home,,,,,,,,,,,,,k
9,23,282,B,37.34215937095931,13.18091783531958,1.8671079685479657,0.2070453731950533,B,373.81091700081015,Correct,sub_009_day_23_data.csv,1,600,,Button-Switch at home,,,,,,,,,,,,,d
9,23,283,A,35.7940365803962,58.69664624155184,1.78970182901981,0.9220047631140912,A,453.529417001846,Correct,sub_009_day_23_data.csv,1,600,,Button-Switch at home,,,,,,,,,,,,,k
9,23,284,B,59.45337583819091,37.25192125150451,2.9726687919095456,0.5851518106791603,B,1662.0407490008802,Correct,sub_009_day_23_data.csv,1,600,,Button-Switch at home,,,,,,,,,,,,,d
9,23,285,B,59.411171956117315,49.05551066801459,2.9705585978058657,0.7705621596636518,A,671.4043749998382,Incorrect,sub_009_day_23_data.csv,0,600,,Button-Switch at home,,,,,,,,,,,,,k
9,23,286,B,59.95715830435813,42.548831847651584,2.9978579152179066,0.6683554877570482,B,459.0569579995645,Correct,sub_009_day_23_data.csv,1,600,,Button-Switch at home,,,,,,,,,,,,,d
9,23,287,B,69.66849253372797,58.4747248648939,3.483424626686398,0.9185188302811754,B,465.68645799925434,Correct,sub_009_day_23_data.csv,1,600,,Button-Switch at home,,,,,,,,,,,,,d
9,23,288,B,58.071386668472485,41.07402906022651,2.9035693334236243,0.6451893397447064,B,679.3745409995608,Correct,sub_009_day_23_data.csv,1,600,,Button-Switch at home,,,,,,,,,,,,,d
9,23,289,A,45.13639789529335,56.29197509164024,2.2568198947646674,0.8842322770197829,A,856.1501240001235,Correct,sub_009_day_23_data.csv,1,600,,Button-Switch at home,,,,,,,,,,,,,k
9,23,290,A,34.361762932863414,50.47553519392345,1.7180881466431708,0.7928678527562147,A,1236.7241239990108,Correct,sub_009_day_23_data.csv,1,600,,Button-Switch at home,,,,,,,,,,,,,k
9,23,291,A,64.75575526267842,80.36800935301042,3.237787763133921,1.2624177388352664,A,622.4775000009686,Correct,sub_009_day_23_data.csv,1,600,,Button-Switch at home,,,,,,,,,,,,,k
9,23,292,A,26.187210819393123,41.77640458600466,1.3093605409696565,0.6562222287039359,A,1131.5088749979625,Correct,sub_009_day_23_data.csv,1,600,,Button-Switch at home,,,,,,,,,,,,,k
9,23,293,A,53.36173431929586,74.06329159342351,2.668086715964793,1.1633834638528902,A,2149.424248997093,Correct,sub_009_day_23_data.csv,1,600,,Button-Switch at home,,,,,,,,,,,,,k
9,23,294,A,66.13489014487871,85.88978415278808,3.306744507243935,1.3491535745640604,A,2456.157583001186,Correct,sub_009_day_23_data.csv,1,600,,Button-Switch at home,,,,,,,,,,,,,k
9,23,295,B,49.1981977469256,40.36702746263614,2.4599098873462797,0.6340837846193755,B,644.4259579984646,Correct,sub_009_day_23_data.csv,1,600,,Button-Switch at home,,,,,,,,,,,,,d
9,23,296,A,47.04583799602427,69.71392656683352,2.3522918998012132,1.0950637977763125,A,1799.878041998454,Correct,sub_009_day_23_data.csv,1,600,,Button-Switch at home,,,,,,,,,,,,,k
9,23,297,A,49.659412033998265,74.31632927060663,2.482970601699913,1.1673581703914897,A,1498.6231660004703,Correct,sub_009_day_23_data.csv,1,600,,Button-Switch at home,,,,,,,,,,,,,k
9,23,298,A,28.29464216440318,41.5631108190619,1.414732108220159,0.6528718180475165,A,448.7144989980152,Correct,sub_009_day_23_data.csv,1,600,,Button-Switch at home,,,,,,,,,,,,,k
9,23,299,B,53.57235341532525,38.76671777779628,2.678617670766263,0.6089461788725682,B,1332.9296660012917,Correct,sub_009_day_23_data.csv,1,600,,Button-Switch at home,,,,,,,,,,,,,d
9,23,300,A,38.03826848307044,70.54316663637199,1.901913424153522,1.1080894703289343,A,426.5818330022739,Correct,sub_009_day_23_data.csv,1,600,,Button-Switch at home,,,,,,,,,,,,,k
9,23,301,A,52.304210248425946,63.4000111184721,2.615210512421297,0.9958850458365156,A,603.3218749980733,Correct,sub_009_day_23_data.csv,1,600,,Button-Switch at home,,,,,,,,,,,,,k
9,23,302,B,70.96967487808477,51.958695550575094,3.5484837439042387,0.816165281158977,B,1497.0129989997076,Correct,sub_009_day_23_data.csv,1,600,,Button-Switch at home,,,,,,,,,,,,,d
9,23,303,A,35.75393308146856,55.901660980627994,1.787696654073428,0.8781012373010404,A,4788.861125001858,Correct,sub_009_day_23_data.csv,1,600,,Button-Switch at home,,,,,,,,,,,,,k
9,23,304,A,36.26572567402559,67.39985972618224,1.8132862837012795,1.0587145208437834,A,732.2828329997719,Correct,sub_009_day_23_data.csv,1,600,,Button-Switch at home,,,,,,,,,,,,,k
9,23,305,B,33.7016325320284,12.73786092190408,1.6850816266014197,0.2000858514735118,B,560.6665410014102,Correct,sub_009_day_23_data.csv,1,600,,Button-Switch at home,,,,,,,,,,,,,d
9,23,306,B,57.46366879441005,36.35971484180592,2.8731834397205023,0.5711370651681862,B,461.2434580012632,Correct,sub_009_day_23_data.csv,1,600,,Button-Switch at home,,,,,,,,,,,,,d
9,23,307,B,58.31699257216391,29.46941485461616,2.915849628608196,0.4629044860642602,B,1603.9175000005343,Correct,sub_009_day_23_data.csv,1,600,,Button-Switch at home,,,,,,,,,,,,,d
9,23,308,B,66.50308012874271,56.894148460729035,3.325154006437135,0.893691194182367,B,521.7875000016647,Correct,sub_009_day_23_data.csv,1,600,,Button-Switch at home,,,,,,,,,,,,,d
9,23,309,A,33.16033251977034,56.13027008013232,1.6580166259885172,0.8816922206387735,A,1346.6820000030566,Correct,sub_009_day_23_data.csv,1,600,,Button-Switch at home,,,,,,,,,,,,,k
9,23,310,A,21.36383140768728,37.61516567409706,1.068191570384364,0.5908576407265315,A,1191.2141240027267,Correct,sub_009_day_23_data.csv,1,600,,Button-Switch at home,,,,,,,,,,,,,k
9,23,311,B,83.48968527917135,56.15296864619654,4.1744842639585675,0.8820487688807451,B,655.058166001254,Correct,sub_009_day_23_data.csv,1,600,,Button-Switch at home,,,,,,,,,,,,,d
9,23,312,A,45.3913639200614,62.30598663719825,2.26956819600307,0.9787001494704292,A,379.98804100061534,Correct,sub_009_day_23_data.csv,1,600,,Button-Switch at home,,,,,,,,,,,,,k
9,23,313,A,49.41949438728134,77.43850752313747,2.470974719364067,1.216401231698233,A,392.90887500101235,Correct,sub_009_day_23_data.csv,1,600,,Button-Switch at home,,,,,,,,,,,,,k
9,23,314,B,53.38190256546238,45.32613554988767,2.6690951282731192,0.7119812722957113,B,643.2853750011418,Correct,sub_009_day_23_data.csv,1,600,,Button-Switch at home,,,,,,,,,,,,,d
9,23,315,A,36.22004724498985,62.21500725029787,1.8110023622494924,0.9772710486028576,A,425.24466599934385,Correct,sub_009_day_23_data.csv,1,600,,Button-Switch at home,,,,,,,,,,,,,k
9,23,316,B,64.62690915949348,35.6591814195538,3.2313454579746743,0.5601331119034794,B,428.452042000572,Correct,sub_009_day_23_data.csv,1,600,,Button-Switch at home,,,,,,,,,,,,,d
9,23,317,A,37.12026762862384,44.9639684953856,1.8560133814311917,0.7062923655067317,A,341.94333299819846,Correct,sub_009_day_23_data.csv,1,600,,Button-Switch at home,,,,,,,,,,,,,k
9,23,318,B,80.19148129300059,64.84116688747764,4.00957406465003,1.0185226677194474,B,417.225375000271,Correct,sub_009_day_23_data.csv,1,600,,Button-Switch at home,,,,,,,,,,,,,d
9,23,319,A,55.431545494001895,67.04901958091371,2.771577274700095,1.0532035367289834,B,535.2717919995484,Incorrect,sub_009_day_23_data.csv,0,600,,Button-Switch at home,,,,,,,,,,,,,d
9,23,320,B,71.42433821303507,48.809526204014205,3.5712169106517537,0.7666982447386477,B,510.5091660007019,Correct,sub_009_day_23_data.csv,1,600,,Button-Switch at home,,,,,,,,,,,,,d
9,23,321,A,37.48554569636482,55.82122873073538,1.874277284818241,0.8768378104741688,A,735.1767499967536,Correct,sub_009_day_23_data.csv,1,600,,Button-Switch at home,,,,,,,,,,,,,k
9,23,322,A,32.24865159465479,54.578100848724674,1.6124325797327397,0.8573108033661815,A,348.5575000013341,Correct,sub_009_day_23_data.csv,1,600,,Button-Switch at home,,,,,,,,,,,,,k
9,23,323,B,60.376104455162825,50.19175210357074,3.0188052227581412,0.7884101983968896,B,531.5604579991486,Correct,sub_009_day_23_data.csv,1,600,,Button-Switch at home,,,,,,,,,,,,,d
9,23,324,B,50.04688796977511,42.66163118817026,2.5023443984887557,0.6701273356545645,A,752.6447490017745,Incorrect,sub_009_day_23_data.csv,0,600,,Button-Switch at home,,,,,,,,,,,,,k
9,23,325,A,18.12586479445744,46.72223501573358,0.906293239722872,0.7339111514236221,A,551.7743330019584,Correct,sub_009_day_23_data.csv,1,600,,Button-Switch at home,,,,,,,,,,,,,k
9,23,326,B,39.02246503613672,14.026389102892342,1.951123251806836,0.2203260048101925,A,746.7564580001635,Incorrect,sub_009_day_23_data.csv,0,600,,Button-Switch at home,,,,,,,,,,,,,k
9,23,327,A,32.712825509104015,58.32647696400591,1.6356412754552008,0.9161901576994764,A,650.2352499992412,Correct,sub_009_day_23_data.csv,1,600,,Button-Switch at home,,,,,,,,,,,,,k
9,23,328,B,43.7841334084621,24.16481682018567,2.189206670423105,0.3795800549881918,B,526.6572489999817,Correct,sub_009_day_23_data.csv,1,600,,Button-Switch at home,,,,,,,,,,,,,d
9,23,329,B,46.934633818254454,34.075295793645395,2.3467316909127227,0.5352534946710777,B,460.8856240010937,Correct,sub_009_day_23_data.csv,1,600,,Button-Switch at home,,,,,,,,,,,,,d
9,23,330,A,25.21744187392084,53.409981248085074,1.260872093696042,0.8389620235867634,A,366.0395000006247,Correct,sub_009_day_23_data.csv,1,600,,Button-Switch at home,,,,,,,,,,,,,k
9,23,331,B,61.61571955916058,28.71851484477077,3.0807859779580293,0.4511093762917062,B,553.2169580001209,Correct,sub_009_day_23_data.csv,1,600,,Button-Switch at home,,,,,,,,,,,,,d
9,23,332,B,62.49122241887373,45.754948003604575,3.124561120943687,0.7187170425675355,B,515.6335409992607,Correct,sub_009_day_23_data.csv,1,600,,Button-Switch at home,,,,,,,,,,,,,d
9,23,333,A,42.09847125839089,51.70817155874763,2.104923562919544,0.8122300594976113,A,490.1480000007723,Correct,sub_009_day_23_data.csv,1,600,,Button-Switch at home,,,,,,,,,,,,,k
9,23,334,B,62.40141537152207,30.25170421031018,3.1200707685761033,0.4751926585284093,B,409.4730830001936,Correct,sub_009_day_23_data.csv,1,600,,Button-Switch at home,,,,,,,,,,,,,d
9,23,335,A,58.60278242304268,80.99172071839402,2.930139121152134,1.2722149740525144,A,523.2655410000007,Correct,sub_009_day_23_data.csv,1,600,,Button-Switch at home,,,,,,,,,,,,,k
9,23,336,A,25.27752381048968,36.428868749157175,1.263876190524484,0.5722233322046949,A,659.6001249999972,Correct,sub_009_day_23_data.csv,1,600,,Button-Switch at home,,,,,,,,,,,,,k
9,23,337,A,30.011836524928203,39.21637576892741,1.5005918262464102,0.6160093900803957,A,399.66370800175355,Correct,sub_009_day_23_data.csv,1,600,,Button-Switch at home,,,,,,,,,,,,,k
9,23,338,B,75.05774214630777,46.58283929059137,3.752887107315389,0.7317215284933793,B,462.53162500215694,Correct,sub_009_day_23_data.csv,1,600,,Button-Switch at home,,,,,,,,,,,,,d
9,23,339,A,59.64561389595805,82.35257254729534,2.982280694797902,1.2935911845940176,A,386.52374900266295,Correct,sub_009_day_23_data.csv,1,600,,Button-Switch at home,,,,,,,,,,,,,k
9,23,340,A,43.22176109511121,75.71481291445244,2.161088054755561,1.189325500099847,A,433.06954099898576,Correct,sub_009_day_23_data.csv,1,600,,Button-Switch at home,,,,,,,,,,,,,k
9,23,341,B,49.83612645964187,28.14658154529313,2.4918063229820935,0.4421254690317947,B,637.9696670010162,Correct,sub_009_day_23_data.csv,1,600,,Button-Switch at home,,,,,,,,,,,,,d
9,23,342,B,49.835329698184495,43.08461551551298,2.491766484909225,0.676771557931382,B,2112.9460410011234,Correct,sub_009_day_23_data.csv,1,600,,Button-Switch at home,,,,,,,,,,,,,d
9,23,343,B,60.22594825556923,44.578878431860325,3.0112974127784615,0.7002433849340244,B,440.8469160007371,Correct,sub_009_day_23_data.csv,1,600,,Button-Switch at home,,,,,,,,,,,,,d
9,23,344,A,45.8541638504163,71.10442268841054,2.2927081925208146,1.1169056597782698,A,782.9339579984662,Correct,sub_009_day_23_data.csv,1,600,,Button-Switch at home,,,,,,,,,,,,,k
9,23,345,A,41.83294563369886,65.85703198750777,2.0916472816849434,1.034479839395912,A,479.3097910005599,Correct,sub_009_day_23_data.csv,1,600,,Button-Switch at home,,,,,,,,,,,,,k
9,23,346,A,52.15377977038288,79.54961582713668,2.607688988519144,1.2495624433921146,A,422.94783299803385,Correct,sub_009_day_23_data.csv,1,600,,Button-Switch at home,,,,,,,,,,,,,k
9,23,347,B,46.998086193897095,36.60333809731569,2.349904309694855,0.5749638903169518,B,1163.217165998503,Correct,sub_009_day_23_data.csv,1,600,,Button-Switch at home,,,,,,,,,,,,,d
9,23,348,B,64.35552353342497,55.22316138878958,3.2177761766712485,0.8674433906351241,B,606.4405830002215,Correct,sub_009_day_23_data.csv,1,600,,Button-Switch at home,,,,,,,,,,,,,d
9,23,349,B,57.9198893637269,33.98646409550894,2.895994468186345,0.5338581296197208,B,760.2812080003787,Correct,sub_009_day_23_data.csv,1,600,,Button-Switch at home,,,,,,,,,,,,,d
9,23,350,B,42.13659681036974,32.882094357332264,2.1068298405184867,0.5165107303382072,B,559.2318329981936,Correct,sub_009_day_23_data.csv,1,600,,Button-Switch at home,,,,,,,,,,,,,d
9,23,351,A,42.78319833580931,50.53336194384386,2.1391599167904656,0.7937761932198694,A,714.640917001816,Correct,sub_009_day_23_data.csv,1,600,,Button-Switch at home,,,,,,,,,,,,,k
9,23,352,A,25.110177568453015,38.05935004501268,1.255508878422651,0.5978348725090709,A,539.4496240005537,Correct,sub_009_day_23_data.csv,1,600,,Button-Switch at home,,,,,,,,,,,,,k
9,23,353,A,58.71944121906692,71.239065098428,2.9359720609533464,1.1190206178091322,A,483.90391599969007,Correct,sub_009_day_23_data.csv,1,600,,Button-Switch at home,,,,,,,,,,,,,k
9,23,354,A,55.72032961233454,79.58124210706256,2.786016480616727,1.2500592278354925,A,404.07895799944527,Correct,sub_009_day_23_data.csv,1,600,,Button-Switch at home,,,,,,,,,,,,,k
9,23,355,B,75.65280323956559,46.77417388310163,3.782640161978279,0.7347270052444183,B,441.73187499836786,Correct,sub_009_day_23_data.csv,1,600,,Button-Switch at home,,,,,,,,,,,,,d
9,23,356,B,78.87238565189395,65.8373413926523,3.943619282594698,1.0341705402551984,B,461.5982499999518,Correct,sub_009_day_23_data.csv,1,600,,Button-Switch at home,,,,,,,,,,,,,d
9,23,357,A,24.322639783088917,43.845496136872846,1.2161319891544458,0.6887234427829969,A,429.9834999983432,Correct,sub_009_day_23_data.csv,1,600,,Button-Switch at home,,,,,,,,,,,,,k
9,23,358,A,58.34379911538851,74.82859836195314,2.917189955769425,1.175404874461666,A,579.797457998211,Correct,sub_009_day_23_data.csv,1,600,,Button-Switch at home,,,,,,,,,,,,,k
9,23,359,B,55.19601409537325,24.615292862314675,2.759800704768663,0.3866561161110453,B,526.2237909992109,Correct,sub_009_day_23_data.csv,1,600,,Button-Switch at home,,,,,,,,,,,,,d
9,23,360,A,57.72419343819464,70.7323188108023,2.886209671909732,1.1110606657369382,A,363.8229579992185,Correct,sub_009_day_23_data.csv,1,600,,Button-Switch at home,,,,,,,,,,,,,k
9,23,361,B,73.0223531710008,44.417871936176134,3.65111765855004,0.6977143008139159,B,511.82254100058344,Correct,sub_009_day_23_data.csv,1,600,,Button-Switch at home,,,,,,,,,,,,,d
9,23,362,B,78.73821213956688,52.46801495880818,3.936910606978344,0.8241656517151558,B,427.19362399657257,Correct,sub_009_day_23_data.csv,1,600,,Button-Switch at home,,,,,,,,,,,,,d
9,23,363,B,80.2246805829977,65.35901496174165,4.011234029149886,1.0266570062483646,B,791.652708001493,Correct,sub_009_day_23_data.csv,1,600,,Button-Switch at home,,,,,,,,,,,,,d
9,23,364,A,23.723900940973785,34.37700524302737,1.186195047048689,0.539992735619563,A,465.6257080023352,Correct,sub_009_day_23_data.csv,1,600,,Button-Switch at home,,,,,,,,,,,,,k
9,23,365,B,86.80114113093296,68.81650950295517,4.340057056546648,1.0809672035008808,B,388.7657500017667,Correct,sub_009_day_23_data.csv,1,600,,Button-Switch at home,,,,,,,,,,,,,d
9,23,366,B,81.72608546102629,57.05382493648277,4.086304273051314,0.8961993863982621,B,436.2418739983696,Correct,sub_009_day_23_data.csv,1,600,,Button-Switch at home,,,,,,,,,,,,,d
9,23,367,B,64.16590940708114,55.39208797020541,3.208295470354057,0.8700968831709843,A,980.95549899881,Incorrect,sub_009_day_23_data.csv,0,600,,Button-Switch at home,,,,,,,,,,,,,k
9,23,368,B,64.72049145063454,54.28442918177629,3.236024572531727,0.8526978196089189,A,512.0092079996539,Incorrect,sub_009_day_23_data.csv,0,600,,Button-Switch at home,,,,,,,,,,,,,k
9,23,369,A,45.85215899725956,65.66365179548944,2.292607949862978,1.0314422304429394,A,480.3887919988483,Correct,sub_009_day_23_data.csv,1,600,,Button-Switch at home,,,,,,,,,,,,,k
9,23,370,B,57.92875824807159,48.73076858366511,2.896437912403579,0.765461122931133,B,905.207166000764,Correct,sub_009_day_23_data.csv,1,600,,Button-Switch at home,,,,,,,,,,,,,d
9,23,371,A,40.945757611255466,65.53027491783044,2.047287880562773,1.029347151347878,A,376.3265829984448,Correct,sub_009_day_23_data.csv,1,600,,Button-Switch at home,,,,,,,,,,,,,k
9,23,372,B,36.91349458782036,14.310248663026837,1.845674729391018,0.2247848603540413,B,456.6049999993993,Correct,sub_009_day_23_data.csv,1,600,,Button-Switch at home,,,,,,,,,,,,,d
9,23,373,B,51.44200591837056,28.06627535068977,2.5721002959185277,0.4408640222767763,B,552.5798749986279,Correct,sub_009_day_23_data.csv,1,600,,Button-Switch at home,,,,,,,,,,,,,d
9,23,374,B,55.76648086123708,28.11899573104693,2.788324043061854,0.441692152074899,B,715.3934579982888,Correct,sub_009_day_23_data.csv,1,600,,Button-Switch at home,,,,,,,,,,,,,d
9,23,375,A,27.66546641580383,53.18321766798218,1.3832733207901915,0.8354000295999986,A,338.3182500001567,Correct,sub_009_day_23_data.csv,1,600,,Button-Switch at home,,,,,,,,,,,,,k
9,23,376,A,41.463691778910494,58.312180770583,2.0731845889455247,0.9159655936183178,A,565.2426660017227,Correct,sub_009_day_23_data.csv,1,600,,Button-Switch at home,,,,,,,,,,,,,k
9,23,377,B,36.43564994103189,12.794571100409346,1.8217824970515943,0.2009766528743914,B,493.2963329993072,Correct,sub_009_day_23_data.csv,1,600,,Button-Switch at home,,,,,,,,,,,,,d
9,23,378,A,30.47463121038127,57.82192939409264,1.523731560519063,0.9082647430043458,A,327.0669160010584,Correct,sub_009_day_23_data.csv,1,600,,Button-Switch at home,,,,,,,,,,,,,k
9,23,379,B,58.421833645021806,34.705402490413846,2.9210916822510904,0.5451511875188053,B,1243.2712499976333,Correct,sub_009_day_23_data.csv,1,600,,Button-Switch at home,,,,,,,,,,,,,d
9,23,380,A,30.715020090727915,54.62150645058534,1.5357510045363958,0.8579926169658322,A,513.9856660025544,Correct,sub_009_day_23_data.csv,1,600,,Button-Switch at home,,,,,,,,,,,,,k
9,23,381,B,53.14057605347659,27.9400391413255,2.6570288026738296,0.4388811085369973,B,370.2193749995786,Correct,sub_009_day_23_data.csv,1,600,,Button-Switch at home,,,,,,,,,,,,,d
9,23,382,B,81.75166832780846,67.14577355599214,4.087583416390423,1.0547233446155435,B,433.0489159983699,Correct,sub_009_day_23_data.csv,1,600,,Button-Switch at home,,,,,,,,,,,,,d
9,23,383,B,67.88859582852749,58.52431593989761,3.3944297914263744,0.9192978050657518,B,364.00037400017027,Correct,sub_009_day_23_data.csv,1,600,,Button-Switch at home,,,,,,,,,,,,,d
9,23,384,B,45.8688894116538,24.66802678225037,2.29344447058269,0.3874844585883701,B,360.5360830006248,Correct,sub_009_day_23_data.csv,1,600,,Button-Switch at home,,,,,,,,,,,,,d
9,23,385,A,59.23637514392493,79.53783787764519,2.9618187571962467,1.2493774357941303,B,399.567250002292,Incorrect,sub_009_day_23_data.csv,0,600,,Button-Switch at home,,,,,,,,,,,,,d
9,23,386,A,68.34966362896483,84.08627552159521,3.4174831814482416,1.320824127231854,B,459.0718330000527,Incorrect,sub_009_day_23_data.csv,0,600,,Button-Switch at home,,,,,,,,,,,,,d
9,23,387,B,66.21162009870835,53.70636765869089,3.3105810049354174,0.8436176504376788,B,1072.194500000478,Correct,sub_009_day_23_data.csv,1,600,,Button-Switch at home,,,,,,,,,,,,,d
9,23,388,A,26.80098027738236,38.99264409821815,1.340049013869118,0.6124950212150176,A,443.77054199867416,Correct,sub_009_day_23_data.csv,1,600,,Button-Switch at home,,,,,,,,,,,,,k
9,23,389,A,51.39016268535703,80.52655557780665,2.5695081342678514,1.2649081771106376,A,483.981124998536,Correct,sub_009_day_23_data.csv,1,600,,Button-Switch at home,,,,,,,,,,,,,k
9,23,390,B,65.67950869894575,52.01483487960906,3.283975434947288,0.8170471156773298,B,1075.6724580023729,Correct,sub_009_day_23_data.csv,1,600,,Button-Switch at home,,,,,,,,,,,,,d
9,23,391,A,54.03904621384997,83.73923488806312,2.7019523106924987,1.315372825707846,A,412.5133329980599,Correct,sub_009_day_23_data.csv,1,600,,Button-Switch at home,,,,,,,,,,,,,k
9,23,392,B,37.28415210484237,26.79017076924761,1.8642076052421184,0.4208190183854216,B,514.660458000435,Correct,sub_009_day_23_data.csv,1,600,,Button-Switch at home,,,,,,,,,,,,,d
9,23,393,A,56.18462225050381,79.49552325271239,2.8092311125251905,1.2487127592199891,A,479.3264159998216,Correct,sub_009_day_23_data.csv,1,600,,Button-Switch at home,,,,,,,,,,,,,k
9,23,394,A,51.23663579448747,71.7232908155908,2.5618317897243736,1.1266268175877217,A,444.05983300021035,Correct,sub_009_day_23_data.csv,1,600,,Button-Switch at home,,,,,,,,,,,,,k
9,23,395,B,38.08028387132374,21.443279124654808,1.904014193566187,0.3368302408344545,B,378.5892909982067,Correct,sub_009_day_23_data.csv,1,600,,Button-Switch at home,,,,,,,,,,,,,d
9,23,396,A,55.68481324492653,66.48736632110834,2.7842406622463263,1.044381107954637,A,469.8721249988011,Correct,sub_009_day_23_data.csv,1,600,,Button-Switch at home,,,,,,,,,,,,,k
9,23,397,A,64.44761502626346,80.292043044807,3.2223807513131733,1.2612244628564055,A,563.9832500019111,Correct,sub_009_day_23_data.csv,1,600,,Button-Switch at home,,,,,,,,,,,,,k
9,23,398,B,63.897709785555,48.39631877816386,3.19488548927775,0.7602075976713468,B,507.7817080018576,Correct,sub_009_day_23_data.csv,1,600,,Button-Switch at home,,,,,,,,,,,,,d
9,23,399,B,82.54015037213644,62.46241955589198,4.127007518606822,0.9811573920111684,B,1044.2966249975143,Correct,sub_009_day_23_data.csv,1,600,,Button-Switch at home,,,,,,,,,,,,,d
9,23,400,B,44.50830967449783,21.71913843566325,2.2254154837248916,0.3411634287588969,B,1932.2575420010253,Correct,sub_009_day_23_data.csv,1,600,,Button-Switch at home,,,,,,,,,,,,,d
9,23,401,A,41.55954692059023,63.91583873166278,2.0779773460295115,1.003987647037109,A,382.9744169997866,Correct,sub_009_day_23_data.csv,1,600,,Button-Switch at home,,,,,,,,,,,,,k
9,23,402,B,40.52902450874667,28.951137849768426,2.0264512254373335,0.4547634099094894,B,561.9032909999078,Correct,sub_009_day_23_data.csv,1,600,,Button-Switch at home,,,,,,,,,,,,,d
9,23,403,B,53.4663121027571,44.509077368762675,2.673315605137855,0.6991469523988226,B,421.815792000416,Correct,sub_009_day_23_data.csv,1,600,,Button-Switch at home,,,,,,,,,,,,,d
9,23,404,B,86.07679651057563,66.81789240474656,4.303839825528781,1.0495729995355252,B,469.20350000073086,Correct,sub_009_day_23_data.csv,1,600,,Button-Switch at home,,,,,,,,,,,,,d
9,23,405,A,44.91217307032025,51.90726454087904,2.2456086535160127,0.8153574047478377,A,340.08970799914096,Correct,sub_009_day_23_data.csv,1,600,,Button-Switch at home,,,,,,,,,,,,,k
9,23,406,B,84.20309489160908,66.7788754441371,4.210154744580454,1.0489601225514449,B,515.0322910012619,Correct,sub_009_day_23_data.csv,1,600,,Button-Switch at home,,,,,,,,,,,,,d
9,23,407,A,38.16087038449837,48.11332283500035,1.9080435192249183,0.7557623077911559,A,402.2123329996248,Correct,sub_009_day_23_data.csv,1,600,,Button-Switch at home,,,,,,,,,,,,,k
9,23,408,A,27.015579924093725,50.55167384395512,1.3507789962046863,0.7940638358741836,A,372.7399579984194,Correct,sub_009_day_23_data.csv,1,600,,Button-Switch at home,,,,,,,,,,,,,k
9,23,409,B,62.97575351387645,34.795275160138104,3.1487876756938227,0.5465629041136264,B,561.7113750013232,Correct,sub_009_day_23_data.csv,1,600,,Button-Switch at home,,,,,,,,,,,,,d
9,23,410,B,44.31660031716892,35.66224233565464,2.215830015858446,0.5601811926611576,A,629.1054579996853,Incorrect,sub_009_day_23_data.csv,0,600,,Button-Switch at home,,,,,,,,,,,,,k
9,23,411,A,24.054673737481437,52.54825226009886,1.202733686874072,0.8254260162965491,A,711.3671669976611,Correct,sub_009_day_23_data.csv,1,600,,Button-Switch at home,,,,,,,,,,,,,k
9,23,412,A,37.607309399354826,52.35399222655179,1.8803654699677412,0.8223745868251612,A,812.2318749992701,Correct,sub_009_day_23_data.csv,1,600,,Button-Switch at home,,,,,,,,,,,,,k
9,23,413,B,53.305340259623286,38.875135230666814,2.6652670129811646,0.6106491962398631,B,711.3943330004986,Correct,sub_009_day_23_data.csv,1,600,,Button-Switch at home,,,,,,,,,,,,,d
9,23,414,B,68.17382090591813,35.28029187713877,3.4086910452959067,0.5541815288886142,B,412.9537080007139,Correct,sub_009_day_23_data.csv,1,600,,Button-Switch at home,,,,,,,,,,,,,d
9,23,415,A,35.16030957641395,56.66234491173002,1.7580154788206976,0.8900500325493101,A,402.1529579986236,Correct,sub_009_day_23_data.csv,1,600,,Button-Switch at home,,,,,,,,,,,,,k
9,23,416,A,39.60209601690745,68.88145620602005,1.9801048008453728,1.0819873839269982,A,542.1690830007719,Correct,sub_009_day_23_data.csv,1,600,,Button-Switch at home,,,,,,,,,,,,,k
9,23,417,A,38.18378898338462,49.33463342783224,1.9091894491692312,0.774946609722116,A,542.9670409976097,Correct,sub_009_day_23_data.csv,1,600,,Button-Switch at home,,,,,,,,,,,,,k
9,23,418,A,40.89367708087092,64.6426708918791,2.044683854043546,1.0154046999117508,A,449.90233299904503,Correct,sub_009_day_23_data.csv,1,600,,Button-Switch at home,,,,,,,,,,,,,k
9,23,419,A,52.7552738421262,75.33493874556973,2.63776369210631,1.1833584506085943,A,395.9575410008256,Correct,sub_009_day_23_data.csv,1,600,,Button-Switch at home,,,,,,,,,,,,,k
9,23,420,B,35.320000576217765,14.200854318795194,1.766000028810888,0.2230664980131293,A,484.6913740002492,Incorrect,sub_009_day_23_data.csv,0,600,,Button-Switch at home,,,,,,,,,,,,,k
9,23,421,B,59.589875944240205,42.96615544156449,2.97949379721201,0.6749107914410806,B,437.6168740018329,Correct,sub_009_day_23_data.csv,1,600,,Button-Switch at home,,,,,,,,,,,,,d
9,23,422,B,30.635790463889045,12.92469031075086,1.531789523194452,0.2030205606508904,B,734.7101669984113,Correct,sub_009_day_23_data.csv,1,600,,Button-Switch at home,,,,,,,,,,,,,d
9,23,423,A,55.7949818186179,80.20110305181882,2.789749090930895,1.25979598078696,A,355.4951659971266,Correct,sub_009_day_23_data.csv,1,600,,Button-Switch at home,,,,,,,,,,,,,k
9,23,424,A,43.328112345095654,57.168899241889065,2.166405617254783,0.8980069693606689,A,621.0311660033767,Correct,sub_009_day_23_data.csv,1,600,,Button-Switch at home,,,,,,,,,,,,,k
9,23,425,B,60.521350943657374,52.55256019843226,3.0260675471828686,0.8254936852336509,A,384.9484999991546,Incorrect,sub_009_day_23_data.csv,0,600,,Button-Switch at home,,,,,,,,,,,,,k
9,23,426,B,64.12930134767295,33.46112051341192,3.2064650673836472,0.525606051929088,B,467.8253330021107,Correct,sub_009_day_23_data.csv,1,600,,Button-Switch at home,,,,,,,,,,,,,d
9,23,427,B,71.21345135182717,52.34778285475859,3.560672567591359,0.8222770502411165,B,457.4341250008729,Correct,sub_009_day_23_data.csv,1,600,,Button-Switch at home,,,,,,,,,,,,,d
9,23,428,B,45.07868935309356,36.34729979207635,2.2539344676546778,0.5709420500230645,B,449.70158300202456,Correct,sub_009_day_23_data.csv,1,600,,Button-Switch at home,,,,,,,,,,,,,d
9,23,429,B,86.20118660574457,58.165785881036626,4.3100593302872285,0.9136660280707076,B,381.9520830002148,Correct,sub_009_day_23_data.csv,1,600,,Button-Switch at home,,,,,,,,,,,,,d
9,23,430,B,60.00614652361707,39.45289088293625,3.0003073261808537,0.6197245608035612,B,410.8291669981554,Correct,sub_009_day_23_data.csv,1,600,,Button-Switch at home,,,,,,,,,,,,,d
9,23,431,A,57.08976613498968,68.14292647707778,2.854488306749484,1.0703865860724846,A,674.1912920006143,Correct,sub_009_day_23_data.csv,1,600,,Button-Switch at home,,,,,,,,,,,,,k
9,23,432,A,59.56156859756736,71.4493076587127,2.978078429878368,1.122323100223444,A,455.5519159985124,Correct,sub_009_day_23_data.csv,1,600,,Button-Switch at home,,,,,,,,,,,,,k
9,23,433,B,50.32794441673349,41.18220299652809,2.5163972208366743,0.6468885319626811,B,605.404208003165,Correct,sub_009_day_23_data.csv,1,600,,Button-Switch at home,,,,,,,,,,,,,d
9,23,434,A,54.5474670824879,82.36509906606832,2.727373354124395,1.2937879506907788,A,476.51549900183454,Correct,sub_009_day_23_data.csv,1,600,,Button-Switch at home,,,,,,,,,,,,,k
9,23,435,B,69.42321352992975,38.885293097687345,3.4711606764964875,0.6108087556419022,B,487.4879580020206,Correct,sub_009_day_23_data.csv,1,600,,Button-Switch at home,,,,,,,,,,,,,d
9,23,436,B,84.16870923229826,69.09285039700681,4.208435461614913,1.0853079561140762,B,468.5022919984476,Correct,sub_009_day_23_data.csv,1,600,,Button-Switch at home,,,,,,,,,,,,,d
9,23,437,B,83.05640263930341,55.95207807533371,4.1528201319651705,0.8788931871727547,B,400.9802500004298,Correct,sub_009_day_23_data.csv,1,600,,Button-Switch at home,,,,,,,,,,,,,d
9,23,438,B,38.4824521542312,22.01786667113862,1.92412260771156,0.3458558409088432,B,603.6624169973948,Correct,sub_009_day_23_data.csv,1,600,,Button-Switch at home,,,,,,,,,,,,,d
9,23,439,A,20.27933390361775,47.12588143282089,1.0139666951808877,0.7402516145164687,A,406.9627909993869,Correct,sub_009_day_23_data.csv,1,600,,Button-Switch at home,,,,,,,,,,,,,k
9,23,440,A,21.541387142019833,34.38599722228869,1.0770693571009915,0.5401339812995058,A,813.7380000007397,Correct,sub_009_day_23_data.csv,1,600,,Button-Switch at home,,,,,,,,,,,,,k
9,23,441,B,41.05909915261074,22.638766230418124,2.0529549576305373,0.3556089083790914,B,537.6881660013169,Correct,sub_009_day_23_data.csv,1,600,,Button-Switch at home,,,,,,,,,,,,,d
9,23,442,A,12.724726250526547,40.578676100721125,0.6362363125263273,0.6374083536521261,A,340.6338749991846,Correct,sub_009_day_23_data.csv,1,600,,Button-Switch at home,,,,,,,,,,,,,k
9,23,443,A,41.8457372683736,49.115303790478926,2.09228686341868,0.7715013878349976,A,664.1166670015082,Correct,sub_009_day_23_data.csv,1,600,,Button-Switch at home,,,,,,,,,,,,,k
9,23,444,B,37.562156104042856,27.98191054424353,1.8781078052021427,0.4395388229960112,B,534.316041997954,Correct,sub_009_day_23_data.csv,1,600,,Button-Switch at home,,,,,,,,,,,,,d
9,23,445,A,41.08756934185637,53.725916407778776,2.054378467092819,0.8439247214702855,A,493.4763749988633,Correct,sub_009_day_23_data.csv,1,600,,Button-Switch at home,,,,,,,,,,,,,k
9,23,446,B,81.48303772521353,61.40728846565341,4.074151886260677,0.96458343160283,B,496.317666998948,Correct,sub_009_day_23_data.csv,1,600,,Button-Switch at home,,,,,,,,,,,,,d
9,23,447,B,59.17348550531,34.60739607366135,2.9586742752655,0.5436117063244337,B,606.3896660016326,Correct,sub_009_day_23_data.csv,1,600,,Button-Switch at home,,,,,,,,,,,,,d
9,23,448,A,32.630299580820505,64.05148036285712,1.6315149790410255,1.0061183007975143,A,1157.864665998204,Correct,sub_009_day_23_data.csv,1,600,,Button-Switch at home,,,,,,,,,,,,,k
9,23,449,A,49.12362230203814,57.89775512800264,2.456181115101907,0.9094558108473692,A,528.1432080009836,Correct,sub_009_day_23_data.csv,1,600,,Button-Switch at home,,,,,,,,,,,,,k
9,23,450,B,57.45096557166822,39.11576949829003,2.872548278583411,0.6144290704766983,B,931.7608749988722,Correct,sub_009_day_23_data.csv,1,600,,Button-Switch at home,,,,,,,,,,,,,d
9,23,451,A,23.989115707797943,34.70070693959626,1.199455785389897,0.5450774299790397,A,602.2057500013034,Correct,sub_009_day_23_data.csv,1,600,,Button-Switch at home,,,,,,,,,,,,,k
9,23,452,B,69.68511211622247,51.825356285361025,3.484255605811123,0.814070792878819,B,415.29966599773616,Correct,sub_009_day_23_data.csv,1,600,,Button-Switch at home,,,,,,,,,,,,,d
9,23,453,A,54.589370106528705,76.58867753863527,2.729468505326435,1.203052133517671,A,536.7228329996578,Correct,sub_009_day_23_data.csv,1,600,,Button-Switch at home,,,,,,,,,,,,,k
9,23,454,A,35.45466817081378,52.72525735580702,1.7727334085406892,0.8282064058381727,A,430.3582920001645,Correct,sub_009_day_23_data.csv,1,600,,Button-Switch at home,,,,,,,,,,,,,k
9,23,455,B,68.8213316979344,40.695227036905706,3.4410665848967197,0.6392391314765584,B,392.8340419988672,Correct,sub_009_day_23_data.csv,1,600,,Button-Switch at home,,,,,,,,,,,,,d
9,23,456,A,15.31600254769879,40.27546260853027,0.7658001273849395,0.6326454872544456,A,409.7931670003163,Correct,sub_009_day_23_data.csv,1,600,,Button-Switch at home,,,,,,,,,,,,,k
9,23,457,A,31.651387501046997,52.62257320109937,1.58256937505235,0.8265934469078247,A,572.7107079983398,Correct,sub_009_day_23_data.csv,1,600,,Button-Switch at home,,,,,,,,,,,,,k
9,23,458,A,28.33241155752717,40.11493382598202,1.4166205778763583,0.630123907034729,A,481.60825000013574,Correct,sub_009_day_23_data.csv,1,600,,Button-Switch at home,,,,,,,,,,,,,k
9,23,459,B,63.216698340312114,53.148041424291264,3.1608349170156056,0.8348474824561972,B,456.4831249990675,Correct,sub_009_day_23_data.csv,1,600,,Button-Switch at home,,,,,,,,,,,,,d
9,23,460,B,37.6140001606169,15.80434086166153,1.880700008030845,0.2482540057291242,B,520.487707999564,Correct,sub_009_day_23_data.csv,1,600,,Button-Switch at home,,,,,,,,,,,,,d
9,23,461,B,53.43935270421575,32.77333683006892,2.6719676352107875,0.5148023710948416,B,399.63608300240594,Correct,sub_009_day_23_data.csv,1,600,,Button-Switch at home,,,,,,,,,,,,,d
9,23,462,A,64.16209812006954,78.44058778654414,3.2081049060034776,1.2321418716673616,A,540.4312909995497,Correct,sub_009_day_23_data.csv,1,600,,Button-Switch at home,,,,,,,,,,,,,k
9,23,463,B,37.35200791285193,19.778435618144947,1.8676003956425968,0.3106789401873143,B,475.7725409981504,Correct,sub_009_day_23_data.csv,1,600,,Button-Switch at home,,,,,,,,,,,,,d
9,23,464,B,66.85577854577781,44.19719393868028,3.3427889272888907,0.6942478989352066,B,365.85570799798006,Correct,sub_009_day_23_data.csv,1,600,,Button-Switch at home,,,,,,,,,,,,,d
9,23,465,A,28.99067422956356,38.519888816921025,1.449533711478178,0.6050689986216736,A,394.58641600140254,Correct,sub_009_day_23_data.csv,1,600,,Button-Switch at home,,,,,,,,,,,,,k
9,23,466,B,73.91740076060896,55.4548663354177,3.695870038030448,0.871083003425761,B,422.0022910012631,Correct,sub_009_day_23_data.csv,1,600,,Button-Switch at home,,,,,,,,,,,,,d
9,23,467,A,60.925969485174306,83.58533444866106,3.046298474258715,1.3129553632587971,A,575.2689169967198,Correct,sub_009_day_23_data.csv,1,600,,Button-Switch at home,,,,,,,,,,,,,k
9,23,468,B,64.35310135519778,43.77486337677336,3.217655067759889,0.6876139459818403,B,425.11875000127475,Correct,sub_009_day_23_data.csv,1,600,,Button-Switch at home,,,,,,,,,,,,,d
9,23,469,A,62.0596572137256,82.95788976865288,3.10298286068628,1.3030994852725588,A,521.7494999997143,Correct,sub_009_day_23_data.csv,1,600,,Button-Switch at home,,,,,,,,,,,,,k
9,23,470,B,76.01125632156854,44.10110248168164,3.8005628160784273,0.6927384978583082,B,454.7422910000023,Correct,sub_009_day_23_data.csv,1,600,,Button-Switch at home,,,,,,,,,,,,,d
9,23,471,A,14.147075569279366,32.51950785264714,0.7073537784639683,0.5108152348411592,A,433.99104100171826,Correct,sub_009_day_23_data.csv,1,600,,Button-Switch at home,,,,,,,,,,,,,k
9,23,472,B,46.43681529758703,16.8099124632796,2.321840764879352,0.2640494875106334,B,499.5623329996306,Correct,sub_009_day_23_data.csv,1,600,,Button-Switch at home,,,,,,,,,,,,,d
9,23,473,B,81.06856643201434,67.72519018096095,4.053428321600717,1.0638247996773926,B,499.6430829996825,Correct,sub_009_day_23_data.csv,1,600,,Button-Switch at home,,,,,,,,,,,,,d
9,23,474,A,64.47170196151467,83.61101085279662,3.2235850980757332,1.313358687271812,A,513.1826659999206,Correct,sub_009_day_23_data.csv,1,600,,Button-Switch at home,,,,,,,,,,,,,k
9,23,475,B,44.22040893999862,22.14602232011382,2.211020446999931,0.3478689051355257,B,415.6276659996365,Correct,sub_009_day_23_data.csv,1,600,,Button-Switch at home,,,,,,,,,,,,,d
9,23,476,B,30.971800006151295,13.56189952110881,1.5485900003075648,0.2130298195211918,B,683.3244170011312,Correct,sub_009_day_23_data.csv,1,600,,Button-Switch at home,,,,,,,,,,,,,d
9,23,477,B,62.056224311321984,33.922174623043716,3.1028112155660996,0.5328482729477213,B,368.91499899866176,Correct,sub_009_day_23_data.csv,1,600,,Button-Switch at home,,,,,,,,,,,,,d
9,23,478,B,47.61721382340066,19.55860473600398,2.3808606911700334,0.3072258447654831,B,548.7668329988082,Correct,sub_009_day_23_data.csv,1,600,,Button-Switch at home,,,,,,,,,,,,,d
9,23,479,A,44.528262234734584,56.78060752152725,2.226413111736729,0.8919076972799768,A,512.5569580013689,Correct,sub_009_day_23_data.csv,1,600,,Button-Switch at home,,,,,,,,,,,,,k
9,23,480,A,30.350145234825828,60.78327131563834,1.5175072617412917,0.954781393131823,A,411.9183330003579,Correct,sub_009_day_23_data.csv,1,600,,Button-Switch at home,,,,,,,,,,,,,k
9,23,481,A,30.933602456484437,40.724779691915856,1.5466801228242215,0.6397033434959283,B,987.5989579995804,Incorrect,sub_009_day_23_data.csv,0,600,,Button-Switch at home,,,,,,,,,,,,,d
9,23,482,A,51.16724144564945,73.23996881704946,2.5583620722824723,1.1504507399239403,A,501.7898329970194,Correct,sub_009_day_23_data.csv,1,600,,Button-Switch at home,,,,,,,,,,,,,k
9,23,483,A,40.64047233759742,62.060208432351494,2.0320236168798713,0.974839474456634,A,440.6371240002045,Correct,sub_009_day_23_data.csv,1,600,,Button-Switch at home,,,,,,,,,,,,,k
9,23,484,A,28.48703701058924,59.76205567790734,1.424351850529462,0.9387401754056894,A,517.0476669991331,Correct,sub_009_day_23_data.csv,1,600,,Button-Switch at home,,,,,,,,,,,,,k
9,23,485,B,56.65224608419637,34.697977702648494,2.832612304209819,0.5450345592253149,B,624.4222500026808,Correct,sub_009_day_23_data.csv,1,600,,Button-Switch at home,,,,,,,,,,,,,d
9,23,486,B,50.05297525090456,28.867787541433103,2.502648762545228,0.4534541463277859,B,550.6709580004099,Correct,sub_009_day_23_data.csv,1,600,,Button-Switch at home,,,,,,,,,,,,,d
9,23,487,B,35.26256009491601,10.8058501082746,1.763128004745801,0.1697378965797397,B,513.8988750004501,Correct,sub_009_day_23_data.csv,1,600,,Button-Switch at home,,,,,,,,,,,,,d
9,23,488,B,74.07364481165243,55.604516679439314,3.7036822405826215,0.8734337055326884,B,480.8672910003224,Correct,sub_009_day_23_data.csv,1,600,,Button-Switch at home,,,,,,,,,,,,,d
9,23,489,A,58.2256907420994,72.38745254646048,2.91128453710497,1.1370594456602,A,577.3296659972402,Correct,sub_009_day_23_data.csv,1,600,,Button-Switch at home,,,,,,,,,,,,,k
9,23,490,A,31.97127101883535,52.032844844680795,1.5985635509417673,0.8173300155471337,A,504.2523740012257,Correct,sub_009_day_23_data.csv,1,600,,Button-Switch at home,,,,,,,,,,,,,k
9,23,491,B,50.357122846304435,31.980251005562735,2.517856142315222,0.5023446080951675,B,470.15874899807386,Correct,sub_009_day_23_data.csv,1,600,,Button-Switch at home,,,,,,,,,,,,,d
9,23,492,B,63.83635773740746,48.28532876671094,3.191817886870373,0.758464170648335,B,810.7329170015873,Correct,sub_009_day_23_data.csv,1,600,,Button-Switch at home,,,,,,,,,,,,,d
9,23,493,B,70.81824202008573,48.48090220028929,3.5409121010042868,0.7615362309591704,B,445.02558299791417,Correct,sub_009_day_23_data.csv,1,600,,Button-Switch at home,,,,,,,,,,,,,d
9,23,494,A,27.366689410493265,37.67198444157731,1.3683344705246634,0.5917501478390412,A,372.9697500020848,Correct,sub_009_day_23_data.csv,1,600,,Button-Switch at home,,,,,,,,,,,,,k
9,23,495,B,59.963314359498014,37.227312807233034,2.9981657179749006,0.5847652621404625,B,433.4317079992616,Correct,sub_009_day_23_data.csv,1,600,,Button-Switch at home,,,,,,,,,,,,,d
9,23,496,B,76.0302157184872,63.31219005299394,3.80151078592436,0.9945055557658324,B,375.8919989995775,Correct,sub_009_day_23_data.csv,1,600,,Button-Switch at home,,,,,,,,,,,,,d
9,23,497,B,75.31090693220155,46.91847444905606,3.765545346610077,0.7369936732339748,B,427.9108329974406,Correct,sub_009_day_23_data.csv,1,600,,Button-Switch at home,,,,,,,,,,,,,d
9,23,498,A,69.48716453436441,88.79820288574709,3.4743582267182207,1.394838909189195,A,602.2489999995742,Correct,sub_009_day_23_data.csv,1,600,,Button-Switch at home,,,,,,,,,,,,,k
9,23,499,A,58.78836232005889,80.58144459606822,2.9394181160029444,1.2657703717933042,A,433.5707499994896,Correct,sub_009_day_23_data.csv,1,600,,Button-Switch at home,,,,,,,,,,,,,k
9,23,500,A,28.38844500703891,45.11387686774356,1.4194222503519456,0.7086471207132884,A,434.8598749966186,Correct,sub_009_day_23_data.csv,1,600,,Button-Switch at home,,,,,,,,,,,,,k
9,23,501,B,83.02709984114239,58.245783714895055,4.15135499205712,0.9149226311064717,B,460.2382499979285,Correct,sub_009_day_23_data.csv,1,600,,Button-Switch at home,,,,,,,,,,,,,d
9,23,502,A,23.391625207009685,45.48739262371922,1.1695812603504845,0.7145142924881543,A,437.5977909985522,Correct,sub_009_day_23_data.csv,1,600,,Button-Switch at home,,,,,,,,,,,,,k
9,23,503,B,49.33437357818551,23.845084015740504,2.4667186789092757,0.3745577038404088,B,555.4627909987175,Correct,sub_009_day_23_data.csv,1,600,,Button-Switch at home,,,,,,,,,,,,,d
9,23,504,A,61.47559452744207,78.17849681839047,3.0737797263721034,1.2280249563667425,A,557.7438750005967,Correct,sub_009_day_23_data.csv,1,600,,Button-Switch at home,,,,,,,,,,,,,k
9,23,505,A,59.44502267511145,71.77004325041783,2.972251133755573,1.127361203116672,A,493.1896659982158,Correct,sub_009_day_23_data.csv,1,600,,Button-Switch at home,,,,,,,,,,,,,k
9,23,506,A,51.50126465271085,58.861829202007215,2.5750632326355425,0.9245994509894152,A,486.1969580015284,Correct,sub_009_day_23_data.csv,1,600,,Button-Switch at home,,,,,,,,,,,,,k
9,23,507,B,38.32910627111258,18.59923840190013,1.916455313555629,0.292156153628873,B,926.3985409997986,Correct,sub_009_day_23_data.csv,1,600,,Button-Switch at home,,,,,,,,,,,,,d
9,23,508,A,35.257967243570945,58.15575775970839,1.7628983621785472,0.9135085067092376,A,1087.2295000008307,Correct,sub_009_day_23_data.csv,1,600,,Button-Switch at home,,,,,,,,,,,,,k
9,23,509,A,19.932865505100896,40.94348339789043,0.9966432752550448,0.6431387332759412,A,401.4718329999596,Correct,sub_009_day_23_data.csv,1,600,,Button-Switch at home,,,,,,,,,,,,,k
9,23,510,A,18.41130765563289,43.68447277045566,0.9205653827816442,0.6861940936580343,A,446.12012499783305,Correct,sub_009_day_23_data.csv,1,600,,Button-Switch at home,,,,,,,,,,,,,k
9,23,511,A,62.63843458505032,76.43221611061276,3.1319217292525163,1.2005944431534423,A,473.0251250002766,Correct,sub_009_day_23_data.csv,1,600,,Button-Switch at home,,,,,,,,,,,,,k
9,23,512,B,32.88956244628241,20.505556259072,1.6444781223141205,0.322100524506364,B,474.0927079983521,Correct,sub_009_day_23_data.csv,1,600,,Button-Switch at home,,,,,,,,,,,,,d
9,23,513,A,19.147293215227524,34.28310951204758,0.9573646607613762,0.5385178249263152,A,675.354208000499,Correct,sub_009_day_23_data.csv,1,600,,Button-Switch at home,,,,,,,,,,,,,k
9,23,514,B,52.22539521867292,28.01155032955468,2.611269760933646,0.4400044036549486,B,551.8529159999161,Correct,sub_009_day_23_data.csv,1,600,,Button-Switch at home,,,,,,,,,,,,,d
9,23,515,B,76.121373851525,43.90708690758094,3.8060686925762495,0.6896909083469244,B,440.4272499996296,Correct,sub_009_day_23_data.csv,1,600,,Button-Switch at home,,,,,,,,,,,,,d
9,23,516,A,45.389074195960774,55.84329050338021,2.2694537097980385,0.8771843559884996,A,565.3374159992381,Correct,sub_009_day_23_data.csv,1,600,,Button-Switch at home,,,,,,,,,,,,,k
9,23,517,A,40.23385466524059,48.71509643897392,2.01169273326203,0.7652149454579938,A,508.35608299894375,Correct,sub_009_day_23_data.csv,1,600,,Button-Switch at home,,,,,,,,,,,,,k
9,23,518,B,78.40976910010218,63.03258211578673,3.920488455005109,0.9901134845587548,B,445.33079100074247,Correct,sub_009_day_23_data.csv,1,600,,Button-Switch at home,,,,,,,,,,,,,d
9,23,519,B,64.06915161323201,55.78056329564113,3.2034575806616004,0.8761990393134332,B,439.69641600051546,Correct,sub_009_day_23_data.csv,1,600,,Button-Switch at home,,,,,,,,,,,,,d
9,23,520,A,28.708471152672104,44.3685282232434,1.4354235576336052,0.6969392115836643,A,369.4370830016851,Correct,sub_009_day_23_data.csv,1,600,,Button-Switch at home,,,,,,,,,,,,,k
9,23,521,B,50.81197053319192,33.64464277016808,2.540598526659596,0.528488812797065,B,755.1356250005483,Correct,sub_009_day_23_data.csv,1,600,,Button-Switch at home,,,,,,,,,,,,,d
9,23,522,A,51.94825355592617,66.49484592000866,2.597412677796308,1.044498597219422,A,375.9519160012133,Correct,sub_009_day_23_data.csv,1,600,,Button-Switch at home,,,,,,,,,,,,,k
9,23,523,A,34.706705936153114,57.719812122749026,1.735335296807656,0.9066606886570572,A,425.6874999991851,Correct,sub_009_day_23_data.csv,1,600,,Button-Switch at home,,,,,,,,,,,,,k
9,23,524,B,58.671636351644835,50.252277490075926,2.933581817582242,0.7893609289448912,B,485.5297080030141,Correct,sub_009_day_23_data.csv,1,600,,Button-Switch at home,,,,,,,,,,,,,d
9,23,525,B,61.10113068875276,28.51673263644352,3.0550565344376377,0.4479397887751762,B,415.5899159995897,Correct,sub_009_day_23_data.csv,1,600,,Button-Switch at home,,,,,,,,,,,,,d
9,23,526,B,75.477580415583,58.7220498502103,3.7738790207791504,0.9224038020657714,B,458.26520799892023,Correct,sub_009_day_23_data.csv,1,600,,Button-Switch at home,,,,,,,,,,,,,d
9,23,527,A,37.53743505496815,58.65436379152611,1.8768717527484071,0.921340591942208,A,428.2855000019481,Correct,sub_009_day_23_data.csv,1,600,,Button-Switch at home,,,,,,,,,,,,,k
9,23,528,A,50.209709834530045,61.59808639002998,2.5104854917265023,0.967580478390538,A,569.7876660015027,Correct,sub_009_day_23_data.csv,1,600,,Button-Switch at home,,,,,,,,,,,,,k
9,23,529,A,52.90540234764797,70.93661989675759,2.645270117382398,1.114269819690726,A,587.9450419997738,Correct,sub_009_day_23_data.csv,1,600,,Button-Switch at home,,,,,,,,,,,,,k
9,23,530,B,59.85059116144836,42.203529027742555,2.992529558072418,0.662931483745598,B,489.4153329987603,Correct,sub_009_day_23_data.csv,1,600,,Button-Switch at home,,,,,,,,,,,,,d
9,23,531,B,36.64245199035948,14.87510521855975,1.8321225995179744,0.2336576063800125,B,563.0969160010864,Correct,sub_009_day_23_data.csv,1,600,,Button-Switch at home,,,,,,,,,,,,,d
9,23,532,B,72.34251626245515,48.24869539681947,3.6171258131227577,0.7578887350196987,B,411.6987080014951,Correct,sub_009_day_23_data.csv,1,600,,Button-Switch at home,,,,,,,,,,,,,d
9,23,533,A,59.7716688733065,68.8728405105747,2.988583443665325,1.081852048899415,A,476.29283299829694,Correct,sub_009_day_23_data.csv,1,600,,Button-Switch at home,,,,,,,,,,,,,k
9,23,534,B,56.83832446899377,33.42234284089581,2.8419162234496884,0.5249969336735885,B,355.89724899909925,Correct,sub_009_day_23_data.csv,1,600,,Button-Switch at home,,,,,,,,,,,,,d
9,23,535,A,46.54999013336867,59.36014387807722,2.3274995066684334,0.9324269596170026,A,786.0702500001935,Correct,sub_009_day_23_data.csv,1,600,,Button-Switch at home,,,,,,,,,,,,,k
9,23,536,B,73.93968736312854,44.45382132417337,3.696984368156427,0.6982789924800817,B,540.3858329991635,Correct,sub_009_day_23_data.csv,1,600,,Button-Switch at home,,,,,,,,,,,,,d
9,23,537,B,52.95229955649054,36.64332870608268,2.647614977824527,0.5755920613305266,B,657.3873329980415,Correct,sub_009_day_23_data.csv,1,600,,Button-Switch at home,,,,,,,,,,,,,d
9,23,538,B,63.2082493294277,42.9757221356569,3.160412466471385,0.6750610647204799,B,438.90579200160573,Correct,sub_009_day_23_data.csv,1,600,,Button-Switch at home,,,,,,,,,,,,,d
9,23,539,B,62.75327207324925,30.244507542432597,3.1376636036624626,0.4750796135337367,B,440.634874998068,Correct,sub_009_day_23_data.csv,1,600,,Button-Switch at home,,,,,,,,,,,,,d
9,23,540,B,48.63225644094658,32.97234034441102,2.4316128220473288,0.5179283109883202,B,604.4085829998949,Correct,sub_009_day_23_data.csv,1,600,,Button-Switch at home,,,,,,,,,,,,,d
9,23,541,A,50.43118323625061,77.15923864872167,2.5215591618125304,1.212014486477028,A,788.0084169992188,Correct,sub_009_day_23_data.csv,1,600,,Button-Switch at home,,,,,,,,,,,,,k
9,23,542,B,82.72466811394557,66.73757855746459,4.136233405697278,1.0483114325725122,B,448.4140000022307,Correct,sub_009_day_23_data.csv,1,600,,Button-Switch at home,,,,,,,,,,,,,d
9,23,543,B,71.78628673075806,51.6445769470551,3.5893143365379037,0.8112311176731055,B,460.4698750008538,Correct,sub_009_day_23_data.csv,1,600,,Button-Switch at home,,,,,,,,,,,,,d
9,23,544,A,37.594731866849536,46.94760471425117,1.8797365933424768,0.7374512503696451,A,657.8817489971698,Correct,sub_009_day_23_data.csv,1,600,,Button-Switch at home,,,,,,,,,,,,,k
9,23,545,B,48.326460982556064,19.86896667961042,2.416323049127803,0.3121009987754224,B,458.5996249988966,Correct,sub_009_day_23_data.csv,1,600,,Button-Switch at home,,,,,,,,,,,,,d
9,23,546,A,41.989334298317985,67.269261998304,2.099466714915899,1.0566630965313946,A,515.3255409968551,Correct,sub_009_day_23_data.csv,1,600,,Button-Switch at home,,,,,,,,,,,,,k
9,23,547,B,36.92064605600041,19.40897241573301,1.8460323028000205,0.3048754257749688,B,494.0939580010309,Correct,sub_009_day_23_data.csv,1,600,,Button-Switch at home,,,,,,,,,,,,,d
9,23,548,A,17.636301633268577,42.05723558891347,0.8818150816634288,0.6606335117821287,A,408.2024999988789,Correct,sub_009_day_23_data.csv,1,600,,Button-Switch at home,,,,,,,,,,,,,k
9,23,549,B,83.40235636341535,64.18970079404649,4.170117818170768,1.008289462253517,B,459.5499999995809,Correct,sub_009_day_23_data.csv,1,600,,Button-Switch at home,,,,,,,,,,,,,d
9,23,550,A,20.443040471714376,39.12269102833484,1.0221520235857189,0.6145377936164003,A,536.821042001975,Correct,sub_009_day_23_data.csv,1,600,,Button-Switch at home,,,,,,,,,,,,,k
9,23,551,A,61.99827317868627,73.12521361703736,3.099913658934314,1.1486481694573445,A,608.7263330009591,Correct,sub_009_day_23_data.csv,1,600,,Button-Switch at home,,,,,,,,,,,,,k
9,23,552,B,36.67875408863749,26.185182576536683,1.8339377044318743,0.4113158860767754,B,493.80770799689344,Correct,sub_009_day_23_data.csv,1,600,,Button-Switch at home,,,,,,,,,,,,,d
9,23,553,B,56.13926561018722,44.6964542244082,2.806963280509361,0.7020902611645664,B,393.6113329982618,Correct,sub_009_day_23_data.csv,1,600,,Button-Switch at home,,,,,,,,,,,,,d
9,23,554,A,62.06708802622848,80.13401793515682,3.1033544013114245,1.258742210238607,B,443.1643750031071,Incorrect,sub_009_day_23_data.csv,0,600,,Button-Switch at home,,,,,,,,,,,,,d
