subject,day,trial,cat,x,y,xt,yt,resp,rt,fb,f_name,acc,n_trials,block,session_type,ns_left_digit,ns_right_digit,ns_left_size,ns_right_size,ns_congruent,ns_cue,ns_correct_side,ns_resp,ns_rt,ns_fb,acc_stroop,acc_stroop_mean,resp_key
9,22,0,A,38.63792494351903,56.38383532086354,1.931896247175952,0.885675214126208,A,2597.3660000017844,Correct,sub_009_day_22_data.csv,1,362,,Dual-Task at home,4.0,2.0,big,small,True,Size,left,left,3415.0635409896495,Correct,1.0,0.9226519337016574,
9,22,1,B,65.91642432980747,38.54809580218047,3.2958212164903733,0.6055120729100286,B,1702.1184170007473,Correct,sub_009_day_22_data.csv,1,362,,Dual-Task at home,7.0,2.0,small,big,False,Size,right,left,2260.075500002131,Incorrect,0.0,0.9226519337016574,
9,22,2,B,60.144829289869115,39.03200868071588,3.007241464493456,0.6131133586309503,B,1305.4352080071112,Correct,sub_009_day_22_data.csv,1,362,,Dual-Task at home,2.0,4.0,big,small,False,Size,left,left,1715.4472080001142,Correct,1.0,0.9226519337016574,
9,22,3,A,26.57350399422033,43.15028255251357,1.3286751997110169,0.6778030533365024,A,1014.7470000083558,Correct,sub_009_day_22_data.csv,1,362,,Dual-Task at home,7.0,4.0,small,big,False,Size,right,right,768.7770409975201,Correct,1.0,0.9226519337016574,
9,22,4,A,27.933814601694703,52.334135360780294,1.396690730084735,0.8220626759070061,A,721.9990829908056,Correct,sub_009_day_22_data.csv,1,362,,Dual-Task at home,3.0,8.0,big,small,False,Size,left,left,578.7193340074737,Correct,1.0,0.9226519337016574,
9,22,5,B,72.23416202450481,58.821972665032526,3.6117081012252408,0.923973385970629,B,865.6192499911413,Correct,sub_009_day_22_data.csv,1,362,,Dual-Task at home,8.0,7.0,small,big,False,Size,right,right,723.7823340110481,Correct,1.0,0.9226519337016574,
9,22,6,B,71.11021162659415,47.51427682016757,3.555510581329707,0.7463525149943512,B,1483.954082999844,Correct,sub_009_day_22_data.csv,1,362,,Dual-Task at home,7.0,3.0,small,big,False,Value,left,left,1197.1704169991426,Correct,1.0,0.9226519337016574,
9,22,7,B,69.68757502789329,44.4360020910348,3.484378751394664,0.6979990886204781,B,744.2290839971974,Correct,sub_009_day_22_data.csv,1,362,,Dual-Task at home,6.0,8.0,big,small,False,Value,right,right,1178.9128329983214,Correct,1.0,0.9226519337016574,
9,22,8,A,13.333990956839532,37.3727270089511,0.6666995478419766,0.5870494230796881,A,706.100499999593,Correct,sub_009_day_22_data.csv,1,362,,Dual-Task at home,4.0,2.0,small,big,False,Size,right,right,879.0142920042854,Correct,1.0,0.9226519337016574,
9,22,9,A,20.93557993611713,46.70574537099572,1.0467789968058565,0.7336521326897781,A,866.7039169959025,Correct,sub_009_day_22_data.csv,1,362,,Dual-Task at home,5.0,3.0,big,small,True,Size,left,left,1696.7799579870189,Correct,1.0,0.9226519337016574,
9,22,10,B,86.7236604512982,64.0467282934913,4.33618302256491,1.0060436554664691,B,679.3109579884913,Correct,sub_009_day_22_data.csv,1,362,,Dual-Task at home,6.0,2.0,small,big,False,Value,left,left,1198.2850830099778,Correct,1.0,0.9226519337016574,
9,22,11,B,84.68597254317008,60.848915426271475,4.234298627158504,0.9558125284104056,B,837.7057500038063,Correct,sub_009_day_22_data.csv,1,362,,Dual-Task at home,7.0,4.0,small,big,False,Size,right,right,741.3165829930222,Correct,1.0,0.9226519337016574,
9,22,12,B,50.2639650018924,27.410684703395702,2.51319825009462,0.4305660284702703,B,1286.696832990856,Correct,sub_009_day_22_data.csv,1,362,,Dual-Task at home,8.0,7.0,small,big,False,Value,left,left,672.9296669946052,Correct,1.0,0.9226519337016574,
9,22,13,B,45.94238389150762,36.809913106537934,2.297119194575381,0.578208762973891,B,830.0182920065708,Correct,sub_009_day_22_data.csv,1,362,,Dual-Task at home,7.0,3.0,small,big,False,Size,right,right,1197.5181250018068,Correct,1.0,0.9226519337016574,
9,22,14,B,81.06635115884396,53.00933675621861,4.053317557942198,0.8326687146250189,B,625.2067080058623,Correct,sub_009_day_22_data.csv,1,362,,Dual-Task at home,8.0,7.0,small,big,False,Value,left,left,400.8651670010295,Correct,1.0,0.9226519337016574,
9,22,15,A,14.730179297731002,44.2589592709478,0.73650896488655,0.6952181065056974,A,503.5252499947091,Correct,sub_009_day_22_data.csv,1,362,,Dual-Task at home,7.0,5.0,small,big,False,Size,right,right,583.2145830063382,Correct,1.0,0.9226519337016574,
9,22,16,A,61.19003883394485,80.82838151456995,3.0595019416972424,1.26964924783863,A,458.65037498879246,Correct,sub_009_day_22_data.csv,1,362,,Dual-Task at home,4.0,6.0,big,small,False,Size,left,left,440.3734170045937,Correct,1.0,0.9226519337016574,
9,22,17,B,37.48737761711975,13.652940284350052,1.8743688808559875,0.2144598844860713,B,493.6746249877615,Correct,sub_009_day_22_data.csv,1,362,,Dual-Task at home,6.0,4.0,small,big,False,Size,right,right,1357.2839169937652,Correct,1.0,0.9226519337016574,
9,22,18,A,39.69835986560516,58.549479370459416,1.9849179932802583,0.9196930713087124,A,1446.2944160040934,Correct,sub_009_day_22_data.csv,1,362,,Dual-Task at home,2.0,8.0,big,small,False,Size,left,right,2567.6821249944624,Incorrect,0.0,0.9226519337016574,
9,22,19,B,44.798881138808625,22.292970994876654,2.239944056940431,0.3501771695209741,B,668.2815830135951,Correct,sub_009_day_22_data.csv,1,362,,Dual-Task at home,8.0,3.0,small,big,False,Value,left,left,525.1572919951286,Correct,1.0,0.9226519337016574,
9,22,20,A,40.0675820798198,61.64306945793635,2.00337910399099,0.9682870707688912,A,525.3525419975631,Correct,sub_009_day_22_data.csv,1,362,,Dual-Task at home,4.0,7.0,big,small,False,Size,left,left,496.468500001356,Correct,1.0,0.9226519337016574,
9,22,21,A,42.05012961252732,58.89974019231872,2.102506480626366,0.9251949554326798,A,512.3703749995911,Correct,sub_009_day_22_data.csv,1,362,,Dual-Task at home,2.0,7.0,big,small,False,Value,right,right,533.4391670039622,Correct,1.0,0.9226519337016574,
9,22,22,B,39.17372314163904,17.863285731882584,1.9586861570819525,0.2805958361212885,B,453.56833399273455,Correct,sub_009_day_22_data.csv,1,362,,Dual-Task at home,7.0,3.0,small,big,False,Value,left,right,572.4714169919025,Incorrect,0.0,0.9226519337016574,
9,22,23,B,65.56761171481273,50.66232665398577,3.2783805857406367,0.7958019661496405,A,656.4860420039622,Incorrect,sub_009_day_22_data.csv,0,362,,Dual-Task at home,7.0,6.0,small,big,False,Value,left,right,2403.8398749980843,Incorrect,0.0,0.9226519337016574,
9,22,24,A,47.702503154604855,71.27630658445193,2.385125157730243,1.11960560570364,A,363.3352090109838,Correct,sub_009_day_22_data.csv,1,362,,Dual-Task at home,3.0,8.0,big,small,False,Size,left,left,486.6607920121169,Correct,1.0,0.9226519337016574,
9,22,25,A,35.486631657981086,54.06849594781145,1.7743315828990545,0.8493059483014697,A,543.7289169931319,Correct,sub_009_day_22_data.csv,1,362,,Dual-Task at home,2.0,4.0,small,big,True,Size,right,right,822.1434169972781,Correct,1.0,0.9226519337016574,
9,22,26,B,69.32479299024271,51.1098123910687,3.4662396495121355,0.8028310556706699,B,636.2979999976233,Correct,sub_009_day_22_data.csv,1,362,,Dual-Task at home,7.0,4.0,small,big,False,Size,right,right,375.35912499879487,Correct,1.0,0.9226519337016574,
9,22,27,B,57.74635999376947,46.70742183349311,2.8873179996884732,0.7336784665011072,B,986.4181250013644,Correct,sub_009_day_22_data.csv,1,362,,Dual-Task at home,5.0,3.0,small,big,False,Size,right,right,664.1635419946397,Correct,1.0,0.9226519337016574,
9,22,28,B,62.41666957747404,46.061803736387205,3.120833478873702,0.7235371211466446,B,493.8732080045156,Correct,sub_009_day_22_data.csv,1,362,,Dual-Task at home,2.0,6.0,big,small,False,Value,right,right,390.41441699373536,Correct,1.0,0.9226519337016574,
9,22,29,A,51.1806559412957,80.6157641317684,2.559032797064785,1.2663094617994557,A,635.8267920004437,Correct,sub_009_day_22_data.csv,1,362,,Dual-Task at home,3.0,7.0,big,small,False,Size,left,left,794.4520839955658,Correct,1.0,0.9226519337016574,
9,22,30,A,67.64000364942466,83.39263665407866,3.382000182471233,1.309928473379682,A,573.2337920053396,Correct,sub_009_day_22_data.csv,1,362,,Dual-Task at home,8.0,2.0,small,big,False,Size,right,right,811.0702090052655,Correct,1.0,0.9226519337016574,
9,22,31,A,14.35931536065679,32.807114148959485,0.7179657680328395,0.5153329439792643,A,461.2017500039656,Correct,sub_009_day_22_data.csv,1,362,,Dual-Task at home,5.0,3.0,small,big,False,Value,left,left,487.5826670031529,Correct,1.0,0.9226519337016574,
9,22,32,B,63.615462733909006,40.79278419056979,3.1807731366954504,0.6407715556628395,B,552.7479169977596,Correct,sub_009_day_22_data.csv,1,362,,Dual-Task at home,6.0,5.0,small,big,False,Value,left,left,401.3439999980619,Correct,1.0,0.9226519337016574,
9,22,33,A,55.547437067345925,73.08078201761124,2.7773718533672964,1.1479502395256227,A,476.75479100144,Correct,sub_009_day_22_data.csv,1,362,,Dual-Task at home,6.0,3.0,small,big,False,Value,left,left,687.5078329903772,Correct,1.0,0.9226519337016574,
9,22,34,B,54.857609322739776,33.26434086012955,2.742880466136989,0.5225150443634489,B,669.1592919960385,Correct,sub_009_day_22_data.csv,1,362,,Dual-Task at home,7.0,8.0,big,small,False,Size,left,left,878.5815419978462,Correct,1.0,0.9226519337016574,
9,22,35,B,75.45049418062953,58.573199345263134,3.772524709031477,0.9200656638016458,B,544.1420409915736,Correct,sub_009_day_22_data.csv,1,362,,Dual-Task at home,2.0,7.0,big,small,False,Size,left,left,776.4222500118194,Correct,1.0,0.9226519337016574,
9,22,36,B,82.8467549005126,53.59208045269224,4.142337745025629,0.8418224312038555,B,512.493166999775,Correct,sub_009_day_22_data.csv,1,362,,Dual-Task at home,7.0,4.0,small,big,False,Size,right,right,407.47820799879264,Correct,1.0,0.9226519337016574,
9,22,37,B,44.4250428495134,15.797136252416903,2.22125214247567,0.2481408359917497,B,559.8124999960419,Correct,sub_009_day_22_data.csv,1,362,,Dual-Task at home,5.0,6.0,big,small,False,Size,left,left,687.317375006387,Correct,1.0,0.9226519337016574,
9,22,38,A,28.08417268226672,44.83368733982694,1.4042086341133355,0.7042459139007101,A,589.3139169929782,Correct,sub_009_day_22_data.csv,1,362,,Dual-Task at home,5.0,4.0,small,big,False,Value,left,left,398.94045899563935,Correct,1.0,0.9226519337016574,
9,22,39,A,47.60044920618147,70.79213534603497,2.380022460309074,1.1120002616751887,A,531.7037499917205,Correct,sub_009_day_22_data.csv,1,362,,Dual-Task at home,6.0,4.0,small,big,False,Value,left,left,915.7220409979344,Correct,1.0,0.9226519337016574,
9,22,40,A,67.45584520125166,84.51997178163192,3.3727922600625835,1.3276366121539571,A,646.7292909946991,Correct,sub_009_day_22_data.csv,1,362,,Dual-Task at home,6.0,8.0,big,small,False,Value,right,right,627.5765000027604,Correct,1.0,0.9226519337016574,
9,22,41,A,54.65873816411161,82.8101584333638,2.73293690820558,1.3007789268843128,A,699.0592079964699,Correct,sub_009_day_22_data.csv,1,362,,Dual-Task at home,6.0,7.0,big,small,False,Value,right,right,1740.8985829970334,Correct,1.0,0.9226519337016574,
9,22,42,B,70.18900332112455,44.09854559884866,3.5094501660562276,0.6926983344366873,B,826.960374994087,Correct,sub_009_day_22_data.csv,1,362,,Dual-Task at home,4.0,7.0,big,small,False,Value,right,right,1228.8432079949416,Correct,1.0,0.9226519337016574,
9,22,43,B,42.0662402300682,34.12296515416076,2.1033120115034105,0.5360022832350597,B,1095.5421670078067,Correct,sub_009_day_22_data.csv,1,362,,Dual-Task at home,2.0,4.0,big,small,False,Value,right,right,479.4400830141967,Correct,1.0,0.9226519337016574,
9,22,44,B,55.8219319325797,35.201340354845875,2.791096596628985,0.5529413612764885,B,588.4087500016904,Correct,sub_009_day_22_data.csv,1,362,,Dual-Task at home,6.0,7.0,small,big,True,Size,right,right,959.9127919937018,Correct,1.0,0.9226519337016574,
9,22,45,A,16.994638490075026,42.804994777136955,0.8497319245037513,0.6723792856440145,A,548.9917910017539,Correct,sub_009_day_22_data.csv,1,362,,Dual-Task at home,2.0,5.0,small,big,True,Value,right,right,955.0912499980768,Correct,1.0,0.9226519337016574,
9,22,46,B,83.86952849952047,66.90195424847575,4.193476424976024,1.0508934398890593,B,537.6883329881821,Correct,sub_009_day_22_data.csv,1,362,,Dual-Task at home,7.0,3.0,small,big,False,Value,left,right,1080.8624169876566,Incorrect,0.0,0.9226519337016574,
9,22,47,A,31.6259158709671,45.58433839132126,1.581295793548355,0.7160371130446301,A,696.6471250052564,Correct,sub_009_day_22_data.csv,1,362,,Dual-Task at home,2.0,7.0,big,small,False,Value,right,right,824.878291998175,Correct,1.0,0.9226519337016574,
9,22,48,B,83.2988487766705,62.01370806494413,4.164942438833525,0.9741090483934528,B,594.8545830033254,Correct,sub_009_day_22_data.csv,1,362,,Dual-Task at home,2.0,7.0,big,small,False,Value,right,right,606.3436249969527,Correct,1.0,0.9226519337016574,
9,22,49,A,62.76075747565831,83.56011285359028,3.138037873782915,1.3125591833698664,A,493.1824590021278,Correct,sub_009_day_22_data.csv,1,362,,Dual-Task at home,4.0,6.0,big,small,False,Size,left,left,1139.397334001842,Correct,1.0,0.9226519337016574,
9,22,50,B,44.29389154034678,35.60267102614886,2.214694577017339,0.5592454487196172,B,502.488458994776,Correct,sub_009_day_22_data.csv,1,362,,Dual-Task at home,4.0,8.0,big,small,False,Value,right,right,701.5621250029653,Correct,1.0,0.9226519337016574,
9,22,51,B,39.450684384280216,20.31008882045607,1.9725342192140107,0.3190301291605048,B,465.7253750046948,Correct,sub_009_day_22_data.csv,1,362,,Dual-Task at home,6.0,4.0,big,small,True,Size,left,left,618.4661250008503,Correct,1.0,0.9226519337016574,
9,22,52,A,41.39499587446958,54.98674643094501,2.069749793723479,0.8637297931613079,A,517.2173339960864,Correct,sub_009_day_22_data.csv,1,362,,Dual-Task at home,2.0,3.0,big,small,False,Value,right,right,1000.9667919948696,Correct,1.0,0.9226519337016574,
9,22,53,B,52.776967844011565,30.31417383789237,2.638848392200578,0.4761739291438328,B,481.4842920022784,Correct,sub_009_day_22_data.csv,1,362,,Dual-Task at home,5.0,6.0,big,small,False,Value,right,right,1141.6595829941798,Correct,1.0,0.9226519337016574,
9,22,54,A,61.04438090023506,73.46922147006784,3.052219045011753,1.154051832176633,A,562.3135829955572,Correct,sub_009_day_22_data.csv,1,362,,Dual-Task at home,6.0,2.0,small,big,False,Size,right,right,594.5227079937467,Correct,1.0,0.9226519337016574,
9,22,55,B,81.90159277258766,54.75942056966467,4.095079638629383,0.8601589668824616,B,492.6901669969084,Correct,sub_009_day_22_data.csv,1,362,,Dual-Task at home,7.0,2.0,small,big,False,Value,left,left,1609.6450000040932,Correct,1.0,0.9226519337016574,
9,22,56,A,19.397006192475683,32.67938868040475,0.9698503096237842,0.513326637010825,B,696.0950420034351,Incorrect,sub_009_day_22_data.csv,0,362,,Dual-Task at home,6.0,3.0,small,big,False,Value,left,left,1170.6969590013614,Correct,1.0,0.9226519337016574,
9,22,57,A,29.488163213737412,56.16403728997452,1.4744081606868706,0.8822226347306358,A,492.45162498846184,Correct,sub_009_day_22_data.csv,1,362,,Dual-Task at home,3.0,2.0,small,big,False,Value,left,left,944.8597080045148,Correct,1.0,0.9226519337016574,
9,22,58,A,21.54643466584206,45.975827474144666,1.077321733292103,0.7221866091774233,A,415.5766659969231,Correct,sub_009_day_22_data.csv,1,362,,Dual-Task at home,3.0,4.0,big,small,False,Value,right,right,774.6346670028288,Correct,1.0,0.9226519337016574,
9,22,59,B,57.08447855683553,43.86603196215239,2.8542239278417765,0.689046018772165,B,592.6509590062778,Correct,sub_009_day_22_data.csv,1,362,,Dual-Task at home,2.0,7.0,big,small,False,Size,left,left,311.95304199354723,Correct,1.0,0.9226519337016574,
9,22,60,A,19.01810485403821,42.66300643495016,0.9509052427019106,0.6701489379804676,A,510.63129100657534,Correct,sub_009_day_22_data.csv,1,362,,Dual-Task at home,2.0,8.0,big,small,False,Value,right,right,975.0152089982294,Correct,1.0,0.9226519337016574,
9,22,61,B,77.7946225713217,58.163457571960706,3.889731128566085,0.913629455077267,B,553.0994580039987,Correct,sub_009_day_22_data.csv,1,362,,Dual-Task at home,2.0,6.0,big,small,False,Value,right,right,1625.453959000879,Correct,1.0,0.9226519337016574,
9,22,62,B,71.52830630535465,46.270619800396055,3.5764153152677323,0.7268171962098533,B,412.4346669996158,Correct,sub_009_day_22_data.csv,1,362,,Dual-Task at home,7.0,4.0,small,big,False,Size,right,right,970.9686660062288,Correct,1.0,0.9226519337016574,
9,22,63,B,79.79192949639642,48.72046399558421,3.989596474819821,0.7652992588400668,B,610.8346249966417,Correct,sub_009_day_22_data.csv,1,362,,Dual-Task at home,2.0,7.0,big,small,False,Value,right,right,1105.0080830027582,Correct,1.0,0.9226519337016574,
9,22,64,B,39.90675926531097,24.932714337335472,1.9953379632655484,0.3916421609811301,B,439.6758330112789,Correct,sub_009_day_22_data.csv,1,362,,Dual-Task at home,7.0,3.0,small,big,False,Size,right,right,360.8526660100324,Correct,1.0,0.9226519337016574,
9,22,65,A,39.44057683708956,53.81749996355037,1.972028841854478,0.845363312600294,A,417.57708399381954,Correct,sub_009_day_22_data.csv,1,362,,Dual-Task at home,4.0,6.0,big,small,False,Value,right,right,846.327334002126,Correct,1.0,0.9226519337016574,
9,22,66,B,62.462193921062784,48.54026238569716,3.123109696053139,0.7624686585711359,B,383.5415829962585,Correct,sub_009_day_22_data.csv,1,362,,Dual-Task at home,5.0,4.0,small,big,False,Size,right,right,355.01508398738224,Correct,1.0,0.9226519337016574,
9,22,67,A,19.3042033087145,35.44404463126436,0.965210165435725,0.5567537511354443,A,534.6077080030227,Correct,sub_009_day_22_data.csv,1,362,,Dual-Task at home,3.0,4.0,big,small,False,Size,left,left,1088.7951250042534,Correct,1.0,0.9226519337016574,
9,22,68,A,26.72799412281484,45.57778741077866,1.336399706140742,0.715934210482898,A,1383.2597080036066,Correct,sub_009_day_22_data.csv,1,362,,Dual-Task at home,3.0,2.0,small,big,False,Size,right,right,663.5253330023261,Correct,1.0,0.9226519337016574,
9,22,69,B,60.08386256995896,36.34162394836362,3.0041931284979477,0.57085289407851,B,480.1404169993475,Correct,sub_009_day_22_data.csv,1,362,,Dual-Task at home,4.0,6.0,big,small,False,Value,right,right,867.3825830046553,Correct,1.0,0.9226519337016574,
9,22,70,A,40.53341534432031,60.68127540525269,2.0266707672160154,0.953179245118004,A,540.5142920062644,Correct,sub_009_day_22_data.csv,1,362,,Dual-Task at home,4.0,6.0,big,small,False,Value,right,right,849.7192920040106,Correct,1.0,0.9226519337016574,
9,22,71,B,76.86524605829777,47.703722157752914,3.843262302914889,0.749328315398426,B,498.8924589997623,Correct,sub_009_day_22_data.csv,1,362,,Dual-Task at home,3.0,5.0,small,big,True,Size,right,right,776.365416997578,Correct,1.0,0.9226519337016574,
9,22,72,A,48.84278284108256,55.573057809705894,2.442139142054128,0.8729395507624647,A,457.2345419874182,Correct,sub_009_day_22_data.csv,1,362,,Dual-Task at home,3.0,5.0,big,small,False,Value,right,right,936.9693329936126,Correct,1.0,0.9226519337016574,
9,22,73,A,35.051486828487796,47.82880856581333,1.7525743414243895,0.7512931681015587,A,454.91633300844114,Correct,sub_009_day_22_data.csv,1,362,,Dual-Task at home,6.0,5.0,small,big,False,Value,left,left,886.4857500011567,Correct,1.0,0.9226519337016574,
9,22,74,A,19.10995816555275,43.67465695637196,0.9554979082776376,0.6860399072109625,A,614.4118329975754,Correct,sub_009_day_22_data.csv,1,362,,Dual-Task at home,2.0,6.0,big,small,False,Size,left,left,1846.979249996366,Correct,1.0,0.9226519337016574,
9,22,75,B,54.44111893947159,30.104562378986653,2.7220559469735797,0.4728813600468007,B,565.2102909953101,Correct,sub_009_day_22_data.csv,1,362,,Dual-Task at home,7.0,3.0,small,big,False,Size,right,right,1541.547207991243,Correct,1.0,0.9226519337016574,
9,22,76,B,54.527693895911945,41.162240028150045,2.726384694795597,0.6465749543886794,B,503.01145800040103,Correct,sub_009_day_22_data.csv,1,362,,Dual-Task at home,7.0,3.0,small,big,False,Value,left,left,1164.0142499963986,Correct,1.0,0.9226519337016574,
9,22,77,B,48.37819559348185,30.771284825022676,2.4189097796740926,0.4833542117390516,B,409.4630000035977,Correct,sub_009_day_22_data.csv,1,362,,Dual-Task at home,8.0,3.0,small,big,False,Size,right,right,606.3599159970181,Correct,1.0,0.9226519337016574,
9,22,78,A,40.926781158500695,65.30242498982362,2.0463390579250347,1.025768093048142,A,443.108375009615,Correct,sub_009_day_22_data.csv,1,362,,Dual-Task at home,3.0,5.0,big,small,False,Value,right,right,530.1547080016462,Correct,1.0,0.9226519337016574,
9,22,79,A,64.09457633822569,80.32118472224533,3.2047288169112846,1.2616822192551735,A,476.6665420029312,Correct,sub_009_day_22_data.csv,1,362,,Dual-Task at home,3.0,7.0,big,small,False,Size,left,left,464.65845800412353,Correct,1.0,0.9226519337016574,
9,22,80,B,74.84836820532556,46.1077740026978,3.7424184102662776,0.7242592204012694,B,453.173332993174,Correct,sub_009_day_22_data.csv,1,362,,Dual-Task at home,4.0,2.0,small,big,False,Size,right,right,357.7043749974109,Correct,1.0,0.9226519337016574,
9,22,81,B,78.11254480664537,62.454662196618614,3.9056272403322687,0.981035539696646,B,471.5475420089206,Correct,sub_009_day_22_data.csv,1,362,,Dual-Task at home,5.0,2.0,small,big,False,Size,right,right,336.86854199913796,Correct,1.0,0.9226519337016574,
9,22,82,B,88.3175191362585,62.17762224046637,4.415875956812925,0.9766838062416524,B,437.3792079859413,Correct,sub_009_day_22_data.csv,1,362,,Dual-Task at home,6.0,8.0,small,big,True,Value,right,right,1410.655208004755,Correct,1.0,0.9226519337016574,
9,22,83,A,58.28237758006296,85.11492246321633,2.9141188790031483,1.3369820756065265,A,517.9975420032861,Correct,sub_009_day_22_data.csv,1,362,,Dual-Task at home,8.0,5.0,small,big,False,Value,left,left,502.61062500067055,Correct,1.0,0.9226519337016574,
9,22,84,A,31.93707228137164,52.4640911773435,1.5968536140685818,0.8241040171000372,A,899.1416659991955,Correct,sub_009_day_22_data.csv,1,362,,Dual-Task at home,5.0,7.0,big,small,False,Size,left,left,364.9940420000348,Correct,1.0,0.9226519337016574,
9,22,85,B,37.42906737949062,22.760084150801237,1.871453368974531,0.3575145658162132,B,451.14220899995416,Correct,sub_009_day_22_data.csv,1,362,,Dual-Task at home,8.0,3.0,small,big,False,Size,right,right,676.2735000083921,Correct,1.0,0.9226519337016574,
9,22,86,B,46.60723369241193,34.951935191517435,2.330361684620597,0.5490237141320886,B,441.745207994245,Correct,sub_009_day_22_data.csv,1,362,,Dual-Task at home,3.0,4.0,small,big,True,Value,right,right,847.6575829990907,Correct,1.0,0.9226519337016574,
9,22,87,A,36.535068668724314,55.96670981070399,1.8267534334362157,0.8791230219344972,A,517.8957500029355,Correct,sub_009_day_22_data.csv,1,362,,Dual-Task at home,5.0,2.0,small,big,False,Size,right,right,493.2691249996424,Correct,1.0,0.9226519337016574,
9,22,88,B,73.84064293441722,55.77522037036448,3.692032146720861,0.8761151128394442,B,437.3037919867784,Correct,sub_009_day_22_data.csv,1,362,,Dual-Task at home,5.0,4.0,small,big,False,Size,right,right,560.1785000035306,Correct,1.0,0.9226519337016574,
9,22,89,B,62.23329469526234,49.43138430145464,3.111664734763117,0.7764663688911188,B,362.21004200342577,Correct,sub_009_day_22_data.csv,1,362,,Dual-Task at home,6.0,3.0,small,big,False,Value,left,left,866.9088330061641,Correct,1.0,0.9226519337016574,
9,22,90,A,36.72653429945788,51.76886725596249,1.836326714972894,0.8131834652799849,A,933.5687499988126,Correct,sub_009_day_22_data.csv,1,362,,Dual-Task at home,8.0,2.0,small,big,False,Value,left,left,608.5797090054257,Correct,1.0,0.9226519337016574,
9,22,91,B,32.35112099334208,10.368198679544044,1.617556049667104,0.1628632840130748,B,385.1850840001134,Correct,sub_009_day_22_data.csv,1,362,,Dual-Task at home,4.0,2.0,small,big,False,Size,right,right,353.82591700181365,Correct,1.0,0.9226519337016574,
9,22,92,A,26.370900796784248,37.25978263080996,1.3185450398392122,0.5852752969365257,B,410.31958399980795,Incorrect,sub_009_day_22_data.csv,0,362,,Dual-Task at home,8.0,6.0,small,big,False,Size,right,right,887.4117500090506,Correct,1.0,0.9226519337016574,
9,22,93,B,65.41168875286668,55.128017242859755,3.270584437643334,0.8659488698856982,B,632.4218749941792,Correct,sub_009_day_22_data.csv,1,362,,Dual-Task at home,4.0,7.0,small,big,True,Value,right,left,448.1587920017774,Incorrect,0.0,0.9226519337016574,
9,22,94,A,33.80200679516557,42.919754264637206,1.6901003397582783,0.6741819234583172,A,796.9152079895139,Correct,sub_009_day_22_data.csv,1,362,,Dual-Task at home,8.0,7.0,small,big,False,Size,right,right,512.6117500039982,Correct,1.0,0.9226519337016574,
9,22,95,B,77.19013508465592,47.86228712257552,3.859506754232796,0.7518190480414433,B,428.6877909908071,Correct,sub_009_day_22_data.csv,1,362,,Dual-Task at home,7.0,4.0,small,big,False,Value,left,left,709.8126250057248,Correct,1.0,0.9226519337016574,
9,22,96,A,31.378343160681904,64.62661478266877,1.568917158034095,1.0151524911380487,A,471.8698329961626,Correct,sub_009_day_22_data.csv,1,362,,Dual-Task at home,4.0,3.0,small,big,False,Size,right,right,772.4039580061799,Correct,1.0,0.9226519337016574,
9,22,97,B,84.14236673874048,65.65685785809657,4.2071183369370235,1.031335511523927,B,494.74204199214,Correct,sub_009_day_22_data.csv,1,362,,Dual-Task at home,2.0,6.0,big,small,False,Size,left,right,2350.3616250091,Incorrect,0.0,0.9226519337016574,
9,22,98,A,42.740110066830795,53.605860362292916,2.13700550334154,0.8420388855176987,A,393.2173339999281,Correct,sub_009_day_22_data.csv,1,362,,Dual-Task at home,4.0,5.0,big,small,False,Value,right,right,1637.9831669910343,Correct,1.0,0.9226519337016574,
9,22,99,B,48.30014452165383,41.07292744898216,2.4150072260826914,0.6451720356757445,B,1032.9344170022523,Correct,sub_009_day_22_data.csv,1,362,,Dual-Task at home,4.0,6.0,big,small,False,Value,right,right,685.6113329995424,Correct,1.0,0.9226519337016574,
9,22,100,A,19.70088924590506,35.264917665314314,0.985044462295253,0.5539400313340019,A,610.288625000976,Correct,sub_009_day_22_data.csv,1,362,,Dual-Task at home,6.0,2.0,small,big,False,Size,right,right,1000.5112079961692,Correct,1.0,0.9226519337016574,
9,22,101,A,56.0245343909279,68.61857628893962,2.8012267195463947,1.0778580758456175,A,609.6010420005769,Correct,sub_009_day_22_data.csv,1,362,,Dual-Task at home,6.0,4.0,big,small,True,Value,left,right,525.7755839993479,Incorrect,0.0,0.9226519337016574,
9,22,102,A,28.713234532582888,61.16534375362318,1.4356617266291445,0.9607829729533848,A,410.9158750070492,Correct,sub_009_day_22_data.csv,1,362,,Dual-Task at home,7.0,8.0,big,small,False,Value,right,right,414.5000420103315,Correct,1.0,0.9226519337016574,
9,22,103,A,56.90826389799919,71.00344455467378,2.8454131948999595,1.115319498962667,A,499.890958002652,Correct,sub_009_day_22_data.csv,1,362,,Dual-Task at home,5.0,4.0,small,big,False,Size,right,left,790.7757080101874,Incorrect,0.0,0.9226519337016574,
9,22,104,A,53.161059584856645,70.50453492514217,2.658052979242832,1.1074826448279582,A,398.1522920075804,Correct,sub_009_day_22_data.csv,1,362,,Dual-Task at home,5.0,8.0,big,small,False,Size,left,left,521.6046249988722,Correct,1.0,0.9226519337016574,
9,22,105,B,49.08753573463345,24.852099810528895,2.454376786731672,0.3903758709551893,B,455.77708299970254,Correct,sub_009_day_22_data.csv,1,362,,Dual-Task at home,2.0,4.0,big,small,False,Value,right,right,993.4340000036171,Correct,1.0,0.9226519337016574,
9,22,106,B,55.066715219469145,27.21470308586514,2.753335760973457,0.427487556420907,B,407.4293330049841,Correct,sub_009_day_22_data.csv,1,362,,Dual-Task at home,7.0,2.0,small,big,False,Value,left,left,921.4674579998244,Correct,1.0,0.9226519337016574,
9,22,107,A,27.629750293043564,49.19510374144324,1.3814875146521783,0.7727548825335292,A,485.9880420117406,Correct,sub_009_day_22_data.csv,1,362,,Dual-Task at home,4.0,5.0,small,big,True,Value,right,right,892.6336670119781,Correct,1.0,0.9226519337016574,
9,22,108,A,36.29543434846245,48.02030618313805,1.8147717174231224,0.7543012056403952,A,433.1916249939241,Correct,sub_009_day_22_data.csv,1,362,,Dual-Task at home,2.0,4.0,big,small,False,Size,left,left,632.2314999997616,Correct,1.0,0.9226519337016574,
9,22,109,B,68.65367393095241,46.15469081372749,3.432683696547621,0.7249961879455729,B,432.59833300544415,Correct,sub_009_day_22_data.csv,1,362,,Dual-Task at home,5.0,4.0,small,big,False,Value,left,left,2181.3142909959424,Correct,1.0,0.9226519337016574,
9,22,110,B,48.64155809902999,17.96279820053472,2.4320779049514996,0.2821589743235791,B,521.8457500013756,Correct,sub_009_day_22_data.csv,1,362,,Dual-Task at home,2.0,5.0,big,small,False,Size,left,left,1620.9619580040453,Correct,1.0,0.9226519337016574,
9,22,111,A,59.86022917452233,84.0761039558852,2.9930114587261163,1.3206643526513036,A,568.6012910009595,Correct,sub_009_day_22_data.csv,1,362,,Dual-Task at home,7.0,4.0,small,big,False,Value,left,left,730.1668329891982,Correct,1.0,0.9226519337016574,
9,22,112,B,51.94924359570127,36.048034463105914,2.597462179785063,0.5662412012282261,B,474.0730420016917,Correct,sub_009_day_22_data.csv,1,362,,Dual-Task at home,4.0,6.0,big,small,False,Size,left,left,536.3308749947464,Correct,1.0,0.9226519337016574,
9,22,113,A,33.20806809647614,65.16492140790052,1.6604034048238072,1.0236081918340825,A,410.1578340050765,Correct,sub_009_day_22_data.csv,1,362,,Dual-Task at home,2.0,8.0,small,big,True,Value,right,right,1525.7114999985788,Correct,1.0,0.9226519337016574,
9,22,114,B,68.29424268637875,42.86893904953422,3.414712134318938,0.6733837199260265,B,716.414333001012,Correct,sub_009_day_22_data.csv,1,362,,Dual-Task at home,2.0,6.0,big,small,False,Value,right,right,825.9569170040777,Correct,1.0,0.9226519337016574,
9,22,115,A,62.20202921180386,81.68735967770809,3.110101460590193,1.2831420452731743,A,387.30091699108016,Correct,sub_009_day_22_data.csv,1,362,,Dual-Task at home,5.0,8.0,big,small,False,Size,left,left,334.4141249981476,Correct,1.0,0.9226519337016574,
9,22,116,A,44.49218884734153,68.38917275127915,2.224609442367077,1.0742546135025093,A,548.6739170009969,Correct,sub_009_day_22_data.csv,1,362,,Dual-Task at home,6.0,8.0,big,small,False,Size,left,left,903.1173330004094,Correct,1.0,0.9226519337016574,
9,22,117,A,21.611190019370316,37.54658230775263,1.0805595009685158,0.5897803357272008,A,483.6694999976317,Correct,sub_009_day_22_data.csv,1,362,,Dual-Task at home,5.0,3.0,small,big,False,Size,right,left,1864.0657089999877,Incorrect,0.0,0.9226519337016574,
9,22,118,B,37.28528724973188,27.460557361261053,1.864264362486594,0.4313494263480942,B,435.6207909877412,Correct,sub_009_day_22_data.csv,1,362,,Dual-Task at home,8.0,5.0,small,big,False,Size,right,right,523.0034999985946,Correct,1.0,0.9226519337016574,
9,22,119,B,73.85736294262989,46.14901775943217,3.6928681471314944,0.7249070758170849,B,425.9683749987744,Correct,sub_009_day_22_data.csv,1,362,,Dual-Task at home,3.0,5.0,big,small,False,Size,left,left,2159.9340420070803,Correct,1.0,0.9226519337016574,
9,22,120,B,57.93214363370859,32.63293514563657,2.8966071816854297,0.51259694659302,B,443.95554199581966,Correct,sub_009_day_22_data.csv,1,362,,Dual-Task at home,8.0,4.0,small,big,False,Size,right,right,403.84774999984074,Correct,1.0,0.9226519337016574,
9,22,121,B,66.11720756445122,47.68943600472079,3.3058603782225613,0.7491039090313569,B,532.027958004619,Correct,sub_009_day_22_data.csv,1,362,,Dual-Task at home,2.0,6.0,big,small,False,Value,right,right,367.6538340077968,Correct,1.0,0.9226519337016574,
9,22,122,B,50.35174666834898,19.241144165020177,2.517587333417449,0.3022391857774474,B,392.0519169914769,Correct,sub_009_day_22_data.csv,1,362,,Dual-Task at home,3.0,5.0,big,small,False,Value,right,right,452.6430420082761,Correct,1.0,0.9226519337016574,
9,22,123,A,23.796819985755995,42.874828781248596,1.1898409992877998,0.6734762356154541,A,630.1832089957315,Correct,sub_009_day_22_data.csv,1,362,,Dual-Task at home,5.0,3.0,small,big,False,Size,right,right,999.1501669865102,Correct,1.0,0.9226519337016574,
9,22,124,A,41.78089532036159,48.70202757639987,2.0890447660180795,0.7650096602447268,A,521.3057919900166,Correct,sub_009_day_22_data.csv,1,362,,Dual-Task at home,3.0,8.0,big,small,False,Size,left,left,475.9021249919897,Correct,1.0,0.9226519337016574,
9,22,125,A,45.248841321966,64.87291091167452,2.2624420660983,1.019021301685509,A,456.31999999750406,Correct,sub_009_day_22_data.csv,1,362,,Dual-Task at home,4.0,8.0,big,small,False,Value,right,right,359.1634999902453,Correct,1.0,0.9226519337016574,
9,22,126,B,32.9415182656405,17.675119973067925,1.6470759132820247,0.2776401352935421,B,470.441875004326,Correct,sub_009_day_22_data.csv,1,362,,Dual-Task at home,3.0,7.0,small,big,True,Value,right,right,738.7211250024848,Correct,1.0,0.9226519337016574,
9,22,127,A,17.000437055082564,40.11180618584338,0.8500218527541281,0.6300747781783158,A,435.58783300977666,Correct,sub_009_day_22_data.csv,1,362,,Dual-Task at home,2.0,8.0,big,small,False,Value,right,right,991.7753339977936,Correct,1.0,0.9226519337016574,
9,22,128,A,25.613387041176864,48.3138146010118,1.280669352058843,0.7589116250871897,A,583.9200420014095,Correct,sub_009_day_22_data.csv,1,362,,Dual-Task at home,6.0,3.0,small,big,False,Size,right,right,338.7023329996737,Correct,1.0,0.9226519337016574,
9,22,129,A,64.47894230894107,77.92764267488587,3.223947115447054,1.2240845486949596,A,412.9737080074847,Correct,sub_009_day_22_data.csv,1,362,,Dual-Task at home,3.0,7.0,big,small,False,Value,right,right,1916.6050419880776,Correct,1.0,0.9226519337016574,
9,22,130,B,69.59306146292873,37.61084709805327,3.479653073146437,0.5907898046926656,B,412.4677500076359,Correct,sub_009_day_22_data.csv,1,362,,Dual-Task at home,3.0,8.0,big,small,False,Value,right,right,424.560792002012,Correct,1.0,0.9226519337016574,
9,22,131,A,41.976889872660976,69.17895165017451,2.098844493633049,1.0866604314361588,A,393.2037920021685,Correct,sub_009_day_22_data.csv,1,362,,Dual-Task at home,5.0,8.0,big,small,False,Value,right,right,585.84862499265,Correct,1.0,0.9226519337016574,
9,22,132,B,43.01797843748297,26.268175259612217,2.1508989218741483,0.4126195320940344,B,415.8227080042707,Correct,sub_009_day_22_data.csv,1,362,,Dual-Task at home,8.0,7.0,small,big,False,Value,left,right,586.0967079934198,Incorrect,0.0,0.9226519337016574,
9,22,133,B,32.64404844148909,13.44174566315372,1.6322024220744544,0.2111424471339309,B,399.659040995175,Correct,sub_009_day_22_data.csv,1,362,,Dual-Task at home,3.0,2.0,small,big,False,Size,right,right,675.0727920007193,Correct,1.0,0.9226519337016574,
9,22,134,A,51.36160390496725,64.64363152890802,2.5680801952483625,1.015419789562915,A,514.017415989656,Correct,sub_009_day_22_data.csv,1,362,,Dual-Task at home,4.0,5.0,big,small,False,Size,left,left,637.4291250103852,Correct,1.0,0.9226519337016574,
9,22,135,B,48.197952587869224,17.991874922709517,2.4098976293934613,0.2826157104074532,B,401.3907089974964,Correct,sub_009_day_22_data.csv,1,362,,Dual-Task at home,4.0,8.0,small,big,True,Size,right,right,394.15474999987055,Correct,1.0,0.9226519337016574,
9,22,136,B,62.88103942547177,50.695496371736766,3.144051971273589,0.7963229948576812,B,843.3464170084335,Correct,sub_009_day_22_data.csv,1,362,,Dual-Task at home,8.0,3.0,small,big,False,Size,right,right,695.8305410080357,Correct,1.0,0.9226519337016574,
9,22,137,A,46.407736291237306,55.00725628875916,2.3203868145618656,0.8640519612544837,A,751.3964169920655,Correct,sub_009_day_22_data.csv,1,362,,Dual-Task at home,6.0,3.0,small,big,False,Value,left,left,734.0067920013098,Correct,1.0,0.9226519337016574,
9,22,138,A,56.821228495445624,78.31326051138063,2.841061424772281,1.2301418195060851,A,465.87241599627305,Correct,sub_009_day_22_data.csv,1,362,,Dual-Task at home,6.0,2.0,small,big,False,Value,left,left,872.1043330006069,Correct,1.0,0.9226519337016574,
9,22,139,B,63.682550907459415,43.773094294614395,3.184127545372971,0.6875861573042693,B,417.8429169987794,Correct,sub_009_day_22_data.csv,1,362,,Dual-Task at home,5.0,6.0,big,small,False,Size,left,left,348.8895409973338,Correct,1.0,0.9226519337016574,
9,22,140,B,72.98076181289461,57.49874007865675,3.649038090644731,0.9031880971088851,B,694.8683750088094,Correct,sub_009_day_22_data.csv,1,362,,Dual-Task at home,4.0,5.0,small,big,True,Value,right,right,355.4606249963399,Correct,1.0,0.9226519337016574,
9,22,141,B,67.26460695660762,46.688616186559905,3.363230347830381,0.7333830680898504,B,374.8467080004048,Correct,sub_009_day_22_data.csv,1,362,,Dual-Task at home,3.0,2.0,small,big,False,Value,left,left,372.3979579954175,Correct,1.0,0.9226519337016574,
9,22,142,A,49.393452173445915,76.4017521237418,2.469672608672296,1.2001159159666783,A,463.0322090088157,Correct,sub_009_day_22_data.csv,1,362,,Dual-Task at home,5.0,2.0,big,small,True,Value,left,right,478.8349580048816,Incorrect,0.0,0.9226519337016574,
9,22,143,B,72.97638263350214,49.878330635336866,3.648819131675107,0.7834869854864852,B,442.74645901168697,Correct,sub_009_day_22_data.csv,1,362,,Dual-Task at home,6.0,7.0,big,small,False,Size,left,left,843.3982920105336,Correct,1.0,0.9226519337016574,
9,22,144,B,34.582029891808794,18.07301474617652,1.7291014945904395,0.2838902517740408,B,480.3585000045132,Correct,sub_009_day_22_data.csv,1,362,,Dual-Task at home,6.0,7.0,big,small,False,Value,right,right,1024.664374999702,Correct,1.0,0.9226519337016574,
9,22,145,A,41.7931991572583,50.60461749973712,2.089659957862915,0.794895472874478,A,416.3742090022424,Correct,sub_009_day_22_data.csv,1,362,,Dual-Task at home,3.0,8.0,big,small,False,Value,right,right,916.69583300245,Correct,1.0,0.9226519337016574,
9,22,146,B,52.55905657341505,21.563902082433287,2.627952828670752,0.3387249818245103,B,1006.3420000078622,Correct,sub_009_day_22_data.csv,1,362,,Dual-Task at home,6.0,5.0,small,big,False,Size,right,right,739.9692080070963,Correct,1.0,0.9226519337016574,
9,22,147,B,43.09865283775373,27.391372058911287,2.154932641887686,0.430262666160102,B,808.8825410086429,Correct,sub_009_day_22_data.csv,1,362,,Dual-Task at home,4.0,5.0,big,small,False,Size,left,left,2631.3773339934414,Correct,1.0,0.9226519337016574,
9,22,148,B,60.15914330546773,42.665408073913255,3.0079571652733863,0.6701866628370827,B,408.61724999558646,Correct,sub_009_day_22_data.csv,1,362,,Dual-Task at home,5.0,6.0,big,small,False,Value,right,right,421.8394589988747,Correct,1.0,0.9226519337016574,
9,22,149,B,50.39771365881576,31.235037614843204,2.519885682940788,0.4906388235269613,B,370.0608750077663,Correct,sub_009_day_22_data.csv,1,362,,Dual-Task at home,7.0,2.0,small,big,False,Size,right,right,414.6647919988027,Correct,1.0,0.9226519337016574,
9,22,150,A,62.933362294146946,85.93799845859131,3.146668114707347,1.3499109231086073,A,415.895541998907,Correct,sub_009_day_22_data.csv,1,362,,Dual-Task at home,3.0,5.0,big,small,False,Size,left,left,343.1661670038011,Correct,1.0,0.9226519337016574,
9,22,151,A,35.62838751568229,57.21148042986028,1.7814193757841144,0.8986758330972263,A,381.8437919981079,Correct,sub_009_day_22_data.csv,1,362,,Dual-Task at home,3.0,6.0,big,small,False,Size,left,left,1116.5555830084486,Correct,1.0,0.9226519337016574,
9,22,152,A,57.625259153434115,83.2633306086529,2.881262957671706,1.3078973387678103,A,471.82887500093784,Correct,sub_009_day_22_data.csv,1,362,,Dual-Task at home,3.0,2.0,small,big,False,Size,right,right,376.9674580107676,Correct,1.0,0.9226519337016574,
9,22,153,B,35.1148539386066,14.863636810694969,1.7557426969303298,0.2334774610505307,B,790.9607499896083,Correct,sub_009_day_22_data.csv,1,362,,Dual-Task at home,4.0,5.0,big,small,False,Value,right,right,806.8597079982283,Correct,1.0,0.9226519337016574,
9,22,154,B,64.78992074720422,41.83053007843199,3.2394960373602113,0.657072429950844,B,395.7037919899449,Correct,sub_009_day_22_data.csv,1,362,,Dual-Task at home,4.0,3.0,big,small,True,Size,left,left,395.21795901237056,Correct,1.0,0.9226519337016574,
9,22,155,B,53.836733412980706,22.47712950315405,2.6918366706490353,0.3530699246044756,B,364.92533300770447,Correct,sub_009_day_22_data.csv,1,362,,Dual-Task at home,7.0,2.0,small,big,False,Value,left,left,768.3847089938354,Correct,1.0,0.9226519337016574,
9,22,156,B,35.95129997628379,23.25654931902292,1.7975649988141895,0.3653130224424556,B,423.86850000184495,Correct,sub_009_day_22_data.csv,1,362,,Dual-Task at home,6.0,3.0,small,big,False,Value,left,left,1861.8314170016672,Correct,1.0,0.9226519337016574,
9,22,157,A,30.40464903707384,55.14250778126288,1.520232451853692,0.8661764867306673,A,528.1059169938089,Correct,sub_009_day_22_data.csv,1,362,,Dual-Task at home,6.0,4.0,small,big,False,Size,right,right,579.8851250001462,Correct,1.0,0.9226519337016574,
9,22,158,B,41.34735616753334,30.611926529607647,2.0673678083766673,0.4808510174882293,B,457.1231250010897,Correct,sub_009_day_22_data.csv,1,362,,Dual-Task at home,7.0,8.0,big,small,False,Value,right,right,690.3822499880334,Correct,1.0,0.9226519337016574,
9,22,159,A,42.769518858845245,60.92020264741553,2.138475942942262,0.9569323054616105,A,804.5759579981677,Correct,sub_009_day_22_data.csv,1,362,,Dual-Task at home,7.0,6.0,small,big,False,Size,right,right,1834.0773329982767,Correct,1.0,0.9226519337016574,
9,22,160,A,36.5320268300861,56.62838942190278,1.826601341504305,0.8895166609623587,A,500.0954590068432,Correct,sub_009_day_22_data.csv,1,362,,Dual-Task at home,7.0,4.0,small,big,False,Value,left,left,1919.7014169913016,Correct,1.0,0.9226519337016574,
9,22,161,B,83.58331037118387,57.38023617400504,4.179165518559193,0.9013266421275076,B,386.442499991972,Correct,sub_009_day_22_data.csv,1,362,,Dual-Task at home,7.0,8.0,big,small,False,Value,right,right,539.6560840017628,Correct,1.0,0.9226519337016574,
9,22,162,B,47.93046394229862,32.93853934959171,2.3965231971149312,0.5173973662032781,B,489.3609999999171,Correct,sub_009_day_22_data.csv,1,362,,Dual-Task at home,4.0,8.0,big,small,False,Value,right,right,922.964540994144,Correct,1.0,0.9226519337016574,
9,22,163,B,63.34438669015778,43.22136327294554,3.167219334507889,0.6789195866821071,B,395.0035839952762,Correct,sub_009_day_22_data.csv,1,362,,Dual-Task at home,5.0,4.0,big,small,True,Size,left,left,333.7948340049479,Correct,1.0,0.9226519337016574,
9,22,164,A,56.28649100556321,76.15830242266911,2.8143245502781604,1.196291817004635,A,454.91708400368225,Correct,sub_009_day_22_data.csv,1,362,,Dual-Task at home,3.0,2.0,small,big,False,Value,left,right,1206.2884170009056,Incorrect,0.0,0.9226519337016574,
9,22,165,A,17.398033607473394,40.12174539994332,0.8699016803736697,0.6302309029883101,A,423.2526670093648,Correct,sub_009_day_22_data.csv,1,362,,Dual-Task at home,3.0,5.0,big,small,False,Value,right,right,812.9235410015099,Correct,1.0,0.9226519337016574,
9,22,166,B,69.2045039814291,49.61450233588002,3.4602251990714548,0.7793427802495715,B,541.1182500101859,Correct,sub_009_day_22_data.csv,1,362,,Dual-Task at home,3.0,7.0,big,small,False,Value,right,right,564.9296670017065,Correct,1.0,0.9226519337016574,
9,22,167,B,36.89113796751063,21.264353453179847,1.8445568983755316,0.3340196829592328,B,616.9745829975,Correct,sub_009_day_22_data.csv,1,362,,Dual-Task at home,3.0,2.0,small,big,False,Size,right,right,617.827624999336,Correct,1.0,0.9226519337016574,
9,22,168,A,43.60193074812202,55.03512130188325,2.180096537406101,0.8644896638570976,A,749.3313749873778,Correct,sub_009_day_22_data.csv,1,362,,Dual-Task at home,7.0,6.0,small,big,False,Value,left,left,753.4327499888605,Correct,1.0,0.9226519337016574,
9,22,169,A,39.58333970804509,72.01387233088995,1.9791669854022544,1.1311912613563857,A,607.910291000735,Correct,sub_009_day_22_data.csv,1,362,,Dual-Task at home,5.0,8.0,big,small,False,Size,left,left,522.949249992962,Correct,1.0,0.9226519337016574,
9,22,170,A,35.23409185707707,63.580455791529054,1.7617045928538533,0.9987194641327916,A,404.9773330043536,Correct,sub_009_day_22_data.csv,1,362,,Dual-Task at home,7.0,8.0,big,small,False,Size,left,left,370.60558299708646,Correct,1.0,0.9226519337016574,
9,22,171,B,48.654903161680394,30.975678882218897,2.43274515808402,0.4865648260816768,B,534.2585000034887,Correct,sub_009_day_22_data.csv,1,362,,Dual-Task at home,6.0,8.0,big,small,False,Value,right,right,990.6749999936436,Correct,1.0,0.9226519337016574,
9,22,172,A,44.307117844741974,76.31322207757881,2.2153558922370986,1.19872528925344,A,471.0605839936761,Correct,sub_009_day_22_data.csv,1,362,,Dual-Task at home,6.0,2.0,small,big,False,Size,right,right,2048.6056249937974,Correct,1.0,0.9226519337016574,
9,22,173,A,30.17874378177295,62.71528613741711,1.5089371890886474,0.9851294109854568,A,396.79425000213087,Correct,sub_009_day_22_data.csv,1,362,,Dual-Task at home,7.0,6.0,small,big,False,Value,left,left,1706.8925420026062,Correct,1.0,0.9226519337016574,
9,22,174,A,46.52426503772787,61.94613524965856,2.3262132518863936,0.9730476170930352,A,411.78216598927975,Correct,sub_009_day_22_data.csv,1,362,,Dual-Task at home,5.0,8.0,big,small,False,Value,right,right,670.6899589917157,Correct,1.0,0.9226519337016574,
9,22,175,A,27.446119080760557,58.79202108843891,1.372305954038028,0.9235029077056792,A,452.38608299405314,Correct,sub_009_day_22_data.csv,1,362,,Dual-Task at home,3.0,4.0,big,small,False,Value,right,right,1335.7855420035776,Correct,1.0,0.9226519337016574,
9,22,176,B,73.25470679406675,45.543518066755674,3.6627353397033375,0.7153959088857683,B,418.4001669927966,Correct,sub_009_day_22_data.csv,1,362,,Dual-Task at home,5.0,3.0,small,big,False,Value,left,left,557.8060840052785,Correct,1.0,0.9226519337016574,
9,22,177,B,55.46281028745294,30.45580810296579,2.7731405143726473,0.4783987149770891,B,429.7597499971744,Correct,sub_009_day_22_data.csv,1,362,,Dual-Task at home,2.0,7.0,big,small,False,Value,right,right,612.1907500055386,Correct,1.0,0.9226519337016574,
9,22,178,B,30.53070893790394,12.877004599715338,1.5265354468951968,0.2022715152535384,B,409.12975001265295,Correct,sub_009_day_22_data.csv,1,362,,Dual-Task at home,2.0,8.0,big,small,False,Value,right,right,607.9815839912044,Correct,1.0,0.9226519337016574,
9,22,179,A,51.0997484358371,69.02827934918533,2.5549874217918553,1.0842936764667233,A,467.20587500021793,Correct,sub_009_day_22_data.csv,1,362,,Dual-Task at home,4.0,6.0,big,small,False,Value,right,right,774.346374993911,Correct,1.0,0.9226519337016574,
9,22,180,B,86.88700437307584,68.08559540607467,4.344350218653792,1.069486031715056,B,465.0858329987386,Correct,sub_009_day_22_data.csv,1,362,,Dual-Task at home,7.0,8.0,big,small,False,Size,left,right,1340.7220829976725,Incorrect,0.0,0.9226519337016574,
9,22,181,B,41.240543228177486,26.916500516784428,2.0620271614088743,0.4228034014193791,B,397.85545800987165,Correct,sub_009_day_22_data.csv,1,362,,Dual-Task at home,4.0,3.0,small,big,False,Value,left,left,366.03820900199935,Correct,1.0,0.9226519337016574,
9,22,182,B,70.27622962721497,49.4585431637293,3.513811481360749,0.7768929793021283,B,372.5514590041712,Correct,sub_009_day_22_data.csv,1,362,,Dual-Task at home,3.0,5.0,big,small,False,Value,right,right,492.2233340039384,Correct,1.0,0.9226519337016574,
9,22,183,A,37.9886012912607,47.349804033875785,1.8994300645630349,0.7437689825087026,A,495.74679099896457,Correct,sub_009_day_22_data.csv,1,362,,Dual-Task at home,5.0,6.0,big,small,False,Value,right,right,430.96254199917894,Correct,1.0,0.9226519337016574,
9,22,184,B,78.10159733641414,60.18645791669134,3.9050798668207074,0.9454066701833436,B,478.7342499912483,Correct,sub_009_day_22_data.csv,1,362,,Dual-Task at home,7.0,4.0,small,big,False,Size,right,right,2154.7015419928357,Correct,1.0,0.9226519337016574,
9,22,185,A,38.03948113128793,69.82588432150538,1.9019740565643963,1.0968224260742605,A,319.78849999723025,Correct,sub_009_day_22_data.csv,1,362,,Dual-Task at home,2.0,6.0,big,small,False,Size,left,left,388.6423750082031,Correct,1.0,0.9226519337016574,
9,22,186,A,31.11791403050342,56.84358468896486,1.5558957015251709,0.8928969403128063,A,436.005584007944,Correct,sub_009_day_22_data.csv,1,362,,Dual-Task at home,8.0,5.0,small,big,False,Size,right,right,387.98491600027774,Correct,1.0,0.9226519337016574,
9,22,187,B,87.4415859266764,61.90952225371757,4.37207929633382,0.9724725014976646,B,374.67258400283754,Correct,sub_009_day_22_data.csv,1,362,,Dual-Task at home,4.0,5.0,big,small,False,Size,left,left,633.876792009687,Correct,1.0,0.9226519337016574,
9,22,188,B,46.94359566562113,32.249021527102414,2.3471797832810566,0.5065664455750201,B,552.4162499932572,Correct,sub_009_day_22_data.csv,1,362,,Dual-Task at home,3.0,6.0,big,small,False,Size,left,left,558.6470410053153,Correct,1.0,0.9226519337016574,
9,22,189,B,80.78206389352556,53.1943938615814,4.039103194676278,0.8355755848385307,B,378.18270799471065,Correct,sub_009_day_22_data.csv,1,362,,Dual-Task at home,3.0,8.0,big,small,False,Size,left,left,545.5672920070356,Correct,1.0,0.9226519337016574,
9,22,190,A,61.91958482447053,77.93879001411017,3.0959792412235263,1.22425965069003,A,533.1505420035683,Correct,sub_009_day_22_data.csv,1,362,,Dual-Task at home,3.0,4.0,big,small,False,Size,left,left,663.8642909965711,Correct,1.0,0.9226519337016574,
9,22,191,A,36.92632981023543,54.86474012581272,1.8463164905117713,0.8618133226018319,A,402.97541600011755,Correct,sub_009_day_22_data.csv,1,362,,Dual-Task at home,5.0,8.0,small,big,True,Value,right,right,554.0854999999283,Correct,1.0,0.9226519337016574,
9,22,192,A,57.907063479188594,75.30967309729918,2.8953531739594296,1.18296157873362,A,461.1948750098236,Correct,sub_009_day_22_data.csv,1,362,,Dual-Task at home,3.0,2.0,small,big,False,Value,left,left,1237.736375012901,Correct,1.0,0.9226519337016574,
9,22,193,B,82.2880860385364,55.85430543869185,4.11440430192682,0.8773573781877737,B,395.72025000234134,Correct,sub_009_day_22_data.csv,1,362,,Dual-Task at home,2.0,8.0,small,big,True,Value,right,right,617.7837499999441,Correct,1.0,0.9226519337016574,
9,22,194,A,31.54915565576088,53.524168327822224,1.577457782788044,0.8407556700409488,A,395.08687499619555,Correct,sub_009_day_22_data.csv,1,362,,Dual-Task at home,8.0,7.0,small,big,False,Value,left,left,764.4809999910649,Correct,1.0,0.9226519337016574,
9,22,195,A,39.44847434898372,51.11479916178163,1.972423717449186,0.8029093876818545,A,503.82137499400415,Correct,sub_009_day_22_data.csv,1,362,,Dual-Task at home,2.0,8.0,big,small,False,Value,right,right,717.7898750087479,Correct,1.0,0.9226519337016574,
9,22,196,A,21.109989819611226,46.39620797652218,1.0554994909805613,0.7287899306673312,A,491.0439579980448,Correct,sub_009_day_22_data.csv,1,362,,Dual-Task at home,2.0,4.0,big,small,False,Size,left,left,2227.456833003089,Correct,1.0,0.9226519337016574,
9,22,197,A,45.47136600978054,52.10373365693799,2.2735683004890266,0.8184435344061782,B,2575.4759579867823,Incorrect,sub_009_day_22_data.csv,0,362,,Dual-Task at home,8.0,7.0,small,big,False,Value,left,right,1028.780792010366,Incorrect,0.0,0.9226519337016574,
9,22,198,A,68.09354367779457,85.08740451682704,3.4046771838897287,1.3365498247154337,A,520.445792004466,Correct,sub_009_day_22_data.csv,1,362,,Dual-Task at home,2.0,5.0,big,small,False,Size,left,left,1013.9628330070992,Correct,1.0,0.9226519337016574,
9,22,199,A,63.42447757567547,76.01896050870621,3.1712238787837737,1.1941030393384202,A,466.8782920052763,Correct,sub_009_day_22_data.csv,1,362,,Dual-Task at home,6.0,4.0,small,big,False,Size,right,right,790.4385419969913,Correct,1.0,0.9226519337016574,
9,22,200,A,40.67785682381895,56.17939511857277,2.0338928411909474,0.8824638749381325,A,481.1092500021914,Correct,sub_009_day_22_data.csv,1,362,,Dual-Task at home,2.0,6.0,big,small,False,Value,right,right,584.0435420104768,Correct,1.0,0.9226519337016574,
9,22,201,B,81.88535854001951,64.6205171764388,4.094267927000976,1.0150567101633658,B,359.6363749966258,Correct,sub_009_day_22_data.csv,1,362,,Dual-Task at home,7.0,8.0,small,big,True,Size,right,right,581.5873749961611,Correct,1.0,0.9226519337016574,
9,22,202,A,43.59982384202144,71.03783342109904,2.1799911921010717,1.115859678013301,A,384.0142080007354,Correct,sub_009_day_22_data.csv,1,362,,Dual-Task at home,5.0,8.0,big,small,False,Size,left,left,1280.6490000075428,Correct,1.0,0.9226519337016574,
9,22,203,B,43.726437161216055,27.162574876450932,2.1863218580608024,0.4266687284222046,B,383.5301249928307,Correct,sub_009_day_22_data.csv,1,362,,Dual-Task at home,4.0,6.0,big,small,False,Size,left,left,551.4059170091059,Correct,1.0,0.9226519337016574,
9,22,204,A,66.79569132390053,84.31297660621674,3.3397845661950267,1.3243851395418926,A,469.1149580030469,Correct,sub_009_day_22_data.csv,1,362,,Dual-Task at home,4.0,2.0,small,big,False,Value,left,left,717.517917000805,Correct,1.0,0.9226519337016574,
9,22,205,A,40.424683395079114,72.59013963038954,2.0212341697539555,1.1402432469294457,A,416.9130420050351,Correct,sub_009_day_22_data.csv,1,362,,Dual-Task at home,8.0,7.0,big,small,True,Value,left,left,806.5304159972584,Correct,1.0,0.9226519337016574,
9,22,206,B,36.82469505922844,19.412686522881504,1.841234752961422,0.3049337668336306,B,441.9087920105085,Correct,sub_009_day_22_data.csv,1,362,,Dual-Task at home,5.0,2.0,small,big,False,Value,left,left,483.296666003298,Correct,1.0,0.9226519337016574,
9,22,207,B,41.970483649757846,13.679659675886375,2.098524182487892,0.2148795917068658,B,399.7762920043897,Correct,sub_009_day_22_data.csv,1,362,,Dual-Task at home,2.0,3.0,small,big,True,Value,right,left,711.536624992732,Incorrect,0.0,0.9226519337016574,
9,22,208,A,29.675702439392495,41.66227011896855,1.4837851219696248,0.6544294086881258,A,450.83875001000706,Correct,sub_009_day_22_data.csv,1,362,,Dual-Task at home,5.0,8.0,big,small,False,Value,right,right,480.101791996276,Correct,1.0,0.9226519337016574,
9,22,209,A,19.474164247510434,41.75377737621566,0.9737082123755216,0.6558668013237141,A,374.8444999946514,Correct,sub_009_day_22_data.csv,1,362,,Dual-Task at home,4.0,7.0,big,small,False,Size,left,left,666.5710830129683,Correct,1.0,0.9226519337016574,
9,22,210,A,57.49598303150973,83.7721591845864,2.874799151575486,1.315889999348257,A,471.89270801027305,Correct,sub_009_day_22_data.csv,1,362,,Dual-Task at home,8.0,4.0,small,big,False,Value,left,left,416.488417002256,Correct,1.0,0.9226519337016574,
9,22,211,A,56.42394102024837,81.36019770011535,2.8211970510124185,1.278002996946478,A,425.43933299020864,Correct,sub_009_day_22_data.csv,1,362,,Dual-Task at home,2.0,4.0,big,small,False,Size,left,left,683.8954160048161,Correct,1.0,0.9226519337016574,
9,22,212,A,56.30260182515846,82.4408222952578,2.8151300912579234,1.2949774083934176,A,380.76579199696425,Correct,sub_009_day_22_data.csv,1,362,,Dual-Task at home,3.0,6.0,big,small,False,Size,left,left,665.8890830003656,Correct,1.0,0.9226519337016574,
9,22,213,A,57.08493186898264,76.97018720770255,2.854246593449132,1.2090448733857473,A,422.12208300770726,Correct,sub_009_day_22_data.csv,1,362,,Dual-Task at home,3.0,7.0,big,small,False,Size,left,left,444.176624994725,Correct,1.0,0.9226519337016574,
9,22,214,B,77.91048161773509,50.28655584735414,3.895524080886754,0.7898993721219032,B,361.9033750001108,Correct,sub_009_day_22_data.csv,1,362,,Dual-Task at home,8.0,4.0,small,big,False,Size,right,right,496.7884580109967,Correct,1.0,0.9226519337016574,
9,22,215,A,69.73681137945852,88.44443129962134,3.4868405689729256,1.389281878109088,A,506.8138339993311,Correct,sub_009_day_22_data.csv,1,362,,Dual-Task at home,6.0,4.0,small,big,False,Size,right,right,513.6928750143852,Correct,1.0,0.9226519337016574,
9,22,216,B,86.78050382908187,69.33624514850375,4.339025191454093,1.0891311919302016,B,410.11020899168216,Correct,sub_009_day_22_data.csv,1,362,,Dual-Task at home,6.0,8.0,big,small,False,Size,left,left,470.30804099631496,Correct,1.0,0.9226519337016574,
9,22,217,B,38.38433307066993,28.07443821936468,1.9192166535334965,0.4409922443180829,B,411.1974160041427,Correct,sub_009_day_22_data.csv,1,362,,Dual-Task at home,3.0,7.0,big,small,False,Value,right,right,948.9044999936596,Correct,1.0,0.9226519337016574,
9,22,218,A,39.27168259555941,47.5422808977373,1.9635841297779704,0.7467924020161693,B,821.370375007973,Incorrect,sub_009_day_22_data.csv,0,362,,Dual-Task at home,3.0,7.0,big,small,False,Size,left,left,865.5657080089441,Correct,1.0,0.9226519337016574,
9,22,219,A,52.49058812606876,81.53305168417364,2.624529406303438,1.2807181809787842,A,583.306917003938,Correct,sub_009_day_22_data.csv,1,362,,Dual-Task at home,4.0,5.0,big,small,False,Size,left,left,494.90474999765866,Correct,1.0,0.9226519337016574,
9,22,220,B,55.88493824886935,38.80116427516361,2.7942469124434672,0.6094872631879236,B,385.9985409944784,Correct,sub_009_day_22_data.csv,1,362,,Dual-Task at home,3.0,4.0,big,small,False,Value,right,right,417.1260830044048,Correct,1.0,0.9226519337016574,
9,22,221,A,63.478688665280266,76.63033438584038,3.173934433264013,1.2037064777434274,A,425.5809999885969,Correct,sub_009_day_22_data.csv,1,362,,Dual-Task at home,8.0,6.0,big,small,True,Size,left,left,540.0652079988504,Correct,1.0,0.9226519337016574,
9,22,222,A,46.82907740970936,66.27552989963547,2.341453870485468,1.0410535892273274,A,423.4077500004787,Correct,sub_009_day_22_data.csv,1,362,,Dual-Task at home,5.0,8.0,big,small,False,Size,left,left,474.58220800035633,Correct,1.0,0.9226519337016574,
9,22,223,B,39.47314090545661,21.899689840239933,1.9736570452728304,0.343999523589964,B,470.3046250069747,Correct,sub_009_day_22_data.csv,1,362,,Dual-Task at home,4.0,3.0,small,big,False,Size,right,right,994.8105840012432,Correct,1.0,0.9226519337016574,
9,22,224,B,69.15225176989912,39.367767109316,3.457612588494956,0.6183874396943051,B,454.9107500060927,Correct,sub_009_day_22_data.csv,1,362,,Dual-Task at home,2.0,4.0,big,small,False,Size,left,left,532.4756670015631,Correct,1.0,0.9226519337016574,
9,22,225,A,36.41101451336355,52.887594772494005,1.8205507256681772,0.8307563960165055,A,475.818499995512,Correct,sub_009_day_22_data.csv,1,362,,Dual-Task at home,6.0,5.0,small,big,False,Size,right,right,666.3542499882169,Correct,1.0,0.9226519337016574,
9,22,226,B,59.09466081243975,28.467600679401553,2.954733040621987,0.4471680257986786,B,416.7295420047594,Correct,sub_009_day_22_data.csv,1,362,,Dual-Task at home,5.0,3.0,small,big,False,Value,left,left,1108.4034999948926,Correct,1.0,0.9226519337016574,
9,22,227,B,73.74908148869972,46.01125241346133,3.687454074434986,0.7227430628229787,B,369.0706250054063,Correct,sub_009_day_22_data.csv,1,362,,Dual-Task at home,5.0,8.0,big,small,False,Size,left,left,359.99299999093637,Correct,1.0,0.9226519337016574,
9,22,228,B,76.88321714310537,63.91885268013271,3.844160857155268,1.0040349900289658,B,401.82979199744295,Correct,sub_009_day_22_data.csv,1,362,,Dual-Task at home,7.0,8.0,big,small,False,Size,left,left,3026.385165998363,Correct,1.0,0.9226519337016574,
9,22,229,A,44.39481614620243,75.9119221457746,2.2197408073101217,1.1924216846652291,A,719.4272500055376,Correct,sub_009_day_22_data.csv,1,362,,Dual-Task at home,6.0,8.0,big,small,False,Size,left,left,1626.4965830050642,Correct,1.0,0.9226519337016574,
9,22,230,B,64.62057070950208,35.32041252629453,3.231028535475104,0.5548117425718391,B,502.8385839978,Correct,sub_009_day_22_data.csv,1,362,,Dual-Task at home,6.0,2.0,small,big,False,Value,left,left,758.7759159941925,Correct,1.0,0.9226519337016574,
9,22,231,A,56.723002146227344,79.23381780366044,2.8361501073113673,1.2446018996392592,A,740.5079589952948,Correct,sub_009_day_22_data.csv,1,362,,Dual-Task at home,7.0,4.0,big,small,True,Value,left,left,668.4657500009052,Correct,1.0,0.9226519337016574,
9,22,232,A,55.16722441137307,76.72839064637498,2.7583612205686534,1.2052467418820971,A,777.6297500095097,Correct,sub_009_day_22_data.csv,1,362,,Dual-Task at home,6.0,7.0,small,big,True,Value,right,right,389.38354200217873,Correct,1.0,0.9226519337016574,
9,22,233,B,83.09826311654462,62.07416713589983,4.154913155827231,0.9750587372592392,B,361.0634590004338,Correct,sub_009_day_22_data.csv,1,362,,Dual-Task at home,8.0,4.0,small,big,False,Size,right,right,1024.6571250027046,Correct,1.0,0.9226519337016574,
9,22,234,B,57.37101991650262,46.53868529419616,2.868550995825131,0.73102795913987,B,367.9447909962619,Correct,sub_009_day_22_data.csv,1,362,,Dual-Task at home,2.0,6.0,big,small,False,Size,left,left,1063.4012079972308,Correct,1.0,0.9226519337016574,
9,22,235,A,39.84627659974515,68.56826407322993,1.9923138299872576,1.0770677734093204,A,742.7062500064494,Correct,sub_009_day_22_data.csv,1,362,,Dual-Task at home,6.0,8.0,big,small,False,Size,left,left,525.0089580076747,Correct,1.0,0.9226519337016574,
9,22,236,A,12.619364832482075,36.71141867413708,0.6309682416241038,0.5766616160476409,A,436.80874998972286,Correct,sub_009_day_22_data.csv,1,362,,Dual-Task at home,3.0,8.0,big,small,False,Size,left,left,839.9576669908129,Correct,1.0,0.9226519337016574,
9,22,237,B,40.58288136509994,23.892099063168253,2.029144068254997,0.3752962144784448,B,383.4114580095047,Correct,sub_009_day_22_data.csv,1,362,,Dual-Task at home,7.0,2.0,small,big,False,Size,right,right,400.59366599598434,Correct,1.0,0.9226519337016574,
9,22,238,B,38.7025167805735,29.6846451712666,1.9351258390286747,0.4662853159723544,B,570.1645829976769,Correct,sub_009_day_22_data.csv,1,362,,Dual-Task at home,3.0,5.0,big,small,False,Value,right,right,979.9870419956278,Correct,1.0,0.9226519337016574,
9,22,239,A,52.65848318044414,67.73904180450008,2.632924159022207,1.0640423804711463,A,476.04537500592414,Correct,sub_009_day_22_data.csv,1,362,,Dual-Task at home,7.0,2.0,small,big,False,Value,left,right,1521.5358749992447,Incorrect,0.0,0.9226519337016574,
9,22,240,A,46.04452424500143,71.7565866503468,2.302226212250072,1.1271498273370448,A,443.8653749966761,Correct,sub_009_day_22_data.csv,1,362,,Dual-Task at home,5.0,8.0,big,small,False,Size,left,left,326.9104579958366,Correct,1.0,0.9226519337016574,
9,22,241,A,44.82736828473628,75.235012541731,2.241368414236814,1.1817888134691903,B,336.12345800793264,Incorrect,sub_009_day_22_data.csv,0,362,,Dual-Task at home,4.0,3.0,small,big,False,Value,left,left,1330.6882080069045,Correct,1.0,0.9226519337016574,
9,22,242,B,78.97550571005131,53.84828128600789,3.9487752855025655,0.8458468244827957,B,466.98962499795016,Correct,sub_009_day_22_data.csv,1,362,,Dual-Task at home,5.0,8.0,big,small,False,Value,right,right,467.5399169937009,Correct,1.0,0.9226519337016574,
9,22,243,A,27.042548926567648,47.744667158178686,1.3521274463283823,0.7499714779611202,A,411.1860830016667,Correct,sub_009_day_22_data.csv,1,362,,Dual-Task at home,7.0,2.0,small,big,False,Size,right,right,347.72658300062176,Correct,1.0,0.9226519337016574,
9,22,244,B,72.1994532969616,47.122453486338586,3.609972664848079,0.7401977684590402,B,370.2105409902288,Correct,sub_009_day_22_data.csv,1,362,,Dual-Task at home,5.0,8.0,big,small,False,Size,left,left,1151.7821669986006,Correct,1.0,0.9226519337016574,
9,22,245,B,65.7131636235918,44.29132663163883,3.28565818117959,0.6957265318185125,B,365.4455000068992,Correct,sub_009_day_22_data.csv,1,362,,Dual-Task at home,4.0,7.0,big,small,False,Size,left,left,465.7787920004921,Correct,1.0,0.9226519337016574,
9,22,246,A,50.29662559357181,61.27449969374528,2.51483127967859,0.9624975904513012,A,487.87820800498594,Correct,sub_009_day_22_data.csv,1,362,,Dual-Task at home,8.0,3.0,small,big,False,Value,left,left,830.7096250064205,Correct,1.0,0.9226519337016574,
9,22,247,B,65.88410774651848,45.041637819416714,3.2942053873259236,0.7075123923956587,B,392.84041700011585,Correct,sub_009_day_22_data.csv,1,362,,Dual-Task at home,5.0,6.0,big,small,False,Value,right,right,380.48683300439734,Correct,1.0,0.9226519337016574,
9,22,248,A,49.0523833947703,56.05291607158715,2.452619169738515,0.8804771467139173,A,454.2106660082936,Correct,sub_009_day_22_data.csv,1,362,,Dual-Task at home,4.0,7.0,big,small,False,Size,left,left,311.6250000020955,Correct,1.0,0.9226519337016574,
9,22,249,B,37.27412862979808,23.42154451883871,1.863706431489904,0.3679047609805499,B,398.5000420070719,Correct,sub_009_day_22_data.csv,1,362,,Dual-Task at home,3.0,8.0,big,small,False,Value,right,right,1031.2187499948775,Correct,1.0,0.9226519337016574,
9,22,250,A,51.21464940096739,76.92765235076456,2.56073247004837,1.2083767374153578,A,427.8807910013711,Correct,sub_009_day_22_data.csv,1,362,,Dual-Task at home,8.0,6.0,small,big,False,Size,right,right,2040.2585420088144,Correct,1.0,0.9226519337016574,
9,22,251,A,17.905398882369873,38.034129300841784,0.8952699441184936,0.5974387059860442,A,470.0496659934288,Correct,sub_009_day_22_data.csv,1,362,,Dual-Task at home,8.0,2.0,small,big,False,Size,right,right,586.5469580021454,Correct,1.0,0.9226519337016574,
9,22,252,A,35.490593870504256,58.06984634141113,1.7745296935252128,0.9121590133063266,A,421.4990000036778,Correct,sub_009_day_22_data.csv,1,362,,Dual-Task at home,7.0,2.0,small,big,False,Value,left,left,487.6668329961831,Correct,1.0,0.9226519337016574,
9,22,253,A,65.35606139292409,80.6583659116272,3.267803069646204,1.266978648992627,A,389.7863750025863,Correct,sub_009_day_22_data.csv,1,362,,Dual-Task at home,3.0,5.0,big,small,False,Value,right,left,646.791667008074,Incorrect,0.0,0.9226519337016574,
9,22,254,A,67.22143216553269,88.4284222204126,3.3610716082766343,1.3890304080809233,A,384.8992920102319,Correct,sub_009_day_22_data.csv,1,362,,Dual-Task at home,8.0,3.0,small,big,False,Size,right,right,584.3041670013918,Correct,1.0,0.9226519337016574,
9,22,255,B,64.24508810483532,32.08019096413099,3.2122544052417656,0.5039144612933579,B,385.4127080121543,Correct,sub_009_day_22_data.csv,1,362,,Dual-Task at home,8.0,4.0,big,small,True,Size,left,left,371.75950000528246,Correct,1.0,0.9226519337016574,
9,22,256,B,31.646597518856915,13.471326449450244,1.5823298759428457,0.2116071010385138,B,374.8409999971045,Correct,sub_009_day_22_data.csv,1,362,,Dual-Task at home,7.0,4.0,small,big,False,Size,right,right,683.0966670095222,Correct,1.0,0.9226519337016574,
9,22,257,A,54.90572490849567,71.70581207172246,2.7452862454247837,1.126352262121068,A,479.4466669991379,Correct,sub_009_day_22_data.csv,1,362,,Dual-Task at home,3.0,5.0,big,small,False,Value,right,right,670.8184580056695,Correct,1.0,0.9226519337016574,
9,22,258,A,58.251566056743314,75.86264936479941,2.9125783028371655,1.1916477096315612,A,420.7480830082204,Correct,sub_009_day_22_data.csv,1,362,,Dual-Task at home,4.0,8.0,big,small,False,Value,right,right,1015.3192909929204,Correct,1.0,0.9226519337016574,
9,22,259,A,22.95388191201397,40.36266806336464,1.1476940956006985,0.6340153073357485,A,482.3240830010036,Correct,sub_009_day_22_data.csv,1,362,,Dual-Task at home,4.0,3.0,small,big,False,Value,left,left,1236.7642500030342,Correct,1.0,0.9226519337016574,
9,22,260,B,81.38202694609807,67.4892313714509,4.069101347304903,1.0601183673648598,B,352.19758399762213,Correct,sub_009_day_22_data.csv,1,362,,Dual-Task at home,6.0,7.0,big,small,False,Size,left,left,311.6577920009149,Correct,1.0,0.9226519337016574,
9,22,261,B,63.125538811440826,42.05444636327419,3.1562769405720412,0.6605896987282409,B,444.9070410046261,Correct,sub_009_day_22_data.csv,1,362,,Dual-Task at home,6.0,3.0,small,big,False,Size,right,right,3103.894832995138,Correct,1.0,0.9226519337016574,
9,22,262,B,37.60864801569005,19.647691492702315,1.8804324007845024,0.3086252162673613,B,378.9135410042946,Correct,sub_009_day_22_data.csv,1,362,,Dual-Task at home,8.0,7.0,small,big,False,Size,right,right,584.3519589980133,Correct,1.0,0.9226519337016574,
9,22,263,A,23.782155493969576,53.09372239035034,1.1891077746984788,0.8339942410663026,A,473.99354199296795,Correct,sub_009_day_22_data.csv,1,362,,Dual-Task at home,3.0,5.0,big,small,False,Size,left,left,540.9280409949133,Correct,1.0,0.9226519337016574,
9,22,264,A,23.341701798722344,47.79611537166163,1.1670850899361171,0.7507796246087117,A,389.8727499909001,Correct,sub_009_day_22_data.csv,1,362,,Dual-Task at home,4.0,5.0,big,small,False,Value,right,right,1655.1137500064217,Correct,1.0,0.9226519337016574,
9,22,265,A,54.65598828265238,73.46006838584721,2.732799414132619,1.1539080558659072,A,393.0697909963783,Correct,sub_009_day_22_data.csv,1,362,,Dual-Task at home,6.0,4.0,small,big,False,Value,left,left,441.838333994383,Correct,1.0,0.9226519337016574,
9,22,266,A,21.26993642390485,48.52098409018648,1.0634968211952425,0.7621658358133854,A,423.9192499953788,Correct,sub_009_day_22_data.csv,1,362,,Dual-Task at home,7.0,2.0,small,big,False,Size,right,left,2015.1519170030951,Incorrect,0.0,0.9226519337016574,
9,22,267,A,52.17706595032606,77.94051284689262,2.608853297516303,1.2242867128840935,A,359.3870420008898,Correct,sub_009_day_22_data.csv,1,362,,Dual-Task at home,7.0,2.0,small,big,False,Value,left,left,294.33054200490005,Correct,1.0,0.9226519337016574,
9,22,268,B,38.72196529702337,28.749498192744145,1.936098264851168,0.4515960615835901,B,420.6974170083413,Correct,sub_009_day_22_data.csv,1,362,,Dual-Task at home,7.0,8.0,big,small,False,Value,right,left,808.2809170009568,Incorrect,0.0,0.9226519337016574,
9,22,269,A,16.763215780877168,40.71296765482751,0.8381607890438585,0.6395178004512249,A,439.71575000614394,Correct,sub_009_day_22_data.csv,1,362,,Dual-Task at home,4.0,5.0,big,small,False,Value,right,right,866.3814580067992,Correct,1.0,0.9226519337016574,
9,22,270,B,37.587394340560806,20.51377249901007,1.8793697170280403,0.3222295849015119,B,354.7786669951165,Correct,sub_009_day_22_data.csv,1,362,,Dual-Task at home,8.0,3.0,big,small,True,Value,left,left,717.2352089983178,Correct,1.0,0.9226519337016574,
9,22,271,A,57.213635369240606,67.12777474570109,2.86068176846203,1.0544406199646248,A,634.8201670043636,Correct,sub_009_day_22_data.csv,1,362,,Dual-Task at home,4.0,7.0,big,small,False,Size,left,left,325.31754100637045,Correct,1.0,0.9226519337016574,
9,22,272,B,69.13355138291404,39.91028233845594,3.456677569145702,0.6269092489859384,B,358.40137500781566,Correct,sub_009_day_22_data.csv,1,362,,Dual-Task at home,6.0,3.0,small,big,False,Value,left,left,604.4824169948697,Correct,1.0,0.9226519337016574,
9,22,273,A,66.60615665731463,82.93473852442813,3.3303078328657314,1.302735826378669,A,436.6132910072338,Correct,sub_009_day_22_data.csv,1,362,,Dual-Task at home,8.0,4.0,big,small,True,Size,left,left,516.2466659967322,Correct,1.0,0.9226519337016574,
9,22,274,A,28.872244490014776,40.72771908921485,1.4436122245007388,0.6397495154407307,A,450.53537499916274,Correct,sub_009_day_22_data.csv,1,362,,Dual-Task at home,7.0,5.0,small,big,False,Value,left,left,487.4827920139069,Correct,1.0,0.9226519337016574,
9,22,275,A,15.33155938468018,36.267812376023514,0.7665779692340089,0.5696934646114423,A,373.9540420065168,Correct,sub_009_day_22_data.csv,1,362,,Dual-Task at home,7.0,3.0,small,big,False,Value,left,left,430.6803329964168,Correct,1.0,0.9226519337016574,
9,22,276,A,51.48402588314978,64.33688066804763,2.5742012941574894,1.0106013583081082,A,448.7008330033859,Correct,sub_009_day_22_data.csv,1,362,,Dual-Task at home,3.0,8.0,big,small,False,Size,left,left,312.00400000670925,Correct,1.0,0.9226519337016574,
9,22,277,B,36.75199216653619,15.174204971925151,1.8375996083268096,0.2383558543193288,B,414.8165839869762,Correct,sub_009_day_22_data.csv,1,362,,Dual-Task at home,2.0,5.0,small,big,True,Size,right,right,445.55887499882374,Correct,1.0,0.9226519337016574,
9,22,278,A,65.33182500737075,79.44430096840419,3.2665912503685375,1.2479081614595755,A,470.41929099941626,Correct,sub_009_day_22_data.csv,1,362,,Dual-Task at home,7.0,4.0,small,big,False,Value,left,left,312.08120900555514,Correct,1.0,0.9226519337016574,
9,22,279,A,33.4298273775562,50.24529167628843,1.67149136887781,0.7892511960385207,A,435.0284169922816,Correct,sub_009_day_22_data.csv,1,362,,Dual-Task at home,7.0,3.0,small,big,False,Size,right,right,332.17124998918734,Correct,1.0,0.9226519337016574,
9,22,280,A,54.01999757808648,67.35882227951599,2.7009998789043244,1.0580699061389396,A,511.3227499969071,Correct,sub_009_day_22_data.csv,1,362,,Dual-Task at home,4.0,8.0,small,big,True,Size,right,right,249.5959999941988,Correct,1.0,0.9226519337016574,
9,22,281,B,51.11448807144042,27.30679604224558,2.555724403572021,0.4289341491969677,B,386.08812500024214,Correct,sub_009_day_22_data.csv,1,362,,Dual-Task at home,2.0,7.0,big,small,False,Size,left,left,351.4855420071399,Correct,1.0,0.9226519337016574,
9,22,282,A,59.16556470374577,77.97515014081165,2.9582782351872883,1.224830794224675,A,452.8295420022914,Correct,sub_009_day_22_data.csv,1,362,,Dual-Task at home,7.0,2.0,small,big,False,Value,left,left,293.6864160001278,Correct,1.0,0.9226519337016574,
9,22,283,B,32.64927838563099,12.261521779066875,1.6324639192815495,0.1926035337147387,B,396.943250001641,Correct,sub_009_day_22_data.csv,1,362,,Dual-Task at home,2.0,6.0,big,small,False,Size,left,left,644.9735829955898,Correct,1.0,0.9226519337016574,
9,22,284,B,64.62500182418029,55.54173508757718,3.2312500912090143,0.8724475345938145,B,386.3399170077173,Correct,sub_009_day_22_data.csv,1,362,,Dual-Task at home,5.0,8.0,big,small,False,Value,right,right,366.9933749915799,Correct,1.0,0.9226519337016574,
9,22,285,A,37.94628913578199,56.18757702851725,1.8973144567890996,0.8825923960790021,A,464.5700830005808,Correct,sub_009_day_22_data.csv,1,362,,Dual-Task at home,5.0,6.0,big,small,False,Size,left,left,1670.7494170113932,Correct,1.0,0.9226519337016574,
9,22,286,B,52.85913011176458,32.30110659415118,2.642956505588229,0.5073845958950308,B,392.8041250037495,Correct,sub_009_day_22_data.csv,1,362,,Dual-Task at home,7.0,6.0,small,big,False,Value,left,left,303.4641670092242,Correct,1.0,0.9226519337016574,
9,22,287,A,29.79564067014786,63.038925027272846,1.489782033507393,0.9902131187793908,A,400.12966700305697,Correct,sub_009_day_22_data.csv,1,362,,Dual-Task at home,2.0,3.0,big,small,False,Size,left,left,321.2724170007277,Correct,1.0,0.9226519337016574,
9,22,288,B,88.5333928772374,67.19067932942951,4.42666964386187,1.0554287228552166,B,457.48916699085385,Correct,sub_009_day_22_data.csv,1,362,,Dual-Task at home,5.0,7.0,big,small,False,Value,right,right,1092.2682499949588,Correct,1.0,0.9226519337016574,
9,22,289,B,39.90077099843946,23.015358762140416,1.9950385499219732,0.3615244100343691,B,371.0042080056155,Correct,sub_009_day_22_data.csv,1,362,,Dual-Task at home,3.0,7.0,big,small,False,Value,right,right,398.992750007892,Correct,1.0,0.9226519337016574,
9,22,290,B,62.16043274152187,33.94480132208995,3.1080216370760936,0.5332036923052145,B,371.815249993233,Correct,sub_009_day_22_data.csv,1,362,,Dual-Task at home,8.0,5.0,small,big,False,Value,left,left,370.381874992745,Correct,1.0,0.9226519337016574,
9,22,291,A,19.557462716952426,46.38483189296512,0.977873135847621,0.7286112355646839,A,318.55562499549706,Correct,sub_009_day_22_data.csv,1,362,,Dual-Task at home,2.0,8.0,big,small,False,Value,right,right,557.3914590058848,Correct,1.0,0.9226519337016574,
9,22,292,B,68.07111508094741,35.87645947126576,3.40355575404737,0.5635461075587024,B,392.03770901076496,Correct,sub_009_day_22_data.csv,1,362,,Dual-Task at home,2.0,7.0,big,small,False,Value,right,right,1420.3454999951646,Correct,1.0,0.9226519337016574,
9,22,293,A,33.02894401552949,55.14668472381102,1.6514472007764744,0.866242097990786,A,438.2290420035133,Correct,sub_009_day_22_data.csv,1,362,,Dual-Task at home,2.0,6.0,big,small,False,Size,left,right,1814.324375009164,Incorrect,0.0,0.9226519337016574,
9,22,294,A,45.58353159689112,53.48320746221386,2.279176579844556,0.8401122582685494,A,395.1505000004545,Correct,sub_009_day_22_data.csv,1,362,,Dual-Task at home,2.0,3.0,big,small,False,Size,left,left,431.59774999367073,Correct,1.0,0.9226519337016574,
9,22,295,A,33.41992733702246,58.051826064999055,1.6709963668511227,0.9118759514663676,A,424.27316699468065,Correct,sub_009_day_22_data.csv,1,362,,Dual-Task at home,7.0,2.0,small,big,False,Value,left,left,1434.0320000046631,Correct,1.0,0.9226519337016574,
9,22,296,B,41.315049069001375,20.683710044770688,2.0657524534500684,0.324898957628165,B,427.94599999615457,Correct,sub_009_day_22_data.csv,1,362,,Dual-Task at home,4.0,2.0,small,big,False,Value,left,left,940.1364999939688,Correct,1.0,0.9226519337016574,
9,22,297,A,29.031806309910777,60.11427198443391,1.451590315495539,0.9442727762109816,A,384.62529200478457,Correct,sub_009_day_22_data.csv,1,362,,Dual-Task at home,8.0,5.0,small,big,False,Value,left,left,382.80104199657217,Correct,1.0,0.9226519337016574,
9,22,298,A,46.84340028692285,67.40023301035629,2.3421700143461424,1.058720384377878,A,407.6329579984304,Correct,sub_009_day_22_data.csv,1,362,,Dual-Task at home,4.0,8.0,big,small,False,Size,left,left,630.6155409984058,Correct,1.0,0.9226519337016574,
9,22,299,B,88.79332969402168,67.50732617158653,4.439666484701084,1.060402599820731,B,455.4665829928126,Correct,sub_009_day_22_data.csv,1,362,,Dual-Task at home,6.0,2.0,small,big,False,Value,left,left,740.8422919979785,Correct,1.0,0.9226519337016574,
9,22,300,A,51.911169392728596,67.92675802902963,2.5955584696364298,1.0669910200308548,A,404.8569580045296,Correct,sub_009_day_22_data.csv,1,362,,Dual-Task at home,6.0,5.0,big,small,True,Size,left,left,453.0061669938732,Correct,1.0,0.9226519337016574,
9,22,301,A,10.180176857785945,34.25335452522593,0.5090088428892973,0.5380504346862823,A,441.74537500657607,Correct,sub_009_day_22_data.csv,1,362,,Dual-Task at home,4.0,5.0,big,small,False,Value,right,left,1830.8579169970471,Incorrect,0.0,0.9226519337016574,
9,22,302,B,52.354214842217715,24.941655581566422,2.617710742110886,0.3917826097170796,B,398.0960839980981,Correct,sub_009_day_22_data.csv,1,362,,Dual-Task at home,3.0,5.0,big,small,False,Size,left,left,345.4538750083884,Correct,1.0,0.9226519337016574,
9,22,303,B,68.42800340342602,51.77571267072605,3.4214001701713013,0.8132909928036447,B,361.351375002414,Correct,sub_009_day_22_data.csv,1,362,,Dual-Task at home,2.0,3.0,big,small,False,Size,left,left,492.4334999959683,Correct,1.0,0.9226519337016574,
9,22,304,B,70.19763866515633,38.56195128311484,3.5098819332578164,0.6057297142956053,B,326.6065420029918,Correct,sub_009_day_22_data.csv,1,362,,Dual-Task at home,3.0,7.0,big,small,False,Value,right,right,768.2195830129785,Correct,1.0,0.9226519337016574,
9,22,305,A,33.64106265485709,61.262114794512854,1.6820531327428545,0.9623030489090808,A,497.1284579951316,Correct,sub_009_day_22_data.csv,1,362,,Dual-Task at home,7.0,5.0,small,big,False,Size,right,right,438.88825000613,Correct,1.0,0.9226519337016574,
9,22,306,B,33.54916325441114,15.935029600423064,1.6774581627205571,0.2503068596371249,B,388.642042002175,Correct,sub_009_day_22_data.csv,1,362,,Dual-Task at home,8.0,6.0,small,big,False,Value,left,left,520.2627910039155,Correct,1.0,0.9226519337016574,
9,22,307,A,44.24978694574969,59.404150663832034,2.2124893472874847,0.9331182165911798,A,512.8169999952661,Correct,sub_009_day_22_data.csv,1,362,,Dual-Task at home,6.0,3.0,big,small,True,Value,left,left,716.2182499887422,Correct,1.0,0.9226519337016574,
9,22,308,A,26.307891849957787,57.30697258036394,1.3153945924978894,0.9001758202897153,A,423.8420000037877,Correct,sub_009_day_22_data.csv,1,362,,Dual-Task at home,5.0,7.0,big,small,False,Value,right,right,540.0743329955731,Correct,1.0,0.9226519337016574,
9,22,309,B,76.06108160048373,57.52091676157909,3.8030540800241863,0.903536447629634,B,377.90674999996554,Correct,sub_009_day_22_data.csv,1,362,,Dual-Task at home,6.0,5.0,small,big,False,Size,right,right,676.689333995455,Correct,1.0,0.9226519337016574,
9,22,310,A,14.912598641208913,36.37576314658712,0.7456299320604457,0.5713891513502021,A,388.855874989531,Correct,sub_009_day_22_data.csv,1,362,,Dual-Task at home,3.0,6.0,big,small,False,Value,right,right,684.7317079955246,Correct,1.0,0.9226519337016574,
9,22,311,B,68.55965267777343,38.04802708862629,3.4279826338886714,0.5976570119260689,B,327.613333996851,Correct,sub_009_day_22_data.csv,1,362,,Dual-Task at home,4.0,3.0,big,small,True,Size,left,left,91.49054199224338,Correct,1.0,0.9226519337016574,
9,22,312,B,80.93245577772643,59.988574434606186,4.046622788886322,0.9422983237154164,B,332.9108339967206,Correct,sub_009_day_22_data.csv,1,362,,Dual-Task at home,7.0,4.0,small,big,False,Size,right,left,377.6054589980049,Incorrect,0.0,0.9226519337016574,
9,22,313,A,34.202983157674495,43.87133691557524,1.710149157883725,0.6891293487856693,A,426.5082079946296,Correct,sub_009_day_22_data.csv,1,362,,Dual-Task at home,8.0,3.0,big,small,True,Size,left,left,42.134917006478645,Correct,1.0,0.9226519337016574,
9,22,314,B,44.48629271463734,16.942654032039947,2.224314635731867,0.2661345871968509,B,332.8750419896096,Correct,sub_009_day_22_data.csv,1,362,,Dual-Task at home,6.0,8.0,big,small,False,Value,right,right,366.38616600248497,Correct,1.0,0.9226519337016574,
9,22,315,A,50.90370803900808,66.07384848197708,2.545185401950404,1.0378855849269215,A,472.95608298736624,Correct,sub_009_day_22_data.csv,1,362,,Dual-Task at home,6.0,4.0,small,big,False,Size,right,right,316.1155840061838,Correct,1.0,0.9226519337016574,
9,22,316,B,80.77674086241831,63.65748906818523,4.038837043120916,0.9999295000129164,B,366.2207909947029,Correct,sub_009_day_22_data.csv,1,362,,Dual-Task at home,8.0,5.0,small,big,False,Size,right,right,331.82158300769515,Correct,1.0,0.9226519337016574,
9,22,317,B,56.842897077962185,41.7904102567485,2.8421448538981093,0.6564422292655232,B,340.46479100652505,Correct,sub_009_day_22_data.csv,1,362,,Dual-Task at home,8.0,6.0,small,big,False,Size,right,right,382.0884999877307,Correct,1.0,0.9226519337016574,
9,22,318,B,44.30725807578327,18.75339019606862,2.2153629037891633,0.2945775643493601,B,359.2119999957504,Correct,sub_009_day_22_data.csv,1,362,,Dual-Task at home,6.0,2.0,small,big,False,Size,right,right,3213.8604170031613,Correct,1.0,0.9226519337016574,
9,22,319,A,32.13832105792149,50.46300385972072,1.6069160528960742,0.7926710110188598,A,466.6196670004865,Correct,sub_009_day_22_data.csv,1,362,,Dual-Task at home,7.0,2.0,small,big,False,Value,left,left,665.8735000091838,Correct,1.0,0.9226519337016574,
9,22,320,B,65.68895717320127,39.02519741888917,3.284447858660064,0.6130063675803678,B,368.1316669972148,Correct,sub_009_day_22_data.csv,1,362,,Dual-Task at home,8.0,7.0,small,big,False,Value,left,left,492.6035000098637,Correct,1.0,0.9226519337016574,
9,22,321,B,65.5471326458843,45.24939660666123,3.277356632294215,0.7107758597942891,B,501.0646250011632,Correct,sub_009_day_22_data.csv,1,362,,Dual-Task at home,4.0,6.0,big,small,False,Value,right,right,339.63666699128225,Correct,1.0,0.9226519337016574,
9,22,322,A,20.132898160713715,34.15746362857052,1.0066449080356858,0.5365441840038885,A,520.0475000019651,Correct,sub_009_day_22_data.csv,1,362,,Dual-Task at home,6.0,8.0,small,big,True,Size,right,right,1131.580417000805,Correct,1.0,0.9226519337016574,
9,22,323,B,42.81158098581665,21.721440455631388,2.1405790492908325,0.3411995888039985,B,362.8454999998212,Correct,sub_009_day_22_data.csv,1,362,,Dual-Task at home,3.0,8.0,big,small,False,Size,left,right,2234.083124989411,Incorrect,0.0,0.9226519337016574,
9,22,324,A,50.05294828316104,74.92332450345641,2.5026474141580524,1.176892829212914,A,445.1885830058018,Correct,sub_009_day_22_data.csv,1,362,,Dual-Task at home,7.0,2.0,small,big,False,Value,left,left,407.18095799093135,Correct,1.0,0.9226519337016574,
9,22,325,A,18.16004331381478,40.160926940365144,0.908002165690739,0.6308463651860378,A,441.9200829870533,Correct,sub_009_day_22_data.csv,1,362,,Dual-Task at home,6.0,4.0,small,big,False,Size,right,right,326.09158400737215,Correct,1.0,0.9226519337016574,
9,22,326,B,76.47592927979383,61.28226868578831,3.823796463989692,0.962619625492942,B,418.81991700211074,Correct,sub_009_day_22_data.csv,1,362,,Dual-Task at home,6.0,7.0,big,small,False,Size,left,left,513.0054579931311,Correct,1.0,0.9226519337016574,
9,22,327,B,46.26673392273956,22.508672359846535,2.313336696136978,0.3535653986387675,B,495.62795901147183,Correct,sub_009_day_22_data.csv,1,362,,Dual-Task at home,8.0,7.0,small,big,False,Value,left,left,445.2169579890324,Correct,1.0,0.9226519337016574,
9,22,328,B,78.00638454972658,66.25279690825218,3.900319227486329,1.040696500233708,B,337.0228749990929,Correct,sub_009_day_22_data.csv,1,362,,Dual-Task at home,6.0,4.0,small,big,False,Value,left,left,1276.526665998972,Correct,1.0,0.9226519337016574,
9,22,329,B,41.10102820477546,25.05231206903899,2.055051410238773,0.3935207977576589,B,417.7829169930192,Correct,sub_009_day_22_data.csv,1,362,,Dual-Task at home,5.0,7.0,big,small,False,Size,left,left,2163.4825420042034,Correct,1.0,0.9226519337016574,
9,22,330,B,32.21032187393059,10.290947461760954,1.6105160936965293,0.1616498247217337,B,412.8983749978943,Correct,sub_009_day_22_data.csv,1,362,,Dual-Task at home,4.0,8.0,big,small,False,Value,right,right,1199.8167499987176,Correct,1.0,0.9226519337016574,
9,22,331,A,60.76995072235494,69.45751575651775,3.038497536117747,1.0910361061863674,A,446.8155829963507,Correct,sub_009_day_22_data.csv,1,362,,Dual-Task at home,4.0,3.0,small,big,False,Value,left,left,820.3465419937856,Correct,1.0,0.9226519337016574,
9,22,332,B,34.17539063640416,12.707382047551311,1.708769531820208,0.1996070904347301,B,374.2616250092397,Correct,sub_009_day_22_data.csv,1,362,,Dual-Task at home,6.0,5.0,big,small,True,Value,left,left,205.64062500488944,Correct,1.0,0.9226519337016574,
9,22,333,B,87.08384816939,66.50628788649082,4.354192408469499,1.0446783272086373,B,420.1346670015482,Correct,sub_009_day_22_data.csv,1,362,,Dual-Task at home,5.0,3.0,small,big,False,Size,right,right,409.355833005975,Correct,1.0,0.9226519337016574,
9,22,334,B,57.88842335981474,28.0085282374539,2.894421167990737,0.4399569327432371,B,347.02029199979734,Correct,sub_009_day_22_data.csv,1,362,,Dual-Task at home,8.0,2.0,small,big,False,Size,right,right,352.0540419995086,Correct,1.0,0.9226519337016574,
9,22,335,A,33.397009982926335,62.54745365939448,1.6698504991463168,0.9824931045855088,A,451.4237499970477,Correct,sub_009_day_22_data.csv,1,362,,Dual-Task at home,4.0,7.0,big,small,False,Value,right,right,350.71920799964573,Correct,1.0,0.9226519337016574,
9,22,336,A,40.54627577928093,54.716245918251055,2.0273137889640465,0.8594807810439501,A,550.8296249900013,Correct,sub_009_day_22_data.csv,1,362,,Dual-Task at home,5.0,7.0,big,small,False,Size,left,left,298.3896670048125,Correct,1.0,0.9226519337016574,
9,22,337,B,82.39529296284474,62.94362065780187,4.119764648142237,0.9887160812444656,B,346.47991599922534,Correct,sub_009_day_22_data.csv,1,362,,Dual-Task at home,4.0,2.0,small,big,False,Value,left,left,355.33579099865165,Correct,1.0,0.9226519337016574,
9,22,338,B,47.76135482585104,40.71741183201643,2.3880677412925517,0.6395876094232646,B,363.24879100720864,Correct,sub_009_day_22_data.csv,1,362,,Dual-Task at home,4.0,3.0,big,small,True,Size,left,left,216.61591599695385,Correct,1.0,0.9226519337016574,
9,22,339,A,37.8241820882476,56.40731517339029,1.89120910441238,0.886044034787235,A,427.9516670067096,Correct,sub_009_day_22_data.csv,1,362,,Dual-Task at home,8.0,2.0,small,big,False,Size,right,right,336.8882909999229,Correct,1.0,0.9226519337016574,
9,22,340,B,77.8421540703398,62.73234943920481,3.89210770351699,0.985397440703168,B,436.26612500520423,Correct,sub_009_day_22_data.csv,1,362,,Dual-Task at home,2.0,3.0,big,small,False,Size,left,right,613.5910419980064,Incorrect,0.0,0.9226519337016574,
9,22,341,A,56.013579336327865,78.04017666675654,2.8006789668163936,1.2258522285056594,A,452.1514999942155,Correct,sub_009_day_22_data.csv,1,362,,Dual-Task at home,8.0,4.0,small,big,False,Size,right,right,348.5566250019474,Correct,1.0,0.9226519337016574,
9,22,342,B,53.66342106656034,24.664000360289386,2.683171053328017,0.3874212117001058,B,414.3163749977248,Correct,sub_009_day_22_data.csv,1,362,,Dual-Task at home,4.0,3.0,small,big,False,Size,right,right,367.96458400203846,Correct,1.0,0.9226519337016574,
9,22,343,A,23.003653717109113,38.32890770527851,1.1501826858554558,0.6020690743351208,A,388.57162500789855,Correct,sub_009_day_22_data.csv,1,362,,Dual-Task at home,5.0,2.0,small,big,False,Size,right,right,381.0507080052048,Correct,1.0,0.9226519337016574,
9,22,344,B,70.39000124952959,51.19016822563569,3.5195000624764794,0.8040932821684136,B,409.5635830017272,Correct,sub_009_day_22_data.csv,1,362,,Dual-Task at home,8.0,7.0,small,big,False,Value,left,left,1134.7766669932753,Correct,1.0,0.9226519337016574,
9,22,345,B,75.16352089983032,45.18907456824153,3.758176044991515,0.7098283234305447,B,366.8842909974046,Correct,sub_009_day_22_data.csv,1,362,,Dual-Task at home,7.0,5.0,small,big,False,Value,left,left,460.3975840000203,Correct,1.0,0.9226519337016574,
9,22,346,A,19.93080338939645,46.21687073732721,0.9965401694698224,0.7259729079014813,A,427.90420800156426,Correct,sub_009_day_22_data.csv,1,362,,Dual-Task at home,8.0,7.0,small,big,False,Size,right,right,305.15845799527597,Correct,1.0,0.9226519337016574,
9,22,347,A,60.22798947967003,70.96267507278066,3.0113994739835017,1.114679093438636,A,620.204749997356,Correct,sub_009_day_22_data.csv,1,362,,Dual-Task at home,8.0,3.0,small,big,False,Value,left,left,496.6786250006407,Correct,1.0,0.9226519337016574,
9,22,348,B,82.9067050995009,58.37994675339456,4.145335254975045,0.9170300591871384,B,388.2805419998476,Correct,sub_009_day_22_data.csv,1,362,,Dual-Task at home,3.0,4.0,small,big,True,Value,right,left,1270.237083997927,Incorrect,0.0,0.9226519337016574,
9,22,349,A,39.780336938435546,52.61491115923393,1.9890168469217773,0.8264730918356448,A,448.7338339968119,Correct,sub_009_day_22_data.csv,1,362,,Dual-Task at home,2.0,7.0,big,small,False,Value,right,right,458.5022920073243,Correct,1.0,0.9226519337016574,
9,22,350,A,53.6531486292491,83.76257699368043,2.6826574314624554,1.3157394826454794,A,413.9980420004576,Correct,sub_009_day_22_data.csv,1,362,,Dual-Task at home,2.0,7.0,small,big,True,Size,right,right,3400.557916989783,Correct,1.0,0.9226519337016574,
9,22,351,B,71.08767072563006,38.46135152403595,3.5543835362815033,0.6041494969752297,B,387.56712499889545,Correct,sub_009_day_22_data.csv,1,362,,Dual-Task at home,8.0,5.0,small,big,False,Value,left,left,421.6105839877855,Correct,1.0,0.9226519337016574,
9,22,352,B,50.06842007498565,28.48607323919898,2.5034210037492826,0.4474581920894415,B,421.1195419920841,Correct,sub_009_day_22_data.csv,1,362,,Dual-Task at home,5.0,7.0,big,small,False,Size,left,left,893.1074169959174,Correct,1.0,0.9226519337016574,
9,22,353,B,79.0420029754254,62.82805083476674,3.9521001487712706,0.9869007147093464,B,382.6138750009704,Correct,sub_009_day_22_data.csv,1,362,,Dual-Task at home,2.0,6.0,big,small,False,Value,right,right,1535.6422499899054,Correct,1.0,0.9226519337016574,
9,22,354,A,57.69102661707764,82.56832234450948,2.8845513308538817,1.2969801744837248,A,442.2527499991702,Correct,sub_009_day_22_data.csv,1,362,,Dual-Task at home,2.0,6.0,big,small,False,Value,right,right,1051.7339169891784,Correct,1.0,0.9226519337016574,
9,22,355,A,41.594134027691794,62.67012907292101,2.07970670138459,0.9844200854750638,A,422.744875002536,Correct,sub_009_day_22_data.csv,1,362,,Dual-Task at home,8.0,4.0,small,big,False,Value,left,left,439.8981250124052,Correct,1.0,0.9226519337016574,
9,22,356,A,65.11973271394672,86.85237617952775,3.255986635697336,1.3642739347621076,A,404.88116700726096,Correct,sub_009_day_22_data.csv,1,362,,Dual-Task at home,6.0,4.0,small,big,False,Size,right,right,344.43820800515823,Correct,1.0,0.9226519337016574,
9,22,357,B,67.79034974885514,46.05351023801371,3.389517487442757,0.723406847178831,B,366.6602080047596,Correct,sub_009_day_22_data.csv,1,362,,Dual-Task at home,6.0,5.0,small,big,False,Value,left,left,1375.1521250087535,Correct,1.0,0.9226519337016574,
9,22,358,B,72.77728182815235,53.62332706612106,3.638864091407618,0.8423132518598432,B,562.0037500048056,Correct,sub_009_day_22_data.csv,1,362,,Dual-Task at home,2.0,3.0,big,small,False,Value,right,left,1078.6995419912273,Incorrect,0.0,0.9226519337016574,
9,22,359,A,35.00522852499614,52.46422148962632,1.750261426249807,0.824106064040589,A,433.80374999833293,Correct,sub_009_day_22_data.csv,1,362,,Dual-Task at home,5.0,3.0,small,big,False,Size,right,left,995.7757919910364,Incorrect,0.0,0.9226519337016574,
9,22,360,B,81.19800822423838,59.84634088102402,4.059900411211919,0.940064124280278,B,352.2419590008212,Correct,sub_009_day_22_data.csv,1,362,,Dual-Task at home,2.0,4.0,big,small,False,Size,left,left,477.7937500039115,Correct,1.0,0.9226519337016574,
9,22,361,A,36.854400177118606,59.49275259921439,1.8427200088559303,0.9345099725376348,A,554.5572499977425,Correct,sub_009_day_22_data.csv,1,362,,Dual-Task at home,2.0,4.0,big,small,False,Value,right,right,980.8502910018432,Correct,1.0,0.9226519337016574,
