subject,day,trial,cat,x,y,xt,yt,resp,rt,fb,f_name,acc,n_trials,block,session_type,ns_left_digit,ns_right_digit,ns_left_size,ns_right_size,ns_congruent,ns_cue,ns_correct_side,ns_resp,ns_rt,ns_fb,acc_stroop,acc_stroop_mean,resp_key
9,15,3300,B,63.78775327095335,43.01078411554807,3.1893876635476675,0.675611817012712,B,422.2215830013738,Correct,sub_009_day_15_data.csv,1,300,132.0,Training at home,,,,,,,,,,,,,
9,15,3301,B,32.21120584531013,15.155705350314818,1.610560292265507,0.2380652629426027,B,544.9126669991529,Correct,sub_009_day_15_data.csv,1,300,132.0,Training at home,,,,,,,,,,,,,
9,15,3302,B,56.99740561307304,33.31047084242293,2.8498702806536524,0.5232396524308645,B,380.4160830004548,Correct,sub_009_day_15_data.csv,1,300,132.0,Training at home,,,,,,,,,,,,,
9,15,3303,B,42.98341579558381,23.792865220290007,2.1491707897791907,0.3737374529195759,B,374.90270800117287,Correct,sub_009_day_15_data.csv,1,300,132.0,Training at home,,,,,,,,,,,,,
9,15,3304,B,49.61613974232024,40.086773826496646,2.480806987116012,0.6296815707971872,B,381.57745900025475,Correct,sub_009_day_15_data.csv,1,300,132.0,Training at home,,,,,,,,,,,,,
9,15,3305,B,37.89528782865758,24.52712256065468,1.8947643914328791,0.3852711402512461,B,466.5029579991824,Correct,sub_009_day_15_data.csv,1,300,132.0,Training at home,,,,,,,,,,,,,
9,15,3306,B,62.42107912422185,49.23722805390292,3.121053956211092,0.7734165696863333,A,1745.474709001428,Incorrect,sub_009_day_15_data.csv,0,300,132.0,Training at home,,,,,,,,,,,,,
9,15,3307,B,49.82386490261376,34.36195023357743,2.491193245130688,0.5397562520841247,B,578.2292090007104,Correct,sub_009_day_15_data.csv,1,300,132.0,Training at home,,,,,,,,,,,,,
9,15,3308,B,31.723154848424727,18.87583460389427,1.5861577424212363,0.2965009166098512,B,509.8885829975188,Correct,sub_009_day_15_data.csv,1,300,132.0,Training at home,,,,,,,,,,,,,
9,15,3309,B,55.94926220063307,34.638342001930106,2.7974631100316536,0.544097803828972,B,415.6355420018372,Correct,sub_009_day_15_data.csv,1,300,132.0,Training at home,,,,,,,,,,,,,
9,15,3310,B,60.1182299211103,30.343245460797615,3.005911496055515,0.4766305851285681,B,403.7858750016312,Correct,sub_009_day_15_data.csv,1,300,132.0,Training at home,,,,,,,,,,,,,
9,15,3311,A,12.858107795641796,31.089743363830273,0.6429053897820899,0.488356546769006,A,661.8897919979645,Correct,sub_009_day_15_data.csv,1,300,132.0,Training at home,,,,,,,,,,,,,
9,15,3312,A,45.11569471224583,59.466464369605234,2.255784735612292,0.934097037992555,A,619.1123749995313,Correct,sub_009_day_15_data.csv,1,300,132.0,Training at home,,,,,,,,,,,,,
9,15,3313,A,19.18660114652568,38.311588059836275,0.9593300573262838,0.6017970179807004,A,804.0402080005151,Correct,sub_009_day_15_data.csv,1,300,132.0,Training at home,,,,,,,,,,,,,
9,15,3314,B,41.30073045384441,16.238844452296632,2.0650365226922203,0.2550791721706124,B,824.2044580001675,Correct,sub_009_day_15_data.csv,1,300,132.0,Training at home,,,,,,,,,,,,,
9,15,3315,B,89.20399802192856,68.59732660046129,4.460199901096428,1.0775242865195442,B,500.6492909997178,Correct,sub_009_day_15_data.csv,1,300,132.0,Training at home,,,,,,,,,,,,,
9,15,3316,A,58.273923992999755,70.72104519662993,2.913696199649988,1.1108835802196215,A,632.336499998928,Correct,sub_009_day_15_data.csv,1,300,132.0,Training at home,,,,,,,,,,,,,
9,15,3317,A,48.56389494052106,75.04780312493864,2.428194747026053,1.1788481348268016,A,658.2973750009842,Correct,sub_009_day_15_data.csv,1,300,132.0,Training at home,,,,,,,,,,,,,
9,15,3318,A,43.94168267815348,68.9852416908872,2.197084133907674,1.0836176425110375,A,566.5957919991342,Correct,sub_009_day_15_data.csv,1,300,132.0,Training at home,,,,,,,,,,,,,
9,15,3319,A,39.852138609936866,69.06324776439259,1.9926069304968437,1.0848429590483373,A,746.1271669999405,Correct,sub_009_day_15_data.csv,1,300,132.0,Training at home,,,,,,,,,,,,,
9,15,3320,B,58.5348989994517,42.90509813370234,2.926744949972585,0.673951705491942,B,1217.742000000726,Correct,sub_009_day_15_data.csv,1,300,132.0,Training at home,,,,,,,,,,,,,
9,15,3321,B,57.9781943637418,39.81361399415088,2.89890971818709,0.625390786184421,B,1266.1899579979945,Correct,sub_009_day_15_data.csv,1,300,132.0,Training at home,,,,,,,,,,,,,
9,15,3322,A,21.839060436267022,41.65344366493012,1.0919530218133513,0.6542907630723038,A,1275.163957998302,Correct,sub_009_day_15_data.csv,1,300,132.0,Training at home,,,,,,,,,,,,,
9,15,3323,B,33.20499794017785,13.845221523855573,1.6602498970088926,0.2174802311333397,B,1504.054459001054,Correct,sub_009_day_15_data.csv,1,300,132.0,Training at home,,,,,,,,,,,,,
9,15,3324,B,59.67079423248127,42.34424690278456,2.9835397116240636,0.6651418749579017,B,857.0370410016039,Correct,sub_009_day_15_data.csv,1,300,132.0,Training at home,,,,,,,,,,,,,
9,15,3325,B,53.520247972088875,39.41441161801588,2.6760123986044437,0.6191201299236143,B,890.6537910006591,Correct,sub_009_day_15_data.csv,1,300,133.0,Training at home,,,,,,,,,,,,,
9,15,3326,A,20.16257896192081,43.63441551307983,1.0081289480960407,0.6854077960978805,A,750.3949579986511,Correct,sub_009_day_15_data.csv,1,300,133.0,Training at home,,,,,,,,,,,,,
9,15,3327,B,49.421032863240015,36.79750134416637,2.4710516431620007,0.578013799466468,B,722.4566250006319,Correct,sub_009_day_15_data.csv,1,300,133.0,Training at home,,,,,,,,,,,,,
9,15,3328,A,59.77893316146262,86.40451977551325,2.988946658073131,1.3572390228185325,A,703.789291997964,Correct,sub_009_day_15_data.csv,1,300,133.0,Training at home,,,,,,,,,,,,,
9,15,3329,A,18.22424406451527,33.55600630962856,0.9112122032257634,0.5270965145307092,A,814.3202499995823,Correct,sub_009_day_15_data.csv,1,300,133.0,Training at home,,,,,,,,,,,,,
9,15,3330,A,32.88406367257993,59.34201456318819,1.6442031836289963,0.9321421850046524,A,570.954625000013,Correct,sub_009_day_15_data.csv,1,300,133.0,Training at home,,,,,,,,,,,,,
9,15,3331,B,65.53172064833669,40.16257346796176,3.276586032416834,0.6308722287810452,B,349.3568750018312,Correct,sub_009_day_15_data.csv,1,300,133.0,Training at home,,,,,,,,,,,,,
9,15,3332,B,83.52258637435052,64.93337038992033,4.176129318717526,1.0199709969489936,B,590.5247500013502,Correct,sub_009_day_15_data.csv,1,300,133.0,Training at home,,,,,,,,,,,,,
9,15,3333,A,57.47689338337439,78.71627866724069,2.873844669168719,1.2364724138946517,A,525.5525419997866,Correct,sub_009_day_15_data.csv,1,300,133.0,Training at home,,,,,,,,,,,,,
9,15,3334,B,69.72801939931061,41.86144349952226,3.4864009699655303,0.6575580168338165,B,480.4907920006371,Correct,sub_009_day_15_data.csv,1,300,133.0,Training at home,,,,,,,,,,,,,
9,15,3335,A,43.9920326490421,72.0227649915841,2.1996016324521053,1.1313309469439237,A,506.3162910009851,Correct,sub_009_day_15_data.csv,1,300,133.0,Training at home,,,,,,,,,,,,,
9,15,3336,A,23.0631398278682,54.56170199958741,1.15315699139341,0.8570532108462967,A,587.3239169995941,Correct,sub_009_day_15_data.csv,1,300,133.0,Training at home,,,,,,,,,,,,,
9,15,3337,B,80.9562101911391,58.78490850074894,4.047810509556956,0.9233911834395054,B,420.77187500035507,Correct,sub_009_day_15_data.csv,1,300,133.0,Training at home,,,,,,,,,,,,,
9,15,3338,A,57.922238694376006,65.91687830198494,2.8961119347188005,1.0354199031054416,A,691.6565829997126,Correct,sub_009_day_15_data.csv,1,300,133.0,Training at home,,,,,,,,,,,,,
9,15,3339,B,81.33708135754938,63.36027777763735,4.066854067877469,0.9952609159781706,B,373.2930829974066,Correct,sub_009_day_15_data.csv,1,300,133.0,Training at home,,,,,,,,,,,,,
9,15,3340,A,28.116802963511137,56.1315515279764,1.4058401481755567,0.881712349574438,A,477.43508300118265,Correct,sub_009_day_15_data.csv,1,300,133.0,Training at home,,,,,,,,,,,,,
9,15,3341,A,56.420662896098435,75.11802530507897,2.8210331448049213,1.1799511822530415,A,586.9343749982363,Correct,sub_009_day_15_data.csv,1,300,133.0,Training at home,,,,,,,,,,,,,
9,15,3342,B,51.16275599185617,20.23389445930264,2.5581377995928083,0.317833270934282,B,379.48195900025894,Correct,sub_009_day_15_data.csv,1,300,133.0,Training at home,,,,,,,,,,,,,
9,15,3343,B,53.8290262153821,30.709283714421503,2.691451310769105,0.4823803005711563,B,507.6036250029574,Correct,sub_009_day_15_data.csv,1,300,133.0,Training at home,,,,,,,,,,,,,
9,15,3344,A,55.153211613777195,71.74861042517293,2.7576605806888597,1.1270245370849965,A,687.478915999236,Correct,sub_009_day_15_data.csv,1,300,133.0,Training at home,,,,,,,,,,,,,
9,15,3345,A,20.60801552612505,47.43707755639717,1.0304007763062526,0.7451398717947331,A,629.7799170024518,Correct,sub_009_day_15_data.csv,1,300,133.0,Training at home,,,,,,,,,,,,,
9,15,3346,B,65.816915829954,38.89663538185872,3.2908457914977,0.6109869198250409,B,398.60837499873014,Correct,sub_009_day_15_data.csv,1,300,133.0,Training at home,,,,,,,,,,,,,
9,15,3347,A,26.36172954100332,37.78371238842893,1.318086477050166,0.5935051663241899,A,582.6444590020401,Correct,sub_009_day_15_data.csv,1,300,133.0,Training at home,,,,,,,,,,,,,
9,15,3348,B,48.77417719820997,36.52469518931396,2.4387088599104985,0.5737285704067759,B,403.3473329982371,Correct,sub_009_day_15_data.csv,1,300,133.0,Training at home,,,,,,,,,,,,,
9,15,3349,A,36.346770407504415,50.55088725075997,1.8173385203752208,0.7940514800971673,A,924.2354169982718,Correct,sub_009_day_15_data.csv,1,300,133.0,Training at home,,,,,,,,,,,,,
9,15,3350,B,53.52120422298333,26.86878044225499,2.6760602111491663,0.4220538162415269,B,385.0735830019403,Correct,sub_009_day_15_data.csv,1,300,134.0,Training at home,,,,,,,,,,,,,
9,15,3351,A,52.52651632213353,64.47841995273986,2.626325816106677,1.0128246521930253,A,661.7774589976761,Correct,sub_009_day_15_data.csv,1,300,134.0,Training at home,,,,,,,,,,,,,
9,15,3352,A,43.26639782349671,69.8521918171838,2.1633198911748353,1.0972356632500484,A,674.7194580020732,Correct,sub_009_day_15_data.csv,1,300,134.0,Training at home,,,,,,,,,,,,,
9,15,3353,A,60.183263079378605,69.97937271616183,3.00916315396893,1.09923341613958,A,795.7934579972061,Correct,sub_009_day_15_data.csv,1,300,134.0,Training at home,,,,,,,,,,,,,
9,15,3354,A,16.70958363918959,33.59264778413559,0.8354791819594795,0.5276720774663491,A,695.151125000848,Correct,sub_009_day_15_data.csv,1,300,134.0,Training at home,,,,,,,,,,,,,
9,15,3355,A,27.86723871034342,51.00375756567203,1.393361935517171,0.8011651503689505,A,579.1247909983213,Correct,sub_009_day_15_data.csv,1,300,134.0,Training at home,,,,,,,,,,,,,
9,15,3356,B,39.27448559039996,16.14849376413932,1.963724279519998,0.2536599468798034,B,400.9939999996277,Correct,sub_009_day_15_data.csv,1,300,134.0,Training at home,,,,,,,,,,,,,
9,15,3357,B,46.84895266180511,17.145497776497265,2.3424476330902553,0.2693208492839197,B,469.15733300193097,Correct,sub_009_day_15_data.csv,1,300,134.0,Training at home,,,,,,,,,,,,,
9,15,3358,B,50.77490486285303,20.4193775343666,2.5387452431426514,0.3207468322642128,B,409.7856660009711,Correct,sub_009_day_15_data.csv,1,300,134.0,Training at home,,,,,,,,,,,,,
9,15,3359,B,31.538283387584016,17.622383303242877,1.5769141693792008,0.2768117496210562,B,451.4482080012385,Correct,sub_009_day_15_data.csv,1,300,134.0,Training at home,,,,,,,,,,,,,
9,15,3360,A,58.204595551417945,77.14180796134896,2.910229777570897,1.2117406858800426,A,651.2074579986802,Correct,sub_009_day_15_data.csv,1,300,134.0,Training at home,,,,,,,,,,,,,
9,15,3361,A,37.44659155126198,60.13001118838931,1.872329577563099,0.9445200070485796,A,586.6723330000241,Correct,sub_009_day_15_data.csv,1,300,134.0,Training at home,,,,,,,,,,,,,
9,15,3362,A,40.86795029141903,65.2581842027024,2.0433975145709513,1.0250731603890966,A,527.9687909969653,Correct,sub_009_day_15_data.csv,1,300,134.0,Training at home,,,,,,,,,,,,,
9,15,3363,A,53.496470458117486,73.75338102291501,2.674823522905874,1.158515399994993,A,1268.8956249985497,Correct,sub_009_day_15_data.csv,1,300,134.0,Training at home,,,,,,,,,,,,,
9,15,3364,A,43.42302255118604,55.65684041542718,2.171151127559302,0.8742556048556277,A,1037.052167001093,Correct,sub_009_day_15_data.csv,1,300,134.0,Training at home,,,,,,,,,,,,,
9,15,3365,A,37.6071978710697,45.03935007863262,1.880359893553485,0.7074764566474556,A,524.2375419984455,Correct,sub_009_day_15_data.csv,1,300,134.0,Training at home,,,,,,,,,,,,,
9,15,3366,A,43.28831907581491,62.26876881440375,2.1644159537907455,0.97811553327706,A,551.6597079986241,Correct,sub_009_day_15_data.csv,1,300,134.0,Training at home,,,,,,,,,,,,,
9,15,3367,A,48.70464076148912,57.860807562411615,2.4352320380744557,0.9088754398442254,A,507.08312499773456,Correct,sub_009_day_15_data.csv,1,300,134.0,Training at home,,,,,,,,,,,,,
9,15,3368,A,47.64758189715496,74.27467804918098,2.382379094857748,1.1667039145352702,A,463.5495840011572,Correct,sub_009_day_15_data.csv,1,300,134.0,Training at home,,,,,,,,,,,,,
9,15,3369,A,55.72559442260663,73.59819126196689,2.7862797211303314,1.1560776849304584,A,489.80795800162014,Correct,sub_009_day_15_data.csv,1,300,134.0,Training at home,,,,,,,,,,,,,
9,15,3370,B,74.90818913699601,64.39197434423043,3.745409456849801,1.011466767749884,B,1102.3868750016843,Correct,sub_009_day_15_data.csv,1,300,134.0,Training at home,,,,,,,,,,,,,
9,15,3371,B,66.04245971575963,50.723788390881936,3.3021229857879812,0.7967674048551896,B,401.2934169986693,Correct,sub_009_day_15_data.csv,1,300,134.0,Training at home,,,,,,,,,,,,,
9,15,3372,B,81.09630864518824,64.41692153524733,4.054815432259412,1.0118586373100156,B,425.36008300157846,Correct,sub_009_day_15_data.csv,1,300,134.0,Training at home,,,,,,,,,,,,,
9,15,3373,B,81.51669373658734,63.726351344120786,4.075834686829367,1.0010111861138595,B,353.92420800053515,Correct,sub_009_day_15_data.csv,1,300,134.0,Training at home,,,,,,,,,,,,,
9,15,3374,B,46.825586425509194,23.708294042481537,2.3412793212754597,0.3724090119650332,B,506.71662500099046,Correct,sub_009_day_15_data.csv,1,300,134.0,Training at home,,,,,,,,,,,,,
9,15,3375,B,73.02746093888055,41.56050026194007,3.651373046944028,0.652830811512138,B,432.0557920000283,Correct,sub_009_day_15_data.csv,1,300,135.0,Training at home,,,,,,,,,,,,,
9,15,3376,B,48.980641908739095,31.87294544786593,2.4490320954369547,0.5006590563364192,B,438.37941699894145,Correct,sub_009_day_15_data.csv,1,300,135.0,Training at home,,,,,,,,,,,,,
9,15,3377,A,23.502889231405742,41.345968740994415,1.175144461570287,0.6494609582613063,A,654.3215419987973,Correct,sub_009_day_15_data.csv,1,300,135.0,Training at home,,,,,,,,,,,,,
9,15,3378,A,52.5372923253254,79.21990782091531,2.6268646162662703,1.2443834021412408,A,601.3564579989179,Correct,sub_009_day_15_data.csv,1,300,135.0,Training at home,,,,,,,,,,,,,
9,15,3379,B,53.10182511631363,41.809649910507645,2.655091255815681,0.6567444450400598,B,462.62012499937555,Correct,sub_009_day_15_data.csv,1,300,135.0,Training at home,,,,,,,,,,,,,
9,15,3380,B,38.921051510631706,23.841414848121353,1.9460525755315856,0.3745000686902233,B,573.9479170006234,Correct,sub_009_day_15_data.csv,1,300,135.0,Training at home,,,,,,,,,,,,,
9,15,3381,A,34.61036467594555,53.05962721833602,1.7305182337972775,0.8334586753566874,A,642.6836669998011,Correct,sub_009_day_15_data.csv,1,300,135.0,Training at home,,,,,,,,,,,,,
9,15,3382,A,14.295256656986282,32.983335514047255,0.7147628328493141,0.5181010227090909,A,562.425499996607,Correct,sub_009_day_15_data.csv,1,300,135.0,Training at home,,,,,,,,,,,,,
9,15,3383,A,22.802345121889353,35.78094052859519,1.1401172560944677,0.5620456995158397,A,580.2538330026437,Correct,sub_009_day_15_data.csv,1,300,135.0,Training at home,,,,,,,,,,,,,
9,15,3384,B,76.66744384997666,63.519979003434045,3.8333721924988335,0.9977694969668316,B,501.5187919998425,Correct,sub_009_day_15_data.csv,1,300,135.0,Training at home,,,,,,,,,,,,,
9,15,3385,A,31.567024459200905,52.00905203602913,1.5783512229600454,0.816956278982792,A,969.8361670016312,Correct,sub_009_day_15_data.csv,1,300,135.0,Training at home,,,,,,,,,,,,,
9,15,3386,B,34.13950284992776,11.180866927149996,1.706975142496388,0.1756286469954975,B,599.6657499999856,Correct,sub_009_day_15_data.csv,1,300,135.0,Training at home,,,,,,,,,,,,,
9,15,3387,A,62.39579847940494,79.8589237351797,3.119789923970247,1.2544210406501404,A,737.5996250011667,Correct,sub_009_day_15_data.csv,1,300,135.0,Training at home,,,,,,,,,,,,,
9,15,3388,A,27.64849510796165,58.683582724143506,1.3824247553980826,0.9217995618624908,A,676.2318750006671,Correct,sub_009_day_15_data.csv,1,300,135.0,Training at home,,,,,,,,,,,,,
9,15,3389,A,58.82737760107731,83.619861068796,2.941368880053866,1.3134977061396431,A,630.5009580028127,Correct,sub_009_day_15_data.csv,1,300,135.0,Training at home,,,,,,,,,,,,,
9,15,3390,A,61.60336996501661,83.14304287955254,3.08016849825083,1.3060078635375172,A,607.8648330003489,Correct,sub_009_day_15_data.csv,1,300,135.0,Training at home,,,,,,,,,,,,,
9,15,3391,B,52.18338462872211,27.837584072810767,2.609169231436106,0.4372717480841527,B,543.8908340001944,Correct,sub_009_day_15_data.csv,1,300,135.0,Training at home,,,,,,,,,,,,,
9,15,3392,A,22.828019105470595,51.25757062389826,1.1414009552735296,0.805152036564494,A,610.7652919999964,Correct,sub_009_day_15_data.csv,1,300,135.0,Training at home,,,,,,,,,,,,,
9,15,3393,B,39.18753167295313,22.98864776527413,1.9593765836476564,0.3611048346767432,B,518.881624997448,Correct,sub_009_day_15_data.csv,1,300,135.0,Training at home,,,,,,,,,,,,,
9,15,3394,A,34.70189363602742,61.82365789535695,1.735094681801371,0.97112374731051,A,480.0992919990677,Correct,sub_009_day_15_data.csv,1,300,135.0,Training at home,,,,,,,,,,,,,
9,15,3395,B,42.595312436810254,17.20575244531705,2.1297656218405128,0.2702673274084632,B,396.7554590017244,Correct,sub_009_day_15_data.csv,1,300,135.0,Training at home,,,,,,,,,,,,,
9,15,3396,A,41.7767263125462,68.78091513436667,2.08883631562731,1.0804080884665468,A,751.0014580002462,Correct,sub_009_day_15_data.csv,1,300,135.0,Training at home,,,,,,,,,,,,,
9,15,3397,A,47.69755904151082,68.73361783666876,2.384877952075541,1.0796651442516347,A,611.7602500016801,Correct,sub_009_day_15_data.csv,1,300,135.0,Training at home,,,,,,,,,,,,,
9,15,3398,B,67.0450247072191,53.299944146221904,3.352251235360955,0.8372335648325853,B,643.2461670010525,Correct,sub_009_day_15_data.csv,1,300,135.0,Training at home,,,,,,,,,,,,,
9,15,3399,B,63.73995156952704,32.59397522650413,3.1869975784763525,0.5119849656143654,B,437.25337499927264,Correct,sub_009_day_15_data.csv,1,300,135.0,Training at home,,,,,,,,,,,,,
9,15,3400,A,13.04534422137344,37.19600635948677,0.652267211068672,0.5842735016092143,A,532.3224999992817,Correct,sub_009_day_15_data.csv,1,300,136.0,Training at home,,,,,,,,,,,,,
9,15,3401,B,62.358221366537165,29.683726023229312,3.1179110683268583,0.4662708780287468,B,479.54945799938287,Correct,sub_009_day_15_data.csv,1,300,136.0,Training at home,,,,,,,,,,,,,
9,15,3402,A,58.99432439354936,69.19200409357964,2.949716219677468,1.0868654587377231,A,584.4751249969704,Correct,sub_009_day_15_data.csv,1,300,136.0,Training at home,,,,,,,,,,,,,
9,15,3403,A,53.44387055202445,75.13176508062882,2.6721935276012228,1.1801670061426883,A,672.0266670017736,Correct,sub_009_day_15_data.csv,1,300,136.0,Training at home,,,,,,,,,,,,,
9,15,3404,B,75.17300952846966,49.13120074024873,3.758650476423483,0.7717510965380542,B,507.33525000032387,Correct,sub_009_day_15_data.csv,1,300,136.0,Training at home,,,,,,,,,,,,,
9,15,3405,A,47.4505674178324,72.68861288037192,2.3725283708916205,1.141790061123044,A,696.6963749982824,Correct,sub_009_day_15_data.csv,1,300,136.0,Training at home,,,,,,,,,,,,,
9,15,3406,B,79.30661543641202,64.10460735879896,3.965330771820601,1.006952817698305,B,431.6492500001914,Correct,sub_009_day_15_data.csv,1,300,136.0,Training at home,,,,,,,,,,,,,
9,15,3407,B,57.29147208626375,50.29333157895589,2.8645736043131875,0.790005805065017,A,701.2791249981092,Incorrect,sub_009_day_15_data.csv,0,300,136.0,Training at home,,,,,,,,,,,,,
9,15,3408,B,41.305110107010975,13.621894113784258,2.065255505350549,0.2139722123792133,B,425.93612499695155,Correct,sub_009_day_15_data.csv,1,300,136.0,Training at home,,,,,,,,,,,,,
9,15,3409,B,41.8893383055769,20.547874743923902,2.094466915278845,0.3227652617119729,B,438.43633299911744,Correct,sub_009_day_15_data.csv,1,300,136.0,Training at home,,,,,,,,,,,,,
9,15,3410,A,25.141744837803387,42.06082474381655,1.2570872418901693,0.6606898900955093,A,681.8089580010565,Correct,sub_009_day_15_data.csv,1,300,136.0,Training at home,,,,,,,,,,,,,
9,15,3411,B,82.61693840794841,59.96974779455999,4.1308469203974205,0.942002595545112,B,399.93212499757647,Correct,sub_009_day_15_data.csv,1,300,136.0,Training at home,,,,,,,,,,,,,
9,15,3412,A,52.03021789187069,73.84233402667856,2.6015108945935346,1.1599126705106846,A,717.2816659985983,Correct,sub_009_day_15_data.csv,1,300,136.0,Training at home,,,,,,,,,,,,,
9,15,3413,A,12.71009892408214,38.81384838736943,0.6355049462041069,0.6096865047565393,A,625.2049160029856,Correct,sub_009_day_15_data.csv,1,300,136.0,Training at home,,,,,,,,,,,,,
9,15,3414,A,22.105757132785723,45.65341247779999,1.105287856639286,0.7171221262578051,A,616.3803339986771,Correct,sub_009_day_15_data.csv,1,300,136.0,Training at home,,,,,,,,,,,,,
9,15,3415,B,55.21902647436632,29.87237261177475,2.760951323718316,0.4692341317122424,B,449.9567919992842,Correct,sub_009_day_15_data.csv,1,300,136.0,Training at home,,,,,,,,,,,,,
9,15,3416,A,35.39328320113409,56.36477130608587,1.7696641600567045,0.8853757572823407,A,634.7086659989145,Correct,sub_009_day_15_data.csv,1,300,136.0,Training at home,,,,,,,,,,,,,
9,15,3417,B,77.41032042658847,53.60744981154369,3.8705160213294234,0.842063852528146,B,410.4194169995026,Correct,sub_009_day_15_data.csv,1,300,136.0,Training at home,,,,,,,,,,,,,
9,15,3418,B,45.75421181807987,20.81168187796998,2.287710590903993,0.3269091344833916,B,487.23954199886066,Correct,sub_009_day_15_data.csv,1,300,136.0,Training at home,,,,,,,,,,,,,
9,15,3419,A,32.18521674641703,60.90705929060002,1.6092608373208517,0.9567258500955348,A,668.8988749992859,Correct,sub_009_day_15_data.csv,1,300,136.0,Training at home,,,,,,,,,,,,,
9,15,3420,B,84.72930897026433,62.57309361549371,4.236465448513217,0.9828958560741072,B,425.81137500019395,Correct,sub_009_day_15_data.csv,1,300,136.0,Training at home,,,,,,,,,,,,,
9,15,3421,A,22.327137407084376,46.29425575963184,1.1163568703542188,0.7271884689893316,A,874.2454999992333,Correct,sub_009_day_15_data.csv,1,300,136.0,Training at home,,,,,,,,,,,,,
9,15,3422,A,57.56722508700162,76.64898374356487,2.8783612543500805,1.2039994211695342,A,754.4309169970802,Correct,sub_009_day_15_data.csv,1,300,136.0,Training at home,,,,,,,,,,,,,
9,15,3423,A,31.38342963720482,54.91497555071946,1.569171481860241,0.8626024188110168,A,578.1885409996903,Correct,sub_009_day_15_data.csv,1,300,136.0,Training at home,,,,,,,,,,,,,
9,15,3424,B,39.9749564758464,27.36909819118936,1.99874782379232,0.4299127890640909,B,473.50474999984726,Correct,sub_009_day_15_data.csv,1,300,136.0,Training at home,,,,,,,,,,,,,
9,15,3425,A,67.01454139573973,87.2888932727073,3.3507270697869864,1.3711307292276038,A,837.7099169993016,Correct,sub_009_day_15_data.csv,1,300,137.0,Training at home,,,,,,,,,,,,,
9,15,3426,B,39.75740009300856,25.33441585711123,1.987870004650428,0.397952073698447,B,425.8608749987616,Correct,sub_009_day_15_data.csv,1,300,137.0,Training at home,,,,,,,,,,,,,
9,15,3427,B,44.39136276538498,24.690237325725768,2.219568138269249,0.3878333409894429,B,441.15270800102735,Correct,sub_009_day_15_data.csv,1,300,137.0,Training at home,,,,,,,,,,,,,
9,15,3428,A,33.933798696213984,55.03931754189708,1.6966899348106992,0.8645555782410985,A,735.4757089997292,Correct,sub_009_day_15_data.csv,1,300,137.0,Training at home,,,,,,,,,,,,,
9,15,3429,B,68.86861732474581,44.049297894233504,3.4434308662372906,0.6919247533015617,B,384.7004999988712,Correct,sub_009_day_15_data.csv,1,300,137.0,Training at home,,,,,,,,,,,,,
9,15,3430,B,81.87504926438743,63.57906921295958,4.093752463219372,0.998697683807554,B,450.26729199889814,Correct,sub_009_day_15_data.csv,1,300,137.0,Training at home,,,,,,,,,,,,,
9,15,3431,B,31.564811424917725,13.094094495589164,1.5782405712458862,0.2056815553637673,B,508.06412500242,Correct,sub_009_day_15_data.csv,1,300,137.0,Training at home,,,,,,,,,,,,,
9,15,3432,A,19.30853235635539,43.76006677010883,0.9654266178177694,0.6873815214278636,A,601.346374998684,Correct,sub_009_day_15_data.csv,1,300,137.0,Training at home,,,,,,,,,,,,,
9,15,3433,A,11.339898368728836,31.81161331266624,0.5669949184364418,0.4996956534095576,A,682.9897499992512,Correct,sub_009_day_15_data.csv,1,300,137.0,Training at home,,,,,,,,,,,,,
9,15,3434,A,39.94653353018876,72.21438026057027,1.997326676509438,1.1343408325507365,A,589.1450829985843,Correct,sub_009_day_15_data.csv,1,300,137.0,Training at home,,,,,,,,,,,,,
9,15,3435,B,64.84367401107698,43.222125390600766,3.2421837005538494,0.6789315579982412,B,395.4579579985875,Correct,sub_009_day_15_data.csv,1,300,137.0,Training at home,,,,,,,,,,,,,
9,15,3436,A,38.95059596751761,59.97489751706323,1.9475297983758804,0.9420834871970328,A,557.7040419993864,Correct,sub_009_day_15_data.csv,1,300,137.0,Training at home,,,,,,,,,,,,,
9,15,3437,A,22.66885574855107,36.978854123890336,1.1334427874275534,0.5808624822689125,A,584.1366249987914,Correct,sub_009_day_15_data.csv,1,300,137.0,Training at home,,,,,,,,,,,,,
9,15,3438,A,65.08944895091217,85.50432653142659,3.254472447545609,1.343098820406363,A,740.2766249979322,Correct,sub_009_day_15_data.csv,1,300,137.0,Training at home,,,,,,,,,,,,,
9,15,3439,A,55.40114632916254,77.19296220092886,2.7700573164581273,1.2125442147963634,A,603.2043330014858,Correct,sub_009_day_15_data.csv,1,300,137.0,Training at home,,,,,,,,,,,,,
9,15,3440,B,42.572969760616765,32.16039522768058,2.128648488030838,0.5051743069191278,B,529.2876660023467,Correct,sub_009_day_15_data.csv,1,300,137.0,Training at home,,,,,,,,,,,,,
9,15,3441,A,40.46862276620435,64.85727506145808,2.0234311383102175,1.018775694324646,A,681.8296660021588,Correct,sub_009_day_15_data.csv,1,300,137.0,Training at home,,,,,,,,,,,,,
9,15,3442,B,52.39033029842723,39.013307570782125,2.6195165149213615,0.6128196022830409,B,541.4695830004348,Correct,sub_009_day_15_data.csv,1,300,137.0,Training at home,,,,,,,,,,,,,
9,15,3443,A,12.389421405018624,36.02727054116984,0.6194710702509312,0.5659150423051558,A,730.4051669998444,Correct,sub_009_day_15_data.csv,1,300,137.0,Training at home,,,,,,,,,,,,,
9,15,3444,A,36.27594752119309,59.398356568710064,1.8137973760596544,0.9330272031578328,A,496.1537499984843,Correct,sub_009_day_15_data.csv,1,300,137.0,Training at home,,,,,,,,,,,,,
9,15,3445,B,85.47306407705136,67.30213699430722,4.273653203852568,1.057179495761047,B,391.4360000017041,Correct,sub_009_day_15_data.csv,1,300,137.0,Training at home,,,,,,,,,,,,,
9,15,3446,A,59.501080769440264,85.57855846168147,2.975054038472013,1.3442648528401155,A,631.992957998591,Correct,sub_009_day_15_data.csv,1,300,137.0,Training at home,,,,,,,,,,,,,
9,15,3447,A,43.111092533090805,65.00994384055058,2.15555462665454,1.0211738098987937,A,581.1737080002786,Correct,sub_009_day_15_data.csv,1,300,137.0,Training at home,,,,,,,,,,,,,
9,15,3448,B,76.88865797984197,48.94506614649296,3.8444328989920984,0.7688273011764438,B,397.7033750015835,Correct,sub_009_day_15_data.csv,1,300,137.0,Training at home,,,,,,,,,,,,,
9,15,3449,B,72.77180802073383,54.76393705592361,3.638590401036691,0.8602299116827173,B,438.94329099930474,Correct,sub_009_day_15_data.csv,1,300,137.0,Training at home,,,,,,,,,,,,,
9,15,3450,A,30.99365999395955,45.23552400641857,1.5496829996979775,0.7105579494992466,B,859.497959001601,Incorrect,sub_009_day_15_data.csv,0,300,138.0,Training at home,,,,,,,,,,,,,
9,15,3451,B,62.86651667221015,46.79352895683965,3.1433258336105077,0.7350310340317435,B,393.4777080030472,Correct,sub_009_day_15_data.csv,1,300,138.0,Training at home,,,,,,,,,,,,,
9,15,3452,A,55.99774107602644,76.56783852452499,2.799887053801322,1.2027247950494862,A,646.0044159975951,Correct,sub_009_day_15_data.csv,1,300,138.0,Training at home,,,,,,,,,,,,,
9,15,3453,B,87.94754336499047,62.5675030392046,4.397377168249523,0.9828080395071112,B,386.2617089980631,Correct,sub_009_day_15_data.csv,1,300,138.0,Training at home,,,,,,,,,,,,,
9,15,3454,B,46.579405604729175,31.947401669627112,2.328970280236459,0.5018286119329141,B,442.9119170017657,Correct,sub_009_day_15_data.csv,1,300,138.0,Training at home,,,,,,,,,,,,,
9,15,3455,A,43.08463362138971,51.54246833498972,2.1542316810694855,0.8096271993454413,A,732.0573329998297,Correct,sub_009_day_15_data.csv,1,300,138.0,Training at home,,,,,,,,,,,,,
9,15,3456,B,70.1915725143848,50.82855156499081,3.5095786257192403,0.7984130209459255,B,353.85416600183817,Correct,sub_009_day_15_data.csv,1,300,138.0,Training at home,,,,,,,,,,,,,
9,15,3457,B,40.775911781202936,31.77388522014159,2.038795589060147,0.4991030219180107,B,476.9763750009588,Correct,sub_009_day_15_data.csv,1,300,138.0,Training at home,,,,,,,,,,,,,
9,15,3458,B,58.13179419140113,37.69755519708512,2.9065897095700564,0.5921518123272917,B,424.8911249997036,Correct,sub_009_day_15_data.csv,1,300,138.0,Training at home,,,,,,,,,,,,,
9,15,3459,A,50.4262556277677,57.463406912910806,2.521312781388385,0.9026330850392076,B,416.7280830006348,Incorrect,sub_009_day_15_data.csv,0,300,138.0,Training at home,,,,,,,,,,,,,
9,15,3460,B,61.615589429236834,47.603359382157834,3.0807794714618417,0.747751820605909,B,460.21483300137334,Correct,sub_009_day_15_data.csv,1,300,138.0,Training at home,,,,,,,,,,,,,
9,15,3461,B,45.13548216693026,16.215760764396094,2.256774108346513,0.2547165744489819,B,420.5329159995017,Correct,sub_009_day_15_data.csv,1,300,138.0,Training at home,,,,,,,,,,,,,
9,15,3462,B,79.98787692485661,56.31839078068647,3.9993938462428305,0.8846472136930188,B,448.40941700022086,Correct,sub_009_day_15_data.csv,1,300,138.0,Training at home,,,,,,,,,,,,,
9,15,3463,A,44.01713606003537,58.5707701182371,2.200856803001769,0.9200275055927514,A,668.3610000000044,Correct,sub_009_day_15_data.csv,1,300,138.0,Training at home,,,,,,,,,,,,,
9,15,3464,B,67.99010729431747,57.480979416012445,3.399505364715873,0.902909113272454,B,446.1415000005218,Correct,sub_009_day_15_data.csv,1,300,138.0,Training at home,,,,,,,,,,,,,
9,15,3465,B,63.38177461490791,35.04007547862128,3.169088730745395,0.5504082185243424,B,389.9102499999571,Correct,sub_009_day_15_data.csv,1,300,138.0,Training at home,,,,,,,,,,,,,
9,15,3466,B,80.9984030346094,49.66874784724878,4.04992015173047,0.7801948667496031,B,446.1663749971194,Correct,sub_009_day_15_data.csv,1,300,138.0,Training at home,,,,,,,,,,,,,
9,15,3467,A,21.780817360156473,51.42214211431983,1.0890408680078236,0.8077371194909874,A,649.4092920002004,Correct,sub_009_day_15_data.csv,1,300,138.0,Training at home,,,,,,,,,,,,,
9,15,3468,A,13.573686631338871,30.313467363895143,0.6786843315669436,0.4761628318762347,A,583.0690419970779,Correct,sub_009_day_15_data.csv,1,300,138.0,Training at home,,,,,,,,,,,,,
9,15,3469,B,60.94304130368707,34.68293304165553,3.0471520651843536,0.5447982382430586,B,366.1761250004929,Correct,sub_009_day_15_data.csv,1,300,138.0,Training at home,,,,,,,,,,,,,
9,15,3470,A,38.37620140239574,61.73181160573627,1.918810070119787,0.969681029166851,A,593.4983750012179,Correct,sub_009_day_15_data.csv,1,300,138.0,Training at home,,,,,,,,,,,,,
9,15,3471,A,66.96165223701598,80.9132668514067,3.348082611850799,1.2709826235916493,A,704.3317909992766,Correct,sub_009_day_15_data.csv,1,300,138.0,Training at home,,,,,,,,,,,,,
9,15,3472,A,48.47693495048802,79.35663321792936,2.423846747524401,1.246531079655333,A,1071.0614579984394,Correct,sub_009_day_15_data.csv,1,300,138.0,Training at home,,,,,,,,,,,,,
9,15,3473,A,15.469327254030986,39.13159997115676,0.7734663627015493,0.6146777349630032,A,584.9314579972997,Correct,sub_009_day_15_data.csv,1,300,138.0,Training at home,,,,,,,,,,,,,
9,15,3474,A,19.08538520817319,47.71509607018328,0.9542692604086596,0.749506976397095,A,587.6502499995695,Correct,sub_009_day_15_data.csv,1,300,138.0,Training at home,,,,,,,,,,,,,
9,15,3475,A,64.01958957880233,79.35161955437235,3.2009794789401163,1.2464523252123416,A,584.9416250021022,Correct,sub_009_day_15_data.csv,1,300,139.0,Training at home,,,,,,,,,,,,,
9,15,3476,B,76.97444049591519,50.93621703718902,3.84872202479576,0.8001042262284414,B,362.2162499996193,Correct,sub_009_day_15_data.csv,1,300,139.0,Training at home,,,,,,,,,,,,,
9,15,3477,A,56.07487332355491,78.37018282823492,2.8037436661777457,1.2310359531683588,A,534.4437499988999,Correct,sub_009_day_15_data.csv,1,300,139.0,Training at home,,,,,,,,,,,,,
9,15,3478,A,57.377028322121305,68.1596376153178,2.8688514161060654,1.0706490840181246,A,612.3659160002717,Correct,sub_009_day_15_data.csv,1,300,139.0,Training at home,,,,,,,,,,,,,
9,15,3479,B,81.07817648647583,52.67916151065172,4.053908824323791,0.8274823339956682,B,358.07466600090265,Correct,sub_009_day_15_data.csv,1,300,139.0,Training at home,,,,,,,,,,,,,
9,15,3480,A,30.857011251502044,60.046284507138694,1.5428505625751023,0.9432048314149476,A,544.0466669970192,Correct,sub_009_day_15_data.csv,1,300,139.0,Training at home,,,,,,,,,,,,,
9,15,3481,B,52.43280007646405,45.63801133836653,2.6216400038232024,0.7168802057253001,B,1653.378792001604,Correct,sub_009_day_15_data.csv,1,300,139.0,Training at home,,,,,,,,,,,,,
9,15,3482,B,51.51647182393982,43.9978599933776,2.575823591196991,0.6911167686443367,B,460.025084001245,Correct,sub_009_day_15_data.csv,1,300,139.0,Training at home,,,,,,,,,,,,,
9,15,3483,B,60.56579140012442,27.72005073655353,3.028289570006221,0.4354255387554646,B,426.2000409980829,Correct,sub_009_day_15_data.csv,1,300,139.0,Training at home,,,,,,,,,,,,,
9,15,3484,A,38.50340504738587,69.10130928757283,1.9251702523692933,1.0854408280563748,A,556.8921250014682,Correct,sub_009_day_15_data.csv,1,300,139.0,Training at home,,,,,,,,,,,,,
9,15,3485,B,57.82114758850864,44.89700565349433,2.891057379425432,0.7052405156459861,B,544.5032500028901,Correct,sub_009_day_15_data.csv,1,300,139.0,Training at home,,,,,,,,,,,,,
9,15,3486,A,32.64440211959412,48.27524573879472,1.632220105979706,0.7583057868161973,A,680.7196669979021,Correct,sub_009_day_15_data.csv,1,300,139.0,Training at home,,,,,,,,,,,,,
9,15,3487,A,52.83476257415499,73.63326297070938,2.6417381287077495,1.1566285900431297,A,589.9989159988763,Correct,sub_009_day_15_data.csv,1,300,139.0,Training at home,,,,,,,,,,,,,
9,15,3488,B,55.71509348359892,29.788883463075052,2.7857546741799464,0.4679226872311953,B,448.1178339992766,Correct,sub_009_day_15_data.csv,1,300,139.0,Training at home,,,,,,,,,,,,,
9,15,3489,A,25.182586062740423,54.2506942299961,1.2591293031370212,0.8521679122255097,A,528.4375000010186,Correct,sub_009_day_15_data.csv,1,300,139.0,Training at home,,,,,,,,,,,,,
9,15,3490,B,73.34839954080566,52.7753032973898,3.667419977040282,0.8289925256502648,B,455.0622079987079,Correct,sub_009_day_15_data.csv,1,300,139.0,Training at home,,,,,,,,,,,,,
9,15,3491,A,37.74409433405275,54.12061365008439,1.8872047167026376,0.850124611254383,A,588.7960000000021,Correct,sub_009_day_15_data.csv,1,300,139.0,Training at home,,,,,,,,,,,,,
9,15,3492,A,13.551411042150908,30.249987641283223,0.6775705521075452,0.475165694725187,A,686.5752919984516,Correct,sub_009_day_15_data.csv,1,300,139.0,Training at home,,,,,,,,,,,,,
9,15,3493,B,69.49753485322084,44.60345070898474,3.474876742661042,0.7006293653605045,B,491.6033329973288,Correct,sub_009_day_15_data.csv,1,300,139.0,Training at home,,,,,,,,,,,,,
9,15,3494,B,46.29403491218302,29.449520031766134,2.3147017456091508,0.4625919789177096,B,458.6358340020524,Correct,sub_009_day_15_data.csv,1,300,139.0,Training at home,,,,,,,,,,,,,
9,15,3495,B,41.02123872226316,17.836247311247202,2.051061936113158,0.2801711176031245,B,440.99533400003565,Correct,sub_009_day_15_data.csv,1,300,139.0,Training at home,,,,,,,,,,,,,
9,15,3496,B,84.33471707654385,54.86184805780408,4.216735853827192,0.861767894103784,B,414.3658749999304,Correct,sub_009_day_15_data.csv,1,300,139.0,Training at home,,,,,,,,,,,,,
9,15,3497,A,58.82688978711532,83.6994633945281,2.9413444893557656,1.3147480965482865,A,686.725416999252,Correct,sub_009_day_15_data.csv,1,300,139.0,Training at home,,,,,,,,,,,,,
9,15,3498,B,69.77511952793012,47.20384421574209,3.4887559763965057,0.741476251046862,B,440.53133399938815,Correct,sub_009_day_15_data.csv,1,300,139.0,Training at home,,,,,,,,,,,,,
9,15,3499,B,53.15038155479438,43.87462923933576,2.657519077739719,0.6891810644863658,B,401.37112500087824,Correct,sub_009_day_15_data.csv,1,300,139.0,Training at home,,,,,,,,,,,,,
9,15,3500,A,61.93631283945686,74.63456026416578,3.0968156419728428,1.1723569311490396,A,696.9700420013396,Correct,sub_009_day_15_data.csv,1,300,140.0,Training at home,,,,,,,,,,,,,
9,15,3501,B,75.61793505024588,49.20849172320699,3.7808967525122936,0.7729651804593063,B,451.1455419997219,Correct,sub_009_day_15_data.csv,1,300,140.0,Training at home,,,,,,,,,,,,,
9,15,3502,B,84.85791740350244,65.81729186073983,4.242895870175122,1.0338556029443775,B,628.9797499994165,Correct,sub_009_day_15_data.csv,1,300,140.0,Training at home,,,,,,,,,,,,,
9,15,3503,A,43.529073798338885,57.92992052916409,2.1764536899169444,0.9099610637873122,A,631.561000001966,Correct,sub_009_day_15_data.csv,1,300,140.0,Training at home,,,,,,,,,,,,,
9,15,3504,B,50.08954802056648,34.40158562475728,2.5044774010283244,0.5403788433528885,B,370.4603749974922,Correct,sub_009_day_15_data.csv,1,300,140.0,Training at home,,,,,,,,,,,,,
9,15,3505,B,76.03614768696507,55.22001239748421,3.8018073843482534,0.8673939263953685,B,485.14937499930966,Correct,sub_009_day_15_data.csv,1,300,140.0,Training at home,,,,,,,,,,,,,
9,15,3506,A,56.28994873752342,65.56160034276495,2.814497436876171,1.029839209972102,A,615.9105420010746,Correct,sub_009_day_15_data.csv,1,300,140.0,Training at home,,,,,,,,,,,,,
9,15,3507,B,39.34135847596056,20.03127911799271,1.967067923798028,0.3146505965954627,B,424.4227500021225,Correct,sub_009_day_15_data.csv,1,300,140.0,Training at home,,,,,,,,,,,,,
9,15,3508,B,36.7298160954975,14.508252361223144,1.8364908047748747,0.2278950951722269,B,424.6042920021864,Correct,sub_009_day_15_data.csv,1,300,140.0,Training at home,,,,,,,,,,,,,
9,15,3509,B,44.21938921022472,18.33845433054978,2.210969460511236,0.2880597670152355,B,415.3757079984643,Correct,sub_009_day_15_data.csv,1,300,140.0,Training at home,,,,,,,,,,,,,
9,15,3510,A,47.91685764870392,54.80054765301778,2.3958428824351956,0.8608049895970902,A,847.6266670004406,Correct,sub_009_day_15_data.csv,1,300,140.0,Training at home,,,,,,,,,,,,,
9,15,3511,B,68.8508503402476,59.29448774004414,3.44254251701238,0.9313956354124636,B,4519.603249998909,Correct,sub_009_day_15_data.csv,1,300,140.0,Training at home,,,,,,,,,,,,,
9,15,3512,B,84.6271587556331,64.62582740247228,4.231357937781655,1.0151401229988444,B,566.1631250004575,Correct,sub_009_day_15_data.csv,1,300,140.0,Training at home,,,,,,,,,,,,,
9,15,3513,B,58.09098128955433,41.66072812986407,2.9045490644777163,0.654405187179913,B,471.9693749975704,Correct,sub_009_day_15_data.csv,1,300,140.0,Training at home,,,,,,,,,,,,,
9,15,3514,A,54.78499515049617,77.68342393098327,2.7392497575248087,1.2202483696363928,A,852.2191669981112,Correct,sub_009_day_15_data.csv,1,300,140.0,Training at home,,,,,,,,,,,,,
9,15,3515,A,14.626917855280247,32.44836138950572,0.7313458927640124,0.5096976688114894,A,685.246165998251,Correct,sub_009_day_15_data.csv,1,300,140.0,Training at home,,,,,,,,,,,,,
9,15,3516,A,25.982420529824072,38.21347398724619,1.2991210264912036,0.6002558457323866,A,610.0005420012167,Correct,sub_009_day_15_data.csv,1,300,140.0,Training at home,,,,,,,,,,,,,
9,15,3517,A,44.61062699466032,74.50126981578784,2.230531349733016,1.1702632096819503,A,611.9752080012404,Correct,sub_009_day_15_data.csv,1,300,140.0,Training at home,,,,,,,,,,,,,
9,15,3518,B,56.55223518436012,25.415199186754393,2.827611759218006,0.3992210152731444,B,556.6026669985149,Correct,sub_009_day_15_data.csv,1,300,140.0,Training at home,,,,,,,,,,,,,
9,15,3519,A,64.92577920080215,88.76468035689462,3.2462889600401077,1.3943123385373315,A,745.3987920016516,Correct,sub_009_day_15_data.csv,1,300,140.0,Training at home,,,,,,,,,,,,,
9,15,3520,A,36.336707946983154,49.55541208013841,1.8168353973491576,0.7784145926828886,A,647.7882500003034,Correct,sub_009_day_15_data.csv,1,300,140.0,Training at home,,,,,,,,,,,,,
9,15,3521,A,45.03397677096997,59.11876875713504,2.2516988385484984,0.928635448083446,A,616.6847919994325,Correct,sub_009_day_15_data.csv,1,300,140.0,Training at home,,,,,,,,,,,,,
9,15,3522,A,50.959077789801555,75.73050046558077,2.5479538894900777,1.1895719195767347,A,628.8009170020814,Correct,sub_009_day_15_data.csv,1,300,140.0,Training at home,,,,,,,,,,,,,
9,15,3523,B,56.25487310233415,41.482691915853685,2.8127436551167073,0.6516086008698732,B,452.7482079975016,Correct,sub_009_day_15_data.csv,1,300,140.0,Training at home,,,,,,,,,,,,,
9,15,3524,B,67.6755368909499,59.1898690375847,3.383776844547495,0.92975228867709,B,905.978791997768,Correct,sub_009_day_15_data.csv,1,300,140.0,Training at home,,,,,,,,,,,,,
9,15,3525,A,35.64838129665351,52.70495958212928,1.7824190648326754,0.8278875691548216,A,650.1603329998034,Correct,sub_009_day_15_data.csv,1,300,141.0,Training at home,,,,,,,,,,,,,
9,15,3526,A,23.421807480864587,34.564967170206565,1.1710903740432292,0.5429452346674666,A,610.0492500008841,Correct,sub_009_day_15_data.csv,1,300,141.0,Training at home,,,,,,,,,,,,,
9,15,3527,A,49.04196038236627,80.12176721081654,2.4520980191183135,1.2585497763106643,A,580.0373329984723,Correct,sub_009_day_15_data.csv,1,300,141.0,Training at home,,,,,,,,,,,,,
9,15,3528,B,46.100552801861106,19.34474290994172,2.3050276400930554,0.3038665110572808,B,402.40958299909835,Correct,sub_009_day_15_data.csv,1,300,141.0,Training at home,,,,,,,,,,,,,
9,15,3529,A,16.559328887507817,34.40330389111293,0.8279664443753909,0.5404058338176875,A,603.4729170023638,Correct,sub_009_day_15_data.csv,1,300,141.0,Training at home,,,,,,,,,,,,,
9,15,3530,A,62.23575216325288,77.30232651507916,3.111787608162644,1.2142621054258609,A,694.0207500010729,Correct,sub_009_day_15_data.csv,1,300,141.0,Training at home,,,,,,,,,,,,,
9,15,3531,A,39.9525667760081,70.33138887653935,1.9976283388004048,1.1047628730565149,A,616.8591669993475,Correct,sub_009_day_15_data.csv,1,300,141.0,Training at home,,,,,,,,,,,,,
9,15,3532,A,47.83986950600334,73.93406455001188,2.391993475300167,1.1613535702017546,A,604.4731670008332,Correct,sub_009_day_15_data.csv,1,300,141.0,Training at home,,,,,,,,,,,,,
9,15,3533,A,49.84200900907312,69.63493993182412,2.4921004504536564,1.093823078614926,A,575.4622089989425,Correct,sub_009_day_15_data.csv,1,300,141.0,Training at home,,,,,,,,,,,,,
9,15,3534,A,68.30978428446538,89.71420945337275,3.415489214223269,1.409227506706659,A,614.9603749981907,Correct,sub_009_day_15_data.csv,1,300,141.0,Training at home,,,,,,,,,,,,,
9,15,3535,B,61.18272581083045,41.22629366374144,3.0591362905415225,0.6475811065437279,B,694.6749999988242,Correct,sub_009_day_15_data.csv,1,300,141.0,Training at home,,,,,,,,,,,,,
9,15,3536,B,73.60899044580354,46.72703846779158,3.680449522290177,0.7339866038721083,B,528.9598749986908,Correct,sub_009_day_15_data.csv,1,300,141.0,Training at home,,,,,,,,,,,,,
9,15,3537,B,80.3475618176007,65.65299421895469,4.017378090880035,1.031274821622206,B,610.6750839971937,Correct,sub_009_day_15_data.csv,1,300,141.0,Training at home,,,,,,,,,,,,,
9,15,3538,A,22.31844484357059,39.56625764144145,1.1159222421785295,0.6215053216819674,A,662.5584590001381,Correct,sub_009_day_15_data.csv,1,300,141.0,Training at home,,,,,,,,,,,,,
9,15,3539,B,74.13462333814061,43.23659014729284,3.706731166907031,0.6791587698650401,B,411.51854200143134,Correct,sub_009_day_15_data.csv,1,300,141.0,Training at home,,,,,,,,,,,,,
9,15,3540,A,50.525978527418864,66.37138748529627,2.526298926370943,1.0425593166618414,A,784.0012499982549,Correct,sub_009_day_15_data.csv,1,300,141.0,Training at home,,,,,,,,,,,,,
9,15,3541,A,41.227970006017934,68.64654619026406,2.0613985003008968,1.07829742602823,A,545.2492499971413,Correct,sub_009_day_15_data.csv,1,300,141.0,Training at home,,,,,,,,,,,,,
9,15,3542,B,75.55766198155357,56.752625906701255,3.777883099077678,0.8914681631021122,B,366.6466249997029,Correct,sub_009_day_15_data.csv,1,300,141.0,Training at home,,,,,,,,,,,,,
9,15,3543,B,69.29871087472341,42.75138328673383,3.4649355437361704,0.6715371583220222,B,493.8985410008172,Correct,sub_009_day_15_data.csv,1,300,141.0,Training at home,,,,,,,,,,,,,
9,15,3544,A,39.6443942872042,51.27460739695095,1.9822197143602096,0.8054196495698098,A,687.7875000027416,Correct,sub_009_day_15_data.csv,1,300,141.0,Training at home,,,,,,,,,,,,,
9,15,3545,A,49.31098169245297,77.73549034637495,2.4655490846226487,1.221066226976859,A,499.17837500106543,Correct,sub_009_day_15_data.csv,1,300,141.0,Training at home,,,,,,,,,,,,,
9,15,3546,A,31.385502777185316,55.83434158332776,1.5692751388592656,0.877043786681028,A,576.2142909989052,Correct,sub_009_day_15_data.csv,1,300,141.0,Training at home,,,,,,,,,,,,,
9,15,3547,B,77.20748851028162,47.67363889692509,3.860374425514081,0.7488557686423624,B,385.46654200035846,Correct,sub_009_day_15_data.csv,1,300,141.0,Training at home,,,,,,,,,,,,,
9,15,3548,B,72.1087833434543,57.4628599190836,3.6054391671727153,0.902624492880262,B,457.62004100106424,Correct,sub_009_day_15_data.csv,1,300,141.0,Training at home,,,,,,,,,,,,,
9,15,3549,A,35.10662098585176,45.582898575361575,1.755331049292588,0.716014496468423,A,695.6359579999116,Correct,sub_009_day_15_data.csv,1,300,141.0,Training at home,,,,,,,,,,,,,
9,15,3550,A,22.079646682755403,52.59246119244188,1.10398233413777,0.8261204485819085,A,466.64133299782407,Correct,sub_009_day_15_data.csv,1,300,142.0,Training at home,,,,,,,,,,,,,
9,15,3551,A,37.37631191034357,53.264277390126935,1.8688155955171784,0.8366733127379585,A,520.5232500011334,Correct,sub_009_day_15_data.csv,1,300,142.0,Training at home,,,,,,,,,,,,,
9,15,3552,B,66.39517298786352,35.40819736129664,3.319758649393176,0.556190663535535,B,516.3428749983723,Correct,sub_009_day_15_data.csv,1,300,142.0,Training at home,,,,,,,,,,,,,
9,15,3553,A,13.211717320807278,33.53595859752639,0.660585866040364,0.5267816058054018,A,551.9890420000593,Correct,sub_009_day_15_data.csv,1,300,142.0,Training at home,,,,,,,,,,,,,
9,15,3554,A,28.58739206035829,48.94362173000363,1.4293696030179146,0.7688046123352857,A,571.2943750004342,Correct,sub_009_day_15_data.csv,1,300,142.0,Training at home,,,,,,,,,,,,,
9,15,3555,B,52.049372167917014,37.52798195440462,2.6024686083958506,0.5894881620600395,B,644.4900419992337,Correct,sub_009_day_15_data.csv,1,300,142.0,Training at home,,,,,,,,,,,,,
9,15,3556,B,50.02420464090109,35.73550827323727,2.501210232045054,0.5613320513174974,B,425.5036670001573,Correct,sub_009_day_15_data.csv,1,300,142.0,Training at home,,,,,,,,,,,,,
9,15,3557,A,48.79062070956256,62.91810829332924,2.439531035478128,0.9883153339604508,A,609.0167090005707,Correct,sub_009_day_15_data.csv,1,300,142.0,Training at home,,,,,,,,,,,,,
9,15,3558,B,57.59228676144263,39.07003377588924,2.8796143380721317,0.6137106554291937,B,429.74383299952024,Correct,sub_009_day_15_data.csv,1,300,142.0,Training at home,,,,,,,,,,,,,
9,15,3559,A,19.789092954341186,38.077883241990406,0.9894546477170592,0.5981259912864348,A,784.2107500000566,Correct,sub_009_day_15_data.csv,1,300,142.0,Training at home,,,,,,,,,,,,,
9,15,3560,A,46.33624234212801,74.04996834932314,2.3168121171064,1.1631741828239517,A,646.4987079998537,Correct,sub_009_day_15_data.csv,1,300,142.0,Training at home,,,,,,,,,,,,,
9,15,3561,B,43.35257303744754,17.667749948117827,2.167628651872377,0.2775243672123421,B,404.31441699911375,Correct,sub_009_day_15_data.csv,1,300,142.0,Training at home,,,,,,,,,,,,,
9,15,3562,B,81.41957369564356,62.13620398017745,4.070978684782179,0.9760332097304116,B,509.31995900100446,Correct,sub_009_day_15_data.csv,1,300,142.0,Training at home,,,,,,,,,,,,,
9,15,3563,A,52.97558611069108,61.45187990307815,2.6487793055345543,0.965283872263963,A,960.6491250015096,Correct,sub_009_day_15_data.csv,1,300,142.0,Training at home,,,,,,,,,,,,,
9,15,3564,A,26.16502877504772,41.23956255406787,1.308251438752386,0.6477895337855816,A,581.5904999981285,Correct,sub_009_day_15_data.csv,1,300,142.0,Training at home,,,,,,,,,,,,,
9,15,3565,B,74.69705155332258,49.89068598698439,3.734852577666129,0.783681062896327,B,407.7094579988625,Correct,sub_009_day_15_data.csv,1,300,142.0,Training at home,,,,,,,,,,,,,
9,15,3566,A,52.725289461918074,65.61510801177167,2.636264473095904,1.0306797064714133,A,842.4432079991675,Correct,sub_009_day_15_data.csv,1,300,142.0,Training at home,,,,,,,,,,,,,
9,15,3567,A,35.71843579100818,62.96740058953502,1.7859217895504091,0.9890896155386442,A,524.4019999990996,Correct,sub_009_day_15_data.csv,1,300,142.0,Training at home,,,,,,,,,,,,,
9,15,3568,B,43.4000532719017,17.959762491946485,2.170002663595085,0.282111289524583,B,375.458709000668,Correct,sub_009_day_15_data.csv,1,300,142.0,Training at home,,,,,,,,,,,,,
9,15,3569,A,50.28898191325976,64.72748236645359,2.514449095662988,1.0167369154390673,A,544.9508329984383,Correct,sub_009_day_15_data.csv,1,300,142.0,Training at home,,,,,,,,,,,,,
9,15,3570,B,42.62543122525129,29.41099169827192,2.131271561262565,0.4619867772704074,B,515.4186250001658,Correct,sub_009_day_15_data.csv,1,300,142.0,Training at home,,,,,,,,,,,,,
9,15,3571,B,43.129824401404335,14.819861132502808,2.1564912200702167,0.2327898343054587,B,369.5602090010652,Correct,sub_009_day_15_data.csv,1,300,142.0,Training at home,,,,,,,,,,,,,
9,15,3572,B,64.7314126612443,35.35718794708597,3.236570633062215,0.5553894095307943,B,365.9760410009767,Correct,sub_009_day_15_data.csv,1,300,142.0,Training at home,,,,,,,,,,,,,
9,15,3573,B,40.626206529499555,28.83624620240045,2.0313103264749777,0.452958696132839,B,349.598832999618,Correct,sub_009_day_15_data.csv,1,300,142.0,Training at home,,,,,,,,,,,,,
9,15,3574,B,32.580160741089756,14.52014472528598,1.6290080370544875,0.2280818999900951,B,461.8440419981198,Correct,sub_009_day_15_data.csv,1,300,142.0,Training at home,,,,,,,,,,,,,
9,15,3575,B,82.04227258992239,65.94092765652869,4.102113629496119,1.0357976694832327,B,418.7657910006237,Correct,sub_009_day_15_data.csv,1,300,143.0,Training at home,,,,,,,,,,,,,
9,15,3576,A,41.443587734869304,58.66995815474546,2.0721793867434655,0.9215855476268446,A,708.7430000028689,Correct,sub_009_day_15_data.csv,1,300,143.0,Training at home,,,,,,,,,,,,,
9,15,3577,B,38.214179335813014,28.998143338018796,1.9107089667906507,0.4555017703923182,B,403.69066600032966,Correct,sub_009_day_15_data.csv,1,300,143.0,Training at home,,,,,,,,,,,,,
9,15,3578,A,19.649238034198135,46.68595891671005,0.9824619017099068,0.7333413277926559,A,648.0182080013037,Correct,sub_009_day_15_data.csv,1,300,143.0,Training at home,,,,,,,,,,,,,
9,15,3579,A,54.01916096331277,80.91655662385702,2.700958048165638,1.2710342992164585,A,580.8159589978459,Correct,sub_009_day_15_data.csv,1,300,143.0,Training at home,,,,,,,,,,,,,
9,15,3580,B,80.05634695524236,61.75822907571181,4.002817347762118,0.970095993814859,B,423.3248749987979,Correct,sub_009_day_15_data.csv,1,300,143.0,Training at home,,,,,,,,,,,,,
9,15,3581,A,32.748470296575654,51.09903288386894,1.6374235148287826,0.8026617315675297,A,599.2582090002543,Correct,sub_009_day_15_data.csv,1,300,143.0,Training at home,,,,,,,,,,,,,
9,15,3582,B,67.1107951026529,40.358021835808565,3.355539755132645,0.6339423245639632,B,403.3667920011794,Correct,sub_009_day_15_data.csv,1,300,143.0,Training at home,,,,,,,,,,,,,
9,15,3583,B,58.988949901041394,43.26762294051736,2.9494474950520697,0.6796462318411127,B,463.17104199988535,Correct,sub_009_day_15_data.csv,1,300,143.0,Training at home,,,,,,,,,,,,,
9,15,3584,B,60.553617110085106,30.33780704541287,3.0276808555042556,0.4765451586994687,B,402.1226660006505,Correct,sub_009_day_15_data.csv,1,300,143.0,Training at home,,,,,,,,,,,,,
9,15,3585,B,80.8113767563038,55.385658389950706,4.04056883781519,0.8699958875605149,B,401.27600000050734,Correct,sub_009_day_15_data.csv,1,300,143.0,Training at home,,,,,,,,,,,,,
9,15,3586,B,67.21177930104982,49.76205935449321,3.360588965052491,0.7816606004778757,B,368.7248329988506,Correct,sub_009_day_15_data.csv,1,300,143.0,Training at home,,,,,,,,,,,,,
9,15,3587,B,53.764234433564624,27.353257222466304,2.6882117216782313,0.4296639597092604,B,334.92049999767914,Correct,sub_009_day_15_data.csv,1,300,143.0,Training at home,,,,,,,,,,,,,
9,15,3588,B,57.55423190280633,42.538367463464944,2.8777115951403163,0.6681911135946227,B,371.45820899968385,Correct,sub_009_day_15_data.csv,1,300,143.0,Training at home,,,,,,,,,,,,,
9,15,3589,B,71.80033228833537,59.673085262109296,3.5900166144167684,0.9373426313823996,B,381.3310830009869,Correct,sub_009_day_15_data.csv,1,300,143.0,Training at home,,,,,,,,,,,,,
9,15,3590,B,56.62148883487803,37.380457352886424,2.8310744417439015,0.5871708510382727,B,346.1214159979136,Correct,sub_009_day_15_data.csv,1,300,143.0,Training at home,,,,,,,,,,,,,
9,15,3591,B,80.78688028154312,59.21239823664037,4.039344014077156,0.9301061765083132,B,423.8457920000656,Correct,sub_009_day_15_data.csv,1,300,143.0,Training at home,,,,,,,,,,,,,
9,15,3592,B,59.99368941854124,30.99767392050972,2.999684470927062,0.4869103233352264,B,716.5885840004194,Correct,sub_009_day_15_data.csv,1,300,143.0,Training at home,,,,,,,,,,,,,
9,15,3593,A,25.756250246989794,57.691561120249254,1.2878125123494897,0.906216922947508,A,911.1582090008596,Correct,sub_009_day_15_data.csv,1,300,143.0,Training at home,,,,,,,,,,,,,
9,15,3594,B,47.79717184702211,36.00737285983344,2.3898585923511058,0.5656024902576061,B,536.9936669994786,Correct,sub_009_day_15_data.csv,1,300,143.0,Training at home,,,,,,,,,,,,,
9,15,3595,A,14.23674641385917,41.626527162610024,0.7118373206929585,0.6538679596425582,A,699.8476660010056,Correct,sub_009_day_15_data.csv,1,300,143.0,Training at home,,,,,,,,,,,,,
9,15,3596,A,31.21893502135905,62.18538507380347,1.5609467510679524,0.9768057445425667,A,604.9193340004422,Correct,sub_009_day_15_data.csv,1,300,143.0,Training at home,,,,,,,,,,,,,
9,15,3597,A,59.135815222550185,84.575257538495,2.9567907611275093,1.3285050387920032,A,594.8549580025428,Correct,sub_009_day_15_data.csv,1,300,143.0,Training at home,,,,,,,,,,,,,
9,15,3598,B,54.49779799290614,43.841430879142685,2.7248898996453073,0.6886595858638968,B,574.5600409973122,Correct,sub_009_day_15_data.csv,1,300,143.0,Training at home,,,,,,,,,,,,,
9,15,3599,A,68.91746480134023,83.53820019309728,3.4458732400670113,1.3122149801037393,A,595.758957999351,Correct,sub_009_day_15_data.csv,1,300,143.0,Training at home,,,,,,,,,,,,,
