subject,day,trial,cat,x,y,xt,yt,resp,rt,fb,f_name,acc,n_trials,block,session_type,ns_left_digit,ns_right_digit,ns_left_size,ns_right_size,ns_congruent,ns_cue,ns_correct_side,ns_resp,ns_rt,ns_fb,acc_stroop,acc_stroop_mean,resp_key
9,19,4200,A,52.67395412403697,81.96831128603262,2.6336977062018487,1.287555222816807,A,682.0790409983601,Correct,sub_009_day_19_data.csv,1,300,168.0,Training at home,,,,,,,,,,,,,
9,19,4201,B,48.183462755594704,25.06881532770105,2.409173137779735,0.393780030338524,B,401.68691700091586,Correct,sub_009_day_19_data.csv,1,300,168.0,Training at home,,,,,,,,,,,,,
9,19,4202,A,66.39995998916525,84.17103445223432,3.3199979994582627,1.3221555174009636,A,356.3469580003584,Correct,sub_009_day_19_data.csv,1,300,168.0,Training at home,,,,,,,,,,,,,
9,19,4203,B,72.94599687523896,46.60074367254337,3.647299843761948,0.7320027698674165,B,411.0926670000481,Correct,sub_009_day_19_data.csv,1,300,168.0,Training at home,,,,,,,,,,,,,
9,19,4204,A,37.753074962150215,69.18273599043769,1.8876537481075104,1.0867198757140062,A,348.8675000007788,Correct,sub_009_day_19_data.csv,1,300,168.0,Training at home,,,,,,,,,,,,,
9,19,4205,A,61.44445248410442,80.1432985900164,3.072222624205221,1.2588879904242436,A,368.4808329999214,Correct,sub_009_day_19_data.csv,1,300,168.0,Training at home,,,,,,,,,,,,,
9,19,4206,B,42.90856526461329,30.480536181783503,2.1454282632306643,0.4787871427308447,B,389.0417919974425,Correct,sub_009_day_19_data.csv,1,300,168.0,Training at home,,,,,,,,,,,,,
9,19,4207,A,35.57886719821055,53.31852218690192,1.7789433599105278,0.8375253880131773,A,369.9620419974962,Correct,sub_009_day_19_data.csv,1,300,168.0,Training at home,,,,,,,,,,,,,
9,19,4208,A,67.55378122993125,82.7632853227702,3.3776890614965622,1.3000426457848542,A,398.2132499986619,Correct,sub_009_day_19_data.csv,1,300,168.0,Training at home,,,,,,,,,,,,,
9,19,4209,A,31.864204633550067,41.00908346505208,1.5932102316775032,0.6441691767212914,A,582.0558330015047,Correct,sub_009_day_19_data.csv,1,300,168.0,Training at home,,,,,,,,,,,,,
9,19,4210,B,56.87940027064407,41.162538017797786,2.8439700135322035,0.6465796351991204,B,634.9019579974993,Correct,sub_009_day_19_data.csv,1,300,168.0,Training at home,,,,,,,,,,,,,
9,19,4211,A,46.07860167837788,54.32763116088151,2.303930083918894,0.8533764347098063,A,379.9079580021498,Correct,sub_009_day_19_data.csv,1,300,168.0,Training at home,,,,,,,,,,,,,
9,19,4212,B,60.45547258418783,27.73613707238932,3.022773629209391,0.435678222327889,B,377.9855419998057,Correct,sub_009_day_19_data.csv,1,300,168.0,Training at home,,,,,,,,,,,,,
9,19,4213,A,53.704384187346875,80.1904720781045,2.685219209367344,1.259628989842353,A,347.03799999988405,Correct,sub_009_day_19_data.csv,1,300,168.0,Training at home,,,,,,,,,,,,,
9,19,4214,A,13.26659004628918,41.45314291088928,0.6633295023144591,0.6511444461852879,A,426.51520900108153,Correct,sub_009_day_19_data.csv,1,300,168.0,Training at home,,,,,,,,,,,,,
9,19,4215,B,62.928233796515045,43.035595558683866,3.146411689825752,0.6760015542501138,B,362.8455420002865,Correct,sub_009_day_19_data.csv,1,300,168.0,Training at home,,,,,,,,,,,,,
9,19,4216,B,50.37911741290182,38.500123568143216,2.518955870645091,0.6047585268198898,B,415.298084000824,Correct,sub_009_day_19_data.csv,1,300,168.0,Training at home,,,,,,,,,,,,,
9,19,4217,A,34.168587316365716,45.76569223897911,1.708429365818286,0.7188858126221411,A,395.55345800181385,Correct,sub_009_day_19_data.csv,1,300,168.0,Training at home,,,,,,,,,,,,,
9,19,4218,A,58.46522251051685,77.56931423343315,2.9232611255258427,1.2184559386987588,A,379.81341699924087,Correct,sub_009_day_19_data.csv,1,300,168.0,Training at home,,,,,,,,,,,,,
9,19,4219,A,62.91479094731426,83.17036760568911,3.145739547365713,1.306437079331977,A,433.30370799958473,Correct,sub_009_day_19_data.csv,1,300,168.0,Training at home,,,,,,,,,,,,,
9,19,4220,B,72.53428723727973,41.84182449499012,3.6267143618639865,0.6572498422312721,B,378.7503329986066,Correct,sub_009_day_19_data.csv,1,300,168.0,Training at home,,,,,,,,,,,,,
9,19,4221,B,64.96181539307652,41.82225980558421,3.248090769653826,0.6569425208087353,B,392.1139999984007,Correct,sub_009_day_19_data.csv,1,300,168.0,Training at home,,,,,,,,,,,,,
9,19,4222,B,41.6043092940021,14.60492506645078,2.080215464700105,0.2294136264749559,B,400.0442920005298,Correct,sub_009_day_19_data.csv,1,300,168.0,Training at home,,,,,,,,,,,,,
9,19,4223,B,65.14341212671022,44.35786317564222,3.257170606335511,0.6967716854076941,B,553.7990830016497,Correct,sub_009_day_19_data.csv,1,300,168.0,Training at home,,,,,,,,,,,,,
9,19,4224,B,73.38689290304971,41.06715662676932,3.669344645152486,0.6450813878123993,B,386.99470899882726,Correct,sub_009_day_19_data.csv,1,300,168.0,Training at home,,,,,,,,,,,,,
9,19,4225,B,57.605120108667926,37.95960433888381,2.8802560054333965,0.596268070621063,B,359.6330830005172,Correct,sub_009_day_19_data.csv,1,300,169.0,Training at home,,,,,,,,,,,,,
9,19,4226,A,26.712644623328757,41.12678838523848,1.3356322311664377,0.6460180812840361,A,391.479582998727,Correct,sub_009_day_19_data.csv,1,300,169.0,Training at home,,,,,,,,,,,,,
9,19,4227,A,60.548454619978,86.99922358599144,3.0274227309988997,1.3665806084288328,A,421.1126250011148,Correct,sub_009_day_19_data.csv,1,300,169.0,Training at home,,,,,,,,,,,,,
9,19,4228,A,45.264474882897865,74.4584479216978,2.2632237441448932,1.16959056494252,A,346.74729100152035,Correct,sub_009_day_19_data.csv,1,300,169.0,Training at home,,,,,,,,,,,,,
9,19,4229,B,54.19102910956714,34.44482440178741,2.7095514554783566,0.5410580364742288,B,358.9832919969922,Correct,sub_009_day_19_data.csv,1,300,169.0,Training at home,,,,,,,,,,,,,
9,19,4230,B,37.63479692346458,19.618978223926536,1.881739846173229,0.3081741892961286,B,374.1689579983358,Correct,sub_009_day_19_data.csv,1,300,169.0,Training at home,,,,,,,,,,,,,
9,19,4231,A,57.5037753373996,79.49435375270325,2.87518876686998,1.2486943887568036,A,408.61887500068406,Correct,sub_009_day_19_data.csv,1,300,169.0,Training at home,,,,,,,,,,,,,
9,19,4232,A,12.219740307020896,38.652983648948506,0.6109870153510448,0.607159647354315,A,469.494749999285,Correct,sub_009_day_19_data.csv,1,300,169.0,Training at home,,,,,,,,,,,,,
9,19,4233,A,55.95681987126933,75.98342196922073,2.7978409935634665,1.1935448012655856,A,401.9157080001605,Correct,sub_009_day_19_data.csv,1,300,169.0,Training at home,,,,,,,,,,,,,
9,19,4234,B,86.20070623839075,59.74056258563846,4.310035311919537,0.9384025627018152,B,373.07624999812106,Correct,sub_009_day_19_data.csv,1,300,169.0,Training at home,,,,,,,,,,,,,
9,19,4235,B,66.83147503243077,37.43437256979651,3.3415737516215387,0.58801774928508,B,444.11537499763654,Correct,sub_009_day_19_data.csv,1,300,169.0,Training at home,,,,,,,,,,,,,
9,19,4236,B,59.909085047191795,39.63925229996973,2.9954542523595897,0.6226519190968861,B,381.6526660011732,Correct,sub_009_day_19_data.csv,1,300,169.0,Training at home,,,,,,,,,,,,,
9,19,4237,B,64.35488706542753,54.77399701386255,3.2177443532713768,0.8603879331324993,B,697.5964170014777,Correct,sub_009_day_19_data.csv,1,300,169.0,Training at home,,,,,,,,,,,,,
9,19,4238,B,50.11961198442894,20.48851350553118,2.5059805992214472,0.32183281755976,B,369.2770410016238,Correct,sub_009_day_19_data.csv,1,300,169.0,Training at home,,,,,,,,,,,,,
9,19,4239,A,21.998265767003385,39.45244512975924,1.0999132883501692,0.6197175589290301,A,391.1237499996787,Correct,sub_009_day_19_data.csv,1,300,169.0,Training at home,,,,,,,,,,,,,
9,19,4240,A,34.72137491011933,49.995675020155616,1.7360687455059665,0.785330226772918,A,367.0694590000494,Correct,sub_009_day_19_data.csv,1,300,169.0,Training at home,,,,,,,,,,,,,
9,19,4241,A,60.39882143103799,79.32948915642983,3.0199410715518993,1.2461047017343556,A,406.3319999986561,Correct,sub_009_day_19_data.csv,1,300,169.0,Training at home,,,,,,,,,,,,,
9,19,4242,B,69.65203921262369,42.10223928335027,3.482601960631184,0.661340428161264,B,364.6632919990225,Correct,sub_009_day_19_data.csv,1,300,169.0,Training at home,,,,,,,,,,,,,
9,19,4243,B,52.50433115352648,33.954287935146645,2.625216557676324,0.5333527076746462,B,417.5058750006429,Correct,sub_009_day_19_data.csv,1,300,169.0,Training at home,,,,,,,,,,,,,
9,19,4244,B,32.20538268140307,11.96393345564704,1.6102691340701538,0.1879290272614894,B,385.5455839984643,Correct,sub_009_day_19_data.csv,1,300,169.0,Training at home,,,,,,,,,,,,,
9,19,4245,A,34.234828426512884,65.30790769728267,1.711741421325644,1.025854215215518,A,387.0590840015211,Correct,sub_009_day_19_data.csv,1,300,169.0,Training at home,,,,,,,,,,,,,
9,19,4246,B,45.98585019893094,38.83130536235599,2.299292509946547,0.6099607182783976,B,2005.0981669992325,Correct,sub_009_day_19_data.csv,1,300,169.0,Training at home,,,,,,,,,,,,,
9,19,4247,B,38.18834179958536,15.41851257051374,1.909417089979268,0.2421934291040392,B,418.3620840012736,Correct,sub_009_day_19_data.csv,1,300,169.0,Training at home,,,,,,,,,,,,,
9,19,4248,B,65.65015752838218,38.40971939307431,3.282507876419109,0.6033384613586383,B,395.72887500253273,Correct,sub_009_day_19_data.csv,1,300,169.0,Training at home,,,,,,,,,,,,,
9,19,4249,B,43.91041391273112,33.79966711282559,2.1955206956365556,0.530923929477167,B,494.5999999981723,Correct,sub_009_day_19_data.csv,1,300,169.0,Training at home,,,,,,,,,,,,,
9,19,4250,A,45.80733908803658,60.07755865058294,2.290366954401829,0.9436960845114064,A,443.53683299777913,Correct,sub_009_day_19_data.csv,1,300,170.0,Training at home,,,,,,,,,,,,,
9,19,4251,B,34.171637755678745,18.12889180419105,1.7085818877839372,0.284767966548854,B,404.1281659992819,Correct,sub_009_day_19_data.csv,1,300,170.0,Training at home,,,,,,,,,,,,,
9,19,4252,A,27.958119521193854,43.417525676313375,1.3979059760596928,0.6820008985087616,A,401.9831660007185,Correct,sub_009_day_19_data.csv,1,300,170.0,Training at home,,,,,,,,,,,,,
9,19,4253,A,33.693636622640994,53.83410514082714,1.68468183113205,0.8456241461150152,A,354.12387500036857,Correct,sub_009_day_19_data.csv,1,300,170.0,Training at home,,,,,,,,,,,,,
9,19,4254,B,78.75420227119147,59.537375856039006,3.937710113559574,0.9352109130167322,B,420.756583000184,Correct,sub_009_day_19_data.csv,1,300,170.0,Training at home,,,,,,,,,,,,,
9,19,4255,B,49.73166662805937,38.54730088213179,2.4865833314029686,0.6054995863351029,B,622.4435419971996,Correct,sub_009_day_19_data.csv,1,300,170.0,Training at home,,,,,,,,,,,,,
9,19,4256,B,73.1103689000478,49.5820186168691,3.65551844500239,0.7788325271845417,B,391.7292500009353,Correct,sub_009_day_19_data.csv,1,300,170.0,Training at home,,,,,,,,,,,,,
9,19,4257,B,72.8060976381492,42.06562990417238,3.64030488190746,0.6607653693778753,B,360.46062499735854,Correct,sub_009_day_19_data.csv,1,300,170.0,Training at home,,,,,,,,,,,,,
9,19,4258,A,32.69309235974241,60.8328397031348,1.6346546179871206,0.9555600115418688,A,357.3438330022327,Correct,sub_009_day_19_data.csv,1,300,170.0,Training at home,,,,,,,,,,,,,
9,19,4259,A,58.85737771285281,72.5183279715835,2.9428688856426404,1.13911523203071,A,384.43987500068033,Correct,sub_009_day_19_data.csv,1,300,170.0,Training at home,,,,,,,,,,,,,
9,19,4260,A,33.384157043312996,63.687985762186266,1.6692078521656497,1.0004085409620789,A,385.34441699812305,Correct,sub_009_day_19_data.csv,1,300,170.0,Training at home,,,,,,,,,,,,,
9,19,4261,A,39.1121368759129,46.580514982165745,1.9556068437956453,0.7316850183420058,A,389.68641699830187,Correct,sub_009_day_19_data.csv,1,300,170.0,Training at home,,,,,,,,,,,,,
9,19,4262,B,47.976216292667665,41.14902752179928,2.398810814633383,0.6463674128242441,A,331.1437089978426,Incorrect,sub_009_day_19_data.csv,0,300,170.0,Training at home,,,,,,,,,,,,,
9,19,4263,A,28.71109667931028,46.73071458825633,1.4355548339655142,0.7340443482373373,A,374.24504199952935,Correct,sub_009_day_19_data.csv,1,300,170.0,Training at home,,,,,,,,,,,,,
9,19,4264,A,47.23803678668402,67.55042292201583,2.361901839334201,1.0610795619934426,A,390.1568750006845,Correct,sub_009_day_19_data.csv,1,300,170.0,Training at home,,,,,,,,,,,,,
9,19,4265,A,53.385554379523555,72.39390202957604,2.669277718976178,1.1371607539040764,A,361.75174999880255,Correct,sub_009_day_19_data.csv,1,300,170.0,Training at home,,,,,,,,,,,,,
9,19,4266,B,37.271253031773966,18.010568852815652,1.8635626515886985,0.282909353974894,B,399.7067920026893,Correct,sub_009_day_19_data.csv,1,300,170.0,Training at home,,,,,,,,,,,,,
9,19,4267,B,68.6220727380331,55.937209764425305,3.431103636901655,0.878659636291149,B,519.7015830017335,Correct,sub_009_day_19_data.csv,1,300,170.0,Training at home,,,,,,,,,,,,,
9,19,4268,A,25.934104936051476,53.80354649642063,1.296705246802574,0.8451441320511595,A,353.561042000365,Correct,sub_009_day_19_data.csv,1,300,170.0,Training at home,,,,,,,,,,,,,
9,19,4269,B,46.199320474004665,35.68779344245659,2.309966023700233,0.5605825485082581,B,441.04020799932186,Correct,sub_009_day_19_data.csv,1,300,170.0,Training at home,,,,,,,,,,,,,
9,19,4270,A,24.569384760743446,35.40261617760511,1.2284692380371722,0.5561029945071169,A,387.6903749987832,Correct,sub_009_day_19_data.csv,1,300,170.0,Training at home,,,,,,,,,,,,,
9,19,4271,A,21.92402525184,49.10677532639612,1.096201262592,0.7713674230344528,A,343.221374998393,Correct,sub_009_day_19_data.csv,1,300,170.0,Training at home,,,,,,,,,,,,,
9,19,4272,B,59.62398968000352,44.4308452112989,2.981199484000176,0.6979180845430093,B,352.30708400195,Correct,sub_009_day_19_data.csv,1,300,170.0,Training at home,,,,,,,,,,,,,
9,19,4273,B,63.56702052180322,55.98536004834901,3.1783510260901613,0.8794159791823637,B,426.0007079974457,Correct,sub_009_day_19_data.csv,1,300,170.0,Training at home,,,,,,,,,,,,,
9,19,4274,A,69.63813614567374,87.80730557457588,3.481906807283687,1.3792739306230084,A,398.3167080004933,Correct,sub_009_day_19_data.csv,1,300,170.0,Training at home,,,,,,,,,,,,,
9,19,4275,B,44.201645846411765,35.120958217667614,2.210082292320588,0.5516787216182932,B,390.3404170014255,Correct,sub_009_day_19_data.csv,1,300,171.0,Training at home,,,,,,,,,,,,,
9,19,4276,A,42.255307060104464,54.35795931200933,2.1127653530052233,0.853852828193707,A,472.1421670001291,Correct,sub_009_day_19_data.csv,1,300,171.0,Training at home,,,,,,,,,,,,,
9,19,4277,A,23.26280577878818,38.33831711874415,1.163140288939409,0.6022168770562121,A,374.5203340004082,Correct,sub_009_day_19_data.csv,1,300,171.0,Training at home,,,,,,,,,,,,,
9,19,4278,A,27.13688685672492,49.41035396183639,1.356844342836246,0.7761360250888828,A,475.1407079966157,Correct,sub_009_day_19_data.csv,1,300,171.0,Training at home,,,,,,,,,,,,,
9,19,4279,A,21.99024018953306,42.46586496447659,1.099512009476653,0.6670522470036792,A,354.24854200027767,Correct,sub_009_day_19_data.csv,1,300,171.0,Training at home,,,,,,,,,,,,,
9,19,4280,A,58.837771076163406,76.13141724836015,2.94188855380817,1.1958695056741375,A,369.6420000014768,Correct,sub_009_day_19_data.csv,1,300,171.0,Training at home,,,,,,,,,,,,,
9,19,4281,B,74.98425856132094,60.70764999135446,3.749212928066047,0.9535935361476982,B,398.7585830000171,Correct,sub_009_day_19_data.csv,1,300,171.0,Training at home,,,,,,,,,,,,,
9,19,4282,B,54.194521645432815,42.01843782876679,2.709726082271641,0.660024077990866,B,460.4845000030764,Correct,sub_009_day_19_data.csv,1,300,171.0,Training at home,,,,,,,,,,,,,
9,19,4283,A,31.91492692614628,62.70619777756086,1.595746346307314,0.984986651362669,A,599.48945799988,Correct,sub_009_day_19_data.csv,1,300,171.0,Training at home,,,,,,,,,,,,,
9,19,4284,B,59.96202580092525,45.41481742912636,2.9981012900462622,0.7133742839973253,B,397.94437500313506,Correct,sub_009_day_19_data.csv,1,300,171.0,Training at home,,,,,,,,,,,,,
9,19,4285,A,44.44068918374303,55.01230167459913,2.2220344591871513,0.8641312139899304,A,531.3570409998647,Correct,sub_009_day_19_data.csv,1,300,171.0,Training at home,,,,,,,,,,,,,
9,19,4286,A,26.658013585991867,57.0617055726658,1.3329006792995932,0.8963231751419531,A,391.0949580022134,Correct,sub_009_day_19_data.csv,1,300,171.0,Training at home,,,,,,,,,,,,,
9,19,4287,B,58.57799289761722,42.061744114120835,2.928899644880861,0.6607043315304787,B,360.8211249993474,Correct,sub_009_day_19_data.csv,1,300,171.0,Training at home,,,,,,,,,,,,,
9,19,4288,A,44.78238379586417,74.57088423034104,2.239119189793209,1.1713567103486715,A,357.481375001953,Correct,sub_009_day_19_data.csv,1,300,171.0,Training at home,,,,,,,,,,,,,
9,19,4289,A,17.596978938914013,35.6749172507873,0.8798489469457007,0.5603802897624858,A,589.1058329980297,Correct,sub_009_day_19_data.csv,1,300,171.0,Training at home,,,,,,,,,,,,,
9,19,4290,A,25.518123584907272,39.2693716366158,1.2759061792453636,0.616841847223398,A,355.0132919990574,Correct,sub_009_day_19_data.csv,1,300,171.0,Training at home,,,,,,,,,,,,,
9,19,4291,A,15.154441616709487,35.92326130300816,0.7577220808354744,0.5642812690125846,A,365.3948749997653,Correct,sub_009_day_19_data.csv,1,300,171.0,Training at home,,,,,,,,,,,,,
9,19,4292,A,48.31641970109771,78.74566499694616,2.4158209850548853,1.2369340132822446,A,399.1561669972725,Correct,sub_009_day_19_data.csv,1,300,171.0,Training at home,,,,,,,,,,,,,
9,19,4293,B,86.03758600665904,69.20170872688973,4.301879300332952,1.0870178987612875,B,623.256416998629,Correct,sub_009_day_19_data.csv,1,300,171.0,Training at home,,,,,,,,,,,,,
9,19,4294,B,73.0017676666697,54.94932868624937,3.650088383333485,0.8631420366020595,B,426.307417001226,Correct,sub_009_day_19_data.csv,1,300,171.0,Training at home,,,,,,,,,,,,,
9,19,4295,A,40.19899908782135,50.255067910257225,2.0099499543910673,0.7894047607626014,A,724.0324999984296,Correct,sub_009_day_19_data.csv,1,300,171.0,Training at home,,,,,,,,,,,,,
9,19,4296,A,60.4095532891142,77.95935399508926,3.02047766445571,1.2245826689478925,A,387.1277080033906,Correct,sub_009_day_19_data.csv,1,300,171.0,Training at home,,,,,,,,,,,,,
9,19,4297,B,87.13222704596467,62.71704717639426,4.356611352298233,0.9851570733210232,B,647.9385839993483,Correct,sub_009_day_19_data.csv,1,300,171.0,Training at home,,,,,,,,,,,,,
9,19,4298,A,21.941780785755235,48.381709820180376,1.097089039287762,0.759978120695959,A,427.5410000009288,Correct,sub_009_day_19_data.csv,1,300,171.0,Training at home,,,,,,,,,,,,,
9,19,4299,A,22.461505793091717,47.19015230310467,1.123075289654586,0.7412611789860853,A,359.87416700299946,Correct,sub_009_day_19_data.csv,1,300,171.0,Training at home,,,,,,,,,,,,,
9,19,4300,A,15.7374668656972,32.071076147657166,0.78687334328486,0.503771286090993,A,337.7554170001531,Correct,sub_009_day_19_data.csv,1,300,172.0,Training at home,,,,,,,,,,,,,
9,19,4301,B,40.53100881391747,25.74410503682192,2.0265504406958734,0.4043874562846186,B,437.168999997084,Correct,sub_009_day_19_data.csv,1,300,172.0,Training at home,,,,,,,,,,,,,
9,19,4302,B,65.74915089626316,40.59162018133278,3.2874575448131576,0.6376116787949112,B,404.3647920007061,Correct,sub_009_day_19_data.csv,1,300,172.0,Training at home,,,,,,,,,,,,,
9,19,4303,B,58.066545284457085,32.05830709011522,2.9033272642228543,0.5035707102041578,B,397.4340829990979,Correct,sub_009_day_19_data.csv,1,300,172.0,Training at home,,,,,,,,,,,,,
9,19,4304,B,61.02643568405094,30.84049721696595,3.051321784202547,0.4844413974493834,B,365.17629199806834,Correct,sub_009_day_19_data.csv,1,300,172.0,Training at home,,,,,,,,,,,,,
9,19,4305,B,34.41363432244893,20.941663547512228,1.7206817161224464,0.3289508817740679,B,354.13262500151177,Correct,sub_009_day_19_data.csv,1,300,172.0,Training at home,,,,,,,,,,,,,
9,19,4306,A,15.729325641634627,36.7994337682392,0.7864662820817314,0.578044153912822,A,425.0005000030797,Correct,sub_009_day_19_data.csv,1,300,172.0,Training at home,,,,,,,,,,,,,
9,19,4307,A,44.70472335701698,54.155676111653406,2.2352361678508488,0.8506753711127931,A,582.2683330006839,Correct,sub_009_day_19_data.csv,1,300,172.0,Training at home,,,,,,,,,,,,,
9,19,4308,A,26.44165372315076,39.77908158869086,1.322082686157538,0.6248483524279009,A,490.9661669989873,Correct,sub_009_day_19_data.csv,1,300,172.0,Training at home,,,,,,,,,,,,,
9,19,4309,B,36.855433809419694,14.346980395994056,1.8427716904709848,0.2253618410662585,B,418.8554169995769,Correct,sub_009_day_19_data.csv,1,300,172.0,Training at home,,,,,,,,,,,,,
9,19,4310,A,39.9843864022034,62.41146604036822,1.99921932011017,0.9803570160609482,A,373.8787919974129,Correct,sub_009_day_19_data.csv,1,300,172.0,Training at home,,,,,,,,,,,,,
9,19,4311,A,26.68474269607551,50.94537900432175,1.3342371348037756,0.8002481420716246,A,380.1810830009345,Correct,sub_009_day_19_data.csv,1,300,172.0,Training at home,,,,,,,,,,,,,
9,19,4312,B,64.69853733599125,32.96846000676403,3.2349268667995625,0.5178673587870939,B,323.3724579986301,Correct,sub_009_day_19_data.csv,1,300,172.0,Training at home,,,,,,,,,,,,,
9,19,4313,A,59.59066962067122,72.72782948818835,2.9795334810335614,1.1424060741581183,A,400.4150420005317,Correct,sub_009_day_19_data.csv,1,300,172.0,Training at home,,,,,,,,,,,,,
9,19,4314,B,85.97722620595539,59.91691966623941,4.298861310297769,0.9411727732459376,B,358.7083749989688,Correct,sub_009_day_19_data.csv,1,300,172.0,Training at home,,,,,,,,,,,,,
9,19,4315,A,59.31310802188973,83.7290834491746,2.9656554010944864,1.315213367278668,A,402.6673750013288,Correct,sub_009_day_19_data.csv,1,300,172.0,Training at home,,,,,,,,,,,,,
9,19,4316,A,38.11271007316152,62.179330408078336,1.905635503658076,0.9767106380757566,A,379.9142080024467,Correct,sub_009_day_19_data.csv,1,300,172.0,Training at home,,,,,,,,,,,,,
9,19,4317,B,41.82644168478815,24.724209468827095,2.091322084239408,0.3883669741654121,B,371.54691699834075,Correct,sub_009_day_19_data.csv,1,300,172.0,Training at home,,,,,,,,,,,,,
9,19,4318,B,65.82070421546281,56.16337283002015,3.29103521077314,0.8822121974180794,B,378.063291998842,Correct,sub_009_day_19_data.csv,1,300,172.0,Training at home,,,,,,,,,,,,,
9,19,4319,A,37.507265036887425,46.09765174549864,1.8753632518443712,0.7241002203569961,A,417.5660410001001,Correct,sub_009_day_19_data.csv,1,300,172.0,Training at home,,,,,,,,,,,,,
9,19,4320,B,79.41051173952856,51.188582359092706,3.970525586976428,0.8040683714350085,B,338.89254099995014,Correct,sub_009_day_19_data.csv,1,300,172.0,Training at home,,,,,,,,,,,,,
9,19,4321,B,79.70427439040043,66.93592556804904,3.985213719520021,1.0514270601290805,B,379.7678340015409,Correct,sub_009_day_19_data.csv,1,300,172.0,Training at home,,,,,,,,,,,,,
9,19,4322,B,51.510085871429865,39.46115346031276,2.575504293571493,0.61985434906549,B,410.23566700096126,Correct,sub_009_day_19_data.csv,1,300,172.0,Training at home,,,,,,,,,,,,,
9,19,4323,A,50.70234796444345,60.48377238484988,2.535117398222172,0.9500768749282078,A,351.7099999990023,Correct,sub_009_day_19_data.csv,1,300,172.0,Training at home,,,,,,,,,,,,,
9,19,4324,B,52.923654038642525,32.61304206389462,2.6461827019321267,0.5122844667957311,B,332.21691599828773,Correct,sub_009_day_19_data.csv,1,300,172.0,Training at home,,,,,,,,,,,,,
9,19,4325,A,52.31764085604099,73.07027956080394,2.6158820428020495,1.1477852673198703,A,335.69737499783514,Correct,sub_009_day_19_data.csv,1,300,173.0,Training at home,,,,,,,,,,,,,
9,19,4326,B,41.50477376244132,16.201048270360666,2.0752386881220657,0.2544854711330934,B,363.5859169989999,Correct,sub_009_day_19_data.csv,1,300,173.0,Training at home,,,,,,,,,,,,,
9,19,4327,A,50.884083626012725,77.09608157472255,2.5442041813006364,1.211022417478539,A,328.6972079986299,Correct,sub_009_day_19_data.csv,1,300,173.0,Training at home,,,,,,,,,,,,,
9,19,4328,A,37.58061107570372,48.1824250607112,1.879030553785186,0.7568477630143552,A,435.4464169991843,Correct,sub_009_day_19_data.csv,1,300,173.0,Training at home,,,,,,,,,,,,,
9,19,4329,B,85.0101952425025,61.573989197101945,4.250509762125125,0.9672019605691636,B,436.3558330005617,Correct,sub_009_day_19_data.csv,1,300,173.0,Training at home,,,,,,,,,,,,,
9,19,4330,A,50.85990463679573,79.27523014388152,2.542995231839787,1.2452524031582914,A,338.1970420014113,Correct,sub_009_day_19_data.csv,1,300,173.0,Training at home,,,,,,,,,,,,,
9,19,4331,A,43.00927576415236,74.22206044712577,2.150463788207618,1.1658773991749394,A,339.78641599969706,Correct,sub_009_day_19_data.csv,1,300,173.0,Training at home,,,,,,,,,,,,,
9,19,4332,A,36.65695576650801,64.13268206035544,1.8328477883254009,1.0073938140791123,A,298.1580000014219,Correct,sub_009_day_19_data.csv,1,300,173.0,Training at home,,,,,,,,,,,,,
9,19,4333,B,43.16210300819984,17.05118941198756,2.158105150409992,0.2678394569583409,B,362.10441699950024,Correct,sub_009_day_19_data.csv,1,300,173.0,Training at home,,,,,,,,,,,,,
9,19,4334,B,84.42733673554163,61.60384454507114,4.221366836777082,0.9676709272784156,B,357.4265410024964,Correct,sub_009_day_19_data.csv,1,300,173.0,Training at home,,,,,,,,,,,,,
9,19,4335,A,58.10391958924046,79.46954546297468,2.9051959794620235,1.2483047010530066,A,438.8016249977227,Correct,sub_009_day_19_data.csv,1,300,173.0,Training at home,,,,,,,,,,,,,
9,19,4336,B,40.32913572621732,12.496044004400671,2.016456786310866,0.1962874002157996,B,346.456458002649,Correct,sub_009_day_19_data.csv,1,300,173.0,Training at home,,,,,,,,,,,,,
9,19,4337,A,63.21485781088619,76.47235103093351,3.1607428905443093,1.2012248810076027,A,336.9779999993625,Correct,sub_009_day_19_data.csv,1,300,173.0,Training at home,,,,,,,,,,,,,
9,19,4338,B,73.73542867034776,60.437821952048765,3.686771433517387,0.9493550872176216,B,536.1868340005458,Correct,sub_009_day_19_data.csv,1,300,173.0,Training at home,,,,,,,,,,,,,
9,19,4339,B,64.33713909016079,37.81072968932766,3.2168569545080397,0.5939295530943063,B,380.1927499989688,Correct,sub_009_day_19_data.csv,1,300,173.0,Training at home,,,,,,,,,,,,,
9,19,4340,B,71.04964717868853,59.25657564449695,3.5524823589344265,0.9308001136081973,B,488.5651670010702,Correct,sub_009_day_19_data.csv,1,300,173.0,Training at home,,,,,,,,,,,,,
9,19,4341,B,64.91947438145532,44.1998265225836,3.2459737190727656,0.6942892514664596,B,368.29904099795385,Correct,sub_009_day_19_data.csv,1,300,173.0,Training at home,,,,,,,,,,,,,
9,19,4342,B,82.05066256022491,53.13813339655922,4.102533128011245,0.8346918475205244,B,330.4370000005292,Correct,sub_009_day_19_data.csv,1,300,173.0,Training at home,,,,,,,,,,,,,
9,19,4343,A,54.89592416766807,79.07790134909041,2.744796208383403,1.242152769698004,A,434.8869999994349,Correct,sub_009_day_19_data.csv,1,300,173.0,Training at home,,,,,,,,,,,,,
9,19,4344,B,59.932715202324,31.370442569626103,2.9966357601161997,0.4927657595829893,B,390.1365000019723,Correct,sub_009_day_19_data.csv,1,300,173.0,Training at home,,,,,,,,,,,,,
9,19,4345,B,89.21887281852787,67.4945158163429,4.460943640926393,1.0602013752311146,B,403.8306670008751,Correct,sub_009_day_19_data.csv,1,300,173.0,Training at home,,,,,,,,,,,,,
9,19,4346,A,44.72037644990557,58.31654050504486,2.2360188224952786,0.9160340761671026,A,555.3440830008185,Correct,sub_009_day_19_data.csv,1,300,173.0,Training at home,,,,,,,,,,,,,
9,19,4347,B,54.21871910097691,35.56639220687594,2.7109359550488454,0.5586755823590737,B,330.6252910006151,Correct,sub_009_day_19_data.csv,1,300,173.0,Training at home,,,,,,,,,,,,,
9,19,4348,A,13.670774935973707,37.772513798603654,0.6835387467986854,0.5933292592865617,A,399.4867500005057,Correct,sub_009_day_19_data.csv,1,300,173.0,Training at home,,,,,,,,,,,,,
9,19,4349,B,50.51819817079805,40.09786296647612,2.525909908539902,0.6298557586006581,B,404.7148749996268,Correct,sub_009_day_19_data.csv,1,300,173.0,Training at home,,,,,,,,,,,,,
9,19,4350,B,58.6652782976466,42.02751510223556,2.93326391488233,0.6601666634690866,B,515.356084000814,Correct,sub_009_day_19_data.csv,1,300,174.0,Training at home,,,,,,,,,,,,,
9,19,4351,A,56.73060793268375,64.65250779500643,2.836530396634188,1.015559217624745,A,459.3841660025646,Correct,sub_009_day_19_data.csv,1,300,174.0,Training at home,,,,,,,,,,,,,
9,19,4352,A,38.29119507497452,54.08843045951736,1.914559753748726,0.8496190788791106,A,471.7287089988531,Correct,sub_009_day_19_data.csv,1,300,174.0,Training at home,,,,,,,,,,,,,
9,19,4353,A,40.197553689534026,47.72271149051792,2.0098776844767015,0.7496265991399814,A,475.2018340004725,Correct,sub_009_day_19_data.csv,1,300,174.0,Training at home,,,,,,,,,,,,,
9,19,4354,A,18.552144012932068,39.47162931687265,0.9276072006466036,0.6200189034355331,A,507.95179099804955,Correct,sub_009_day_19_data.csv,1,300,174.0,Training at home,,,,,,,,,,,,,
9,19,4355,A,14.38359812981474,41.07433070766085,0.719179906490737,0.6451940780115248,A,496.7190840034163,Correct,sub_009_day_19_data.csv,1,300,174.0,Training at home,,,,,,,,,,,,,
9,19,4356,B,55.24154471305108,35.06433171594403,2.7620772356525536,0.5507892346092267,B,601.8778750003548,Correct,sub_009_day_19_data.csv,1,300,174.0,Training at home,,,,,,,,,,,,,
9,19,4357,B,55.47047333755948,41.37891657171545,2.773523666877974,0.6499785015760311,B,572.3474170008558,Correct,sub_009_day_19_data.csv,1,300,174.0,Training at home,,,,,,,,,,,,,
9,19,4358,B,72.43330531660133,60.96530711442657,3.6216652658300665,0.9576408047726404,B,575.05266699809,Correct,sub_009_day_19_data.csv,1,300,174.0,Training at home,,,,,,,,,,,,,
9,19,4359,A,41.83008745116092,72.015456254806,2.091504372558046,1.1312161415750783,A,645.1572090008995,Correct,sub_009_day_19_data.csv,1,300,174.0,Training at home,,,,,,,,,,,,,
9,19,4360,A,27.82315808531571,38.842136316730375,1.3911579042657851,0.6101308505118673,A,616.2540830009675,Correct,sub_009_day_19_data.csv,1,300,174.0,Training at home,,,,,,,,,,,,,
9,19,4361,B,74.55573357611546,51.69617948933999,3.727786678805773,0.8120416885118493,B,591.2042920026579,Correct,sub_009_day_19_data.csv,1,300,174.0,Training at home,,,,,,,,,,,,,
9,19,4362,B,38.21592346300527,26.31014386360651,1.9107961731502632,0.4132787733839838,B,1242.0356670008914,Correct,sub_009_day_19_data.csv,1,300,174.0,Training at home,,,,,,,,,,,,,
9,19,4363,B,44.12759658661536,30.18444076301151,2.206379829330768,0.4741360867689662,B,627.8726249984175,Correct,sub_009_day_19_data.csv,1,300,174.0,Training at home,,,,,,,,,,,,,
9,19,4364,B,63.651502178744984,39.55316693199681,3.18257510893725,0.6212996932988596,B,666.7337920007412,Correct,sub_009_day_19_data.csv,1,300,174.0,Training at home,,,,,,,,,,,,,
9,19,4365,B,77.53100407251648,65.32135281561725,3.876550203625824,1.0260654106404503,B,648.2987499985029,Correct,sub_009_day_19_data.csv,1,300,174.0,Training at home,,,,,,,,,,,,,
9,19,4366,A,29.96848215974,55.282272281231805,1.498424107987,0.8683719023623423,A,714.9101670001983,Correct,sub_009_day_19_data.csv,1,300,174.0,Training at home,,,,,,,,,,,,,
9,19,4367,B,48.5996543365886,29.65123596626848,2.42998271682943,0.4657605254074325,B,680.2221250000002,Correct,sub_009_day_19_data.csv,1,300,174.0,Training at home,,,,,,,,,,,,,
9,19,4368,A,60.28052132399513,76.86407443162972,3.014026066199756,1.2073780577969349,A,681.9158750004135,Correct,sub_009_day_19_data.csv,1,300,174.0,Training at home,,,,,,,,,,,,,
9,19,4369,B,84.50319707276104,56.74303166790094,4.225159853638052,0.8913174571514529,B,638.4919170013745,Correct,sub_009_day_19_data.csv,1,300,174.0,Training at home,,,,,,,,,,,,,
9,19,4370,B,68.89766292185843,51.93246135989599,3.4448831460929217,0.815753195455425,B,673.8572499998554,Correct,sub_009_day_19_data.csv,1,300,174.0,Training at home,,,,,,,,,,,,,
9,19,4371,A,32.343782242417056,50.12763473655999,1.6171891121208528,0.7874030451510469,A,737.5658340024529,Correct,sub_009_day_19_data.csv,1,300,174.0,Training at home,,,,,,,,,,,,,
9,19,4372,A,20.556671896706643,34.169437089174494,1.027833594835332,0.536732262683246,A,668.3668339974247,Correct,sub_009_day_19_data.csv,1,300,174.0,Training at home,,,,,,,,,,,,,
9,19,4373,B,73.61876119440261,59.71601677231758,3.6809380597201304,0.9380169979677888,B,596.7540000019653,Correct,sub_009_day_19_data.csv,1,300,174.0,Training at home,,,,,,,,,,,,,
9,19,4374,B,58.64764249256787,27.785637958116112,2.932382124628394,0.4364557804226164,B,581.5948330018728,Correct,sub_009_day_19_data.csv,1,300,174.0,Training at home,,,,,,,,,,,,,
9,19,4375,B,56.303940514806406,29.84038845151074,2.81519702574032,0.4687317256976593,B,561.794833996828,Correct,sub_009_day_19_data.csv,1,300,175.0,Training at home,,,,,,,,,,,,,
9,19,4376,B,47.13981289645484,27.23725183387323,2.356990644822742,0.4278417513263562,B,515.1923750017886,Correct,sub_009_day_19_data.csv,1,300,175.0,Training at home,,,,,,,,,,,,,
9,19,4377,B,58.10082268648304,28.759224197393507,2.9050411343241525,0.4517488373073662,B,472.9647500025749,Correct,sub_009_day_19_data.csv,1,300,175.0,Training at home,,,,,,,,,,,,,
9,19,4378,A,63.90106941484132,78.28901861721874,3.195053470742066,1.2297610287230447,A,658.940083001653,Correct,sub_009_day_19_data.csv,1,300,175.0,Training at home,,,,,,,,,,,,,
9,19,4379,A,46.25187764034855,71.1718599554266,2.3125938820174277,1.117964961891449,A,652.376333000575,Correct,sub_009_day_19_data.csv,1,300,175.0,Training at home,,,,,,,,,,,,,
9,19,4380,A,54.68008360015081,67.76548042230498,2.73400418000754,1.0644576773084813,A,395.8971249994647,Correct,sub_009_day_19_data.csv,1,300,175.0,Training at home,,,,,,,,,,,,,
9,19,4381,A,52.320761084665534,71.8358267295761,2.616038054233277,1.1283945275909275,A,665.0635839978349,Correct,sub_009_day_19_data.csv,1,300,175.0,Training at home,,,,,,,,,,,,,
9,19,4382,B,52.66394288522935,26.712248256792627,2.6331971442614677,0.4195950144220324,B,410.885541998141,Correct,sub_009_day_19_data.csv,1,300,175.0,Training at home,,,,,,,,,,,,,
9,19,4383,A,47.327701217007494,66.82956528887588,2.3663850608503747,1.0497563567706596,A,340.408624997508,Correct,sub_009_day_19_data.csv,1,300,175.0,Training at home,,,,,,,,,,,,,
9,19,4384,B,48.077023389126495,27.928140981054035,2.403851169456325,0.4386942126724969,B,380.33187499968335,Correct,sub_009_day_19_data.csv,1,300,175.0,Training at home,,,,,,,,,,,,,
9,19,4385,B,53.947880002984704,29.552698633750516,2.697394000149235,0.4642127046077187,B,588.1794589986384,Correct,sub_009_day_19_data.csv,1,300,175.0,Training at home,,,,,,,,,,,,,
9,19,4386,A,32.52028080617786,43.25635883746558,1.6260140403088927,0.679469295724129,A,677.4154580016329,Correct,sub_009_day_19_data.csv,1,300,175.0,Training at home,,,,,,,,,,,,,
9,19,4387,A,17.234649882690213,40.37024522114346,0.8617324941345106,0.6341343290518137,A,603.1092500015802,Correct,sub_009_day_19_data.csv,1,300,175.0,Training at home,,,,,,,,,,,,,
9,19,4388,B,84.70238066369014,61.26943750926796,4.235119033184507,0.9624180738434756,B,339.17079200182343,Correct,sub_009_day_19_data.csv,1,300,175.0,Training at home,,,,,,,,,,,,,
9,19,4389,A,19.102235533115294,49.048573572350406,0.9551117766557646,0.7704531920197725,A,397.0596250001108,Correct,sub_009_day_19_data.csv,1,300,175.0,Training at home,,,,,,,,,,,,,
9,19,4390,B,54.82055923896224,24.814818596193753,2.741027961948112,0.3897902590098284,B,318.82150000092224,Correct,sub_009_day_19_data.csv,1,300,175.0,Training at home,,,,,,,,,,,,,
9,19,4391,B,64.28949335363728,33.68133394944401,3.214474667681864,0.5290651564933889,B,317.3717499994382,Correct,sub_009_day_19_data.csv,1,300,175.0,Training at home,,,,,,,,,,,,,
9,19,4392,A,16.4844765909859,32.310588668120005,0.8242238295492951,0.5075335399646371,A,384.6784999986994,Correct,sub_009_day_19_data.csv,1,300,175.0,Training at home,,,,,,,,,,,,,
9,19,4393,A,50.51525370795465,61.725513280511365,2.5257626853977326,0.9695820953055686,A,684.4732909994491,Correct,sub_009_day_19_data.csv,1,300,175.0,Training at home,,,,,,,,,,,,,
9,19,4394,B,70.41465672457407,53.0595559786701,3.5207328362287034,0.8334575563266319,B,294.27154100267217,Correct,sub_009_day_19_data.csv,1,300,175.0,Training at home,,,,,,,,,,,,,
9,19,4395,A,55.99512507981215,68.16286199765563,2.799756253990607,1.070699732497449,A,556.7742500024906,Correct,sub_009_day_19_data.csv,1,300,175.0,Training at home,,,,,,,,,,,,,
9,19,4396,A,21.0119124997973,50.35328505808699,1.0505956249898651,0.790947552112994,A,625.450916999398,Correct,sub_009_day_19_data.csv,1,300,175.0,Training at home,,,,,,,,,,,,,
9,19,4397,B,64.76520721314385,56.44817871438265,3.238260360657193,0.8866859177881413,A,743.6294590006582,Incorrect,sub_009_day_19_data.csv,0,300,175.0,Training at home,,,,,,,,,,,,,
9,19,4398,B,67.77351321744196,40.686315775023914,3.388675660872098,0.6390991537022481,B,450.7835000003979,Correct,sub_009_day_19_data.csv,1,300,175.0,Training at home,,,,,,,,,,,,,
9,19,4399,B,52.53910072790197,26.283668766946153,2.626955036395098,0.4128629035381277,B,944.0608749973762,Correct,sub_009_day_19_data.csv,1,300,175.0,Training at home,,,,,,,,,,,,,
9,19,4400,A,37.333430715576995,48.69778741696846,1.8666715357788497,0.7649430559761279,A,380.13054100156296,Correct,sub_009_day_19_data.csv,1,300,176.0,Training at home,,,,,,,,,,,,,
9,19,4401,A,37.587594976134696,52.01604292441589,1.879379748806735,0.8170660916007814,A,454.3707500015444,Correct,sub_009_day_19_data.csv,1,300,176.0,Training at home,,,,,,,,,,,,,
9,19,4402,B,65.60596470945787,35.59652847920624,3.280298235472893,0.5591489618178709,B,344.5298750011716,Correct,sub_009_day_19_data.csv,1,300,176.0,Training at home,,,,,,,,,,,,,
9,19,4403,A,53.46964430916384,60.81971775582534,2.673482215458192,0.955353892475528,A,411.59350000089034,Correct,sub_009_day_19_data.csv,1,300,176.0,Training at home,,,,,,,,,,,,,
9,19,4404,B,59.24122408688855,44.381030398353545,2.962061204344428,0.697135595291064,B,430.2933330000087,Correct,sub_009_day_19_data.csv,1,300,176.0,Training at home,,,,,,,,,,,,,
9,19,4405,B,66.31991982720538,55.77403556295169,3.315995991360269,0.8760965019281245,B,458.3607499989739,Correct,sub_009_day_19_data.csv,1,300,176.0,Training at home,,,,,,,,,,,,,
9,19,4406,B,84.0812259304022,68.19265356891788,4.20406129652011,1.071167697404531,B,362.1296659985091,Correct,sub_009_day_19_data.csv,1,300,176.0,Training at home,,,,,,,,,,,,,
9,19,4407,A,12.929946839467696,31.909811883610256,0.6464973419733849,0.5012381529549113,A,366.5110410001944,Correct,sub_009_day_19_data.csv,1,300,176.0,Training at home,,,,,,,,,,,,,
9,19,4408,A,56.38229679715504,81.98893617786081,2.819114839857752,1.2878791978600497,A,351.7279169973335,Correct,sub_009_day_19_data.csv,1,300,176.0,Training at home,,,,,,,,,,,,,
9,19,4409,B,33.70321653829204,17.472957803182467,1.685160826914602,0.2744645793548124,B,306.2689580001461,Correct,sub_009_day_19_data.csv,1,300,176.0,Training at home,,,,,,,,,,,,,
9,19,4410,B,38.23557657264507,17.610201711681817,1.9117788286322537,0.27662040162827,B,381.5447079978185,Correct,sub_009_day_19_data.csv,1,300,176.0,Training at home,,,,,,,,,,,,,
9,19,4411,B,61.01105441674669,34.04816575771105,3.0505527208373344,0.5348273370631629,B,327.4382080016949,Correct,sub_009_day_19_data.csv,1,300,176.0,Training at home,,,,,,,,,,,,,
9,19,4412,A,68.3989266193394,85.82977286733072,3.41994633096697,1.3482109194964338,B,396.9641249968845,Incorrect,sub_009_day_19_data.csv,0,300,176.0,Training at home,,,,,,,,,,,,,
9,19,4413,A,62.17268981877598,83.99437093635447,3.1086344909387993,1.319380493382736,A,425.5410000005213,Correct,sub_009_day_19_data.csv,1,300,176.0,Training at home,,,,,,,,,,,,,
9,19,4414,A,61.17959777761017,79.78963172834811,3.0589798888805086,1.2533326043520676,A,388.843957996869,Correct,sub_009_day_19_data.csv,1,300,176.0,Training at home,,,,,,,,,,,,,
9,19,4415,A,46.3346422074918,76.74029780167136,2.31673211037459,1.2054337790401182,A,392.738417001965,Correct,sub_009_day_19_data.csv,1,300,176.0,Training at home,,,,,,,,,,,,,
9,19,4416,B,81.80388038137444,53.71094498394571,4.090194019068722,0.8436895508946469,B,409.3297079998592,Correct,sub_009_day_19_data.csv,1,300,176.0,Training at home,,,,,,,,,,,,,
9,19,4417,B,44.01144596211693,31.64010023961316,2.2005722981058464,0.4970015323580668,B,469.85429199776263,Correct,sub_009_day_19_data.csv,1,300,176.0,Training at home,,,,,,,,,,,,,
9,19,4418,B,56.14356130211239,26.09506921201773,2.8071780651056195,0.4099003886569604,B,421.99391599933733,Correct,sub_009_day_19_data.csv,1,300,176.0,Training at home,,,,,,,,,,,,,
9,19,4419,B,30.268112779786605,13.740824478894089,1.5134056389893302,0.2158403661858023,B,448.015124999074,Correct,sub_009_day_19_data.csv,1,300,176.0,Training at home,,,,,,,,,,,,,
9,19,4420,B,68.11644186974178,42.344078244747614,3.405822093487089,0.6651392256836524,B,436.3172500015935,Correct,sub_009_day_19_data.csv,1,300,176.0,Training at home,,,,,,,,,,,,,
9,19,4421,B,59.41324130395904,48.5739508788492,2.970662065197952,0.7629978361841208,B,628.1749999980093,Correct,sub_009_day_19_data.csv,1,300,176.0,Training at home,,,,,,,,,,,,,
9,19,4422,B,67.34616182970616,46.637787252033306,3.3673080914853077,0.7325846490533577,B,382.1340419999615,Correct,sub_009_day_19_data.csv,1,300,176.0,Training at home,,,,,,,,,,,,,
9,19,4423,A,38.5933259374547,71.58055219071399,1.929666296872735,1.124384684511239,A,403.8740420000977,Correct,sub_009_day_19_data.csv,1,300,176.0,Training at home,,,,,,,,,,,,,
9,19,4424,A,65.9786043030251,86.71257914735112,3.298930215151255,1.362078008115709,A,379.79099999938626,Correct,sub_009_day_19_data.csv,1,300,176.0,Training at home,,,,,,,,,,,,,
9,19,4425,A,41.17295176093428,51.93525953327479,2.058647588046714,0.8157971490600767,A,474.6464579984604,Correct,sub_009_day_19_data.csv,1,300,177.0,Training at home,,,,,,,,,,,,,
9,19,4426,A,44.67939071802765,61.518601245627934,2.2339695359013825,0.9663319286619232,A,308.67987500096206,Correct,sub_009_day_19_data.csv,1,300,177.0,Training at home,,,,,,,,,,,,,
9,19,4427,B,56.66987220300784,29.916454293875713,2.8334936101503923,0.4699265651554738,B,694.3070000015723,Correct,sub_009_day_19_data.csv,1,300,177.0,Training at home,,,,,,,,,,,,,
9,19,4428,A,53.55723102186416,72.45498449548539,2.677861551093208,1.1381202350348962,A,370.42945899884216,Correct,sub_009_day_19_data.csv,1,300,177.0,Training at home,,,,,,,,,,,,,
9,19,4429,B,36.707678772552505,14.640648211689442,1.8353839386276252,0.2299747643281804,B,391.4266249994398,Correct,sub_009_day_19_data.csv,1,300,177.0,Training at home,,,,,,,,,,,,,
9,19,4430,A,16.671010105405276,36.97571810104854,0.8335505052702638,0.5808132217373062,A,565.1389159975224,Correct,sub_009_day_19_data.csv,1,300,177.0,Training at home,,,,,,,,,,,,,
9,19,4431,A,39.642107543497424,53.066380470988776,1.9821053771748711,0.8335647552012961,A,588.9979999992647,Correct,sub_009_day_19_data.csv,1,300,177.0,Training at home,,,,,,,,,,,,,
9,19,4432,B,76.30307056597553,56.471095645609765,3.8151535282987767,0.8870458961020709,B,339.12462499938556,Correct,sub_009_day_19_data.csv,1,300,177.0,Training at home,,,,,,,,,,,,,
9,19,4433,A,50.60678691303302,62.70144872477852,2.530339345651651,0.9849120534160066,A,874.8010420022183,Correct,sub_009_day_19_data.csv,1,300,177.0,Training at home,,,,,,,,,,,,,
9,19,4434,B,46.27410650298009,26.55548584893771,2.3137053251490043,0.4171325962776521,B,399.08720799940056,Correct,sub_009_day_19_data.csv,1,300,177.0,Training at home,,,,,,,,,,,,,
9,19,4435,B,72.2699087891445,61.54049819172706,3.6134954394572247,0.9666758850869284,B,608.1324170008884,Correct,sub_009_day_19_data.csv,1,300,177.0,Training at home,,,,,,,,,,,,,
9,19,4436,A,36.08758667547666,47.58408078274079,1.8043793337738327,0.7474489930744086,A,586.8042919973959,Correct,sub_009_day_19_data.csv,1,300,177.0,Training at home,,,,,,,,,,,,,
9,19,4437,A,31.932076026561305,53.21295554773066,1.5966038013280652,0.8358671511227543,A,637.5232919999689,Correct,sub_009_day_19_data.csv,1,300,177.0,Training at home,,,,,,,,,,,,,
9,19,4438,B,59.2105360281945,50.05553201619618,2.960526801409725,0.7862704582680531,B,468.99704200041015,Correct,sub_009_day_19_data.csv,1,300,177.0,Training at home,,,,,,,,,,,,,
9,19,4439,A,31.66386228477787,56.2053660633989,1.5831931142388935,0.8828718255854952,A,695.1738329989894,Correct,sub_009_day_19_data.csv,1,300,177.0,Training at home,,,,,,,,,,,,,
9,19,4440,B,59.07622051683512,30.486097446536732,2.9538110258417563,0.4788744988733117,B,615.4783749989292,Correct,sub_009_day_19_data.csv,1,300,177.0,Training at home,,,,,,,,,,,,,
9,19,4441,B,76.15191727873548,62.86966094484072,3.807595863936774,0.9875543247899636,B,583.6845410012756,Correct,sub_009_day_19_data.csv,1,300,177.0,Training at home,,,,,,,,,,,,,
9,19,4442,B,41.10127483415377,29.078384353138297,2.0550637417076887,0.4567621933103983,B,572.595249999722,Correct,sub_009_day_19_data.csv,1,300,177.0,Training at home,,,,,,,,,,,,,
9,19,4443,B,39.5451545585225,15.112322392534526,1.9772577279261248,0.237383805035335,B,616.7001249996247,Correct,sub_009_day_19_data.csv,1,300,177.0,Training at home,,,,,,,,,,,,,
9,19,4444,B,87.0074903635709,69.44885161499447,4.350374518178545,1.0909000101695714,B,626.6759999998612,Correct,sub_009_day_19_data.csv,1,300,177.0,Training at home,,,,,,,,,,,,,
9,19,4445,A,35.21264895943605,63.64746829790262,1.7606324479718023,0.9997720941214008,A,659.5914170029573,Correct,sub_009_day_19_data.csv,1,300,177.0,Training at home,,,,,,,,,,,,,
9,19,4446,B,50.752184615607426,33.44601858776862,2.5376092307803715,0.5253688314358078,B,631.6720409995469,Correct,sub_009_day_19_data.csv,1,300,177.0,Training at home,,,,,,,,,,,,,
9,19,4447,A,58.24166136719775,80.16892058267551,2.9120830683598875,1.2592904597437848,A,705.0282499985769,Correct,sub_009_day_19_data.csv,1,300,177.0,Training at home,,,,,,,,,,,,,
9,19,4448,B,36.348265092803665,24.881201482070008,1.817413254640183,0.390832998942793,B,609.0153330005705,Correct,sub_009_day_19_data.csv,1,300,177.0,Training at home,,,,,,,,,,,,,
9,19,4449,A,40.719725027465635,71.30091739261297,2.035986251373282,1.119992191374228,A,657.8482080003596,Correct,sub_009_day_19_data.csv,1,300,177.0,Training at home,,,,,,,,,,,,,
9,19,4450,A,23.2197619794705,40.93973925892453,1.160988098973525,0.6430799204785947,A,640.8969589974731,Correct,sub_009_day_19_data.csv,1,300,178.0,Training at home,,,,,,,,,,,,,
9,19,4451,B,69.44804929672951,36.82764723977405,3.4724024648364753,0.5784873300873529,B,530.087540999375,Correct,sub_009_day_19_data.csv,1,300,178.0,Training at home,,,,,,,,,,,,,
9,19,4452,A,15.427231514490847,34.783329267331155,0.7713615757245423,0.546375258468212,A,612.8722909998032,Correct,sub_009_day_19_data.csv,1,300,178.0,Training at home,,,,,,,,,,,,,
9,19,4453,B,65.8599909777982,45.90650446911302,3.29299954888991,0.7210976859607622,B,610.3719579987228,Correct,sub_009_day_19_data.csv,1,300,178.0,Training at home,,,,,,,,,,,,,
9,19,4454,A,56.47798275609777,76.13166172068274,2.8238991378048883,1.1958733458364008,A,1265.6726669993077,Correct,sub_009_day_19_data.csv,1,300,178.0,Training at home,,,,,,,,,,,,,
9,19,4455,B,62.67251513129219,46.64814951474038,3.1336257565646095,0.7327474190953333,B,579.0601669978059,Correct,sub_009_day_19_data.csv,1,300,178.0,Training at home,,,,,,,,,,,,,
9,19,4456,B,77.24323312436303,60.573552625023034,3.8621616562181513,0.9514871396430356,B,588.2463749985618,Correct,sub_009_day_19_data.csv,1,300,178.0,Training at home,,,,,,,,,,,,,
9,19,4457,A,45.56344722160641,70.26084085657685,2.2781723610803204,1.1036547073503171,A,586.8782500001544,Correct,sub_009_day_19_data.csv,1,300,178.0,Training at home,,,,,,,,,,,,,
9,19,4458,A,41.63858121329304,59.42342660591363,2.0819290606646517,0.9334210023813526,A,669.6537919997354,Correct,sub_009_day_19_data.csv,1,300,178.0,Training at home,,,,,,,,,,,,,
9,19,4459,B,54.754085892864055,29.405379847745884,2.737704294643202,0.4618986265284792,B,587.7559590007877,Correct,sub_009_day_19_data.csv,1,300,178.0,Training at home,,,,,,,,,,,,,
9,19,4460,A,23.29521407484212,42.95408732163269,1.164760703742106,0.6747212258564785,A,615.16383399794,Correct,sub_009_day_19_data.csv,1,300,178.0,Training at home,,,,,,,,,,,,,
9,19,4461,A,31.88871790957356,41.77237237040481,1.594435895478678,0.656158890809405,A,591.9061669992516,Correct,sub_009_day_19_data.csv,1,300,178.0,Training at home,,,,,,,,,,,,,
9,19,4462,A,44.51645481205632,63.835239918747455,2.2258227406028164,1.0027216038443945,A,590.9808329997759,Correct,sub_009_day_19_data.csv,1,300,178.0,Training at home,,,,,,,,,,,,,
9,19,4463,B,58.928560757658936,45.061467288216186,2.9464280378829466,0.7078238729631837,B,620.2935000001162,Correct,sub_009_day_19_data.csv,1,300,178.0,Training at home,,,,,,,,,,,,,
9,19,4464,A,27.942748215379076,42.383422786636224,1.3971374107689538,0.665757248302433,A,681.5096249993076,Correct,sub_009_day_19_data.csv,1,300,178.0,Training at home,,,,,,,,,,,,,
9,19,4465,A,32.73881413415327,50.77342590107631,1.6369407067076636,0.7975471090420353,A,690.6959579973773,Correct,sub_009_day_19_data.csv,1,300,178.0,Training at home,,,,,,,,,,,,,
9,19,4466,A,52.55554837820986,70.32980535303618,2.6277774189104934,1.1047379991274928,A,720.1889999996638,Correct,sub_009_day_19_data.csv,1,300,178.0,Training at home,,,,,,,,,,,,,
9,19,4467,B,68.30840956143325,54.95980712537538,3.4154204780716624,0.8633066315389564,B,732.5352500010922,Correct,sub_009_day_19_data.csv,1,300,178.0,Training at home,,,,,,,,,,,,,
9,19,4468,A,58.56346689401519,82.64563981700667,2.928173344700759,1.2981946745016812,A,641.2045420001959,Correct,sub_009_day_19_data.csv,1,300,178.0,Training at home,,,,,,,,,,,,,
9,19,4469,B,47.7844180388905,19.79160646978849,2.3892209019445247,0.3108858274411386,B,614.0262500011886,Correct,sub_009_day_19_data.csv,1,300,178.0,Training at home,,,,,,,,,,,,,
9,19,4470,B,74.65095422651426,49.63438874025037,3.7325477113257137,0.7796551551589526,B,596.1769999994431,Correct,sub_009_day_19_data.csv,1,300,178.0,Training at home,,,,,,,,,,,,,
9,19,4471,B,32.928803346178555,21.14239153122972,1.6464401673089275,0.3321039095691517,B,817.1724589992664,Correct,sub_009_day_19_data.csv,1,300,178.0,Training at home,,,,,,,,,,,,,
9,19,4472,A,56.61989595451419,73.87558500852491,2.8309947977257095,1.1604349757121506,A,583.291167000425,Correct,sub_009_day_19_data.csv,1,300,178.0,Training at home,,,,,,,,,,,,,
9,19,4473,A,52.71598722374467,60.603794268759295,2.6357993611872335,0.9519621742720072,A,678.108042000531,Correct,sub_009_day_19_data.csv,1,300,178.0,Training at home,,,,,,,,,,,,,
9,19,4474,A,34.188482706135886,62.124668763662534,1.7094241353067945,0.9758520149731076,A,598.5487909965741,Correct,sub_009_day_19_data.csv,1,300,178.0,Training at home,,,,,,,,,,,,,
9,19,4475,A,31.921700495983032,64.83974083425241,1.5960850247991516,1.0185002673277674,A,537.4079169996548,Correct,sub_009_day_19_data.csv,1,300,179.0,Training at home,,,,,,,,,,,,,
9,19,4476,B,73.79306399079692,42.171786097513085,3.689653199539846,0.6624328669635364,B,976.0308340009942,Correct,sub_009_day_19_data.csv,1,300,179.0,Training at home,,,,,,,,,,,,,
9,19,4477,A,41.34855988245755,50.870816502613934,2.0674279941228777,0.7990769170336317,A,1243.1158750005125,Correct,sub_009_day_19_data.csv,1,300,179.0,Training at home,,,,,,,,,,,,,
9,19,4478,A,28.45228688909609,55.881831630999976,1.4226143444548045,0.8777897586054563,A,655.8025419981277,Correct,sub_009_day_19_data.csv,1,300,179.0,Training at home,,,,,,,,,,,,,
9,19,4479,A,58.83129547974186,71.81013401375643,2.9415647739870927,1.1279909473545786,A,720.0912919979601,Correct,sub_009_day_19_data.csv,1,300,179.0,Training at home,,,,,,,,,,,,,
9,19,4480,A,65.13248115287132,81.02701779492051,3.256624057643566,1.2727694192340584,A,809.4871659995988,Correct,sub_009_day_19_data.csv,1,300,179.0,Training at home,,,,,,,,,,,,,
9,19,4481,B,84.25527898177089,62.073820221644496,4.212763949088544,0.9750532879428596,B,554.059749996668,Correct,sub_009_day_19_data.csv,1,300,179.0,Training at home,,,,,,,,,,,,,
9,19,4482,A,27.195347599224867,50.0886127288874,1.3597673799612435,0.7867900888878843,A,790.6152079995081,Correct,sub_009_day_19_data.csv,1,300,179.0,Training at home,,,,,,,,,,,,,
9,19,4483,B,74.05812955271256,61.25895056765087,3.702906477635628,0.9622533453497616,B,774.2154159968777,Correct,sub_009_day_19_data.csv,1,300,179.0,Training at home,,,,,,,,,,,,,
9,19,4484,B,50.095145205557664,43.17103399935748,2.504757260277883,0.6781290163012832,B,673.5451669992472,Correct,sub_009_day_19_data.csv,1,300,179.0,Training at home,,,,,,,,,,,,,
9,19,4485,B,55.849589286746905,32.2651629731362,2.792479464337345,0.5068199948164105,B,776.2161249993369,Correct,sub_009_day_19_data.csv,1,300,179.0,Training at home,,,,,,,,,,,,,
9,19,4486,B,76.75335459508186,63.301793697188344,3.8376677297540938,0.9943422501907178,B,710.3656660001434,Correct,sub_009_day_19_data.csv,1,300,179.0,Training at home,,,,,,,,,,,,,
9,19,4487,A,48.24618647731869,78.83527118826616,2.4123093238659346,1.23834154404408,A,799.4586659988272,Correct,sub_009_day_19_data.csv,1,300,179.0,Training at home,,,,,,,,,,,,,
9,19,4488,B,35.189671478720236,11.625700716759336,1.759483573936012,0.1826160798230236,B,748.3455410001625,Correct,sub_009_day_19_data.csv,1,300,179.0,Training at home,,,,,,,,,,,,,
9,19,4489,B,72.49020013563131,59.694953105259145,3.6245100067815654,0.9376861306593468,B,758.8318749985774,Correct,sub_009_day_19_data.csv,1,300,179.0,Training at home,,,,,,,,,,,,,
9,19,4490,A,14.529482764434396,39.477711417874666,0.7264741382217197,0.6201144408546648,A,692.5164579988632,Correct,sub_009_day_19_data.csv,1,300,179.0,Training at home,,,,,,,,,,,,,
9,19,4491,A,54.16244044494522,70.34474143012493,2.708122022247261,1.10497261447777,A,613.3915419995901,Correct,sub_009_day_19_data.csv,1,300,179.0,Training at home,,,,,,,,,,,,,
9,19,4492,A,27.25257336666276,43.32134076844147,1.362628668333138,0.6804900295089789,A,726.0207500003162,Correct,sub_009_day_19_data.csv,1,300,179.0,Training at home,,,,,,,,,,,,,
9,19,4493,B,36.63182271066423,10.883298982519772,1.8315911355332115,0.1709544606515269,B,366.6093749998254,Correct,sub_009_day_19_data.csv,1,300,179.0,Training at home,,,,,,,,,,,,,
9,19,4494,B,58.25122502748603,38.40707985123153,2.9125612513743016,0.6032969995323276,B,718.6937080005009,Correct,sub_009_day_19_data.csv,1,300,179.0,Training at home,,,,,,,,,,,,,
9,19,4495,A,37.96887933850613,66.50801305463432,1.8984439669253064,1.044705426086466,A,696.2896669974725,Correct,sub_009_day_19_data.csv,1,300,179.0,Training at home,,,,,,,,,,,,,
9,19,4496,A,44.91927434822817,64.76437945112374,2.245963717411408,1.0173164934897605,A,623.4770829978515,Correct,sub_009_day_19_data.csv,1,300,179.0,Training at home,,,,,,,,,,,,,
9,19,4497,B,67.18540325030217,58.831895252728415,3.3592701625151085,0.924129249613679,B,465.78737500021816,Correct,sub_009_day_19_data.csv,1,300,179.0,Training at home,,,,,,,,,,,,,
9,19,4498,A,45.94856999649764,75.07847330918753,2.297428499824882,1.1793299009544047,A,613.3837499983201,Correct,sub_009_day_19_data.csv,1,300,179.0,Training at home,,,,,,,,,,,,,
9,19,4499,B,87.89086445073379,67.35670031090467,4.394543222536689,1.0580365743339373,B,486.68554200048675,Correct,sub_009_day_19_data.csv,1,300,179.0,Training at home,,,,,,,,,,,,,
