subject,day,trial,cat,x,y,xt,yt,resp,rt,fb,f_name,acc,n_trials,block,session_type,ns_left_digit,ns_right_digit,ns_left_size,ns_right_size,ns_congruent,ns_cue,ns_correct_side,ns_resp,ns_rt,ns_fb,acc_stroop,acc_stroop_mean,resp_key
9,4,600,B,33.259190931625675,10.27601402368337,1.662959546581284,0.1614152508249468,B,1417.7251249998335,Correct,sub_009_day_04_data.csv,1,300,24.0,Training at home,,,,,,,,,,,,,
9,4,601,A,50.863914258733246,61.61751424939034,2.5431957129366625,0.9678856504917456,A,868.4982909999235,Correct,sub_009_day_04_data.csv,1,300,24.0,Training at home,,,,,,,,,,,,,
9,4,602,A,47.795052543900255,63.81315559982925,2.389752627195013,1.00237470417403,A,540.0364580000314,Correct,sub_009_day_04_data.csv,1,300,24.0,Training at home,,,,,,,,,,,,,
9,4,603,A,45.31868016102956,57.2839960805679,2.2659340080514783,0.8998149062748931,A,521.6366660001768,Correct,sub_009_day_04_data.csv,1,300,24.0,Training at home,,,,,,,,,,,,,
9,4,604,A,54.0976771454036,65.73974679378287,2.70488385727018,1.0326375278810072,A,545.2350000000479,Correct,sub_009_day_04_data.csv,1,300,24.0,Training at home,,,,,,,,,,,,,
9,4,605,A,26.67881418253072,41.343219048233834,1.333940709126536,0.649417766188425,A,4894.165083000189,Correct,sub_009_day_04_data.csv,1,300,24.0,Training at home,,,,,,,,,,,,,
9,4,606,A,61.79474873504351,77.1671747355495,3.0897374367521757,1.212139146237411,B,1321.800248999807,Incorrect,sub_009_day_04_data.csv,0,300,24.0,Training at home,,,,,,,,,,,,,
9,4,607,B,40.755843448546905,14.04012175837038,2.0377921724273453,0.2205417168580129,B,658.9249159997053,Correct,sub_009_day_04_data.csv,1,300,24.0,Training at home,,,,,,,,,,,,,
9,4,608,A,51.1475501246779,68.58764821760316,2.557377506233895,1.0773722588371155,A,598.5092500000064,Correct,sub_009_day_04_data.csv,1,300,24.0,Training at home,,,,,,,,,,,,,
9,4,609,B,65.78678153139418,46.70843051949334,3.2893390765697093,0.7336943109037479,B,654.482082999948,Correct,sub_009_day_04_data.csv,1,300,24.0,Training at home,,,,,,,,,,,,,
9,4,610,B,34.92658169680514,13.30078068557157,1.7463290848402568,0.2089281744440032,B,705.7259160001195,Correct,sub_009_day_04_data.csv,1,300,24.0,Training at home,,,,,,,,,,,,,
9,4,611,B,52.93098785332405,41.16007224719765,2.6465493926662025,0.6465409029651062,A,1467.9628330000014,Incorrect,sub_009_day_04_data.csv,0,300,24.0,Training at home,,,,,,,,,,,,,
9,4,612,B,42.35918634261128,28.634201303952032,2.117959317130564,0.4497849822895349,B,900.7742080002572,Correct,sub_009_day_04_data.csv,1,300,24.0,Training at home,,,,,,,,,,,,,
9,4,613,A,34.29884067872146,62.2824515451979,1.714942033936073,0.97833046110978,A,595.312124999964,Correct,sub_009_day_04_data.csv,1,300,24.0,Training at home,,,,,,,,,,,,,
9,4,614,B,78.79558923582981,52.468625000556955,3.9397794617914905,0.8241752342285376,B,1071.2081249998846,Correct,sub_009_day_04_data.csv,1,300,24.0,Training at home,,,,,,,,,,,,,
9,4,615,A,50.095605095933074,67.47199610066178,2.504780254796654,1.0598476363643912,A,985.433791000105,Correct,sub_009_day_04_data.csv,1,300,24.0,Training at home,,,,,,,,,,,,,
9,4,616,B,83.9889137064282,55.743287416330915,4.19944568532141,0.875613511170448,B,1018.1432080003106,Correct,sub_009_day_04_data.csv,1,300,24.0,Training at home,,,,,,,,,,,,,
9,4,617,B,44.08818641224257,29.71739168272856,2.2044093206121285,0.4667996969715524,B,3390.905166000266,Correct,sub_009_day_04_data.csv,1,300,24.0,Training at home,,,,,,,,,,,,,
9,4,618,A,59.00671551576917,73.68827527670805,2.9503357757884587,1.157492721325042,A,674.6404159998747,Correct,sub_009_day_04_data.csv,1,300,24.0,Training at home,,,,,,,,,,,,,
9,4,619,A,43.635222619808175,67.9013005236939,2.181761130990409,1.0665911344721477,A,581.3469999998233,Correct,sub_009_day_04_data.csv,1,300,24.0,Training at home,,,,,,,,,,,,,
9,4,620,A,40.69143767634722,50.481785598309614,2.034571883817361,0.7929660338787224,B,4057.4163330002193,Incorrect,sub_009_day_04_data.csv,0,300,24.0,Training at home,,,,,,,,,,,,,
9,4,621,B,40.38224559697054,15.024372808699471,2.019112279848527,0.2360022962030225,B,614.1915409998546,Correct,sub_009_day_04_data.csv,1,300,24.0,Training at home,,,,,,,,,,,,,
9,4,622,A,57.72451758899152,66.86178796494073,2.886225879449575,1.0502625093826812,A,729.5007080001596,Correct,sub_009_day_04_data.csv,1,300,24.0,Training at home,,,,,,,,,,,,,
9,4,623,A,42.03516333906252,68.23901433878389,2.1017581669531262,1.07189593067466,A,1279.2188749999696,Correct,sub_009_day_04_data.csv,1,300,24.0,Training at home,,,,,,,,,,,,,
9,4,624,B,73.13609512856897,51.12420440386921,3.656804756428449,0.8030571248790922,B,963.2932080003228,Correct,sub_009_day_04_data.csv,1,300,24.0,Training at home,,,,,,,,,,,,,
9,4,625,B,69.29397099430838,54.21330084282621,3.4646985497154192,0.8515805382733806,B,523.4704160002366,Correct,sub_009_day_04_data.csv,1,300,25.0,Training at home,,,,,,,,,,,,,
9,4,626,B,73.42116292896674,45.078170114655606,3.671058146448337,0.708086240347365,B,848.1852079999044,Correct,sub_009_day_04_data.csv,1,300,25.0,Training at home,,,,,,,,,,,,,
9,4,627,B,39.588420590551905,12.497697777199097,1.9794210295275951,0.1963133776181708,B,942.5794579997272,Correct,sub_009_day_04_data.csv,1,300,25.0,Training at home,,,,,,,,,,,,,
9,4,628,A,32.11544871316012,63.82383915632733,1.605772435658006,1.0025425210870724,A,852.716375,Correct,sub_009_day_04_data.csv,1,300,25.0,Training at home,,,,,,,,,,,,,
9,4,629,A,69.69011789254239,87.59672259956999,3.4845058946271195,1.3759661009867603,A,2312.580290999904,Correct,sub_009_day_04_data.csv,1,300,25.0,Training at home,,,,,,,,,,,,,
9,4,630,B,68.08521794539654,51.0775056114752,3.404260897269827,0.8023235819635096,B,698.1643330000225,Correct,sub_009_day_04_data.csv,1,300,25.0,Training at home,,,,,,,,,,,,,
9,4,631,A,28.576280578585862,49.97815479563231,1.4288140289292932,0.7850550197296597,A,762.7984169998854,Correct,sub_009_day_04_data.csv,1,300,25.0,Training at home,,,,,,,,,,,,,
9,4,632,A,22.096068611145245,50.46289193274835,1.1048034305572625,0.7926692528740892,A,745.8015000001978,Correct,sub_009_day_04_data.csv,1,300,25.0,Training at home,,,,,,,,,,,,,
9,4,633,A,15.98595941049473,40.3444526129563,0.7992979705247365,0.6337291797098252,A,745.922750000318,Correct,sub_009_day_04_data.csv,1,300,25.0,Training at home,,,,,,,,,,,,,
9,4,634,A,23.69814787109911,42.46678446341336,1.1849073935549554,0.6670666904592029,A,674.8922919996403,Correct,sub_009_day_04_data.csv,1,300,25.0,Training at home,,,,,,,,,,,,,
9,4,635,B,72.04740925152682,58.89638113619462,3.6023704625763404,0.9251421915024676,A,1266.247250000106,Incorrect,sub_009_day_04_data.csv,0,300,25.0,Training at home,,,,,,,,,,,,,
9,4,636,A,62.70165367833404,77.25887000917567,3.1350826839167016,1.2135794922273755,B,825.5737079998653,Incorrect,sub_009_day_04_data.csv,0,300,25.0,Training at home,,,,,,,,,,,,,
9,4,637,A,41.977890011631395,71.92377140122437,2.0988945005815696,1.1297759592627905,A,639.0661660002479,Correct,sub_009_day_04_data.csv,1,300,25.0,Training at home,,,,,,,,,,,,,
9,4,638,A,12.60441322972557,35.0929899447371,0.6302206614862784,0.5512393970144327,A,511.96745800007193,Correct,sub_009_day_04_data.csv,1,300,25.0,Training at home,,,,,,,,,,,,,
9,4,639,B,50.26391174256242,40.946919667522614,2.513195587128121,0.6431927100731023,A,5922.7960420003,Incorrect,sub_009_day_04_data.csv,0,300,25.0,Training at home,,,,,,,,,,,,,
9,4,640,B,73.79565980146027,49.939031549300445,3.6897829900730135,0.7844404732133561,B,2559.8398330002965,Correct,sub_009_day_04_data.csv,1,300,25.0,Training at home,,,,,,,,,,,,,
9,4,641,A,12.195868320978631,38.46772139173424,0.6097934160489317,0.6042495546230562,A,470.7221250000657,Correct,sub_009_day_04_data.csv,1,300,25.0,Training at home,,,,,,,,,,,,,
9,4,642,B,56.9940612385915,44.19979042377983,2.8497030619295747,0.6942886844277761,A,2672.774416000266,Incorrect,sub_009_day_04_data.csv,0,300,25.0,Training at home,,,,,,,,,,,,,
9,4,643,B,42.96615999790083,14.488823272961575,2.1483079998950414,0.2275899037674845,B,817.418292000184,Correct,sub_009_day_04_data.csv,1,300,25.0,Training at home,,,,,,,,,,,,,
9,4,644,B,79.2992270439886,49.459191956873966,3.96496135219943,0.7769031705210131,B,1655.9270420002576,Correct,sub_009_day_04_data.csv,1,300,25.0,Training at home,,,,,,,,,,,,,
9,4,645,B,40.3717109361049,21.017239462075192,2.018585546805245,0.3301380254639646,B,826.2104160003219,Correct,sub_009_day_04_data.csv,1,300,25.0,Training at home,,,,,,,,,,,,,
9,4,646,B,86.21348191603182,69.4559148561006,4.310674095801591,1.091010959301419,A,3508.735791000163,Incorrect,sub_009_day_04_data.csv,0,300,25.0,Training at home,,,,,,,,,,,,,
9,4,647,A,69.34055127375683,88.91210177524277,3.4670275636878416,1.3966280287616537,A,653.4393749998344,Correct,sub_009_day_04_data.csv,1,300,25.0,Training at home,,,,,,,,,,,,,
9,4,648,B,41.98721636016849,34.2033499202231,2.0993608180084244,0.5372649641876696,B,933.679082999788,Correct,sub_009_day_04_data.csv,1,300,25.0,Training at home,,,,,,,,,,,,,
9,4,649,B,66.40964586154246,50.42210083615456,3.3204822930771227,0.7920285078271346,B,4058.9435830002,Correct,sub_009_day_04_data.csv,1,300,25.0,Training at home,,,,,,,,,,,,,
9,4,650,A,47.89327148796886,60.44684879520999,2.394663574398443,0.9494968805384236,A,1258.7337490003847,Correct,sub_009_day_04_data.csv,1,300,26.0,Training at home,,,,,,,,,,,,,
9,4,651,B,43.19933636196891,30.4889715708929,2.1599668180984453,0.4789196455131259,B,630.6891249996625,Correct,sub_009_day_04_data.csv,1,300,26.0,Training at home,,,,,,,,,,,,,
9,4,652,B,84.2570270177789,60.006049304684694,4.212851350888945,0.9425728183327216,B,1349.989666000056,Correct,sub_009_day_04_data.csv,1,300,26.0,Training at home,,,,,,,,,,,,,
9,4,653,B,42.41257805218462,30.18485337362261,2.120628902609231,0.4741425680412894,B,960.9827079998468,Correct,sub_009_day_04_data.csv,1,300,26.0,Training at home,,,,,,,,,,,,,
9,4,654,A,28.271275364379665,41.6684748579259,1.4135637682189832,0.654526872499755,A,2947.19216600015,Correct,sub_009_day_04_data.csv,1,300,26.0,Training at home,,,,,,,,,,,,,
9,4,655,B,74.4093603913022,51.80811315466864,3.72046801956511,0.8137999384152785,B,1142.6603330000944,Correct,sub_009_day_04_data.csv,1,300,26.0,Training at home,,,,,,,,,,,,,
9,4,656,B,82.24841428475699,61.2082597894579,4.1124207142378495,0.9614570964678824,B,1233.0512499997894,Correct,sub_009_day_04_data.csv,1,300,26.0,Training at home,,,,,,,,,,,,,
9,4,657,B,68.58252929711432,54.83924083197829,3.429126464855716,0.8614127806309221,B,677.7239170000939,Correct,sub_009_day_04_data.csv,1,300,26.0,Training at home,,,,,,,,,,,,,
9,4,658,B,68.03270065634621,41.5920720471757,3.4016350328173104,0.6533267399549229,B,1274.730332999752,Correct,sub_009_day_04_data.csv,1,300,26.0,Training at home,,,,,,,,,,,,,
9,4,659,A,43.95397595318187,56.848797552324655,2.197698797659094,0.8929788237789826,A,1504.2530830000942,Correct,sub_009_day_04_data.csv,1,300,26.0,Training at home,,,,,,,,,,,,,
9,4,660,A,53.895359257205,74.98198963600767,2.69476796286025,1.1778143389601383,A,646.2318750000122,Correct,sub_009_day_04_data.csv,1,300,26.0,Training at home,,,,,,,,,,,,,
9,4,661,B,59.31491670088987,29.66005122780299,2.965745835044493,0.465898995211814,B,659.8319999998239,Correct,sub_009_day_04_data.csv,1,300,26.0,Training at home,,,,,,,,,,,,,
9,4,662,B,68.52403034934125,53.4627854290936,3.4262015174670624,0.8397914697224393,B,6871.2635830002,Correct,sub_009_day_04_data.csv,1,300,26.0,Training at home,,,,,,,,,,,,,
9,4,663,A,24.065946764154916,49.42877478029652,1.203297338207746,0.7764253786286198,A,545.4321240003992,Correct,sub_009_day_04_data.csv,1,300,26.0,Training at home,,,,,,,,,,,,,
9,4,664,A,42.16088035699656,49.53568882218711,2.108044017849828,0.7781047804714653,A,1113.1241660000342,Correct,sub_009_day_04_data.csv,1,300,26.0,Training at home,,,,,,,,,,,,,
9,4,665,B,70.91431535606662,52.41689571393565,3.545715767803331,0.8233626724944128,B,1368.1121659997189,Correct,sub_009_day_04_data.csv,1,300,26.0,Training at home,,,,,,,,,,,,,
9,4,666,B,82.63288803882139,65.57572712184901,4.13164440194107,1.0300611128990491,B,1022.8802920000816,Correct,sub_009_day_04_data.csv,1,300,26.0,Training at home,,,,,,,,,,,,,
9,4,667,B,56.62959814724832,48.71619732066948,2.831479907362416,0.7652322380672301,B,4987.835542000084,Correct,sub_009_day_04_data.csv,1,300,26.0,Training at home,,,,,,,,,,,,,
9,4,668,A,42.291630111122814,69.43355885726582,2.1145815055561403,1.0906597920929042,A,1078.078749999804,Correct,sub_009_day_04_data.csv,1,300,26.0,Training at home,,,,,,,,,,,,,
9,4,669,A,63.148210728891485,78.71722034470135,3.1574105364445746,1.236487205729614,B,702.7289160000691,Incorrect,sub_009_day_04_data.csv,0,300,26.0,Training at home,,,,,,,,,,,,,
9,4,670,A,53.87459293638514,69.9184966306866,2.6937296468192575,1.0982771768250386,A,1723.5908329998892,Correct,sub_009_day_04_data.csv,1,300,26.0,Training at home,,,,,,,,,,,,,
9,4,671,A,28.709403880564803,46.82311811541814,1.4354701940282402,0.7354958194478238,A,2063.6033749997296,Correct,sub_009_day_04_data.csv,1,300,26.0,Training at home,,,,,,,,,,,,,
9,4,672,A,47.725441535392314,67.70288574187647,2.386272076769616,1.0634744423675415,A,1285.7097910000448,Correct,sub_009_day_04_data.csv,1,300,26.0,Training at home,,,,,,,,,,,,,
9,4,673,B,81.63565604548141,51.63656302749111,4.081782802274071,0.811105235318962,B,1933.2982910000285,Correct,sub_009_day_04_data.csv,1,300,26.0,Training at home,,,,,,,,,,,,,
9,4,674,A,63.49348773545035,85.606032683384,3.1746743867725176,1.3446964169054345,A,962.2254580003756,Correct,sub_009_day_04_data.csv,1,300,26.0,Training at home,,,,,,,,,,,,,
9,4,675,B,48.32002994720895,40.33761483295679,2.4160014973604476,0.6336217721127586,B,1270.7889580001392,Correct,sub_009_day_04_data.csv,1,300,27.0,Training at home,,,,,,,,,,,,,
9,4,676,A,51.53278650204171,65.63678273522866,2.576639325102086,1.0310201722313188,A,1525.036665999778,Correct,sub_009_day_04_data.csv,1,300,27.0,Training at home,,,,,,,,,,,,,
9,4,677,A,50.47931888705503,74.77095975496353,2.5239659443527516,1.1744994893402574,A,723.6924159997216,Correct,sub_009_day_04_data.csv,1,300,27.0,Training at home,,,,,,,,,,,,,
9,4,678,B,54.91029535312143,46.764420257437386,2.7455147676560716,0.7345737956507552,B,828.9624170001844,Correct,sub_009_day_04_data.csv,1,300,27.0,Training at home,,,,,,,,,,,,,
9,4,679,A,54.88125887482089,82.8708070771558,2.7440629437410444,1.3017315935532483,A,528.5268750003524,Correct,sub_009_day_04_data.csv,1,300,27.0,Training at home,,,,,,,,,,,,,
9,4,680,A,27.4385279433737,48.5007357085518,1.3719263971686848,0.7618477749784325,A,1410.826457999974,Correct,sub_009_day_04_data.csv,1,300,27.0,Training at home,,,,,,,,,,,,,
9,4,681,B,69.24579328156977,43.01768494809681,3.462289664078489,0.6757202150369057,B,1193.3665409997047,Correct,sub_009_day_04_data.csv,1,300,27.0,Training at home,,,,,,,,,,,,,
9,4,682,B,81.4411118202927,58.20402768588182,4.072055591014635,0.9142667289365164,B,1890.4460829999152,Correct,sub_009_day_04_data.csv,1,300,27.0,Training at home,,,,,,,,,,,,,
9,4,683,A,53.64808370200293,71.22326674945202,2.6824041851001463,1.118772457923723,A,839.5764169999893,Correct,sub_009_day_04_data.csv,1,300,27.0,Training at home,,,,,,,,,,,,,
9,4,684,B,61.23389110421975,51.1850598206635,3.0616945552109875,0.8040130395307526,B,683.0342500002189,Correct,sub_009_day_04_data.csv,1,300,27.0,Training at home,,,,,,,,,,,,,
9,4,685,B,61.30859340013805,28.798048322115925,3.065429670006903,0.4523586852324162,B,772.7858329999435,Correct,sub_009_day_04_data.csv,1,300,27.0,Training at home,,,,,,,,,,,,,
9,4,686,B,45.371749965906915,34.09360144639147,2.268587498295346,0.5355410391920089,B,879.2475000000195,Correct,sub_009_day_04_data.csv,1,300,27.0,Training at home,,,,,,,,,,,,,
9,4,687,B,72.67461924225789,58.77769396950639,3.6337309621128946,0.9232778578477516,B,560.443166999903,Correct,sub_009_day_04_data.csv,1,300,27.0,Training at home,,,,,,,,,,,,,
9,4,688,A,25.86032873942804,40.58578174622232,1.293016436971402,0.637519968870654,A,591.6777079996791,Correct,sub_009_day_04_data.csv,1,300,27.0,Training at home,,,,,,,,,,,,,
9,4,689,B,47.733472883406705,39.782817936692624,2.3866736441703353,0.624907042845069,B,6125.477665999824,Correct,sub_009_day_04_data.csv,1,300,27.0,Training at home,,,,,,,,,,,,,
9,4,690,B,76.79544237894845,50.46812504860377,3.8397721189474225,0.7927514544657231,B,656.1717079998743,Correct,sub_009_day_04_data.csv,1,300,27.0,Training at home,,,,,,,,,,,,,
9,4,691,A,42.4352071763852,51.81649769885448,2.12176035881926,0.8139316425273683,A,1028.2245829998828,Correct,sub_009_day_04_data.csv,1,300,27.0,Training at home,,,,,,,,,,,,,
9,4,692,B,45.09293777783947,16.324842926008117,2.2546468888919735,0.256430033036772,B,638.3021250003367,Correct,sub_009_day_04_data.csv,1,300,27.0,Training at home,,,,,,,,,,,,,
9,4,693,A,56.26300259960918,77.28320579140171,2.813150129980459,1.213961757800679,A,602.748208000321,Correct,sub_009_day_04_data.csv,1,300,27.0,Training at home,,,,,,,,,,,,,
9,4,694,B,56.36446003495054,38.911812911475295,2.8182230017475267,0.6112253279027563,B,511.7099990002316,Correct,sub_009_day_04_data.csv,1,300,27.0,Training at home,,,,,,,,,,,,,
9,4,695,A,15.941008206738836,42.72217551073126,0.7970504103369419,0.6710783636494355,A,588.6319579999508,Correct,sub_009_day_04_data.csv,1,300,27.0,Training at home,,,,,,,,,,,,,
9,4,696,A,57.0409040148858,72.66931776643096,2.8520452007442896,1.1414869741820088,A,1557.7433749999727,Correct,sub_009_day_04_data.csv,1,300,27.0,Training at home,,,,,,,,,,,,,
9,4,697,B,64.56993565318618,39.94160500425625,3.2284967826593087,0.6274012642697839,B,763.4470830003011,Correct,sub_009_day_04_data.csv,1,300,27.0,Training at home,,,,,,,,,,,,,
9,4,698,A,35.9897444560897,66.36797921372451,1.7994872228044851,1.042505779657185,A,874.5598329996938,Correct,sub_009_day_04_data.csv,1,300,27.0,Training at home,,,,,,,,,,,,,
9,4,699,B,65.18951469527843,43.12422142982614,3.259475734763922,0.6773936861786066,B,810.446082999988,Correct,sub_009_day_04_data.csv,1,300,27.0,Training at home,,,,,,,,,,,,,
9,4,700,A,49.56059003600518,76.39321631225546,2.478029501800259,1.199981835753389,A,662.8860000000714,Correct,sub_009_day_04_data.csv,1,300,28.0,Training at home,,,,,,,,,,,,,
9,4,701,A,24.189189156234757,35.20054973518418,1.209459457811738,0.5529289422518838,A,520.2292079998188,Correct,sub_009_day_04_data.csv,1,300,28.0,Training at home,,,,,,,,,,,,,
9,4,702,A,22.262427724485967,46.855397179391645,1.1131213862242983,0.7360028577990437,A,658.7386250002965,Correct,sub_009_day_04_data.csv,1,300,28.0,Training at home,,,,,,,,,,,,,
9,4,703,B,60.267772466823104,50.1498021713943,3.013388623341155,0.7877512504031688,A,3298.1727080000383,Incorrect,sub_009_day_04_data.csv,0,300,28.0,Training at home,,,,,,,,,,,,,
9,4,704,B,74.90448365425502,56.28381024275956,3.745224182712751,0.884104023873477,B,583.8942919999681,Correct,sub_009_day_04_data.csv,1,300,28.0,Training at home,,,,,,,,,,,,,
9,4,705,B,84.81818366523221,58.954087869231266,4.240909183261611,0.9260486467453204,B,543.9886660001321,Correct,sub_009_day_04_data.csv,1,300,28.0,Training at home,,,,,,,,,,,,,
9,4,706,A,47.433618659561574,68.17509176083838,2.371680932978079,1.0708918371682994,A,714.6139989999938,Correct,sub_009_day_04_data.csv,1,300,28.0,Training at home,,,,,,,,,,,,,
9,4,707,A,19.83125697128048,50.80571961770092,0.991562848564024,0.7980543775565603,A,705.815290999908,Correct,sub_009_day_04_data.csv,1,300,28.0,Training at home,,,,,,,,,,,,,
9,4,708,B,40.39400040402224,13.649005987056745,2.0197000202011117,0.2143980846887028,B,669.515125000089,Correct,sub_009_day_04_data.csv,1,300,28.0,Training at home,,,,,,,,,,,,,
9,4,709,A,45.07569557561099,64.879349656142,2.25378477878055,1.0191224412470958,A,1001.9589160001487,Correct,sub_009_day_04_data.csv,1,300,28.0,Training at home,,,,,,,,,,,,,
9,4,710,B,54.34641187619457,28.19300360271945,2.717320593809729,0.4428546650046699,B,691.1860830000478,Correct,sub_009_day_04_data.csv,1,300,28.0,Training at home,,,,,,,,,,,,,
9,4,711,A,17.710558995715346,46.37624632763958,0.8855279497857673,0.7284763738199156,A,685.720916000264,Correct,sub_009_day_04_data.csv,1,300,28.0,Training at home,,,,,,,,,,,,,
9,4,712,B,60.25739138985047,45.15761654054334,3.012869569492523,0.7093341818869794,B,1019.0304159996232,Correct,sub_009_day_04_data.csv,1,300,28.0,Training at home,,,,,,,,,,,,,
9,4,713,A,33.31063710743948,52.17083657990868,1.665531855371974,0.8194975846553738,A,844.1594579999219,Correct,sub_009_day_04_data.csv,1,300,28.0,Training at home,,,,,,,,,,,,,
9,4,714,B,79.20545466887495,47.96007003596279,3.9602727334437473,0.7533550184531634,B,632.8772909996587,Correct,sub_009_day_04_data.csv,1,300,28.0,Training at home,,,,,,,,,,,,,
9,4,715,A,23.473454137489913,54.84610509918396,1.1736727068744957,0.8615206042880501,A,610.2961670003424,Correct,sub_009_day_04_data.csv,1,300,28.0,Training at home,,,,,,,,,,,,,
9,4,716,A,38.06780630497376,48.81288216198724,1.903390315248688,0.766750960003217,A,585.7885410000563,Correct,sub_009_day_04_data.csv,1,300,28.0,Training at home,,,,,,,,,,,,,
9,4,717,A,59.23709241000645,68.18609464670071,2.9618546205003224,1.0710646700952664,A,894.755749000069,Correct,sub_009_day_04_data.csv,1,300,28.0,Training at home,,,,,,,,,,,,,
9,4,718,A,49.5996452822985,57.65143877809476,2.479982264114925,0.9055866826707212,A,737.032917000306,Correct,sub_009_day_04_data.csv,1,300,28.0,Training at home,,,,,,,,,,,,,
9,4,719,A,67.46666272067209,81.72965404393105,3.3733331360336045,1.2838064036242454,A,931.1411660000886,Correct,sub_009_day_04_data.csv,1,300,28.0,Training at home,,,,,,,,,,,,,
9,4,720,A,57.29714724568986,76.37450585651624,2.864857362284493,1.1996879326019103,A,532.3953329998403,Correct,sub_009_day_04_data.csv,1,300,28.0,Training at home,,,,,,,,,,,,,
9,4,721,B,71.4653313144195,57.31757554405604,3.573266565720975,0.9003423712539222,A,1027.449165999769,Incorrect,sub_009_day_04_data.csv,0,300,28.0,Training at home,,,,,,,,,,,,,
9,4,722,A,66.74636108574514,81.72053727237878,3.337318054287257,1.2836631977115802,A,992.8504160002376,Correct,sub_009_day_04_data.csv,1,300,28.0,Training at home,,,,,,,,,,,,,
9,4,723,B,43.91838889407539,26.555904605440563,2.1959194447037698,0.4171391740894171,B,590.2136250001604,Correct,sub_009_day_04_data.csv,1,300,28.0,Training at home,,,,,,,,,,,,,
9,4,724,A,27.800190102820626,58.95149626103305,1.3900095051410313,0.926007937858938,A,615.6374580000374,Correct,sub_009_day_04_data.csv,1,300,28.0,Training at home,,,,,,,,,,,,,
9,4,725,A,27.295794516717997,55.35537082684775,1.3647897258359,0.8695201316318181,A,723.800458000369,Correct,sub_009_day_04_data.csv,1,300,29.0,Training at home,,,,,,,,,,,,,
9,4,726,B,41.487456399802355,21.14796636639604,2.0743728199901175,0.3321914788751692,B,569.1112079998675,Correct,sub_009_day_04_data.csv,1,300,29.0,Training at home,,,,,,,,,,,,,
9,4,727,B,56.16589480552439,44.77634356828725,2.808294740276219,0.703345160043719,B,957.94079199959,Correct,sub_009_day_04_data.csv,1,300,29.0,Training at home,,,,,,,,,,,,,
9,4,728,A,61.98242603330177,76.54902958595844,3.0991213016650887,1.2024293449333738,A,563.7203329997647,Correct,sub_009_day_04_data.csv,1,300,29.0,Training at home,,,,,,,,,,,,,
9,4,729,A,66.75723063850566,86.56976105504975,3.337861531925283,1.3598346267678405,A,936.9764989996838,Correct,sub_009_day_04_data.csv,1,300,29.0,Training at home,,,,,,,,,,,,,
9,4,730,A,62.07369464327802,77.20001107060911,3.103684732163901,1.2126549381823812,A,559.3677920001028,Correct,sub_009_day_04_data.csv,1,300,29.0,Training at home,,,,,,,,,,,,,
9,4,731,B,58.84910177535275,26.416338145634207,2.942455088767638,0.4149468692653412,B,602.0889579999675,Correct,sub_009_day_04_data.csv,1,300,29.0,Training at home,,,,,,,,,,,,,
9,4,732,B,69.22191742672055,56.753038102833,3.4610958713360276,0.8914746378638089,A,972.7363749998405,Incorrect,sub_009_day_04_data.csv,0,300,29.0,Training at home,,,,,,,,,,,,,
9,4,733,A,36.14734556663582,54.17315313396376,1.807367278331791,0.8509498995372771,A,594.7856249999859,Correct,sub_009_day_04_data.csv,1,300,29.0,Training at home,,,,,,,,,,,,,
9,4,734,A,49.9823706310689,68.55572389748244,2.499118531553445,1.076870792789305,A,668.9828749999833,Correct,sub_009_day_04_data.csv,1,300,29.0,Training at home,,,,,,,,,,,,,
9,4,735,B,51.154421402861175,41.4806648860058,2.557721070143059,0.6515767603594795,B,677.2800420003477,Correct,sub_009_day_04_data.csv,1,300,29.0,Training at home,,,,,,,,,,,,,
9,4,736,A,35.35193390192521,62.710115402132054,1.7675966950962605,0.985048189265531,A,1251.9943329998569,Correct,sub_009_day_04_data.csv,1,300,29.0,Training at home,,,,,,,,,,,,,
9,4,737,A,58.20643223633729,82.12387054918327,2.9103216118168644,1.2899987420083667,A,1011.9728330000726,Correct,sub_009_day_04_data.csv,1,300,29.0,Training at home,,,,,,,,,,,,,
9,4,738,B,62.47390694596959,36.991704057717314,3.1236953472984794,0.5810643285574623,B,585.5969580002238,Correct,sub_009_day_04_data.csv,1,300,29.0,Training at home,,,,,,,,,,,,,
9,4,739,A,46.60366475646761,55.50129546729727,2.3301832378233804,0.871812310523888,A,2124.114250000275,Correct,sub_009_day_04_data.csv,1,300,29.0,Training at home,,,,,,,,,,,,,
9,4,740,A,64.29098388291986,89.41713177326845,3.2145491941459934,1.4045610214198532,A,752.3857910000515,Correct,sub_009_day_04_data.csv,1,300,29.0,Training at home,,,,,,,,,,,,,
9,4,741,A,21.3907847710456,51.102025732870096,1.0695392385522802,0.8027087431297063,A,452.467125000112,Correct,sub_009_day_04_data.csv,1,300,29.0,Training at home,,,,,,,,,,,,,
9,4,742,A,32.59978497207586,48.558380829389165,1.629989248603793,0.7627532624191221,A,3352.547708000202,Correct,sub_009_day_04_data.csv,1,300,29.0,Training at home,,,,,,,,,,,,,
9,4,743,B,77.3998265579086,48.31236853459109,3.8699913278954297,0.7588889103289702,B,3632.237124999847,Correct,sub_009_day_04_data.csv,1,300,29.0,Training at home,,,,,,,,,,,,,
9,4,744,B,62.96242484500929,30.316930479297845,3.1481212422504643,0.4762172303657729,B,971.0167920002276,Correct,sub_009_day_04_data.csv,1,300,29.0,Training at home,,,,,,,,,,,,,
9,4,745,A,57.15135129983519,84.76959169440512,2.8575675649917596,1.3315576325747476,A,579.2841249999583,Correct,sub_009_day_04_data.csv,1,300,29.0,Training at home,,,,,,,,,,,,,
9,4,746,A,26.09092924430629,54.301790034285496,1.3045464622153145,0.8529705232424337,A,591.915957999845,Correct,sub_009_day_04_data.csv,1,300,29.0,Training at home,,,,,,,,,,,,,
9,4,747,B,40.245367015843655,17.592394902458835,2.012268350792183,0.276340692923076,B,552.7816250000797,Correct,sub_009_day_04_data.csv,1,300,29.0,Training at home,,,,,,,,,,,,,
9,4,748,B,52.709356684367826,27.80637959419959,2.635467834218391,0.4367815892803329,B,498.5846249996939,Correct,sub_009_day_04_data.csv,1,300,29.0,Training at home,,,,,,,,,,,,,
9,4,749,B,53.041039959818185,27.73051425542099,2.652051997990909,0.4355898993254881,B,518.1952080001793,Correct,sub_009_day_04_data.csv,1,300,29.0,Training at home,,,,,,,,,,,,,
9,4,750,B,71.35769331444139,46.53502151906858,3.5678846657220697,0.7309704086947438,A,6673.7352079999255,Incorrect,sub_009_day_04_data.csv,0,300,30.0,Training at home,,,,,,,,,,,,,
9,4,751,B,57.72658628672588,48.79573122200682,2.8863293143362942,0.7664815536679938,A,535.9799580000981,Incorrect,sub_009_day_04_data.csv,0,300,30.0,Training at home,,,,,,,,,,,,,
9,4,752,A,27.13236120119484,45.333772529629414,1.356618060059742,0.7121012336929726,A,585.1766249998036,Correct,sub_009_day_04_data.csv,1,300,30.0,Training at home,,,,,,,,,,,,,
9,4,753,B,41.75474242945405,17.95513630763298,2.0877371214727023,0.2820386215913157,B,743.5988329998509,Correct,sub_009_day_04_data.csv,1,300,30.0,Training at home,,,,,,,,,,,,,
9,4,754,A,47.50355883124045,75.13046106923528,2.3751779415620224,1.1801465227796175,A,540.6799160000446,Correct,sub_009_day_04_data.csv,1,300,30.0,Training at home,,,,,,,,,,,,,
9,4,755,B,53.198862431124496,29.830374942790193,2.659943121556225,0.4685744338704936,B,678.8411249999626,Correct,sub_009_day_04_data.csv,1,300,30.0,Training at home,,,,,,,,,,,,,
9,4,756,B,41.29796010697672,16.760708919505053,2.064898005348836,0.2632766000523699,B,556.759332999718,Correct,sub_009_day_04_data.csv,1,300,30.0,Training at home,,,,,,,,,,,,,
9,4,757,B,57.230238344040416,41.35889231606761,2.8615119172020207,0.6496639613038467,B,1588.150792000306,Correct,sub_009_day_04_data.csv,1,300,30.0,Training at home,,,,,,,,,,,,,
9,4,758,A,33.2677878237521,56.482900660644795,1.663389391187605,0.8872313288446189,A,627.2522080003,Correct,sub_009_day_04_data.csv,1,300,30.0,Training at home,,,,,,,,,,,,,
9,4,759,B,75.99888767021537,47.85877760870074,3.799944383510769,0.7517639207264096,B,956.3468329997704,Correct,sub_009_day_04_data.csv,1,300,30.0,Training at home,,,,,,,,,,,,,
9,4,760,A,28.63689479208628,43.60952571852805,1.431844739604314,0.6850168281193143,A,452.3522499998762,Correct,sub_009_day_04_data.csv,1,300,30.0,Training at home,,,,,,,,,,,,,
9,4,761,B,63.02688593969249,44.002499758365175,3.1513442969846244,0.6911896499023334,B,1208.9217910001937,Correct,sub_009_day_04_data.csv,1,300,30.0,Training at home,,,,,,,,,,,,,
9,4,762,A,54.03964728270832,78.09793610747059,2.7019823641354157,1.2267595116787733,A,467.2934999998688,Correct,sub_009_day_04_data.csv,1,300,30.0,Training at home,,,,,,,,,,,,,
9,4,763,B,43.38471995790063,33.02133082385871,2.1692359978950315,0.5186978516399635,B,530.2213750001101,Correct,sub_009_day_04_data.csv,1,300,30.0,Training at home,,,,,,,,,,,,,
9,4,764,B,70.8761118960794,58.49867389605664,3.54380559480397,0.9188950207829828,B,983.179625000048,Correct,sub_009_day_04_data.csv,1,300,30.0,Training at home,,,,,,,,,,,,,
9,4,765,B,46.90887285797,31.394340678331258,2.3454436428985,0.4931411501967034,B,1093.312791000244,Correct,sub_009_day_04_data.csv,1,300,30.0,Training at home,,,,,,,,,,,,,
9,4,766,A,30.950755270512715,47.53389314507013,1.547537763525636,0.7466606475053726,A,539.9742499998865,Correct,sub_009_day_04_data.csv,1,300,30.0,Training at home,,,,,,,,,,,,,
9,4,767,B,76.46136204522173,55.45227140266481,3.823068102261087,0.8710422423173957,B,845.8728330001577,Correct,sub_009_day_04_data.csv,1,300,30.0,Training at home,,,,,,,,,,,,,
9,4,768,B,36.35963674905064,18.187757447942246,1.817981837452532,0.2856926259186421,B,693.3001669999612,Correct,sub_009_day_04_data.csv,1,300,30.0,Training at home,,,,,,,,,,,,,
9,4,769,B,61.118960403024545,33.43231296889007,3.055948020151227,0.5251535440778992,B,537.6113329998589,Correct,sub_009_day_04_data.csv,1,300,30.0,Training at home,,,,,,,,,,,,,
9,4,770,B,66.56556772814481,33.59859671469714,3.3282783864072405,0.5277655230490934,B,558.0915420000565,Correct,sub_009_day_04_data.csv,1,300,30.0,Training at home,,,,,,,,,,,,,
9,4,771,B,42.11506745263551,18.99729628223779,2.1057533726317756,0.2984088321917347,B,550.0944579998759,Correct,sub_009_day_04_data.csv,1,300,30.0,Training at home,,,,,,,,,,,,,
9,4,772,B,47.00056194604629,36.24331826120822,2.350028097302314,0.5693087119556428,B,908.670667000024,Correct,sub_009_day_04_data.csv,1,300,30.0,Training at home,,,,,,,,,,,,,
9,4,773,A,42.05816331003504,56.686233455090814,2.102908165501752,0.8904252729109463,A,500.5688330002158,Correct,sub_009_day_04_data.csv,1,300,30.0,Training at home,,,,,,,,,,,,,
9,4,774,A,40.75098032838251,66.4988452166372,2.037549016419126,1.044561418023961,A,440.93145800025013,Correct,sub_009_day_04_data.csv,1,300,30.0,Training at home,,,,,,,,,,,,,
9,4,775,A,30.66120109278131,43.82101771758927,1.5330600546390656,0.6883389366720332,A,435.0276660002237,Correct,sub_009_day_04_data.csv,1,300,31.0,Training at home,,,,,,,,,,,,,
9,4,776,A,31.065421914554843,41.795571964522864,1.5532710957277422,0.6565233091816427,A,530.2511660001983,Correct,sub_009_day_04_data.csv,1,300,31.0,Training at home,,,,,,,,,,,,,
9,4,777,B,83.80876625475736,64.68289423251686,4.190438312737868,1.0160365266690028,B,1247.563375000027,Correct,sub_009_day_04_data.csv,1,300,31.0,Training at home,,,,,,,,,,,,,
9,4,778,B,56.05958279565229,32.51558289916909,2.802979139782615,0.5107535818160975,B,696.859915999994,Correct,sub_009_day_04_data.csv,1,300,31.0,Training at home,,,,,,,,,,,,,
9,4,779,B,63.481474555080645,53.96651722365548,3.1740737277540325,0.8477040702483154,B,543.0321250000816,Correct,sub_009_day_04_data.csv,1,300,31.0,Training at home,,,,,,,,,,,,,
9,4,780,B,40.15930090639165,16.712158753850865,2.0079650453195823,0.2625139758336211,B,641.924083000049,Correct,sub_009_day_04_data.csv,1,300,31.0,Training at home,,,,,,,,,,,,,
9,4,781,B,55.40182876034208,26.753083087953417,2.770091438017104,0.4202364464499589,B,524.0227080003024,Correct,sub_009_day_04_data.csv,1,300,31.0,Training at home,,,,,,,,,,,,,
9,4,782,A,32.588746355903076,49.03347971183378,1.629437317795154,0.770216098213206,A,446.141500000067,Correct,sub_009_day_04_data.csv,1,300,31.0,Training at home,,,,,,,,,,,,,
9,4,783,A,67.53142576384045,83.38991788870726,3.3765712881920225,1.309885767113094,A,797.1410410000317,Correct,sub_009_day_04_data.csv,1,300,31.0,Training at home,,,,,,,,,,,,,
9,4,784,A,20.964722086567868,47.02906037793825,1.0482361043283932,0.7387307529428081,A,592.5312499998654,Correct,sub_009_day_04_data.csv,1,300,31.0,Training at home,,,,,,,,,,,,,
9,4,785,B,46.995662841085675,39.94487254960117,2.349783142054284,0.6274525907520381,B,880.3997489999347,Correct,sub_009_day_04_data.csv,1,300,31.0,Training at home,,,,,,,,,,,,,
9,4,786,B,76.94429747739818,62.04772006918554,3.8472148738699095,0.9746433077067465,B,1205.2101250001217,Correct,sub_009_day_04_data.csv,1,300,31.0,Training at home,,,,,,,,,,,,,
9,4,787,A,50.708512824638206,79.75831932475191,2.5354256412319103,1.252840750266547,A,477.9744580000624,Correct,sub_009_day_04_data.csv,1,300,31.0,Training at home,,,,,,,,,,,,,
9,4,788,A,43.52413301362727,55.87596397740553,2.1762066506813635,0.8776975897183258,A,1040.9079999999449,Correct,sub_009_day_04_data.csv,1,300,31.0,Training at home,,,,,,,,,,,,,
9,4,789,A,45.80337190985169,52.567053692915685,2.290168595492585,0.8257213485126207,A,507.5979160001225,Correct,sub_009_day_04_data.csv,1,300,31.0,Training at home,,,,,,,,,,,,,
9,4,790,A,38.40593195085936,63.13143560903097,1.920296597542968,0.991666271599544,A,423.46391699993546,Correct,sub_009_day_04_data.csv,1,300,31.0,Training at home,,,,,,,,,,,,,
9,4,791,B,71.16635462015347,48.16249170390479,3.5583177310076737,0.7565346505778333,B,2021.2879989999235,Correct,sub_009_day_04_data.csv,1,300,31.0,Training at home,,,,,,,,,,,,,
9,4,792,A,35.75757417537731,46.27487427499406,1.7878787087688652,0.7268840253405631,A,498.5307079996346,Correct,sub_009_day_04_data.csv,1,300,31.0,Training at home,,,,,,,,,,,,,
9,4,793,A,45.842543409495015,68.38954510584992,2.292127170474751,1.0742604624344296,A,458.0807499996809,Correct,sub_009_day_04_data.csv,1,300,31.0,Training at home,,,,,,,,,,,,,
9,4,794,A,52.959648236704865,65.98774508241083,2.6479824118352435,1.0365330758892894,A,455.7038329999159,Correct,sub_009_day_04_data.csv,1,300,31.0,Training at home,,,,,,,,,,,,,
9,4,795,B,80.20536162243519,61.80445157216829,4.01026808112176,0.9708220550913504,B,779.8393329999271,Correct,sub_009_day_04_data.csv,1,300,31.0,Training at home,,,,,,,,,,,,,
9,4,796,A,41.65549962010711,49.472338017613765,2.0827749810053553,0.7771096683602322,A,383.6804999996275,Correct,sub_009_day_04_data.csv,1,300,31.0,Training at home,,,,,,,,,,,,,
9,4,797,B,84.04236207058644,57.863945284613536,4.202118103529322,0.9089247270693182,B,751.1257080000178,Correct,sub_009_day_04_data.csv,1,300,31.0,Training at home,,,,,,,,,,,,,
9,4,798,B,36.97264729049453,16.7199345710623,1.8486323645247265,0.2626361180847567,A,506.3205419996848,Incorrect,sub_009_day_04_data.csv,0,300,31.0,Training at home,,,,,,,,,,,,,
9,4,799,B,84.53540604165813,66.57566098843455,4.226770302082906,1.045768037345753,B,1030.8665829998065,Correct,sub_009_day_04_data.csv,1,300,31.0,Training at home,,,,,,,,,,,,,
9,4,800,A,14.143734006378008,37.569333819887994,0.7071867003189004,0.5901377156441134,A,442.14979099979246,Correct,sub_009_day_04_data.csv,1,300,32.0,Training at home,,,,,,,,,,,,,
9,4,801,B,71.16204283824274,52.48810051863954,3.5581021419121375,0.824481154951203,B,996.723208000276,Correct,sub_009_day_04_data.csv,1,300,32.0,Training at home,,,,,,,,,,,,,
9,4,802,B,64.37080607338902,48.38685401416102,3.218540303669451,0.7600589255060501,B,873.3832910002093,Correct,sub_009_day_04_data.csv,1,300,32.0,Training at home,,,,,,,,,,,,,
9,4,803,B,34.88913171487253,20.65699080919607,1.7444565857436265,0.3244792528572112,B,674.7754160001023,Correct,sub_009_day_04_data.csv,1,300,32.0,Training at home,,,,,,,,,,,,,
9,4,804,B,53.11263009849323,32.786160336939275,2.6556315049246617,0.5150038022697274,B,605.4405830000178,Correct,sub_009_day_04_data.csv,1,300,32.0,Training at home,,,,,,,,,,,,,
9,4,805,A,40.9584541930682,60.38500801563995,2.04792270965341,0.9485254878444762,A,1366.655916000127,Correct,sub_009_day_04_data.csv,1,300,32.0,Training at home,,,,,,,,,,,,,
9,4,806,A,26.602502573656373,51.60591944832826,1.3301251286828188,0.8106238871030734,A,475.4822909999348,Correct,sub_009_day_04_data.csv,1,300,32.0,Training at home,,,,,,,,,,,,,
9,4,807,A,54.36409946617792,79.21987256183402,2.718204973308896,1.244382848292887,A,962.594832999912,Correct,sub_009_day_04_data.csv,1,300,32.0,Training at home,,,,,,,,,,,,,
9,4,808,B,58.585804166992034,49.10568940751349,2.9292902083496015,0.7713503654605324,B,628.131707999728,Correct,sub_009_day_04_data.csv,1,300,32.0,Training at home,,,,,,,,,,,,,
9,4,809,A,31.983589924892904,54.64999208905858,1.599179496244645,0.8584400683286337,A,1278.285749999668,Correct,sub_009_day_04_data.csv,1,300,32.0,Training at home,,,,,,,,,,,,,
9,4,810,A,14.273146553118842,42.687154904769585,0.713657327655942,0.6705282612573682,A,489.8811249995561,Correct,sub_009_day_04_data.csv,1,300,32.0,Training at home,,,,,,,,,,,,,
9,4,811,A,53.48217538598592,72.39195613524221,2.674108769299296,1.1371301878673574,A,1070.4373749999831,Correct,sub_009_day_04_data.csv,1,300,32.0,Training at home,,,,,,,,,,,,,
9,4,812,A,44.31137837419457,61.11809776165022,2.2155689187097285,0.9600408346469156,A,2619.0325409997968,Correct,sub_009_day_04_data.csv,1,300,32.0,Training at home,,,,,,,,,,,,,
9,4,813,B,70.19026804574789,54.82857172310552,3.509513402287394,0.8612451906606468,B,1657.3937080001997,Correct,sub_009_day_04_data.csv,1,300,32.0,Training at home,,,,,,,,,,,,,
9,4,814,A,17.232384457216913,33.88957012321964,0.8616192228608456,0.5323361226621147,A,495.7710409998981,Correct,sub_009_day_04_data.csv,1,300,32.0,Training at home,,,,,,,,,,,,,
9,4,815,B,32.320661571647086,10.2257769685118,1.6160330785823545,0.1606261290076218,B,582.4659989998509,Correct,sub_009_day_04_data.csv,1,300,32.0,Training at home,,,,,,,,,,,,,
9,4,816,A,52.50208910282087,60.6013856664038,2.6251044551410434,0.95192434003468,A,698.7033330001395,Correct,sub_009_day_04_data.csv,1,300,32.0,Training at home,,,,,,,,,,,,,
9,4,817,B,61.635644457558385,44.34702852958454,3.0817822228779193,0.6966014951853988,B,1485.1871249998112,Correct,sub_009_day_04_data.csv,1,300,32.0,Training at home,,,,,,,,,,,,,
9,4,818,A,34.496892699821736,46.02631118671184,1.7248446349910866,0.7229796054800582,A,2628.647208000075,Correct,sub_009_day_04_data.csv,1,300,32.0,Training at home,,,,,,,,,,,,,
9,4,819,A,45.90929406575803,57.04259580658346,2.2954647032879016,0.8960229996382727,A,1594.7344999999586,Correct,sub_009_day_04_data.csv,1,300,32.0,Training at home,,,,,,,,,,,,,
9,4,820,A,38.7703855931568,59.4283295936667,1.93851927965784,0.9334980183328812,A,593.7610410001071,Correct,sub_009_day_04_data.csv,1,300,32.0,Training at home,,,,,,,,,,,,,
9,4,821,A,52.08218965826072,81.70359134949068,2.604109482913036,1.2833970117773126,A,934.6744159997796,Correct,sub_009_day_04_data.csv,1,300,32.0,Training at home,,,,,,,,,,,,,
9,4,822,A,47.257074605162344,54.14575774029694,2.3628537302581174,0.8505195736998478,A,1227.0319159997598,Correct,sub_009_day_04_data.csv,1,300,32.0,Training at home,,,,,,,,,,,,,
9,4,823,B,58.42631611474407,46.569348262957384,2.921315805737203,0.7315096119268576,A,1108.615957999973,Incorrect,sub_009_day_04_data.csv,0,300,32.0,Training at home,,,,,,,,,,,,,
9,4,824,A,32.230065412439785,58.46964406793977,1.6115032706219892,0.918439021309248,A,873.6149169999408,Correct,sub_009_day_04_data.csv,1,300,32.0,Training at home,,,,,,,,,,,,,
9,4,825,B,84.24207315050202,69.30907321637243,4.212103657525102,1.0887043762183637,B,685.3632080001262,Correct,sub_009_day_04_data.csv,1,300,33.0,Training at home,,,,,,,,,,,,,
9,4,826,B,69.05387910841874,55.178440480648106,3.452693955420937,0.8667409162527288,B,767.9635409999719,Correct,sub_009_day_04_data.csv,1,300,33.0,Training at home,,,,,,,,,,,,,
9,4,827,A,30.963376802653983,62.50787982815568,1.5481688401326992,0.9818714802980376,A,731.0287920004157,Correct,sub_009_day_04_data.csv,1,300,33.0,Training at home,,,,,,,,,,,,,
9,4,828,A,33.40319981747203,45.212376391891105,1.6701599908736011,0.7101943476205085,A,973.6274169999888,Correct,sub_009_day_04_data.csv,1,300,33.0,Training at home,,,,,,,,,,,,,
9,4,829,B,67.4873860343183,42.66566719501985,3.3743693017159155,0.670190733101907,B,756.7046240001218,Correct,sub_009_day_04_data.csv,1,300,33.0,Training at home,,,,,,,,,,,,,
9,4,830,B,41.89890360668559,14.497000763618152,2.0949451803342796,0.227718355490342,B,576.0071660001813,Correct,sub_009_day_04_data.csv,1,300,33.0,Training at home,,,,,,,,,,,,,
9,4,831,B,70.16009845554895,37.13355409660869,3.5080049227774475,0.5832925037579253,B,538.0956250000963,Correct,sub_009_day_04_data.csv,1,300,33.0,Training at home,,,,,,,,,,,,,
9,4,832,B,68.79147990922277,37.51771896890449,3.439573995461138,0.5893269514607838,B,552.4169999998776,Correct,sub_009_day_04_data.csv,1,300,33.0,Training at home,,,,,,,,,,,,,
9,4,833,A,35.81711838245309,59.63982002578045,1.7908559191226543,0.9368201022720464,A,562.7765409999483,Correct,sub_009_day_04_data.csv,1,300,33.0,Training at home,,,,,,,,,,,,,
9,4,834,A,50.75746907920061,76.25795082550911,2.5378734539600303,1.1978570904561556,A,686.3858749998144,Correct,sub_009_day_04_data.csv,1,300,33.0,Training at home,,,,,,,,,,,,,
9,4,835,A,41.529089897017265,67.37433415808292,2.076454494850863,1.058313566157686,A,431.0783330001868,Correct,sub_009_day_04_data.csv,1,300,33.0,Training at home,,,,,,,,,,,,,
9,4,836,A,30.36583888896478,62.457872050932245,1.5182919444482392,0.9810859599703,A,436.42479200025264,Correct,sub_009_day_04_data.csv,1,300,33.0,Training at home,,,,,,,,,,,,,
9,4,837,A,38.71243634648716,57.24463738617865,1.9356218173243576,0.8991966613491524,A,437.218624000252,Correct,sub_009_day_04_data.csv,1,300,33.0,Training at home,,,,,,,,,,,,,
9,4,838,B,82.39758786515591,53.41846475007965,4.119879393257795,0.8390952821244778,B,514.9628330000269,Correct,sub_009_day_04_data.csv,1,300,33.0,Training at home,,,,,,,,,,,,,
9,4,839,B,81.79537660286621,66.9421263280538,4.089768830143311,1.0515244614394683,B,426.7662909996943,Correct,sub_009_day_04_data.csv,1,300,33.0,Training at home,,,,,,,,,,,,,
9,4,840,B,46.0580147879774,25.90501479068362,2.3029007393988703,0.4069150207877329,B,887.4582910002573,Correct,sub_009_day_04_data.csv,1,300,33.0,Training at home,,,,,,,,,,,,,
9,4,841,A,45.58175708438874,59.85866791256235,2.279087854219437,0.9402577568388848,A,1046.400000000176,Correct,sub_009_day_04_data.csv,1,300,33.0,Training at home,,,,,,,,,,,,,
9,4,842,B,51.7365444206136,37.73630231339441,2.58682722103068,0.592760450607017,B,550.301582999964,Correct,sub_009_day_04_data.csv,1,300,33.0,Training at home,,,,,,,,,,,,,
9,4,843,A,40.17742545354846,60.39520122108506,2.008871272677423,0.9486856023411906,A,1023.1417909999436,Correct,sub_009_day_04_data.csv,1,300,33.0,Training at home,,,,,,,,,,,,,
9,4,844,B,50.797211148535126,21.627379595196217,2.5398605574267563,0.3397220842633311,B,543.8459580000199,Correct,sub_009_day_04_data.csv,1,300,33.0,Training at home,,,,,,,,,,,,,
9,4,845,A,33.51614453602574,64.29960638231212,1.675807226801287,1.0100158551969356,A,575.6612909999603,Correct,sub_009_day_04_data.csv,1,300,33.0,Training at home,,,,,,,,,,,,,
9,4,846,B,85.85634346796445,56.95840250913312,4.292817173398222,0.894700494414515,B,556.0427909999817,Correct,sub_009_day_04_data.csv,1,300,33.0,Training at home,,,,,,,,,,,,,
9,4,847,B,39.634357492953825,30.29225289730888,1.9817178746476911,0.4758295958143484,B,814.9922500001594,Correct,sub_009_day_04_data.csv,1,300,33.0,Training at home,,,,,,,,,,,,,
9,4,848,A,36.699054402481906,62.1464427390261,1.8349527201240952,0.9761940397783158,A,610.8672079999451,Correct,sub_009_day_04_data.csv,1,300,33.0,Training at home,,,,,,,,,,,,,
9,4,849,A,34.89235933046554,61.943151584535265,1.7446179665232768,0.9730007497908748,A,523.1783329995778,Correct,sub_009_day_04_data.csv,1,300,33.0,Training at home,,,,,,,,,,,,,
9,4,850,B,36.76524052075433,20.36162916920457,1.8382620260377167,0.3198397230654635,B,497.4563330001729,Correct,sub_009_day_04_data.csv,1,300,34.0,Training at home,,,,,,,,,,,,,
9,4,851,A,19.535861889246384,44.8227678090131,0.9767930944623192,0.7040743903117832,A,508.0659170002946,Correct,sub_009_day_04_data.csv,1,300,34.0,Training at home,,,,,,,,,,,,,
9,4,852,A,29.532170880973556,61.30546720557816,1.4766085440486778,0.9629840269896718,A,667.2759579996637,Correct,sub_009_day_04_data.csv,1,300,34.0,Training at home,,,,,,,,,,,,,
9,4,853,A,46.31317764825618,68.05624694747532,2.315658882412809,1.069025027205406,A,1052.9672499997105,Correct,sub_009_day_04_data.csv,1,300,34.0,Training at home,,,,,,,,,,,,,
9,4,854,A,23.313357519186415,41.237495801651406,1.1656678759593209,0.64775706931454,A,482.04562399996576,Correct,sub_009_day_04_data.csv,1,300,34.0,Training at home,,,,,,,,,,,,,
9,4,855,B,83.02469805551092,63.78881393576019,4.151234902775546,1.0019923462089522,B,502.7839999997923,Correct,sub_009_day_04_data.csv,1,300,34.0,Training at home,,,,,,,,,,,,,
9,4,856,B,86.87363215283679,59.64561117495633,4.343681607641839,0.9369110694305804,B,919.719540999722,Correct,sub_009_day_04_data.csv,1,300,34.0,Training at home,,,,,,,,,,,,,
9,4,857,A,17.288580825395552,46.70164039810414,0.8644290412697777,0.7335876519263812,A,490.1279160003469,Correct,sub_009_day_04_data.csv,1,300,34.0,Training at home,,,,,,,,,,,,,
9,4,858,A,42.19135169002902,64.08941347633998,2.109567584501451,1.006714152750742,A,693.6922500003675,Correct,sub_009_day_04_data.csv,1,300,34.0,Training at home,,,,,,,,,,,,,
9,4,859,A,22.45073295062552,52.40869329929071,1.122536647531276,0.8232338292664616,A,803.0593749999753,Correct,sub_009_day_04_data.csv,1,300,34.0,Training at home,,,,,,,,,,,,,
9,4,860,B,78.67007633984255,62.396878646243955,3.933503816992128,0.9801278778098692,B,1316.1659159995909,Correct,sub_009_day_04_data.csv,1,300,34.0,Training at home,,,,,,,,,,,,,
9,4,861,A,17.260300126405905,33.944446400362736,0.8630150063202953,0.5331981172077603,A,469.1487909999523,Correct,sub_009_day_04_data.csv,1,300,34.0,Training at home,,,,,,,,,,,,,
9,4,862,A,20.648946516852423,39.462767489133974,1.032447325842621,0.619879702170927,A,491.522041999815,Correct,sub_009_day_04_data.csv,1,300,34.0,Training at home,,,,,,,,,,,,,
9,4,863,B,59.733383806411815,39.44860331739607,2.986669190320591,0.6196572118815472,B,518.4605829999782,Correct,sub_009_day_04_data.csv,1,300,34.0,Training at home,,,,,,,,,,,,,
9,4,864,B,66.61696699840759,58.60730198722183,3.3308483499203794,0.920601346848873,B,548.540833000061,Correct,sub_009_day_04_data.csv,1,300,34.0,Training at home,,,,,,,,,,,,,
9,4,865,B,42.3472962944643,21.698477086358803,2.117364814723215,0.3408388810429563,B,630.1736669997808,Correct,sub_009_day_04_data.csv,1,300,34.0,Training at home,,,,,,,,,,,,,
9,4,866,A,28.818627191163205,44.79113711339251,1.4409313595581603,0.7035775365068352,A,600.632042000143,Correct,sub_009_day_04_data.csv,1,300,34.0,Training at home,,,,,,,,,,,,,
9,4,867,B,45.67027424391557,37.97443291453216,2.2835137121957785,0.5965009973426634,B,498.7370829999236,Correct,sub_009_day_04_data.csv,1,300,34.0,Training at home,,,,,,,,,,,,,
9,4,868,A,13.338267266704271,36.54762654742057,0.6669133633352134,0.5740887753375988,A,486.52279199995974,Correct,sub_009_day_04_data.csv,1,300,34.0,Training at home,,,,,,,,,,,,,
9,4,869,A,15.489490918927489,40.80637421807066,0.7744745459463743,0.6409850273156336,A,498.5565830002088,Correct,sub_009_day_04_data.csv,1,300,34.0,Training at home,,,,,,,,,,,,,
9,4,870,B,46.38108668806762,37.801928031582584,2.319054334403381,0.5937912969777496,B,552.3749580002004,Correct,sub_009_day_04_data.csv,1,300,34.0,Training at home,,,,,,,,,,,,,
9,4,871,B,64.33125153144918,38.98772964955244,3.2165625765724593,0.6124178252358946,B,555.0819999998566,Correct,sub_009_day_04_data.csv,1,300,34.0,Training at home,,,,,,,,,,,,,
9,4,872,B,65.55674911476812,33.247040387352484,3.2778374557384065,0.5222432891725486,B,552.4835420001182,Correct,sub_009_day_04_data.csv,1,300,34.0,Training at home,,,,,,,,,,,,,
9,4,873,A,52.83708788331193,71.74129404821983,2.6418543941655965,1.126909611704563,A,641.2993750000169,Correct,sub_009_day_04_data.csv,1,300,34.0,Training at home,,,,,,,,,,,,,
9,4,874,A,45.19069293105425,65.82125648838029,2.2595346465527126,1.033917879169725,A,445.09724999988975,Correct,sub_009_day_04_data.csv,1,300,34.0,Training at home,,,,,,,,,,,,,
9,4,875,B,43.71597051358559,15.062798711041772,2.18579852567928,0.2366058888655531,B,595.117874999687,Correct,sub_009_day_04_data.csv,1,300,35.0,Training at home,,,,,,,,,,,,,
9,4,876,A,22.93704927947446,52.73065574729161,1.1468524639737232,0.8282912035733185,A,452.5552080003763,Correct,sub_009_day_04_data.csv,1,300,35.0,Training at home,,,,,,,,,,,,,
9,4,877,B,35.31612245847215,21.829123303371475,1.7658061229236075,0.3428910670208879,B,528.0117079996671,Correct,sub_009_day_04_data.csv,1,300,35.0,Training at home,,,,,,,,,,,,,
9,4,878,A,49.55037869498031,74.23773874331873,2.4775189347490154,1.1661236732756424,A,619.3064159997448,Correct,sub_009_day_04_data.csv,1,300,35.0,Training at home,,,,,,,,,,,,,
9,4,879,B,47.80117837141188,33.35764261895416,2.390058918570594,0.5239806249639009,B,483.2457920001616,Correct,sub_009_day_04_data.csv,1,300,35.0,Training at home,,,,,,,,,,,,,
9,4,880,A,25.851775107977353,47.01191464990705,1.2925887553988675,0.7384614284766917,A,380.7169579999936,Correct,sub_009_day_04_data.csv,1,300,35.0,Training at home,,,,,,,,,,,,,
9,4,881,A,22.14795724874356,53.91270447186767,1.107397862437178,0.8468587815198853,A,565.8292079997409,Correct,sub_009_day_04_data.csv,1,300,35.0,Training at home,,,,,,,,,,,,,
9,4,882,B,56.4246209836456,43.13252888076876,2.8212310491822796,0.6775241793128636,A,1446.9220830001177,Incorrect,sub_009_day_04_data.csv,0,300,35.0,Training at home,,,,,,,,,,,,,
9,4,883,B,36.10593194358462,22.02184533423712,1.805296597179231,0.34591833760265,B,1021.9845829997212,Correct,sub_009_day_04_data.csv,1,300,35.0,Training at home,,,,,,,,,,,,,
9,4,884,B,67.7415688197932,37.64401805188001,3.38707844098966,0.591310852816939,B,688.3208329995796,Correct,sub_009_day_04_data.csv,1,300,35.0,Training at home,,,,,,,,,,,,,
9,4,885,B,77.0209828562772,61.68319215042315,3.85104914281386,0.9689173165486848,B,682.1637080001892,Correct,sub_009_day_04_data.csv,1,300,35.0,Training at home,,,,,,,,,,,,,
9,4,886,A,14.909034655832627,36.901372900971026,0.7454517327916313,0.5796454100653402,A,1000.218040999698,Correct,sub_009_day_04_data.csv,1,300,35.0,Training at home,,,,,,,,,,,,,
9,4,887,B,79.86578416177645,60.17758819904281,3.9932892080888225,0.9452673449843236,B,521.928748999926,Correct,sub_009_day_04_data.csv,1,300,35.0,Training at home,,,,,,,,,,,,,
9,4,888,B,52.17787140718765,24.43979658299127,2.6088935703593825,0.3838994270017715,B,892.7388330002941,Correct,sub_009_day_04_data.csv,1,300,35.0,Training at home,,,,,,,,,,,,,
9,4,889,B,74.28854889613805,61.65396314202647,3.714427444806903,0.9684581883584312,B,2533.543916999861,Correct,sub_009_day_04_data.csv,1,300,35.0,Training at home,,,,,,,,,,,,,
9,4,890,B,67.94649910957595,34.616959051345916,3.3973249554787976,0.543761921226635,B,578.787082999952,Correct,sub_009_day_04_data.csv,1,300,35.0,Training at home,,,,,,,,,,,,,
9,4,891,B,51.26113721192291,31.818949993187047,2.563056860596145,0.4998108977176871,B,909.7560830000476,Correct,sub_009_day_04_data.csv,1,300,35.0,Training at home,,,,,,,,,,,,,
9,4,892,B,47.388150256299554,25.777013429571618,2.369407512814978,0.4049043801091381,B,519.8135000000548,Correct,sub_009_day_04_data.csv,1,300,35.0,Training at home,,,,,,,,,,,,,
9,4,893,A,31.228542119394525,42.38626595952055,1.5614271059697262,0.6658019087576643,B,8775.903749999998,Incorrect,sub_009_day_04_data.csv,0,300,35.0,Training at home,,,,,,,,,,,,,
9,4,894,B,89.36613946475595,63.773632928158825,4.468306973237798,1.0017538834991793,B,620.7742920000783,Correct,sub_009_day_04_data.csv,1,300,35.0,Training at home,,,,,,,,,,,,,
9,4,895,A,53.39167443025031,76.16086022272208,2.669583721512516,1.196331994833914,A,642.2852499999863,Correct,sub_009_day_04_data.csv,1,300,35.0,Training at home,,,,,,,,,,,,,
9,4,896,B,68.66757302936387,41.549306365472965,3.4333786514681934,0.6526549781976074,B,627.6109580003322,Correct,sub_009_day_04_data.csv,1,300,35.0,Training at home,,,,,,,,,,,,,
9,4,897,A,59.94713108339827,80.6535168805339,2.9973565541699134,1.2669024805903284,A,649.0584580001268,Correct,sub_009_day_04_data.csv,1,300,35.0,Training at home,,,,,,,,,,,,,
9,4,898,B,69.58963726914307,40.79422363121197,3.479481863457153,0.6407941663435733,B,653.5945000000538,Correct,sub_009_day_04_data.csv,1,300,35.0,Training at home,,,,,,,,,,,,,
9,4,899,A,13.826168276924722,37.47221123532027,0.6913084138462361,0.5886121176532354,A,537.7469160002875,Correct,sub_009_day_04_data.csv,1,300,35.0,Training at home,,,,,,,,,,,,,
