subject,day,trial,cat,x,y,xt,yt,resp,rt,fb,f_name,acc,n_trials,block,session_type,ns_left_digit,ns_right_digit,ns_left_size,ns_right_size,ns_congruent,ns_cue,ns_correct_side,ns_resp,ns_rt,ns_fb,acc_stroop,acc_stroop_mean,resp_key
9,18,3900,B,34.40726561213262,15.037104422725342,1.720363280606631,0.2362022839284826,B,427.0738740015077,Correct,sub_009_day_18_data.csv,1,300,156.0,Training at home,,,,,,,,,,,,,
9,18,3901,B,61.44973387693122,42.29792340856227,3.0724866938465607,0.664414227212215,B,439.08908299636096,Correct,sub_009_day_18_data.csv,1,300,156.0,Training at home,,,,,,,,,,,,,
9,18,3902,A,56.27807644973785,72.85274209703461,2.8139038224868926,1.144368196829579,A,382.150958001148,Correct,sub_009_day_18_data.csv,1,300,156.0,Training at home,,,,,,,,,,,,,
9,18,3903,A,68.24468743669556,85.60016699583484,3.4122343718347783,1.344604278900871,A,342.86708298895974,Correct,sub_009_day_18_data.csv,1,300,156.0,Training at home,,,,,,,,,,,,,
9,18,3904,B,76.49861082031467,45.48812289659719,3.8249305410157337,0.7145257635876968,B,341.0399580025114,Correct,sub_009_day_18_data.csv,1,300,156.0,Training at home,,,,,,,,,,,,,
9,18,3905,A,54.0535444727759,74.20753068677256,2.702677223638795,1.165649166233019,A,418.2797079993179,Correct,sub_009_day_18_data.csv,1,300,156.0,Training at home,,,,,,,,,,,,,
9,18,3906,A,43.70192273939835,75.20607949586537,2.185096136969918,1.1813343342475031,A,349.35124999901745,Correct,sub_009_day_18_data.csv,1,300,156.0,Training at home,,,,,,,,,,,,,
9,18,3907,B,76.89614223031361,52.08416989116027,3.844807111515681,0.818136227491959,B,388.2522080093622,Correct,sub_009_day_18_data.csv,1,300,156.0,Training at home,,,,,,,,,,,,,
9,18,3908,A,47.84432346137611,59.84664017307368,2.392216173068806,0.9400688255488004,A,361.7385830002604,Correct,sub_009_day_18_data.csv,1,300,156.0,Training at home,,,,,,,,,,,,,
9,18,3909,A,27.13701948099628,39.2713714827913,1.356850974049814,0.6168732607336642,A,448.2650830032071,Correct,sub_009_day_18_data.csv,1,300,156.0,Training at home,,,,,,,,,,,,,
9,18,3910,A,53.018031368032354,73.41718650432644,2.6509015684016175,1.1532344688461182,A,442.3568750062259,Correct,sub_009_day_18_data.csv,1,300,156.0,Training at home,,,,,,,,,,,,,
9,18,3911,B,54.0362005359401,43.17959501573718,2.701810026797005,0.6782634924321118,B,394.4621660048142,Correct,sub_009_day_18_data.csv,1,300,156.0,Training at home,,,,,,,,,,,,,
9,18,3912,B,42.51065102921427,15.568491169669493,2.1255325514607137,0.2445492874305562,B,403.8515419961186,Correct,sub_009_day_18_data.csv,1,300,156.0,Training at home,,,,,,,,,,,,,
9,18,3913,A,35.88970036158503,67.70698142026221,1.794485018079251,1.063538777133182,A,357.8049159987131,Correct,sub_009_day_18_data.csv,1,300,156.0,Training at home,,,,,,,,,,,,,
9,18,3914,A,31.918931907587407,53.44541104043775,1.5959465953793706,0.8395185534636304,A,352.22554100619163,Correct,sub_009_day_18_data.csv,1,300,156.0,Training at home,,,,,,,,,,,,,
9,18,3915,B,74.92370079232464,58.07655317614059,3.746185039616232,0.9122643640199012,B,351.5349170047557,Correct,sub_009_day_18_data.csv,1,300,156.0,Training at home,,,,,,,,,,,,,
9,18,3916,B,77.99478292521901,47.229201387542915,3.8997391462609503,0.7418745605700885,B,338.01512500212993,Correct,sub_009_day_18_data.csv,1,300,156.0,Training at home,,,,,,,,,,,,,
9,18,3917,A,10.637261729154943,32.386343815755865,0.5318630864577472,0.5087234990410592,A,362.68041700532194,Correct,sub_009_day_18_data.csv,1,300,156.0,Training at home,,,,,,,,,,,,,
9,18,3918,A,25.99666205555361,57.63691136604291,1.2998331027776806,0.9053584866158324,A,297.3712919920217,Correct,sub_009_day_18_data.csv,1,300,156.0,Training at home,,,,,,,,,,,,,
9,18,3919,B,31.866715821409365,18.696152714824848,1.5933357910704684,0.293678480096433,B,381.59041600010823,Correct,sub_009_day_18_data.csv,1,300,156.0,Training at home,,,,,,,,,,,,,
9,18,3920,B,65.11994079938947,32.203252446917915,3.2559970399694738,0.5058475065446741,B,465.310874991701,Correct,sub_009_day_18_data.csv,1,300,156.0,Training at home,,,,,,,,,,,,,
9,18,3921,A,43.3431637352578,54.87919013976062,2.1671581867628897,0.8620403028901467,A,400.5354580003768,Correct,sub_009_day_18_data.csv,1,300,156.0,Training at home,,,,,,,,,,,,,
9,18,3922,A,55.22644652391059,63.384600685203544,2.7613223261955295,0.99564297931679,A,391.7788329999894,Correct,sub_009_day_18_data.csv,1,300,156.0,Training at home,,,,,,,,,,,,,
9,18,3923,A,35.11698709728569,65.30925173058937,1.7558493548642844,1.02587532724133,A,385.6384579994483,Correct,sub_009_day_18_data.csv,1,300,156.0,Training at home,,,,,,,,,,,,,
9,18,3924,A,46.55675100003205,54.83493343425919,2.327837550001602,0.8613451201857701,A,315.29254199995194,Correct,sub_009_day_18_data.csv,1,300,156.0,Training at home,,,,,,,,,,,,,
9,18,3925,A,18.82343856343764,34.23688582921501,0.941171928171882,0.5377917450142718,A,664.8772079934133,Correct,sub_009_day_18_data.csv,1,300,157.0,Training at home,,,,,,,,,,,,,
9,18,3926,A,14.727755997523374,42.228640689042805,0.7363877998761688,0.6633259367988995,A,392.93433299462777,Correct,sub_009_day_18_data.csv,1,300,157.0,Training at home,,,,,,,,,,,,,
9,18,3927,A,19.813108790159855,40.67382345411102,0.9906554395079928,0.6389029247842171,A,394.09899899328593,Correct,sub_009_day_18_data.csv,1,300,157.0,Training at home,,,,,,,,,,,,,
9,18,3928,A,58.92749595845133,75.28140882867868,2.9463747979225667,1.1825176046403338,A,395.7556660025148,Correct,sub_009_day_18_data.csv,1,300,157.0,Training at home,,,,,,,,,,,,,
9,18,3929,B,52.36280143781275,33.921544113402305,2.618140071890638,0.5328383689254339,B,479.43374900205527,Correct,sub_009_day_18_data.csv,1,300,157.0,Training at home,,,,,,,,,,,,,
9,18,3930,A,33.455269790172366,44.50330852685043,1.6727634895086183,0.6990563356419666,A,380.89579199731816,Correct,sub_009_day_18_data.csv,1,300,157.0,Training at home,,,,,,,,,,,,,
9,18,3931,B,76.44756809452704,50.50889943946446,3.822378404726352,0.7933919370996357,B,337.5285000074655,Correct,sub_009_day_18_data.csv,1,300,157.0,Training at home,,,,,,,,,,,,,
9,18,3932,B,74.29614861173201,47.7365871089653,3.714807430586601,0.7498445568448731,B,475.86270798638,Correct,sub_009_day_18_data.csv,1,300,157.0,Training at home,,,,,,,,,,,,,
9,18,3933,B,84.97765023847913,59.96374909563433,4.248882511923956,0.941908368202732,B,433.1012079928769,Correct,sub_009_day_18_data.csv,1,300,157.0,Training at home,,,,,,,,,,,,,
9,18,3934,A,55.103935879801966,64.23333752892995,2.7551967939900983,1.0089749064821996,A,380.6020000047283,Correct,sub_009_day_18_data.csv,1,300,157.0,Training at home,,,,,,,,,,,,,
9,18,3935,B,60.31293487550912,28.36425470860813,3.015646743775456,0.4455446710855649,B,408.779333010898,Correct,sub_009_day_18_data.csv,1,300,157.0,Training at home,,,,,,,,,,,,,
9,18,3936,A,50.97647480116612,78.68741444370411,2.548823740058306,1.236019015731581,A,483.725708007114,Correct,sub_009_day_18_data.csv,1,300,157.0,Training at home,,,,,,,,,,,,,
9,18,3937,A,20.023638070548103,42.201031653510725,1.0011819035274052,0.6628922550828981,A,353.18825001013465,Correct,sub_009_day_18_data.csv,1,300,157.0,Training at home,,,,,,,,,,,,,
9,18,3938,A,45.66463660960978,61.92073570026871,2.283231830480489,0.9726486419041972,A,359.46737400081474,Correct,sub_009_day_18_data.csv,1,300,157.0,Training at home,,,,,,,,,,,,,
9,18,3939,A,28.856877754433427,38.57929220102977,1.4428438877216712,0.6060021047972458,A,727.0362499984913,Correct,sub_009_day_18_data.csv,1,300,157.0,Training at home,,,,,,,,,,,,,
9,18,3940,B,57.84229018197733,31.93417345396713,2.8921145090988665,0.5016208236072266,B,390.9104169870261,Correct,sub_009_day_18_data.csv,1,300,157.0,Training at home,,,,,,,,,,,,,
9,18,3941,A,31.227083166506645,53.81302457521305,1.5613541583253323,0.8452930133646815,A,324.92145799915306,Correct,sub_009_day_18_data.csv,1,300,157.0,Training at home,,,,,,,,,,,,,
9,18,3942,B,85.2203025669017,64.45321630517648,4.261015128345084,1.0124287542228816,B,427.1732909983257,Correct,sub_009_day_18_data.csv,1,300,157.0,Training at home,,,,,,,,,,,,,
9,18,3943,B,37.864927236161606,23.10692466657811,1.8932463618080804,0.3629627238978728,B,593.4233330044663,Correct,sub_009_day_18_data.csv,1,300,157.0,Training at home,,,,,,,,,,,,,
9,18,3944,A,47.80221560506772,70.09896157118476,2.390110780253386,1.1011119134815364,A,827.5568329991074,Correct,sub_009_day_18_data.csv,1,300,157.0,Training at home,,,,,,,,,,,,,
9,18,3945,A,34.409936775534135,67.41365748321047,1.7204968387767068,1.0589312555043628,A,389.3549159984104,Correct,sub_009_day_18_data.csv,1,300,157.0,Training at home,,,,,,,,,,,,,
9,18,3946,A,37.30193083848292,47.74975998245481,1.865096541924146,0.7500514758577796,A,398.833833009121,Correct,sub_009_day_18_data.csv,1,300,157.0,Training at home,,,,,,,,,,,,,
9,18,3947,B,58.91012712951772,50.42608088942174,2.945506356475886,0.79209102635766,B,748.7112080125371,Correct,sub_009_day_18_data.csv,1,300,157.0,Training at home,,,,,,,,,,,,,
9,18,3948,A,66.17623146461051,89.64124152845596,3.3088115732305257,1.4080813292223278,A,618.9139990019612,Correct,sub_009_day_18_data.csv,1,300,157.0,Training at home,,,,,,,,,,,,,
9,18,3949,A,43.35165203102023,58.65903892033236,2.1675826015510116,0.9214140286937692,A,458.6982079927111,Correct,sub_009_day_18_data.csv,1,300,157.0,Training at home,,,,,,,,,,,,,
9,18,3950,B,79.02064748444067,59.430081054259574,3.951032374222034,0.9335255302115392,B,1012.691707990598,Correct,sub_009_day_18_data.csv,1,300,158.0,Training at home,,,,,,,,,,,,,
9,18,3951,B,48.26237254640469,27.14154826552127,2.4131186273202343,0.426338443190072,B,443.94541598740034,Correct,sub_009_day_18_data.csv,1,300,158.0,Training at home,,,,,,,,,,,,,
9,18,3952,A,25.648859176735243,53.914070951333514,1.282442958836762,0.8468802461291411,A,386.43925001088064,Correct,sub_009_day_18_data.csv,1,300,158.0,Training at home,,,,,,,,,,,,,
9,18,3953,A,33.505427497756685,59.221101823498024,1.675271374887834,0.9302428921309724,A,349.50566600309685,Correct,sub_009_day_18_data.csv,1,300,158.0,Training at home,,,,,,,,,,,,,
9,18,3954,B,58.26215663784435,42.10280819361368,2.9131078318922174,0.6613493645827844,B,381.4672909938963,Correct,sub_009_day_18_data.csv,1,300,158.0,Training at home,,,,,,,,,,,,,
9,18,3955,A,47.27857593210531,63.2452919267069,2.3639287966052653,0.9934547224554212,A,384.828958005528,Correct,sub_009_day_18_data.csv,1,300,158.0,Training at home,,,,,,,,,,,,,
9,18,3956,A,46.99687723312868,74.27399705789489,2.349843861656434,1.1666932175491629,A,405.7907499955036,Correct,sub_009_day_18_data.csv,1,300,158.0,Training at home,,,,,,,,,,,,,
9,18,3957,A,22.28389694411836,37.06135058957004,1.1141948472059182,0.582158333721545,A,509.28795798972715,Correct,sub_009_day_18_data.csv,1,300,158.0,Training at home,,,,,,,,,,,,,
9,18,3958,B,62.6852580329886,42.46042998162201,3.13426290164943,0.6669668744926376,B,1243.949124997016,Correct,sub_009_day_18_data.csv,1,300,158.0,Training at home,,,,,,,,,,,,,
9,18,3959,B,61.79819056627188,37.30528371016402,3.089909528313594,0.5859900262196714,B,487.37866699229926,Correct,sub_009_day_18_data.csv,1,300,158.0,Training at home,,,,,,,,,,,,,
9,18,3960,A,48.32080517813105,75.3799297150448,2.416040258906553,1.1840651671044984,A,357.142875000136,Correct,sub_009_day_18_data.csv,1,300,158.0,Training at home,,,,,,,,,,,,,
9,18,3961,A,49.52256543305504,76.2488227742171,2.476128271652752,1.197713707361753,A,369.8135410086252,Correct,sub_009_day_18_data.csv,1,300,158.0,Training at home,,,,,,,,,,,,,
9,18,3962,B,61.707138160588535,52.690397861167384,3.0853569080294267,0.8276588341768341,B,1195.8486660005292,Correct,sub_009_day_18_data.csv,1,300,158.0,Training at home,,,,,,,,,,,,,
9,18,3963,A,39.76491287097108,61.44673178275161,1.988245643548554,0.9652030057789746,A,402.666374007822,Correct,sub_009_day_18_data.csv,1,300,158.0,Training at home,,,,,,,,,,,,,
9,18,3964,B,62.21137112610535,38.1035235440974,3.1105685563052674,0.5985287482101106,B,541.6863329883199,Correct,sub_009_day_18_data.csv,1,300,158.0,Training at home,,,,,,,,,,,,,
9,18,3965,B,89.04630123063177,63.26799968654075,4.452315061531589,0.9938114151127888,B,692.1469990047626,Correct,sub_009_day_18_data.csv,1,300,158.0,Training at home,,,,,,,,,,,,,
9,18,3966,A,46.413245077369425,69.90793691255793,2.320662253868471,1.0981113051605536,A,420.8927500003483,Correct,sub_009_day_18_data.csv,1,300,158.0,Training at home,,,,,,,,,,,,,
9,18,3967,A,21.17048734413999,47.57119613148886,1.0585243672069995,0.747246601445823,A,352.84762499213684,Correct,sub_009_day_18_data.csv,1,300,158.0,Training at home,,,,,,,,,,,,,
9,18,3968,A,59.773602966450504,75.15525689936294,2.988680148322526,1.1805360147684612,A,551.9395410083234,Correct,sub_009_day_18_data.csv,1,300,158.0,Training at home,,,,,,,,,,,,,
9,18,3969,A,55.42155284796761,82.16032462321115,2.7710776423983803,1.2905713612641636,A,465.3295409952989,Correct,sub_009_day_18_data.csv,1,300,158.0,Training at home,,,,,,,,,,,,,
9,18,3970,A,31.871882569276774,61.64381969427919,1.5935941284638389,0.9682988554538065,A,358.72399900108576,Correct,sub_009_day_18_data.csv,1,300,158.0,Training at home,,,,,,,,,,,,,
9,18,3971,A,17.666392964635087,46.6093979341392,0.8833196482317544,0.7321387106906749,A,297.31195799831767,Correct,sub_009_day_18_data.csv,1,300,158.0,Training at home,,,,,,,,,,,,,
9,18,3972,B,63.41495720781859,36.47496779530292,3.1707478603909296,0.5729474543282398,B,345.1867910043802,Correct,sub_009_day_18_data.csv,1,300,158.0,Training at home,,,,,,,,,,,,,
9,18,3973,A,24.508243381194134,41.79062965305084,1.2254121690597066,0.6564456755345814,A,404.7392909997143,Correct,sub_009_day_18_data.csv,1,300,158.0,Training at home,,,,,,,,,,,,,
9,18,3974,A,34.775669837680645,48.29655253587841,1.7387834918840324,0.7586404732021456,A,661.1895410023862,Correct,sub_009_day_18_data.csv,1,300,158.0,Training at home,,,,,,,,,,,,,
9,18,3975,A,15.146308856428432,43.23437015082288,0.7573154428214217,0.6791238982420348,A,443.7959999922896,Correct,sub_009_day_18_data.csv,1,300,159.0,Training at home,,,,,,,,,,,,,
9,18,3976,A,19.704640021926156,50.58910022566097,0.9852320010963078,0.7946517281032712,A,411.7992909887107,Correct,sub_009_day_18_data.csv,1,300,159.0,Training at home,,,,,,,,,,,,,
9,18,3977,B,58.72660780685252,35.99356300668865,2.936330390342626,0.5653855655916721,B,373.3742080075899,Correct,sub_009_day_18_data.csv,1,300,159.0,Training at home,,,,,,,,,,,,,
9,18,3978,B,62.75088079059761,38.827155387934866,3.137544039529881,0.6098955306326277,B,993.2439580006758,Correct,sub_009_day_18_data.csv,1,300,159.0,Training at home,,,,,,,,,,,,,
9,18,3979,A,19.65506513055343,50.67567703555552,0.9827532565276716,0.796011673452951,A,376.3912499998696,Correct,sub_009_day_18_data.csv,1,300,159.0,Training at home,,,,,,,,,,,,,
9,18,3980,B,86.84745631010476,61.59250391684968,4.342372815505238,0.9674927891068776,B,401.32104100484867,Correct,sub_009_day_18_data.csv,1,300,159.0,Training at home,,,,,,,,,,,,,
9,18,3981,A,56.142113541427264,77.67691148612802,2.807105677071363,1.2201460723918225,A,441.99045799905434,Correct,sub_009_day_18_data.csv,1,300,159.0,Training at home,,,,,,,,,,,,,
9,18,3982,A,37.23472937118875,50.77573476433935,1.861736468559438,0.7975833765813618,A,730.3952080110321,Correct,sub_009_day_18_data.csv,1,300,159.0,Training at home,,,,,,,,,,,,,
9,18,3983,B,58.02138516518531,44.21590009498772,2.901069258259265,0.6945417345513683,B,416.9645410001976,Correct,sub_009_day_18_data.csv,1,300,159.0,Training at home,,,,,,,,,,,,,
9,18,3984,A,42.72363936955348,50.14036479760028,2.136181968477674,0.7876030084822665,B,419.49204199772794,Incorrect,sub_009_day_18_data.csv,0,300,159.0,Training at home,,,,,,,,,,,,,
9,18,3985,B,70.58695751697468,61.30889531729687,3.529347875848734,0.9630378756426278,B,457.3398329957854,Correct,sub_009_day_18_data.csv,1,300,159.0,Training at home,,,,,,,,,,,,,
9,18,3986,B,74.70206728682936,64.38573726593299,3.735103364341468,1.0113687959530884,B,438.9315419975901,Correct,sub_009_day_18_data.csv,1,300,159.0,Training at home,,,,,,,,,,,,,
9,18,3987,A,58.08364077049444,71.83983257363964,2.9041820385247217,1.128457451242335,B,736.9480410125107,Incorrect,sub_009_day_18_data.csv,0,300,159.0,Training at home,,,,,,,,,,,,,
9,18,3988,B,49.965014656045135,19.43033104177579,2.4982507328022567,0.3052109262883026,B,410.22700000030454,Correct,sub_009_day_18_data.csv,1,300,159.0,Training at home,,,,,,,,,,,,,
9,18,3989,B,56.635971359964095,31.62698483638355,2.8317985679982045,0.4967955160858917,B,349.0198329964187,Correct,sub_009_day_18_data.csv,1,300,159.0,Training at home,,,,,,,,,,,,,
9,18,3990,B,60.3811727372902,28.557212821747676,3.01905863686451,0.4485756500390137,B,349.2965410114266,Correct,sub_009_day_18_data.csv,1,300,159.0,Training at home,,,,,,,,,,,,,
9,18,3991,A,53.05177748675768,80.87062063220459,2.652588874337884,1.2703127383469055,A,397.88424999278504,Correct,sub_009_day_18_data.csv,1,300,159.0,Training at home,,,,,,,,,,,,,
9,18,3992,B,43.02074616746146,28.722964108313658,2.151037308373073,0.4511792651600074,B,363.9595830027247,Correct,sub_009_day_18_data.csv,1,300,159.0,Training at home,,,,,,,,,,,,,
9,18,3993,B,42.64181825579252,27.96190048834919,2.132090912789626,0.4392245057730333,B,339.8652920004679,Correct,sub_009_day_18_data.csv,1,300,159.0,Training at home,,,,,,,,,,,,,
9,18,3994,A,62.9656862000699,80.29268691713494,3.148284310003495,1.261234576779282,A,373.54029099515174,Correct,sub_009_day_18_data.csv,1,300,159.0,Training at home,,,,,,,,,,,,,
9,18,3995,A,58.27853488070046,76.22704979771419,2.9139267440350234,1.197371698246611,A,406.8922489968827,Correct,sub_009_day_18_data.csv,1,300,159.0,Training at home,,,,,,,,,,,,,
9,18,3996,B,40.761126333991015,17.90163028153237,2.0380563166995507,0.2811981508987133,B,344.7794999956386,Correct,sub_009_day_18_data.csv,1,300,159.0,Training at home,,,,,,,,,,,,,
9,18,3997,A,67.21147495719408,83.65926148256939,3.360573747859704,1.3141166063919376,A,354.91641600674484,Correct,sub_009_day_18_data.csv,1,300,159.0,Training at home,,,,,,,,,,,,,
9,18,3998,B,84.68894563145065,60.07819004286164,4.234447281572533,0.943706002398128,B,334.2533329996513,Correct,sub_009_day_18_data.csv,1,300,159.0,Training at home,,,,,,,,,,,,,
9,18,3999,B,58.590117707776216,39.34242596710002,2.929505885388811,0.6179893819632087,B,371.19441700633615,Correct,sub_009_day_18_data.csv,1,300,159.0,Training at home,,,,,,,,,,,,,
9,18,4000,B,55.760043181754895,25.785857784473787,2.788002159087745,0.4050433069110702,B,332.90141700126696,Correct,sub_009_day_18_data.csv,1,300,160.0,Training at home,,,,,,,,,,,,,
9,18,4001,A,35.10520328203343,44.43349401493913,1.7552601641016714,0.697959691853294,A,620.0622909964295,Correct,sub_009_day_18_data.csv,1,300,160.0,Training at home,,,,,,,,,,,,,
9,18,4002,A,23.86919574068941,54.269133199711675,1.1934597870344703,0.8524575508845007,A,507.171000004746,Correct,sub_009_day_18_data.csv,1,300,160.0,Training at home,,,,,,,,,,,,,
9,18,4003,A,44.470567012538666,71.43126730995849,2.223528350626933,1.1220397230878718,A,425.6357499980368,Correct,sub_009_day_18_data.csv,1,300,160.0,Training at home,,,,,,,,,,,,,
9,18,4004,A,31.645926094463984,42.1411064787913,1.582296304723199,0.6619509526395799,A,385.6032499897992,Correct,sub_009_day_18_data.csv,1,300,160.0,Training at home,,,,,,,,,,,,,
9,18,4005,B,81.80523527957898,61.37853031665914,4.090261763978949,0.9641316996547736,B,426.03624900220893,Correct,sub_009_day_18_data.csv,1,300,160.0,Training at home,,,,,,,,,,,,,
9,18,4006,B,51.43600666827509,27.361631061440185,2.571800333413754,0.4297954956642738,B,530.752582999412,Correct,sub_009_day_18_data.csv,1,300,160.0,Training at home,,,,,,,,,,,,,
9,18,4007,B,47.63007926597483,21.426005254313104,2.381503963298741,0.3365589035136318,B,430.66733299929183,Correct,sub_009_day_18_data.csv,1,300,160.0,Training at home,,,,,,,,,,,,,
9,18,4008,B,46.85887096408291,26.0429670335922,2.3429435482041456,0.4090819695520721,B,346.38124899356626,Correct,sub_009_day_18_data.csv,1,300,160.0,Training at home,,,,,,,,,,,,,
9,18,4009,A,44.558418515091816,64.97074175496198,2.227920925754591,1.020558024978341,A,426.4066659961827,Correct,sub_009_day_18_data.csv,1,300,160.0,Training at home,,,,,,,,,,,,,
9,18,4010,B,69.92582347623114,41.51350062243719,3.496291173811557,0.6520925429012199,B,366.280000002007,Correct,sub_009_day_18_data.csv,1,300,160.0,Training at home,,,,,,,,,,,,,
9,18,4011,A,28.42418942224874,43.76413167006523,1.421209471112437,0.6874453727270666,A,483.6373750003986,Correct,sub_009_day_18_data.csv,1,300,160.0,Training at home,,,,,,,,,,,,,
9,18,4012,A,40.242254458051775,55.67877726240993,2.0121127229025886,0.8746001880422472,A,1713.0825410131365,Correct,sub_009_day_18_data.csv,1,300,160.0,Training at home,,,,,,,,,,,,,
9,18,4013,B,46.02870491955173,17.338664770646524,2.3014352459775864,0.2723551093325964,B,381.3999989943113,Correct,sub_009_day_18_data.csv,1,300,160.0,Training at home,,,,,,,,,,,,,
9,18,4014,B,61.93877673073643,45.305401529487085,3.0969388365368213,0.711655583064862,B,472.4567079974804,Correct,sub_009_day_18_data.csv,1,300,160.0,Training at home,,,,,,,,,,,,,
9,18,4015,B,57.11172361851471,25.362374484841588,2.8555861809257355,0.3983912467958577,B,640.5911239999114,Correct,sub_009_day_18_data.csv,1,300,160.0,Training at home,,,,,,,,,,,,,
9,18,4016,B,61.82433045002771,36.06894164547053,3.091216522501386,0.5665696104808458,B,399.4411250023404,Correct,sub_009_day_18_data.csv,1,300,160.0,Training at home,,,,,,,,,,,,,
9,18,4017,A,53.17427290315,66.26914794327577,2.6587136451574995,1.0409533416912515,A,423.4443330060458,Correct,sub_009_day_18_data.csv,1,300,160.0,Training at home,,,,,,,,,,,,,
9,18,4018,B,72.19530098575538,61.17620882915723,3.609765049287769,0.9609536411607768,B,429.4657080026809,Correct,sub_009_day_18_data.csv,1,300,160.0,Training at home,,,,,,,,,,,,,
9,18,4019,A,36.3683701941951,44.84871978341689,1.8184185097097552,0.7044820429724487,A,919.459958007792,Correct,sub_009_day_18_data.csv,1,300,160.0,Training at home,,,,,,,,,,,,,
9,18,4020,B,62.233094806391875,33.511471544861585,3.1116547403195938,0.5263969640816027,B,817.3246660007862,Correct,sub_009_day_18_data.csv,1,300,160.0,Training at home,,,,,,,,,,,,,
9,18,4021,B,39.449683857398014,21.75796333923942,1.9724841928699008,0.341773288918153,A,548.5910829884233,Incorrect,sub_009_day_18_data.csv,0,300,160.0,Training at home,,,,,,,,,,,,,
9,18,4022,A,17.408941064168523,43.41489314427288,0.8704470532084261,0.6819595467921679,A,405.3100000019185,Correct,sub_009_day_18_data.csv,1,300,160.0,Training at home,,,,,,,,,,,,,
9,18,4023,B,55.66084077740634,45.81222902381045,2.7830420388703168,0.7196168107288802,B,433.4251249965746,Correct,sub_009_day_18_data.csv,1,300,160.0,Training at home,,,,,,,,,,,,,
9,18,4024,B,52.32795468933348,36.11689329568438,2.616397734466674,0.5673228332410425,B,347.39437499956694,Correct,sub_009_day_18_data.csv,1,300,160.0,Training at home,,,,,,,,,,,,,
9,18,4025,B,41.62328551360619,26.361747661506875,2.0811642756803095,0.4140893639458894,B,434.9424989923136,Correct,sub_009_day_18_data.csv,1,300,161.0,Training at home,,,,,,,,,,,,,
9,18,4026,A,27.665765568282065,59.415998295675955,1.3832882784141032,0.9333043187569964,A,373.2690000033472,Correct,sub_009_day_18_data.csv,1,300,161.0,Training at home,,,,,,,,,,,,,
9,18,4027,A,19.60600350887498,46.6815181482748,0.980300175443749,0.7332715723651936,A,344.8131659970386,Correct,sub_009_day_18_data.csv,1,300,161.0,Training at home,,,,,,,,,,,,,
9,18,4028,A,16.66783521154075,35.417661011364956,0.8333917605770376,0.556339318203189,A,350.5020830052672,Correct,sub_009_day_18_data.csv,1,300,161.0,Training at home,,,,,,,,,,,,,
9,18,4029,B,39.87490610393036,20.37742002615184,1.993745305196518,0.3200877652663608,B,528.6656660027802,Correct,sub_009_day_18_data.csv,1,300,161.0,Training at home,,,,,,,,,,,,,
9,18,4030,A,59.55323055751336,80.18837305894239,2.977661527875668,1.2595960185264554,A,681.1987499968382,Correct,sub_009_day_18_data.csv,1,300,161.0,Training at home,,,,,,,,,,,,,
9,18,4031,A,31.37282860191925,53.69061241472128,1.5686414300959624,0.8433701676441265,A,921.6995000024326,Correct,sub_009_day_18_data.csv,1,300,161.0,Training at home,,,,,,,,,,,,,
9,18,4032,A,55.07985482605597,82.64618454176447,2.753992741302799,1.298203231018168,A,687.8227499983041,Correct,sub_009_day_18_data.csv,1,300,161.0,Training at home,,,,,,,,,,,,,
9,18,4033,A,58.208318283808666,71.50474448999469,2.9104159141904336,1.123193899932913,A,1334.3281660054345,Correct,sub_009_day_18_data.csv,1,300,161.0,Training at home,,,,,,,,,,,,,
9,18,4034,B,71.52930826076597,51.70961088518274,3.5764654130382985,0.8122526683843845,B,3018.1307080056285,Correct,sub_009_day_18_data.csv,1,300,161.0,Training at home,,,,,,,,,,,,,
9,18,4035,A,63.7221481338031,89.1717157717235,3.186107406690155,1.400706035882218,A,633.9130830019712,Correct,sub_009_day_18_data.csv,1,300,161.0,Training at home,,,,,,,,,,,,,
9,18,4036,B,73.4007128139409,40.94851406651206,3.670035640697045,0.643217754833863,B,604.0801250055665,Correct,sub_009_day_18_data.csv,1,300,161.0,Training at home,,,,,,,,,,,,,
9,18,4037,B,70.7865400128498,59.14826564758607,3.5393270006424897,0.9290987841551696,B,712.3882080049952,Correct,sub_009_day_18_data.csv,1,300,161.0,Training at home,,,,,,,,,,,,,
9,18,4038,B,58.497909000494104,33.822250830086105,2.9248954500247053,0.5312786736783489,B,463.4242909960449,Correct,sub_009_day_18_data.csv,1,300,161.0,Training at home,,,,,,,,,,,,,
9,18,4039,A,28.752779999696703,59.26925098183295,1.4376389999848354,0.9309992173414802,A,936.7547500005458,Correct,sub_009_day_18_data.csv,1,300,161.0,Training at home,,,,,,,,,,,,,
9,18,4040,B,81.0859446378781,51.667335060098715,4.054297231893905,0.8115886012768425,B,575.2307499933522,Correct,sub_009_day_18_data.csv,1,300,161.0,Training at home,,,,,,,,,,,,,
9,18,4041,A,21.671058793701967,36.56963039134427,1.0835529396850985,0.5744344109097059,A,714.0773329883814,Correct,sub_009_day_18_data.csv,1,300,161.0,Training at home,,,,,,,,,,,,,
9,18,4042,B,44.30883996726433,14.957829192979776,2.2154419983632168,0.234957031531581,B,536.813541999436,Correct,sub_009_day_18_data.csv,1,300,161.0,Training at home,,,,,,,,,,,,,
9,18,4043,B,43.61657624300587,16.84275510850145,2.1808288121502937,0.2645653785754006,B,5425.238208001247,Correct,sub_009_day_18_data.csv,1,300,161.0,Training at home,,,,,,,,,,,,,
9,18,4044,B,62.46017872119472,31.473538516609345,3.123008936059736,0.4943851869312765,B,1196.8924579996385,Correct,sub_009_day_18_data.csv,1,300,161.0,Training at home,,,,,,,,,,,,,
9,18,4045,A,45.63612309793745,64.898171198499,2.2818061548968727,1.0194180893430858,A,673.4947489894694,Correct,sub_009_day_18_data.csv,1,300,161.0,Training at home,,,,,,,,,,,,,
9,18,4046,A,34.321083549668046,60.08029598040144,1.7160541774834024,0.9437390823876476,A,860.4091250017518,Correct,sub_009_day_18_data.csv,1,300,161.0,Training at home,,,,,,,,,,,,,
9,18,4047,A,29.721900195781817,49.997443803250945,1.4860950097890906,0.7853580107528085,A,622.0534169988241,Correct,sub_009_day_18_data.csv,1,300,161.0,Training at home,,,,,,,,,,,,,
9,18,4048,B,41.208340870012016,14.276838373831982,2.060417043500601,0.224260052758597,B,482.77816599875223,Correct,sub_009_day_18_data.csv,1,300,161.0,Training at home,,,,,,,,,,,,,
9,18,4049,A,57.65133809021573,75.52639321795417,2.882566904510787,1.186365810428294,A,626.1678330047289,Correct,sub_009_day_18_data.csv,1,300,161.0,Training at home,,,,,,,,,,,,,
9,18,4050,B,50.10468982110484,34.08901910111896,2.505234491055242,0.5354690598807872,B,1007.3219159967266,Correct,sub_009_day_18_data.csv,1,300,162.0,Training at home,,,,,,,,,,,,,
9,18,4051,B,62.222432438359014,46.850748238928595,3.1111216219179507,0.7359298324130149,B,723.1915000011213,Correct,sub_009_day_18_data.csv,1,300,162.0,Training at home,,,,,,,,,,,,,
9,18,4052,B,68.75863802443509,38.0295822180734,3.437931901221754,0.5973672805769422,B,361.8801659904421,Correct,sub_009_day_18_data.csv,1,300,162.0,Training at home,,,,,,,,,,,,,
9,18,4053,A,52.61380587503149,66.11084751500138,2.6306902937515746,1.0384667643786167,A,416.6265829990152,Correct,sub_009_day_18_data.csv,1,300,162.0,Training at home,,,,,,,,,,,,,
9,18,4054,B,66.32499021895835,46.99187900405874,3.3162495109479178,0.7381467092876567,B,430.2150830044411,Correct,sub_009_day_18_data.csv,1,300,162.0,Training at home,,,,,,,,,,,,,
9,18,4055,B,49.70495901162832,30.42630546935569,2.485247950581416,0.4779352886920339,B,545.7386660127668,Correct,sub_009_day_18_data.csv,1,300,162.0,Training at home,,,,,,,,,,,,,
9,18,4056,B,54.196235873623834,42.791651768371494,2.7098117936811916,0.6721696941524428,B,453.7019160052296,Correct,sub_009_day_18_data.csv,1,300,162.0,Training at home,,,,,,,,,,,,,
9,18,4057,B,45.08568784403449,21.483967720283008,2.254284392201724,0.3374693758000068,B,859.4709999888437,Correct,sub_009_day_18_data.csv,1,300,162.0,Training at home,,,,,,,,,,,,,
9,18,4058,B,47.72138093300195,28.271764562870928,2.386069046650098,0.4440918392736777,B,547.8412079974078,Correct,sub_009_day_18_data.csv,1,300,162.0,Training at home,,,,,,,,,,,,,
9,18,4059,B,69.94039524707,48.88245902199015,3.4970197623535,0.7678438707644419,B,412.73583300062455,Correct,sub_009_day_18_data.csv,1,300,162.0,Training at home,,,,,,,,,,,,,
9,18,4060,A,59.50737267348045,76.54942763632042,2.9753686336740226,1.2024355974938383,A,404.50287399289664,Correct,sub_009_day_18_data.csv,1,300,162.0,Training at home,,,,,,,,,,,,,
9,18,4061,A,57.29259010436,68.1046730263055,2.8646295052179997,1.0697857022728816,A,520.7228329963982,Correct,sub_009_day_18_data.csv,1,300,162.0,Training at home,,,,,,,,,,,,,
9,18,4062,A,47.02199322638686,56.893993279944105,2.351099661319343,0.8936887566082972,A,384.1657080047298,Correct,sub_009_day_18_data.csv,1,300,162.0,Training at home,,,,,,,,,,,,,
9,18,4063,B,55.10674458383532,42.56410110797584,2.7553372291917664,0.6685953367373505,B,544.1261660016607,Correct,sub_009_day_18_data.csv,1,300,162.0,Training at home,,,,,,,,,,,,,
9,18,4064,A,36.930069215373166,54.33527234820902,1.8465034607686583,0.8534964621996703,A,548.1586240057368,Correct,sub_009_day_18_data.csv,1,300,162.0,Training at home,,,,,,,,,,,,,
9,18,4065,A,58.49783192786784,73.94126387915325,2.9248915963933917,1.161466656999461,A,488.8679159921594,Correct,sub_009_day_18_data.csv,1,300,162.0,Training at home,,,,,,,,,,,,,
9,18,4066,A,49.54568167511796,71.44600723616212,2.4772840837558983,1.1222712573072506,A,754.4012080034008,Correct,sub_009_day_18_data.csv,1,300,162.0,Training at home,,,,,,,,,,,,,
9,18,4067,A,22.107776245530182,43.60200471754013,1.1053888122765094,0.6848986885120579,A,421.8754580069799,Correct,sub_009_day_18_data.csv,1,300,162.0,Training at home,,,,,,,,,,,,,
9,18,4068,B,47.88078736019681,28.654288636612485,2.3940393680098406,0.4501005133731164,B,1007.6630830008072,Correct,sub_009_day_18_data.csv,1,300,162.0,Training at home,,,,,,,,,,,,,
9,18,4069,A,18.978537970318097,44.49152694738166,0.9489268985159046,0.6988712710244327,A,517.078124001273,Correct,sub_009_day_18_data.csv,1,300,162.0,Training at home,,,,,,,,,,,,,
9,18,4070,B,50.45544914601244,26.28355436211033,2.522772457300622,0.4128611064711689,B,392.9374159924919,Correct,sub_009_day_18_data.csv,1,300,162.0,Training at home,,,,,,,,,,,,,
9,18,4071,B,58.55168834615259,40.24105796101995,2.9275844173076293,0.6321050603151067,B,426.94420799671207,Correct,sub_009_day_18_data.csv,1,300,162.0,Training at home,,,,,,,,,,,,,
9,18,4072,B,79.917127615397,50.220388339226446,3.9958563807698506,0.7888600153347015,B,482.56820799724665,Correct,sub_009_day_18_data.csv,1,300,162.0,Training at home,,,,,,,,,,,,,
9,18,4073,B,72.32704418350578,44.64598065169,3.616352209175289,0.7012974241383069,B,350.99558299407363,Correct,sub_009_day_18_data.csv,1,300,162.0,Training at home,,,,,,,,,,,,,
9,18,4074,B,69.67133337923082,57.83512569448855,3.483566668961541,0.9084720300062376,B,434.38125000102445,Correct,sub_009_day_18_data.csv,1,300,162.0,Training at home,,,,,,,,,,,,,
9,18,4075,B,59.32537688734004,29.729089175419773,2.966268844367002,0.4669834407570729,B,374.3116660043597,Correct,sub_009_day_18_data.csv,1,300,163.0,Training at home,,,,,,,,,,,,,
9,18,4076,A,53.19230918653149,64.3186454315548,2.659615459326574,1.0103149198830963,A,452.5657079939265,Correct,sub_009_day_18_data.csv,1,300,163.0,Training at home,,,,,,,,,,,,,
9,18,4077,B,45.74376470327616,28.772295443541644,2.287188235163808,0.4519541599617275,B,457.0810829900438,Correct,sub_009_day_18_data.csv,1,300,163.0,Training at home,,,,,,,,,,,,,
9,18,4078,B,65.29059761490484,52.18299408797057,3.264529880745242,0.8196885543454399,B,1139.767832995858,Correct,sub_009_day_18_data.csv,1,300,163.0,Training at home,,,,,,,,,,,,,
9,18,4079,A,16.799883140418498,38.121148170321035,0.839994157020925,0.5988055951914427,A,381.7707490088651,Correct,sub_009_day_18_data.csv,1,300,163.0,Training at home,,,,,,,,,,,,,
9,18,4080,B,48.269402163104,20.4477716222081,2.4134701081551997,0.321192845553054,B,384.8619580094237,Correct,sub_009_day_18_data.csv,1,300,163.0,Training at home,,,,,,,,,,,,,
9,18,4081,B,50.24000971340028,31.220938169233563,2.5120004856700144,0.4904173499532266,B,409.48604099685326,Correct,sub_009_day_18_data.csv,1,300,163.0,Training at home,,,,,,,,,,,,,
9,18,4082,B,85.17520238831378,55.60305370120845,4.2587601194156885,0.8734107251243761,B,608.3478750078939,Correct,sub_009_day_18_data.csv,1,300,163.0,Training at home,,,,,,,,,,,,,
9,18,4083,B,45.734038978552064,23.81030819000567,2.286701948927603,0.3740114464471535,B,419.2589169979328,Correct,sub_009_day_18_data.csv,1,300,163.0,Training at home,,,,,,,,,,,,,
9,18,4084,B,71.41893624364991,43.3261425651811,3.5709468121824957,0.6805654559557849,B,404.7564579959726,Correct,sub_009_day_18_data.csv,1,300,163.0,Training at home,,,,,,,,,,,,,
9,18,4085,B,65.14479076908961,51.61291083954564,3.2572395384544803,0.810733707619508,B,423.84770800708793,Correct,sub_009_day_18_data.csv,1,300,163.0,Training at home,,,,,,,,,,,,,
9,18,4086,B,83.24534238667772,63.54230484042229,4.162267119333887,0.9981201903941692,B,332.2734160028631,Correct,sub_009_day_18_data.csv,1,300,163.0,Training at home,,,,,,,,,,,,,
9,18,4087,A,18.472174972283938,41.94891480754049,0.9236087486141968,0.6589320129271664,A,316.849666996859,Correct,sub_009_day_18_data.csv,1,300,163.0,Training at home,,,,,,,,,,,,,
9,18,4088,A,47.0839055433045,76.75985856463527,2.3541952771652253,1.2057410387862484,A,394.1334580013063,Correct,sub_009_day_18_data.csv,1,300,163.0,Training at home,,,,,,,,,,,,,
9,18,4089,B,63.95311119402502,50.77018753301784,3.197655559701251,0.7974962408755246,B,427.8895830066176,Correct,sub_009_day_18_data.csv,1,300,163.0,Training at home,,,,,,,,,,,,,
9,18,4090,B,37.641566248892175,15.571689577951076,1.8820783124446083,0.2445995279103592,B,345.6330409971997,Correct,sub_009_day_18_data.csv,1,300,163.0,Training at home,,,,,,,,,,,,,
9,18,4091,B,63.05036915927553,38.486982587136694,3.152518457963777,0.6045521087729346,B,301.63425000500865,Correct,sub_009_day_18_data.csv,1,300,163.0,Training at home,,,,,,,,,,,,,
9,18,4092,B,45.53506835336772,26.29665060024547,2.276753417668386,0.413066821698744,B,361.7803749948507,Correct,sub_009_day_18_data.csv,1,300,163.0,Training at home,,,,,,,,,,,,,
9,18,4093,A,30.416468509250173,54.59916086721226,1.5208234254625086,0.8576416133630068,A,390.9156669978984,Correct,sub_009_day_18_data.csv,1,300,163.0,Training at home,,,,,,,,,,,,,
9,18,4094,B,45.37098918018064,25.47173797227817,2.268549459009032,0.4001091244393663,B,337.38066600926686,Correct,sub_009_day_18_data.csv,1,300,163.0,Training at home,,,,,,,,,,,,,
9,18,4095,A,61.30535861978069,75.68848820376817,3.0652679309890347,1.1889119925113791,A,434.3257909931708,Correct,sub_009_day_18_data.csv,1,300,163.0,Training at home,,,,,,,,,,,,,
9,18,4096,A,53.8122557199861,76.82527492419348,2.6906127859993045,1.2067685965593118,A,441.8607920088107,Correct,sub_009_day_18_data.csv,1,300,163.0,Training at home,,,,,,,,,,,,,
9,18,4097,B,51.42298815460833,28.916948340590384,2.5711494077304167,0.4542263623551715,B,374.3816659989534,Correct,sub_009_day_18_data.csv,1,300,163.0,Training at home,,,,,,,,,,,,,
9,18,4098,B,58.05864551205977,29.55100987749543,2.9029322756029887,0.4641861776864953,B,466.9827500038082,Correct,sub_009_day_18_data.csv,1,300,163.0,Training at home,,,,,,,,,,,,,
9,18,4099,B,42.35772563987064,14.573147716721513,2.117886281993532,0.2289144690326558,B,517.7660420013126,Correct,sub_009_day_18_data.csv,1,300,163.0,Training at home,,,,,,,,,,,,,
9,18,4100,A,32.49645554008686,41.018994368512054,1.624822777004343,0.6443248568287928,A,613.1630830059294,Correct,sub_009_day_18_data.csv,1,300,164.0,Training at home,,,,,,,,,,,,,
9,18,4101,A,55.11487720477807,72.0577900007055,2.755743860238903,1.131881118500662,A,362.7482079900801,Correct,sub_009_day_18_data.csv,1,300,164.0,Training at home,,,,,,,,,,,,,
9,18,4102,B,77.34268133203526,58.299436539627905,3.8671340666017624,0.9157654077065968,B,368.02270798943937,Correct,sub_009_day_18_data.csv,1,300,164.0,Training at home,,,,,,,,,,,,,
9,18,4103,A,56.96146492485556,69.04704688318641,2.8480732462427785,1.0845884762014424,A,409.2901249969145,Correct,sub_009_day_18_data.csv,1,300,164.0,Training at home,,,,,,,,,,,,,
9,18,4104,B,65.44763381015882,35.71405576482684,3.2723816905079413,0.5609950761033811,B,344.0443330036942,Correct,sub_009_day_18_data.csv,1,300,164.0,Training at home,,,,,,,,,,,,,
9,18,4105,B,51.3830876734306,39.00238678641487,2.56915438367153,0.6126480590033428,B,921.8900409905472,Correct,sub_009_day_18_data.csv,1,300,164.0,Training at home,,,,,,,,,,,,,
9,18,4106,A,34.81957982587813,50.93608268873952,1.7409789912939064,0.8001021158879316,A,429.4315830047708,Correct,sub_009_day_18_data.csv,1,300,164.0,Training at home,,,,,,,,,,,,,
9,18,4107,B,40.34682100511568,23.738105734679216,2.017341050255784,0.3728772929310298,B,377.87887500599027,Correct,sub_009_day_18_data.csv,1,300,164.0,Training at home,,,,,,,,,,,,,
9,18,4108,A,45.00208071030494,65.5669087021729,2.250104035515247,1.0299225934866951,A,392.55266699183267,Correct,sub_009_day_18_data.csv,1,300,164.0,Training at home,,,,,,,,,,,,,
9,18,4109,B,67.79222310771637,49.02213453068503,3.3896111553858184,0.770037888524453,B,567.2084989928408,Correct,sub_009_day_18_data.csv,1,300,164.0,Training at home,,,,,,,,,,,,,
9,18,4110,B,68.48515462812156,48.58489677255854,3.4242577314060783,0.7631697738804418,B,491.2317080015782,Correct,sub_009_day_18_data.csv,1,300,164.0,Training at home,,,,,,,,,,,,,
9,18,4111,B,62.77012555676166,42.01394028234871,3.1385062778380832,0.6599534306969349,B,492.1500000054948,Correct,sub_009_day_18_data.csv,1,300,164.0,Training at home,,,,,,,,,,,,,
9,18,4112,B,71.0358159947379,44.55594360002072,3.551790799736895,0.6998831254379312,B,418.1503750005504,Correct,sub_009_day_18_data.csv,1,300,164.0,Training at home,,,,,,,,,,,,,
9,18,4113,A,57.2540860533785,81.12437565840358,2.862704302668925,1.2742987129774963,A,663.5402910033008,Correct,sub_009_day_18_data.csv,1,300,164.0,Training at home,,,,,,,,,,,,,
9,18,4114,B,83.2219530172128,55.92412464512989,4.16109765086064,0.8784540957178998,B,528.9509579888545,Correct,sub_009_day_18_data.csv,1,300,164.0,Training at home,,,,,,,,,,,,,
9,18,4115,B,83.34178064220835,66.37636938357849,4.167089032110417,1.042637572137063,B,469.6597909933189,Correct,sub_009_day_18_data.csv,1,300,164.0,Training at home,,,,,,,,,,,,,
9,18,4116,B,64.15213272247507,44.395084656332386,3.207606636123754,0.6973563590591538,B,731.9121670007007,Correct,sub_009_day_18_data.csv,1,300,164.0,Training at home,,,,,,,,,,,,,
9,18,4117,B,67.98530884593825,38.48413019037869,3.399265442296912,0.6045073034294344,B,370.53304199071135,Correct,sub_009_day_18_data.csv,1,300,164.0,Training at home,,,,,,,,,,,,,
9,18,4118,A,23.10210013056759,48.48684120035523,1.1551050065283794,0.7616295205540544,A,549.0604170045117,Correct,sub_009_day_18_data.csv,1,300,164.0,Training at home,,,,,,,,,,,,,
9,18,4119,A,16.250605509476078,45.297527058705825,0.8125302754738039,0.7115318911670754,A,1300.962166991667,Correct,sub_009_day_18_data.csv,1,300,164.0,Training at home,,,,,,,,,,,,,
9,18,4120,B,44.68611013398426,18.627992148116196,2.234305506699213,0.2926078164182509,B,519.8949159967015,Correct,sub_009_day_18_data.csv,1,300,164.0,Training at home,,,,,,,,,,,,,
9,18,4121,A,28.931379840147994,43.733760840529186,1.4465689920073996,0.6869683088522974,A,353.2828750030603,Correct,sub_009_day_18_data.csv,1,300,164.0,Training at home,,,,,,,,,,,,,
9,18,4122,A,38.49221635479862,59.42288011053984,1.924610817739931,0.933412418052095,A,483.25570800807327,Correct,sub_009_day_18_data.csv,1,300,164.0,Training at home,,,,,,,,,,,,,
9,18,4123,B,58.078664801910506,29.05582375534346,2.9039332400955256,0.456407812268934,B,1294.3427919963142,Correct,sub_009_day_18_data.csv,1,300,164.0,Training at home,,,,,,,,,,,,,
9,18,4124,A,52.95855694759345,61.8918875444922,2.647927847379673,0.9721954961329116,B,1549.305666005239,Incorrect,sub_009_day_18_data.csv,0,300,164.0,Training at home,,,,,,,,,,,,,
9,18,4125,B,38.2898611704534,26.78757746800636,1.91449305852267,0.4207782829047813,B,413.19166599714663,Correct,sub_009_day_18_data.csv,1,300,165.0,Training at home,,,,,,,,,,,,,
9,18,4126,A,41.82976811820157,49.79210660212977,2.0914884059100785,0.7821325815400535,A,458.5800420027226,Correct,sub_009_day_18_data.csv,1,300,165.0,Training at home,,,,,,,,,,,,,
9,18,4127,A,12.170978373114266,32.76822698057205,0.6085489186557134,0.51472210576664,A,375.8954169898061,Correct,sub_009_day_18_data.csv,1,300,165.0,Training at home,,,,,,,,,,,,,
9,18,4128,A,34.573101512298315,53.70978513028205,1.7286550756149155,0.8436713319559022,A,388.33920800243504,Correct,sub_009_day_18_data.csv,1,300,165.0,Training at home,,,,,,,,,,,,,
9,18,4129,A,37.70601803450904,70.86084553302854,1.885300901725452,1.113079558768618,A,330.7750410021981,Correct,sub_009_day_18_data.csv,1,300,165.0,Training at home,,,,,,,,,,,,,
9,18,4130,A,46.477119249006535,59.268577913252145,2.3238559624503266,0.930988644804936,A,339.3820419878466,Correct,sub_009_day_18_data.csv,1,300,165.0,Training at home,,,,,,,,,,,,,
9,18,4131,B,63.3957685007774,48.12133169140937,3.16978842503887,0.7558881106134469,B,530.5850409931736,Correct,sub_009_day_18_data.csv,1,300,165.0,Training at home,,,,,,,,,,,,,
9,18,4132,B,71.09701091174796,43.062506256837175,3.5548505455873975,0.6764242665082209,B,768.4794169908855,Correct,sub_009_day_18_data.csv,1,300,165.0,Training at home,,,,,,,,,,,,,
9,18,4133,A,50.078863508951905,57.8257778673952,2.503943175447595,0.90832519468162,A,605.863082993892,Correct,sub_009_day_18_data.csv,1,300,165.0,Training at home,,,,,,,,,,,,,
9,18,4134,B,55.53794042613342,43.225712939882015,2.776897021306671,0.6789879110905731,A,453.08679100708105,Incorrect,sub_009_day_18_data.csv,0,300,165.0,Training at home,,,,,,,,,,,,,
9,18,4135,A,45.20903402498655,60.878672459537945,2.2604517012493277,0.9562799507959184,A,420.89675000170246,Correct,sub_009_day_18_data.csv,1,300,165.0,Training at home,,,,,,,,,,,,,
9,18,4136,A,53.81880686238955,68.21051220466188,2.6909403431194776,1.0714482201988136,A,398.6400830035563,Correct,sub_009_day_18_data.csv,1,300,165.0,Training at home,,,,,,,,,,,,,
9,18,4137,B,40.65864136640144,26.782484141556136,2.032932068320072,0.4206982771199895,B,364.5978739950806,Correct,sub_009_day_18_data.csv,1,300,165.0,Training at home,,,,,,,,,,,,,
9,18,4138,A,22.91883035200629,40.66500390641933,1.1459415176003145,0.638764387653036,B,369.4517489930149,Incorrect,sub_009_day_18_data.csv,0,300,165.0,Training at home,,,,,,,,,,,,,
9,18,4139,A,50.540587034877944,72.39620165103953,2.5270293517438973,1.1371968762735551,A,430.0280000024941,Correct,sub_009_day_18_data.csv,1,300,165.0,Training at home,,,,,,,,,,,,,
9,18,4140,A,47.728654948196386,66.66729799653753,2.386432747409819,1.0472074681030192,A,481.5786660037702,Correct,sub_009_day_18_data.csv,1,300,165.0,Training at home,,,,,,,,,,,,,
9,18,4141,A,64.28777296888615,86.69045802703997,3.214388648444307,1.3617305303704157,A,368.5392079933081,Correct,sub_009_day_18_data.csv,1,300,165.0,Training at home,,,,,,,,,,,,,
9,18,4142,A,39.51513639387309,50.11548677363222,1.9757568196936544,0.787212225395597,B,356.96816600102466,Incorrect,sub_009_day_18_data.csv,0,300,165.0,Training at home,,,,,,,,,,,,,
9,18,4143,A,44.59980314675046,72.34632978879003,2.229990157337523,1.136413490893236,A,385.6434990011621,Correct,sub_009_day_18_data.csv,1,300,165.0,Training at home,,,,,,,,,,,,,
9,18,4144,A,35.98476922449992,67.14836694004387,1.799238461224996,1.0547640813969676,A,326.0850410006242,Correct,sub_009_day_18_data.csv,1,300,165.0,Training at home,,,,,,,,,,,,,
9,18,4145,B,62.037095765660425,54.10864915154902,3.101854788283021,0.84993667335087,B,704.1787499911152,Correct,sub_009_day_18_data.csv,1,300,165.0,Training at home,,,,,,,,,,,,,
9,18,4146,B,47.39198099083602,34.41141803388927,2.369599049541801,0.5405332904743693,B,362.766707999981,Correct,sub_009_day_18_data.csv,1,300,165.0,Training at home,,,,,,,,,,,,,
9,18,4147,A,65.33514802502214,87.02331799117121,3.2667574012511067,1.3669590824603597,A,353.7166669993894,Correct,sub_009_day_18_data.csv,1,300,165.0,Training at home,,,,,,,,,,,,,
9,18,4148,A,42.91859388049112,51.1295691905145,2.145929694024556,0.8031413947506569,A,498.5923749918584,Correct,sub_009_day_18_data.csv,1,300,165.0,Training at home,,,,,,,,,,,,,
9,18,4149,A,38.3652996774924,68.94956686353059,1.91826498387462,1.0830572636333295,A,370.0512489886023,Correct,sub_009_day_18_data.csv,1,300,165.0,Training at home,,,,,,,,,,,,,
9,18,4150,B,69.96213140474153,51.395143265347954,3.498106570237076,0.8073130225630604,B,348.7950830021873,Correct,sub_009_day_18_data.csv,1,300,166.0,Training at home,,,,,,,,,,,,,
9,18,4151,B,63.06940290612529,35.57628123847432,3.1534701453062643,0.5588309189041767,B,378.24049999471754,Correct,sub_009_day_18_data.csv,1,300,166.0,Training at home,,,,,,,,,,,,,
9,18,4152,A,45.28283642477762,74.58390173337537,2.2641418212388813,1.1715611888081756,A,458.38620800350327,Correct,sub_009_day_18_data.csv,1,300,166.0,Training at home,,,,,,,,,,,,,
9,18,4153,A,16.567655800650627,30.96404251647518,0.8283827900325313,0.4863820424760021,A,472.42895800445694,Correct,sub_009_day_18_data.csv,1,300,166.0,Training at home,,,,,,,,,,,,,
9,18,4154,A,39.85635445943247,52.254426090227106,1.9928177229716233,0.8208106056130414,A,462.80604098865297,Correct,sub_009_day_18_data.csv,1,300,166.0,Training at home,,,,,,,,,,,,,
9,18,4155,B,85.24056759185575,56.04027777450721,4.262028379592788,0.8802786248076161,B,441.0007910046261,Correct,sub_009_day_18_data.csv,1,300,166.0,Training at home,,,,,,,,,,,,,
9,18,4156,A,44.3367756538195,73.67539045852081,2.2168387826909752,1.1572903270742425,A,347.2652499913238,Correct,sub_009_day_18_data.csv,1,300,166.0,Training at home,,,,,,,,,,,,,
9,18,4157,B,36.16032897877018,24.06786948550245,1.8080164489385089,0.3780572098160623,B,405.1071249996312,Correct,sub_009_day_18_data.csv,1,300,166.0,Training at home,,,,,,,,,,,,,
9,18,4158,A,13.319496567658684,34.325373356172676,0.6659748283829343,0.5391817038373945,A,322.58399900456425,Correct,sub_009_day_18_data.csv,1,300,166.0,Training at home,,,,,,,,,,,,,
9,18,4159,A,33.26820088784033,63.12212619993382,1.6634100443920163,0.9915200397433996,A,322.0208749989979,Correct,sub_009_day_18_data.csv,1,300,166.0,Training at home,,,,,,,,,,,,,
9,18,4160,B,67.05166604813229,46.075434846973586,3.3525833024066145,0.7237512381310367,B,335.10799999930896,Correct,sub_009_day_18_data.csv,1,300,166.0,Training at home,,,,,,,,,,,,,
9,18,4161,B,34.11200195180486,13.20818491460107,1.705600097590243,0.2074736834748312,B,331.63070800947025,Correct,sub_009_day_18_data.csv,1,300,166.0,Training at home,,,,,,,,,,,,,
9,18,4162,A,35.77617024856747,60.56385061379056,1.7888085124283737,0.9513347408069706,A,402.40933300810866,Correct,sub_009_day_18_data.csv,1,300,166.0,Training at home,,,,,,,,,,,,,
9,18,4163,B,76.30928128111351,46.85982062762655,3.8154640640556754,0.736072341161435,B,354.03266600042116,Correct,sub_009_day_18_data.csv,1,300,166.0,Training at home,,,,,,,,,,,,,
9,18,4164,A,46.25955520657803,76.7061452687369,2.3129777603289012,1.2048973123072766,A,349.9774579977384,Correct,sub_009_day_18_data.csv,1,300,166.0,Training at home,,,,,,,,,,,,,
9,18,4165,B,38.81079173645891,22.30784425060551,1.9405395868229456,0.3504107980756379,B,377.86983299884014,Correct,sub_009_day_18_data.csv,1,300,166.0,Training at home,,,,,,,,,,,,,
9,18,4166,A,63.035628182104446,78.05113012061187,3.1517814091052223,1.2260242849564764,A,352.0465420006076,Correct,sub_009_day_18_data.csv,1,300,166.0,Training at home,,,,,,,,,,,,,
9,18,4167,A,29.311262103970364,51.043053369931386,1.4655631051985183,0.801782407418841,A,405.9379989921581,Correct,sub_009_day_18_data.csv,1,300,166.0,Training at home,,,,,,,,,,,,,
9,18,4168,B,59.51978379193163,26.79481475890887,2.9759891895965813,0.4208919660044373,B,340.3039160039043,Correct,sub_009_day_18_data.csv,1,300,166.0,Training at home,,,,,,,,,,,,,
9,18,4169,B,56.34419704389104,46.21468375299421,2.817209852194552,0.7259385548319108,B,943.094292000751,Correct,sub_009_day_18_data.csv,1,300,166.0,Training at home,,,,,,,,,,,,,
9,18,4170,A,50.76169091348024,68.50907934818116,2.538084545674012,1.0761381019222307,A,532.3754999990342,Correct,sub_009_day_18_data.csv,1,300,166.0,Training at home,,,,,,,,,,,,,
9,18,4171,A,61.574894623259695,73.59692291899225,3.0787447311629847,1.1560577618456016,A,433.28537499473896,Correct,sub_009_day_18_data.csv,1,300,166.0,Training at home,,,,,,,,,,,,,
9,18,4172,B,66.62123222836753,39.061205910178586,3.331061611418377,0.6135719876388762,B,415.991915986524,Correct,sub_009_day_18_data.csv,1,300,166.0,Training at home,,,,,,,,,,,,,
9,18,4173,A,19.934386341452992,51.35033243355923,0.9967193170726496,0.8066091356633167,A,383.82641700445674,Correct,sub_009_day_18_data.csv,1,300,166.0,Training at home,,,,,,,,,,,,,
9,18,4174,B,75.82918729737271,65.23855160638064,3.791459364868635,1.02476477228722,B,335.3690829972038,Correct,sub_009_day_18_data.csv,1,300,166.0,Training at home,,,,,,,,,,,,,
9,18,4175,B,64.9376131964885,45.351772888482785,3.246880659824425,0.7123839826686512,B,405.1744580065133,Correct,sub_009_day_18_data.csv,1,300,167.0,Training at home,,,,,,,,,,,,,
9,18,4176,B,50.80483616839291,24.687080306159217,2.5402418084196454,0.3877837506420553,B,418.39429100218695,Correct,sub_009_day_18_data.csv,1,300,167.0,Training at home,,,,,,,,,,,,,
9,18,4177,B,61.77938155970422,51.77323431238929,3.0889690779852113,0.8132520628419261,B,478.9374579995638,Correct,sub_009_day_18_data.csv,1,300,167.0,Training at home,,,,,,,,,,,,,
9,18,4178,B,40.758899873239606,24.560738731261527,2.03794499366198,0.3857991818243476,B,394.7961249941727,Correct,sub_009_day_18_data.csv,1,300,167.0,Training at home,,,,,,,,,,,,,
9,18,4179,B,40.58708947830386,19.40382154055523,2.029354473915193,0.3047945160168784,B,415.4693330056034,Correct,sub_009_day_18_data.csv,1,300,167.0,Training at home,,,,,,,,,,,,,
9,18,4180,B,44.72093948074199,34.956285408943444,2.2360469740371,0.5490920471876239,B,392.74125000520144,Correct,sub_009_day_18_data.csv,1,300,167.0,Training at home,,,,,,,,,,,,,
9,18,4181,A,49.37039939426805,59.972672150781186,2.4685199697134026,0.9420485312252168,A,444.106291004573,Correct,sub_009_day_18_data.csv,1,300,167.0,Training at home,,,,,,,,,,,,,
9,18,4182,A,51.13161798839787,80.97581731294969,2.5565808994198935,1.2719651639439595,A,402.3235000058776,Correct,sub_009_day_18_data.csv,1,300,167.0,Training at home,,,,,,,,,,,,,
9,18,4183,A,11.224796183948596,37.06758645754832,0.5612398091974298,0.5822562865066915,A,416.2828330008779,Correct,sub_009_day_18_data.csv,1,300,167.0,Training at home,,,,,,,,,,,,,
9,18,4184,A,44.722554743816175,70.84452784697481,2.2361277371908086,1.112823241155468,A,405.8071659965208,Correct,sub_009_day_18_data.csv,1,300,167.0,Training at home,,,,,,,,,,,,,
9,18,4185,A,41.115832382207685,65.71296169842122,2.0557916191103844,1.032216788586938,A,384.35379099973943,Correct,sub_009_day_18_data.csv,1,300,167.0,Training at home,,,,,,,,,,,,,
9,18,4186,B,54.72862609631565,42.00679777913142,2.736431304815783,0.6598412365187565,B,402.63295799377374,Correct,sub_009_day_18_data.csv,1,300,167.0,Training at home,,,,,,,,,,,,,
9,18,4187,B,34.15133584667056,11.665313614196162,1.7075667923335285,0.1832383177608983,B,416.2034170003608,Correct,sub_009_day_18_data.csv,1,300,167.0,Training at home,,,,,,,,,,,,,
9,18,4188,B,77.42219884048734,55.92037162798175,3.871109942024367,0.878395143462393,B,432.5737920007669,Correct,sub_009_day_18_data.csv,1,300,167.0,Training at home,,,,,,,,,,,,,
9,18,4189,B,57.26658847146614,50.42244405711436,2.863329423573307,0.792033899129364,B,662.7219579968369,Correct,sub_009_day_18_data.csv,1,300,167.0,Training at home,,,,,,,,,,,,,
9,18,4190,A,63.30899412088029,73.40557015127537,3.1654497060440145,1.1530519995990849,A,382.4154999892926,Correct,sub_009_day_18_data.csv,1,300,167.0,Training at home,,,,,,,,,,,,,
9,18,4191,B,87.6896680527809,64.19620767350293,4.384483402639045,1.0083916720770074,B,466.1279989959439,Correct,sub_009_day_18_data.csv,1,300,167.0,Training at home,,,,,,,,,,,,,
9,18,4192,A,40.90289290242502,48.29024650913284,2.045144645121251,0.7585414183656595,A,402.39112499693874,Correct,sub_009_day_18_data.csv,1,300,167.0,Training at home,,,,,,,,,,,,,
9,18,4193,B,83.51835730893576,54.01826563691958,4.175917865446788,0.8485169324230425,B,373.6750419921009,Correct,sub_009_day_18_data.csv,1,300,167.0,Training at home,,,,,,,,,,,,,
9,18,4194,A,26.579829205567375,56.80415489803391,1.3289914602783688,0.8922775786051999,A,513.4273330040742,Correct,sub_009_day_18_data.csv,1,300,167.0,Training at home,,,,,,,,,,,,,
9,18,4195,B,69.59532645098551,60.47417662462736,3.479766322549275,0.9499261450791046,B,471.05866599304136,Correct,sub_009_day_18_data.csv,1,300,167.0,Training at home,,,,,,,,,,,,,
9,18,4196,B,67.04160957359434,44.14980964588559,3.3520804786797167,0.6935035882045097,B,402.3060410108883,Correct,sub_009_day_18_data.csv,1,300,167.0,Training at home,,,,,,,,,,,,,
9,18,4197,A,59.63957057234623,78.2587692111043,2.981978528617311,1.2292858721629216,A,474.8943750018952,Correct,sub_009_day_18_data.csv,1,300,167.0,Training at home,,,,,,,,,,,,,
9,18,4198,A,67.98255046339224,87.90090725048688,3.3991275231696125,1.3807442223100368,A,556.9968749914551,Correct,sub_009_day_18_data.csv,1,300,167.0,Training at home,,,,,,,,,,,,,
9,18,4199,B,54.00697801995997,29.58310512885939,2.700348900997999,0.464690328715996,B,1069.8057080007857,Correct,sub_009_day_18_data.csv,1,300,167.0,Training at home,,,,,,,,,,,,,
