subject,day,trial,cat,x,y,xt,yt,resp,rt,fb,f_name,acc,n_trials,block,session_type,ns_left_digit,ns_right_digit,ns_left_size,ns_right_size,ns_congruent,ns_cue,ns_correct_side,ns_resp,ns_rt,ns_fb,acc_stroop,acc_stroop_mean,resp_key
9,24,600,A,24.331857896539397,51.3057262667667,1.2165928948269698,0.8059084636338157,A,1090.5022910010302,Correct,sub_009_day_24_data.csv,1,600,,Button-Switch at home,,,,,,,,,,,,,k
9,24,601,A,32.18746571532337,64.50519880553078,1.6093732857661684,1.013245293429023,A,391.96445800189395,Correct,sub_009_day_24_data.csv,1,600,,Button-Switch at home,,,,,,,,,,,,,k
9,24,602,B,68.96689491139591,53.651352620938304,3.448344745569796,0.8427534762454765,B,524.62199999718,Correct,sub_009_day_24_data.csv,1,600,,Button-Switch at home,,,,,,,,,,,,,d
9,24,603,B,56.36895233177046,25.994492629909875,2.818447616588523,0.4083205353995943,B,447.1300830045948,Correct,sub_009_day_24_data.csv,1,600,,Button-Switch at home,,,,,,,,,,,,,d
9,24,604,B,32.682692528065544,17.430165664360025,1.6341346264032774,0.2737924020100326,B,441.74987400037935,Correct,sub_009_day_24_data.csv,1,600,,Button-Switch at home,,,,,,,,,,,,,d
9,24,605,A,20.79087896791559,37.36676474181711,1.0395439483957791,0.5869557680065536,A,383.37862500338815,Correct,sub_009_day_24_data.csv,1,600,,Button-Switch at home,,,,,,,,,,,,,k
9,24,606,B,63.23300147867049,54.85899410628525,3.161650073933524,0.8617230643381575,B,362.32620800001314,Correct,sub_009_day_24_data.csv,1,600,,Button-Switch at home,,,,,,,,,,,,,d
9,24,607,B,57.79051295529133,38.42317241847117,2.8895256477645663,0.6035497809874149,B,411.1218739999458,Correct,sub_009_day_24_data.csv,1,600,,Button-Switch at home,,,,,,,,,,,,,d
9,24,608,A,43.17871381326547,72.54001179500757,2.1589356906632733,1.1394558407325637,A,381.21195799612906,Correct,sub_009_day_24_data.csv,1,600,,Button-Switch at home,,,,,,,,,,,,,k
9,24,609,B,47.802214040273114,38.394949351445376,2.3901107020136556,0.6031064540872649,B,394.1013739968184,Correct,sub_009_day_24_data.csv,1,600,,Button-Switch at home,,,,,,,,,,,,,d
9,24,610,B,82.51027301026912,62.02978813081944,4.125513650513455,0.9743616334775684,B,510.30991599691333,Correct,sub_009_day_24_data.csv,1,600,,Button-Switch at home,,,,,,,,,,,,,d
9,24,611,B,58.42207741891416,39.946252977099086,2.921103870945708,0.6274742744564694,B,356.89774899947224,Correct,sub_009_day_24_data.csv,1,600,,Button-Switch at home,,,,,,,,,,,,,d
9,24,612,A,56.02122334287978,69.02693974187213,2.801061167143989,1.084272633964254,A,408.39087500353344,Correct,sub_009_day_24_data.csv,1,600,,Button-Switch at home,,,,,,,,,,,,,k
9,24,613,A,48.36777693046095,75.56551139487466,2.4183888465230474,1.1869802773144702,A,367.5048329969286,Correct,sub_009_day_24_data.csv,1,600,,Button-Switch at home,,,,,,,,,,,,,k
9,24,614,A,44.93123272504743,51.79520680187131,2.2465616362523715,0.813597205899615,A,364.2619159945753,Correct,sub_009_day_24_data.csv,1,600,,Button-Switch at home,,,,,,,,,,,,,k
9,24,615,B,73.93499677728454,48.38762007355867,3.696749838864227,0.7600709587389296,B,395.3590000019176,Correct,sub_009_day_24_data.csv,1,600,,Button-Switch at home,,,,,,,,,,,,,d
9,24,616,A,15.952353703117376,40.3194287742372,0.7976176851558688,0.6333361061704025,A,419.0130409988342,Correct,sub_009_day_24_data.csv,1,600,,Button-Switch at home,,,,,,,,,,,,,k
9,24,617,A,49.86750418458294,73.9518810659424,2.4933752092291472,1.161633431379554,A,413.6886659980519,Correct,sub_009_day_24_data.csv,1,600,,Button-Switch at home,,,,,,,,,,,,,k
9,24,618,B,74.43818346885975,59.890833418423,3.721909173442987,0.9407630114234388,B,345.6670829982613,Correct,sub_009_day_24_data.csv,1,600,,Button-Switch at home,,,,,,,,,,,,,d
9,24,619,B,35.98987749611438,23.27284840051051,1.7994938748057192,0.3655690478157639,B,446.21720800205367,Correct,sub_009_day_24_data.csv,1,600,,Button-Switch at home,,,,,,,,,,,,,d
9,24,620,B,51.04009314499605,26.462982771378677,2.5520046572498023,0.4156795613331825,B,363.3551669990993,Correct,sub_009_day_24_data.csv,1,600,,Button-Switch at home,,,,,,,,,,,,,d
9,24,621,A,13.584396240582915,34.82815101148327,0.6792198120291458,0.5470793167789588,A,422.7932909998344,Correct,sub_009_day_24_data.csv,1,600,,Button-Switch at home,,,,,,,,,,,,,k
9,24,622,B,44.61920481575177,17.104877729150783,2.2309602407875886,0.2686827910722588,B,313.66658300248673,Correct,sub_009_day_24_data.csv,1,600,,Button-Switch at home,,,,,,,,,,,,,d
9,24,623,A,50.34558201439992,78.01533669765936,2.517279100719996,1.2254620431835044,A,460.2360829958343,Correct,sub_009_day_24_data.csv,1,600,,Button-Switch at home,,,,,,,,,,,,,k
9,24,624,A,39.874081972863095,60.85749125755447,1.993704098643155,0.9559472372531912,A,408.0347920025815,Correct,sub_009_day_24_data.csv,1,600,,Button-Switch at home,,,,,,,,,,,,,k
9,24,625,B,66.72343491291757,43.95754035904098,3.3361717456458786,0.6904834293092,B,343.3783329965081,Correct,sub_009_day_24_data.csv,1,600,,Button-Switch at home,,,,,,,,,,,,,d
9,24,626,B,64.74402749949006,39.848167702378696,3.237201374974503,0.6259335545640349,B,418.9274580057827,Correct,sub_009_day_24_data.csv,1,600,,Button-Switch at home,,,,,,,,,,,,,d
9,24,627,B,57.625580050983935,41.91003292654536,2.881279002549197,0.6583212577687062,B,334.48458299972117,Correct,sub_009_day_24_data.csv,1,600,,Button-Switch at home,,,,,,,,,,,,,d
9,24,628,A,29.56880248462012,46.05908216515539,1.478440124231006,0.7234943708057042,A,382.8551240003435,Correct,sub_009_day_24_data.csv,1,600,,Button-Switch at home,,,,,,,,,,,,,k
9,24,629,B,66.37138256500306,50.82286113963579,3.318569128250153,0.7983236359534699,B,342.304707999574,Correct,sub_009_day_24_data.csv,1,600,,Button-Switch at home,,,,,,,,,,,,,d
9,24,630,B,73.88115504935419,42.65447916334199,3.69405775246771,0.6700149919112703,B,377.49962499947287,Correct,sub_009_day_24_data.csv,1,600,,Button-Switch at home,,,,,,,,,,,,,d
9,24,631,A,38.45889237437041,56.800199237748025,1.9229446187185204,0.8922154432387289,A,633.904624999559,Correct,sub_009_day_24_data.csv,1,600,,Button-Switch at home,,,,,,,,,,,,,k
9,24,632,B,87.52896885848558,66.00858790540477,4.376448442924279,1.0368604741872784,B,346.72383299766807,Correct,sub_009_day_24_data.csv,1,600,,Button-Switch at home,,,,,,,,,,,,,d
9,24,633,A,16.419771971140385,41.29230334380807,0.8209885985570193,0.6486179841735434,A,358.1839160033269,Correct,sub_009_day_24_data.csv,1,600,,Button-Switch at home,,,,,,,,,,,,,k
9,24,634,B,72.31413494135033,54.33941429385357,3.6157067470675166,0.8535615237297127,B,347.32741699554026,Correct,sub_009_day_24_data.csv,1,600,,Button-Switch at home,,,,,,,,,,,,,d
9,24,635,A,43.6624577577626,60.771363979119926,2.18312288788813,0.9545943531271728,A,507.18795799912186,Correct,sub_009_day_24_data.csv,1,600,,Button-Switch at home,,,,,,,,,,,,,k
9,24,636,A,22.360125635517043,51.41968158895309,1.1180062817758525,0.8076984696489069,A,416.12837499997113,Correct,sub_009_day_24_data.csv,1,600,,Button-Switch at home,,,,,,,,,,,,,k
9,24,637,B,45.77910214848247,22.07076408111385,2.288955107424124,0.3466867514817037,B,323.40845800354145,Correct,sub_009_day_24_data.csv,1,600,,Button-Switch at home,,,,,,,,,,,,,d
9,24,638,A,47.91813893115691,77.18754999919585,2.3959069465578455,1.2124592001303427,A,350.91937400284223,Correct,sub_009_day_24_data.csv,1,600,,Button-Switch at home,,,,,,,,,,,,,k
9,24,639,A,53.270505161055326,66.83948456866075,2.663525258052766,1.0499121684531647,A,396.7949580037384,Correct,sub_009_day_24_data.csv,1,600,,Button-Switch at home,,,,,,,,,,,,,k
9,24,640,B,46.163223394852096,28.21867095049045,2.3081611697426045,0.4432578467606425,B,335.06695800315356,Correct,sub_009_day_24_data.csv,1,600,,Button-Switch at home,,,,,,,,,,,,,d
9,24,641,B,74.3338828211053,51.81937856274491,3.716694141055265,0.813976895031539,B,461.2925830006134,Correct,sub_009_day_24_data.csv,1,600,,Button-Switch at home,,,,,,,,,,,,,d
9,24,642,A,53.62259270457293,69.69133409189611,2.681129635228646,1.0947089160098635,A,545.0226660032058,Correct,sub_009_day_24_data.csv,1,600,,Button-Switch at home,,,,,,,,,,,,,k
9,24,643,B,72.97887744708734,45.7473214030327,3.648943872354367,0.7185972442058932,B,435.6595409990405,Correct,sub_009_day_24_data.csv,1,600,,Button-Switch at home,,,,,,,,,,,,,d
9,24,644,B,67.04805255210337,51.11374330273016,3.352402627605169,0.8028928022866577,B,347.20787499827566,Correct,sub_009_day_24_data.csv,1,600,,Button-Switch at home,,,,,,,,,,,,,d
9,24,645,A,28.07221813309268,54.48110233069603,1.4036109066546338,0.855787154207942,A,366.96220799785806,Correct,sub_009_day_24_data.csv,1,600,,Button-Switch at home,,,,,,,,,,,,,k
9,24,646,A,40.97197713983204,63.538055540599714,2.048598856991602,0.9980534425486416,A,412.5054999967688,Correct,sub_009_day_24_data.csv,1,600,,Button-Switch at home,,,,,,,,,,,,,k
9,24,647,B,79.43978152086883,58.25284550257065,3.971989076043442,0.915033557407886,B,322.6615829989896,Correct,sub_009_day_24_data.csv,1,600,,Button-Switch at home,,,,,,,,,,,,,d
9,24,648,B,42.92932989606241,14.802983501165336,2.146466494803121,0.2325247210923596,B,354.8624579998432,Correct,sub_009_day_24_data.csv,1,600,,Button-Switch at home,,,,,,,,,,,,,d
9,24,649,B,57.21521422546749,28.190057083201168,2.860760711273374,0.4428083811843085,B,348.4856669965666,Correct,sub_009_day_24_data.csv,1,600,,Button-Switch at home,,,,,,,,,,,,,d
9,24,650,A,58.97279979944952,68.63788396414826,2.9486399899724756,1.0781613600985842,A,513.028874003794,Correct,sub_009_day_24_data.csv,1,600,,Button-Switch at home,,,,,,,,,,,,,k
9,24,651,B,79.78070918335534,51.131272624320005,3.989035459167767,0.8031681522263031,B,373.5508329991717,Correct,sub_009_day_24_data.csv,1,600,,Button-Switch at home,,,,,,,,,,,,,d
9,24,652,B,48.25842033194408,37.23153644936919,2.412921016597204,0.5848316069559942,B,615.7061659978353,Correct,sub_009_day_24_data.csv,1,600,,Button-Switch at home,,,,,,,,,,,,,d
9,24,653,B,33.619809131769856,14.401269642775876,1.6809904565884926,0.2262146145605519,B,482.4791240025661,Correct,sub_009_day_24_data.csv,1,600,,Button-Switch at home,,,,,,,,,,,,,d
9,24,654,B,60.07010891901203,44.99697493757429,3.003505445950602,0.706810829488237,B,350.3456250036834,Correct,sub_009_day_24_data.csv,1,600,,Button-Switch at home,,,,,,,,,,,,,d
9,24,655,A,24.362028093290007,46.04666838089156,1.2181014046645005,0.7232993755384718,A,411.0854169994127,Correct,sub_009_day_24_data.csv,1,600,,Button-Switch at home,,,,,,,,,,,,,k
9,24,656,A,10.53463564911724,35.810771013292566,0.526731782455862,0.5625142756737312,A,383.30683299864177,Correct,sub_009_day_24_data.csv,1,600,,Button-Switch at home,,,,,,,,,,,,,k
9,24,657,B,34.58873460185681,17.344862907665327,1.7294367300928402,0.2724524694412174,B,431.30762499640696,Correct,sub_009_day_24_data.csv,1,600,,Button-Switch at home,,,,,,,,,,,,,d
9,24,658,B,67.73066656479992,45.271328656867354,3.3865333282399956,0.7111203676333178,B,399.4151250008144,Correct,sub_009_day_24_data.csv,1,600,,Button-Switch at home,,,,,,,,,,,,,d
9,24,659,B,87.73019517631062,67.31996658679802,4.3865097588155315,1.057459562344975,B,315.81445800111396,Correct,sub_009_day_24_data.csv,1,600,,Button-Switch at home,,,,,,,,,,,,,d
9,24,660,B,86.17120811095606,63.136593515177736,4.308560405547803,0.9917472917998368,B,317.3967080001603,Correct,sub_009_day_24_data.csv,1,600,,Button-Switch at home,,,,,,,,,,,,,d
9,24,661,B,55.78186055879869,48.95899856795028,2.789093027939934,0.769046151140929,B,397.88195800065296,Correct,sub_009_day_24_data.csv,1,600,,Button-Switch at home,,,,,,,,,,,,,d
9,24,662,B,45.35499544465003,37.31866952505146,2.2677497722325013,0.5862002901082348,B,395.9503750011209,Correct,sub_009_day_24_data.csv,1,600,,Button-Switch at home,,,,,,,,,,,,,d
9,24,663,A,28.451350158981786,50.341135272584175,1.422567507949089,0.7907567037286023,A,535.9775830002036,Correct,sub_009_day_24_data.csv,1,600,,Button-Switch at home,,,,,,,,,,,,,k
9,24,664,B,64.9480745176515,47.03467745743078,3.247403725882575,0.7388189858211499,B,300.38049900031183,Correct,sub_009_day_24_data.csv,1,600,,Button-Switch at home,,,,,,,,,,,,,d
9,24,665,A,54.107406503389704,70.92682245526119,2.705370325169485,1.1141159218395806,A,592.0672079955693,Correct,sub_009_day_24_data.csv,1,600,,Button-Switch at home,,,,,,,,,,,,,k
9,24,666,A,41.34989090204696,73.82720107097703,2.0674945451023476,1.1596749625983898,A,398.14929100248264,Correct,sub_009_day_24_data.csv,1,600,,Button-Switch at home,,,,,,,,,,,,,k
9,24,667,A,20.546623828600776,32.59711088012628,1.0273311914300387,0.5120342203462832,A,369.6675419996609,Correct,sub_009_day_24_data.csv,1,600,,Button-Switch at home,,,,,,,,,,,,,k
9,24,668,A,50.17347213956842,58.87673729701115,2.508673606978421,0.924833626798132,A,376.7189999998664,Correct,sub_009_day_24_data.csv,1,600,,Button-Switch at home,,,,,,,,,,,,,k
9,24,669,A,44.70593593514263,62.61990618988358,2.2352967967571313,0.9836311862731012,A,408.5341660029371,Correct,sub_009_day_24_data.csv,1,600,,Button-Switch at home,,,,,,,,,,,,,k
9,24,670,B,36.329415936258414,20.924658662684298,1.8164707968129208,0.328683769667815,B,398.3471669998835,Correct,sub_009_day_24_data.csv,1,600,,Button-Switch at home,,,,,,,,,,,,,d
9,24,671,A,18.60960010898499,39.25454162985531,0.9304800054492496,0.6166088980219407,A,445.4213740027626,Correct,sub_009_day_24_data.csv,1,600,,Button-Switch at home,,,,,,,,,,,,,k
9,24,672,B,79.06559248095733,67.15262543627472,3.9532796240478665,1.0548309736993386,B,456.8457909990684,Correct,sub_009_day_24_data.csv,1,600,,Button-Switch at home,,,,,,,,,,,,,d
9,24,673,A,46.09691039392438,57.798614631733265,2.304845519696219,0.9078985155736038,A,584.4989580000401,Correct,sub_009_day_24_data.csv,1,600,,Button-Switch at home,,,,,,,,,,,,,k
9,24,674,B,65.0514884590165,54.84920493138936,3.2525744229508247,0.8615692963384693,B,446.7650410006172,Correct,sub_009_day_24_data.csv,1,600,,Button-Switch at home,,,,,,,,,,,,,d
9,24,675,A,53.37135123601884,69.18402885456548,2.6685675618009417,1.0867401839762358,A,452.75304099777713,Correct,sub_009_day_24_data.csv,1,600,,Button-Switch at home,,,,,,,,,,,,,k
9,24,676,A,35.55584261513297,62.568941822931315,1.7777921307566484,0.982830639869041,A,429.1837080018013,Correct,sub_009_day_24_data.csv,1,600,,Button-Switch at home,,,,,,,,,,,,,k
9,24,677,B,60.464660483014974,42.7340573307431,3.023233024150749,0.6712650028417377,B,863.3861659982358,Correct,sub_009_day_24_data.csv,1,600,,Button-Switch at home,,,,,,,,,,,,,d
9,24,678,A,31.286637954329347,49.08618885425321,1.5643318977164673,0.7710440514862152,A,394.2263749995618,Correct,sub_009_day_24_data.csv,1,600,,Button-Switch at home,,,,,,,,,,,,,k
9,24,679,A,62.27763494772152,71.9428695355535,3.113881747386076,1.130075952055319,B,319.98625000414904,Incorrect,sub_009_day_24_data.csv,0,600,,Button-Switch at home,,,,,,,,,,,,,d
9,24,680,B,60.651813614632026,27.8281478507206,3.032590680731601,0.4371235242541721,B,377.8678739981842,Correct,sub_009_day_24_data.csv,1,600,,Button-Switch at home,,,,,,,,,,,,,d
9,24,681,A,41.09099853614771,72.6412108086469,2.0545499268073852,1.141045471121563,A,428.6450829968089,Correct,sub_009_day_24_data.csv,1,600,,Button-Switch at home,,,,,,,,,,,,,k
9,24,682,B,65.67777703346442,57.876926466063395,3.283888851673221,0.9091286349907072,A,412.2780409961706,Incorrect,sub_009_day_24_data.csv,0,600,,Button-Switch at home,,,,,,,,,,,,,k
9,24,683,A,31.955382299761347,51.61578061526584,1.5977691149880673,0.8107787859511081,A,408.75037500518374,Correct,sub_009_day_24_data.csv,1,600,,Button-Switch at home,,,,,,,,,,,,,k
9,24,684,B,62.49536873479334,36.04931406319697,3.124768436739667,0.5662613011394539,B,458.61095799773466,Correct,sub_009_day_24_data.csv,1,600,,Button-Switch at home,,,,,,,,,,,,,d
9,24,685,A,58.76833208206434,71.88484545443805,2.938416604103217,1.1291645119205012,A,425.12958299630554,Correct,sub_009_day_24_data.csv,1,600,,Button-Switch at home,,,,,,,,,,,,,k
9,24,686,A,43.09301573878266,58.363962293392184,2.154650786939133,0.9167789758765628,A,452.39425000181654,Correct,sub_009_day_24_data.csv,1,600,,Button-Switch at home,,,,,,,,,,,,,k
9,24,687,A,35.219313900003996,46.18708113117707,1.7609656950002,0.725504973862308,A,895.9632080004667,Correct,sub_009_day_24_data.csv,1,600,,Button-Switch at home,,,,,,,,,,,,,k
9,24,688,A,64.21540167883018,85.62353605474881,3.210770083941509,1.3449713592198982,A,443.3736249993672,Correct,sub_009_day_24_data.csv,1,600,,Button-Switch at home,,,,,,,,,,,,,k
9,24,689,A,43.06692085468242,61.00034082591824,2.153346042734121,0.9581911130258912,A,453.1662500012317,Correct,sub_009_day_24_data.csv,1,600,,Button-Switch at home,,,,,,,,,,,,,k
9,24,690,B,78.93473573073393,57.31083851713288,3.946736786536696,0.900236546282478,B,412.56104199419497,Correct,sub_009_day_24_data.csv,1,600,,Button-Switch at home,,,,,,,,,,,,,d
9,24,691,A,24.72479569261051,48.02775743416342,1.2362397846305255,0.7544182496178019,A,742.7266240047175,Correct,sub_009_day_24_data.csv,1,600,,Button-Switch at home,,,,,,,,,,,,,k
9,24,692,B,46.109883833231216,28.13583343418892,2.3054941916615608,0.44195663809737,B,631.8087079998804,Correct,sub_009_day_24_data.csv,1,600,,Button-Switch at home,,,,,,,,,,,,,d
9,24,693,B,74.0965123147179,59.29427278529589,3.7048256157358943,0.9313922589111736,B,554.6136659977492,Correct,sub_009_day_24_data.csv,1,600,,Button-Switch at home,,,,,,,,,,,,,d
9,24,694,B,79.90476786149544,65.5661849322515,3.995238393074772,1.0299112245353554,B,361.0470830026315,Correct,sub_009_day_24_data.csv,1,600,,Button-Switch at home,,,,,,,,,,,,,d
9,24,695,A,47.00185888925208,76.17466304520423,2.350092944462604,1.1965488090624574,A,434.3197499983944,Correct,sub_009_day_24_data.csv,1,600,,Button-Switch at home,,,,,,,,,,,,,k
9,24,696,A,11.592065185585486,37.142359773494874,0.5796032592792743,0.5834308230070028,A,605.7972909984528,Correct,sub_009_day_24_data.csv,1,600,,Button-Switch at home,,,,,,,,,,,,,k
9,24,697,B,64.7829857197412,35.10613648759954,3.23914928598706,0.5514459024268166,B,386.3892920053331,Correct,sub_009_day_24_data.csv,1,600,,Button-Switch at home,,,,,,,,,,,,,d
9,24,698,A,51.194209144975034,66.10847436101417,2.5597104572487517,1.038429486962957,A,726.7911659946549,Correct,sub_009_day_24_data.csv,1,600,,Button-Switch at home,,,,,,,,,,,,,k
9,24,699,B,50.08049911536415,42.6112352531366,2.5040249557682075,0.6693357181582017,B,433.62408300163224,Correct,sub_009_day_24_data.csv,1,600,,Button-Switch at home,,,,,,,,,,,,,d
9,24,700,A,53.61157054232622,65.6742492217371,2.6805785271163107,1.0316086944251723,A,390.2192489986191,Correct,sub_009_day_24_data.csv,1,600,,Button-Switch at home,,,,,,,,,,,,,k
9,24,701,B,76.83150042133721,49.19068693186174,3.841575021066861,0.7726855034508614,B,518.6522919975687,Correct,sub_009_day_24_data.csv,1,600,,Button-Switch at home,,,,,,,,,,,,,d
9,24,702,B,42.1982227718956,34.44254672892588,2.10991113859478,0.5410222588725836,B,503.7214160038274,Correct,sub_009_day_24_data.csv,1,600,,Button-Switch at home,,,,,,,,,,,,,d
9,24,703,A,29.428178878902003,58.68533923285182,1.4714089439451,0.9218271530367608,A,466.9139580000774,Correct,sub_009_day_24_data.csv,1,600,,Button-Switch at home,,,,,,,,,,,,,k
9,24,704,A,40.09886032947133,63.55537488754712,2.0049430164735664,0.9983254942143164,A,1945.6407489997216,Correct,sub_009_day_24_data.csv,1,600,,Button-Switch at home,,,,,,,,,,,,,k
9,24,705,B,80.16540895431166,49.44350425934742,4.008270447715583,0.7766567487445074,B,882.2979999968084,Correct,sub_009_day_24_data.csv,1,600,,Button-Switch at home,,,,,,,,,,,,,d
9,24,706,A,55.76263322193042,78.64632771049867,2.788131661096521,1.23537362683559,A,624.8863330038148,Correct,sub_009_day_24_data.csv,1,600,,Button-Switch at home,,,,,,,,,,,,,k
9,24,707,B,65.01138893819633,41.39950062916597,3.2505694469098163,0.6503018351943691,B,744.3002080035512,Correct,sub_009_day_24_data.csv,1,600,,Button-Switch at home,,,,,,,,,,,,,d
9,24,708,A,55.682995195012545,70.20725985913133,2.784149759750627,1.102813059010583,A,1093.0030410017937,Correct,sub_009_day_24_data.csv,1,600,,Button-Switch at home,,,,,,,,,,,,,k
9,24,709,B,74.46075236616703,62.91430506155688,3.7230376183083513,0.9882555929354712,A,1349.423832994944,Incorrect,sub_009_day_24_data.csv,0,600,,Button-Switch at home,,,,,,,,,,,,,k
9,24,710,B,40.555359584538515,13.263987333019193,2.0277679792269256,0.2083502258136058,B,722.8947499970673,Correct,sub_009_day_24_data.csv,1,600,,Button-Switch at home,,,,,,,,,,,,,d
9,24,711,B,42.91087244439118,31.015511546401964,2.145543622219559,0.487190516107529,B,829.3089990038425,Correct,sub_009_day_24_data.csv,1,600,,Button-Switch at home,,,,,,,,,,,,,d
9,24,712,A,50.128145785766066,63.40782469288238,2.5064072892883034,0.996007781176344,A,546.2080829965998,Correct,sub_009_day_24_data.csv,1,600,,Button-Switch at home,,,,,,,,,,,,,k
9,24,713,B,56.50043988530514,30.849070684587502,2.825021994265257,0.4845760691638617,B,1012.687583002844,Correct,sub_009_day_24_data.csv,1,600,,Button-Switch at home,,,,,,,,,,,,,d
9,24,714,A,48.379468602974534,66.80446206399107,2.4189734301487267,1.049362036236262,A,596.0592080009519,Correct,sub_009_day_24_data.csv,1,600,,Button-Switch at home,,,,,,,,,,,,,k
9,24,715,A,62.63064779600754,85.51910262006626,3.1315323898003773,1.343330922663959,A,605.0789159999113,Correct,sub_009_day_24_data.csv,1,600,,Button-Switch at home,,,,,,,,,,,,,k
9,24,716,A,54.62043959293028,80.86939202393313,2.731021979646514,1.2702934394133067,A,563.2811660034349,Correct,sub_009_day_24_data.csv,1,600,,Button-Switch at home,,,,,,,,,,,,,k
9,24,717,A,23.966444059542667,53.301066001768135,1.1983222029771334,0.8372511868982971,A,505.29716599703534,Correct,sub_009_day_24_data.csv,1,600,,Button-Switch at home,,,,,,,,,,,,,k
9,24,718,A,49.16110462009874,66.7365587354015,2.458055231004937,1.0482954132450053,A,636.5557499957504,Correct,sub_009_day_24_data.csv,1,600,,Button-Switch at home,,,,,,,,,,,,,k
9,24,719,B,56.00392733457775,47.75400977969389,2.8001963667288874,0.7501182315167073,B,663.4651669955929,Correct,sub_009_day_24_data.csv,1,600,,Button-Switch at home,,,,,,,,,,,,,d
9,24,720,A,31.390494232636353,58.76313264675927,1.5695247116318176,0.9230491291249072,A,628.989791002823,Correct,sub_009_day_24_data.csv,1,600,,Button-Switch at home,,,,,,,,,,,,,k
9,24,721,A,60.940854999958944,72.92668220681838,3.0470427499979476,1.1455296453580903,B,90.76245800679315,Incorrect,sub_009_day_24_data.csv,0,600,,Button-Switch at home,,,,,,,,,,,,,d
9,24,722,B,77.54897012380096,60.20816318193879,3.877448506190047,0.9457476156925716,B,760.1875000036671,Correct,sub_009_day_24_data.csv,1,600,,Button-Switch at home,,,,,,,,,,,,,d
9,24,723,B,62.82160801684942,33.16477583579766,3.141080400842471,0.5209510806184712,B,386.3716670020949,Correct,sub_009_day_24_data.csv,1,600,,Button-Switch at home,,,,,,,,,,,,,d
9,24,724,B,73.37364919010382,43.50394920527355,3.6686824595051912,0.6833584361271546,B,374.7561250056606,Correct,sub_009_day_24_data.csv,1,600,,Button-Switch at home,,,,,,,,,,,,,d
9,24,725,A,48.821831501686965,77.56378181867515,2.4410915750843483,1.2183690357309571,A,400.5029999971157,Correct,sub_009_day_24_data.csv,1,600,,Button-Switch at home,,,,,,,,,,,,,k
9,24,726,B,87.50653372546822,61.91551355543933,4.375326686273411,0.9725666126450372,B,657.1078749984736,Correct,sub_009_day_24_data.csv,1,600,,Button-Switch at home,,,,,,,,,,,,,d
9,24,727,B,50.74882266229666,29.50708032135497,2.537441133114833,0.4634961338322635,B,394.6699579973938,Correct,sub_009_day_24_data.csv,1,600,,Button-Switch at home,,,,,,,,,,,,,d
9,24,728,A,17.42855226701394,32.554629228707014,0.8714276133506971,0.5113669201262275,A,493.0377499986207,Correct,sub_009_day_24_data.csv,1,600,,Button-Switch at home,,,,,,,,,,,,,k
9,24,729,A,20.402618023524155,39.77775487987272,1.020130901176208,0.6248275125345183,A,414.1962080029771,Correct,sub_009_day_24_data.csv,1,600,,Button-Switch at home,,,,,,,,,,,,,k
9,24,730,A,67.60733183638371,86.51612069428056,3.380366591819185,1.3589920459511984,A,538.3617910047178,Correct,sub_009_day_24_data.csv,1,600,,Button-Switch at home,,,,,,,,,,,,,k
9,24,731,A,27.695562827357683,42.26266798965791,1.3847781413678844,0.663860436387069,A,495.1258740038611,Correct,sub_009_day_24_data.csv,1,600,,Button-Switch at home,,,,,,,,,,,,,k
9,24,732,A,33.302922596631454,56.04954403921576,1.6651461298315726,0.8804241789532891,A,417.6143750009942,Correct,sub_009_day_24_data.csv,1,600,,Button-Switch at home,,,,,,,,,,,,,k
9,24,733,B,44.5799581463135,30.5450085594235,2.228997907315675,0.4797998724706111,B,372.0835830026772,Correct,sub_009_day_24_data.csv,1,600,,Button-Switch at home,,,,,,,,,,,,,d
9,24,734,A,52.65047656027499,71.04249425763615,2.6325238280137495,1.115932890262424,A,413.7850410043029,Correct,sub_009_day_24_data.csv,1,600,,Button-Switch at home,,,,,,,,,,,,,k
9,24,735,B,56.0964347590573,24.13022823894681,2.804821737952865,0.3790367388246013,B,368.215874004818,Correct,sub_009_day_24_data.csv,1,600,,Button-Switch at home,,,,,,,,,,,,,d
9,24,736,B,69.17430419533041,60.18710408511497,3.4587152097665204,0.945416820173207,B,561.3757910032291,Correct,sub_009_day_24_data.csv,1,600,,Button-Switch at home,,,,,,,,,,,,,d
9,24,737,B,41.3379201164055,28.143519899516704,2.0668960058202748,0.4420773768123991,B,509.340249998786,Correct,sub_009_day_24_data.csv,1,600,,Button-Switch at home,,,,,,,,,,,,,d
9,24,738,B,54.513229990811325,23.88776107540766,2.7256614995405664,0.3752280735260446,B,438.4997910019592,Correct,sub_009_day_24_data.csv,1,600,,Button-Switch at home,,,,,,,,,,,,,d
9,24,739,B,50.139239562635325,27.960250331012347,2.5069619781317662,0.4391985851621998,B,437.1841249958379,Correct,sub_009_day_24_data.csv,1,600,,Button-Switch at home,,,,,,,,,,,,,d
9,24,740,A,35.38425137766259,52.81139544779457,1.7692125688831295,0.8295594598230843,A,573.4547910033143,Correct,sub_009_day_24_data.csv,1,600,,Button-Switch at home,,,,,,,,,,,,,k
9,24,741,A,37.254367189128615,54.09526117307029,1.862718359456431,0.8497263754766938,A,428.7736659971415,Correct,sub_009_day_24_data.csv,1,600,,Button-Switch at home,,,,,,,,,,,,,k
9,24,742,A,63.600929947434594,84.50370442586859,3.1800464973717295,1.32738108512716,A,536.8249580060365,Correct,sub_009_day_24_data.csv,1,600,,Button-Switch at home,,,,,,,,,,,,,k
9,24,743,B,38.96561047463034,15.75160348945208,1.948280523731517,0.24742560902361,B,405.8197499980451,Correct,sub_009_day_24_data.csv,1,600,,Button-Switch at home,,,,,,,,,,,,,d
9,24,744,A,11.925984578071184,30.907282098219945,0.5962992289035591,0.4854904519109755,A,391.48512500105426,Correct,sub_009_day_24_data.csv,1,600,,Button-Switch at home,,,,,,,,,,,,,k
9,24,745,B,48.75455384456777,25.781117352491567,2.4377276922283886,0.4049688443796192,B,428.03683300007833,Correct,sub_009_day_24_data.csv,1,600,,Button-Switch at home,,,,,,,,,,,,,d
9,24,746,B,80.25878527584128,51.48119510212091,4.012939263792064,0.8086647216542294,B,509.8490000018501,Correct,sub_009_day_24_data.csv,1,600,,Button-Switch at home,,,,,,,,,,,,,d
9,24,747,A,67.12554412540811,82.20204056522013,3.3562772062704056,1.2912266337489284,A,419.86970800644485,Correct,sub_009_day_24_data.csv,1,600,,Button-Switch at home,,,,,,,,,,,,,k
9,24,748,B,76.52642217150124,52.28396714925364,3.826321108575062,0.8212746354831266,B,436.8146669949056,Correct,sub_009_day_24_data.csv,1,600,,Button-Switch at home,,,,,,,,,,,,,d
9,24,749,A,28.500002569690935,50.38484203639376,1.4250001284845468,0.7914432479690842,A,359.88737500156276,Correct,sub_009_day_24_data.csv,1,600,,Button-Switch at home,,,,,,,,,,,,,k
9,24,750,A,31.505131364080032,60.446135526288614,1.5752565682040016,0.9494856765364066,A,388.3764999991399,Correct,sub_009_day_24_data.csv,1,600,,Button-Switch at home,,,,,,,,,,,,,k
9,24,751,B,59.312481059694974,29.9560200611555,2.9656240529847486,0.4705480627745729,B,404.5642919954844,Correct,sub_009_day_24_data.csv,1,600,,Button-Switch at home,,,,,,,,,,,,,d
9,24,752,A,27.558277657182245,39.89677496485327,1.3779138828591124,0.6266970756575411,A,653.9137910003774,Correct,sub_009_day_24_data.csv,1,600,,Button-Switch at home,,,,,,,,,,,,,k
9,24,753,B,52.66362665150286,30.319743228318288,2.633181332575143,0.476261412924068,B,458.3277080018888,Correct,sub_009_day_24_data.csv,1,600,,Button-Switch at home,,,,,,,,,,,,,d
9,24,754,A,21.702450113777445,47.391060994248015,1.0851225056888725,0.7444170453267769,A,395.6927910039667,Correct,sub_009_day_24_data.csv,1,600,,Button-Switch at home,,,,,,,,,,,,,k
9,24,755,A,68.0943301782087,88.95937838207391,3.4047165089104343,1.3973706479651904,A,502.8746239986503,Correct,sub_009_day_24_data.csv,1,600,,Button-Switch at home,,,,,,,,,,,,,k
9,24,756,A,61.25930397840301,75.50598762512114,3.06296519892015,1.186045280125612,A,410.5404579968308,Correct,sub_009_day_24_data.csv,1,600,,Button-Switch at home,,,,,,,,,,,,,k
9,24,757,B,60.553872493562785,48.838364463809064,3.0276936246781396,0.7671512350642169,B,455.74420799675863,Correct,sub_009_day_24_data.csv,1,600,,Button-Switch at home,,,,,,,,,,,,,d
9,24,758,A,35.61045236034163,64.96098935225913,1.7805226180170817,1.0204048345949102,A,339.79354099574266,Correct,sub_009_day_24_data.csv,1,600,,Button-Switch at home,,,,,,,,,,,,,k
9,24,759,B,47.84735803877719,22.850330636470765,2.3923679019388597,0.3589321542981717,B,420.47237399674486,Correct,sub_009_day_24_data.csv,1,600,,Button-Switch at home,,,,,,,,,,,,,d
9,24,760,A,22.404637580391753,33.724546249053546,1.1202318790195875,0.5297439337083792,A,463.7910000019474,Correct,sub_009_day_24_data.csv,1,600,,Button-Switch at home,,,,,,,,,,,,,k
9,24,761,A,22.825358798129653,43.879263925023,1.141267939906483,0.6892538659588994,A,387.866082994151,Correct,sub_009_day_24_data.csv,1,600,,Button-Switch at home,,,,,,,,,,,,,k
9,24,762,B,49.518934119598256,40.53376016542326,2.475946705979913,0.6367028157903216,B,444.93191599758575,Correct,sub_009_day_24_data.csv,1,600,,Button-Switch at home,,,,,,,,,,,,,d
9,24,763,A,42.91185261217847,72.74697725166907,2.1455926306089235,1.1427068465235366,A,358.5730409977259,Correct,sub_009_day_24_data.csv,1,600,,Button-Switch at home,,,,,,,,,,,,,k
9,24,764,B,78.78242182339335,66.5145915382819,3.939121091169667,1.0448087606659613,B,429.65704100060975,Correct,sub_009_day_24_data.csv,1,600,,Button-Switch at home,,,,,,,,,,,,,d
9,24,765,B,53.66452500521105,32.60976894600611,2.683226250260552,0.512233052780167,B,417.72929100261535,Correct,sub_009_day_24_data.csv,1,600,,Button-Switch at home,,,,,,,,,,,,,d
9,24,766,A,11.374551348770012,37.137175131895745,0.5687275674385006,0.5833493828472062,A,750.1322500029346,Correct,sub_009_day_24_data.csv,1,600,,Button-Switch at home,,,,,,,,,,,,,k
9,24,767,A,25.27035200837881,38.929421584040256,1.2635176004189406,0.6115019242846039,A,516.5640000050189,Correct,sub_009_day_24_data.csv,1,600,,Button-Switch at home,,,,,,,,,,,,,k
9,24,768,B,41.17187363409583,22.6430025326926,2.058593681704792,0.3556754520596107,B,699.4492079975316,Correct,sub_009_day_24_data.csv,1,600,,Button-Switch at home,,,,,,,,,,,,,d
9,24,769,B,61.462320940685224,37.4360267604671,3.073116047034261,0.5880437332513716,B,671.1566660014796,Correct,sub_009_day_24_data.csv,1,600,,Button-Switch at home,,,,,,,,,,,,,d
9,24,770,A,15.293175980676637,35.42004573515962,0.7646587990338318,0.5563767773569597,A,352.80112399777863,Correct,sub_009_day_24_data.csv,1,600,,Button-Switch at home,,,,,,,,,,,,,k
9,24,771,B,59.034067735878,33.25506295511349,2.9517033867939,0.5223693073722531,B,478.8827500015031,Correct,sub_009_day_24_data.csv,1,600,,Button-Switch at home,,,,,,,,,,,,,d
9,24,772,A,61.80919758858192,88.15223386118141,3.0904598794290963,1.3846920514790846,A,763.1859160028398,Correct,sub_009_day_24_data.csv,1,600,,Button-Switch at home,,,,,,,,,,,,,k
9,24,773,A,41.1322970545432,49.180406621365535,2.0566148527271597,0.7725240207112039,A,599.0420410016668,Correct,sub_009_day_24_data.csv,1,600,,Button-Switch at home,,,,,,,,,,,,,k
9,24,774,B,55.559290537466595,26.83370365182141,2.7779645268733297,0.4215028313058387,B,933.8034169995808,Correct,sub_009_day_24_data.csv,1,600,,Button-Switch at home,,,,,,,,,,,,,d
9,24,775,A,26.165541136884112,55.365304141941145,1.3082770568442057,0.8696761637804341,A,613.7549159975606,Correct,sub_009_day_24_data.csv,1,600,,Button-Switch at home,,,,,,,,,,,,,k
9,24,776,A,61.511595868585,71.03617413906152,3.0755797934292497,1.1158336140720044,A,491.8772910023108,Correct,sub_009_day_24_data.csv,1,600,,Button-Switch at home,,,,,,,,,,,,,k
9,24,777,A,57.772645875866814,86.3358496461444,2.888632293793341,1.3561603549488008,A,746.650540997507,Correct,sub_009_day_24_data.csv,1,600,,Button-Switch at home,,,,,,,,,,,,,k
9,24,778,A,15.017531220657688,36.08558330198811,0.7508765610328844,0.5668310170101418,A,978.9859579977928,Correct,sub_009_day_24_data.csv,1,600,,Button-Switch at home,,,,,,,,,,,,,k
9,24,779,A,51.91219303199631,64.60272561286533,2.5956096515998155,1.0147772409362743,A,597.2532500018133,Correct,sub_009_day_24_data.csv,1,600,,Button-Switch at home,,,,,,,,,,,,,k
9,24,780,B,79.5468975870869,56.744247356929314,3.9773448793543458,0.8913365531500558,B,828.2035410011304,Correct,sub_009_day_24_data.csv,1,600,,Button-Switch at home,,,,,,,,,,,,,d
9,24,781,B,39.3055685674118,29.989473162265146,1.9652784283705895,0.4710735428580023,B,1113.2019579963526,Correct,sub_009_day_24_data.csv,1,600,,Button-Switch at home,,,,,,,,,,,,,d
9,24,782,B,66.16309417533147,48.85503861530826,3.3081547087665735,0.7674131520234904,B,797.6993740012404,Correct,sub_009_day_24_data.csv,1,600,,Button-Switch at home,,,,,,,,,,,,,d
9,24,783,A,40.427260651845664,47.84926334992964,2.021363032592283,0.7516144710991115,A,618.9038330048788,Correct,sub_009_day_24_data.csv,1,600,,Button-Switch at home,,,,,,,,,,,,,k
9,24,784,B,46.32439706797273,24.2977007831501,2.316219853398637,0.3816673913973366,B,584.2715830003726,Correct,sub_009_day_24_data.csv,1,600,,Button-Switch at home,,,,,,,,,,,,,d
9,24,785,A,32.42343127102844,54.151170331300406,1.621171563551422,0.8506045944805145,A,500.985207996564,Correct,sub_009_day_24_data.csv,1,600,,Button-Switch at home,,,,,,,,,,,,,k
9,24,786,B,46.658152557397,24.63005567064466,2.33290762786985,0.3868880097620243,B,413.6009159992682,Correct,sub_009_day_24_data.csv,1,600,,Button-Switch at home,,,,,,,,,,,,,d
9,24,787,B,80.23253576500284,62.52019987390178,4.011626788250141,0.9820650031240769,B,492.4775000035879,Correct,sub_009_day_24_data.csv,1,600,,Button-Switch at home,,,,,,,,,,,,,d
9,24,788,B,54.34698875308309,38.02895668254478,2.7173494376541543,0.5973574546878357,B,417.115415999433,Correct,sub_009_day_24_data.csv,1,600,,Button-Switch at home,,,,,,,,,,,,,d
9,24,789,A,42.45866433027498,55.19419865046059,2.122933216513749,0.8669884450053134,A,725.8017079948331,Correct,sub_009_day_24_data.csv,1,600,,Button-Switch at home,,,,,,,,,,,,,k
9,24,790,A,57.775025729507256,68.35874536514696,2.8887512864753626,1.073776661238805,A,787.9083329971763,Correct,sub_009_day_24_data.csv,1,600,,Button-Switch at home,,,,,,,,,,,,,k
9,24,791,A,46.740759564723646,61.671049847146435,2.3370379782361823,0.9687265856948258,A,447.55504099885,Correct,sub_009_day_24_data.csv,1,600,,Button-Switch at home,,,,,,,,,,,,,k
9,24,792,A,18.126432112470532,40.080926492083194,0.9063216056235264,0.6295897210830054,A,456.5329580000253,Correct,sub_009_day_24_data.csv,1,600,,Button-Switch at home,,,,,,,,,,,,,k
9,24,793,B,42.12225906940402,19.46320495622317,2.1061129534702014,0.3057273085289157,B,670.2162079964182,Correct,sub_009_day_24_data.csv,1,600,,Button-Switch at home,,,,,,,,,,,,,d
9,24,794,A,19.82962066773124,38.05439428570412,0.991481033386562,0.5977570276238874,A,877.7952079981333,Correct,sub_009_day_24_data.csv,1,600,,Button-Switch at home,,,,,,,,,,,,,k
9,24,795,A,35.23229584597374,67.03531876892528,1.761614792298687,1.0529883248775282,A,426.22812499757856,Correct,sub_009_day_24_data.csv,1,600,,Button-Switch at home,,,,,,,,,,,,,k
9,24,796,B,57.60343589227024,25.42219019435277,2.8801717946135117,0.3993308297637056,B,467.01545800169697,Correct,sub_009_day_24_data.csv,1,600,,Button-Switch at home,,,,,,,,,,,,,d
9,24,797,B,68.13240116222603,55.08167882976729,3.4066200581113013,0.8652209877949468,B,543.0393329952494,Correct,sub_009_day_24_data.csv,1,600,,Button-Switch at home,,,,,,,,,,,,,d
9,24,798,A,45.25437197507342,60.15098173552345,2.2627185987536707,0.9448494116326716,A,633.4912909951527,Correct,sub_009_day_24_data.csv,1,600,,Button-Switch at home,,,,,,,,,,,,,k
9,24,799,B,62.09610901013281,29.010657053058637,3.1048054505066403,0.4556983353685096,B,1076.0659580046197,Correct,sub_009_day_24_data.csv,1,600,,Button-Switch at home,,,,,,,,,,,,,d
9,24,800,B,42.47354516899159,21.587139693293235,2.12367725844958,0.3390899973623332,B,390.8002500029397,Correct,sub_009_day_24_data.csv,1,600,,Button-Switch at home,,,,,,,,,,,,,d
9,24,801,B,79.07140082131352,51.63176467893456,3.953570041065676,0.811029863036089,B,397.78020799712976,Correct,sub_009_day_24_data.csv,1,600,,Button-Switch at home,,,,,,,,,,,,,d
9,24,802,A,12.202513090355332,33.79788118706868,0.6101256545177666,0.5308958762209782,A,413.36041600152384,Correct,sub_009_day_24_data.csv,1,600,,Button-Switch at home,,,,,,,,,,,,,k
9,24,803,B,53.98166103098388,24.65209222724074,2.6990830515491937,0.3872341591835878,B,324.7271660002298,Correct,sub_009_day_24_data.csv,1,600,,Button-Switch at home,,,,,,,,,,,,,d
9,24,804,A,17.954882628304006,36.25349526337571,0.8977441314152003,0.5694685719318675,A,347.46391600492643,Correct,sub_009_day_24_data.csv,1,600,,Button-Switch at home,,,,,,,,,,,,,k
9,24,805,B,84.1435825915442,56.497064120709496,4.20717912957721,0.8874538079550622,B,404.09687499777647,Correct,sub_009_day_24_data.csv,1,600,,Button-Switch at home,,,,,,,,,,,,,d
9,24,806,A,28.443918810124465,60.932789289934895,1.4221959405062234,0.9571300159799716,A,333.4582910028985,Correct,sub_009_day_24_data.csv,1,600,,Button-Switch at home,,,,,,,,,,,,,k
9,24,807,B,30.723780525729435,13.31274080872842,1.5361890262864717,0.2091160436192312,B,789.8769579987857,Correct,sub_009_day_24_data.csv,1,600,,Button-Switch at home,,,,,,,,,,,,,d
9,24,808,B,55.70140171713666,30.41719528037509,2.785070085856833,0.4777921861781625,B,1555.2967080002418,Correct,sub_009_day_24_data.csv,1,600,,Button-Switch at home,,,,,,,,,,,,,d
9,24,809,B,58.10257465029764,34.53714552874594,2.905128732514882,0.542508213345349,B,385.7761660037795,Correct,sub_009_day_24_data.csv,1,600,,Button-Switch at home,,,,,,,,,,,,,d
9,24,810,B,39.97415476457137,20.421096414637905,1.9987077382285685,0.3207738323723765,B,393.7844160027453,Correct,sub_009_day_24_data.csv,1,600,,Button-Switch at home,,,,,,,,,,,,,d
9,24,811,B,37.55372187841898,15.995259177331205,1.877686093920949,0.2512529436188421,B,412.4071240003104,Correct,sub_009_day_24_data.csv,1,600,,Button-Switch at home,,,,,,,,,,,,,d
9,24,812,B,74.55804752003104,50.24838369705991,3.727902376001552,0.7892997653872226,B,382.48475000000326,Correct,sub_009_day_24_data.csv,1,600,,Button-Switch at home,,,,,,,,,,,,,d
9,24,813,B,34.894120675447866,11.175478729716438,1.7447060337723934,0.1755440093881307,B,375.6102490006014,Correct,sub_009_day_24_data.csv,1,600,,Button-Switch at home,,,,,,,,,,,,,d
9,24,814,B,35.00235471909993,23.28221679957863,1.7501177359549962,0.3657162062842055,B,426.9300419982755,Correct,sub_009_day_24_data.csv,1,600,,Button-Switch at home,,,,,,,,,,,,,d
9,24,815,B,74.70062792226697,47.45379466667699,3.735031396113349,0.7454024635489548,B,316.969915998925,Correct,sub_009_day_24_data.csv,1,600,,Button-Switch at home,,,,,,,,,,,,,d
9,24,816,B,68.47940308669274,56.64341471833826,3.4239701543346373,0.8897526777668573,B,326.2527500046417,Correct,sub_009_day_24_data.csv,1,600,,Button-Switch at home,,,,,,,,,,,,,d
9,24,817,A,27.642172661094605,54.87543065548001,1.3821086330547303,0.8619812490491605,A,419.6105830051238,Correct,sub_009_day_24_data.csv,1,600,,Button-Switch at home,,,,,,,,,,,,,k
9,24,818,A,40.97862276203048,54.06472753607285,2.048931138101524,0.8492467542283011,A,504.42370800010394,Correct,sub_009_day_24_data.csv,1,600,,Button-Switch at home,,,,,,,,,,,,,k
9,24,819,A,33.50522627657976,59.69298329650724,1.6752613138289882,0.9376551889758268,A,1356.089499000518,Correct,sub_009_day_24_data.csv,1,600,,Button-Switch at home,,,,,,,,,,,,,k
9,24,820,B,70.15273076491988,58.294029711312255,3.5076365382459938,0.9156804774460184,B,2212.877165999089,Correct,sub_009_day_24_data.csv,1,600,,Button-Switch at home,,,,,,,,,,,,,d
9,24,821,B,37.09082466506422,24.55868359366959,1.854541233253211,0.3857668997985428,B,1174.9395000006189,Correct,sub_009_day_24_data.csv,1,600,,Button-Switch at home,,,,,,,,,,,,,d
9,24,822,A,61.204453996610894,76.90948577529667,3.0602226998305446,1.2080913775152036,A,575.2413740046904,Correct,sub_009_day_24_data.csv,1,600,,Button-Switch at home,,,,,,,,,,,,,k
9,24,823,B,70.1354065936268,42.06976013801725,3.5067703296813395,0.6608302469393984,B,316.7249170001014,Correct,sub_009_day_24_data.csv,1,600,,Button-Switch at home,,,,,,,,,,,,,d
9,24,824,B,68.53278204195831,49.516323699997585,3.4266391020979152,0.7778005938434328,B,446.6144580001128,Correct,sub_009_day_24_data.csv,1,600,,Button-Switch at home,,,,,,,,,,,,,d
9,24,825,B,53.996379573529445,33.13516170946389,2.699818978676472,0.5204859030098078,B,445.818958003656,Correct,sub_009_day_24_data.csv,1,600,,Button-Switch at home,,,,,,,,,,,,,d
9,24,826,B,51.042294735517615,26.819555366172963,2.5521147367758807,0.4212805905545684,B,399.3997910001781,Correct,sub_009_day_24_data.csv,1,600,,Button-Switch at home,,,,,,,,,,,,,d
9,24,827,B,61.79596122831811,46.41883413813811,3.0897980614159057,0.7291453415828891,B,425.5694579987903,Correct,sub_009_day_24_data.csv,1,600,,Button-Switch at home,,,,,,,,,,,,,d
9,24,828,A,19.871816998880117,41.76113064632965,0.993590849944006,0.655982306220564,A,365.9763739997288,Correct,sub_009_day_24_data.csv,1,600,,Button-Switch at home,,,,,,,,,,,,,k
9,24,829,A,59.46126707459345,80.82359411098841,2.973063353729673,1.269574047479022,A,504.3481239990797,Correct,sub_009_day_24_data.csv,1,600,,Button-Switch at home,,,,,,,,,,,,,k
9,24,830,B,64.9292412583184,52.72890744979124,3.24646206291592,0.8282637413804013,B,442.5647489988478,Correct,sub_009_day_24_data.csv,1,600,,Button-Switch at home,,,,,,,,,,,,,d
9,24,831,B,33.85064425322636,10.999267909863274,1.6925322126613185,0.1727760963024621,B,475.84333299892023,Correct,sub_009_day_24_data.csv,1,600,,Button-Switch at home,,,,,,,,,,,,,d
9,24,832,A,18.34165844787837,45.810792179996106,0.9170829223939182,0.7195942408390225,A,515.6439999991562,Correct,sub_009_day_24_data.csv,1,600,,Button-Switch at home,,,,,,,,,,,,,k
9,24,833,A,38.946801857718256,47.20327812073748,1.9473400928859128,0.7414673588473234,A,383.8525000028312,Correct,sub_009_day_24_data.csv,1,600,,Button-Switch at home,,,,,,,,,,,,,k
9,24,834,B,77.46113488578358,52.19675399230974,3.873056744289179,0.8199046944173699,B,2393.2354999997187,Correct,sub_009_day_24_data.csv,1,600,,Button-Switch at home,,,,,,,,,,,,,d
9,24,835,A,41.878367059989145,71.51677192250907,2.0939183529994576,1.1233828264010564,A,457.92241600429406,Correct,sub_009_day_24_data.csv,1,600,,Button-Switch at home,,,,,,,,,,,,,k
9,24,836,A,38.06943862457917,59.58587256185629,1.9034719312289583,0.9359726974903266,A,343.3272079928429,Correct,sub_009_day_24_data.csv,1,600,,Button-Switch at home,,,,,,,,,,,,,k
9,24,837,B,40.032734165555226,20.432511861479263,2.0016367082777613,0.3209531457920478,B,321.59545800095657,Correct,sub_009_day_24_data.csv,1,600,,Button-Switch at home,,,,,,,,,,,,,d
9,24,838,A,45.57168214986466,72.02452749352011,2.278584107493233,1.1313586322595943,A,370.20191599731334,Correct,sub_009_day_24_data.csv,1,600,,Button-Switch at home,,,,,,,,,,,,,k
9,24,839,A,15.950072188974584,34.50553552234478,0.7975036094487292,0.5420116845259,A,387.51720800064504,Correct,sub_009_day_24_data.csv,1,600,,Button-Switch at home,,,,,,,,,,,,,k
9,24,840,B,87.80727848635978,67.39577632753384,4.390363924317989,1.058650378967806,B,312.91845799569273,Correct,sub_009_day_24_data.csv,1,600,,Button-Switch at home,,,,,,,,,,,,,d
9,24,841,B,36.81866958420791,12.97356479952554,1.8409334792103953,0.2037882793253028,B,494.665582999005,Correct,sub_009_day_24_data.csv,1,600,,Button-Switch at home,,,,,,,,,,,,,d
9,24,842,B,71.81475131887146,54.06449927879691,3.5907375659435727,0.8492431687713953,B,470.2504159940872,Correct,sub_009_day_24_data.csv,1,600,,Button-Switch at home,,,,,,,,,,,,,d
9,24,843,B,66.34253034638593,36.959359249244365,3.3171265173192968,0.5805562574940604,B,359.43412499909755,Correct,sub_009_day_24_data.csv,1,600,,Button-Switch at home,,,,,,,,,,,,,d
9,24,844,B,62.142696903321365,35.78649290663697,3.1071348451660685,0.5621329160661698,B,360.495583001466,Correct,sub_009_day_24_data.csv,1,600,,Button-Switch at home,,,,,,,,,,,,,d
9,24,845,B,65.48082873154812,55.79326105142898,3.2740414365774058,0.8763984951949341,B,481.3589170007617,Correct,sub_009_day_24_data.csv,1,600,,Button-Switch at home,,,,,,,,,,,,,d
9,24,846,A,50.23955276824856,72.71320475892463,2.5119776384124277,1.14217634944804,A,810.9238329998334,Correct,sub_009_day_24_data.csv,1,600,,Button-Switch at home,,,,,,,,,,,,,k
9,24,847,B,66.01902242975095,50.432891099285605,3.3009511214875475,0.7921980008840486,B,379.8877500012168,Correct,sub_009_day_24_data.csv,1,600,,Button-Switch at home,,,,,,,,,,,,,d
9,24,848,A,42.42807498156668,67.53738506765589,2.121403749078334,1.0608747638560638,A,473.21987499890383,Correct,sub_009_day_24_data.csv,1,600,,Button-Switch at home,,,,,,,,,,,,,k
9,24,849,A,14.836787820011878,41.260690408217854,0.7418393910005939,0.6481214093425003,A,414.1443749977043,Correct,sub_009_day_24_data.csv,1,600,,Button-Switch at home,,,,,,,,,,,,,k
9,24,850,B,46.115671082420235,27.780791041541804,2.305783554121012,0.4363796452351043,B,385.7417910039658,Correct,sub_009_day_24_data.csv,1,600,,Button-Switch at home,,,,,,,,,,,,,d
9,24,851,A,43.18459949872994,61.05362874063042,2.1592299749364967,0.959028157632816,A,393.3811250026338,Correct,sub_009_day_24_data.csv,1,600,,Button-Switch at home,,,,,,,,,,,,,k
9,24,852,B,83.36048877375745,57.187138589065,4.168024438687873,0.89829347235614,B,1101.45699900022,Correct,sub_009_day_24_data.csv,1,600,,Button-Switch at home,,,,,,,,,,,,,d
9,24,853,A,48.50191719009932,74.79527151971463,2.425095859504966,1.174881377647947,A,380.8217080004397,Correct,sub_009_day_24_data.csv,1,600,,Button-Switch at home,,,,,,,,,,,,,k
9,24,854,A,33.687596536663875,63.76856428947521,1.6843798268331938,1.0016742655089188,A,498.5935829972732,Correct,sub_009_day_24_data.csv,1,600,,Button-Switch at home,,,,,,,,,,,,,k
9,24,855,A,37.096947448968315,69.34879126764068,1.8548473724484156,1.0893282659087598,A,371.16920800326625,Correct,sub_009_day_24_data.csv,1,600,,Button-Switch at home,,,,,,,,,,,,,k
9,24,856,B,33.58591485085083,11.009060336353002,1.6792957425425414,0.1729299153780668,B,473.6946249977336,Correct,sub_009_day_24_data.csv,1,600,,Button-Switch at home,,,,,,,,,,,,,d
9,24,857,B,78.34419380967424,55.94647030026013,3.917209690483712,0.8788051004478837,B,444.4726669971715,Correct,sub_009_day_24_data.csv,1,600,,Button-Switch at home,,,,,,,,,,,,,d
9,24,858,A,27.45752206840853,57.82949014022885,1.3728761034204262,0.9083835069269316,A,654.3704169962439,Correct,sub_009_day_24_data.csv,1,600,,Button-Switch at home,,,,,,,,,,,,,k
9,24,859,A,31.395558739590967,40.193279927210966,1.5697779369795484,0.6313545647150204,A,379.0997079995577,Correct,sub_009_day_24_data.csv,1,600,,Button-Switch at home,,,,,,,,,,,,,k
9,24,860,A,40.79229527139972,61.604132310620834,2.039614763569986,0.9676754474891,A,366.4140830005635,Correct,sub_009_day_24_data.csv,1,600,,Button-Switch at home,,,,,,,,,,,,,k
9,24,861,A,45.7863724867724,64.51493433954398,2.28931862433862,1.0133982188396962,A,389.7430830038502,Correct,sub_009_day_24_data.csv,1,600,,Button-Switch at home,,,,,,,,,,,,,k
9,24,862,B,79.76822915352653,61.62024007756922,3.9884114576763263,0.967928467700654,B,357.21333300170954,Correct,sub_009_day_24_data.csv,1,600,,Button-Switch at home,,,,,,,,,,,,,d
9,24,863,A,38.27376019029192,68.74505146366023,1.913688009514596,1.0798447432444362,A,969.6173739939696,Correct,sub_009_day_24_data.csv,1,600,,Button-Switch at home,,,,,,,,,,,,,k
9,24,864,A,45.427781370194026,58.3428831536224,2.271389068509701,0.9164478655233392,A,587.6037080015521,Correct,sub_009_day_24_data.csv,1,600,,Button-Switch at home,,,,,,,,,,,,,k
9,24,865,A,13.785245430059575,35.474771448658686,0.6892622715029788,0.5572364068544153,A,439.6489159989869,Correct,sub_009_day_24_data.csv,1,600,,Button-Switch at home,,,,,,,,,,,,,k
9,24,866,B,66.21975216245936,33.48296891543409,3.310987608122968,0.5259492458255157,B,679.6087080001598,Correct,sub_009_day_24_data.csv,1,600,,Button-Switch at home,,,,,,,,,,,,,d
9,24,867,A,55.17807277884032,81.03162155745335,2.758903638942016,1.2728417349668186,A,702.9579170048237,Correct,sub_009_day_24_data.csv,1,600,,Button-Switch at home,,,,,,,,,,,,,k
9,24,868,A,47.794468659411855,73.99049027351047,2.3897234329705928,1.162239903393838,A,408.00566600228194,Correct,sub_009_day_24_data.csv,1,600,,Button-Switch at home,,,,,,,,,,,,,k
9,24,869,A,47.79727676768769,75.22682677841637,2.3898638383843847,1.181660231799724,A,399.5251250016736,Correct,sub_009_day_24_data.csv,1,600,,Button-Switch at home,,,,,,,,,,,,,k
9,24,870,B,80.58165379041489,53.64994874056357,4.029082689520744,0.8427314241441173,B,369.93083299603313,Correct,sub_009_day_24_data.csv,1,600,,Button-Switch at home,,,,,,,,,,,,,d
9,24,871,A,32.39456990668795,45.444806370877885,1.6197284953343971,0.713845349192803,A,656.4847490008106,Correct,sub_009_day_24_data.csv,1,600,,Button-Switch at home,,,,,,,,,,,,,k
9,24,872,B,42.31745812000386,33.30157901609872,2.115872906000193,0.5230999799495787,B,1018.821833000402,Correct,sub_009_day_24_data.csv,1,600,,Button-Switch at home,,,,,,,,,,,,,d
9,24,873,A,37.276862285095454,58.2055299047576,1.863843114254773,0.9142903257354374,A,575.9987080018618,Correct,sub_009_day_24_data.csv,1,600,,Button-Switch at home,,,,,,,,,,,,,k
9,24,874,A,33.16899583176845,60.490699905539664,1.6584497915884224,0.950185692168741,A,473.9589579985477,Correct,sub_009_day_24_data.csv,1,600,,Button-Switch at home,,,,,,,,,,,,,k
9,24,875,A,36.63630107518236,67.02146539418433,1.831815053759118,1.05277071657596,A,386.6564989948529,Correct,sub_009_day_24_data.csv,1,600,,Button-Switch at home,,,,,,,,,,,,,k
9,24,876,B,84.52920946567109,63.72041477822561,4.226460473283555,1.0009179347548405,B,420.69333299878053,Correct,sub_009_day_24_data.csv,1,600,,Button-Switch at home,,,,,,,,,,,,,d
9,24,877,B,64.39997869123748,34.31518163293826,3.219998934561874,0.5390216126231913,B,492.83099999593105,Correct,sub_009_day_24_data.csv,1,600,,Button-Switch at home,,,,,,,,,,,,,d
9,24,878,B,45.7812987890546,16.781621831243395,2.28906493945273,0.2636050993017817,A,411.8638329964597,Incorrect,sub_009_day_24_data.csv,0,600,,Button-Switch at home,,,,,,,,,,,,,k
9,24,879,B,33.87358498986817,10.79771709504708,1.6936792494934083,0.1696101435067041,B,535.5675829996471,Correct,sub_009_day_24_data.csv,1,600,,Button-Switch at home,,,,,,,,,,,,,d
9,24,880,A,50.944708627597485,74.2216814478019,2.547235431379874,1.1658714458674817,A,584.5564999981434,Correct,sub_009_day_24_data.csv,1,600,,Button-Switch at home,,,,,,,,,,,,,k
9,24,881,B,44.08543109295706,28.13923233924609,2.204271554647853,0.4420100279731592,B,513.7698329999694,Correct,sub_009_day_24_data.csv,1,600,,Button-Switch at home,,,,,,,,,,,,,d
9,24,882,A,20.755299290007574,48.71819039063784,1.0377649645003788,0.7652635451370836,A,414.8747910003294,Correct,sub_009_day_24_data.csv,1,600,,Button-Switch at home,,,,,,,,,,,,,k
9,24,883,B,65.05192380749018,55.357979778705115,3.2525961903745095,0.8695611129517615,B,626.69737500255,Correct,sub_009_day_24_data.csv,1,600,,Button-Switch at home,,,,,,,,,,,,,d
9,24,884,B,59.58488736682579,50.75719060176009,2.9792443683412895,0.7972920855567319,B,1038.1112909963122,Correct,sub_009_day_24_data.csv,1,600,,Button-Switch at home,,,,,,,,,,,,,d
9,24,885,B,53.65923000809454,26.30391108025811,2.682961500404727,0.4131808690520901,B,459.5928329945309,Correct,sub_009_day_24_data.csv,1,600,,Button-Switch at home,,,,,,,,,,,,,d
9,24,886,A,38.410211604040946,61.92069969278159,1.9205105802020472,0.9726480762999118,A,650.8480830016197,Correct,sub_009_day_24_data.csv,1,600,,Button-Switch at home,,,,,,,,,,,,,k
9,24,887,B,68.78383790475189,53.37232311846473,3.4391918952375944,0.8383704910699473,B,502.2956660031923,Correct,sub_009_day_24_data.csv,1,600,,Button-Switch at home,,,,,,,,,,,,,d
9,24,888,A,19.085510784119055,40.39580500410787,0.9542755392059528,0.6345358211837555,A,490.768042000127,Correct,sub_009_day_24_data.csv,1,600,,Button-Switch at home,,,,,,,,,,,,,k
9,24,889,A,48.85221601792655,74.60353608454186,2.442610800896327,1.1718696044750887,A,448.0771669987007,Correct,sub_009_day_24_data.csv,1,600,,Button-Switch at home,,,,,,,,,,,,,k
9,24,890,B,64.66428593939817,42.814178314390354,3.2332142969699085,0.6725235403098608,B,463.839874995756,Correct,sub_009_day_24_data.csv,1,600,,Button-Switch at home,,,,,,,,,,,,,d
9,24,891,A,52.93187973979231,78.57143363492912,2.646593986989615,1.2341971934475566,A,522.5194160011597,Correct,sub_009_day_24_data.csv,1,600,,Button-Switch at home,,,,,,,,,,,,,k
9,24,892,B,61.76654874595026,34.17587721673221,3.088327437297514,0.5368334239703635,B,431.46641600469593,Correct,sub_009_day_24_data.csv,1,600,,Button-Switch at home,,,,,,,,,,,,,d
9,24,893,A,32.83089033527929,49.19415552085816,1.6415445167639646,0.7727399879194088,A,378.4485830037738,Correct,sub_009_day_24_data.csv,1,600,,Button-Switch at home,,,,,,,,,,,,,k
9,24,894,A,66.64488575706189,89.47214699696164,3.3322442878530945,1.405425198532804,B,398.797249996278,Incorrect,sub_009_day_24_data.csv,0,600,,Button-Switch at home,,,,,,,,,,,,,d
9,24,895,B,61.93940170792823,39.52172509375234,3.0969700853964115,0.6208058060586386,A,465.56404199509416,Incorrect,sub_009_day_24_data.csv,0,600,,Button-Switch at home,,,,,,,,,,,,,k
9,24,896,A,50.030067995775894,77.93178987767706,2.5015033997887945,1.2241496928040685,A,361.4659160011797,Correct,sub_009_day_24_data.csv,1,600,,Button-Switch at home,,,,,,,,,,,,,k
9,24,897,A,56.88168839076754,68.29255808099738,2.8440844195383774,1.0727369938105782,A,463.5994579948602,Correct,sub_009_day_24_data.csv,1,600,,Button-Switch at home,,,,,,,,,,,,,k
9,24,898,B,89.10883302874714,66.57775818798231,4.455441651437357,1.0458009800792147,B,842.9990000004182,Correct,sub_009_day_24_data.csv,1,600,,Button-Switch at home,,,,,,,,,,,,,d
9,24,899,B,63.44239115523093,44.478477681820834,3.172119557761546,0.6986662936403295,B,1091.3068749941883,Correct,sub_009_day_24_data.csv,1,600,,Button-Switch at home,,,,,,,,,,,,,d
9,24,900,B,47.159425035838034,39.117961753618545,2.3579712517919016,0.6144635063428727,B,2602.046167005028,Correct,sub_009_day_24_data.csv,1,600,,Button-Switch at home,,,,,,,,,,,,,d
9,24,901,B,74.37270602984783,51.0617352024968,3.718635301492392,0.8020758609585562,B,951.2538330018288,Correct,sub_009_day_24_data.csv,1,600,,Button-Switch at home,,,,,,,,,,,,,d
9,24,902,A,43.34156228386812,57.05118718555616,2.167078114193406,0.8961579527035969,A,5054.363040995668,Correct,sub_009_day_24_data.csv,1,600,,Button-Switch at home,,,,,,,,,,,,,k
9,24,903,A,37.56370178284349,60.6701961128724,1.8781850891421743,0.9530052120002596,A,404.73629100597464,Correct,sub_009_day_24_data.csv,1,600,,Button-Switch at home,,,,,,,,,,,,,k
9,24,904,B,58.43677618509418,49.04522450437018,2.921838809254709,0.7704005849829573,A,1088.033332998748,Incorrect,sub_009_day_24_data.csv,0,600,,Button-Switch at home,,,,,,,,,,,,,k
9,24,905,B,75.57631153789939,64.90316456122662,3.7788155768949694,1.019496524901395,B,594.0648329997202,Correct,sub_009_day_24_data.csv,1,600,,Button-Switch at home,,,,,,,,,,,,,d
9,24,906,B,48.319886745490614,31.09445933508761,2.4159943372745305,0.4884306250722889,B,445.1786670033471,Correct,sub_009_day_24_data.csv,1,600,,Button-Switch at home,,,,,,,,,,,,,d
9,24,907,B,61.02114289420007,31.48419316905156,3.051057144710003,0.4945525498204716,B,429.8599579997244,Correct,sub_009_day_24_data.csv,1,600,,Button-Switch at home,,,,,,,,,,,,,d
9,24,908,A,53.83078179017093,62.11231101542283,2.6915390895085465,0.9756578999176838,A,362.2572910026065,Correct,sub_009_day_24_data.csv,1,600,,Button-Switch at home,,,,,,,,,,,,,k
9,24,909,A,53.988117549705926,66.60759653296911,2.6994058774852965,1.0462696797062436,A,424.70341700391145,Correct,sub_009_day_24_data.csv,1,600,,Button-Switch at home,,,,,,,,,,,,,k
9,24,910,B,52.04518016054084,37.82713466041657,2.602259008027042,0.5941872417775826,B,485.3423329986981,Correct,sub_009_day_24_data.csv,1,600,,Button-Switch at home,,,,,,,,,,,,,d
9,24,911,A,46.99400783363882,69.67021651689856,2.349700391681941,1.094377201917494,A,444.18329099426046,Correct,sub_009_day_24_data.csv,1,600,,Button-Switch at home,,,,,,,,,,,,,k
9,24,912,A,36.593905498642336,48.33424559192358,1.8296952749321167,0.75923255434196,A,454.70695800031535,Correct,sub_009_day_24_data.csv,1,600,,Button-Switch at home,,,,,,,,,,,,,k
9,24,913,B,52.626548973269614,44.122647996019886,2.6313274486634803,0.6930769340061224,A,675.5898330011405,Incorrect,sub_009_day_24_data.csv,0,600,,Button-Switch at home,,,,,,,,,,,,,k
9,24,914,B,46.88981164562105,21.49231906015174,2.3444905822810527,0.3376005583399029,B,514.5396669977345,Correct,sub_009_day_24_data.csv,1,600,,Button-Switch at home,,,,,,,,,,,,,d
9,24,915,A,34.71598078325532,62.75337466654923,1.7357990391627658,0.9857277042019944,A,307.6841240035719,Correct,sub_009_day_24_data.csv,1,600,,Button-Switch at home,,,,,,,,,,,,,k
9,24,916,B,62.10560902985234,51.44356531924893,3.1052804514926167,0.8080736344070955,B,432.9407499972149,Correct,sub_009_day_24_data.csv,1,600,,Button-Switch at home,,,,,,,,,,,,,d
9,24,917,B,49.14756992364252,21.99009299094182,2.457378496182126,0.3454195729604961,B,719.8688749995199,Correct,sub_009_day_24_data.csv,1,600,,Button-Switch at home,,,,,,,,,,,,,d
9,24,918,A,43.341542040164455,66.98693505552853,2.1670771020082227,1.0522283152847252,A,484.8002910002833,Correct,sub_009_day_24_data.csv,1,600,,Button-Switch at home,,,,,,,,,,,,,k
9,24,919,A,38.0273750876372,50.53668599080252,1.9013687543818605,0.7938284072273971,A,403.4240409964696,Correct,sub_009_day_24_data.csv,1,600,,Button-Switch at home,,,,,,,,,,,,,k
9,24,920,B,64.18003115180727,51.876898173874814,3.209001557590363,0.8148804109703545,B,461.2598739986424,Correct,sub_009_day_24_data.csv,1,600,,Button-Switch at home,,,,,,,,,,,,,d
9,24,921,A,27.0273393720135,49.701493055230955,1.351366968600675,0.7807092272737886,A,381.3689169983263,Correct,sub_009_day_24_data.csv,1,600,,Button-Switch at home,,,,,,,,,,,,,k
9,24,922,B,85.44993750748453,67.56321346344795,4.272496875374227,1.0612804753484355,B,435.593832997256,Correct,sub_009_day_24_data.csv,1,600,,Button-Switch at home,,,,,,,,,,,,,d
9,24,923,A,42.013272800178754,56.43246412959907,2.100663640008938,0.8864390736675897,A,394.40120800281875,Correct,sub_009_day_24_data.csv,1,600,,Button-Switch at home,,,,,,,,,,,,,k
9,24,924,B,84.51187527519366,61.8825545262322,4.225593763759683,0.9720488934249044,B,486.6777909992379,Correct,sub_009_day_24_data.csv,1,600,,Button-Switch at home,,,,,,,,,,,,,d
9,24,925,B,52.2808475913571,42.564160631533476,2.614042379567855,0.6685962717312072,B,1210.3025410033297,Correct,sub_009_day_24_data.csv,1,600,,Button-Switch at home,,,,,,,,,,,,,d
9,24,926,B,47.487440978543944,35.98745444032238,2.374372048927197,0.5652896124555709,B,401.7025410066708,Correct,sub_009_day_24_data.csv,1,600,,Button-Switch at home,,,,,,,,,,,,,d
9,24,927,B,50.87442709149643,19.44187250764093,2.5437213545748216,0.3053922192101705,B,426.71570800303016,Correct,sub_009_day_24_data.csv,1,600,,Button-Switch at home,,,,,,,,,,,,,d
9,24,928,A,59.917786580717475,82.67805522288324,2.9958893290358737,1.2987038545065062,A,402.1453329987707,Correct,sub_009_day_24_data.csv,1,600,,Button-Switch at home,,,,,,,,,,,,,k
9,24,929,A,29.283118447146524,45.60824777850256,1.4641559223573262,0.7164126808202332,A,391.9689579997794,Correct,sub_009_day_24_data.csv,1,600,,Button-Switch at home,,,,,,,,,,,,,k
9,24,930,B,61.52912139705082,33.32218063814126,3.0764560698525414,0.5234235894718832,B,729.95391600125,Correct,sub_009_day_24_data.csv,1,600,,Button-Switch at home,,,,,,,,,,,,,d
9,24,931,B,45.82703409421369,34.032285105088214,2.291351704710684,0.5345778843550923,B,631.9462499959627,Correct,sub_009_day_24_data.csv,1,600,,Button-Switch at home,,,,,,,,,,,,,d
9,24,932,A,38.72174961500804,70.27263005701188,1.9360874807504016,1.1038398916777092,A,329.6534580003936,Correct,sub_009_day_24_data.csv,1,600,,Button-Switch at home,,,,,,,,,,,,,k
9,24,933,A,27.821016988815423,40.62466343417209,1.3910508494407714,0.6381307209967648,A,405.97254099702695,Correct,sub_009_day_24_data.csv,1,600,,Button-Switch at home,,,,,,,,,,,,,k
9,24,934,A,35.064847129078636,46.8109450702315,1.7532423564539317,0.7353046057011731,A,444.66854100028286,Correct,sub_009_day_24_data.csv,1,600,,Button-Switch at home,,,,,,,,,,,,,k
9,24,935,A,44.73656635047215,60.25491867505855,2.236828317523607,0.9464820492610716,A,431.6393330009305,Correct,sub_009_day_24_data.csv,1,600,,Button-Switch at home,,,,,,,,,,,,,k
9,24,936,A,61.12501447853309,77.60617311539652,3.0562507239266545,1.2190349166627368,A,414.15683300147066,Correct,sub_009_day_24_data.csv,1,600,,Button-Switch at home,,,,,,,,,,,,,k
9,24,937,A,42.731915833517554,61.23629973661048,2.1365957916758775,0.9618975469277902,A,374.0577079952345,Correct,sub_009_day_24_data.csv,1,600,,Button-Switch at home,,,,,,,,,,,,,k
9,24,938,B,43.63330514727414,29.495357258590474,2.181665257363707,0.463311988392971,B,438.918248997652,Correct,sub_009_day_24_data.csv,1,600,,Button-Switch at home,,,,,,,,,,,,,d
9,24,939,A,53.00562221367386,80.37662924970388,2.650281110683693,1.262553139855901,A,397.57958299742313,Correct,sub_009_day_24_data.csv,1,600,,Button-Switch at home,,,,,,,,,,,,,k
9,24,940,A,49.12360686674697,65.81645993726575,2.4561803433373486,1.033842535121005,A,696.2616250020801,Correct,sub_009_day_24_data.csv,1,600,,Button-Switch at home,,,,,,,,,,,,,k
9,24,941,B,51.47499625909463,32.23204932477592,2.573749812954732,0.5062998468442994,B,358.2312500002445,Correct,sub_009_day_24_data.csv,1,600,,Button-Switch at home,,,,,,,,,,,,,d
9,24,942,B,71.07917771563399,60.693479617589226,3.5539588857816993,0.9533709484371008,B,613.384208001662,Correct,sub_009_day_24_data.csv,1,600,,Button-Switch at home,,,,,,,,,,,,,d
9,24,943,A,36.569171323423696,59.00595123672979,1.8284585661711847,0.9268633146169394,A,381.2737490006839,Correct,sub_009_day_24_data.csv,1,600,,Button-Switch at home,,,,,,,,,,,,,k
9,24,944,A,68.17758718460273,84.02634846123593,3.408879359230136,1.3198827951689742,A,461.7995000007795,Correct,sub_009_day_24_data.csv,1,600,,Button-Switch at home,,,,,,,,,,,,,k
9,24,945,A,38.90537164136209,67.48351211471378,1.9452685820681044,1.060028529490113,A,478.0697919995873,Correct,sub_009_day_24_data.csv,1,600,,Button-Switch at home,,,,,,,,,,,,,k
9,24,946,A,33.40109610862571,52.261999342600035,1.6700548054312856,0.8209295659831344,A,493.4137079981156,Correct,sub_009_day_24_data.csv,1,600,,Button-Switch at home,,,,,,,,,,,,,k
9,24,947,B,63.5295897431884,49.80845581834623,3.17647948715942,0.7823893944278416,B,472.14395799528575,Correct,sub_009_day_24_data.csv,1,600,,Button-Switch at home,,,,,,,,,,,,,d
9,24,948,A,17.263281912314145,39.97344095958683,0.8631640956157072,0.6279013422867166,A,401.53770799952326,Correct,sub_009_day_24_data.csv,1,600,,Button-Switch at home,,,,,,,,,,,,,k
9,24,949,B,52.90181952524447,34.34853511411111,2.6450909762622232,0.5395455278803125,B,475.8270419988549,Correct,sub_009_day_24_data.csv,1,600,,Button-Switch at home,,,,,,,,,,,,,d
9,24,950,A,13.990857453782844,37.285046785276705,0.6995428726891422,0.5856721453468852,A,492.1478329997626,Correct,sub_009_day_24_data.csv,1,600,,Button-Switch at home,,,,,,,,,,,,,k
9,24,951,B,38.75956271888039,25.737007380255776,1.9379781359440191,0.4042759665559892,B,424.4515410027816,Correct,sub_009_day_24_data.csv,1,600,,Button-Switch at home,,,,,,,,,,,,,d
9,24,952,A,64.84097428450869,87.24441452447519,3.2420487142254344,1.3704320586841694,A,506.64741600485286,Correct,sub_009_day_24_data.csv,1,600,,Button-Switch at home,,,,,,,,,,,,,k
9,24,953,A,50.965361103164994,78.46023315232867,2.5482680551582497,1.2324504603514903,A,361.9667910024873,Correct,sub_009_day_24_data.csv,1,600,,Button-Switch at home,,,,,,,,,,,,,k
9,24,954,B,81.89028619644743,52.88839601094071,4.0945143098223715,0.8307689818405952,B,439.34895799611695,Correct,sub_009_day_24_data.csv,1,600,,Button-Switch at home,,,,,,,,,,,,,d
9,24,955,B,69.12908476246356,37.68198644557312,3.456454238123178,0.5919072589504133,B,523.9749579995987,Correct,sub_009_day_24_data.csv,1,600,,Button-Switch at home,,,,,,,,,,,,,d
9,24,956,A,31.44408744454376,63.56679029221815,1.572204372227188,0.9985048069715776,A,384.2029160005041,Correct,sub_009_day_24_data.csv,1,600,,Button-Switch at home,,,,,,,,,,,,,k
9,24,957,B,61.39999661544719,41.08373470586427,3.06999983077236,0.645341795669876,B,417.8012080010376,Correct,sub_009_day_24_data.csv,1,600,,Button-Switch at home,,,,,,,,,,,,,d
9,24,958,B,70.9903272030754,45.20944213776343,3.5495163601537696,0.7101482564644521,B,516.1946240041289,Correct,sub_009_day_24_data.csv,1,600,,Button-Switch at home,,,,,,,,,,,,,d
9,24,959,B,62.66407137038832,44.3087540490648,3.133203568519416,0.696000281051295,B,400.1791660048184,Correct,sub_009_day_24_data.csv,1,600,,Button-Switch at home,,,,,,,,,,,,,d
9,24,960,A,62.07083204019703,87.89396232566224,3.1035416020098516,1.3806351316859928,A,430.1331660026335,Correct,sub_009_day_24_data.csv,1,600,,Button-Switch at home,,,,,,,,,,,,,k
9,24,961,B,54.79371913984123,37.047952553852745,2.7396859569920617,0.581947877868635,B,441.2944579962641,Correct,sub_009_day_24_data.csv,1,600,,Button-Switch at home,,,,,,,,,,,,,d
9,24,962,B,44.29714567512479,24.530305970772233,2.2148572837562397,0.3853211451404394,B,479.75791600038065,Correct,sub_009_day_24_data.csv,1,600,,Button-Switch at home,,,,,,,,,,,,,d
9,24,963,B,42.12148445697683,27.111662872495728,2.106074222848841,0.4258690045341787,B,424.1800419986248,Correct,sub_009_day_24_data.csv,1,600,,Button-Switch at home,,,,,,,,,,,,,d
9,24,964,B,67.38261790322188,50.18441889517289,3.3691308951610943,0.7882950086287399,B,484.6670830011135,Correct,sub_009_day_24_data.csv,1,600,,Button-Switch at home,,,,,,,,,,,,,d
9,24,965,B,85.08469540910869,60.44894159334336,4.254234770455435,0.94952975413463,B,457.7974159983569,Correct,sub_009_day_24_data.csv,1,600,,Button-Switch at home,,,,,,,,,,,,,d
9,24,966,B,77.66743072044451,62.42380085693749,3.8833715360222256,0.9805507709065352,B,406.7176659955294,Correct,sub_009_day_24_data.csv,1,600,,Button-Switch at home,,,,,,,,,,,,,d
9,24,967,A,51.575140338508675,74.53605201347933,2.578757016925434,1.170809567165667,A,413.9984990033554,Correct,sub_009_day_24_data.csv,1,600,,Button-Switch at home,,,,,,,,,,,,,k
9,24,968,B,56.47740531205167,47.322359216104985,2.823870265602584,0.7433378803192634,B,568.8784579979256,Correct,sub_009_day_24_data.csv,1,600,,Button-Switch at home,,,,,,,,,,,,,d
9,24,969,B,37.30211150948426,22.639460829523006,1.8651055754742132,0.3556198191163168,B,739.6048750015325,Correct,sub_009_day_24_data.csv,1,600,,Button-Switch at home,,,,,,,,,,,,,d
9,24,970,A,68.25617358258845,85.71992409722705,3.412808679129422,1.3464854190506157,A,871.6922500025248,Correct,sub_009_day_24_data.csv,1,600,,Button-Switch at home,,,,,,,,,,,,,k
9,24,971,A,19.567150022884935,34.106296912591475,0.9783575011442468,0.5357404591087481,A,1332.173499999044,Correct,sub_009_day_24_data.csv,1,600,,Button-Switch at home,,,,,,,,,,,,,k
9,24,972,A,51.65097907483237,66.81546394408998,2.582548953741618,1.049534853364734,A,1248.350500005472,Correct,sub_009_day_24_data.csv,1,600,,Button-Switch at home,,,,,,,,,,,,,k
9,24,973,B,35.96643506443925,11.65372544496519,1.7983217532219626,0.1830562912242754,B,454.17133300361456,Correct,sub_009_day_24_data.csv,1,600,,Button-Switch at home,,,,,,,,,,,,,d
9,24,974,B,72.37517267070743,53.74216197098222,3.618758633535372,0.8441799061803525,B,1121.3142920023529,Correct,sub_009_day_24_data.csv,1,600,,Button-Switch at home,,,,,,,,,,,,,d
9,24,975,B,77.90116358172634,62.16422105996472,3.895058179086317,0.9764733009905854,B,401.3374999994994,Correct,sub_009_day_24_data.csv,1,600,,Button-Switch at home,,,,,,,,,,,,,d
9,24,976,B,89.44079117767959,65.48886334474234,4.472039558883979,1.0286966598789422,B,709.2124580012751,Correct,sub_009_day_24_data.csv,1,600,,Button-Switch at home,,,,,,,,,,,,,d
9,24,977,B,88.1463936236664,61.77044201764972,4.407319681183321,0.9702878342582132,B,607.6530829959665,Correct,sub_009_day_24_data.csv,1,600,,Button-Switch at home,,,,,,,,,,,,,d
9,24,978,B,44.08435717221342,33.72121872174622,2.2042178586106713,0.5296916650316625,A,350.82195800350746,Incorrect,sub_009_day_24_data.csv,0,600,,Button-Switch at home,,,,,,,,,,,,,k
9,24,979,A,27.01969096142148,48.19796865928698,1.350984548071074,0.7570919212898353,A,5191.855666002084,Correct,sub_009_day_24_data.csv,1,600,,Button-Switch at home,,,,,,,,,,,,,k
9,24,980,B,41.366128384699365,27.963213845796737,2.0683064192349683,0.439245135943577,B,919.9804580057388,Correct,sub_009_day_24_data.csv,1,600,,Button-Switch at home,,,,,,,,,,,,,d
9,24,981,A,21.09320951482546,46.44276825515884,1.054660475741273,0.7295212978139012,A,427.13370799901895,Correct,sub_009_day_24_data.csv,1,600,,Button-Switch at home,,,,,,,,,,,,,k
9,24,982,A,34.40980999716693,47.209964972603494,1.7204904998583463,0.741572395670813,A,491.37208300089696,Correct,sub_009_day_24_data.csv,1,600,,Button-Switch at home,,,,,,,,,,,,,k
9,24,983,B,45.85377435474745,38.65770328601419,2.2926887177373727,0.6072337832399809,B,526.1104989986052,Correct,sub_009_day_24_data.csv,1,600,,Button-Switch at home,,,,,,,,,,,,,d
9,24,984,B,71.18951773009664,39.13454370048153,3.559475886504832,0.6147239749551074,B,382.2887919959612,Correct,sub_009_day_24_data.csv,1,600,,Button-Switch at home,,,,,,,,,,,,,d
9,24,985,B,45.3016990636588,18.992076129141225,2.2650849531829405,0.2983268342186407,B,401.6383739945013,Correct,sub_009_day_24_data.csv,1,600,,Button-Switch at home,,,,,,,,,,,,,d
9,24,986,B,72.78596923136477,61.81893534857157,3.639298461568239,0.971049565719074,B,412.1842490058043,Correct,sub_009_day_24_data.csv,1,600,,Button-Switch at home,,,,,,,,,,,,,d
9,24,987,B,64.1354600579009,45.422800356042025,3.206773002895045,0.7134996795200874,B,423.4057079956983,Correct,sub_009_day_24_data.csv,1,600,,Button-Switch at home,,,,,,,,,,,,,d
9,24,988,B,76.67804257834163,57.62782717364232,3.833902128917082,0.9052157924552848,B,589.8651660027099,Correct,sub_009_day_24_data.csv,1,600,,Button-Switch at home,,,,,,,,,,,,,d
9,24,989,B,45.443701810587925,31.076204808575476,2.2721850905293963,0.4881438836403625,B,416.67887500079814,Correct,sub_009_day_24_data.csv,1,600,,Button-Switch at home,,,,,,,,,,,,,d
9,24,990,B,42.01763763230478,21.70266190948565,2.1008818816152393,0.3409046160909157,B,449.60762499977136,Correct,sub_009_day_24_data.csv,1,600,,Button-Switch at home,,,,,,,,,,,,,d
9,24,991,A,23.16802800514367,45.546746619921464,1.1584014002571834,0.7154466228803051,B,461.80454100249335,Incorrect,sub_009_day_24_data.csv,0,600,,Button-Switch at home,,,,,,,,,,,,,d
9,24,992,A,54.49949534258515,79.62608526610722,2.7249747671292575,1.2507636225305847,A,552.2690419966239,Correct,sub_009_day_24_data.csv,1,600,,Button-Switch at home,,,,,,,,,,,,,k
9,24,993,A,40.167700289286216,49.19068307375035,2.0083850144643107,0.7726854428477894,A,1326.739541997085,Correct,sub_009_day_24_data.csv,1,600,,Button-Switch at home,,,,,,,,,,,,,k
9,24,994,A,14.828226369304604,41.13948479384929,0.7414113184652302,0.6462175160041297,A,537.7093330025673,Correct,sub_009_day_24_data.csv,1,600,,Button-Switch at home,,,,,,,,,,,,,k
9,24,995,B,70.44763010582618,41.037793066993096,3.522381505291309,0.6446201460940183,B,544.273040999542,Correct,sub_009_day_24_data.csv,1,600,,Button-Switch at home,,,,,,,,,,,,,d
9,24,996,B,42.67720496508534,14.404310791002397,2.133860248254267,0.2262623848051865,B,508.84929099993315,Correct,sub_009_day_24_data.csv,1,600,,Button-Switch at home,,,,,,,,,,,,,d
9,24,997,A,63.08581055719925,75.8982354259304,3.1542905278599624,1.1922066941726577,A,590.9937079995871,Correct,sub_009_day_24_data.csv,1,600,,Button-Switch at home,,,,,,,,,,,,,k
9,24,998,A,54.45683967613686,76.505770742002,2.722841983806843,1.201749836601492,A,450.40812400111463,Correct,sub_009_day_24_data.csv,1,600,,Button-Switch at home,,,,,,,,,,,,,k
9,24,999,B,42.43322832646285,25.573352017395056,2.121661416323142,0.40170527412757,B,481.0177909967024,Correct,sub_009_day_24_data.csv,1,600,,Button-Switch at home,,,,,,,,,,,,,d
9,24,1000,B,73.245747397917,55.08563613982106,3.66228736989585,0.8652831490759114,B,569.4465830019908,Correct,sub_009_day_24_data.csv,1,600,,Button-Switch at home,,,,,,,,,,,,,d
9,24,1001,B,68.6952724404126,38.965068391917875,3.43476362202063,0.6120618630333652,B,437.23758299893234,Correct,sub_009_day_24_data.csv,1,600,,Button-Switch at home,,,,,,,,,,,,,d
9,24,1002,A,42.99737302576342,74.46136551304207,2.149868651288171,1.1696363943601866,A,727.8357499963022,Correct,sub_009_day_24_data.csv,1,600,,Button-Switch at home,,,,,,,,,,,,,k
9,24,1003,A,48.50526493039795,71.70574809396037,2.4252632465198976,1.126351257160731,A,444.42399900435703,Correct,sub_009_day_24_data.csv,1,600,,Button-Switch at home,,,,,,,,,,,,,k
9,24,1004,A,23.575227118606108,55.74717302383387,1.1787613559303054,0.8756745461503777,A,369.66349999420345,Correct,sub_009_day_24_data.csv,1,600,,Button-Switch at home,,,,,,,,,,,,,k
9,24,1005,B,68.88515351852055,45.76960302982014,3.4442576759260275,0.7189472431810203,B,369.49595799524104,Correct,sub_009_day_24_data.csv,1,600,,Button-Switch at home,,,,,,,,,,,,,d
9,24,1006,A,22.653722018353974,47.356843646099605,1.1326861009176987,0.743879560478935,A,407.7596249990165,Correct,sub_009_day_24_data.csv,1,600,,Button-Switch at home,,,,,,,,,,,,,k
9,24,1007,A,42.51643080811669,71.58318933560908,2.1258215404058345,1.1244261086863836,A,386.4604580012383,Correct,sub_009_day_24_data.csv,1,600,,Button-Switch at home,,,,,,,,,,,,,k
9,24,1008,B,73.5195935666144,54.40896460669431,3.67597967833072,0.8546540174890894,B,465.0204159988789,Correct,sub_009_day_24_data.csv,1,600,,Button-Switch at home,,,,,,,,,,,,,d
9,24,1009,A,44.733934121698965,52.41611175873008,2.236696706084948,0.82335035815484,A,739.6236660060822,Correct,sub_009_day_24_data.csv,1,600,,Button-Switch at home,,,,,,,,,,,,,k
9,24,1010,B,53.233213195068984,26.610908997980605,2.661660659753449,0.418003181067012,B,488.9375409984495,Correct,sub_009_day_24_data.csv,1,600,,Button-Switch at home,,,,,,,,,,,,,d
9,24,1011,B,50.49168934587222,29.53680634721835,2.524584467293611,0.4639630691546276,B,1287.6714169979095,Correct,sub_009_day_24_data.csv,1,600,,Button-Switch at home,,,,,,,,,,,,,d
9,24,1012,A,42.12952283994597,73.78811531768689,2.1064761419972986,1.159061005021408,A,876.6980000000331,Correct,sub_009_day_24_data.csv,1,600,,Button-Switch at home,,,,,,,,,,,,,k
9,24,1013,B,57.148761909802175,50.45009848830418,2.8574380954901084,0.7924682939186898,B,408.02233300200896,Correct,sub_009_day_24_data.csv,1,600,,Button-Switch at home,,,,,,,,,,,,,d
9,24,1014,B,76.40758427024038,51.67474528503633,3.8203792135120183,0.8117050008179697,B,651.7544989983435,Correct,sub_009_day_24_data.csv,1,600,,Button-Switch at home,,,,,,,,,,,,,d
9,24,1015,A,65.29464863867327,80.29023801849429,3.2647324319336635,1.261196109569388,A,493.9207920033368,Correct,sub_009_day_24_data.csv,1,600,,Button-Switch at home,,,,,,,,,,,,,k
9,24,1016,A,19.415482119549104,36.44569901276756,0.9707741059774552,0.5724877013672767,A,786.2687499946333,Correct,sub_009_day_24_data.csv,1,600,,Button-Switch at home,,,,,,,,,,,,,k
9,24,1017,A,38.42772912780245,49.18024869539867,1.9213864563901224,0.7725215400159172,A,520.0293329980923,Correct,sub_009_day_24_data.csv,1,600,,Button-Switch at home,,,,,,,,,,,,,k
9,24,1018,A,57.12995476657392,74.12295232355883,2.856497738328696,1.1643206124103946,A,466.8894990027184,Correct,sub_009_day_24_data.csv,1,600,,Button-Switch at home,,,,,,,,,,,,,k
9,24,1019,B,69.44967049563154,60.590711180339234,3.472483524781577,0.9517566655996734,B,433.7347079999745,Correct,sub_009_day_24_data.csv,1,600,,Button-Switch at home,,,,,,,,,,,,,d
9,24,1020,A,60.77306117536229,80.94242403729524,3.038653058768114,1.271440623596583,A,874.320249997254,Correct,sub_009_day_24_data.csv,1,600,,Button-Switch at home,,,,,,,,,,,,,k
9,24,1021,A,55.16223654910016,84.78366116710177,2.758111827455008,1.3317786353350658,A,557.4427079991437,Correct,sub_009_day_24_data.csv,1,600,,Button-Switch at home,,,,,,,,,,,,,k
9,24,1022,B,74.08334474856285,41.69589169130052,3.704167237428143,0.6549575351113269,B,398.9751250046538,Correct,sub_009_day_24_data.csv,1,600,,Button-Switch at home,,,,,,,,,,,,,d
9,24,1023,A,41.18156167370813,63.960195727286894,2.0590780836854066,1.0046844050950492,A,511.4999580036965,Correct,sub_009_day_24_data.csv,1,600,,Button-Switch at home,,,,,,,,,,,,,k
9,24,1024,A,43.87532464946141,67.40518426841741,2.1937662324730707,1.0587981585576325,A,529.1936240028008,Correct,sub_009_day_24_data.csv,1,600,,Button-Switch at home,,,,,,,,,,,,,k
9,24,1025,B,51.22618233323294,40.67728563562076,2.561309116661647,0.638957308604199,B,666.4432499965187,Correct,sub_009_day_24_data.csv,1,600,,Button-Switch at home,,,,,,,,,,,,,d
9,24,1026,B,85.15238421136527,56.59005211449477,4.257619210568264,0.8889144599458014,B,423.4954579951591,Correct,sub_009_day_24_data.csv,1,600,,Button-Switch at home,,,,,,,,,,,,,d
9,24,1027,A,47.97654488124021,77.57771139387022,2.3988272440620104,1.2185878409864594,A,384.3852499994682,Correct,sub_009_day_24_data.csv,1,600,,Button-Switch at home,,,,,,,,,,,,,k
9,24,1028,A,43.63504276792523,55.838124810993875,2.1817521383962615,0.8771032134822416,A,464.4042910003918,Correct,sub_009_day_24_data.csv,1,600,,Button-Switch at home,,,,,,,,,,,,,k
9,24,1029,B,72.29831894844291,48.6590341872668,3.6149159474221455,0.76433432166746,B,549.0651250001974,Correct,sub_009_day_24_data.csv,1,600,,Button-Switch at home,,,,,,,,,,,,,d
9,24,1030,A,60.54255020002219,77.63131603202879,3.02712751000111,1.219429860673646,A,569.0711659990484,Correct,sub_009_day_24_data.csv,1,600,,Button-Switch at home,,,,,,,,,,,,,k
9,24,1031,B,48.992981950783,27.638613010006075,2.4496490975391496,0.4341463179382318,B,442.8232080026646,Correct,sub_009_day_24_data.csv,1,600,,Button-Switch at home,,,,,,,,,,,,,d
9,24,1032,A,49.198294719306645,61.75930096137557,2.4599147359653326,0.9701128309554928,A,466.8761659995653,Correct,sub_009_day_24_data.csv,1,600,,Button-Switch at home,,,,,,,,,,,,,k
9,24,1033,A,16.920834875148177,36.277050994286185,0.8460417437574088,0.5698385844877589,A,466.6935420027585,Correct,sub_009_day_24_data.csv,1,600,,Button-Switch at home,,,,,,,,,,,,,k
9,24,1034,B,65.0928970383676,32.40225199699847,3.2546448519183797,0.5089733841676781,B,437.79516700305976,Correct,sub_009_day_24_data.csv,1,600,,Button-Switch at home,,,,,,,,,,,,,d
9,24,1035,B,54.39982584791687,25.359922583900175,2.719991292395844,0.3983527324259334,B,833.5571240022546,Correct,sub_009_day_24_data.csv,1,600,,Button-Switch at home,,,,,,,,,,,,,d
9,24,1036,A,41.70008462428199,69.37406671717697,2.0850042312140995,1.0897252917416569,A,775.2432909983327,Correct,sub_009_day_24_data.csv,1,600,,Button-Switch at home,,,,,,,,,,,,,k
9,24,1037,A,15.227944514987405,40.36964670214907,0.7613972257493701,0.6341249275374348,A,416.6705409952556,Correct,sub_009_day_24_data.csv,1,600,,Button-Switch at home,,,,,,,,,,,,,k
9,24,1038,B,33.02007562024817,15.96810046563019,1.6510037810124087,0.2508263355730378,B,540.1293329996406,Correct,sub_009_day_24_data.csv,1,600,,Button-Switch at home,,,,,,,,,,,,,d
9,24,1039,A,33.370992059048284,48.37276428247728,1.6685496029524145,0.7598376045183068,A,502.1284579997882,Correct,sub_009_day_24_data.csv,1,600,,Button-Switch at home,,,,,,,,,,,,,k
9,24,1040,A,32.57864766025759,51.887712578639906,1.6289323830128797,0.815050283243169,A,513.6272500021732,Correct,sub_009_day_24_data.csv,1,600,,Button-Switch at home,,,,,,,,,,,,,k
9,24,1041,B,48.503617699527766,26.56153017190519,2.4251808849763883,0.4172275402808049,B,416.1391239977093,Correct,sub_009_day_24_data.csv,1,600,,Button-Switch at home,,,,,,,,,,,,,d
9,24,1042,B,60.38223888301529,36.81390999820386,3.019111944150765,0.5782715460013654,B,434.3812080041971,Correct,sub_009_day_24_data.csv,1,600,,Button-Switch at home,,,,,,,,,,,,,d
9,24,1043,B,50.83510397689489,34.824211860092944,2.5417551988447444,0.5470174407336127,B,403.7519580015214,Correct,sub_009_day_24_data.csv,1,600,,Button-Switch at home,,,,,,,,,,,,,d
9,24,1044,B,30.001665161379577,12.911105200304249,1.500083258068979,0.202807166235004,B,440.17579199862666,Correct,sub_009_day_24_data.csv,1,600,,Button-Switch at home,,,,,,,,,,,,,d
9,24,1045,B,43.87503917596544,24.84037869014655,2.193751958798272,0.3901917560267642,B,375.3988329990534,Correct,sub_009_day_24_data.csv,1,600,,Button-Switch at home,,,,,,,,,,,,,d
9,24,1046,B,70.97826362038911,55.86915626073484,3.5489131810194556,0.8775906543549239,B,337.77120799641125,Correct,sub_009_day_24_data.csv,1,600,,Button-Switch at home,,,,,,,,,,,,,d
9,24,1047,A,39.561724358251695,57.36894531381764,1.9780862179125849,0.9011492857104204,A,485.6357079988811,Correct,sub_009_day_24_data.csv,1,600,,Button-Switch at home,,,,,,,,,,,,,k
9,24,1048,A,34.216177450131944,65.96048740213179,1.710808872506597,1.0361049132486966,A,445.5240829993272,Correct,sub_009_day_24_data.csv,1,600,,Button-Switch at home,,,,,,,,,,,,,k
9,24,1049,A,48.64264250066751,73.84353952677873,2.4321321250333754,1.1599316064619778,A,465.5476250045467,Correct,sub_009_day_24_data.csv,1,600,,Button-Switch at home,,,,,,,,,,,,,k
9,24,1050,A,54.96184105292753,63.335048530919394,2.748092052646377,0.9948646158974468,A,426.2700830004178,Correct,sub_009_day_24_data.csv,1,600,,Button-Switch at home,,,,,,,,,,,,,k
9,24,1051,A,64.6878592547793,87.93652087043588,3.234392962738965,1.3813036397440346,A,433.17083299916703,Correct,sub_009_day_24_data.csv,1,600,,Button-Switch at home,,,,,,,,,,,,,k
9,24,1052,A,20.768753574095236,43.145727294059895,1.0384376787047618,0.677731499504036,A,436.56479100172874,Correct,sub_009_day_24_data.csv,1,600,,Button-Switch at home,,,,,,,,,,,,,k
9,24,1053,A,28.440264792583925,49.8314679849262,1.4220132396291962,0.7827508686951957,A,360.50258300383575,Correct,sub_009_day_24_data.csv,1,600,,Button-Switch at home,,,,,,,,,,,,,k
9,24,1054,A,46.532826666426686,67.895158879819,2.326641333321334,1.0664946617557558,A,400.4185000012512,Correct,sub_009_day_24_data.csv,1,600,,Button-Switch at home,,,,,,,,,,,,,k
9,24,1055,A,26.1156155931231,58.09566352117291,1.3057807796561551,0.9125645486177068,A,390.11041699995985,Correct,sub_009_day_24_data.csv,1,600,,Button-Switch at home,,,,,,,,,,,,,k
9,24,1056,A,53.38826056863245,72.90050289092402,2.6694130284316224,1.1451184216256418,A,384.4779580031173,Correct,sub_009_day_24_data.csv,1,600,,Button-Switch at home,,,,,,,,,,,,,k
9,24,1057,A,57.185073534980575,82.89519890349892,2.8592536767490286,1.3021147394654844,A,396.6100830002688,Correct,sub_009_day_24_data.csv,1,600,,Button-Switch at home,,,,,,,,,,,,,k
9,24,1058,B,64.27521734245832,42.274050293616185,3.213760867122916,0.6640392291995502,B,401.5432079977472,Correct,sub_009_day_24_data.csv,1,600,,Button-Switch at home,,,,,,,,,,,,,d
9,24,1059,A,26.68393905260869,38.06157498866376,1.3341969526304345,0.5978698218422155,A,401.82766700309,Correct,sub_009_day_24_data.csv,1,600,,Button-Switch at home,,,,,,,,,,,,,k
9,24,1060,B,70.58986874560516,44.0392919696829,3.5294934372802578,0.6917675806062589,B,691.1440420008148,Correct,sub_009_day_24_data.csv,1,600,,Button-Switch at home,,,,,,,,,,,,,d
9,24,1061,A,40.77785693240833,59.19144475131948,2.0388928466204166,0.929777039930557,A,377.1471250001923,Correct,sub_009_day_24_data.csv,1,600,,Button-Switch at home,,,,,,,,,,,,,k
9,24,1062,A,48.560165874418594,65.86783922063479,2.42800829372093,1.0346495990168991,A,407.864624998183,Correct,sub_009_day_24_data.csv,1,600,,Button-Switch at home,,,,,,,,,,,,,k
9,24,1063,A,43.2167525781901,75.43979541233921,2.1608376289095053,1.185005535278609,A,438.02266599959694,Correct,sub_009_day_24_data.csv,1,600,,Button-Switch at home,,,,,,,,,,,,,k
9,24,1064,A,45.32032764050418,54.55422506237608,2.2660163820252093,0.8569357633912245,A,373.7534579995554,Correct,sub_009_day_24_data.csv,1,600,,Button-Switch at home,,,,,,,,,,,,,k
9,24,1065,A,57.33893198799334,67.94287870167403,2.866946599399667,1.0672442429646078,A,479.6146240041707,Correct,sub_009_day_24_data.csv,1,600,,Button-Switch at home,,,,,,,,,,,,,k
9,24,1066,A,30.47297868467691,55.695483664616035,1.5236489342338455,0.8748626115944402,A,374.2028330016183,Correct,sub_009_day_24_data.csv,1,600,,Button-Switch at home,,,,,,,,,,,,,k
9,24,1067,A,39.051500837893805,53.72774768397849,1.95257504189469,0.8439534870895643,A,363.14566699729767,Correct,sub_009_day_24_data.csv,1,600,,Button-Switch at home,,,,,,,,,,,,,k
9,24,1068,B,67.48916607584205,50.70673688659466,3.3744583037921023,0.796499560452182,B,351.48175000358606,Correct,sub_009_day_24_data.csv,1,600,,Button-Switch at home,,,,,,,,,,,,,d
9,24,1069,A,24.642673411128232,50.31999795401018,1.2321336705564117,0.790424679504859,A,316.190582998388,Correct,sub_009_day_24_data.csv,1,600,,Button-Switch at home,,,,,,,,,,,,,k
9,24,1070,A,24.064808918516725,48.449860062675114,1.203240445925836,0.7610486222017684,A,341.004707996035,Correct,sub_009_day_24_data.csv,1,600,,Button-Switch at home,,,,,,,,,,,,,k
9,24,1071,B,83.21043708567794,55.25760386985679,4.160521854283897,0.867984411862585,B,472.0794989989372,Correct,sub_009_day_24_data.csv,1,600,,Button-Switch at home,,,,,,,,,,,,,d
9,24,1072,A,31.543576465174887,53.10806297068413,1.5771788232587445,0.8342195023754269,A,340.62024900049437,Correct,sub_009_day_24_data.csv,1,600,,Button-Switch at home,,,,,,,,,,,,,k
9,24,1073,A,56.65331255992294,83.31530100932905,2.832665627996147,1.308713687912652,A,455.70787500037113,Correct,sub_009_day_24_data.csv,1,600,,Button-Switch at home,,,,,,,,,,,,,k
9,24,1074,A,43.15868495703026,60.006277155598085,2.157934247851513,0.9425763974064998,A,371.01287500263425,Correct,sub_009_day_24_data.csv,1,600,,Button-Switch at home,,,,,,,,,,,,,k
9,24,1075,A,64.54130289149535,80.05310639377616,3.2270651445747673,1.2574712547186464,A,392.85587499762187,Correct,sub_009_day_24_data.csv,1,600,,Button-Switch at home,,,,,,,,,,,,,k
9,24,1076,B,67.98094091970081,38.747757685273456,3.3990470459850406,0.6086483544356628,B,598.8836670003366,Correct,sub_009_day_24_data.csv,1,600,,Button-Switch at home,,,,,,,,,,,,,d
9,24,1077,A,40.19972677618577,65.84408174709341,2.0099863388092887,1.0342764174951724,A,369.53995800286066,Correct,sub_009_day_24_data.csv,1,600,,Button-Switch at home,,,,,,,,,,,,,k
9,24,1078,A,20.58675081791984,50.38192100892226,1.029337540895992,0.7913973645768573,A,375.6573330028914,Correct,sub_009_day_24_data.csv,1,600,,Button-Switch at home,,,,,,,,,,,,,k
9,24,1079,B,58.84277386274991,34.114499304981095,2.942138693137496,0.5358693019871136,B,372.78116599918576,Correct,sub_009_day_24_data.csv,1,600,,Button-Switch at home,,,,,,,,,,,,,d
9,24,1080,A,52.39602850745685,61.32963466149867,2.619801425372842,0.9633636484995508,A,350.7410410020384,Correct,sub_009_day_24_data.csv,1,600,,Button-Switch at home,,,,,,,,,,,,,k
9,24,1081,A,16.199798173554445,32.003133002094685,0.8099899086777222,0.5027040376561887,A,394.3737490044441,Correct,sub_009_day_24_data.csv,1,600,,Button-Switch at home,,,,,,,,,,,,,k
9,24,1082,A,22.883095757475743,52.039187453747495,1.1441547878737872,0.8174296450173762,A,375.9028330023284,Correct,sub_009_day_24_data.csv,1,600,,Button-Switch at home,,,,,,,,,,,,,k
9,24,1083,B,54.86335987380514,33.632353772016614,2.7431679936902573,0.5282957776655018,B,543.8340830005473,Correct,sub_009_day_24_data.csv,1,600,,Button-Switch at home,,,,,,,,,,,,,d
9,24,1084,A,58.650417020997665,67.73148571004535,2.9325208510498832,1.0639236896170026,A,410.0441240007058,Correct,sub_009_day_24_data.csv,1,600,,Button-Switch at home,,,,,,,,,,,,,k
9,24,1085,A,26.634462257626033,40.596997221396585,1.331723112881302,0.6376961411427237,A,380.5313749980997,Correct,sub_009_day_24_data.csv,1,600,,Button-Switch at home,,,,,,,,,,,,,k
9,24,1086,B,66.88123879550407,54.59007499593761,3.344061939775204,0.8574988928307672,B,1132.085332996212,Correct,sub_009_day_24_data.csv,1,600,,Button-Switch at home,,,,,,,,,,,,,d
9,24,1087,B,41.59508757685544,23.22067351954244,2.079754378842772,0.3647494867020079,B,492.4850410025101,Correct,sub_009_day_24_data.csv,1,600,,Button-Switch at home,,,,,,,,,,,,,d
9,24,1088,A,42.378741423023726,72.87740980226698,2.118937071151186,1.1447556762372737,A,416.38483299902873,Correct,sub_009_day_24_data.csv,1,600,,Button-Switch at home,,,,,,,,,,,,,k
9,24,1089,A,21.498368051451436,48.93058495990403,1.0749184025725718,0.7685998312294287,A,357.88145800324855,Correct,sub_009_day_24_data.csv,1,600,,Button-Switch at home,,,,,,,,,,,,,k
9,24,1090,B,55.70807505543994,35.4176672966371,2.785403752771997,0.5563394169320128,B,437.9402909980854,Correct,sub_009_day_24_data.csv,1,600,,Button-Switch at home,,,,,,,,,,,,,d
9,24,1091,B,78.28814741361718,53.605933518189794,3.914407370680859,0.8420400346478396,B,436.9171250000363,Correct,sub_009_day_24_data.csv,1,600,,Button-Switch at home,,,,,,,,,,,,,d
9,24,1092,B,40.6660179912626,28.976535345135964,2.03330089956313,0.4551623528338206,B,521.8093750008848,Correct,sub_009_day_24_data.csv,1,600,,Button-Switch at home,,,,,,,,,,,,,d
9,24,1093,A,21.21878901674225,49.09633516934633,1.0609394508371124,0.7712034294310032,A,371.58908300625626,Correct,sub_009_day_24_data.csv,1,600,,Button-Switch at home,,,,,,,,,,,,,k
9,24,1094,B,70.2363616205453,54.8728231772244,3.5118180810272643,0.8619402908764995,B,474.71220800071023,Correct,sub_009_day_24_data.csv,1,600,,Button-Switch at home,,,,,,,,,,,,,d
9,24,1095,A,27.07316412001156,52.33210067094682,1.3536582060005782,0.8220307150738401,A,654.9009169975761,Correct,sub_009_day_24_data.csv,1,600,,Button-Switch at home,,,,,,,,,,,,,k
9,24,1096,B,56.37191556304625,46.8709495043828,2.8185957781523125,0.7362471531487358,B,750.7959159993334,Correct,sub_009_day_24_data.csv,1,600,,Button-Switch at home,,,,,,,,,,,,,d
9,24,1097,A,58.16507716099544,77.11316635860672,2.908253858049772,1.2112907846362324,A,479.87437499978114,Correct,sub_009_day_24_data.csv,1,600,,Button-Switch at home,,,,,,,,,,,,,k
9,24,1098,B,37.032281303303535,24.138198665019228,1.851614065165177,0.3791619379845767,B,844.9934579984983,Correct,sub_009_day_24_data.csv,1,600,,Button-Switch at home,,,,,,,,,,,,,d
9,24,1099,A,42.90775134946529,50.38858483226492,2.1453875674732648,0.7915020396691478,A,631.3746669984539,Correct,sub_009_day_24_data.csv,1,600,,Button-Switch at home,,,,,,,,,,,,,k
9,24,1100,B,49.58634092149709,31.618840703438607,2.4793170460748546,0.4966675883447433,B,742.8556669983664,Correct,sub_009_day_24_data.csv,1,600,,Button-Switch at home,,,,,,,,,,,,,d
9,24,1101,B,37.07437240397769,15.315893635986896,1.8537186201988844,0.2405814946498954,B,599.4805420050398,Correct,sub_009_day_24_data.csv,1,600,,Button-Switch at home,,,,,,,,,,,,,d
9,24,1102,A,13.228280447762875,37.06310858530446,0.6614140223881438,0.5821859482539665,A,595.2571660018293,Correct,sub_009_day_24_data.csv,1,600,,Button-Switch at home,,,,,,,,,,,,,k
9,24,1103,A,64.89377139430995,81.86321904555936,3.244688569715498,1.2859044377637066,A,839.922375002061,Correct,sub_009_day_24_data.csv,1,600,,Button-Switch at home,,,,,,,,,,,,,k
9,24,1104,A,34.30134805287281,67.30387618977208,1.7150674026436403,1.0572068149795248,A,360.29024999879766,Correct,sub_009_day_24_data.csv,1,600,,Button-Switch at home,,,,,,,,,,,,,k
9,24,1105,B,67.56817870600999,53.06836172798848,3.378408935300499,0.8335958767134718,B,869.8268740045023,Correct,sub_009_day_24_data.csv,1,600,,Button-Switch at home,,,,,,,,,,,,,d
9,24,1106,B,73.63416241217112,56.05382788715113,3.681708120608556,0.8804914694793031,B,1336.77129100397,Correct,sub_009_day_24_data.csv,1,600,,Button-Switch at home,,,,,,,,,,,,,d
9,24,1107,B,37.55981663358917,25.84532554382116,1.877990831679459,0.4059774242905259,B,669.0967079994152,Correct,sub_009_day_24_data.csv,1,600,,Button-Switch at home,,,,,,,,,,,,,d
9,24,1108,A,51.444012641550984,67.89024409485563,2.5722006320775495,1.0664174604940817,A,484.3786249984987,Correct,sub_009_day_24_data.csv,1,600,,Button-Switch at home,,,,,,,,,,,,,k
9,24,1109,B,79.808698948106,50.919598181042424,3.990434947405299,0.7998431778465354,B,591.2304579978809,Correct,sub_009_day_24_data.csv,1,600,,Button-Switch at home,,,,,,,,,,,,,d
9,24,1110,B,38.8815689578874,27.13180920921615,1.94407844789437,0.4261854624513668,B,630.9800410017488,Correct,sub_009_day_24_data.csv,1,600,,Button-Switch at home,,,,,,,,,,,,,d
9,24,1111,B,80.14387800661459,55.88958974066623,4.00719390033073,0.8779116227071224,B,392.4108330029412,Correct,sub_009_day_24_data.csv,1,600,,Button-Switch at home,,,,,,,,,,,,,d
9,24,1112,A,28.349452134666237,54.0222650886106,1.417472606733312,0.8485797556632972,A,449.06733300013,Correct,sub_009_day_24_data.csv,1,600,,Button-Switch at home,,,,,,,,,,,,,k
9,24,1113,B,71.14018264140506,49.0586101562085,3.5570091320702533,0.770610846310351,B,880.0782909966074,Correct,sub_009_day_24_data.csv,1,600,,Button-Switch at home,,,,,,,,,,,,,d
9,24,1114,B,49.24192998757799,41.05396870075644,2.4620964993788994,0.6448742323550087,B,862.3687920044176,Correct,sub_009_day_24_data.csv,1,600,,Button-Switch at home,,,,,,,,,,,,,d
9,24,1115,A,36.14500322407275,68.39358527887477,1.8072501612036376,1.0743239253239,A,411.37358299602056,Correct,sub_009_day_24_data.csv,1,600,,Button-Switch at home,,,,,,,,,,,,,k
9,24,1116,B,74.36954200653503,62.11002607972161,3.7184771003267514,0.9756220082316194,B,705.1817079991451,Correct,sub_009_day_24_data.csv,1,600,,Button-Switch at home,,,,,,,,,,,,,d
9,24,1117,A,28.831818575446412,42.39220648552262,1.4415909287723208,0.6658952223218972,A,397.7461670001503,Correct,sub_009_day_24_data.csv,1,600,,Button-Switch at home,,,,,,,,,,,,,k
9,24,1118,B,65.95119019253544,37.188743117238936,3.2975595096267716,0.5841594108667791,B,650.3469579984085,Correct,sub_009_day_24_data.csv,1,600,,Button-Switch at home,,,,,,,,,,,,,d
9,24,1119,A,17.897329034625514,48.58586305147227,0.8948664517312757,0.7631849521541252,A,632.5996240047971,Correct,sub_009_day_24_data.csv,1,600,,Button-Switch at home,,,,,,,,,,,,,k
9,24,1120,B,65.39389428971681,33.71263859223235,3.2696947144858406,0.5295568886724245,B,1200.145041999349,Correct,sub_009_day_24_data.csv,1,600,,Button-Switch at home,,,,,,,,,,,,,d
9,24,1121,A,34.62828912014918,46.58573060685276,1.731414456007459,0.7317669451830091,A,862.4873740045587,Correct,sub_009_day_24_data.csv,1,600,,Button-Switch at home,,,,,,,,,,,,,k
9,24,1122,A,13.438115192187006,30.37619880099867,0.6719057596093504,0.4771482149860026,A,795.5516660003923,Correct,sub_009_day_24_data.csv,1,600,,Button-Switch at home,,,,,,,,,,,,,k
9,24,1123,A,54.2227870599267,64.17046867376065,2.711139352996335,1.007987364814502,A,389.828416002274,Correct,sub_009_day_24_data.csv,1,600,,Button-Switch at home,,,,,,,,,,,,,k
9,24,1124,B,85.63971434444554,61.255153990709225,4.281985717222277,0.962193708858618,B,556.489499998861,Correct,sub_009_day_24_data.csv,1,600,,Button-Switch at home,,,,,,,,,,,,,d
9,24,1125,B,78.32383980390647,59.64063815480792,3.916191990195323,0.9368329534127584,B,536.837874999037,Correct,sub_009_day_24_data.csv,1,600,,Button-Switch at home,,,,,,,,,,,,,d
9,24,1126,A,46.791803351199405,72.25507268139856,2.33959016755997,1.1349800276023916,A,337.14758299902314,Correct,sub_009_day_24_data.csv,1,600,,Button-Switch at home,,,,,,,,,,,,,k
9,24,1127,B,41.41217776157113,26.828754658104664,2.0706088880785565,0.4214250926943227,B,676.1167079966981,Correct,sub_009_day_24_data.csv,1,600,,Button-Switch at home,,,,,,,,,,,,,d
9,24,1128,A,22.596355944141425,41.74129857299347,1.129817797207071,0.655670784741072,A,337.5385000035749,Correct,sub_009_day_24_data.csv,1,600,,Button-Switch at home,,,,,,,,,,,,,k
9,24,1129,B,54.684055649676,25.11318811486288,2.7342027824838,0.3944770364493586,B,1116.0614580003312,Correct,sub_009_day_24_data.csv,1,600,,Button-Switch at home,,,,,,,,,,,,,d
9,24,1130,A,19.29172415020205,41.57565191390205,0.9645862075101024,0.6530688131046055,A,366.81333299929975,Correct,sub_009_day_24_data.csv,1,600,,Button-Switch at home,,,,,,,,,,,,,k
9,24,1131,B,52.37599493735188,38.190190643523906,2.618799746867594,0.5998901118244417,B,489.0575829995214,Correct,sub_009_day_24_data.csv,1,600,,Button-Switch at home,,,,,,,,,,,,,d
9,24,1132,B,30.71443090797757,16.134815885009495,1.5357215453988784,0.2534450952568486,B,550.6434170019929,Correct,sub_009_day_24_data.csv,1,600,,Button-Switch at home,,,,,,,,,,,,,d
9,24,1133,A,54.05847578360748,71.03488174963304,2.702923789180374,1.1158133132663342,A,1932.7874160007923,Correct,sub_009_day_24_data.csv,1,600,,Button-Switch at home,,,,,,,,,,,,,k
9,24,1134,B,53.84263837891158,25.820997091865557,2.692131918945579,0.4055952738608412,B,429.4332080025925,Correct,sub_009_day_24_data.csv,1,600,,Button-Switch at home,,,,,,,,,,,,,d
9,24,1135,A,18.185561861689592,39.036988304612365,0.9092780930844796,0.6131915783802044,A,388.9122909968137,Correct,sub_009_day_24_data.csv,1,600,,Button-Switch at home,,,,,,,,,,,,,k
9,24,1136,B,42.725768063826294,28.472542248209862,2.136288403191315,0.4472456477800056,B,496.2462909970782,Correct,sub_009_day_24_data.csv,1,600,,Button-Switch at home,,,,,,,,,,,,,d
9,24,1137,A,42.264579687719255,56.71601447074676,2.113228984385963,0.890893072010952,A,409.3235410036869,Correct,sub_009_day_24_data.csv,1,600,,Button-Switch at home,,,,,,,,,,,,,k
9,24,1138,B,79.04383533680218,66.11376268054853,3.952191766840109,1.0385125556919514,B,496.95579199760687,Correct,sub_009_day_24_data.csv,1,600,,Button-Switch at home,,,,,,,,,,,,,d
9,24,1139,A,47.64850182785854,68.15790908074185,2.3824250913929266,1.0706219322604982,A,388.0492489988683,Correct,sub_009_day_24_data.csv,1,600,,Button-Switch at home,,,,,,,,,,,,,k
9,24,1140,A,19.148264045499193,50.19184105008048,0.9574132022749596,0.7884115955653973,A,367.94662500324193,Correct,sub_009_day_24_data.csv,1,600,,Button-Switch at home,,,,,,,,,,,,,k
9,24,1141,A,50.56696248007616,72.93691901449341,2.5283481240038084,1.1456904447570309,A,366.7184580044705,Correct,sub_009_day_24_data.csv,1,600,,Button-Switch at home,,,,,,,,,,,,,k
9,24,1142,A,67.97249072605982,83.40691108524682,3.398624536302991,1.3101526956201424,A,449.2977910049376,Correct,sub_009_day_24_data.csv,1,600,,Button-Switch at home,,,,,,,,,,,,,k
9,24,1143,B,45.59202751604144,33.25614946441505,2.279601375802072,0.5223863742204523,B,377.3224169999594,Correct,sub_009_day_24_data.csv,1,600,,Button-Switch at home,,,,,,,,,,,,,d
9,24,1144,A,27.98550455637976,41.71896996340094,1.399275227818988,0.6553200477617681,A,346.2824579983135,Correct,sub_009_day_24_data.csv,1,600,,Button-Switch at home,,,,,,,,,,,,,k
9,24,1145,A,27.023771183060735,56.967647424100335,1.3511885591530366,0.8948457131992356,A,309.54779100284213,Correct,sub_009_day_24_data.csv,1,600,,Button-Switch at home,,,,,,,,,,,,,k
9,24,1146,A,38.52870709589481,68.04604788695457,1.9264353547947408,1.0688648207373783,A,336.1672500032,Correct,sub_009_day_24_data.csv,1,600,,Button-Switch at home,,,,,,,,,,,,,k
9,24,1147,B,86.693779936917,62.13202385095275,4.33468899684585,0.9759675484140948,B,411.888374001137,Correct,sub_009_day_24_data.csv,1,600,,Button-Switch at home,,,,,,,,,,,,,d
9,24,1148,B,53.38660091831195,44.57742769813827,2.669330045915598,0.7002205968620068,A,367.88950000482146,Incorrect,sub_009_day_24_data.csv,0,600,,Button-Switch at home,,,,,,,,,,,,,k
9,24,1149,B,54.02934936511257,33.994914886389516,2.701467468255629,0.533990874332458,B,493.4008330019424,Correct,sub_009_day_24_data.csv,1,600,,Button-Switch at home,,,,,,,,,,,,,d
9,24,1150,B,57.671938396512545,34.188381368300284,2.883596919825627,0.5370298387238917,B,356.3731249960256,Correct,sub_009_day_24_data.csv,1,600,,Button-Switch at home,,,,,,,,,,,,,d
9,24,1151,B,45.227070094910495,26.134524994059618,2.2613535047455247,0.4105201586319826,B,349.515000001702,Correct,sub_009_day_24_data.csv,1,600,,Button-Switch at home,,,,,,,,,,,,,d
9,24,1152,B,56.38381571245884,27.535742977052458,2.819190785622942,0.4325304392392236,B,373.06483300199034,Correct,sub_009_day_24_data.csv,1,600,,Button-Switch at home,,,,,,,,,,,,,d
