subject,day,trial,cat,x,y,xt,yt,resp,rt,fb,f_name,acc,n_trials,block,session_type,ns_left_digit,ns_right_digit,ns_left_size,ns_right_size,ns_congruent,ns_cue,ns_correct_side,ns_resp,ns_rt,ns_fb,acc_stroop,acc_stroop_mean,resp_key
9,7,1200,B,85.35241691457337,62.03014251738512,4.267620845728668,0.9743672001687248,B,1814.8775420122547,Correct,sub_009_day_07_data.csv,1,300,48.0,Training at home,,,,,,,,,,,,,
9,7,1201,A,51.5682768686212,80.11692461927336,2.5784138434310595,1.2584737090605822,A,1129.8584999894956,Correct,sub_009_day_07_data.csv,1,300,48.0,Training at home,,,,,,,,,,,,,
9,7,1202,B,80.06852708409937,53.736126924878576,4.003426354204969,0.8440851078978361,B,706.1382079991745,Correct,sub_009_day_07_data.csv,1,300,48.0,Training at home,,,,,,,,,,,,,
9,7,1203,B,31.09259688721087,13.262525316754289,1.5546298443605435,0.2083272605158195,B,510.66754100611433,Correct,sub_009_day_07_data.csv,1,300,48.0,Training at home,,,,,,,,,,,,,
9,7,1204,B,69.69714634276362,57.705035113174795,3.484857317138181,0.9064285719334548,B,1840.2831249986775,Correct,sub_009_day_07_data.csv,1,300,48.0,Training at home,,,,,,,,,,,,,
9,7,1205,B,64.69658310337708,53.736881181469016,3.2348291551688537,0.8440969557326533,B,2627.684709004825,Correct,sub_009_day_07_data.csv,1,300,48.0,Training at home,,,,,,,,,,,,,
9,7,1206,A,23.417024263712747,36.62968541270535,1.1708512131856377,0.5753777529793016,A,623.8386659970274,Correct,sub_009_day_07_data.csv,1,300,48.0,Training at home,,,,,,,,,,,,,
9,7,1207,A,46.033933177846365,62.52192634685225,2.3016966588923182,0.9820921224977658,A,2123.4226660017157,Correct,sub_009_day_07_data.csv,1,300,48.0,Training at home,,,,,,,,,,,,,
9,7,1208,B,56.28451431185932,47.691254786584416,2.814225715592966,0.7491324783900633,B,896.2371669913409,Correct,sub_009_day_07_data.csv,1,300,48.0,Training at home,,,,,,,,,,,,,
9,7,1209,B,57.39200714841337,24.649119633998733,2.8696003574206683,0.3871874657981318,B,636.1885830119718,Correct,sub_009_day_07_data.csv,1,300,48.0,Training at home,,,,,,,,,,,,,
9,7,1210,A,27.284003627044,44.9679248198584,1.3642001813522,0.7063545113062262,A,1915.111207999871,Correct,sub_009_day_07_data.csv,1,300,48.0,Training at home,,,,,,,,,,,,,
9,7,1211,A,16.74346136924733,44.72982882408587,0.8371730684623665,0.7026145081503857,A,530.0442500010831,Correct,sub_009_day_07_data.csv,1,300,48.0,Training at home,,,,,,,,,,,,,
9,7,1212,A,55.32476306296508,65.46537854662317,2.7662381531482545,1.028327761532731,B,2827.8976250003325,Incorrect,sub_009_day_07_data.csv,0,300,48.0,Training at home,,,,,,,,,,,,,
9,7,1213,A,57.95340417067724,70.11158091995046,2.897670208533862,1.1013101377484131,A,711.5702079900075,Correct,sub_009_day_07_data.csv,1,300,48.0,Training at home,,,,,,,,,,,,,
9,7,1214,A,43.61425782518376,63.868799985036915,2.180712891259188,1.0032487641329393,A,780.0414579978678,Correct,sub_009_day_07_data.csv,1,300,48.0,Training at home,,,,,,,,,,,,,
9,7,1215,A,48.47988543354608,62.59392201630549,2.423994271677304,0.9832230278289888,A,2243.471125009819,Correct,sub_009_day_07_data.csv,1,300,48.0,Training at home,,,,,,,,,,,,,
9,7,1216,A,17.5229226358457,35.15136130940721,0.876146131792285,0.5521562922665708,A,585.0802920031128,Correct,sub_009_day_07_data.csv,1,300,48.0,Training at home,,,,,,,,,,,,,
9,7,1217,B,60.558950781608225,37.90478657493892,3.027947539080411,0.5954069951985856,B,1264.4810420024442,Correct,sub_009_day_07_data.csv,1,300,48.0,Training at home,,,,,,,,,,,,,
9,7,1218,A,63.381825771997185,80.36604580095744,3.169091288599859,1.2623868954317436,A,3280.408249993343,Correct,sub_009_day_07_data.csv,1,300,48.0,Training at home,,,,,,,,,,,,,
9,7,1219,B,68.00180329346713,49.672941233245645,3.4000901646733563,0.7802607363028102,B,649.0535839984659,Correct,sub_009_day_07_data.csv,1,300,48.0,Training at home,,,,,,,,,,,,,
9,7,1220,A,41.800906447562674,67.02457870858377,2.090045322378134,1.0528196204041882,A,981.7741669976384,Correct,sub_009_day_07_data.csv,1,300,48.0,Training at home,,,,,,,,,,,,,
9,7,1221,A,14.423868976822042,43.65572306960135,0.721193448841102,0.6857424944130504,A,482.50687500694767,Correct,sub_009_day_07_data.csv,1,300,48.0,Training at home,,,,,,,,,,,,,
9,7,1222,B,77.7460420628715,60.44699044567503,3.8873021031435746,0.9494991055787254,B,1486.8140409962507,Correct,sub_009_day_07_data.csv,1,300,48.0,Training at home,,,,,,,,,,,,,
9,7,1223,A,41.61453862706756,56.79236391356541,2.080726931353378,0.8920923662542759,A,1948.0610829923537,Correct,sub_009_day_07_data.csv,1,300,48.0,Training at home,,,,,,,,,,,,,
9,7,1224,B,58.22676772439563,44.61079023886106,2.9113383862197817,0.7007446544262057,B,1086.3194160046987,Correct,sub_009_day_07_data.csv,1,300,48.0,Training at home,,,,,,,,,,,,,
9,7,1225,B,62.922877180684786,32.48581543793942,3.146143859034239,0.510285995628522,B,600.2274159982335,Correct,sub_009_day_07_data.csv,1,300,49.0,Training at home,,,,,,,,,,,,,
9,7,1226,A,19.70036235121521,45.75807241249251,0.9850181175607604,0.7187661206675813,A,515.8830410073278,Correct,sub_009_day_07_data.csv,1,300,49.0,Training at home,,,,,,,,,,,,,
9,7,1227,B,79.2165805771547,65.2966161752826,3.960829028857735,1.0256768484027012,B,962.3758329980774,Correct,sub_009_day_07_data.csv,1,300,49.0,Training at home,,,,,,,,,,,,,
9,7,1228,B,82.41042705866684,63.93678889863732,4.120521352933342,1.004316731490402,B,1213.8651670102263,Correct,sub_009_day_07_data.csv,1,300,49.0,Training at home,,,,,,,,,,,,,
9,7,1229,B,41.905690393514945,31.311635815417027,2.0952845196757472,0.4918420252479659,B,904.0529999911088,Correct,sub_009_day_07_data.csv,1,300,49.0,Training at home,,,,,,,,,,,,,
9,7,1230,A,48.96811844836952,80.4366538429044,2.448405922418476,1.2634960039610683,A,716.6974160063546,Correct,sub_009_day_07_data.csv,1,300,49.0,Training at home,,,,,,,,,,,,,
9,7,1231,A,27.945420169310175,45.899943153239505,1.397271008465509,0.7209946210520317,A,1288.2059590046993,Correct,sub_009_day_07_data.csv,1,300,49.0,Training at home,,,,,,,,,,,,,
9,7,1232,A,31.32678633122847,58.095985116870914,1.5663393165614234,0.912569600231118,A,1244.3115830101306,Correct,sub_009_day_07_data.csv,1,300,49.0,Training at home,,,,,,,,,,,,,
9,7,1233,B,31.944547943170416,10.899458048291514,1.5972273971585207,0.1712082866631138,B,542.641583000659,Correct,sub_009_day_07_data.csv,1,300,49.0,Training at home,,,,,,,,,,,,,
9,7,1234,A,18.064552607414477,43.64724005803241,0.9032276303707236,0.6856092435789237,A,818.8950839976314,Correct,sub_009_day_07_data.csv,1,300,49.0,Training at home,,,,,,,,,,,,,
9,7,1235,B,70.4464907497398,45.44871667028024,3.52232453748699,0.7139067720321818,B,674.2965409939643,Correct,sub_009_day_07_data.csv,1,300,49.0,Training at home,,,,,,,,,,,,,
9,7,1236,A,41.7366627714921,62.6487729464167,2.086833138574605,0.9840846242243884,A,738.220958999591,Correct,sub_009_day_07_data.csv,1,300,49.0,Training at home,,,,,,,,,,,,,
9,7,1237,A,21.909478876890752,39.16968031188647,1.0954739438445376,0.6152758995564164,A,872.3841250030091,Correct,sub_009_day_07_data.csv,1,300,49.0,Training at home,,,,,,,,,,,,,
9,7,1238,B,47.74786795520816,17.35811043366979,2.387393397760408,0.2726605610930867,B,759.9913330050185,Correct,sub_009_day_07_data.csv,1,300,49.0,Training at home,,,,,,,,,,,,,
9,7,1239,B,57.39653154597637,30.07105593934967,2.8698265772988183,0.4723550421237431,B,3108.3364579972113,Correct,sub_009_day_07_data.csv,1,300,49.0,Training at home,,,,,,,,,,,,,
9,7,1240,A,29.55155978264863,53.796250174889664,1.4775779891324317,0.8450295217005599,A,507.2700419987086,Correct,sub_009_day_07_data.csv,1,300,49.0,Training at home,,,,,,,,,,,,,
9,7,1241,A,17.44583965663163,38.08110867558514,0.8722919828315816,0.5981766562788641,A,833.5057079966646,Correct,sub_009_day_07_data.csv,1,300,49.0,Training at home,,,,,,,,,,,,,
9,7,1242,A,46.284222831775566,74.09200395134168,2.3142111415887783,1.1638344765164046,A,1254.606791990227,Correct,sub_009_day_07_data.csv,1,300,49.0,Training at home,,,,,,,,,,,,,
9,7,1243,B,41.563854494478704,25.521918797901968,2.078192724723935,0.4008973630050202,B,591.2640839960659,Correct,sub_009_day_07_data.csv,1,300,49.0,Training at home,,,,,,,,,,,,,
9,7,1244,A,18.642013133554908,38.501616951353064,0.9321006566777454,0.6047819848284952,A,551.0920409869868,Correct,sub_009_day_07_data.csv,1,300,49.0,Training at home,,,,,,,,,,,,,
9,7,1245,B,83.68297942195402,60.363203588346586,4.184148971097701,0.9481829847014736,B,628.0490420031128,Correct,sub_009_day_07_data.csv,1,300,49.0,Training at home,,,,,,,,,,,,,
9,7,1246,B,66.12949034454384,34.13407546531532,3.3064745172271923,0.5361768035945711,B,541.1900829931255,Correct,sub_009_day_07_data.csv,1,300,49.0,Training at home,,,,,,,,,,,,,
9,7,1247,B,78.00560736712684,62.80190253318244,3.9002803683563423,0.9864899781485408,B,596.5956669970183,Correct,sub_009_day_07_data.csv,1,300,49.0,Training at home,,,,,,,,,,,,,
9,7,1248,B,69.33991738000873,45.36545256831575,3.4669958690004363,0.712598862576985,B,800.7745840004645,Correct,sub_009_day_07_data.csv,1,300,49.0,Training at home,,,,,,,,,,,,,
9,7,1249,A,35.915026909928145,48.52699368220855,1.7957513454964071,0.7622602342641235,B,2014.629083001637,Incorrect,sub_009_day_07_data.csv,0,300,49.0,Training at home,,,,,,,,,,,,,
9,7,1250,A,41.434462103909134,64.06762739375505,2.0717231051954568,1.0063719377657452,A,1426.595999990241,Correct,sub_009_day_07_data.csv,1,300,50.0,Training at home,,,,,,,,,,,,,
9,7,1251,B,84.50564135253,59.59161079462265,4.2252820676265,0.9360628334398436,B,618.7780829932308,Correct,sub_009_day_07_data.csv,1,300,50.0,Training at home,,,,,,,,,,,,,
9,7,1252,B,42.667610967787176,27.88808677444233,2.133380548389358,0.4380650426663134,B,584.6340830030385,Correct,sub_009_day_07_data.csv,1,300,50.0,Training at home,,,,,,,,,,,,,
9,7,1253,A,16.21677834889206,37.20566699924942,0.810838917444603,0.5844252505837508,A,770.3417080047075,Correct,sub_009_day_07_data.csv,1,300,50.0,Training at home,,,,,,,,,,,,,
9,7,1254,B,85.26583569371986,69.08193208967634,4.263291784685993,1.0851364517435809,B,579.2790420091478,Correct,sub_009_day_07_data.csv,1,300,50.0,Training at home,,,,,,,,,,,,,
9,7,1255,B,44.66017289086603,34.35159833244687,2.2330086445433017,0.5395936448014124,B,936.258750007255,Correct,sub_009_day_07_data.csv,1,300,50.0,Training at home,,,,,,,,,,,,,
9,7,1256,A,28.52421028314592,47.448910810041774,1.426210514157296,0.7453257481083227,A,1339.136791008059,Correct,sub_009_day_07_data.csv,1,300,50.0,Training at home,,,,,,,,,,,,,
9,7,1257,B,58.34969337221808,40.42476807878382,2.9174846686109044,0.6349907720968921,B,1773.4079170040786,Correct,sub_009_day_07_data.csv,1,300,50.0,Training at home,,,,,,,,,,,,,
9,7,1258,B,69.8072007786794,39.119959289233904,3.49036003893397,0.6144948835589451,B,2273.1503329996485,Correct,sub_009_day_07_data.csv,1,300,50.0,Training at home,,,,,,,,,,,,,
9,7,1259,B,51.763499988846746,25.35961419164574,2.5881749994423378,0.3983478882117285,B,6746.735749999061,Correct,sub_009_day_07_data.csv,1,300,50.0,Training at home,,,,,,,,,,,,,
9,7,1260,B,63.13305986674733,31.930574053307875,3.1566529933373664,0.5015642843538843,B,1114.7771660034778,Correct,sub_009_day_07_data.csv,1,300,50.0,Training at home,,,,,,,,,,,,,
9,7,1261,A,28.445701023350335,40.79183777926494,1.4222850511675167,0.6407566894688265,A,2963.5621670022374,Correct,sub_009_day_07_data.csv,1,300,50.0,Training at home,,,,,,,,,,,,,
9,7,1262,B,74.3221016929207,60.47755478769096,3.716105084646035,0.9499792091404208,B,863.7071670091245,Correct,sub_009_day_07_data.csv,1,300,50.0,Training at home,,,,,,,,,,,,,
9,7,1263,A,36.545899351871846,44.43443673022641,1.827294967593592,0.6979744999903987,B,2098.072125008912,Incorrect,sub_009_day_07_data.csv,0,300,50.0,Training at home,,,,,,,,,,,,,
9,7,1264,A,32.55619890313969,55.62049426255657,1.6278099451569843,0.8736846808214047,A,843.249375000596,Correct,sub_009_day_07_data.csv,1,300,50.0,Training at home,,,,,,,,,,,,,
9,7,1265,B,64.84580216041239,55.21697232242003,3.2422901080206197,0.8673461730079284,B,1602.5631249940488,Correct,sub_009_day_07_data.csv,1,300,50.0,Training at home,,,,,,,,,,,,,
9,7,1266,B,66.16143409955643,44.336709666097335,3.308071704977822,0.6964394068567747,B,1540.6838330090975,Correct,sub_009_day_07_data.csv,1,300,50.0,Training at home,,,,,,,,,,,,,
9,7,1267,A,33.76855892786231,51.452179200149494,1.688427946393115,0.8082089409318761,A,728.3327500044834,Correct,sub_009_day_07_data.csv,1,300,50.0,Training at home,,,,,,,,,,,,,
9,7,1268,A,28.15878719879597,59.903183322063526,1.407939359939799,0.9409570032561868,A,938.9747919922228,Correct,sub_009_day_07_data.csv,1,300,50.0,Training at home,,,,,,,,,,,,,
9,7,1269,B,84.68824245383965,59.96528245267653,4.234412122691982,0.9419324541188278,B,592.6494589948561,Correct,sub_009_day_07_data.csv,1,300,50.0,Training at home,,,,,,,,,,,,,
9,7,1270,B,72.13045309561917,49.78487362493502,3.6065226547809583,0.7820189661999606,B,548.6499170074239,Correct,sub_009_day_07_data.csv,1,300,50.0,Training at home,,,,,,,,,,,,,
9,7,1271,B,49.04805744494605,39.41323712677785,2.4524028722473026,0.6191016810583889,B,3444.381165987579,Correct,sub_009_day_07_data.csv,1,300,50.0,Training at home,,,,,,,,,,,,,
9,7,1272,B,65.77390057518836,51.74121253289658,3.288695028759418,0.8127490659058801,B,938.7246660044184,Correct,sub_009_day_07_data.csv,1,300,50.0,Training at home,,,,,,,,,,,,,
9,7,1273,A,15.633595326357923,34.681208632796334,0.7816797663178962,0.5447711512920393,A,523.2481669954723,Correct,sub_009_day_07_data.csv,1,300,50.0,Training at home,,,,,,,,,,,,,
9,7,1274,B,69.20696341565515,60.06622214859928,3.4603481707827575,0.9435180111546602,B,855.153959011659,Correct,sub_009_day_07_data.csv,1,300,50.0,Training at home,,,,,,,,,,,,,
9,7,1275,B,51.584364383429275,36.46251397333599,2.5792182191714637,0.5727518301502376,B,2052.5444999948377,Correct,sub_009_day_07_data.csv,1,300,51.0,Training at home,,,,,,,,,,,,,
9,7,1276,A,43.02953095203541,72.89790661110575,2.1514765476017703,1.1450776393576232,A,582.6328750117682,Correct,sub_009_day_07_data.csv,1,300,51.0,Training at home,,,,,,,,,,,,,
9,7,1277,B,42.7636597036295,22.003417502814617,2.138182985181475,0.3456288739035573,B,527.1745420031948,Correct,sub_009_day_07_data.csv,1,300,51.0,Training at home,,,,,,,,,,,,,
9,7,1278,A,31.67770257743761,64.23214719282218,1.5838851288718805,1.008956208726342,A,499.9742500076536,Correct,sub_009_day_07_data.csv,1,300,51.0,Training at home,,,,,,,,,,,,,
9,7,1279,B,82.48840313937373,63.8333211206924,4.124420156968687,1.0026914634350272,B,631.6584580054041,Correct,sub_009_day_07_data.csv,1,300,51.0,Training at home,,,,,,,,,,,,,
9,7,1280,A,21.643553736702735,45.37687696088498,1.0821776868351367,0.7127783165158209,A,438.4165420051431,Correct,sub_009_day_07_data.csv,1,300,51.0,Training at home,,,,,,,,,,,,,
9,7,1281,B,68.22600229719357,57.04395870855075,3.411300114859679,0.8960444080523128,B,499.2577919911127,Correct,sub_009_day_07_data.csv,1,300,51.0,Training at home,,,,,,,,,,,,,
9,7,1282,B,58.91777419429284,44.94011137509969,2.945888709714642,0.7059176187376014,B,531.4782909990754,Correct,sub_009_day_07_data.csv,1,300,51.0,Training at home,,,,,,,,,,,,,
9,7,1283,B,53.81624898823461,24.463794665891182,2.6908124494117307,0.3842763880064646,B,435.5806249950547,Correct,sub_009_day_07_data.csv,1,300,51.0,Training at home,,,,,,,,,,,,,
9,7,1284,A,22.674856382420508,40.21738096352526,1.1337428191210253,0.6317331429081647,A,496.3221660000272,Correct,sub_009_day_07_data.csv,1,300,51.0,Training at home,,,,,,,,,,,,,
9,7,1285,A,51.279412653088734,77.38414958877196,2.5639706326544367,1.2155473792618985,A,602.1673750074115,Correct,sub_009_day_07_data.csv,1,300,51.0,Training at home,,,,,,,,,,,,,
9,7,1286,B,32.6324333558412,17.108347324181455,1.63162166779206,0.2687372913435553,B,399.2494579870254,Correct,sub_009_day_07_data.csv,1,300,51.0,Training at home,,,,,,,,,,,,,
9,7,1287,A,62.83641466379268,86.44252574287096,3.141820733189634,1.35783601915775,A,956.1978749989066,Correct,sub_009_day_07_data.csv,1,300,51.0,Training at home,,,,,,,,,,,,,
9,7,1288,B,45.731997659697406,31.85795836951167,2.2865998829848704,0.5004236398601367,B,873.6024159879889,Correct,sub_009_day_07_data.csv,1,300,51.0,Training at home,,,,,,,,,,,,,
9,7,1289,A,23.256805857996344,36.43859264392436,1.1628402928998172,0.5723760747865192,A,813.53595899418,Correct,sub_009_day_07_data.csv,1,300,51.0,Training at home,,,,,,,,,,,,,
9,7,1290,A,22.683280455172845,43.541331929061954,1.1341640227586425,0.6839456425792787,A,1082.572250001249,Correct,sub_009_day_07_data.csv,1,300,51.0,Training at home,,,,,,,,,,,,,
9,7,1291,A,63.93259686078988,78.02994389149829,3.196629843039494,1.225691492447774,A,1377.908499998739,Correct,sub_009_day_07_data.csv,1,300,51.0,Training at home,,,,,,,,,,,,,
9,7,1292,A,37.65325729129629,60.158074618461754,1.8826628645648145,0.9449608263773304,A,902.5041669956408,Correct,sub_009_day_07_data.csv,1,300,51.0,Training at home,,,,,,,,,,,,,
9,7,1293,B,55.25087204941046,23.447505256534612,2.762543602470523,0.368312551294686,B,992.2888750006678,Correct,sub_009_day_07_data.csv,1,300,51.0,Training at home,,,,,,,,,,,,,
9,7,1294,A,24.65199388034042,47.14142644711938,1.2325996940170212,0.740495795030069,A,1049.7875830042176,Correct,sub_009_day_07_data.csv,1,300,51.0,Training at home,,,,,,,,,,,,,
9,7,1295,B,64.17088496926205,38.50323436096055,3.2085442484631024,0.6048073910391988,B,1703.120083999238,Correct,sub_009_day_07_data.csv,1,300,51.0,Training at home,,,,,,,,,,,,,
9,7,1296,B,55.84656676323921,30.791773962258937,2.79232833816196,0.4836760543541507,B,1304.649833997246,Correct,sub_009_day_07_data.csv,1,300,51.0,Training at home,,,,,,,,,,,,,
9,7,1297,B,33.733518611895846,18.81918898473291,1.6866759305947925,0.2956111293047744,B,1504.678833996877,Correct,sub_009_day_07_data.csv,1,300,51.0,Training at home,,,,,,,,,,,,,
9,7,1298,B,54.35235208722855,42.09558773991559,2.7176176043614277,0.6612359459613169,B,1866.5208750026068,Correct,sub_009_day_07_data.csv,1,300,51.0,Training at home,,,,,,,,,,,,,
9,7,1299,A,37.86442292427028,58.393474957192865,1.893221146213514,0.9172425597154834,A,1993.510584012256,Correct,sub_009_day_07_data.csv,1,300,51.0,Training at home,,,,,,,,,,,,,
9,7,1300,A,23.88106815405584,52.07892430796692,1.194053407702792,0.8180538300638388,A,832.952666998608,Correct,sub_009_day_07_data.csv,1,300,52.0,Training at home,,,,,,,,,,,,,
9,7,1301,A,46.51042871187701,67.4381575561979,2.3255214355938505,1.0593161017509114,A,873.1265840033302,Correct,sub_009_day_07_data.csv,1,300,52.0,Training at home,,,,,,,,,,,,,
9,7,1302,B,67.92038373859474,44.001003755805876,3.396019186929737,0.691166150749083,B,1051.730166989728,Correct,sub_009_day_07_data.csv,1,300,52.0,Training at home,,,,,,,,,,,,,
9,7,1303,B,65.70020984025203,47.36458301543616,3.285010492012601,0.7440011302081907,B,868.6997090117075,Correct,sub_009_day_07_data.csv,1,300,52.0,Training at home,,,,,,,,,,,,,
9,7,1304,B,74.24117698994505,54.015816461899554,3.712058849497253,0.8484784608717911,B,903.201082997839,Correct,sub_009_day_07_data.csv,1,300,52.0,Training at home,,,,,,,,,,,,,
9,7,1305,A,38.34287117283924,58.444363502714744,1.9171435586419616,0.9180419151193004,A,975.1922909927088,Correct,sub_009_day_07_data.csv,1,300,52.0,Training at home,,,,,,,,,,,,,
9,7,1306,A,22.256436951614504,43.79584249042439,1.1128218475807252,0.6879434851284649,A,1031.706875000964,Correct,sub_009_day_07_data.csv,1,300,52.0,Training at home,,,,,,,,,,,,,
9,7,1307,B,63.68760940674206,46.45303673926214,3.184380470337103,0.7296825947850135,B,959.2885409947484,Correct,sub_009_day_07_data.csv,1,300,52.0,Training at home,,,,,,,,,,,,,
9,7,1308,A,51.28532231787972,69.11645461145937,2.564266115893986,1.0856787302476658,A,1463.093500002287,Correct,sub_009_day_07_data.csv,1,300,52.0,Training at home,,,,,,,,,,,,,
9,7,1309,A,52.392392610323995,78.12570073245726,2.6196196305162,1.2271956373882122,A,822.3817920079455,Correct,sub_009_day_07_data.csv,1,300,52.0,Training at home,,,,,,,,,,,,,
9,7,1310,B,56.82664853735034,36.033998583777375,2.8413324268675173,0.5660207261513,B,733.9990830078023,Correct,sub_009_day_07_data.csv,1,300,52.0,Training at home,,,,,,,,,,,,,
9,7,1311,B,71.77255459002235,55.51731568258528,3.588627729501118,0.8720639554771767,B,1197.4830830004066,Correct,sub_009_day_07_data.csv,1,300,52.0,Training at home,,,,,,,,,,,,,
9,7,1312,A,19.536528569453935,38.11046385616268,0.9768264284726969,0.5986377663771002,A,831.7630420060595,Correct,sub_009_day_07_data.csv,1,300,52.0,Training at home,,,,,,,,,,,,,
9,7,1313,B,46.86348186566471,18.39173549221574,2.3431740932832357,0.2888967055455581,B,1427.9906669980846,Correct,sub_009_day_07_data.csv,1,300,52.0,Training at home,,,,,,,,,,,,,
9,7,1314,A,26.78951470625462,50.84537321963892,1.3394757353127311,0.7986772548792443,A,1038.0198750062846,Correct,sub_009_day_07_data.csv,1,300,52.0,Training at home,,,,,,,,,,,,,
9,7,1315,A,23.362418403382517,35.957207442901556,1.1681209201691258,0.5648144937311188,A,2138.143208998372,Correct,sub_009_day_07_data.csv,1,300,52.0,Training at home,,,,,,,,,,,,,
9,7,1316,A,17.873670180482478,42.13070420095339,0.8936835090241239,0.661787554041399,A,2384.818374994211,Correct,sub_009_day_07_data.csv,1,300,52.0,Training at home,,,,,,,,,,,,,
9,7,1317,A,51.677428369347155,65.10322017336873,2.5838714184673575,1.02263899110847,A,2468.736707989592,Correct,sub_009_day_07_data.csv,1,300,52.0,Training at home,,,,,,,,,,,,,
9,7,1318,B,41.79955264800739,16.89799755923967,2.0899776324003696,0.265433124962428,B,2521.413666006993,Correct,sub_009_day_07_data.csv,1,300,52.0,Training at home,,,,,,,,,,,,,
9,7,1319,A,13.461971936666028,32.86685636429137,0.6730985968333014,0.5162713725032436,A,1564.4279580010334,Correct,sub_009_day_07_data.csv,1,300,52.0,Training at home,,,,,,,,,,,,,
9,7,1320,B,77.81642786447651,61.62239520952887,3.890821393223826,0.9679623204343138,B,1575.224166008411,Correct,sub_009_day_07_data.csv,1,300,52.0,Training at home,,,,,,,,,,,,,
9,7,1321,B,78.55877410030689,66.53677696349648,3.927938705015345,1.0451572485103156,B,1916.3335409975844,Correct,sub_009_day_07_data.csv,1,300,52.0,Training at home,,,,,,,,,,,,,
9,7,1322,B,82.16482152091561,51.75968514162299,4.108241076045781,0.8130392329652177,B,1391.970875003608,Correct,sub_009_day_07_data.csv,1,300,52.0,Training at home,,,,,,,,,,,,,
9,7,1323,B,76.36156486612133,58.75256007818883,3.8180782433060663,0.9228830556061552,B,660.1587920013117,Correct,sub_009_day_07_data.csv,1,300,52.0,Training at home,,,,,,,,,,,,,
9,7,1324,B,43.901083128447695,29.88558010750596,2.1950541564223847,0.4694415945700499,B,487.1142080082791,Correct,sub_009_day_07_data.csv,1,300,52.0,Training at home,,,,,,,,,,,,,
9,7,1325,A,62.00108202413612,72.4651977315414,3.100054101206806,1.138280664171711,A,1365.9786249918398,Correct,sub_009_day_07_data.csv,1,300,53.0,Training at home,,,,,,,,,,,,,
9,7,1326,B,84.42709143349039,58.84824191284052,4.221354571674519,0.9243860223502736,B,787.4942080088658,Correct,sub_009_day_07_data.csv,1,300,53.0,Training at home,,,,,,,,,,,,,
9,7,1327,A,36.31927395268666,66.16403286736272,1.815963697634333,1.0393021979399018,A,1354.361791993142,Correct,sub_009_day_07_data.csv,1,300,53.0,Training at home,,,,,,,,,,,,,
9,7,1328,B,70.64976435225967,38.87707610042091,3.5324882176129835,0.6106796833506682,B,548.7149999971734,Correct,sub_009_day_07_data.csv,1,300,53.0,Training at home,,,,,,,,,,,,,
9,7,1329,B,51.643411274189184,36.272020653823986,2.582170563709459,0.5697595680845534,B,1078.6371659924043,Correct,sub_009_day_07_data.csv,1,300,53.0,Training at home,,,,,,,,,,,,,
9,7,1330,B,78.76534844252544,49.34529957711808,3.938267422126272,0.7751141532033083,B,508.7567080045119,Correct,sub_009_day_07_data.csv,1,300,53.0,Training at home,,,,,,,,,,,,,
9,7,1331,B,57.01458372281985,43.833131276133486,2.8507291861409927,0.6885292160046897,B,2110.95887501142,Correct,sub_009_day_07_data.csv,1,300,53.0,Training at home,,,,,,,,,,,,,
9,7,1332,B,41.683499464575064,14.072210349173162,2.084174973228753,0.2210457632636633,B,626.0438340104884,Correct,sub_009_day_07_data.csv,1,300,53.0,Training at home,,,,,,,,,,,,,
9,7,1333,A,48.34480821078152,61.82170021263085,2.417240410539076,0.971092996102158,A,692.7266669954406,Correct,sub_009_day_07_data.csv,1,300,53.0,Training at home,,,,,,,,,,,,,
9,7,1334,A,33.781407591747964,47.935967932518714,1.689070379587398,0.7529764234975835,B,905.8586669998476,Incorrect,sub_009_day_07_data.csv,0,300,53.0,Training at home,,,,,,,,,,,,,
9,7,1335,A,63.596461065326665,87.06985788695778,3.179823053266333,1.3676901294338693,A,645.2832500071963,Correct,sub_009_day_07_data.csv,1,300,53.0,Training at home,,,,,,,,,,,,,
9,7,1336,B,44.40056676683518,32.34240350910191,2.220028338341759,0.5080332863181566,B,596.9466660026228,Correct,sub_009_day_07_data.csv,1,300,53.0,Training at home,,,,,,,,,,,,,
9,7,1337,B,51.2623667688055,35.15136634896239,2.5631183384402747,0.5521563714277187,B,920.1287089963444,Correct,sub_009_day_07_data.csv,1,300,53.0,Training at home,,,,,,,,,,,,,
9,7,1338,B,51.465030261479185,41.34825774821625,2.5732515130739593,0.649496913902667,B,420.5964589928044,Correct,sub_009_day_07_data.csv,1,300,53.0,Training at home,,,,,,,,,,,,,
9,7,1339,A,27.79100441850374,45.65619867111031,1.389550220925187,0.717165891679981,A,552.6130840007681,Correct,sub_009_day_07_data.csv,1,300,53.0,Training at home,,,,,,,,,,,,,
9,7,1340,A,35.81475451061199,69.17352539609936,1.7907377255305994,1.0865751960364636,A,2768.9878340024734,Correct,sub_009_day_07_data.csv,1,300,53.0,Training at home,,,,,,,,,,,,,
9,7,1341,A,59.936832743859455,82.16271036954682,2.9968416371929725,1.290608836479971,A,1286.6048330033664,Correct,sub_009_day_07_data.csv,1,300,53.0,Training at home,,,,,,,,,,,,,
9,7,1342,A,40.57954164762624,64.24796038689277,2.028977082381312,1.0092046017979517,A,526.6112090030219,Correct,sub_009_day_07_data.csv,1,300,53.0,Training at home,,,,,,,,,,,,,
9,7,1343,A,45.281930895598514,66.68740979843285,2.264096544779926,1.0475233835484432,A,422.6735839911271,Correct,sub_009_day_07_data.csv,1,300,53.0,Training at home,,,,,,,,,,,,,
9,7,1344,A,38.61810047950706,54.96513491335833,1.9309050239753531,0.8633903202368919,A,722.7520419983193,Correct,sub_009_day_07_data.csv,1,300,53.0,Training at home,,,,,,,,,,,,,
9,7,1345,B,54.985694637373285,45.79204545099983,2.749284731868664,0.7192997679085549,B,2316.666291997535,Correct,sub_009_day_07_data.csv,1,300,53.0,Training at home,,,,,,,,,,,,,
9,7,1346,B,71.76756509881875,55.14128275811664,3.5883782549409373,0.8661572441120837,B,1834.8001249978552,Correct,sub_009_day_07_data.csv,1,300,53.0,Training at home,,,,,,,,,,,,,
9,7,1347,A,26.094295528853134,42.75255214922735,1.3047147764426563,0.6715555187711358,A,521.7280000069877,Correct,sub_009_day_07_data.csv,1,300,53.0,Training at home,,,,,,,,,,,,,
9,7,1348,A,27.278390976213913,53.4065858233849,1.363919548810696,0.838908688380294,A,402.2188329981873,Correct,sub_009_day_07_data.csv,1,300,53.0,Training at home,,,,,,,,,,,,,
9,7,1349,A,45.14427554799678,56.34451549802987,2.257213777399839,0.8850575797934344,A,919.6997089893556,Correct,sub_009_day_07_data.csv,1,300,53.0,Training at home,,,,,,,,,,,,,
9,7,1350,A,45.11359239686546,55.36007966331534,2.2556796198432725,0.8695940978620859,A,579.6238330076449,Correct,sub_009_day_07_data.csv,1,300,54.0,Training at home,,,,,,,,,,,,,
9,7,1351,B,86.89647818524915,63.68868921744933,4.344823909262458,1.0004195908115114,B,522.0960829901742,Correct,sub_009_day_07_data.csv,1,300,54.0,Training at home,,,,,,,,,,,,,
9,7,1352,B,61.7245517264141,40.58448048628176,3.086227586320705,0.6374995287273054,B,641.9719590048771,Correct,sub_009_day_07_data.csv,1,300,54.0,Training at home,,,,,,,,,,,,,
9,7,1353,B,54.271398496273775,38.48920923261238,2.713569924813689,0.6045870848382775,B,512.34329098952,Correct,sub_009_day_07_data.csv,1,300,54.0,Training at home,,,,,,,,,,,,,
9,7,1354,A,51.74343717975228,74.43931690103481,2.587171858987614,1.1692900555726675,A,605.1086660008878,Correct,sub_009_day_07_data.csv,1,300,54.0,Training at home,,,,,,,,,,,,,
9,7,1355,A,61.387918499618834,77.68180786601036,3.0693959249809417,1.2202229845471595,A,575.7774590019835,Correct,sub_009_day_07_data.csv,1,300,54.0,Training at home,,,,,,,,,,,,,
9,7,1356,A,49.799618111746675,76.24368295105175,2.4899809055873336,1.1976329712082676,A,495.82037499931175,Correct,sub_009_day_07_data.csv,1,300,54.0,Training at home,,,,,,,,,,,,,
9,7,1357,B,66.92855871231173,35.766183821982565,3.346427935615586,0.5618139017104127,B,822.9079169977922,Correct,sub_009_day_07_data.csv,1,300,54.0,Training at home,,,,,,,,,,,,,
9,7,1358,B,62.07786894971509,36.74178446240395,3.1038934474857545,0.5771386007343393,B,625.7656249945285,Correct,sub_009_day_07_data.csv,1,300,54.0,Training at home,,,,,,,,,,,,,
9,7,1359,B,69.62290915895932,48.89039771262244,3.481145457947966,0.7679685714252893,B,534.8754579899833,Correct,sub_009_day_07_data.csv,1,300,54.0,Training at home,,,,,,,,,,,,,
9,7,1360,A,24.663675732016287,44.62389320518038,1.2331837866008144,0.7009504753398509,A,464.2231659963727,Correct,sub_009_day_07_data.csv,1,300,54.0,Training at home,,,,,,,,,,,,,
9,7,1361,A,62.42820918881681,72.1332400512294,3.1214104594408405,1.1330662851228563,A,557.2457500093151,Correct,sub_009_day_07_data.csv,1,300,54.0,Training at home,,,,,,,,,,,,,
9,7,1362,A,21.267932584176528,36.59807641677623,1.0633966292088264,0.5748812400323102,A,546.717917008209,Correct,sub_009_day_07_data.csv,1,300,54.0,Training at home,,,,,,,,,,,,,
9,7,1363,A,28.89375993585606,61.28944065535071,1.444687996792803,0.962732282527387,A,529.2928330018185,Correct,sub_009_day_07_data.csv,1,300,54.0,Training at home,,,,,,,,,,,,,
9,7,1364,A,11.264782426572635,35.34584946331438,0.5632391213286319,0.5552113050441959,A,477.37599999527447,Correct,sub_009_day_07_data.csv,1,300,54.0,Training at home,,,,,,,,,,,,,
9,7,1365,B,67.58699167387026,56.66922068600298,3.379349583693513,0.8901580369590285,B,1521.0318330064183,Correct,sub_009_day_07_data.csv,1,300,54.0,Training at home,,,,,,,,,,,,,
9,7,1366,A,39.12281321650461,71.88494760405332,1.9561406608252303,1.1291661164829057,A,588.8647079991642,Correct,sub_009_day_07_data.csv,1,300,54.0,Training at home,,,,,,,,,,,,,
9,7,1367,A,18.453546849687065,43.63046523857807,0.9226773424843532,0.6853457453311086,A,457.0785420073662,Correct,sub_009_day_07_data.csv,1,300,54.0,Training at home,,,,,,,,,,,,,
9,7,1368,A,33.250828748080586,64.64244092492704,1.6625414374040293,1.015401087599315,A,417.6216659980128,Correct,sub_009_day_07_data.csv,1,300,54.0,Training at home,,,,,,,,,,,,,
9,7,1369,A,34.089827294400045,63.06371620315546,1.7044913647200022,0.990602537659524,A,512.2299999929965,Correct,sub_009_day_07_data.csv,1,300,54.0,Training at home,,,,,,,,,,,,,
9,7,1370,A,28.434110509576403,49.83882536525794,1.42170552547882,0.782866438155195,A,517.9683749884134,Correct,sub_009_day_07_data.csv,1,300,54.0,Training at home,,,,,,,,,,,,,
9,7,1371,B,64.85366299843082,45.47798146764555,3.242683149921541,0.7143664623942401,B,736.4261250040727,Correct,sub_009_day_07_data.csv,1,300,54.0,Training at home,,,,,,,,,,,,,
9,7,1372,A,33.722959027352545,42.59183145264451,1.6861479513676272,0.6690309239728135,A,993.2282909867354,Correct,sub_009_day_07_data.csv,1,300,54.0,Training at home,,,,,,,,,,,,,
9,7,1373,A,49.34999915532031,72.0265413355071,2.4674999577660155,1.1313902656155534,A,483.1889999913983,Correct,sub_009_day_07_data.csv,1,300,54.0,Training at home,,,,,,,,,,,,,
9,7,1374,A,27.067783000107767,43.25973748529924,1.3533891500053885,0.6795223674001953,A,462.18108299945015,Correct,sub_009_day_07_data.csv,1,300,54.0,Training at home,,,,,,,,,,,,,
9,7,1375,B,35.69168756021489,18.77352613790402,1.7845843780107444,0.2948938589840762,B,612.0649999938905,Correct,sub_009_day_07_data.csv,1,300,55.0,Training at home,,,,,,,,,,,,,
9,7,1376,A,36.476128809695226,54.40979197354432,1.8238064404847616,0.8546670137371785,A,437.6883749937406,Correct,sub_009_day_07_data.csv,1,300,55.0,Training at home,,,,,,,,,,,,,
9,7,1377,A,26.757863932829153,53.11658170316914,1.3378931966414576,0.8343533143123909,A,481.2205840134993,Correct,sub_009_day_07_data.csv,1,300,55.0,Training at home,,,,,,,,,,,,,
9,7,1378,B,37.949851489265754,25.64927073366085,1.897492574463288,0.4028978025340229,B,722.2185419959715,Correct,sub_009_day_07_data.csv,1,300,55.0,Training at home,,,,,,,,,,,,,
9,7,1379,B,43.33030722905464,19.987048871802248,2.166515361452732,0.3139558295129705,B,499.8680419957964,Correct,sub_009_day_07_data.csv,1,300,55.0,Training at home,,,,,,,,,,,,,
9,7,1380,A,33.99847340269061,63.90599099503385,1.6999236701345302,1.003832959151869,A,438.5160829988308,Correct,sub_009_day_07_data.csv,1,300,55.0,Training at home,,,,,,,,,,,,,
9,7,1381,A,34.59779146539565,45.341551680702224,1.7298895732697828,0.7122234283122802,B,523.3201670052949,Incorrect,sub_009_day_07_data.csv,0,300,55.0,Training at home,,,,,,,,,,,,,
9,7,1382,B,59.34018970478368,48.26003854722793,2.9670094852391844,0.7580669128096575,B,970.1572089979892,Correct,sub_009_day_07_data.csv,1,300,55.0,Training at home,,,,,,,,,,,,,
9,7,1383,A,46.12987790385191,66.99274256757629,2.3064938951925957,1.0523195394706495,A,534.8557909892406,Correct,sub_009_day_07_data.csv,1,300,55.0,Training at home,,,,,,,,,,,,,
9,7,1384,B,67.0736647055277,43.44444241441384,3.353683235276385,0.6824237056421368,B,1111.724834001507,Correct,sub_009_day_07_data.csv,1,300,55.0,Training at home,,,,,,,,,,,,,
9,7,1385,A,39.26426142623614,54.51761613640381,1.963213071311807,0.8563607117267729,A,691.7550840007607,Correct,sub_009_day_07_data.csv,1,300,55.0,Training at home,,,,,,,,,,,,,
9,7,1386,A,36.72836208025797,44.82810856181071,1.8364181040128984,0.704158282660551,A,2263.1516249966808,Correct,sub_009_day_07_data.csv,1,300,55.0,Training at home,,,,,,,,,,,,,
9,7,1387,A,56.210311678981554,74.85441217785211,2.8105155839490776,1.175810356933613,A,554.7717919980641,Correct,sub_009_day_07_data.csv,1,300,55.0,Training at home,,,,,,,,,,,,,
9,7,1388,A,15.45152869979652,37.209539808118635,0.7725764349898259,0.5844860845232124,A,485.45862500031944,Correct,sub_009_day_07_data.csv,1,300,55.0,Training at home,,,,,,,,,,,,,
9,7,1389,B,40.48185565584984,17.61880839697931,2.024092782792492,0.2767555951247819,B,530.0236249895534,Correct,sub_009_day_07_data.csv,1,300,55.0,Training at home,,,,,,,,,,,,,
9,7,1390,B,48.05294939981825,39.79971291326116,2.402647469990913,0.6251724285164204,B,655.8557499956805,Correct,sub_009_day_07_data.csv,1,300,55.0,Training at home,,,,,,,,,,,,,
9,7,1391,B,70.05825458346632,53.57012927849672,3.502912729173316,0.8414776229659039,B,582.491959008621,Correct,sub_009_day_07_data.csv,1,300,55.0,Training at home,,,,,,,,,,,,,
9,7,1392,B,49.30964701690098,29.91885346976727,2.465482350845049,0.4699642513222517,B,664.8372499912512,Correct,sub_009_day_07_data.csv,1,300,55.0,Training at home,,,,,,,,,,,,,
9,7,1393,B,36.71393867138482,22.082784521371565,1.835696933569241,0.3468755681157365,B,609.1164170065895,Correct,sub_009_day_07_data.csv,1,300,55.0,Training at home,,,,,,,,,,,,,
9,7,1394,A,57.11928394805227,86.092819857651,2.8559641974026135,1.3523428519581289,A,536.104292012169,Correct,sub_009_day_07_data.csv,1,300,55.0,Training at home,,,,,,,,,,,,,
9,7,1395,A,35.13422344137388,44.263880511659885,1.756711172068694,0.6952954091740355,B,526.0715830081608,Incorrect,sub_009_day_07_data.csv,0,300,55.0,Training at home,,,,,,,,,,,,,
9,7,1396,A,14.220115343263387,33.66029271545355,0.7110057671631693,0.5287346415627544,A,661.0588749899762,Correct,sub_009_day_07_data.csv,1,300,55.0,Training at home,,,,,,,,,,,,,
9,7,1397,B,66.62314362306513,35.13487151956424,3.3311571811532565,0.5518972712534215,B,666.4862920006271,Correct,sub_009_day_07_data.csv,1,300,55.0,Training at home,,,,,,,,,,,,,
9,7,1398,A,39.85681943141552,49.855061539423325,1.992840971570776,0.7831214753825969,A,1311.1158340034308,Correct,sub_009_day_07_data.csv,1,300,55.0,Training at home,,,,,,,,,,,,,
9,7,1399,A,50.47264647465437,71.55109290067927,2.5236323237327185,1.123921939065474,A,479.8325410083635,Correct,sub_009_day_07_data.csv,1,300,55.0,Training at home,,,,,,,,,,,,,
9,7,1400,B,47.50732411037288,25.43984508366762,2.375366205518644,0.399608152116563,B,569.6034169959603,Correct,sub_009_day_07_data.csv,1,300,56.0,Training at home,,,,,,,,,,,,,
9,7,1401,A,31.778096869723093,61.05791939273861,1.5889048434861548,0.959095555038527,A,478.8321249943692,Correct,sub_009_day_07_data.csv,1,300,56.0,Training at home,,,,,,,,,,,,,
9,7,1402,A,37.10806310258285,59.38731433832044,1.855403155129142,0.9328537522084764,A,1074.3974579963833,Correct,sub_009_day_07_data.csv,1,300,56.0,Training at home,,,,,,,,,,,,,
9,7,1403,A,30.90668738694948,53.96298312756983,1.545334369347474,0.8476485567968167,A,567.9935829975875,Correct,sub_009_day_07_data.csv,1,300,56.0,Training at home,,,,,,,,,,,,,
9,7,1404,B,49.65770701969994,41.040617584303234,2.482885350984997,0.6446645135081756,B,4847.682999999961,Correct,sub_009_day_07_data.csv,1,300,56.0,Training at home,,,,,,,,,,,,,
9,7,1405,B,45.991497772996865,29.328996430847617,2.2995748886498433,0.4606987986215606,B,720.3384160093265,Correct,sub_009_day_07_data.csv,1,300,56.0,Training at home,,,,,,,,,,,,,
9,7,1406,A,46.81882714061577,70.1911946620078,2.3409413570307884,1.102560707484274,A,464.1405420115916,Correct,sub_009_day_07_data.csv,1,300,56.0,Training at home,,,,,,,,,,,,,
9,7,1407,B,35.64903166904427,19.70354958881175,1.7824515834522134,0.3095026331892659,B,456.8594579905038,Correct,sub_009_day_07_data.csv,1,300,56.0,Training at home,,,,,,,,,,,,,
9,7,1408,A,34.82319902913214,57.59923469913122,1.741159951456607,0.9047666629159248,A,519.8419579974143,Correct,sub_009_day_07_data.csv,1,300,56.0,Training at home,,,,,,,,,,,,,
9,7,1409,B,70.36803937247079,58.77660135591928,3.5184019686235395,0.9232606951136594,B,722.247541998513,Correct,sub_009_day_07_data.csv,1,300,56.0,Training at home,,,,,,,,,,,,,
9,7,1410,B,70.68978100860164,39.35712707968982,3.534489050430082,0.6182203064997671,B,511.9020409911173,Correct,sub_009_day_07_data.csv,1,300,56.0,Training at home,,,,,,,,,,,,,
9,7,1411,B,69.28678236464073,58.762572284691274,3.4643391182320364,0.9230403269781264,B,1521.2354169925677,Correct,sub_009_day_07_data.csv,1,300,56.0,Training at home,,,,,,,,,,,,,
9,7,1412,A,28.508780378916462,45.65126527628667,1.4254390189458233,0.717088398095305,A,514.8364579945337,Correct,sub_009_day_07_data.csv,1,300,56.0,Training at home,,,,,,,,,,,,,
9,7,1413,B,79.92940467053235,58.32475596623551,3.996470233526617,0.9161631243297148,B,543.3313749963418,Correct,sub_009_day_07_data.csv,1,300,56.0,Training at home,,,,,,,,,,,,,
9,7,1414,A,64.33041755309263,84.67787225608649,3.2165208776546312,1.3301169070066814,A,489.8801250092219,Correct,sub_009_day_07_data.csv,1,300,56.0,Training at home,,,,,,,,,,,,,
9,7,1415,B,55.874306686314746,32.564603797627186,2.793715334315737,0.5115236002884392,B,527.1396250027465,Correct,sub_009_day_07_data.csv,1,300,56.0,Training at home,,,,,,,,,,,,,
9,7,1416,A,17.350495777911377,44.76029596429357,0.8675247888955688,0.7030930848696477,A,488.4148339915555,Correct,sub_009_day_07_data.csv,1,300,56.0,Training at home,,,,,,,,,,,,,
9,7,1417,B,83.49016232749013,57.630241828333915,4.174508116374506,0.9052537217624852,B,489.44983399997,Correct,sub_009_day_07_data.csv,1,300,56.0,Training at home,,,,,,,,,,,,,
9,7,1418,B,67.28080130052977,53.95625728680068,3.364040065026489,0.8475429075370687,B,468.037667000317,Correct,sub_009_day_07_data.csv,1,300,56.0,Training at home,,,,,,,,,,,,,
9,7,1419,B,67.76315803392411,37.31870487807068,3.388157901696206,0.5862008454321622,B,465.3401660034433,Correct,sub_009_day_07_data.csv,1,300,56.0,Training at home,,,,,,,,,,,,,
9,7,1420,B,42.17917804066451,25.553125646666945,2.1089589020332253,0.401387559039129,B,487.4512500100536,Correct,sub_009_day_07_data.csv,1,300,56.0,Training at home,,,,,,,,,,,,,
9,7,1421,A,61.42824182827901,73.9208470865894,3.0714120914139507,1.1611459507718187,A,580.6747080059722,Correct,sub_009_day_07_data.csv,1,300,56.0,Training at home,,,,,,,,,,,,,
9,7,1422,B,62.31881967429188,40.62558788116032,3.115940983714594,0.6381452421760989,B,454.5096670044586,Correct,sub_009_day_07_data.csv,1,300,56.0,Training at home,,,,,,,,,,,,,
9,7,1423,A,52.17879660686884,81.60762843714292,2.6089398303434423,1.2818896298750684,B,464.9681669980055,Incorrect,sub_009_day_07_data.csv,0,300,56.0,Training at home,,,,,,,,,,,,,
9,7,1424,A,58.89250615641379,75.39083628907372,2.944625307820689,1.184236487168724,A,693.2967920001829,Correct,sub_009_day_07_data.csv,1,300,56.0,Training at home,,,,,,,,,,,,,
9,7,1425,B,54.00809925529566,37.971322735900365,2.700404962764783,0.5964521427709584,B,531.4596670068568,Correct,sub_009_day_07_data.csv,1,300,57.0,Training at home,,,,,,,,,,,,,
9,7,1426,B,88.81848219871792,62.97903667197254,4.440924109935896,0.9892723946941556,B,686.0449999949196,Correct,sub_009_day_07_data.csv,1,300,57.0,Training at home,,,,,,,,,,,,,
9,7,1427,B,55.87749642607604,42.660113892204144,2.793874821303802,0.670103502025262,B,647.0745410042582,Correct,sub_009_day_07_data.csv,1,300,57.0,Training at home,,,,,,,,,,,,,
9,7,1428,A,43.168379362316315,58.98902010801043,2.158418968115816,0.926597361068931,A,1863.4361250005895,Correct,sub_009_day_07_data.csv,1,300,57.0,Training at home,,,,,,,,,,,,,
9,7,1429,B,39.1054729327268,29.45905402630064,1.95527364663634,0.4627417385536545,B,509.9295839900151,Correct,sub_009_day_07_data.csv,1,300,57.0,Training at home,,,,,,,,,,,,,
9,7,1430,B,55.90004603348631,42.29030237610005,2.7950023016743155,0.6642945163142343,B,866.2659160036128,Correct,sub_009_day_07_data.csv,1,300,57.0,Training at home,,,,,,,,,,,,,
9,7,1431,B,45.27291231426762,34.64769075663058,2.263645615713381,0.5442446537244081,B,576.6414160025306,Correct,sub_009_day_07_data.csv,1,300,57.0,Training at home,,,,,,,,,,,,,
9,7,1432,A,44.339778901416146,75.41749388288048,2.216988945070807,1.1846552236730523,A,724.8711249994813,Correct,sub_009_day_07_data.csv,1,300,57.0,Training at home,,,,,,,,,,,,,
9,7,1433,B,65.95105564096886,37.18212299862102,3.2975527820484434,0.5840554222866994,B,493.13470799825154,Correct,sub_009_day_07_data.csv,1,300,57.0,Training at home,,,,,,,,,,,,,
9,7,1434,B,46.37563302439197,25.29593491193824,2.3187816512195987,0.3973476164251536,B,590.3710419952404,Correct,sub_009_day_07_data.csv,1,300,57.0,Training at home,,,,,,,,,,,,,
9,7,1435,B,46.23920932504011,19.057476771114352,2.3119604662520055,0.2993541451004549,B,516.6380000009667,Correct,sub_009_day_07_data.csv,1,300,57.0,Training at home,,,,,,,,,,,,,
9,7,1436,B,61.37129238647013,32.42995680761152,3.0685646193235065,0.5094085703151332,B,1033.3729580015645,Correct,sub_009_day_07_data.csv,1,300,57.0,Training at home,,,,,,,,,,,,,
9,7,1437,B,55.43272429704489,26.167046357285823,2.7716362148522444,0.4110310030109635,B,647.9277500038734,Correct,sub_009_day_07_data.csv,1,300,57.0,Training at home,,,,,,,,,,,,,
9,7,1438,A,56.82984113441036,64.33704930887117,2.8414920567205177,1.0106040073119698,A,790.0029590091435,Correct,sub_009_day_07_data.csv,1,300,57.0,Training at home,,,,,,,,,,,,,
9,7,1439,A,66.7618889872956,79.4812343784885,3.3380944493647804,1.2484883101085398,A,494.8169170093024,Correct,sub_009_day_07_data.csv,1,300,57.0,Training at home,,,,,,,,,,,,,
9,7,1440,A,19.34177932023472,50.37841772059965,0.967088966011736,0.7913423350525686,A,555.9986250009388,Correct,sub_009_day_07_data.csv,1,300,57.0,Training at home,,,,,,,,,,,,,
9,7,1441,A,46.82644424463895,54.30243481836252,2.3413222122319475,0.8529806514870313,A,456.8058750010095,Correct,sub_009_day_07_data.csv,1,300,57.0,Training at home,,,,,,,,,,,,,
9,7,1442,A,59.37838992043298,85.05534928850125,2.968919496021649,1.3360463023663467,A,499.26500000583474,Correct,sub_009_day_07_data.csv,1,300,57.0,Training at home,,,,,,,,,,,,,
9,7,1443,A,61.88590366376637,72.67687713497995,3.0942951831883185,1.1416057164655051,A,452.9127499990864,Correct,sub_009_day_07_data.csv,1,300,57.0,Training at home,,,,,,,,,,,,,
9,7,1444,A,50.1308195505584,58.852143651180576,2.5065409775279197,0.9244473107128004,A,414.8211659921799,Correct,sub_009_day_07_data.csv,1,300,57.0,Training at home,,,,,,,,,,,,,
9,7,1445,A,67.71245813652001,85.7138522591001,3.3856229068260006,1.3463900428403488,A,409.940124998684,Correct,sub_009_day_07_data.csv,1,300,57.0,Training at home,,,,,,,,,,,,,
9,7,1446,B,67.94788627586843,45.793345066420656,3.3973943137934213,0.7193201822198476,B,560.9727499977453,Correct,sub_009_day_07_data.csv,1,300,57.0,Training at home,,,,,,,,,,,,,
9,7,1447,B,63.21936973890986,55.68202040673918,3.160968486945493,0.8746511312342438,B,603.875666987733,Correct,sub_009_day_07_data.csv,1,300,57.0,Training at home,,,,,,,,,,,,,
9,7,1448,B,61.202631804333635,50.89187268471343,3.060131590216682,0.7994076667686139,B,628.9969170029508,Correct,sub_009_day_07_data.csv,1,300,57.0,Training at home,,,,,,,,,,,,,
9,7,1449,A,53.60337495511552,64.2966273138322,2.680168747755776,1.0099690600986804,B,1091.4861249912065,Incorrect,sub_009_day_07_data.csv,0,300,57.0,Training at home,,,,,,,,,,,,,
9,7,1450,B,85.80037959405956,59.39297712655044,4.290018979702978,0.9329427030779874,B,574.321834006696,Correct,sub_009_day_07_data.csv,1,300,58.0,Training at home,,,,,,,,,,,,,
9,7,1451,A,25.86870570444294,38.276232670715565,1.2934352852221471,0.6012416568270682,A,2615.467333002016,Correct,sub_009_day_07_data.csv,1,300,58.0,Training at home,,,,,,,,,,,,,
9,7,1452,B,61.47794086453235,48.79781364128961,3.0738970432266175,0.7665142642335963,A,1671.9431249948684,Incorrect,sub_009_day_07_data.csv,0,300,58.0,Training at home,,,,,,,,,,,,,
9,7,1453,B,33.23278910630281,10.285207667373625,1.6616394553151406,0.1615596642423319,A,656.5463329898193,Incorrect,sub_009_day_07_data.csv,0,300,58.0,Training at home,,,,,,,,,,,,,
9,7,1454,B,72.38684067851337,59.77793299274536,3.619342033925668,0.9389895756839588,B,4374.5515839982545,Correct,sub_009_day_07_data.csv,1,300,58.0,Training at home,,,,,,,,,,,,,
9,7,1455,B,64.85742184884559,34.41198073609489,3.2428710924422797,0.5405421293799458,B,1075.0182079937076,Correct,sub_009_day_07_data.csv,1,300,58.0,Training at home,,,,,,,,,,,,,
9,7,1456,B,68.60937454946439,44.544154009799975,3.4304687274732197,0.6996979349877996,B,620.6297910102876,Correct,sub_009_day_07_data.csv,1,300,58.0,Training at home,,,,,,,,,,,,,
9,7,1457,A,59.67412266218804,85.92368104822756,2.983706133109402,1.3496860257525214,A,460.5167920090026,Correct,sub_009_day_07_data.csv,1,300,58.0,Training at home,,,,,,,,,,,,,
9,7,1458,B,71.0582234027136,57.82605890921681,3.5529111701356793,0.9083296092762309,B,749.8793749982724,Correct,sub_009_day_07_data.csv,1,300,58.0,Training at home,,,,,,,,,,,,,
9,7,1459,B,48.085471246744824,33.22751379731929,2.404273562337241,0.521936566213559,B,1322.3538339952938,Correct,sub_009_day_07_data.csv,1,300,58.0,Training at home,,,,,,,,,,,,,
9,7,1460,A,55.54450137264878,66.91533041969585,2.777225068632439,1.0511035522952503,A,1308.1190829980187,Correct,sub_009_day_07_data.csv,1,300,58.0,Training at home,,,,,,,,,,,,,
9,7,1461,A,28.194181577842233,59.2153809825204,1.4097090788921116,0.9301530293710342,A,1272.0323329995151,Correct,sub_009_day_07_data.csv,1,300,58.0,Training at home,,,,,,,,,,,,,
9,7,1462,A,12.680453861053962,36.44206233213295,0.6340226930526981,0.572430576521451,A,721.1550419888226,Correct,sub_009_day_07_data.csv,1,300,58.0,Training at home,,,,,,,,,,,,,
9,7,1463,A,13.505977241307232,41.70172046649777,0.6752988620653616,0.6550490932980226,A,599.3051249970449,Correct,sub_009_day_07_data.csv,1,300,58.0,Training at home,,,,,,,,,,,,,
9,7,1464,A,54.5275443713765,69.92127584770037,2.7263772185688246,1.0983208326638048,A,682.0150419953279,Correct,sub_009_day_07_data.csv,1,300,58.0,Training at home,,,,,,,,,,,,,
9,7,1465,A,27.470673434941578,48.60634330289848,1.3735336717470787,0.7635066551912467,A,1093.7783749977823,Correct,sub_009_day_07_data.csv,1,300,58.0,Training at home,,,,,,,,,,,,,
9,7,1466,B,72.40094449334205,43.32795187532965,3.6200472246671023,0.6805938765331386,B,611.0751250089379,Correct,sub_009_day_07_data.csv,1,300,58.0,Training at home,,,,,,,,,,,,,
9,7,1467,A,62.66845692733214,81.34202934129137,3.133422846366607,1.2777176090334317,A,609.1902909975033,Correct,sub_009_day_07_data.csv,1,300,58.0,Training at home,,,,,,,,,,,,,
9,7,1468,A,47.86380319056261,76.3451418255948,2.3931901595281304,1.1992266834827972,A,503.85758400079794,Correct,sub_009_day_07_data.csv,1,300,58.0,Training at home,,,,,,,,,,,,,
9,7,1469,B,43.89662289956013,25.77911787127686,2.1948311449780062,0.4049374366021437,B,449.4423340074718,Correct,sub_009_day_07_data.csv,1,300,58.0,Training at home,,,,,,,,,,,,,
9,7,1470,A,43.902759074748914,75.23515831159233,2.195137953737446,1.1817911032168178,A,504.9813749938039,Correct,sub_009_day_07_data.csv,1,300,58.0,Training at home,,,,,,,,,,,,,
9,7,1471,A,10.597441960239962,33.74773797973276,0.5298720980119981,0.5301082285620085,A,467.54495799541473,Correct,sub_009_day_07_data.csv,1,300,58.0,Training at home,,,,,,,,,,,,,
9,7,1472,B,48.83300656964101,41.00455404746158,2.4416503284820505,0.6440980287961546,B,1337.176000000909,Correct,sub_009_day_07_data.csv,1,300,58.0,Training at home,,,,,,,,,,,,,
9,7,1473,A,55.76452082493613,65.70646779117925,2.7882260412468067,1.0321147825305157,A,459.8479999986011,Correct,sub_009_day_07_data.csv,1,300,58.0,Training at home,,,,,,,,,,,,,
9,7,1474,B,70.66229546341918,49.293173442751616,3.533114773170959,0.7742953577993799,B,658.4823750017677,Correct,sub_009_day_07_data.csv,1,300,58.0,Training at home,,,,,,,,,,,,,
9,7,1475,A,43.386827058158154,55.50400279373124,2.169341352907908,0.8718548371080671,A,1266.007250000257,Correct,sub_009_day_07_data.csv,1,300,59.0,Training at home,,,,,,,,,,,,,
9,7,1476,B,66.35818450104384,56.40647171705918,3.317909225052192,0.8860307858061679,B,1479.71545800101,Correct,sub_009_day_07_data.csv,1,300,59.0,Training at home,,,,,,,,,,,,,
9,7,1477,B,57.31243796803549,36.60007004849251,2.8656218984017743,0.5749125559260794,B,559.042082997621,Correct,sub_009_day_07_data.csv,1,300,59.0,Training at home,,,,,,,,,,,,,
9,7,1478,B,49.655657788072226,41.36022604372995,2.4827828894036115,0.6496849114489762,B,669.8634579952341,Correct,sub_009_day_07_data.csv,1,300,59.0,Training at home,,,,,,,,,,,,,
9,7,1479,B,58.02145847032061,35.4673529084651,2.901072923516031,0.5571198766975527,B,547.5206249975599,Correct,sub_009_day_07_data.csv,1,300,59.0,Training at home,,,,,,,,,,,,,
9,7,1480,B,82.1604545719686,55.17250971531507,4.1080227285984305,0.8666477560087265,B,555.7711669971468,Correct,sub_009_day_07_data.csv,1,300,59.0,Training at home,,,,,,,,,,,,,
9,7,1481,A,62.53331762507034,75.58435908011447,3.1266658812535173,1.187276336061903,A,642.2821250016568,Correct,sub_009_day_07_data.csv,1,300,59.0,Training at home,,,,,,,,,,,,,
9,7,1482,A,36.092787935934375,44.65091961590879,1.804639396796719,0.7013750052068372,A,1054.917208006373,Correct,sub_009_day_07_data.csv,1,300,59.0,Training at home,,,,,,,,,,,,,
9,7,1483,A,16.164618350790484,46.30030163552266,0.8082309175395241,0.7272834373857473,A,469.4832500099438,Correct,sub_009_day_07_data.csv,1,300,59.0,Training at home,,,,,,,,,,,,,
9,7,1484,A,43.123637827873154,61.379964561195315,2.1561818913936577,0.9641542287152652,A,517.1145000058459,Correct,sub_009_day_07_data.csv,1,300,59.0,Training at home,,,,,,,,,,,,,
9,7,1485,A,50.09674278820842,74.8059322978752,2.5048371394104207,1.1750488367597007,A,504.60112499422394,Correct,sub_009_day_07_data.csv,1,300,59.0,Training at home,,,,,,,,,,,,,
9,7,1486,B,70.47663414169484,39.1469038219175,3.5238317070847422,0.614918127288611,B,595.2770000003511,Correct,sub_009_day_07_data.csv,1,300,59.0,Training at home,,,,,,,,,,,,,
9,7,1487,B,49.017694488410754,34.76443015741792,2.450884724420538,0.546078391943898,B,428.67558301077224,Correct,sub_009_day_07_data.csv,1,300,59.0,Training at home,,,,,,,,,,,,,
9,7,1488,B,61.094205191570275,37.762898580443554,3.054710259578514,0.5931782237928895,B,370.86066699703224,Correct,sub_009_day_07_data.csv,1,300,59.0,Training at home,,,,,,,,,,,,,
9,7,1489,B,32.11098310957968,19.402649070388293,1.6055491554789838,0.3047760988985634,B,518.8145830034046,Correct,sub_009_day_07_data.csv,1,300,59.0,Training at home,,,,,,,,,,,,,
9,7,1490,B,50.25577657697673,23.35842005523313,2.5127888288488363,0.3669132042249243,B,475.02587499911897,Correct,sub_009_day_07_data.csv,1,300,59.0,Training at home,,,,,,,,,,,,,
9,7,1491,A,50.5380539718484,59.019553971770215,2.52690269859242,0.927076985879298,B,4479.032249990269,Incorrect,sub_009_day_07_data.csv,0,300,59.0,Training at home,,,,,,,,,,,,,
9,7,1492,B,58.484557249838765,51.26539365803255,2.9242278624919384,0.8052749204973192,B,3007.147084004828,Correct,sub_009_day_07_data.csv,1,300,59.0,Training at home,,,,,,,,,,,,,
9,7,1493,B,49.03662441992958,38.43489615858216,2.451831220996479,0.6037339370664414,B,1147.2912919998637,Correct,sub_009_day_07_data.csv,1,300,59.0,Training at home,,,,,,,,,,,,,
9,7,1494,B,55.48876327678529,37.38372090990878,2.7744381638392643,0.5872221148721029,B,929.409709002357,Correct,sub_009_day_07_data.csv,1,300,59.0,Training at home,,,,,,,,,,,,,
9,7,1495,A,42.30326939621005,60.888436753890545,2.1151634698105024,0.9564333279729464,A,1154.7172499995213,Correct,sub_009_day_07_data.csv,1,300,59.0,Training at home,,,,,,,,,,,,,
9,7,1496,A,40.438425329758246,60.31123020285331,2.0219212664879125,0.947366588671234,A,461.5870410052594,Correct,sub_009_day_07_data.csv,1,300,59.0,Training at home,,,,,,,,,,,,,
9,7,1497,A,40.475228846511115,67.58916049977982,2.023761442325556,1.0616880504420485,A,432.22020799294114,Correct,sub_009_day_07_data.csv,1,300,59.0,Training at home,,,,,,,,,,,,,
9,7,1498,B,57.8422495517239,41.75713848869962,2.892112477586195,0.6559195975551516,B,1380.4777909972472,Correct,sub_009_day_07_data.csv,1,300,59.0,Training at home,,,,,,,,,,,,,
9,7,1499,A,54.258893300686694,69.43568248359348,2.7129446650343345,1.090693149937254,A,526.7068749963073,Correct,sub_009_day_07_data.csv,1,300,59.0,Training at home,,,,,,,,,,,,,
