subject,day,trial,cat,x,y,xt,yt,resp,rt,fb,f_name,acc,n_trials,block,session_type,ns_left_digit,ns_right_digit,ns_left_size,ns_right_size,ns_congruent,ns_cue,ns_correct_side,ns_resp,ns_rt,ns_fb,acc_stroop,acc_stroop_mean,resp_key
9,9,1800,A,49.16014252654186,64.89946467325757,2.458007126327093,1.0194384071970812,A,1531.4980410039425,Correct,sub_009_day_09_data.csv,1,300,72.0,Training at home,,,,,,,,,,,,,
9,9,1801,A,21.82644886925742,51.18791667867696,1.091322443462871,0.8040579149514897,A,766.8849990004674,Correct,sub_009_day_09_data.csv,1,300,72.0,Training at home,,,,,,,,,,,,,
9,9,1802,B,82.47437641429337,61.296344430846695,4.123718820714669,0.962840726779288,B,736.2881660228595,Correct,sub_009_day_09_data.csv,1,300,72.0,Training at home,,,,,,,,,,,,,
9,9,1803,B,48.87725317253925,28.50168661524983,2.4438626586269625,0.447703446426937,B,924.4234990037512,Correct,sub_009_day_09_data.csv,1,300,72.0,Training at home,,,,,,,,,,,,,
9,9,1804,B,70.9602745922715,50.21071843568773,3.548013729613575,0.7887081208451108,B,1073.7164159945678,Correct,sub_009_day_09_data.csv,1,300,72.0,Training at home,,,,,,,,,,,,,
9,9,1805,B,65.36738399721447,47.78311529291339,3.2683691998607234,0.7505754198492541,B,1051.6646239848342,Correct,sub_009_day_09_data.csv,1,300,72.0,Training at home,,,,,,,,,,,,,
9,9,1806,A,34.90072648035673,55.98115986320089,1.7450363240178364,0.8793500028283386,A,967.39587400225,Correct,sub_009_day_09_data.csv,1,300,72.0,Training at home,,,,,,,,,,,,,
9,9,1807,A,11.439765346018136,35.835964557023246,0.5719882673009067,0.5629100149332421,A,912.3717909969856,Correct,sub_009_day_09_data.csv,1,300,72.0,Training at home,,,,,,,,,,,,,
9,9,1808,A,40.66024201035449,55.894136902485265,2.0330121005177246,0.8779830493579492,A,918.3068740239833,Correct,sub_009_day_09_data.csv,1,300,72.0,Training at home,,,,,,,,,,,,,
9,9,1809,B,31.688170221730676,13.848786648143928,1.5844085110865338,0.2175362319747069,B,772.1725410083309,Correct,sub_009_day_09_data.csv,1,300,72.0,Training at home,,,,,,,,,,,,,
9,9,1810,A,46.097348703127246,68.8123214909072,2.3048674351563623,1.0809014183614656,A,850.1659160247073,Correct,sub_009_day_09_data.csv,1,300,72.0,Training at home,,,,,,,,,,,,,
9,9,1811,B,68.51487794845386,51.68363093692166,3.4257438974226933,0.8118445763113962,B,963.2773750054184,Correct,sub_009_day_09_data.csv,1,300,72.0,Training at home,,,,,,,,,,,,,
9,9,1812,A,33.63883800161509,60.58627565176672,1.6819419000807545,0.9516869924797824,A,772.4815410037991,Correct,sub_009_day_09_data.csv,1,300,72.0,Training at home,,,,,,,,,,,,,
9,9,1813,B,47.99747508009731,34.75831519107483,2.3998737540048656,0.545982338277196,B,1399.967998993816,Correct,sub_009_day_09_data.csv,1,300,72.0,Training at home,,,,,,,,,,,,,
9,9,1814,B,32.431043021800846,18.262767777170176,1.6215521510900424,0.2868708854148711,B,1329.730791010661,Correct,sub_009_day_09_data.csv,1,300,72.0,Training at home,,,,,,,,,,,,,
9,9,1815,B,77.62524055008052,64.73565600606655,3.881262027504026,1.0168653066698732,B,940.91008300893,Correct,sub_009_day_09_data.csv,1,300,72.0,Training at home,,,,,,,,,,,,,
9,9,1816,A,36.72343828668568,45.447404960657224,1.836171914334284,0.7138861677456053,A,825.1710820186418,Correct,sub_009_day_09_data.csv,1,300,72.0,Training at home,,,,,,,,,,,,,
9,9,1817,A,59.88005949769952,71.03640688201968,2.994002974884976,1.1158372699898422,A,1025.32683298341,Correct,sub_009_day_09_data.csv,1,300,72.0,Training at home,,,,,,,,,,,,,
9,9,1818,B,61.280966702459985,52.98697980062646,3.0640483351229992,0.8323175323877943,B,3605.2624580042902,Correct,sub_009_day_09_data.csv,1,300,72.0,Training at home,,,,,,,,,,,,,
9,9,1819,A,39.949864105860065,56.60507919004311,1.9974932052930032,0.8891505046965396,A,928.9225829998032,Correct,sub_009_day_09_data.csv,1,300,72.0,Training at home,,,,,,,,,,,,,
9,9,1820,A,53.90076840272673,78.34920771428925,2.6950384201363367,1.2307064768489593,A,887.4381660134532,Correct,sub_009_day_09_data.csv,1,300,72.0,Training at home,,,,,,,,,,,,,
9,9,1821,A,27.044273283847662,46.20282231104314,1.352213664192383,0.7257522357374385,A,893.2024579844438,Correct,sub_009_day_09_data.csv,1,300,72.0,Training at home,,,,,,,,,,,,,
9,9,1822,A,34.57372308110059,65.14971201229797,1.7286861540550291,1.02336928320663,A,1159.9202080105897,Correct,sub_009_day_09_data.csv,1,300,72.0,Training at home,,,,,,,,,,,,,
9,9,1823,B,77.60544228208771,59.35304042853952,3.8802721141043857,0.9323153788925886,B,678.626750013791,Correct,sub_009_day_09_data.csv,1,300,72.0,Training at home,,,,,,,,,,,,,
9,9,1824,A,56.44534021134155,70.26294947203567,2.822267010567078,1.1036878294044905,A,1023.5010829928796,Correct,sub_009_day_09_data.csv,1,300,72.0,Training at home,,,,,,,,,,,,,
9,9,1825,A,44.243163054277645,60.2000317205816,2.2121581527138825,0.9456198869962584,A,545.2767910028342,Correct,sub_009_day_09_data.csv,1,300,73.0,Training at home,,,,,,,,,,,,,
9,9,1826,B,57.630800794337546,30.34603531274275,2.8815400397168776,0.4766744080204452,B,677.3533329833299,Correct,sub_009_day_09_data.csv,1,300,73.0,Training at home,,,,,,,,,,,,,
9,9,1827,B,75.44854403638509,60.525990051657566,3.7724272018192546,0.9507400284876816,B,1909.0031660161912,Correct,sub_009_day_09_data.csv,1,300,73.0,Training at home,,,,,,,,,,,,,
9,9,1828,A,40.75549931604648,70.68887722772499,2.037774965802324,1.1103782869456584,A,821.9772910233587,Correct,sub_009_day_09_data.csv,1,300,73.0,Training at home,,,,,,,,,,,,,
9,9,1829,A,23.03218665261105,41.18482725362286,1.1516093326305523,0.6469297536967314,A,847.1410000056494,Correct,sub_009_day_09_data.csv,1,300,73.0,Training at home,,,,,,,,,,,,,
9,9,1830,B,30.951279045449837,10.961387496542413,1.5475639522724918,0.1721810721614432,B,1079.8139999969862,Correct,sub_009_day_09_data.csv,1,300,73.0,Training at home,,,,,,,,,,,,,
9,9,1831,B,54.3898152416555,28.309313602420296,2.719490762082774,0.444681658207666,B,960.53904099972,Correct,sub_009_day_09_data.csv,1,300,73.0,Training at home,,,,,,,,,,,,,
9,9,1832,B,65.75551230749763,36.46343601244081,3.287775615374881,0.5727663135066277,B,791.7452909750864,Correct,sub_009_day_09_data.csv,1,300,73.0,Training at home,,,,,,,,,,,,,
9,9,1833,B,58.76077263451605,50.88920182913811,2.9380386317258025,0.7993657130673428,B,895.4054570058361,Correct,sub_009_day_09_data.csv,1,300,73.0,Training at home,,,,,,,,,,,,,
9,9,1834,A,38.20432208423183,51.157504645413454,1.9102161042115915,0.8035802038500831,A,3693.220665998524,Correct,sub_009_day_09_data.csv,1,300,73.0,Training at home,,,,,,,,,,,,,
9,9,1835,A,23.641634821839567,48.02256046547807,1.1820817410919784,0.7543366158245877,A,1083.5538329847625,Correct,sub_009_day_09_data.csv,1,300,73.0,Training at home,,,,,,,,,,,,,
9,9,1836,B,43.388017844568395,31.801647200047935,2.1694008922284196,0.499539106078625,B,870.8655819937121,Correct,sub_009_day_09_data.csv,1,300,73.0,Training at home,,,,,,,,,,,,,
9,9,1837,A,12.629176322631857,30.387282272281183,0.6314588161315928,0.4773223137457896,A,766.3083740044385,Correct,sub_009_day_09_data.csv,1,300,73.0,Training at home,,,,,,,,,,,,,
9,9,1838,B,77.55196507451022,46.400992427853254,3.877598253725511,0.7288650846530971,B,1083.0495830159634,Correct,sub_009_day_09_data.csv,1,300,73.0,Training at home,,,,,,,,,,,,,
9,9,1839,B,56.61258570040656,37.02040746484526,2.8306292850203283,0.5815152006222931,B,1254.7124580014497,Correct,sub_009_day_09_data.csv,1,300,73.0,Training at home,,,,,,,,,,,,,
9,9,1840,A,41.883372752050306,59.524628806068634,2.0941686376025155,0.9350106828240228,A,884.3629159964621,Correct,sub_009_day_09_data.csv,1,300,73.0,Training at home,,,,,,,,,,,,,
9,9,1841,B,64.90584370250106,46.27672290542646,3.2452921851250527,0.7269130635594915,B,972.3005410050972,Correct,sub_009_day_09_data.csv,1,300,73.0,Training at home,,,,,,,,,,,,,
9,9,1842,A,59.26362130954198,85.90066814851473,2.9631810654770994,1.349324539969143,A,672.0617070095614,Correct,sub_009_day_09_data.csv,1,300,73.0,Training at home,,,,,,,,,,,,,
9,9,1843,A,28.87094191988376,45.36191669208547,1.443547095994188,0.7125433211630395,A,786.1372079933062,Correct,sub_009_day_09_data.csv,1,300,73.0,Training at home,,,,,,,,,,,,,
9,9,1844,B,72.02402881070273,42.6193939229796,3.6012014405351365,0.6694638742444109,B,891.9768320047297,Correct,sub_009_day_09_data.csv,1,300,73.0,Training at home,,,,,,,,,,,,,
9,9,1845,A,49.15002070712035,61.605243251959536,2.4575010353560174,0.9676928981148412,A,741.0151660151314,Correct,sub_009_day_09_data.csv,1,300,73.0,Training at home,,,,,,,,,,,,,
9,9,1846,B,79.29440543863588,60.65583512184152,3.9647202719317938,0.9527796300806554,B,909.5632499956992,Correct,sub_009_day_09_data.csv,1,300,73.0,Training at home,,,,,,,,,,,,,
9,9,1847,B,59.514936062586024,33.02056260804769,2.9757468031293013,0.5186857845342221,B,847.6597080007195,Correct,sub_009_day_09_data.csv,1,300,73.0,Training at home,,,,,,,,,,,,,
9,9,1848,B,39.50598278986343,17.18851169765185,1.9752991394931712,0.2699965103774264,B,856.2879580131266,Correct,sub_009_day_09_data.csv,1,300,73.0,Training at home,,,,,,,,,,,,,
9,9,1849,A,58.92504653809077,85.08271986457304,2.9462523269045384,1.3364762383699051,A,849.6829160139896,Correct,sub_009_day_09_data.csv,1,300,73.0,Training at home,,,,,,,,,,,,,
9,9,1850,A,48.227442324819975,60.90984183473786,2.4113721162409987,0.9567695581966436,A,1019.2254580033476,Correct,sub_009_day_09_data.csv,1,300,74.0,Training at home,,,,,,,,,,,,,
9,9,1851,A,41.86479149252162,50.18500743306499,2.093239574626081,0.7883042533603308,A,938.2942910015116,Correct,sub_009_day_09_data.csv,1,300,74.0,Training at home,,,,,,,,,,,,,
9,9,1852,B,36.87556937791549,17.217954622120278,1.8437784688957743,0.2704589987534774,B,1013.2138319895604,Correct,sub_009_day_09_data.csv,1,300,74.0,Training at home,,,,,,,,,,,,,
9,9,1853,B,70.25877480776876,60.59618708533934,3.512938740388438,0.9518426809142738,B,962.5701660115736,Correct,sub_009_day_09_data.csv,1,300,74.0,Training at home,,,,,,,,,,,,,
9,9,1854,B,75.51929365692561,50.11087568113774,3.775964682846281,0.7871397945240688,B,878.0788749863859,Correct,sub_009_day_09_data.csv,1,300,74.0,Training at home,,,,,,,,,,,,,
9,9,1855,A,36.05513812255845,59.09058571756736,1.8027569061279225,0.9281927499331378,A,834.5135830168147,Correct,sub_009_day_09_data.csv,1,300,74.0,Training at home,,,,,,,,,,,,,
9,9,1856,A,51.34014165661165,77.15455320870717,2.5670070828305827,1.2119408877573865,A,861.5912069799379,Correct,sub_009_day_09_data.csv,1,300,74.0,Training at home,,,,,,,,,,,,,
9,9,1857,B,77.74613664916656,49.86694504347301,3.887306832458328,0.7833081410277039,B,1074.7475830139592,Correct,sub_009_day_09_data.csv,1,300,74.0,Training at home,,,,,,,,,,,,,
9,9,1858,A,57.94037167717737,71.16297539075453,2.8970185838588685,1.1178254034759283,A,727.6555830030702,Correct,sub_009_day_09_data.csv,1,300,74.0,Training at home,,,,,,,,,,,,,
9,9,1859,A,57.82657076562368,69.15978715021312,2.891328538281184,1.0863593961747164,A,692.7792489877902,Correct,sub_009_day_09_data.csv,1,300,74.0,Training at home,,,,,,,,,,,,,
9,9,1860,A,24.243772525442953,37.141685516351565,1.2121886262721475,0.5834202318005626,A,703.300332010258,Correct,sub_009_day_09_data.csv,1,300,74.0,Training at home,,,,,,,,,,,,,
9,9,1861,B,76.22879207582434,52.18726649511137,3.811439603791217,0.8197556651598731,B,1106.9478740100749,Correct,sub_009_day_09_data.csv,1,300,74.0,Training at home,,,,,,,,,,,,,
9,9,1862,B,67.15861886429528,38.87141693270782,3.3579309432147637,0.6105907893521038,B,892.503790993942,Correct,sub_009_day_09_data.csv,1,300,74.0,Training at home,,,,,,,,,,,,,
9,9,1863,B,73.41378089415657,53.60302108459919,3.670689044707829,0.8419942862479781,B,993.6022910114845,Correct,sub_009_day_09_data.csv,1,300,74.0,Training at home,,,,,,,,,,,,,
9,9,1864,A,35.76079222488505,62.0091082474495,1.7880396112442525,0.974036794629208,A,845.2470820047893,Correct,sub_009_day_09_data.csv,1,300,74.0,Training at home,,,,,,,,,,,,,
9,9,1865,A,45.558183150233255,60.68670310186389,2.2779091575116626,0.9532645031770026,A,823.8498329883441,Correct,sub_009_day_09_data.csv,1,300,74.0,Training at home,,,,,,,,,,,,,
9,9,1866,A,38.38352690695744,58.24714126228402,1.9191763453478723,0.9149439554109918,A,759.7098329861183,Correct,sub_009_day_09_data.csv,1,300,74.0,Training at home,,,,,,,,,,,,,
9,9,1867,B,76.10008195222103,52.911766605160565,3.805004097611052,0.8311360862761509,B,916.8626239988952,Correct,sub_009_day_09_data.csv,1,300,74.0,Training at home,,,,,,,,,,,,,
9,9,1868,A,29.153638029569624,57.963623083327754,1.4576819014784812,0.910490462270151,A,740.7957910036203,Correct,sub_009_day_09_data.csv,1,300,74.0,Training at home,,,,,,,,,,,,,
9,9,1869,B,83.5104263161418,55.07760150544177,4.17552131580709,0.86515694133421,B,631.355290999636,Correct,sub_009_day_09_data.csv,1,300,74.0,Training at home,,,,,,,,,,,,,
9,9,1870,B,81.33305518830413,54.1691950908252,4.066652759415207,0.8508877267410437,B,836.7976660083514,Correct,sub_009_day_09_data.csv,1,300,74.0,Training at home,,,,,,,,,,,,,
9,9,1871,A,41.02901859976972,72.29757831892638,2.051450929988486,1.1356477045953592,A,1047.0928329741582,Correct,sub_009_day_09_data.csv,1,300,74.0,Training at home,,,,,,,,,,,,,
9,9,1872,A,14.31251255085699,30.239592115752632,0.7156256275428495,0.4750024021920014,A,727.5478740048129,Correct,sub_009_day_09_data.csv,1,300,74.0,Training at home,,,,,,,,,,,,,
9,9,1873,B,51.06332442144063,30.365579802395473,2.5531662210720314,0.4769814121460011,B,882.5109579775017,Correct,sub_009_day_09_data.csv,1,300,74.0,Training at home,,,,,,,,,,,,,
9,9,1874,A,32.4478094990253,59.173670601343595,1.622390474951265,0.9294978442356168,A,1016.8424579896964,Correct,sub_009_day_09_data.csv,1,300,74.0,Training at home,,,,,,,,,,,,,
9,9,1875,A,40.25169475884914,59.32223150336926,2.012584737942457,0.9318314334276891,A,873.5165410034824,Correct,sub_009_day_09_data.csv,1,300,75.0,Training at home,,,,,,,,,,,,,
9,9,1876,B,40.12674285066279,31.687546342393176,2.0063371425331393,0.4977468139977426,B,1141.238375013927,Correct,sub_009_day_09_data.csv,1,300,75.0,Training at home,,,,,,,,,,,,,
9,9,1877,A,36.98312420279037,63.020734488434385,1.849156210139518,0.9899273824634918,A,932.6860409928486,Correct,sub_009_day_09_data.csv,1,300,75.0,Training at home,,,,,,,,,,,,,
9,9,1878,A,33.64487309718018,45.90351970685195,1.682243654859009,0.721050801424802,A,764.6021239925176,Correct,sub_009_day_09_data.csv,1,300,75.0,Training at home,,,,,,,,,,,,,
9,9,1879,B,74.99557349753776,48.4292133048434,3.749778674876888,0.7607243036881455,B,1280.8761659835,Correct,sub_009_day_09_data.csv,1,300,75.0,Training at home,,,,,,,,,,,,,
9,9,1880,A,17.676882021119294,38.17659615393169,0.8838441010559648,0.5996765700812807,A,1156.1757500167005,Correct,sub_009_day_09_data.csv,1,300,75.0,Training at home,,,,,,,,,,,,,
9,9,1881,A,51.32592586531628,77.20595548337884,2.5662962932658138,1.2127483127998178,A,776.596082985634,Correct,sub_009_day_09_data.csv,1,300,75.0,Training at home,,,,,,,,,,,,,
9,9,1882,B,55.38001777506141,39.42995921374063,2.76900088875307,0.6193643509861637,B,1411.086166015593,Correct,sub_009_day_09_data.csv,1,300,75.0,Training at home,,,,,,,,,,,,,
9,9,1883,B,87.5846898821498,64.94920262019926,4.37923449410749,1.0202196890406647,B,798.3061250124592,Correct,sub_009_day_09_data.csv,1,300,75.0,Training at home,,,,,,,,,,,,,
9,9,1884,A,64.09180458409054,79.08344740174462,3.204590229204527,1.2422398868893787,A,1080.0690819742158,Correct,sub_009_day_09_data.csv,1,300,75.0,Training at home,,,,,,,,,,,,,
9,9,1885,B,51.773317382863155,33.84138250674923,2.588665869143158,0.5315791933526275,B,894.5922910061199,Correct,sub_009_day_09_data.csv,1,300,75.0,Training at home,,,,,,,,,,,,,
9,9,1886,B,81.82407166330196,60.62688264341186,4.091203583165099,0.9523248456129664,B,912.5271659868304,Correct,sub_009_day_09_data.csv,1,300,75.0,Training at home,,,,,,,,,,,,,
9,9,1887,B,39.81138494948608,16.60688678587668,1.9905692474743035,0.2608603676275379,B,1099.9513740243856,Correct,sub_009_day_09_data.csv,1,300,75.0,Training at home,,,,,,,,,,,,,
9,9,1888,B,46.79303816150063,22.467967988205217,2.339651908075032,0.3529260158641807,B,1309.49304101523,Correct,sub_009_day_09_data.csv,1,300,75.0,Training at home,,,,,,,,,,,,,
9,9,1889,B,62.98175770274837,32.85801086021652,3.1490878851374187,0.5161324276501493,B,1049.499999004183,Correct,sub_009_day_09_data.csv,1,300,75.0,Training at home,,,,,,,,,,,,,
9,9,1890,B,72.28589481602688,56.746110979503875,3.614294740801344,0.8913658268650024,B,3086.531623994233,Correct,sub_009_day_09_data.csv,1,300,75.0,Training at home,,,,,,,,,,,,,
9,9,1891,B,65.7627670013142,35.97542587526054,3.28813835006571,0.5651006681974132,B,2046.2808329903055,Correct,sub_009_day_09_data.csv,1,300,75.0,Training at home,,,,,,,,,,,,,
9,9,1892,B,58.97402187629204,28.721752842255608,2.948701093814602,0.4511602386372598,B,1705.7732909743208,Correct,sub_009_day_09_data.csv,1,300,75.0,Training at home,,,,,,,,,,,,,
9,9,1893,A,29.25047639071543,45.196502007972455,1.462523819535772,0.709944993381013,A,1228.3334160165396,Correct,sub_009_day_09_data.csv,1,300,75.0,Training at home,,,,,,,,,,,,,
9,9,1894,A,51.42927239108829,74.66918741135811,2.571463619554414,1.1729008531052103,A,1939.1805829945952,Correct,sub_009_day_09_data.csv,1,300,75.0,Training at home,,,,,,,,,,,,,
9,9,1895,B,43.36186731772693,23.100298756385182,2.168093365886347,0.3628586443439455,B,1260.3668739902787,Correct,sub_009_day_09_data.csv,1,300,75.0,Training at home,,,,,,,,,,,,,
9,9,1896,A,34.96715659032624,56.28543670347444,1.7483578295163118,0.8841295722586431,A,1037.1484990173485,Correct,sub_009_day_09_data.csv,1,300,75.0,Training at home,,,,,,,,,,,,,
9,9,1897,B,42.94224636168868,35.38527594988332,2.1471123180844343,0.5558306148470051,B,1100.2702080004383,Correct,sub_009_day_09_data.csv,1,300,75.0,Training at home,,,,,,,,,,,,,
9,9,1898,A,55.30134398050399,68.75504384866976,2.765067199025199,1.080001703261125,A,1075.3580830059946,Correct,sub_009_day_09_data.csv,1,300,75.0,Training at home,,,,,,,,,,,,,
9,9,1899,B,44.0209974600164,35.24811820757865,2.20104987300082,0.5536761460689686,B,1643.2105409912765,Correct,sub_009_day_09_data.csv,1,300,75.0,Training at home,,,,,,,,,,,,,
9,9,1900,B,41.82577701361082,24.422493726222093,2.091288850680541,0.3836276343632107,B,1030.9997069998644,Correct,sub_009_day_09_data.csv,1,300,76.0,Training at home,,,,,,,,,,,,,
9,9,1901,B,87.6415845821017,60.1190966223362,4.382079229105085,0.9443485614459318,B,1200.8410829876084,Correct,sub_009_day_09_data.csv,1,300,76.0,Training at home,,,,,,,,,,,,,
9,9,1902,B,48.021875993457336,41.158675837817576,2.401093799672867,0.646518968217857,B,1437.4647079966962,Correct,sub_009_day_09_data.csv,1,300,76.0,Training at home,,,,,,,,,,,,,
9,9,1903,B,70.72795704101136,40.53183978991359,3.536397852050568,0.636672650602355,B,1762.085249007214,Correct,sub_009_day_09_data.csv,1,300,76.0,Training at home,,,,,,,,,,,,,
9,9,1904,A,41.47573163197109,60.80879229601907,2.0737865815985543,0.9551822757542056,A,1121.4404990023468,Correct,sub_009_day_09_data.csv,1,300,76.0,Training at home,,,,,,,,,,,,,
9,9,1905,A,43.33364064415247,62.2236826279559,2.1666820322076235,0.9774073211164456,A,1264.7581660130527,Correct,sub_009_day_09_data.csv,1,300,76.0,Training at home,,,,,,,,,,,,,
9,9,1906,B,60.903181790710306,41.10725618156216,3.045159089535515,0.6457112701461465,B,1598.258749989327,Correct,sub_009_day_09_data.csv,1,300,76.0,Training at home,,,,,,,,,,,,,
9,9,1907,B,58.5958109561875,37.407871228009725,2.929790547809375,0.5876014671817417,B,1052.4098750029225,Correct,sub_009_day_09_data.csv,1,300,76.0,Training at home,,,,,,,,,,,,,
9,9,1908,B,79.22213548071738,54.28890362747789,3.961106774035869,0.8527681040376442,B,1166.4015410060529,Correct,sub_009_day_09_data.csv,1,300,76.0,Training at home,,,,,,,,,,,,,
9,9,1909,A,38.14134619050046,59.1145336734687,1.9070673095250228,0.9285689235447784,A,1626.988958014408,Correct,sub_009_day_09_data.csv,1,300,76.0,Training at home,,,,,,,,,,,,,
9,9,1910,A,17.991067375259714,37.27037048278544,0.8995533687629857,0.585441610526443,A,955.0868739897852,Correct,sub_009_day_09_data.csv,1,300,76.0,Training at home,,,,,,,,,,,,,
9,9,1911,A,17.607013455576663,39.23949852447038,0.8803506727788332,0.6163726014751183,A,916.1830829980318,Correct,sub_009_day_09_data.csv,1,300,76.0,Training at home,,,,,,,,,,,,,
9,9,1912,A,23.181149738707784,45.56678313219697,1.1590574869353891,0.7157613556791463,A,1058.9179990056437,Correct,sub_009_day_09_data.csv,1,300,76.0,Training at home,,,,,,,,,,,,,
9,9,1913,B,82.14521904017299,51.79223210434651,4.10726095200865,0.813550479460162,B,791.6932909865864,Correct,sub_009_day_09_data.csv,1,300,76.0,Training at home,,,,,,,,,,,,,
9,9,1914,A,26.876425817248325,58.53454389500059,1.3438212908624163,0.9194584654088156,A,1392.5948739924934,Correct,sub_009_day_09_data.csv,1,300,76.0,Training at home,,,,,,,,,,,,,
9,9,1915,B,66.57491970450955,47.06377912914368,3.3287459852254777,0.739276113811452,B,939.4565410038922,Correct,sub_009_day_09_data.csv,1,300,76.0,Training at home,,,,,,,,,,,,,
9,9,1916,B,66.55373679703246,39.986381549766065,3.327686839851623,0.6281046126019176,B,986.81899899384,Correct,sub_009_day_09_data.csv,1,300,76.0,Training at home,,,,,,,,,,,,,
9,9,1917,B,68.24549577176812,38.97205890574353,3.4122747885884057,0.6121716697677627,B,1241.9160829740576,Correct,sub_009_day_09_data.csv,1,300,76.0,Training at home,,,,,,,,,,,,,
9,9,1918,B,69.88515631256534,55.4380730728306,3.4942578156282673,0.8708192154738937,B,1311.7273750249296,Correct,sub_009_day_09_data.csv,1,300,76.0,Training at home,,,,,,,,,,,,,
9,9,1919,A,34.84788645267292,54.23960428726946,1.742394322633646,0.8519937118125159,A,1171.9183739915024,Correct,sub_009_day_09_data.csv,1,300,76.0,Training at home,,,,,,,,,,,,,
9,9,1920,B,47.96878389959464,28.925119954164956,2.398439194979732,0.4543547217610407,B,1484.778957994422,Correct,sub_009_day_09_data.csv,1,300,76.0,Training at home,,,,,,,,,,,,,
9,9,1921,A,26.86510513900288,53.7931581615267,1.343255256950144,0.8449809524682307,A,927.9401660023724,Correct,sub_009_day_09_data.csv,1,300,76.0,Training at home,,,,,,,,,,,,,
9,9,1922,B,89.50536431175931,66.04120446274551,4.475268215587965,1.0373728138719138,B,947.8674989950376,Correct,sub_009_day_09_data.csv,1,300,76.0,Training at home,,,,,,,,,,,,,
9,9,1923,A,60.124496060169136,84.56207750485915,3.0062248030084566,1.3282980073077808,A,925.7372079882772,Correct,sub_009_day_09_data.csv,1,300,76.0,Training at home,,,,,,,,,,,,,
9,9,1924,B,57.20169008777323,29.57581054672984,2.860084504388661,0.46457574568785,B,1456.1514160013758,Correct,sub_009_day_09_data.csv,1,300,76.0,Training at home,,,,,,,,,,,,,
9,9,1925,A,68.74530509545532,85.86170050528116,3.437265254772766,1.3487124376605917,A,981.4630829787347,Correct,sub_009_day_09_data.csv,1,300,77.0,Training at home,,,,,,,,,,,,,
9,9,1926,A,59.792654544535665,87.57500547762352,2.989632727226783,1.37562496923294,A,843.7385409779381,Correct,sub_009_day_09_data.csv,1,300,77.0,Training at home,,,,,,,,,,,,,
9,9,1927,B,41.699856634083055,29.08907254854992,2.084992831704153,0.4569300830913247,B,1159.344665997196,Correct,sub_009_day_09_data.csv,1,300,77.0,Training at home,,,,,,,,,,,,,
9,9,1928,B,62.43340647486438,37.5193340526129,3.121670323743219,0.5893523211363502,B,1025.6237080029678,Correct,sub_009_day_09_data.csv,1,300,77.0,Training at home,,,,,,,,,,,,,
9,9,1929,B,61.02796089926483,33.60890483857212,3.051398044963242,0.5279274426802831,B,745.6656659778673,Correct,sub_009_day_09_data.csv,1,300,77.0,Training at home,,,,,,,,,,,,,
9,9,1930,A,53.19749299243211,76.55712426996308,2.6598746496216057,1.2025564959323842,A,1928.1118740036616,Correct,sub_009_day_09_data.csv,1,300,77.0,Training at home,,,,,,,,,,,,,
9,9,1931,A,58.94750933486454,71.37312484933054,2.947375466743227,1.1211264234520195,A,1708.1237499951385,Correct,sub_009_day_09_data.csv,1,300,77.0,Training at home,,,,,,,,,,,,,
9,9,1932,B,39.04749472419576,21.8416988705038,1.952374736209788,0.343088603567476,B,865.810582996346,Correct,sub_009_day_09_data.csv,1,300,77.0,Training at home,,,,,,,,,,,,,
9,9,1933,B,66.87848567999966,35.40425277680933,3.3439242839999825,0.5561287021473011,B,842.81220799312,Correct,sub_009_day_09_data.csv,1,300,77.0,Training at home,,,,,,,,,,,,,
9,9,1934,A,20.833873474264337,43.93886057497899,1.0416936737132168,0.690190007947301,A,1437.0384159847165,Correct,sub_009_day_09_data.csv,1,300,77.0,Training at home,,,,,,,,,,,,,
9,9,1935,A,59.24036032715687,76.10406815756605,2.9620180163578436,1.195439907160532,A,1049.480665998999,Correct,sub_009_day_09_data.csv,1,300,77.0,Training at home,,,,,,,,,,,,,
9,9,1936,B,80.04027691086203,58.95618944691231,4.002013845543101,0.9260816582503392,B,864.6856239938643,Correct,sub_009_day_09_data.csv,1,300,77.0,Training at home,,,,,,,,,,,,,
9,9,1937,A,25.73397895542747,39.41801554127474,1.2866989477713735,0.6191767402177851,A,1497.9804159956984,Correct,sub_009_day_09_data.csv,1,300,77.0,Training at home,,,,,,,,,,,,,
9,9,1938,A,22.136892242360165,51.16986831673846,1.1068446121180082,0.8037744119451132,A,1056.3744569953997,Correct,sub_009_day_09_data.csv,1,300,77.0,Training at home,,,,,,,,,,,,,
9,9,1939,A,36.92488554895682,45.56475722316608,1.846244277447841,0.7157295327745051,A,2729.8968319955748,Correct,sub_009_day_09_data.csv,1,300,77.0,Training at home,,,,,,,,,,,,,
9,9,1940,A,56.34941548750814,80.37602298268983,2.817470774375407,1.262543616635914,A,1596.483040979365,Correct,sub_009_day_09_data.csv,1,300,77.0,Training at home,,,,,,,,,,,,,
9,9,1941,B,86.52242394576275,63.946349671056566,4.3261211972881375,1.004466911752377,B,889.414498989936,Correct,sub_009_day_09_data.csv,1,300,77.0,Training at home,,,,,,,,,,,,,
9,9,1942,B,53.47811508555313,35.29536849885749,2.6739057542776563,0.5544183519087765,B,1207.050707016606,Correct,sub_009_day_09_data.csv,1,300,77.0,Training at home,,,,,,,,,,,,,
9,9,1943,A,59.79783908790455,82.64743680709074,2.9898919543952274,1.2982229015559146,A,1499.5330820092931,Correct,sub_009_day_09_data.csv,1,300,77.0,Training at home,,,,,,,,,,,,,
9,9,1944,A,57.264039776217786,67.31113733046121,2.8632019888108893,1.057320872710753,A,1832.774832000723,Correct,sub_009_day_09_data.csv,1,300,77.0,Training at home,,,,,,,,,,,,,
9,9,1945,A,24.498987444882935,51.95841466566295,1.224949372244147,0.8161608690290945,A,1255.9801659954246,Correct,sub_009_day_09_data.csv,1,300,77.0,Training at home,,,,,,,,,,,,,
9,9,1946,A,42.296148508065706,55.2605525062064,2.114807425403286,0.8680307289340553,A,2504.626832989743,Correct,sub_009_day_09_data.csv,1,300,77.0,Training at home,,,,,,,,,,,,,
9,9,1947,B,80.03172472240195,65.2735811249537,4.001586236120097,1.0253150146782597,B,1319.739541009767,Correct,sub_009_day_09_data.csv,1,300,77.0,Training at home,,,,,,,,,,,,,
9,9,1948,A,46.541688488701666,67.93857817945296,2.3270844244350832,1.067176690519526,A,1017.5263329874724,Correct,sub_009_day_09_data.csv,1,300,77.0,Training at home,,,,,,,,,,,,,
9,9,1949,B,62.80306528992549,40.49072121539203,3.140153264496275,0.6360267615441398,B,1714.5056249864865,Correct,sub_009_day_09_data.csv,1,300,77.0,Training at home,,,,,,,,,,,,,
9,9,1950,A,54.79720654534482,68.38539377360881,2.739860327267241,1.0741952534600732,A,1445.3595409868285,Correct,sub_009_day_09_data.csv,1,300,78.0,Training at home,,,,,,,,,,,,,
9,9,1951,A,51.76932672433463,71.25034959422416,2.5884663362167317,1.1191978742545954,A,1260.4404999874532,Correct,sub_009_day_09_data.csv,1,300,78.0,Training at home,,,,,,,,,,,,,
9,9,1952,A,66.33184829390075,80.59330021517067,3.3165924146950374,1.2659565994226842,A,1515.042832994368,Correct,sub_009_day_09_data.csv,1,300,78.0,Training at home,,,,,,,,,,,,,
9,9,1953,B,44.26342874879653,34.474423049711305,2.213171437439826,0.5415229709485984,B,1100.395582994679,Correct,sub_009_day_09_data.csv,1,300,78.0,Training at home,,,,,,,,,,,,,
9,9,1954,A,41.385849822318285,53.807264106882585,2.069292491115914,0.8452025281397405,A,2124.8052500013728,Correct,sub_009_day_09_data.csv,1,300,78.0,Training at home,,,,,,,,,,,,,
9,9,1955,A,31.744818112849476,56.19275559783338,1.5872409056424737,0.8826737408556006,A,1108.9027489942964,Correct,sub_009_day_09_data.csv,1,300,78.0,Training at home,,,,,,,,,,,,,
9,9,1956,B,89.3798339733305,67.1592706248503,4.4689916986665255,1.0549353560773924,B,1466.6086659999564,Correct,sub_009_day_09_data.csv,1,300,78.0,Training at home,,,,,,,,,,,,,
9,9,1957,A,55.36171583943158,66.06584007565104,2.7680857919715787,1.0377597891745174,A,1295.537249010522,Correct,sub_009_day_09_data.csv,1,300,78.0,Training at home,,,,,,,,,,,,,
9,9,1958,B,74.4716081924644,64.3278175552705,3.72358040962322,1.0104589952655116,B,1458.8841660006435,Correct,sub_009_day_09_data.csv,1,300,78.0,Training at home,,,,,,,,,,,,,
9,9,1959,B,57.800545628716726,45.78228643587997,2.8900272814358363,0.7191464736575207,B,2227.6904579775874,Correct,sub_009_day_09_data.csv,1,300,78.0,Training at home,,,,,,,,,,,,,
9,9,1960,A,40.115737381445655,54.998235968761875,2.0057868690722827,0.863910270399301,A,1163.2390829909127,Correct,sub_009_day_09_data.csv,1,300,78.0,Training at home,,,,,,,,,,,,,
9,9,1961,A,47.441048389733474,73.41531651026632,2.372052419486674,1.1532050950481103,A,978.09791599866,Correct,sub_009_day_09_data.csv,1,300,78.0,Training at home,,,,,,,,,,,,,
9,9,1962,B,57.666730425046445,25.19936583483594,2.883336521252322,0.3958307129092111,B,986.9560829829423,Correct,sub_009_day_09_data.csv,1,300,78.0,Training at home,,,,,,,,,,,,,
9,9,1963,A,60.53919101888012,72.82969738994174,3.0269595509440057,1.1440062114170435,A,2255.314999987604,Correct,sub_009_day_09_data.csv,1,300,78.0,Training at home,,,,,,,,,,,,,
9,9,1964,B,61.18070025272592,36.20048487413316,3.059035012636296,0.5686358866848258,B,2201.316708000377,Correct,sub_009_day_09_data.csv,1,300,78.0,Training at home,,,,,,,,,,,,,
9,9,1965,A,34.99766932277661,67.75169720557561,1.7498834661388305,1.0642411710463824,A,1438.407500012545,Correct,sub_009_day_09_data.csv,1,300,78.0,Training at home,,,,,,,,,,,,,
9,9,1966,B,82.07000276589079,67.38486485059336,4.103500138294539,1.0584789818888256,B,963.451416027965,Correct,sub_009_day_09_data.csv,1,300,78.0,Training at home,,,,,,,,,,,,,
9,9,1967,A,15.560255434429603,43.4536435352453,0.7780127717214802,0.6825682365101812,A,1081.1543749878183,Correct,sub_009_day_09_data.csv,1,300,78.0,Training at home,,,,,,,,,,,,,
9,9,1968,B,54.09025488392295,39.53100824060172,2.7045127441961476,0.6209516253883597,B,1921.926915994845,Correct,sub_009_day_09_data.csv,1,300,78.0,Training at home,,,,,,,,,,,,,
9,9,1969,B,72.11939279360686,42.97365249314825,3.605969639680343,0.6750285548519763,B,1083.7585830013268,Correct,sub_009_day_09_data.csv,1,300,78.0,Training at home,,,,,,,,,,,,,
9,9,1970,B,63.184960186068885,39.88430015744851,3.159248009303444,0.6265011218410523,B,1879.585874004988,Correct,sub_009_day_09_data.csv,1,300,78.0,Training at home,,,,,,,,,,,,,
9,9,1971,A,30.661364444903747,39.99412142501146,1.5330682222451872,0.6282261902779708,A,1443.894415977411,Correct,sub_009_day_09_data.csv,1,300,78.0,Training at home,,,,,,,,,,,,,
9,9,1972,B,75.70963139603614,51.76525387297475,3.785481569801807,0.8131267063927402,B,6248.852749995422,Correct,sub_009_day_09_data.csv,1,300,78.0,Training at home,,,,,,,,,,,,,
9,9,1973,B,75.88509601361469,57.25611640453712,3.794254800680734,0.8993769733478795,B,1743.7187489995267,Correct,sub_009_day_09_data.csv,1,300,78.0,Training at home,,,,,,,,,,,,,
9,9,1974,A,32.37522268584684,43.09830458623036,1.618761134292342,0.676986585351383,A,1694.701125001302,Correct,sub_009_day_09_data.csv,1,300,78.0,Training at home,,,,,,,,,,,,,
9,9,1975,B,83.14824346901057,65.43913138653345,4.1574121734505285,1.0279154721061536,B,963.6917909956536,Correct,sub_009_day_09_data.csv,1,300,79.0,Training at home,,,,,,,,,,,,,
9,9,1976,A,51.51120620854535,70.40109314498463,2.5755603104272677,1.1058577851448723,A,838.9551239961293,Correct,sub_009_day_09_data.csv,1,300,79.0,Training at home,,,,,,,,,,,,,
9,9,1977,A,20.67737746171269,39.99928989673418,1.033868873085635,0.6283073764419427,A,1176.6075829800684,Correct,sub_009_day_09_data.csv,1,300,79.0,Training at home,,,,,,,,,,,,,
9,9,1978,A,60.1123437435034,85.62732764881079,3.00561718717517,1.345030917440151,A,913.3822910080198,Correct,sub_009_day_09_data.csv,1,300,79.0,Training at home,,,,,,,,,,,,,
9,9,1979,A,30.87492393500686,59.31887450662518,1.543746196750343,0.9317787018461426,A,770.4655000125058,Correct,sub_009_day_09_data.csv,1,300,79.0,Training at home,,,,,,,,,,,,,
9,9,1980,B,46.47387152889499,28.92141403584851,2.3236935764447493,0.454296509332252,B,651.261582999723,Correct,sub_009_day_09_data.csv,1,300,79.0,Training at home,,,,,,,,,,,,,
9,9,1981,A,55.765390585399814,68.78051930057768,2.7882695292699906,1.0804018707239291,A,824.8754570086021,Correct,sub_009_day_09_data.csv,1,300,79.0,Training at home,,,,,,,,,,,,,
9,9,1982,B,33.21156724457649,12.30888674990231,1.6605783622288246,0.1933475409368092,B,468.31700002076104,Correct,sub_009_day_09_data.csv,1,300,79.0,Training at home,,,,,,,,,,,,,
9,9,1983,A,29.90139085009895,62.4967144459762,1.4950695425049474,0.9816960948848896,A,535.1596660038922,Correct,sub_009_day_09_data.csv,1,300,79.0,Training at home,,,,,,,,,,,,,
9,9,1984,B,60.58400853530575,41.83912229358431,3.029200426765287,0.6572073961508471,B,493.2657500030473,Correct,sub_009_day_09_data.csv,1,300,79.0,Training at home,,,,,,,,,,,,,
9,9,1985,B,65.16305507924594,36.9158834233757,3.258152753962297,0.5798733408182717,B,471.7591240187176,Correct,sub_009_day_09_data.csv,1,300,79.0,Training at home,,,,,,,,,,,,,
9,9,1986,A,68.12026300266223,88.54752815697408,3.4060131501331115,1.3909013197574256,A,499.8263739980757,Correct,sub_009_day_09_data.csv,1,300,79.0,Training at home,,,,,,,,,,,,,
9,9,1987,A,54.32446019764571,66.5783812775113,2.716223009882286,1.0458107675466488,A,863.5544990247581,Correct,sub_009_day_09_data.csv,1,300,79.0,Training at home,,,,,,,,,,,,,
9,9,1988,A,14.986355849733991,41.17639549299421,0.7493177924866997,0.6467973079104924,A,544.5442489872221,Correct,sub_009_day_09_data.csv,1,300,79.0,Training at home,,,,,,,,,,,,,
9,9,1989,A,25.05499717273932,39.213316832946774,1.252749858636966,0.6159613404263728,A,1057.740124000702,Correct,sub_009_day_09_data.csv,1,300,79.0,Training at home,,,,,,,,,,,,,
9,9,1990,A,40.33831624458791,71.34181169103417,2.0169158122293953,1.1206345575116967,A,578.2546240079682,Correct,sub_009_day_09_data.csv,1,300,79.0,Training at home,,,,,,,,,,,,,
9,9,1991,B,68.6144600909943,43.49527425947532,3.430723004549715,0.6832221703972046,B,397.9804569971748,Correct,sub_009_day_09_data.csv,1,300,79.0,Training at home,,,,,,,,,,,,,
9,9,1992,A,21.333132832599212,49.87953545450763,1.0666566416299603,0.783505910741764,A,462.88050001021475,Correct,sub_009_day_09_data.csv,1,300,79.0,Training at home,,,,,,,,,,,,,
9,9,1993,A,15.181329552365913,38.6454124773584,0.7590664776182956,0.6070407196690824,A,713.0956659966614,Correct,sub_009_day_09_data.csv,1,300,79.0,Training at home,,,,,,,,,,,,,
9,9,1994,A,38.856354566398664,63.761451736377154,1.9428177283199333,1.0015625417861131,A,673.9754579903092,Correct,sub_009_day_09_data.csv,1,300,79.0,Training at home,,,,,,,,,,,,,
9,9,1995,B,87.13663168483583,64.70104976000476,4.3568315842417915,1.0163217130278932,B,472.846081975149,Correct,sub_009_day_09_data.csv,1,300,79.0,Training at home,,,,,,,,,,,,,
9,9,1996,A,50.270628595685686,65.10083567132824,2.513531429784284,1.0226015354380058,A,653.6055409815162,Correct,sub_009_day_09_data.csv,1,300,79.0,Training at home,,,,,,,,,,,,,
9,9,1997,A,10.95049567900589,35.968944960647946,0.5475247839502945,0.564998866228736,A,453.4120819880627,Correct,sub_009_day_09_data.csv,1,300,79.0,Training at home,,,,,,,,,,,,,
9,9,1998,B,57.79637838283205,25.368034264840425,2.8898189191416024,0.3984801504121841,B,397.87041599629447,Correct,sub_009_day_09_data.csv,1,300,79.0,Training at home,,,,,,,,,,,,,
9,9,1999,B,69.72089458457073,43.67911790354268,3.4860447292285364,0.6861099796052604,B,982.7089569880628,Correct,sub_009_day_09_data.csv,1,300,79.0,Training at home,,,,,,,,,,,,,
9,9,2000,A,39.39434418280764,62.14775629135239,1.969717209140382,0.9762146730100076,A,565.5937909905333,Correct,sub_009_day_09_data.csv,1,300,80.0,Training at home,,,,,,,,,,,,,
9,9,2001,B,62.04700677217776,52.41034897731467,3.102350338608888,0.8232598365960454,B,1356.5563740266953,Correct,sub_009_day_09_data.csv,1,300,80.0,Training at home,,,,,,,,,,,,,
9,9,2002,A,12.338602821268855,37.5451535313416,0.6169301410634429,0.5897578925598183,A,478.18120699957944,Correct,sub_009_day_09_data.csv,1,300,80.0,Training at home,,,,,,,,,,,,,
9,9,2003,A,21.530921584428743,39.770139754716794,1.0765460792214372,0.6247078944282883,A,438.8004579814151,Correct,sub_009_day_09_data.csv,1,300,80.0,Training at home,,,,,,,,,,,,,
9,9,2004,B,75.43312458613072,51.18105861495509,3.771656229306536,0.8039501887384575,B,439.3065830226987,Correct,sub_009_day_09_data.csv,1,300,80.0,Training at home,,,,,,,,,,,,,
9,9,2005,B,55.85676736011422,28.183636500943216,2.7928383680057105,0.4427075269140417,B,582.0058319950476,Correct,sub_009_day_09_data.csv,1,300,80.0,Training at home,,,,,,,,,,,,,
9,9,2006,B,42.88714709166687,21.645522441274363,2.144357354583343,0.3400070714231027,B,850.153166014934,Correct,sub_009_day_09_data.csv,1,300,80.0,Training at home,,,,,,,,,,,,,
9,9,2007,B,69.45934461825185,42.89455869699251,3.4729672309125927,0.6737861524072393,B,679.431458003819,Correct,sub_009_day_09_data.csv,1,300,80.0,Training at home,,,,,,,,,,,,,
9,9,2008,B,55.52496469763973,23.611311494882884,2.776248234881986,0.3708856136697215,B,745.3471659973729,Correct,sub_009_day_09_data.csv,1,300,80.0,Training at home,,,,,,,,,,,,,
9,9,2009,A,30.96360439205492,50.95345540890557,1.548180219602746,0.8003750059381641,A,625.3268750151619,Correct,sub_009_day_09_data.csv,1,300,80.0,Training at home,,,,,,,,,,,,,
9,9,2010,B,53.15349457256483,31.01541322004561,2.6576747286282414,0.4871889716007351,B,1051.3118329981808,Correct,sub_009_day_09_data.csv,1,300,80.0,Training at home,,,,,,,,,,,,,
9,9,2011,A,20.113727031479435,42.48567046669445,1.0056863515739718,0.6673633511050205,A,730.9963739826344,Correct,sub_009_day_09_data.csv,1,300,80.0,Training at home,,,,,,,,,,,,,
9,9,2012,B,88.90729292298951,68.7173810873004,4.445364646149476,1.0794100979889656,B,643.5639579722192,Correct,sub_009_day_09_data.csv,1,300,80.0,Training at home,,,,,,,,,,,,,
9,9,2013,B,42.113326196892814,29.714510676329667,2.105666309844641,0.4667544422288637,B,862.0227909996174,Correct,sub_009_day_09_data.csv,1,300,80.0,Training at home,,,,,,,,,,,,,
9,9,2014,A,17.554612765889843,45.401125061204525,0.8777306382944922,0.713159204784958,A,889.3874160130508,Correct,sub_009_day_09_data.csv,1,300,80.0,Training at home,,,,,,,,,,,,,
9,9,2015,A,32.33910358215276,57.48025721626245,1.6169551791076378,0.9028977689853092,A,1013.0018740019297,Correct,sub_009_day_09_data.csv,1,300,80.0,Training at home,,,,,,,,,,,,,
9,9,2016,A,11.21381715209316,32.874402883399256,0.560690857604658,0.516389912948191,A,736.3107489945833,Correct,sub_009_day_09_data.csv,1,300,80.0,Training at home,,,,,,,,,,,,,
9,9,2017,A,61.44548780574847,76.08353989569461,3.072274390287424,1.195117449977101,A,949.479708011495,Correct,sub_009_day_09_data.csv,1,300,80.0,Training at home,,,,,,,,,,,,,
9,9,2018,A,47.11879285455528,67.19318729048604,2.355939642727764,1.0554681178153698,A,864.823416020954,Correct,sub_009_day_09_data.csv,1,300,80.0,Training at home,,,,,,,,,,,,,
9,9,2019,A,10.983926058603595,32.35101045208642,0.5491963029301798,0.5081684838624065,A,755.1423739932943,Correct,sub_009_day_09_data.csv,1,300,80.0,Training at home,,,,,,,,,,,,,
9,9,2020,B,65.21508810542929,34.132247931206365,3.2607544052714643,0.5361480967559167,B,769.2492909845896,Correct,sub_009_day_09_data.csv,1,300,80.0,Training at home,,,,,,,,,,,,,
9,9,2021,B,55.53393134162637,30.101843313477225,2.776696567081318,0.4728386490656554,B,828.1847489997745,Correct,sub_009_day_09_data.csv,1,300,80.0,Training at home,,,,,,,,,,,,,
9,9,2022,B,37.09943802039794,20.392726540972987,1.854971901019897,0.3203281994389316,B,875.6297490035649,Correct,sub_009_day_09_data.csv,1,300,80.0,Training at home,,,,,,,,,,,,,
9,9,2023,B,77.2981614700416,45.35711368841762,3.86490807350208,0.7124678757578492,B,914.2160410119686,Correct,sub_009_day_09_data.csv,1,300,80.0,Training at home,,,,,,,,,,,,,
9,9,2024,A,12.101960761742747,31.85891432387635,0.6050980380871374,0.5004386559561829,A,855.3932079812512,Correct,sub_009_day_09_data.csv,1,300,80.0,Training at home,,,,,,,,,,,,,
9,9,2025,B,54.91450658395768,36.08650129798589,2.745725329197884,0.5668454368575551,B,1039.2639159981627,Correct,sub_009_day_09_data.csv,1,300,81.0,Training at home,,,,,,,,,,,,,
9,9,2026,A,14.534509662980687,43.78154256363192,0.7267254831490345,0.6877188624036744,A,767.709998995997,Correct,sub_009_day_09_data.csv,1,300,81.0,Training at home,,,,,,,,,,,,,
9,9,2027,B,86.24382587120998,64.29858017901815,4.312191293560499,1.0099997356332884,B,663.0012500099838,Correct,sub_009_day_09_data.csv,1,300,81.0,Training at home,,,,,,,,,,,,,
9,9,2028,A,26.936920148480137,39.900705981516666,1.3468460074240067,0.6267588239228954,A,799.1453750000801,Correct,sub_009_day_09_data.csv,1,300,81.0,Training at home,,,,,,,,,,,,,
9,9,2029,B,83.29032887546855,65.72970541869847,4.164516443773428,1.0324797983300216,B,713.9334579987917,Correct,sub_009_day_09_data.csv,1,300,81.0,Training at home,,,,,,,,,,,,,
9,9,2030,B,48.76238095629319,28.341638740747975,2.4381190478146597,0.4451894202931485,B,736.1089159967378,Correct,sub_009_day_09_data.csv,1,300,81.0,Training at home,,,,,,,,,,,,,
9,9,2031,A,33.49609152889887,66.29471171427589,1.6748045764449435,1.0413548964671118,A,667.7019160124473,Correct,sub_009_day_09_data.csv,1,300,81.0,Training at home,,,,,,,,,,,,,
9,9,2032,B,41.2600402785224,22.26815424243746,2.06300201392612,0.3497873488852295,B,559.188332001213,Correct,sub_009_day_09_data.csv,1,300,81.0,Training at home,,,,,,,,,,,,,
9,9,2033,B,54.04502548167349,45.123197403375954,2.7022512740836744,0.7087935273446396,B,641.1469989980105,Correct,sub_009_day_09_data.csv,1,300,81.0,Training at home,,,,,,,,,,,,,
9,9,2034,A,45.421517489549686,57.69780818300052,2.271075874477484,0.9063150515797374,A,964.6939579979517,Correct,sub_009_day_09_data.csv,1,300,81.0,Training at home,,,,,,,,,,,,,
9,9,2035,B,78.5811072457691,53.22976712700435,3.929055362288455,0.8361312267924615,B,1088.3492489811033,Correct,sub_009_day_09_data.csv,1,300,81.0,Training at home,,,,,,,,,,,,,
9,9,2036,B,59.76416259506341,47.383127500544774,2.98820812975317,0.7442924262990998,B,1117.785748996539,Correct,sub_009_day_09_data.csv,1,300,81.0,Training at home,,,,,,,,,,,,,
9,9,2037,A,36.41925348207785,58.71575897752668,1.820962674103893,0.9223049852687336,A,961.4847910124809,Correct,sub_009_day_09_data.csv,1,300,81.0,Training at home,,,,,,,,,,,,,
9,9,2038,A,29.536953508856413,38.81714149618893,1.4768476754428206,0.6097382327889131,A,2785.362290975172,Correct,sub_009_day_09_data.csv,1,300,81.0,Training at home,,,,,,,,,,,,,
9,9,2039,B,40.64396646639804,13.9722956809981,2.032198323319902,0.2194763073260401,B,651.0057490086183,Correct,sub_009_day_09_data.csv,1,300,81.0,Training at home,,,,,,,,,,,,,
9,9,2040,B,67.54357644399425,59.26598809978694,3.3771788221997125,0.9309479641101536,B,2178.899499005638,Correct,sub_009_day_09_data.csv,1,300,81.0,Training at home,,,,,,,,,,,,,
9,9,2041,B,79.03698701191124,54.83016249266409,3.951849350595562,0.8612701784104405,B,694.2411249910947,Correct,sub_009_day_09_data.csv,1,300,81.0,Training at home,,,,,,,,,,,,,
9,9,2042,B,60.282327715123074,45.651970641205274,3.0141163857561537,0.7170994779415371,B,928.930790978484,Correct,sub_009_day_09_data.csv,1,300,81.0,Training at home,,,,,,,,,,,,,
9,9,2043,A,50.012486881052965,58.702437011506824,2.500624344052648,0.922095724315837,A,1286.4636250014885,Correct,sub_009_day_09_data.csv,1,300,81.0,Training at home,,,,,,,,,,,,,
9,9,2044,B,86.34788854646666,65.16766759662728,4.317394427323333,1.0236513288657294,B,735.3432500094641,Correct,sub_009_day_09_data.csv,1,300,81.0,Training at home,,,,,,,,,,,,,
9,9,2045,A,44.49590122225166,74.6448989455563,2.224795061112583,1.1725193307765611,A,886.4454990252852,Correct,sub_009_day_09_data.csv,1,300,81.0,Training at home,,,,,,,,,,,,,
9,9,2046,A,15.863477056165909,36.19846691412104,0.7931738528082954,0.5686041886430793,A,852.9808739840519,Correct,sub_009_day_09_data.csv,1,300,81.0,Training at home,,,,,,,,,,,,,
9,9,2047,A,23.22351181927509,45.43413542152054,1.1611755909637544,0.7136777303122636,A,874.435458012158,Correct,sub_009_day_09_data.csv,1,300,81.0,Training at home,,,,,,,,,,,,,
9,9,2048,A,55.905024670044085,81.81976302342399,2.7952512335022046,1.285221832164233,A,1072.5560819846578,Correct,sub_009_day_09_data.csv,1,300,81.0,Training at home,,,,,,,,,,,,,
9,9,2049,A,43.53937520599081,52.82283379285727,2.17696876029954,0.8297391329271752,A,1417.0650409942027,Correct,sub_009_day_09_data.csv,1,300,81.0,Training at home,,,,,,,,,,,,,
9,9,2050,B,47.2237765184118,29.181587188411857,2.36118882592059,0.4583832996560236,B,859.749750001356,Correct,sub_009_day_09_data.csv,1,300,82.0,Training at home,,,,,,,,,,,,,
9,9,2051,A,26.48983099298906,37.206641369161346,1.3244915496494531,0.5844405559505368,A,1794.43637499935,Correct,sub_009_day_09_data.csv,1,300,82.0,Training at home,,,,,,,,,,,,,
9,9,2052,B,67.39602730023459,58.634200357504085,3.36980136501173,0.9210238654612344,B,922.7605409978424,Correct,sub_009_day_09_data.csv,1,300,82.0,Training at home,,,,,,,,,,,,,
9,9,2053,A,38.69666586180346,71.22064390546574,1.934833293090173,1.118731258386729,A,1090.8895820030011,Correct,sub_009_day_09_data.csv,1,300,82.0,Training at home,,,,,,,,,,,,,
9,9,2054,A,44.360606513537554,62.62805127758105,2.2180303256768776,0.9837591290114672,A,1339.1336659842636,Correct,sub_009_day_09_data.csv,1,300,82.0,Training at home,,,,,,,,,,,,,
9,9,2055,B,55.05193218597698,39.76255021826107,2.7525966092988488,0.624588678268421,B,988.3724990068004,Correct,sub_009_day_09_data.csv,1,300,82.0,Training at home,,,,,,,,,,,,,
9,9,2056,B,74.26489698619147,59.88999752149046,3.7132448493095738,0.9407498811851266,B,806.4896239957307,Correct,sub_009_day_09_data.csv,1,300,82.0,Training at home,,,,,,,,,,,,,
9,9,2057,B,47.19911002320114,21.674002496776662,2.3599555011600573,0.340454435088802,B,720.1974159979727,Correct,sub_009_day_09_data.csv,1,300,82.0,Training at home,,,,,,,,,,,,,
9,9,2058,A,58.7975587087944,73.52417976273934,2.9398779354397195,1.1549151150191863,A,1001.8640409980436,Correct,sub_009_day_09_data.csv,1,300,82.0,Training at home,,,,,,,,,,,,,
9,9,2059,B,38.22023276378347,12.67819228065344,1.9110116381891735,0.1991485786484983,B,730.6347500125412,Correct,sub_009_day_09_data.csv,1,300,82.0,Training at home,,,,,,,,,,,,,
9,9,2060,A,64.74456716675262,81.20756746903686,3.237228358337631,1.2756054868831184,A,845.4568329907488,Correct,sub_009_day_09_data.csv,1,300,82.0,Training at home,,,,,,,,,,,,,
9,9,2061,B,82.13308570037067,63.76902034852082,4.106654285018533,1.001681429267655,B,889.0141660231166,Correct,sub_009_day_09_data.csv,1,300,82.0,Training at home,,,,,,,,,,,,,
9,9,2062,B,48.72344867399346,38.975467821204504,2.436172433699673,0.6122252168866072,B,1470.8907080057545,Correct,sub_009_day_09_data.csv,1,300,82.0,Training at home,,,,,,,,,,,,,
9,9,2063,B,49.818256779179,24.61286711888905,2.49091283895895,0.386618012622418,B,826.140541001223,Correct,sub_009_day_09_data.csv,1,300,82.0,Training at home,,,,,,,,,,,,,
9,9,2064,A,25.641752526399877,57.778546254422075,1.2820876263199938,0.9075832822399522,A,855.4909569793381,Correct,sub_009_day_09_data.csv,1,300,82.0,Training at home,,,,,,,,,,,,,
9,9,2065,A,59.64909624096653,84.93685704784862,2.982454812048326,1.3341850306026382,A,901.1099160125012,Correct,sub_009_day_09_data.csv,1,300,82.0,Training at home,,,,,,,,,,,,,
9,9,2066,B,50.16627138464847,21.044116257299276,2.508313569232423,0.3305602051761047,B,576.9339580147061,Correct,sub_009_day_09_data.csv,1,300,82.0,Training at home,,,,,,,,,,,,,
9,9,2067,A,31.34850812826999,51.03292295002698,1.5674254064134996,0.8016232791550936,A,749.8121660028119,Correct,sub_009_day_09_data.csv,1,300,82.0,Training at home,,,,,,,,,,,,,
9,9,2068,A,38.917605401524206,62.35902957143693,1.9458802700762103,0.9795333459330746,A,843.151666020276,Correct,sub_009_day_09_data.csv,1,300,82.0,Training at home,,,,,,,,,,,,,
9,9,2069,A,51.85339594833624,80.03252087646942,2.592669797416812,1.2571478981689403,A,1051.1077500123065,Correct,sub_009_day_09_data.csv,1,300,82.0,Training at home,,,,,,,,,,,,,
9,9,2070,A,55.32661016944492,63.65651092963609,2.7663305084722456,0.9999141354485156,A,1031.988500006264,Correct,sub_009_day_09_data.csv,1,300,82.0,Training at home,,,,,,,,,,,,,
9,9,2071,B,76.63994045258084,49.80932582091562,3.831997022629042,0.7824030603962444,B,864.023250003811,Correct,sub_009_day_09_data.csv,1,300,82.0,Training at home,,,,,,,,,,,,,
9,9,2072,B,47.01254202446135,26.512525061765736,2.350627101223067,0.4164577698107926,B,886.910873989109,Correct,sub_009_day_09_data.csv,1,300,82.0,Training at home,,,,,,,,,,,,,
9,9,2073,B,63.0664854457796,55.463137806169144,3.15332427228898,0.8712129313844965,B,1246.0895410040391,Correct,sub_009_day_09_data.csv,1,300,82.0,Training at home,,,,,,,,,,,,,
9,9,2074,A,32.76949785264593,42.196412083669905,1.6384748926322965,0.6628196910495247,A,1193.9864580053836,Correct,sub_009_day_09_data.csv,1,300,82.0,Training at home,,,,,,,,,,,,,
9,9,2075,B,68.52369093518385,40.647520356856965,3.4261845467591923,0.6384897566987171,B,822.1220410196111,Correct,sub_009_day_09_data.csv,1,300,83.0,Training at home,,,,,,,,,,,,,
9,9,2076,B,49.45224888702594,26.06495674679205,2.472612444351297,0.409427383159288,B,727.084874000866,Correct,sub_009_day_09_data.csv,1,300,83.0,Training at home,,,,,,,,,,,,,
9,9,2077,A,29.98421688696761,51.42360448782728,1.4992108443483805,0.8077600904003265,A,982.7449159929528,Correct,sub_009_day_09_data.csv,1,300,83.0,Training at home,,,,,,,,,,,,,
9,9,2078,A,52.09378566610069,80.22071289805842,2.6046892833050346,1.2601040115313815,A,845.9324580035172,Correct,sub_009_day_09_data.csv,1,300,83.0,Training at home,,,,,,,,,,,,,
9,9,2079,B,68.288281476564,48.92960236306632,3.4144140738282,0.7685843966343946,B,893.3516250108369,Correct,sub_009_day_09_data.csv,1,300,83.0,Training at home,,,,,,,,,,,,,
9,9,2080,B,69.45224276823167,54.69800142861765,3.4726121384115833,0.8591941972709461,B,850.6919159844983,Correct,sub_009_day_09_data.csv,1,300,83.0,Training at home,,,,,,,,,,,,,
9,9,2081,A,60.73121758870261,83.86962496511971,3.03656087943513,1.317420988248756,A,930.3879160142968,Correct,sub_009_day_09_data.csv,1,300,83.0,Training at home,,,,,,,,,,,,,
9,9,2082,A,51.731857044909574,80.3664235910016,2.586592852245479,1.262392829743881,A,988.423665985465,Correct,sub_009_day_09_data.csv,1,300,83.0,Training at home,,,,,,,,,,,,,
9,9,2083,A,61.8766601817938,85.42474425271142,3.0938330090896904,1.3418487448955254,A,1268.6022070120089,Correct,sub_009_day_09_data.csv,1,300,83.0,Training at home,,,,,,,,,,,,,
9,9,2084,B,62.16970237479464,36.884612269803746,3.108485118739732,0.579382134686617,B,817.1703739790246,Correct,sub_009_day_09_data.csv,1,300,83.0,Training at home,,,,,,,,,,,,,
9,9,2085,B,52.68103835140102,42.66674034321456,2.6340519175700514,0.6702075900743305,B,1421.6751659987494,Correct,sub_009_day_09_data.csv,1,300,83.0,Training at home,,,,,,,,,,,,,
9,9,2086,B,45.47529639178949,31.18705004940563,2.273764819589475,0.4898850366117497,B,745.1638329948764,Correct,sub_009_day_09_data.csv,1,300,83.0,Training at home,,,,,,,,,,,,,
9,9,2087,A,59.47830924800313,82.76564685455287,2.9739154624001567,1.3000797406393525,A,824.3484159756918,Correct,sub_009_day_09_data.csv,1,300,83.0,Training at home,,,,,,,,,,,,,
9,9,2088,A,30.0819198612117,59.447935380692385,1.5040959930605848,0.9338059853153196,A,1042.6211239828262,Correct,sub_009_day_09_data.csv,1,300,83.0,Training at home,,,,,,,,,,,,,
9,9,2089,B,75.38013751876842,54.79954893181715,3.7690068759384214,0.8607893017211556,B,755.8946239878424,Correct,sub_009_day_09_data.csv,1,300,83.0,Training at home,,,,,,,,,,,,,
9,9,2090,A,62.75713879818015,88.61642195217344,3.1378569399090077,1.391983500961807,A,770.6053750007413,Correct,sub_009_day_09_data.csv,1,300,83.0,Training at home,,,,,,,,,,,,,
9,9,2091,B,63.56580373873783,56.13997713439066,3.1782901869368914,0.8818446986905033,B,1111.638498987304,Correct,sub_009_day_09_data.csv,1,300,83.0,Training at home,,,,,,,,,,,,,
9,9,2092,B,76.9232985612797,58.04189330308664,3.8461649280639847,0.911719928007098,B,790.3923740086611,Correct,sub_009_day_09_data.csv,1,300,83.0,Training at home,,,,,,,,,,,,,
9,9,2093,A,34.99886146337724,49.346650791652216,1.749943073168862,0.7751353780315777,A,1236.4697489829268,Correct,sub_009_day_09_data.csv,1,300,83.0,Training at home,,,,,,,,,,,,,
9,9,2094,A,35.53663021018551,49.11150739718093,1.7768315105092751,0.7714417542285219,A,914.1239160089754,Correct,sub_009_day_09_data.csv,1,300,83.0,Training at home,,,,,,,,,,,,,
9,9,2095,B,42.331351242402334,32.479303428580394,2.1165675621201165,0.5101837052247097,B,807.3329160106368,Correct,sub_009_day_09_data.csv,1,300,83.0,Training at home,,,,,,,,,,,,,
9,9,2096,A,53.609402587094365,68.173343502861,2.680470129354718,1.0708643755962075,A,921.5466660098172,Correct,sub_009_day_09_data.csv,1,300,83.0,Training at home,,,,,,,,,,,,,
9,9,2097,B,69.00078922395727,48.40693019107078,3.4500394611978633,0.7603742813555097,B,862.1831659984309,Correct,sub_009_day_09_data.csv,1,300,83.0,Training at home,,,,,,,,,,,,,
9,9,2098,B,45.63195888590872,17.228621906775807,2.2815979442954357,0.2706265600690152,B,944.2737070203292,Correct,sub_009_day_09_data.csv,1,300,83.0,Training at home,,,,,,,,,,,,,
9,9,2099,B,49.609156943031465,39.553119855462526,2.4804578471515732,0.6212989538223882,B,1178.011999989394,Correct,sub_009_day_09_data.csv,1,300,83.0,Training at home,,,,,,,,,,,,,
