subject,day,trial,cat,x,y,xt,yt,resp,rt,fb,f_name,acc,n_trials,block,session_type,ns_left_digit,ns_right_digit,ns_left_size,ns_right_size,ns_congruent,ns_cue,ns_correct_side,ns_resp,ns_rt,ns_fb,acc_stroop,acc_stroop_mean,resp_key
9,2,0,B,64.19783180081126,43.213290190975904,3.2098915900405633,0.6787927750070689,A,2020.5789580068083,Incorrect,sub_009_day_02_data.csv,0,300,0.0,Training at home,,,,,,,,,,,,,
9,2,1,A,61.5644987441408,77.0940539108431,3.07822493720704,1.2109905670088008,B,1164.2843330046162,Incorrect,sub_009_day_02_data.csv,0,300,0.0,Training at home,,,,,,,,,,,,,
9,2,2,B,79.66386136518418,55.104697872897866,3.983193068259209,0.8655825700789052,B,3134.454708022531,Correct,sub_009_day_02_data.csv,1,300,0.0,Training at home,,,,,,,,,,,,,
9,2,3,A,16.086702096492317,41.864156596599386,0.8043351048246159,0.6576006340630466,A,664.4061660044827,Correct,sub_009_day_02_data.csv,1,300,0.0,Training at home,,,,,,,,,,,,,
9,2,4,A,63.09009436084288,75.01061179316015,3.154504718042144,1.1782639347533392,B,1657.030082977144,Incorrect,sub_009_day_02_data.csv,0,300,0.0,Training at home,,,,,,,,,,,,,
9,2,5,A,33.84738495299207,57.91434154733476,1.6923692476496035,0.9097163497129852,A,643.5987080039922,Correct,sub_009_day_02_data.csv,1,300,0.0,Training at home,,,,,,,,,,,,,
9,2,6,A,35.593928497628234,50.4179687440536,1.7796964248814118,0.7919636010761929,A,631.4712080056779,Correct,sub_009_day_02_data.csv,1,300,0.0,Training at home,,,,,,,,,,,,,
9,2,7,A,57.626313807423,80.38565298953732,2.8813156903711503,1.262694884429744,B,995.9846660203766,Incorrect,sub_009_day_02_data.csv,0,300,0.0,Training at home,,,,,,,,,,,,,
9,2,8,A,67.19937075787502,82.5235695265916,3.359968537893751,1.2962771988637334,A,2272.4880410241894,Correct,sub_009_day_02_data.csv,1,300,0.0,Training at home,,,,,,,,,,,,,
9,2,9,B,61.102955915616946,45.75433818044107,3.055147795780847,0.7187074634876832,B,850.4839170200285,Correct,sub_009_day_02_data.csv,1,300,0.0,Training at home,,,,,,,,,,,,,
9,2,10,B,79.87520308915438,65.91702886392599,3.993760154457719,1.0354222681268814,A,3452.5784580037,Incorrect,sub_009_day_02_data.csv,0,300,0.0,Training at home,,,,,,,,,,,,,
9,2,11,A,12.541344784684128,32.09776581864443,0.6270672392342064,0.5041905264624946,A,473.55391600285657,Correct,sub_009_day_02_data.csv,1,300,0.0,Training at home,,,,,,,,,,,,,
9,2,12,B,46.16938017402733,30.103741132422392,2.308469008701366,0.4728684599359353,B,2383.5682500211988,Correct,sub_009_day_02_data.csv,1,300,0.0,Training at home,,,,,,,,,,,,,
9,2,13,A,55.00578037102062,81.46651404985393,2.750289018551031,1.279673010262954,A,730.9151669905987,Correct,sub_009_day_02_data.csv,1,300,0.0,Training at home,,,,,,,,,,,,,
9,2,14,B,39.25630022107998,21.238635031311485,1.962815011053999,0.3336156989332149,B,973.137458000565,Correct,sub_009_day_02_data.csv,1,300,0.0,Training at home,,,,,,,,,,,,,
9,2,15,A,50.069288057564506,80.24250435402804,2.503464402878225,1.2604463109213075,A,893.3647910016589,Correct,sub_009_day_02_data.csv,1,300,0.0,Training at home,,,,,,,,,,,,,
9,2,16,B,42.87088190352048,17.45053775196648,2.1435440951760243,0.2741124060138462,B,587.880083010532,Correct,sub_009_day_02_data.csv,1,300,0.0,Training at home,,,,,,,,,,,,,
9,2,17,B,36.94677360497844,18.377532933651302,1.8473386802489216,0.2886736122773171,B,674.5068329910282,Correct,sub_009_day_02_data.csv,1,300,0.0,Training at home,,,,,,,,,,,,,
9,2,18,A,55.924556605046305,76.66310013453293,2.796227830252315,1.2042211609203366,A,685.0677490001544,Correct,sub_009_day_02_data.csv,1,300,0.0,Training at home,,,,,,,,,,,,,
9,2,19,B,65.0393649274624,37.64201142121657,3.2519682463731203,0.5912793327361854,B,6080.355249985587,Correct,sub_009_day_02_data.csv,1,300,0.0,Training at home,,,,,,,,,,,,,
9,2,20,A,54.335091356681694,67.11313235501456,2.716754567834085,1.0542106178295658,A,1272.284667007625,Correct,sub_009_day_02_data.csv,1,300,0.0,Training at home,,,,,,,,,,,,,
9,2,21,A,57.41994300423569,86.06335268667013,2.8709971502117844,1.351879982718751,A,627.5407490029465,Correct,sub_009_day_02_data.csv,1,300,0.0,Training at home,,,,,,,,,,,,,
9,2,22,A,53.827871245222845,74.24409888485071,2.6913935622611422,1.1662235781452055,A,603.0768330092542,Correct,sub_009_day_02_data.csv,1,300,0.0,Training at home,,,,,,,,,,,,,
9,2,23,B,47.33476381492591,35.88471658816748,2.366738190746295,0.5636758100476937,B,3268.840041011572,Correct,sub_009_day_02_data.csv,1,300,0.0,Training at home,,,,,,,,,,,,,
9,2,24,A,32.35488510646253,55.87937572939736,1.6177442553231265,0.8777511813932926,A,741.5029169933405,Correct,sub_009_day_02_data.csv,1,300,0.0,Training at home,,,,,,,,,,,,,
9,2,25,A,21.43654237007671,47.11464612725124,1.0718271185038355,0.7400751307492764,A,607.7136670064647,Correct,sub_009_day_02_data.csv,1,300,1.0,Training at home,,,,,,,,,,,,,
9,2,26,B,47.63195186072178,28.564937051602197,2.381597593036089,0.4486969819578417,B,2111.105417017825,Correct,sub_009_day_02_data.csv,1,300,1.0,Training at home,,,,,,,,,,,,,
9,2,27,A,21.189676287134645,41.796970148448466,1.0594838143567322,0.656545271803388,B,2223.0523739999626,Incorrect,sub_009_day_02_data.csv,0,300,1.0,Training at home,,,,,,,,,,,,,
9,2,28,B,74.16674662148668,57.13965878105496,3.7083373310743344,0.8975476612759489,B,7126.130290998844,Correct,sub_009_day_02_data.csv,1,300,1.0,Training at home,,,,,,,,,,,,,
9,2,29,B,64.95737979105168,36.46641849758514,3.247868989552584,0.572813162273722,B,789.224790991284,Correct,sub_009_day_02_data.csv,1,300,1.0,Training at home,,,,,,,,,,,,,
9,2,30,A,45.66390118897567,56.38940705911647,2.283195059448784,0.8857627347860236,B,6669.406250002794,Incorrect,sub_009_day_02_data.csv,0,300,1.0,Training at home,,,,,,,,,,,,,
9,2,31,A,26.256933498013616,54.62998097916652,1.3128466749006806,0.8581257345494984,A,559.5770000072662,Correct,sub_009_day_02_data.csv,1,300,1.0,Training at home,,,,,,,,,,,,,
9,2,32,B,83.21988902395854,54.398473535971014,4.1609944511979275,0.8544892241355266,B,1075.4766660102175,Correct,sub_009_day_02_data.csv,1,300,1.0,Training at home,,,,,,,,,,,,,
9,2,33,A,54.558176779041816,62.03447803470732,2.7279088389520907,0.9744353023155696,B,831.8663329991978,Incorrect,sub_009_day_02_data.csv,0,300,1.0,Training at home,,,,,,,,,,,,,
9,2,34,A,50.98932918644364,74.51349306328014,2.549466459322182,1.1704552120045744,A,931.236083008116,Correct,sub_009_day_02_data.csv,1,300,1.0,Training at home,,,,,,,,,,,,,
9,2,35,B,47.28427144144459,32.09863508910481,2.3642135720722295,0.5042041809309562,B,1443.471332982881,Correct,sub_009_day_02_data.csv,1,300,1.0,Training at home,,,,,,,,,,,,,
9,2,36,A,21.15232261464119,50.57958652098324,1.0576161307320595,0.7945022871796513,B,8942.746374988928,Incorrect,sub_009_day_02_data.csv,0,300,1.0,Training at home,,,,,,,,,,,,,
9,2,37,B,71.42712424346838,43.48704720184701,3.571356212173419,0.6830929400781757,B,688.6950829939451,Correct,sub_009_day_02_data.csv,1,300,1.0,Training at home,,,,,,,,,,,,,
9,2,38,B,34.25479866485713,13.005970066800357,1.7127399332428563,0.2042973000733437,B,1167.7527920110151,Correct,sub_009_day_02_data.csv,1,300,1.0,Training at home,,,,,,,,,,,,,
9,2,39,B,71.59983484134644,47.083626957503114,3.5799917420673215,0.7395878827702705,B,1037.3283739900216,Correct,sub_009_day_02_data.csv,1,300,1.0,Training at home,,,,,,,,,,,,,
9,2,40,A,58.81373858409913,83.38855918954867,2.9406869292049564,1.309864424716619,A,854.1422080015764,Correct,sub_009_day_02_data.csv,1,300,1.0,Training at home,,,,,,,,,,,,,
9,2,41,A,17.507312043778143,41.26622337517897,0.8753656021889071,0.6482083209842882,A,660.6103329977486,Correct,sub_009_day_02_data.csv,1,300,1.0,Training at home,,,,,,,,,,,,,
9,2,42,B,51.98862382880717,42.32225200613303,2.599431191440358,0.6647963799292171,B,1553.4715410030913,Correct,sub_009_day_02_data.csv,1,300,1.0,Training at home,,,,,,,,,,,,,
9,2,43,A,62.58269175709073,80.51795212949904,3.1291345878545367,1.264773034460644,A,991.2379999877884,Correct,sub_009_day_02_data.csv,1,300,1.0,Training at home,,,,,,,,,,,,,
9,2,44,B,54.409219306799706,26.19395602773426,2.7204609653399854,0.4114536991259201,B,1047.7546240144875,Correct,sub_009_day_02_data.csv,1,300,1.0,Training at home,,,,,,,,,,,,,
9,2,45,A,27.752934816318017,40.59681947419997,1.387646740815901,0.6376933490962884,B,1634.483291010838,Incorrect,sub_009_day_02_data.csv,0,300,1.0,Training at home,,,,,,,,,,,,,
9,2,46,B,44.36400945029267,20.575807804813188,2.218200472514633,0.3232040332063831,B,796.9302910205442,Correct,sub_009_day_02_data.csv,1,300,1.0,Training at home,,,,,,,,,,,,,
9,2,47,B,52.48477208339919,43.12157996449475,2.62423860416996,0.6773521941382076,B,1231.9476660049986,Correct,sub_009_day_02_data.csv,1,300,1.0,Training at home,,,,,,,,,,,,,
9,2,48,A,47.478026799968056,75.76882571595256,2.373901339998403,1.1901739312018098,A,598.5439159849193,Correct,sub_009_day_02_data.csv,1,300,1.0,Training at home,,,,,,,,,,,,,
9,2,49,A,60.81092648037734,74.82834594768251,3.040546324018867,1.1754009095475746,A,1272.2669990034774,Correct,sub_009_day_02_data.csv,1,300,1.0,Training at home,,,,,,,,,,,,,
9,2,50,B,59.87320783981383,35.4521294348831,2.9936603919906917,0.556880746933716,B,695.025416003773,Correct,sub_009_day_02_data.csv,1,300,2.0,Training at home,,,,,,,,,,,,,
9,2,51,B,55.374162435555576,40.76239553906972,2.768708121777779,0.640294211841314,B,729.1351659805514,Correct,sub_009_day_02_data.csv,1,300,2.0,Training at home,,,,,,,,,,,,,
9,2,52,B,55.45081893701058,36.44182406001327,2.772540946850529,0.5724268337517472,B,920.5481249955484,Correct,sub_009_day_02_data.csv,1,300,2.0,Training at home,,,,,,,,,,,,,
9,2,53,B,42.97593739598853,18.4366779009079,2.148796869799426,0.2896026592504677,B,753.687083022669,Correct,sub_009_day_02_data.csv,1,300,2.0,Training at home,,,,,,,,,,,,,
9,2,54,B,49.26228627103982,38.035556082753,2.463114313551991,0.5974611178238969,B,2037.768332986161,Correct,sub_009_day_02_data.csv,1,300,2.0,Training at home,,,,,,,,,,,,,
9,2,55,B,67.04381769808741,40.56487799802848,3.3521908849043704,0.6371916135618625,B,1309.945292014163,Correct,sub_009_day_02_data.csv,1,300,2.0,Training at home,,,,,,,,,,,,,
9,2,56,A,63.107019022782296,72.72307057867397,3.155350951139115,1.142331321382271,A,1480.7553330028895,Correct,sub_009_day_02_data.csv,1,300,2.0,Training at home,,,,,,,,,,,,,
9,2,57,A,36.68682777867543,51.32440446095582,1.8343413889337712,0.8062018600220501,A,1620.453625015216,Correct,sub_009_day_02_data.csv,1,300,2.0,Training at home,,,,,,,,,,,,,
9,2,58,B,68.53869906297058,37.77323284710435,3.426934953148529,0.5933405540739985,B,2202.051999978721,Correct,sub_009_day_02_data.csv,1,300,2.0,Training at home,,,,,,,,,,,,,
9,2,59,A,14.19478190469421,37.20831192805037,0.7097390952347105,0.5844667970282025,A,1757.1360830042977,Correct,sub_009_day_02_data.csv,1,300,2.0,Training at home,,,,,,,,,,,,,
9,2,60,A,29.70522310136652,40.42709040281744,1.485261155068326,0.6350272510775086,A,707.5585419952404,Correct,sub_009_day_02_data.csv,1,300,2.0,Training at home,,,,,,,,,,,,,
9,2,61,A,40.069804009180075,56.27107130037838,2.003490200459004,0.8839039210344808,A,728.7880829826463,Correct,sub_009_day_02_data.csv,1,300,2.0,Training at home,,,,,,,,,,,,,
9,2,62,A,46.36473176060589,67.52169528486155,2.3182365880302944,1.060628309324248,A,1682.5179580191616,Correct,sub_009_day_02_data.csv,1,300,2.0,Training at home,,,,,,,,,,,,,
9,2,63,B,37.294410775362905,20.361465135643023,1.8647205387681456,0.3198371464323041,B,1513.8280829996802,Correct,sub_009_day_02_data.csv,1,300,2.0,Training at home,,,,,,,,,,,,,
9,2,64,B,76.42900508366601,60.5685555475085,3.8214502541833006,0.95140864573299,B,3139.812333014561,Correct,sub_009_day_02_data.csv,1,300,2.0,Training at home,,,,,,,,,,,,,
9,2,65,B,51.28255279170491,26.783946977293056,2.5641276395852457,0.420721255290012,B,1683.344541990664,Correct,sub_009_day_02_data.csv,1,300,2.0,Training at home,,,,,,,,,,,,,
9,2,66,B,62.52082486363227,51.41103461491576,3.126041243181614,0.8075626432983496,B,907.166374992812,Correct,sub_009_day_02_data.csv,1,300,2.0,Training at home,,,,,,,,,,,,,
9,2,67,A,23.09760823714511,51.87499173081321,1.1548804118572555,0.8148504646327702,A,3386.74054099829,Correct,sub_009_day_02_data.csv,1,300,2.0,Training at home,,,,,,,,,,,,,
9,2,68,B,60.231696584815595,45.38886121838261,3.01158482924078,0.7129665647923874,B,987.04291600734,Correct,sub_009_day_02_data.csv,1,300,2.0,Training at home,,,,,,,,,,,,,
9,2,69,B,62.78000948805333,38.560878367297605,3.1390004744026663,0.6057128609733586,B,622.4721659964416,Correct,sub_009_day_02_data.csv,1,300,2.0,Training at home,,,,,,,,,,,,,
9,2,70,B,38.73254080107351,20.718393639657727,1.936627040053676,0.325443766262651,B,1038.8491659832653,Correct,sub_009_day_02_data.csv,1,300,2.0,Training at home,,,,,,,,,,,,,
9,2,71,A,21.623033898047023,43.352754319548865,1.0811516949023514,0.6809834724158894,A,5390.774958010297,Correct,sub_009_day_02_data.csv,1,300,2.0,Training at home,,,,,,,,,,,,,
9,2,72,A,46.33217178121054,62.803176552678686,2.316608589060527,0.9865099903999904,A,2655.331165995449,Correct,sub_009_day_02_data.csv,1,300,2.0,Training at home,,,,,,,,,,,,,
9,2,73,B,53.52292054594336,33.77590108632476,2.676146027297168,0.5305506136058669,B,2074.311875010608,Correct,sub_009_day_02_data.csv,1,300,2.0,Training at home,,,,,,,,,,,,,
9,2,74,B,72.52773520509385,41.15739593716024,3.626386760254692,0.646498863585345,B,729.7418740054127,Correct,sub_009_day_02_data.csv,1,300,2.0,Training at home,,,,,,,,,,,,,
9,2,75,B,85.35867675491575,65.59950741425804,4.267933837745788,1.0304346528587112,B,1398.5297080071175,Correct,sub_009_day_02_data.csv,1,300,3.0,Training at home,,,,,,,,,,,,,
9,2,76,B,73.42700592459441,58.561434622920274,3.6713502962297206,0.9198808639752264,A,4200.04933301243,Incorrect,sub_009_day_02_data.csv,0,300,3.0,Training at home,,,,,,,,,,,,,
9,2,77,B,59.580734318363774,51.22333489994048,2.9790367159181885,0.8046142630701136,B,1190.916042018216,Correct,sub_009_day_02_data.csv,1,300,3.0,Training at home,,,,,,,,,,,,,
9,2,78,A,18.15505580024404,40.83424458436824,0.907752790012202,0.6414228140057002,A,724.2018329852726,Correct,sub_009_day_02_data.csv,1,300,3.0,Training at home,,,,,,,,,,,,,
9,2,79,B,61.84153018969212,54.46151377099677,3.0920765094846057,0.855479457831714,A,3944.0662920242175,Incorrect,sub_009_day_02_data.csv,0,300,3.0,Training at home,,,,,,,,,,,,,
9,2,80,A,62.07975554122807,74.47746373526059,3.1039877770614033,1.1698892646434744,B,777.4297920113895,Incorrect,sub_009_day_02_data.csv,0,300,3.0,Training at home,,,,,,,,,,,,,
9,2,81,A,68.37691073422477,87.10022145401146,3.4188455367112387,1.3681670792298326,A,738.2364159857389,Correct,sub_009_day_02_data.csv,1,300,3.0,Training at home,,,,,,,,,,,,,
9,2,82,A,60.190907067101165,69.1948081504487,3.0095453533550587,1.086909504760024,A,582.5354990083724,Correct,sub_009_day_02_data.csv,1,300,3.0,Training at home,,,,,,,,,,,,,
9,2,83,B,40.211263117380135,17.42061185423444,2.0105631558690065,0.2736423311115109,B,3941.069499996957,Correct,sub_009_day_02_data.csv,1,300,3.0,Training at home,,,,,,,,,,,,,
9,2,84,B,61.50448035000271,53.70464324897317,3.0752240175001355,0.843590563473174,A,6908.312667015707,Incorrect,sub_009_day_02_data.csv,0,300,3.0,Training at home,,,,,,,,,,,,,
9,2,85,B,64.15819624982602,33.46789183026929,3.207909812491301,0.5257124155255593,B,790.3727490047459,Correct,sub_009_day_02_data.csv,1,300,3.0,Training at home,,,,,,,,,,,,,
9,2,86,A,16.567238571829204,37.47234715244988,0.8283619285914603,0.5886142526345147,A,723.840457998449,Correct,sub_009_day_02_data.csv,1,300,3.0,Training at home,,,,,,,,,,,,,
9,2,87,A,43.07801585411664,62.39798131914909,2.153900792705832,0.9801451985553596,A,1098.8503330154344,Correct,sub_009_day_02_data.csv,1,300,3.0,Training at home,,,,,,,,,,,,,
9,2,88,A,42.7261041324856,61.36267692727678,2.13630520662428,0.9638826751966832,A,683.674541010987,Correct,sub_009_day_02_data.csv,1,300,3.0,Training at home,,,,,,,,,,,,,
9,2,89,A,13.61892584131798,36.253486582827605,0.680946292065899,0.5694684355781366,A,605.9987490007188,Correct,sub_009_day_02_data.csv,1,300,3.0,Training at home,,,,,,,,,,,,,
9,2,90,B,79.2357776932178,52.32436870352841,3.96178888466089,0.8219092616136426,A,1639.5795829885174,Incorrect,sub_009_day_02_data.csv,0,300,3.0,Training at home,,,,,,,,,,,,,
9,2,91,A,35.001781055187514,67.76295950262055,1.7500890527593755,1.0644180787946769,B,1914.5521669997831,Incorrect,sub_009_day_02_data.csv,0,300,3.0,Training at home,,,,,,,,,,,,,
9,2,92,B,75.14033188399436,42.56299861380735,3.757016594199718,0.6685780187994487,B,896.331583004212,Correct,sub_009_day_02_data.csv,1,300,3.0,Training at home,,,,,,,,,,,,,
9,2,93,B,74.63800731458589,62.56741206335242,3.7319003657292944,0.9828066104617668,B,507.9302079975605,Correct,sub_009_day_02_data.csv,1,300,3.0,Training at home,,,,,,,,,,,,,
9,2,94,B,75.05825393393884,46.73432197891243,3.752912696696942,0.7341010129972564,B,1099.8934580129571,Correct,sub_009_day_02_data.csv,1,300,3.0,Training at home,,,,,,,,,,,,,
9,2,95,A,39.1154710055897,58.433305835542754,1.955773550279485,0.9178682216895334,A,2417.749292013468,Correct,sub_009_day_02_data.csv,1,300,3.0,Training at home,,,,,,,,,,,,,
9,2,96,A,53.0000346639427,74.9791085902392,2.650001733197135,1.1777690835990344,A,672.1107499906793,Correct,sub_009_day_02_data.csv,1,300,3.0,Training at home,,,,,,,,,,,,,
9,2,97,B,84.35944856903805,65.58596712257976,4.217972428451902,1.0302219624543911,B,1131.0492490010802,Correct,sub_009_day_02_data.csv,1,300,3.0,Training at home,,,,,,,,,,,,,
9,2,98,A,63.02373381855321,80.47165395909582,3.1511866909276605,1.264045784500577,B,959.942083019996,Incorrect,sub_009_day_02_data.csv,0,300,3.0,Training at home,,,,,,,,,,,,,
9,2,99,A,15.610549040369278,43.23748776649482,0.780527452018464,0.6791728696344934,A,560.6318330101203,Correct,sub_009_day_02_data.csv,1,300,3.0,Training at home,,,,,,,,,,,,,
9,2,100,B,39.515640138944605,18.131837372479836,1.9757820069472305,0.2848142354273376,B,1301.6634990053717,Correct,sub_009_day_02_data.csv,1,300,4.0,Training at home,,,,,,,,,,,,,
9,2,101,B,52.13666217133488,30.43855967496304,2.6068331085667444,0.4781277773035919,B,1380.4856250062585,Correct,sub_009_day_02_data.csv,1,300,4.0,Training at home,,,,,,,,,,,,,
9,2,102,B,73.02715482842572,60.86654988058625,3.6513577414212866,0.9560895297710325,B,1244.815790996654,Correct,sub_009_day_02_data.csv,1,300,4.0,Training at home,,,,,,,,,,,,,
9,2,103,B,37.93705951773643,25.901285433527953,1.8968529758868216,0.4068564401825186,B,930.4473749944008,Correct,sub_009_day_02_data.csv,1,300,4.0,Training at home,,,,,,,,,,,,,
9,2,104,A,36.580763037902834,45.319578384937195,1.8290381518951415,0.7118782725895274,A,4764.450582995778,Correct,sub_009_day_02_data.csv,1,300,4.0,Training at home,,,,,,,,,,,,,
9,2,105,A,63.3116362916711,75.08423367735493,3.165581814583555,1.179420384605988,A,4715.0578330038115,Correct,sub_009_day_02_data.csv,1,300,4.0,Training at home,,,,,,,,,,,,,
9,2,106,A,54.052987785516635,71.94119964868753,2.7026493892758316,1.1300497215337666,A,470.60112401959486,Correct,sub_009_day_02_data.csv,1,300,4.0,Training at home,,,,,,,,,,,,,
9,2,107,A,47.13866998801099,57.94298076762698,2.356933499400549,0.910166213533358,A,1231.3760830147658,Correct,sub_009_day_02_data.csv,1,300,4.0,Training at home,,,,,,,,,,,,,
9,2,108,A,29.15411080152753,40.268207577459826,1.4577055400763763,0.6325315254928832,A,792.20870800782,Correct,sub_009_day_02_data.csv,1,300,4.0,Training at home,,,,,,,,,,,,,
9,2,109,B,88.16848117707966,65.46764615195588,4.408424058853983,1.0283633809940034,A,741.0409580043051,Incorrect,sub_009_day_02_data.csv,0,300,4.0,Training at home,,,,,,,,,,,,,
9,2,110,B,77.67951055556767,46.33253870407147,3.883975527778384,0.7277898160743784,A,2242.875500000082,Incorrect,sub_009_day_02_data.csv,0,300,4.0,Training at home,,,,,,,,,,,,,
9,2,111,B,70.150332165373,49.21332926651108,3.5075166082686504,0.7730411684118339,B,863.9339989749715,Correct,sub_009_day_02_data.csv,1,300,4.0,Training at home,,,,,,,,,,,,,
9,2,112,B,56.768218957865344,25.722330510274833,2.838410947893267,0.40404542282144,B,1811.8689580005591,Correct,sub_009_day_02_data.csv,1,300,4.0,Training at home,,,,,,,,,,,,,
9,2,113,A,29.76895177459347,49.22105539295633,1.4884475887296735,0.7731625301222393,B,4607.7514170028735,Incorrect,sub_009_day_02_data.csv,0,300,4.0,Training at home,,,,,,,,,,,,,
9,2,114,A,42.66476375511672,50.24211671546116,2.1332381877558357,0.7892013238704687,A,1053.9235000032932,Correct,sub_009_day_02_data.csv,1,300,4.0,Training at home,,,,,,,,,,,,,
9,2,115,B,86.25694156264842,61.28453742680613,4.312847078132421,0.9626552627935142,B,2765.2970830095,Correct,sub_009_day_02_data.csv,1,300,4.0,Training at home,,,,,,,,,,,,,
9,2,116,B,58.57282973016683,45.12012777735885,2.928641486508342,0.7087453097719167,A,2081.6741659946274,Incorrect,sub_009_day_02_data.csv,0,300,4.0,Training at home,,,,,,,,,,,,,
9,2,117,B,41.57909128086513,14.487854111234707,2.0789545640432565,0.2275746802106782,B,1162.606333004078,Correct,sub_009_day_02_data.csv,1,300,4.0,Training at home,,,,,,,,,,,,,
9,2,118,A,16.07707797902277,35.02946206539077,0.8038538989511386,0.5502415034191699,A,1178.9025000180118,Correct,sub_009_day_02_data.csv,1,300,4.0,Training at home,,,,,,,,,,,,,
9,2,119,B,42.62781390693979,28.906963223479444,2.1313906953469894,0.4540695165023666,A,1203.5163750115316,Incorrect,sub_009_day_02_data.csv,0,300,4.0,Training at home,,,,,,,,,,,,,
9,2,120,A,25.801822249384426,45.99815425263344,1.2900911124692211,0.7225373173938167,A,1574.5022490154952,Correct,sub_009_day_02_data.csv,1,300,4.0,Training at home,,,,,,,,,,,,,
9,2,121,A,49.68562287909021,75.69483672023806,2.4842811439545103,1.189011714774894,A,2064.0849999908824,Correct,sub_009_day_02_data.csv,1,300,4.0,Training at home,,,,,,,,,,,,,
9,2,122,B,68.78866808445416,36.427327396075945,3.439433404222708,0.572199120687112,B,2006.1095829878468,Correct,sub_009_day_02_data.csv,1,300,4.0,Training at home,,,,,,,,,,,,,
9,2,123,B,64.49985819018184,40.01364557506621,3.224992909509092,0.6285328749098686,B,975.9371670079418,Correct,sub_009_day_02_data.csv,1,300,4.0,Training at home,,,,,,,,,,,,,
9,2,124,B,66.64733361684114,55.72029505463742,3.332366680842057,0.8752523479975228,B,1859.6320830110928,Correct,sub_009_day_02_data.csv,1,300,4.0,Training at home,,,,,,,,,,,,,
9,2,125,B,85.62379581103482,60.98056915321324,4.281189790551741,0.9578805403172952,B,1989.0285830188077,Correct,sub_009_day_02_data.csv,1,300,5.0,Training at home,,,,,,,,,,,,,
9,2,126,B,51.78928636100955,28.72080050003063,2.589464318050478,0.4511452792805715,B,1175.282749987673,Correct,sub_009_day_02_data.csv,1,300,5.0,Training at home,,,,,,,,,,,,,
9,2,127,B,67.94489329397216,53.65338234681438,3.397244664698608,0.8427853591049819,B,6957.437708013458,Correct,sub_009_day_02_data.csv,1,300,5.0,Training at home,,,,,,,,,,,,,
9,2,128,A,53.182382931969826,69.34642746226172,2.659119146598491,1.0892911353406944,A,1017.6835829915944,Correct,sub_009_day_02_data.csv,1,300,5.0,Training at home,,,,,,,,,,,,,
9,2,129,A,50.30741208834698,72.75885832832525,2.515370604417349,1.1428934740392356,A,1670.6226249807514,Correct,sub_009_day_02_data.csv,1,300,5.0,Training at home,,,,,,,,,,,,,
9,2,130,A,38.80593931528058,70.6614465578966,1.940296965764029,1.109947406991579,A,592.9931669961661,Correct,sub_009_day_02_data.csv,1,300,5.0,Training at home,,,,,,,,,,,,,
9,2,131,A,51.492564990276016,66.60292771840614,2.574628249513801,1.0461963421385836,A,536.5554580057506,Correct,sub_009_day_02_data.csv,1,300,5.0,Training at home,,,,,,,,,,,,,
9,2,132,B,42.10350221190734,19.19710133638274,2.105175110595367,0.301547362642994,B,691.3709579966962,Correct,sub_009_day_02_data.csv,1,300,5.0,Training at home,,,,,,,,,,,,,
9,2,133,B,86.32493681887699,69.76452777905828,4.31624684094385,1.095858639759253,B,3553.6125829967204,Correct,sub_009_day_02_data.csv,1,300,5.0,Training at home,,,,,,,,,,,,,
9,2,134,B,42.85058310115299,33.906285913064984,2.14252915505765,0.5325986936750002,B,1898.4723329776896,Correct,sub_009_day_02_data.csv,1,300,5.0,Training at home,,,,,,,,,,,,,
9,2,135,B,67.99937161733548,46.258147764399936,3.3999685808667746,0.7266212859265497,B,743.5406669974327,Correct,sub_009_day_02_data.csv,1,300,5.0,Training at home,,,,,,,,,,,,,
9,2,136,A,40.579268781740886,66.51006227119247,2.028963439087045,1.0447376151048895,A,2270.3913750010543,Correct,sub_009_day_02_data.csv,1,300,5.0,Training at home,,,,,,,,,,,,,
9,2,137,B,45.73495753651279,34.09310575991212,2.2867478768256393,0.5355332529669988,B,985.0674990157132,Correct,sub_009_day_02_data.csv,1,300,5.0,Training at home,,,,,,,,,,,,,
9,2,138,B,54.58783983293862,24.309997684688355,2.729391991646931,0.381860550675009,B,775.6782920041587,Correct,sub_009_day_02_data.csv,1,300,5.0,Training at home,,,,,,,,,,,,,
9,2,139,B,51.825319180560726,31.860341481444443,2.591265959028036,0.50046107369484,B,619.549166993238,Correct,sub_009_day_02_data.csv,1,300,5.0,Training at home,,,,,,,,,,,,,
9,2,140,A,56.64408370374427,71.78067173998906,2.832204185187214,1.1275281550404503,A,1737.7705830149353,Correct,sub_009_day_02_data.csv,1,300,5.0,Training at home,,,,,,,,,,,,,
9,2,141,A,64.99246241082727,83.4542872660522,3.2496231205413637,1.310896878928009,A,729.6359580068383,Correct,sub_009_day_02_data.csv,1,300,5.0,Training at home,,,,,,,,,,,,,
9,2,142,B,88.48694044207113,67.94813679455544,4.424347022103557,1.0673268368944484,B,2283.754123986,Correct,sub_009_day_02_data.csv,1,300,5.0,Training at home,,,,,,,,,,,,,
9,2,143,A,16.7162726240405,46.921520115728725,0.835813631202025,0.7370415144541953,A,711.8470420246013,Correct,sub_009_day_02_data.csv,1,300,5.0,Training at home,,,,,,,,,,,,,
9,2,144,A,26.16990324520568,46.579640443716826,1.308495162260284,0.731671281124174,A,629.7708330093883,Correct,sub_009_day_02_data.csv,1,300,5.0,Training at home,,,,,,,,,,,,,
9,2,145,A,22.188504424840023,45.13866386587551,1.109425221242001,0.7090364739694677,A,484.1749990009703,Correct,sub_009_day_02_data.csv,1,300,5.0,Training at home,,,,,,,,,,,,,
9,2,146,B,70.44239988517892,50.13643036880353,3.522119994258946,0.7875412066192468,B,1515.3427490149625,Correct,sub_009_day_02_data.csv,1,300,5.0,Training at home,,,,,,,,,,,,,
9,2,147,B,60.12799716489855,43.41965350239392,3.0063998582449276,0.6820343223226754,B,576.3411239895504,Correct,sub_009_day_02_data.csv,1,300,5.0,Training at home,,,,,,,,,,,,,
9,2,148,A,32.76909195239968,64.24162509040707,1.6384545976199838,1.0091050871934628,B,975.1598330039996,Incorrect,sub_009_day_02_data.csv,0,300,5.0,Training at home,,,,,,,,,,,,,
9,2,149,A,17.214465943868994,44.63549006905809,0.8607232971934496,0.7011326384516654,A,552.2567910084035,Correct,sub_009_day_02_data.csv,1,300,5.0,Training at home,,,,,,,,,,,,,
9,2,150,A,19.410621225617717,47.46705252847022,0.9705310612808858,0.7456107175550143,A,654.0805409895256,Correct,sub_009_day_02_data.csv,1,300,6.0,Training at home,,,,,,,,,,,,,
9,2,151,A,19.354027323695504,35.7153846918507,0.9677013661847752,0.5610159508402576,A,493.3319999836385,Correct,sub_009_day_02_data.csv,1,300,6.0,Training at home,,,,,,,,,,,,,
9,2,152,A,58.902046669447174,71.40200363642118,2.9451023334723585,1.1215800503788629,A,999.066207994474,Correct,sub_009_day_02_data.csv,1,300,6.0,Training at home,,,,,,,,,,,,,
9,2,153,B,56.68403940623663,33.11278659568812,2.8342019703118315,0.5201344355445019,B,680.5652490002103,Correct,sub_009_day_02_data.csv,1,300,6.0,Training at home,,,,,,,,,,,,,
9,2,154,A,52.85760052237181,82.01126631282116,2.6428800261185903,1.2882299587997754,A,711.4524160278961,Correct,sub_009_day_02_data.csv,1,300,6.0,Training at home,,,,,,,,,,,,,
9,2,155,A,38.36258062071763,45.97305019274194,1.9181290310358816,0.7221429837431644,B,1119.1486660100054,Incorrect,sub_009_day_02_data.csv,0,300,6.0,Training at home,,,,,,,,,,,,,
9,2,156,A,48.29373154101458,79.69342649027749,2.414686577050729,1.2518214160062695,A,1048.901875008596,Correct,sub_009_day_02_data.csv,1,300,6.0,Training at home,,,,,,,,,,,,,
9,2,157,A,31.534360173812217,64.23142984819603,1.5767180086906103,1.008944940703304,A,480.1491249818355,Correct,sub_009_day_02_data.csv,1,300,6.0,Training at home,,,,,,,,,,,,,
9,2,158,A,56.504019698661985,82.27598070798753,2.8252009849330992,1.2923880827955458,A,1243.3818739955314,Correct,sub_009_day_02_data.csv,1,300,6.0,Training at home,,,,,,,,,,,,,
9,2,159,A,54.06044202039244,83.41698808297846,2.703022101019622,1.3103109847303622,A,4577.716916013742,Correct,sub_009_day_02_data.csv,1,300,6.0,Training at home,,,,,,,,,,,,,
9,2,160,B,72.10579522748885,47.03583623933841,3.6052897613744426,0.7388371879247905,B,617.5304579955991,Correct,sub_009_day_02_data.csv,1,300,6.0,Training at home,,,,,,,,,,,,,
9,2,161,B,81.63476919313676,64.10532218841576,4.0817384596568385,1.0069640462156684,B,875.5655410059262,Correct,sub_009_day_02_data.csv,1,300,6.0,Training at home,,,,,,,,,,,,,
9,2,162,B,64.75404692893618,37.06282036742187,3.237702346446809,0.5821814209380535,B,829.3982500035781,Correct,sub_009_day_02_data.csv,1,300,6.0,Training at home,,,,,,,,,,,,,
9,2,163,A,53.27124715979824,77.54352661886485,2.663562357989912,1.2180508677963515,A,618.4981660044286,Correct,sub_009_day_02_data.csv,1,300,6.0,Training at home,,,,,,,,,,,,,
9,2,164,B,65.5222889827242,43.40167468380075,3.27611444913621,0.6817519117006128,B,649.1874580096919,Correct,sub_009_day_02_data.csv,1,300,6.0,Training at home,,,,,,,,,,,,,
9,2,165,A,48.50276703587302,62.08060379912614,2.425138351793651,0.9751598441287664,B,576.1908330023289,Incorrect,sub_009_day_02_data.csv,0,300,6.0,Training at home,,,,,,,,,,,,,
9,2,166,B,50.701728217685464,40.56730791092015,2.535086410884273,0.6372297825443092,B,625.4469999985304,Correct,sub_009_day_02_data.csv,1,300,6.0,Training at home,,,,,,,,,,,,,
9,2,167,A,38.65761234835986,71.69413640732824,1.932880617417993,1.1261688612136345,A,535.0852910196409,Correct,sub_009_day_02_data.csv,1,300,6.0,Training at home,,,,,,,,,,,,,
9,2,168,A,52.61542593518163,68.23589502853909,2.630771296759081,1.0718469326639135,A,477.5560830021277,Correct,sub_009_day_02_data.csv,1,300,6.0,Training at home,,,,,,,,,,,,,
9,2,169,B,52.0043024365365,23.340843188998463,2.600215121826825,0.3666371074557446,B,565.1357500173617,Correct,sub_009_day_02_data.csv,1,300,6.0,Training at home,,,,,,,,,,,,,
9,2,170,A,66.63641486473162,84.81118887765562,3.3318207432365807,1.3322110396012965,A,632.819082995411,Correct,sub_009_day_02_data.csv,1,300,6.0,Training at home,,,,,,,,,,,,,
9,2,171,A,35.153000035389084,47.93349737734701,1.7576500017694543,0.7529376161076949,B,5770.292083005188,Incorrect,sub_009_day_02_data.csv,0,300,6.0,Training at home,,,,,,,,,,,,,
9,2,172,A,44.46544195495492,76.33304502681102,2.223272097747746,1.199036667411842,A,841.1161249969155,Correct,sub_009_day_02_data.csv,1,300,6.0,Training at home,,,,,,,,,,,,,
9,2,173,A,30.067305663909387,53.62971223491152,1.5033652831954694,0.8424135498566634,A,849.8252079880331,Correct,sub_009_day_02_data.csv,1,300,6.0,Training at home,,,,,,,,,,,,,
9,2,174,A,16.938941394421523,35.037066883247995,0.8469470697210761,0.5503609596187307,A,468.4060409781523,Correct,sub_009_day_02_data.csv,1,300,6.0,Training at home,,,,,,,,,,,,,
9,2,175,B,40.9939102281365,19.207501220228636,2.0496955114068247,0.3017107236364363,B,1823.453040997265,Correct,sub_009_day_02_data.csv,1,300,7.0,Training at home,,,,,,,,,,,,,
9,2,176,B,41.38678656685963,20.91958668272573,2.0693393283429815,0.3286040991929301,B,528.5728330200072,Correct,sub_009_day_02_data.csv,1,300,7.0,Training at home,,,,,,,,,,,,,
9,2,177,B,83.59832386098691,64.45890195847086,4.179916193049346,1.012518064255984,B,1327.425208000932,Correct,sub_009_day_02_data.csv,1,300,7.0,Training at home,,,,,,,,,,,,,
9,2,178,A,18.80992851021089,47.7896005390308,0.9404964255105446,0.75067728985705,A,608.8915829895996,Correct,sub_009_day_02_data.csv,1,300,7.0,Training at home,,,,,,,,,,,,,
9,2,179,A,10.175769878699867,33.904846611522856,0.5087884939349934,0.532576085179245,A,459.0704989968799,Correct,sub_009_day_02_data.csv,1,300,7.0,Training at home,,,,,,,,,,,,,
9,2,180,B,67.00044347585512,58.88057124923622,3.350022173792756,0.9248938503788544,B,4477.828958013561,Correct,sub_009_day_02_data.csv,1,300,7.0,Training at home,,,,,,,,,,,,,
9,2,181,A,46.91280764356987,58.203427659123314,2.3456403821784932,0.9142573037382338,B,1006.2384580087382,Incorrect,sub_009_day_02_data.csv,0,300,7.0,Training at home,,,,,,,,,,,,,
9,2,182,A,34.20744194448691,42.379904400318345,1.7103720972243457,0.6657019816193892,A,613.1752489891369,Correct,sub_009_day_02_data.csv,1,300,7.0,Training at home,,,,,,,,,,,,,
9,2,183,B,53.3489180081464,35.76480428757536,2.6674459004073197,0.5617922320346175,B,982.5707079726272,Correct,sub_009_day_02_data.csv,1,300,7.0,Training at home,,,,,,,,,,,,,
9,2,184,B,48.719050842169175,28.22009914300738,2.4359525421084585,0.443280280756238,B,1549.4982080126647,Correct,sub_009_day_02_data.csv,1,300,7.0,Training at home,,,,,,,,,,,,,
9,2,185,B,53.18121318304371,35.970297344252494,2.6590606591521855,0.5650201094207203,B,869.400374009274,Correct,sub_009_day_02_data.csv,1,300,7.0,Training at home,,,,,,,,,,,,,
9,2,186,A,42.88698243824734,70.7495363659921,2.144349121912367,1.1113311184614234,A,2517.527957999846,Correct,sub_009_day_02_data.csv,1,300,7.0,Training at home,,,,,,,,,,,,,
9,2,187,B,46.890715892083975,39.80752149296339,2.3445357946041985,0.6252950853995579,B,1307.7944999968167,Correct,sub_009_day_02_data.csv,1,300,7.0,Training at home,,,,,,,,,,,,,
9,2,188,A,29.609045409838792,60.29014843020337,1.4804522704919396,0.9470354369608256,A,421.5800410020165,Correct,sub_009_day_02_data.csv,1,300,7.0,Training at home,,,,,,,,,,,,,
9,2,189,B,39.74346612209044,26.797398208153,1.987173306104522,0.4209325467302687,B,748.3167909958865,Correct,sub_009_day_02_data.csv,1,300,7.0,Training at home,,,,,,,,,,,,,
9,2,190,A,25.21936274065103,43.28213979014914,1.2609681370325516,0.6798742619818949,B,5070.601540995995,Incorrect,sub_009_day_02_data.csv,0,300,7.0,Training at home,,,,,,,,,,,,,
9,2,191,B,61.539612999621816,39.93048159975184,3.076980649981091,0.6272265382404141,B,530.2315419830848,Correct,sub_009_day_02_data.csv,1,300,7.0,Training at home,,,,,,,,,,,,,
9,2,192,B,76.96918705545471,50.96832750877379,3.848459352772735,0.8006086163366114,B,995.0184160261416,Correct,sub_009_day_02_data.csv,1,300,7.0,Training at home,,,,,,,,,,,,,
9,2,193,B,34.63530551017524,16.161485578143015,1.7317652755087622,0.2538640218169574,B,800.9551660215948,Correct,sub_009_day_02_data.csv,1,300,7.0,Training at home,,,,,,,,,,,,,
9,2,194,B,71.83299757600321,55.770168807435965,3.5916498788001605,0.8760357630745175,A,387.77429098263383,Incorrect,sub_009_day_02_data.csv,0,300,7.0,Training at home,,,,,,,,,,,,,
9,2,195,B,53.71760112777366,38.08813154251872,2.685880056388683,0.5982869712146923,B,1439.5949160098098,Correct,sub_009_day_02_data.csv,1,300,7.0,Training at home,,,,,,,,,,,,,
9,2,196,B,82.92675337563291,61.91673015061467,4.146337668781646,0.9725857228773636,B,634.0989579912275,Correct,sub_009_day_02_data.csv,1,300,7.0,Training at home,,,,,,,,,,,,,
9,2,197,A,57.11143610878129,74.43607724412257,2.855571805439064,1.169239167160889,B,1469.3137080175802,Incorrect,sub_009_day_02_data.csv,0,300,7.0,Training at home,,,,,,,,,,,,,
9,2,198,A,65.98908650217344,83.22875207925733,3.299454325108672,1.3073541804982054,A,1368.5341670061462,Correct,sub_009_day_02_data.csv,1,300,7.0,Training at home,,,,,,,,,,,,,
9,2,199,B,60.79232228985889,32.907546510271004,3.039616114492944,0.5169105318216591,B,520.6199579988606,Correct,sub_009_day_02_data.csv,1,300,7.0,Training at home,,,,,,,,,,,,,
9,2,200,B,81.20666087829393,57.13866878770287,4.060333043914697,0.8975321104967388,B,594.8032489977777,Correct,sub_009_day_02_data.csv,1,300,8.0,Training at home,,,,,,,,,,,,,
9,2,201,B,86.29356286134784,62.07213126072023,4.3146781430673915,0.9750267578067,B,579.6037499967497,Correct,sub_009_day_02_data.csv,1,300,8.0,Training at home,,,,,,,,,,,,,
9,2,202,A,35.1372378754867,55.80510391402892,1.756861893774335,0.8765845224456413,A,601.6229169908911,Correct,sub_009_day_02_data.csv,1,300,8.0,Training at home,,,,,,,,,,,,,
9,2,203,B,62.73955168800573,50.02692264715863,3.1369775844002867,0.785821063350092,B,574.7075410035904,Correct,sub_009_day_02_data.csv,1,300,8.0,Training at home,,,,,,,,,,,,,
9,2,204,A,57.5701162031884,77.4547220667245,2.87850581015942,1.2166559291533048,A,1421.7123330163304,Correct,sub_009_day_02_data.csv,1,300,8.0,Training at home,,,,,,,,,,,,,
9,2,205,A,63.55645969228836,89.02284250877722,3.1778229846144175,1.3983675401362785,A,1827.6483330118936,Correct,sub_009_day_02_data.csv,1,300,8.0,Training at home,,,,,,,,,,,,,
9,2,206,B,78.53048701486662,57.74949936464225,3.926524350743331,0.9071270147622426,B,397.8881250077393,Correct,sub_009_day_02_data.csv,1,300,8.0,Training at home,,,,,,,,,,,,,
9,2,207,A,18.411362281837228,32.0066896097009,0.9205681140918612,0.5027599047178255,A,677.5054580066353,Correct,sub_009_day_02_data.csv,1,300,8.0,Training at home,,,,,,,,,,,,,
9,2,208,B,84.59818713861925,68.08107959747471,4.229909356930963,1.0694150975594423,B,440.3200829983689,Correct,sub_009_day_02_data.csv,1,300,8.0,Training at home,,,,,,,,,,,,,
9,2,209,A,31.43657993137807,59.14375892184691,1.5718289965689036,0.9290279926728005,B,1385.0289990077729,Incorrect,sub_009_day_02_data.csv,0,300,8.0,Training at home,,,,,,,,,,,,,
9,2,210,B,80.85175132325408,60.441331596890834,4.0425875661627035,0.9494102165898844,B,613.4971659921575,Correct,sub_009_day_02_data.csv,1,300,8.0,Training at home,,,,,,,,,,,,,
9,2,211,A,13.10355724342062,35.170460981584434,0.6551778621710311,0.5524563092155605,A,523.4494159813039,Correct,sub_009_day_02_data.csv,1,300,8.0,Training at home,,,,,,,,,,,,,
9,2,212,B,52.63830095232599,21.81987074138761,2.6319150476162996,0.3427457281171109,A,799.18924998492,Incorrect,sub_009_day_02_data.csv,0,300,8.0,Training at home,,,,,,,,,,,,,
9,2,213,B,50.49745084908882,22.78128358441034,2.5248725424544407,0.3578475657406463,B,823.4832079906482,Correct,sub_009_day_02_data.csv,1,300,8.0,Training at home,,,,,,,,,,,,,
9,2,214,B,65.31488150145141,43.6135279553612,3.26574407507257,0.6850796951084791,B,732.0329990179744,Correct,sub_009_day_02_data.csv,1,300,8.0,Training at home,,,,,,,,,,,,,
9,2,215,B,74.16646534831712,44.05984893362092,3.708323267415856,0.6920904886406978,B,690.4682499880437,Correct,sub_009_day_02_data.csv,1,300,8.0,Training at home,,,,,,,,,,,,,
9,2,216,B,71.73677863915738,41.403628980769206,3.586838931957869,0.6503666831897099,B,871.2564159941394,Correct,sub_009_day_02_data.csv,1,300,8.0,Training at home,,,,,,,,,,,,,
9,2,217,B,76.99837725083432,62.71772188003901,3.849918862541716,0.985167671541092,B,509.3776250141673,Correct,sub_009_day_02_data.csv,1,300,8.0,Training at home,,,,,,,,,,,,,
9,2,218,A,28.075942658661507,47.81809052295763,1.4037971329330754,0.751124809478077,A,5784.373083006358,Correct,sub_009_day_02_data.csv,1,300,8.0,Training at home,,,,,,,,,,,,,
9,2,219,A,57.06625517882995,77.39139312591922,2.853312758941497,1.215661160477337,A,2166.534333024174,Correct,sub_009_day_02_data.csv,1,300,8.0,Training at home,,,,,,,,,,,,,
9,2,220,A,38.65965819927272,66.2264636530323,1.932982909963636,1.0402828584279886,A,483.50633299560286,Correct,sub_009_day_02_data.csv,1,300,8.0,Training at home,,,,,,,,,,,,,
9,2,221,B,52.61312026068682,22.17943385591003,2.6306560130343413,0.3483937323125384,B,578.8765409961343,Correct,sub_009_day_02_data.csv,1,300,8.0,Training at home,,,,,,,,,,,,,
9,2,222,B,80.28665078198931,66.43075566130182,4.014332539099465,1.043491869789822,B,2742.733291001059,Correct,sub_009_day_02_data.csv,1,300,8.0,Training at home,,,,,,,,,,,,,
9,2,223,B,67.24759748560068,37.42231678482902,3.362379874280034,0.5878283774576443,B,610.8975409879349,Correct,sub_009_day_02_data.csv,1,300,8.0,Training at home,,,,,,,,,,,,,
9,2,224,B,85.64354744444418,64.22633415449832,4.2821773722222085,1.0088648977338757,B,523.7953329924494,Correct,sub_009_day_02_data.csv,1,300,8.0,Training at home,,,,,,,,,,,,,
9,2,225,B,37.77941859283679,17.100963175308774,1.88897092964184,0.2686213014042981,B,1074.86024897662,Correct,sub_009_day_02_data.csv,1,300,9.0,Training at home,,,,,,,,,,,,,
9,2,226,A,18.39644299517864,46.99433590106089,0.9198221497589318,0.7381853021355198,A,433.994499995606,Correct,sub_009_day_02_data.csv,1,300,9.0,Training at home,,,,,,,,,,,,,
9,2,227,B,68.54925723477956,52.2703480056753,3.427462861738978,0.8210607064760571,B,3056.5466239931993,Correct,sub_009_day_02_data.csv,1,300,9.0,Training at home,,,,,,,,,,,,,
9,2,228,A,26.820468513658916,53.99540095981567,1.3410234256829456,0.8481577749149609,A,1302.1492499974556,Correct,sub_009_day_02_data.csv,1,300,9.0,Training at home,,,,,,,,,,,,,
9,2,229,A,62.53769660812993,88.23204428650283,3.1268848304064965,1.3859457107084328,A,1633.66004099953,Correct,sub_009_day_02_data.csv,1,300,9.0,Training at home,,,,,,,,,,,,,
9,2,230,B,88.38200779614394,62.01954941646948,4.419100389807197,0.9742008041286484,B,744.9490829894785,Correct,sub_009_day_02_data.csv,1,300,9.0,Training at home,,,,,,,,,,,,,
9,2,231,A,21.239131712795597,45.32506924719858,1.06195658563978,0.7119645228522385,A,628.1224160047714,Correct,sub_009_day_02_data.csv,1,300,9.0,Training at home,,,,,,,,,,,,,
9,2,232,B,80.11920208687908,49.2745952344474,4.005960104343955,0.7740035319857529,B,658.250124019105,Correct,sub_009_day_02_data.csv,1,300,9.0,Training at home,,,,,,,,,,,,,
9,2,233,B,33.233500302781735,15.863815585003309,1.6616750151390869,0.2491882324987483,B,1098.030708002625,Correct,sub_009_day_02_data.csv,1,300,9.0,Training at home,,,,,,,,,,,,,
9,2,234,A,64.7334391343756,76.04257459843681,3.23667195671878,1.1944739685925143,A,1557.8415830095764,Correct,sub_009_day_02_data.csv,1,300,9.0,Training at home,,,,,,,,,,,,,
9,2,235,B,86.55224777661313,68.4908017306796,4.327612388830656,1.0758509977778907,B,1935.7845410122536,Correct,sub_009_day_02_data.csv,1,300,9.0,Training at home,,,,,,,,,,,,,
9,2,236,A,37.882702223695794,47.83519026398792,1.8941351111847895,0.7513934115820722,A,854.0629580093082,Correct,sub_009_day_02_data.csv,1,300,9.0,Training at home,,,,,,,,,,,,,
9,2,237,A,53.678095148734414,72.96436029911092,2.683904757436721,1.1461214914478282,A,592.3123329994269,Correct,sub_009_day_02_data.csv,1,300,9.0,Training at home,,,,,,,,,,,,,
9,2,238,A,34.5843241997923,66.50118201714052,1.729216209989615,1.0445981244004316,A,681.4920829783659,Correct,sub_009_day_02_data.csv,1,300,9.0,Training at home,,,,,,,,,,,,,
9,2,239,B,65.90239491756626,44.55284299779672,3.2951197458783126,0.6998344212920882,B,565.3105000092182,Correct,sub_009_day_02_data.csv,1,300,9.0,Training at home,,,,,,,,,,,,,
9,2,240,A,26.874572803319698,58.3741398855667,1.3437286401659847,0.9169388451205964,A,1262.9296660015823,Correct,sub_009_day_02_data.csv,1,300,9.0,Training at home,,,,,,,,,,,,,
9,2,241,B,50.88570982228272,24.105347382191653,2.544285491114136,0.3786459112406162,B,642.7705000096466,Correct,sub_009_day_02_data.csv,1,300,9.0,Training at home,,,,,,,,,,,,,
9,2,242,B,48.96025389403788,30.034287832110877,2.448012694701894,0.4717774900458042,B,751.9172079919372,Correct,sub_009_day_02_data.csv,1,300,9.0,Training at home,,,,,,,,,,,,,
9,2,243,B,67.89849038307183,36.02059879671211,3.3949245191535913,0.5658102427882805,B,911.5759159903972,Correct,sub_009_day_02_data.csv,1,300,9.0,Training at home,,,,,,,,,,,,,
9,2,244,B,68.4197317675756,37.955547165720866,3.42098658837878,0.5962043406940478,B,1309.36958300299,Correct,sub_009_day_02_data.csv,1,300,9.0,Training at home,,,,,,,,,,,,,
9,2,245,A,15.080433396112422,44.583609179768544,0.7540216698056211,0.7003176953483966,A,566.171625017887,Correct,sub_009_day_02_data.csv,1,300,9.0,Training at home,,,,,,,,,,,,,
9,2,246,A,56.993157061287874,71.1890912357335,2.849657853064394,1.1182356302095693,B,1186.255542008439,Incorrect,sub_009_day_02_data.csv,0,300,9.0,Training at home,,,,,,,,,,,,,
9,2,247,A,36.83224918865862,57.768497018990566,1.8416124594329313,0.9074254292189232,A,683.9760410075542,Correct,sub_009_day_02_data.csv,1,300,9.0,Training at home,,,,,,,,,,,,,
9,2,248,A,34.0967402816783,46.86008015887011,1.704837014083915,0.736076417868676,A,478.2674159796443,Correct,sub_009_day_02_data.csv,1,300,9.0,Training at home,,,,,,,,,,,,,
9,2,249,A,59.73512571856543,76.57368187270538,2.9867562859282715,1.2028165821480656,B,1871.197166998172,Incorrect,sub_009_day_02_data.csv,0,300,9.0,Training at home,,,,,,,,,,,,,
9,2,250,A,16.780935199417886,39.660585312611715,0.8390467599708943,0.622987017275861,A,452.587833016878,Correct,sub_009_day_02_data.csv,1,300,10.0,Training at home,,,,,,,,,,,,,
9,2,251,A,32.54853165201186,62.44313567176587,1.627426582600593,0.9808544814676522,A,393.70208300533704,Correct,sub_009_day_02_data.csv,1,300,10.0,Training at home,,,,,,,,,,,,,
9,2,252,A,40.17839858253512,60.26790920460615,2.008919929126756,0.9466861040220368,A,548.6652500112541,Correct,sub_009_day_02_data.csv,1,300,10.0,Training at home,,,,,,,,,,,,,
9,2,253,A,65.19695428393057,88.67094973578513,3.2598477141965283,1.392840021383862,B,495.34850000054576,Incorrect,sub_009_day_02_data.csv,0,300,10.0,Training at home,,,,,,,,,,,,,
9,2,254,A,16.972439554490602,44.30716020140254,0.8486219777245302,0.6959752449507614,A,404.7802909917664,Correct,sub_009_day_02_data.csv,1,300,10.0,Training at home,,,,,,,,,,,,,
9,2,255,A,23.557771710309964,55.322132685496335,1.177888585515498,0.8689980281283753,A,418.960832990706,Correct,sub_009_day_02_data.csv,1,300,10.0,Training at home,,,,,,,,,,,,,
9,2,256,B,44.01668908149627,15.742720015131477,2.2008344540748137,0.2472860677352901,B,529.5081670046784,Correct,sub_009_day_02_data.csv,1,300,10.0,Training at home,,,,,,,,,,,,,
9,2,257,A,32.06943298592195,59.95131383631677,1.6034716492960974,0.9417130356061444,A,481.3439989811741,Correct,sub_009_day_02_data.csv,1,300,10.0,Training at home,,,,,,,,,,,,,
9,2,258,A,41.45516850408883,67.29275080932746,2.0727584252044413,1.0570320579121588,A,734.3294580059592,Correct,sub_009_day_02_data.csv,1,300,10.0,Training at home,,,,,,,,,,,,,
9,2,259,A,53.851565096674875,77.4257184990354,2.692578254833744,1.2162003421774048,A,2380.5062909959815,Correct,sub_009_day_02_data.csv,1,300,10.0,Training at home,,,,,,,,,,,,,
9,2,260,B,37.18494207258375,27.6259765844627,1.8592471036291875,0.4339478254299583,B,462.136999994982,Correct,sub_009_day_02_data.csv,1,300,10.0,Training at home,,,,,,,,,,,,,
9,2,261,A,35.34378175375629,65.50477713951302,1.7671890876878142,1.0289466331826536,B,643.1755409867037,Incorrect,sub_009_day_02_data.csv,0,300,10.0,Training at home,,,,,,,,,,,,,
9,2,262,B,60.007225474977986,50.47709935847349,3.0003612737488994,0.7928924225955117,B,1220.9687080176082,Correct,sub_009_day_02_data.csv,1,300,10.0,Training at home,,,,,,,,,,,,,
9,2,263,A,54.42759227614977,70.31872853591648,2.721379613807488,1.1045640048910508,B,528.4558330022264,Incorrect,sub_009_day_02_data.csv,0,300,10.0,Training at home,,,,,,,,,,,,,
9,2,264,A,32.09286230041437,47.88087348625904,1.6046431150207183,0.7521110019594686,A,984.3063750013245,Correct,sub_009_day_02_data.csv,1,300,10.0,Training at home,,,,,,,,,,,,,
9,2,265,A,46.029223757515176,74.00989246979987,2.3014611878757587,1.162544672380469,A,442.83495799754746,Correct,sub_009_day_02_data.csv,1,300,10.0,Training at home,,,,,,,,,,,,,
9,2,266,B,79.93316507803658,50.904413585697526,3.9966582539018294,0.7996046587806189,B,787.2813739813864,Correct,sub_009_day_02_data.csv,1,300,10.0,Training at home,,,,,,,,,,,,,
9,2,267,B,69.14025896992109,37.45914435401623,3.457012948496055,0.5884068635616848,B,1458.468124998035,Correct,sub_009_day_02_data.csv,1,300,10.0,Training at home,,,,,,,,,,,,,
9,2,268,B,76.18088253298293,64.32050547632781,3.809044126649147,1.0103441373980675,B,1101.6823740210384,Correct,sub_009_day_02_data.csv,1,300,10.0,Training at home,,,,,,,,,,,,,
9,2,269,A,24.650524462640668,48.53016895834236,1.2325262231320335,0.7623101113849988,A,1723.018124990631,Correct,sub_009_day_02_data.csv,1,300,10.0,Training at home,,,,,,,,,,,,,
9,2,270,A,48.944427660166696,66.19984951710856,2.4472213830083347,1.0398648045584904,A,560.4874999844469,Correct,sub_009_day_02_data.csv,1,300,10.0,Training at home,,,,,,,,,,,,,
9,2,271,B,66.60798449440239,49.687814777274134,3.3303992247201193,0.7804943693860739,B,3339.7493740194477,Correct,sub_009_day_02_data.csv,1,300,10.0,Training at home,,,,,,,,,,,,,
9,2,272,B,64.60159890581356,37.50279701101752,3.2300799452906777,0.5890925578944094,B,896.7513329989742,Correct,sub_009_day_02_data.csv,1,300,10.0,Training at home,,,,,,,,,,,,,
9,2,273,B,55.26652794078457,44.405360941667055,2.7633263970392283,0.6975177785717218,B,633.4617079992313,Correct,sub_009_day_02_data.csv,1,300,10.0,Training at home,,,,,,,,,,,,,
9,2,274,A,26.555383702971938,49.266909343379,1.3277691851485969,0.773882802291169,A,1051.4477499818895,Correct,sub_009_day_02_data.csv,1,300,10.0,Training at home,,,,,,,,,,,,,
9,2,275,A,38.51945772875003,62.49546228737201,1.9259728864375012,0.9816764260235292,A,611.6896239982452,Correct,sub_009_day_02_data.csv,1,300,11.0,Training at home,,,,,,,,,,,,,
9,2,276,A,39.09283167645438,59.742151323702366,1.9546415838227191,0.9384275185409654,A,595.1554999919608,Correct,sub_009_day_02_data.csv,1,300,11.0,Training at home,,,,,,,,,,,,,
9,2,277,A,14.074364319096212,34.0831869688009,0.7037182159548107,0.5353774489605615,A,512.8777500067372,Correct,sub_009_day_02_data.csv,1,300,11.0,Training at home,,,,,,,,,,,,,
9,2,278,B,67.75644021071051,37.24326991703629,3.3878220105355252,0.5850159158351147,B,1142.5785000028554,Correct,sub_009_day_02_data.csv,1,300,11.0,Training at home,,,,,,,,,,,,,
9,2,279,B,54.87056385311285,31.06794172689408,2.743528192655642,0.4880140874568311,B,661.9152500061318,Correct,sub_009_day_02_data.csv,1,300,11.0,Training at home,,,,,,,,,,,,,
9,2,280,A,56.09650210178946,67.65820200883806,2.8048251050894732,1.062772551930299,B,1131.2470829871015,Incorrect,sub_009_day_02_data.csv,0,300,11.0,Training at home,,,,,,,,,,,,,
9,2,281,A,32.781948838747766,61.61520797752667,1.6390974419373885,0.9678494236580252,A,553.060374018969,Correct,sub_009_day_02_data.csv,1,300,11.0,Training at home,,,,,,,,,,,,,
9,2,282,A,42.63429048553266,57.10354978850548,2.131714524276633,0.8969804625473391,A,482.95866698026657,Correct,sub_009_day_02_data.csv,1,300,11.0,Training at home,,,,,,,,,,,,,
9,2,283,B,49.62883952803661,27.206309368594603,2.4814419764018307,0.4273557082183398,B,644.3895410047844,Correct,sub_009_day_02_data.csv,1,300,11.0,Training at home,,,,,,,,,,,,,
9,2,284,A,63.1605234241474,78.68109612450684,3.15802617120737,1.2359197678057152,A,2085.521291999612,Correct,sub_009_day_02_data.csv,1,300,11.0,Training at home,,,,,,,,,,,,,
9,2,285,B,73.02046726293865,44.27819613566773,3.651023363146933,0.6955202784701086,B,665.0874160113744,Correct,sub_009_day_02_data.csv,1,300,11.0,Training at home,,,,,,,,,,,,,
9,2,286,B,62.876629609093925,40.28869796239606,3.143831480454696,0.6328533877068077,B,485.97187499399297,Correct,sub_009_day_02_data.csv,1,300,11.0,Training at home,,,,,,,,,,,,,
9,2,287,B,44.64910920304257,25.59798115241647,2.2324554601521287,0.4020921476758078,B,1720.132582995575,Correct,sub_009_day_02_data.csv,1,300,11.0,Training at home,,,,,,,,,,,,,
9,2,288,A,16.76340175720302,39.043248845379026,0.8381700878601509,0.6132899187246046,A,386.30091698723845,Correct,sub_009_day_02_data.csv,1,300,11.0,Training at home,,,,,,,,,,,,,
9,2,289,A,36.87802034397297,58.03662448779309,1.8439010171986483,0.9116371656500012,A,568.2287919917144,Correct,sub_009_day_02_data.csv,1,300,11.0,Training at home,,,,,,,,,,,,,
9,2,290,B,84.79186859946131,63.35389708062759,4.239593429973065,0.9951606882239172,B,1121.922332997201,Correct,sub_009_day_02_data.csv,1,300,11.0,Training at home,,,,,,,,,,,,,
9,2,291,B,85.3563593387714,66.58660601307024,4.26781796693857,1.045939961390697,B,531.6562079824507,Correct,sub_009_day_02_data.csv,1,300,11.0,Training at home,,,,,,,,,,,,,
9,2,292,B,41.80398927047918,15.950775950769176,2.090199463523959,0.250554202729966,A,858.4703750093468,Incorrect,sub_009_day_02_data.csv,0,300,11.0,Training at home,,,,,,,,,,,,,
9,2,293,B,37.09730244432566,19.218863425469657,1.854865122216283,0.3018892007390052,B,573.0577910144348,Correct,sub_009_day_02_data.csv,1,300,11.0,Training at home,,,,,,,,,,,,,
9,2,294,B,87.0853340778214,59.62780371142684,4.35426670389107,0.9366313504475638,B,1968.3401240035892,Correct,sub_009_day_02_data.csv,1,300,11.0,Training at home,,,,,,,,,,,,,
9,2,295,A,17.374131166004005,40.650431596175835,0.8687065583002003,0.6385354863390019,A,478.0489989789203,Correct,sub_009_day_02_data.csv,1,300,11.0,Training at home,,,,,,,,,,,,,
9,2,296,B,64.13040621099472,45.047779450939665,3.206520310549736,0.7076088649180265,B,654.8249999759719,Correct,sub_009_day_02_data.csv,1,300,11.0,Training at home,,,,,,,,,,,,,
9,2,297,A,50.24165111085802,71.15194466210207,2.512082555542901,1.1176521331954368,A,1172.0145829895046,Correct,sub_009_day_02_data.csv,1,300,11.0,Training at home,,,,,,,,,,,,,
9,2,298,A,55.440617392421565,74.33879033056279,2.7720308696210783,1.16771098789624,A,1459.7519579983782,Correct,sub_009_day_02_data.csv,1,300,11.0,Training at home,,,,,,,,,,,,,
9,2,299,B,38.78777149466757,15.62359091215627,1.9393885747333783,0.2454147921616119,B,2425.927916017826,Correct,sub_009_day_02_data.csv,1,300,11.0,Training at home,,,,,,,,,,,,,
