subject,day,trial,cat,x,y,xt,yt,resp,rt,fb,f_name,acc,n_trials,block,session_type,ns_left_digit,ns_right_digit,ns_left_size,ns_right_size,ns_congruent,ns_cue,ns_correct_side,ns_resp,ns_rt,ns_fb,acc_stroop,acc_stroop_mean,resp_key
9,5,900,A,29.202204609851435,46.22695531102161,1.4601102304925715,0.7261313160146458,B,2595.309290999922,Incorrect,sub_009_day_05_data.csv,0,300,36.0,Training at home,,,,,,,,,,,,,
9,5,901,A,30.208532482576334,41.00148233643454,1.510426624128817,0.6440497784721722,A,663.710791000085,Correct,sub_009_day_05_data.csv,1,300,36.0,Training at home,,,,,,,,,,,,,
9,5,902,B,50.497797132048646,33.93548939168059,2.5248898566024325,0.5330574208443906,B,2751.074749000054,Correct,sub_009_day_05_data.csv,1,300,36.0,Training at home,,,,,,,,,,,,,
9,5,903,A,38.04174533158348,45.874917320982206,1.902087266579174,0.7206015161981844,B,3757.8607909999846,Incorrect,sub_009_day_05_data.csv,0,300,36.0,Training at home,,,,,,,,,,,,,
9,5,904,B,46.53405790099005,32.45323815103971,2.326702895049502,0.5097742728025318,B,1835.3832910001984,Correct,sub_009_day_05_data.csv,1,300,36.0,Training at home,,,,,,,,,,,,,
9,5,905,A,41.19822255475005,63.85837838589701,2.059911127737503,1.0030850620364564,A,804.7866239999166,Correct,sub_009_day_05_data.csv,1,300,36.0,Training at home,,,,,,,,,,,,,
9,5,906,A,34.415221801606826,66.4353578306586,1.7207610900803414,1.043564160497031,A,467.5629159996788,Correct,sub_009_day_05_data.csv,1,300,36.0,Training at home,,,,,,,,,,,,,
9,5,907,B,64.32786755253495,35.90364381350531,3.2163933776267477,0.5639731182080645,B,562.155666000308,Correct,sub_009_day_05_data.csv,1,300,36.0,Training at home,,,,,,,,,,,,,
9,5,908,B,82.00194724470751,54.27750883489175,4.100097362235375,0.852589115054255,B,1168.1156240001656,Correct,sub_009_day_05_data.csv,1,300,36.0,Training at home,,,,,,,,,,,,,
9,5,909,A,29.82448345619249,58.68332295767668,1.4912241728096245,0.9217954814603716,A,1338.930624999648,Correct,sub_009_day_05_data.csv,1,300,36.0,Training at home,,,,,,,,,,,,,
9,5,910,B,52.795103924153175,32.99090610233621,2.639755196207658,0.5182199412318506,B,583.0334990000665,Correct,sub_009_day_05_data.csv,1,300,36.0,Training at home,,,,,,,,,,,,,
9,5,911,B,57.25426808321671,34.24475010249735,2.8627134041608353,0.53791527673012,B,1104.151082000044,Correct,sub_009_day_05_data.csv,1,300,36.0,Training at home,,,,,,,,,,,,,
9,5,912,B,61.1589396861802,30.68216073337551,3.05794698430901,0.4819542537811686,B,529.4203750004272,Correct,sub_009_day_05_data.csv,1,300,36.0,Training at home,,,,,,,,,,,,,
9,5,913,B,62.408907359217,41.18683483509238,3.1204453679608495,0.646961288712712,B,2473.348458000146,Correct,sub_009_day_05_data.csv,1,300,36.0,Training at home,,,,,,,,,,,,,
9,5,914,B,48.763117914943294,21.442843206278297,2.4381558957471645,0.3368233934446085,B,701.5010000000075,Correct,sub_009_day_05_data.csv,1,300,36.0,Training at home,,,,,,,,,,,,,
9,5,915,A,26.297036257882628,46.47422800230923,1.3148518128941311,0.7300154663665587,A,1039.5082909999471,Correct,sub_009_day_05_data.csv,1,300,36.0,Training at home,,,,,,,,,,,,,
9,5,916,B,60.407950598019816,50.65835616668981,3.020397529900991,0.7957395978810397,A,5150.5796239998745,Incorrect,sub_009_day_05_data.csv,0,300,36.0,Training at home,,,,,,,,,,,,,
9,5,917,A,38.01933619704104,45.88861416352691,1.900966809852052,0.7208166656977633,A,700.611249999838,Correct,sub_009_day_05_data.csv,1,300,36.0,Training at home,,,,,,,,,,,,,
9,5,918,B,43.8723976073592,25.925442928681218,2.1936198803679603,0.4072359052290318,B,708.9270830001624,Correct,sub_009_day_05_data.csv,1,300,36.0,Training at home,,,,,,,,,,,,,
9,5,919,A,28.371677342213815,43.28906620743731,1.418583867110691,0.679983061890236,A,6160.268957999961,Correct,sub_009_day_05_data.csv,1,300,36.0,Training at home,,,,,,,,,,,,,
9,5,920,B,56.78057061005648,40.89244084953619,2.839028530502824,0.6423369588012904,B,1281.4204579999569,Correct,sub_009_day_05_data.csv,1,300,36.0,Training at home,,,,,,,,,,,,,
9,5,921,A,50.51715265371282,63.125841390555,2.525857632685641,0.9915783978212104,A,855.6487910000214,Correct,sub_009_day_05_data.csv,1,300,36.0,Training at home,,,,,,,,,,,,,
9,5,922,B,34.22067988466543,22.588470460257433,1.7110339942332715,0.354818864268874,B,1225.2632909999193,Correct,sub_009_day_05_data.csv,1,300,36.0,Training at home,,,,,,,,,,,,,
9,5,923,B,46.66042186060205,18.78766232545877,2.3330210930301023,0.295115909698935,B,745.0623749996339,Correct,sub_009_day_05_data.csv,1,300,36.0,Training at home,,,,,,,,,,,,,
9,5,924,A,25.503852312132945,46.494569513295154,1.275192615606647,0.7303349900739401,A,650.0985409998066,Correct,sub_009_day_05_data.csv,1,300,36.0,Training at home,,,,,,,,,,,,,
9,5,925,B,69.33335413972785,46.94988758854976,3.466667706986392,0.7374871096752725,B,1236.2525819999064,Correct,sub_009_day_05_data.csv,1,300,37.0,Training at home,,,,,,,,,,,,,
9,5,926,A,40.996741554851184,64.22064729753393,2.049837077742559,1.008775568793569,A,664.3981660004101,Correct,sub_009_day_05_data.csv,1,300,37.0,Training at home,,,,,,,,,,,,,
9,5,927,B,84.5007009934559,58.67157591352377,4.225035049672795,0.9216109593223106,B,791.6003749996889,Correct,sub_009_day_05_data.csv,1,300,37.0,Training at home,,,,,,,,,,,,,
9,5,928,B,47.35754731136117,35.37779130663924,2.3678773655680585,0.5557130463458535,B,1120.145416000014,Correct,sub_009_day_05_data.csv,1,300,37.0,Training at home,,,,,,,,,,,,,
9,5,929,B,37.71607864990234,25.03852585807065,1.885803932495117,0.3933042444621641,B,1140.4822069998772,Correct,sub_009_day_05_data.csv,1,300,37.0,Training at home,,,,,,,,,,,,,
9,5,930,B,65.51196136994392,46.56781892894746,3.2755980684971964,0.7314855892044052,B,1280.5507499997475,Correct,sub_009_day_05_data.csv,1,300,37.0,Training at home,,,,,,,,,,,,,
9,5,931,B,49.25903227503936,23.32920634976137,2.462951613751968,0.3664543164124534,B,918.4114159997988,Correct,sub_009_day_05_data.csv,1,300,37.0,Training at home,,,,,,,,,,,,,
9,5,932,B,57.308769145849965,26.861383989333586,2.8654384572924982,0.4219376330307243,B,690.6592489999639,Correct,sub_009_day_05_data.csv,1,300,37.0,Training at home,,,,,,,,,,,,,
9,5,933,B,60.95212232567836,37.53813836776256,3.047606116283918,0.589647698628,B,2593.9446239999597,Correct,sub_009_day_05_data.csv,1,300,37.0,Training at home,,,,,,,,,,,,,
9,5,934,B,38.627975982074936,27.999959070795924,1.931398799103747,0.4398223285881368,B,3326.222623999911,Correct,sub_009_day_05_data.csv,1,300,37.0,Training at home,,,,,,,,,,,,,
9,5,935,B,59.412047869308864,40.2827879347608,2.9706023934654433,0.6327605532098003,B,3057.92187499992,Correct,sub_009_day_05_data.csv,1,300,37.0,Training at home,,,,,,,,,,,,,
9,5,936,A,39.866251946678034,57.42213904503726,1.9933125973339016,0.9019848508865034,A,558.6631659998602,Correct,sub_009_day_05_data.csv,1,300,37.0,Training at home,,,,,,,,,,,,,
9,5,937,A,44.13396364732379,55.24340844566991,2.20669818236619,0.8677614306608845,A,739.0822910001589,Correct,sub_009_day_05_data.csv,1,300,37.0,Training at home,,,,,,,,,,,,,
9,5,938,B,51.2127715249687,24.38524365243004,2.560638576248435,0.3830425115723567,B,572.5896660001126,Correct,sub_009_day_05_data.csv,1,300,37.0,Training at home,,,,,,,,,,,,,
9,5,939,A,47.874378670115846,66.51531774249928,2.3937189335057925,1.0448201678551323,A,496.1689579999984,Correct,sub_009_day_05_data.csv,1,300,37.0,Training at home,,,,,,,,,,,,,
9,5,940,A,53.50463875813562,62.575610613461336,2.675231937906781,0.982935392985728,A,1572.3764999997911,Correct,sub_009_day_05_data.csv,1,300,37.0,Training at home,,,,,,,,,,,,,
9,5,941,A,48.933474143269486,70.64863726582463,2.446673707163474,1.1097461991022235,A,1171.9730830000117,Correct,sub_009_day_05_data.csv,1,300,37.0,Training at home,,,,,,,,,,,,,
9,5,942,A,37.18553836291783,65.08377944554725,1.8592769181458917,1.0223336168699482,A,1119.6579580000616,Correct,sub_009_day_05_data.csv,1,300,37.0,Training at home,,,,,,,,,,,,,
9,5,943,A,21.816472964236382,38.33585285104735,1.0908236482118192,0.6021781684297485,A,1362.3120409997682,Correct,sub_009_day_05_data.csv,1,300,37.0,Training at home,,,,,,,,,,,,,
9,5,944,A,54.320684154335694,70.96539277279733,2.7160342077167847,1.1147217829706717,A,581.1240000002726,Correct,sub_009_day_05_data.csv,1,300,37.0,Training at home,,,,,,,,,,,,,
9,5,945,A,60.46774471421806,81.37842963112107,3.023387235710903,1.2782893834490194,A,1361.750124000082,Correct,sub_009_day_05_data.csv,1,300,37.0,Training at home,,,,,,,,,,,,,
9,5,946,B,60.61531601582323,52.11689795673607,3.030765800791162,0.8186503187438546,A,472.67629099997066,Incorrect,sub_009_day_05_data.csv,0,300,37.0,Training at home,,,,,,,,,,,,,
9,5,947,A,65.53777228312094,83.71646119165763,3.2768886141560474,1.3150150973212331,A,560.9336659999826,Correct,sub_009_day_05_data.csv,1,300,37.0,Training at home,,,,,,,,,,,,,
9,5,948,B,83.48020794597684,69.15259295841234,4.174010397298843,1.0862463900741677,A,2305.2649989999736,Incorrect,sub_009_day_05_data.csv,0,300,37.0,Training at home,,,,,,,,,,,,,
9,5,949,A,20.35927064653795,35.544655828511566,1.0179635323268976,0.5583341481261479,A,430.777333000151,Correct,sub_009_day_05_data.csv,1,300,37.0,Training at home,,,,,,,,,,,,,
9,5,950,B,40.54016325943296,14.80126200868364,2.027008162971648,0.2324976799516911,B,544.0774160001638,Correct,sub_009_day_05_data.csv,1,300,38.0,Training at home,,,,,,,,,,,,,
9,5,951,B,64.03123646689947,38.58949125482832,3.201561823344974,0.6061623111596811,B,1780.6122080000932,Correct,sub_009_day_05_data.csv,1,300,38.0,Training at home,,,,,,,,,,,,,
9,5,952,B,42.236844558114555,15.172546347345502,2.111842227905728,0.2383298007053564,B,937.6872500001808,Correct,sub_009_day_05_data.csv,1,300,38.0,Training at home,,,,,,,,,,,,,
9,5,953,A,12.539131431243488,34.486591684903566,0.6269565715621743,0.5417141154232193,A,594.2558750002718,Correct,sub_009_day_05_data.csv,1,300,38.0,Training at home,,,,,,,,,,,,,
9,5,954,B,54.53475647703169,46.720866095596705,2.7267378238515847,0.7338896484763953,B,4340.263083000082,Correct,sub_009_day_05_data.csv,1,300,38.0,Training at home,,,,,,,,,,,,,
9,5,955,A,40.69515316663711,64.41403805842975,2.0347576583318556,1.011813343762081,A,707.8638329999194,Correct,sub_009_day_05_data.csv,1,300,38.0,Training at home,,,,,,,,,,,,,
9,5,956,B,39.36335448031187,24.78144148877891,1.9681677240155937,0.3892659726325656,B,760.5184159997407,Correct,sub_009_day_05_data.csv,1,300,38.0,Training at home,,,,,,,,,,,,,
9,5,957,A,22.32809087701223,49.3962283351667,1.1164045438506114,0.7759141402640184,A,409.8282069999186,Correct,sub_009_day_05_data.csv,1,300,38.0,Training at home,,,,,,,,,,,,,
9,5,958,B,57.78971936638917,46.79385732196945,2.889485968319458,0.7350361919791407,B,1009.8545409996404,Correct,sub_009_day_05_data.csv,1,300,38.0,Training at home,,,,,,,,,,,,,
9,5,959,A,50.61881498802771,77.62215609713468,2.5309407494013856,1.2192859767527924,A,523.2980830000997,Correct,sub_009_day_05_data.csv,1,300,38.0,Training at home,,,,,,,,,,,,,
9,5,960,B,64.04571246838115,51.78263885556612,3.202285623419058,0.8133997890606993,B,889.9604160001218,Correct,sub_009_day_05_data.csv,1,300,38.0,Training at home,,,,,,,,,,,,,
9,5,961,A,39.88275544841262,68.52015615047861,1.9941377724206308,1.0763120959258454,A,629.5423739998114,Correct,sub_009_day_05_data.csv,1,300,38.0,Training at home,,,,,,,,,,,,,
9,5,962,A,36.138055542834714,65.17420503069573,1.8069027771417356,1.0237540186399432,A,629.4769159999305,Correct,sub_009_day_05_data.csv,1,300,38.0,Training at home,,,,,,,,,,,,,
9,5,963,B,87.67697211643006,64.37818368774266,4.383848605821504,1.011250144624333,B,658.8362489997053,Correct,sub_009_day_05_data.csv,1,300,38.0,Training at home,,,,,,,,,,,,,
9,5,964,A,29.531914506560497,39.795603783752966,1.4765957253280246,0.6251078824610425,A,1873.653041000125,Correct,sub_009_day_05_data.csv,1,300,38.0,Training at home,,,,,,,,,,,,,
9,5,965,B,41.99382390581164,16.00093787444745,2.099691195290582,0.251342144384554,B,722.6267500000176,Correct,sub_009_day_05_data.csv,1,300,38.0,Training at home,,,,,,,,,,,,,
9,5,966,B,47.614031038824905,32.37684264867158,2.3807015519412453,0.5085742550574966,B,1132.1481240001958,Correct,sub_009_day_05_data.csv,1,300,38.0,Training at home,,,,,,,,,,,,,
9,5,967,A,43.14600551343263,66.4877564958082,2.157300275671631,1.0443872368044904,A,602.5213739999344,Correct,sub_009_day_05_data.csv,1,300,38.0,Training at home,,,,,,,,,,,,,
9,5,968,A,19.9942998274874,48.90586991433063,0.99971499137437,0.7682116082013959,A,468.97512400028063,Correct,sub_009_day_05_data.csv,1,300,38.0,Training at home,,,,,,,,,,,,,
9,5,969,B,52.04753061390902,37.45273754083439,2.602376530695451,0.5883062255755599,B,696.2641240002085,Correct,sub_009_day_05_data.csv,1,300,38.0,Training at home,,,,,,,,,,,,,
9,5,970,A,50.97025058206766,79.67554644552754,2.548512529103383,1.2515405569201083,A,588.8622909997139,Correct,sub_009_day_05_data.csv,1,300,38.0,Training at home,,,,,,,,,,,,,
9,5,971,B,56.721727312888035,39.33839893251699,2.8360863656444018,0.6179261254518997,B,764.9314579998645,Correct,sub_009_day_05_data.csv,1,300,38.0,Training at home,,,,,,,,,,,,,
9,5,972,B,48.422146264505656,31.16728460076265,2.421107313225283,0.4895745616704911,B,587.389957999676,Correct,sub_009_day_05_data.csv,1,300,38.0,Training at home,,,,,,,,,,,,,
9,5,973,B,61.13216115674279,41.27055644424271,3.0566080578371397,0.6482763846739789,B,844.6472489999906,Correct,sub_009_day_05_data.csv,1,300,38.0,Training at home,,,,,,,,,,,,,
9,5,974,A,46.1916629859615,60.61660476873387,2.309583149298075,0.9521634011350518,A,593.8564159996531,Correct,sub_009_day_05_data.csv,1,300,38.0,Training at home,,,,,,,,,,,,,
9,5,975,B,61.88760245227009,35.072010755987165,3.0943801226135044,0.5509098566881575,B,584.2031239999415,Correct,sub_009_day_05_data.csv,1,300,39.0,Training at home,,,,,,,,,,,,,
9,5,976,B,52.42469082419221,23.0397913476908,2.6212345412096103,0.3619081961907355,B,848.1272079998234,Correct,sub_009_day_05_data.csv,1,300,39.0,Training at home,,,,,,,,,,,,,
9,5,977,A,67.12949730133536,86.07761877918111,3.3564748650667684,1.352104073975891,A,862.4272080000992,Correct,sub_009_day_05_data.csv,1,300,39.0,Training at home,,,,,,,,,,,,,
9,5,978,B,75.24510101199964,54.54525673415219,3.7622550505999817,0.8567948892209085,B,904.6564569998736,Correct,sub_009_day_05_data.csv,1,300,39.0,Training at home,,,,,,,,,,,,,
9,5,979,A,39.791717693691126,59.78199246627016,1.989585884684556,0.9390533417449736,A,721.2072909997005,Correct,sub_009_day_05_data.csv,1,300,39.0,Training at home,,,,,,,,,,,,,
9,5,980,B,45.59745438340711,19.92895785783817,2.279872719170356,0.3130433379994249,B,777.0413319999534,Correct,sub_009_day_05_data.csv,1,300,39.0,Training at home,,,,,,,,,,,,,
9,5,981,B,60.567237926874874,43.20103419543546,3.0283618963437435,0.6786002582793075,B,953.493083000012,Correct,sub_009_day_05_data.csv,1,300,39.0,Training at home,,,,,,,,,,,,,
9,5,982,B,87.09595635631209,68.42113269846831,4.354797817815604,1.0747566391790022,B,906.7711659999986,Correct,sub_009_day_05_data.csv,1,300,39.0,Training at home,,,,,,,,,,,,,
9,5,983,B,70.55927609826439,58.01515887695973,3.5279638049132194,0.9112999846235068,B,2250.111000000288,Correct,sub_009_day_05_data.csv,1,300,39.0,Training at home,,,,,,,,,,,,,
9,5,984,A,36.59600568668375,48.890515066990446,1.8298002843341876,0.7679704148233915,A,1068.020166000224,Correct,sub_009_day_05_data.csv,1,300,39.0,Training at home,,,,,,,,,,,,,
9,5,985,A,25.51582211018173,36.80200365016141,1.2757911055090865,0.5780845215236592,B,1203.0095000000074,Incorrect,sub_009_day_05_data.csv,0,300,39.0,Training at home,,,,,,,,,,,,,
9,5,986,A,47.7178298827631,60.56265222450467,2.3858914941381553,0.9513159165520868,A,601.328206999824,Correct,sub_009_day_05_data.csv,1,300,39.0,Training at home,,,,,,,,,,,,,
9,5,987,B,32.397798118819004,20.140121487088777,1.6198899059409502,0.3163602885312201,B,788.2463739997547,Correct,sub_009_day_05_data.csv,1,300,39.0,Training at home,,,,,,,,,,,,,
9,5,988,B,34.85634912840955,16.028192806103974,1.7428174564204773,0.2517702638498851,B,789.2219579998709,Correct,sub_009_day_05_data.csv,1,300,39.0,Training at home,,,,,,,,,,,,,
9,5,989,A,30.370694279121963,58.27376476292222,1.518534713956098,0.915362156381081,A,934.8269990000516,Correct,sub_009_day_05_data.csv,1,300,39.0,Training at home,,,,,,,,,,,,,
9,5,990,A,62.19761291249328,86.85963784552726,3.1098806456246644,1.364388000744892,A,784.0110410002126,Correct,sub_009_day_05_data.csv,1,300,39.0,Training at home,,,,,,,,,,,,,
9,5,991,B,79.09158346083603,55.060087064781165,3.9545791730418016,0.8648818251436545,B,1118.937623999955,Correct,sub_009_day_05_data.csv,1,300,39.0,Training at home,,,,,,,,,,,,,
9,5,992,B,44.15823285771501,17.553210778223832,2.20791164288575,0.2757251901389058,B,790.7461240001794,Correct,sub_009_day_05_data.csv,1,300,39.0,Training at home,,,,,,,,,,,,,
9,5,993,A,34.85551106294106,44.2376992347493,1.742775553147053,0.6948841546380161,A,7040.082958000312,Correct,sub_009_day_05_data.csv,1,300,39.0,Training at home,,,,,,,,,,,,,
9,5,994,B,56.36262219078417,40.96745848386925,2.8181311095392085,0.6435153330458423,B,581.1579569999594,Correct,sub_009_day_05_data.csv,1,300,39.0,Training at home,,,,,,,,,,,,,
9,5,995,B,34.0827852274156,12.140530639297427,1.70413926137078,0.1907030093354929,B,666.8462910001836,Correct,sub_009_day_05_data.csv,1,300,39.0,Training at home,,,,,,,,,,,,,
9,5,996,B,69.52079569164677,58.46986640092566,3.4760397845823383,0.9184425137076236,B,1334.6480410000368,Correct,sub_009_day_05_data.csv,1,300,39.0,Training at home,,,,,,,,,,,,,
9,5,997,A,54.368055700643126,72.93180996808628,2.7184027850321564,1.1456101920437336,A,828.0063740003243,Correct,sub_009_day_05_data.csv,1,300,39.0,Training at home,,,,,,,,,,,,,
9,5,998,B,63.78459981375072,48.20029424109276,3.189229990687536,0.7571284514434173,B,1739.1207489999942,Correct,sub_009_day_05_data.csv,1,300,39.0,Training at home,,,,,,,,,,,,,
9,5,999,A,61.10791445783268,71.39600576635422,3.055395722891634,1.1214858360561648,A,1817.8438739996636,Correct,sub_009_day_05_data.csv,1,300,39.0,Training at home,,,,,,,,,,,,,
9,5,1000,B,62.997213298442986,29.90911164139625,3.1498606649221497,0.4698112270400371,B,3042.294915999719,Correct,sub_009_day_05_data.csv,1,300,40.0,Training at home,,,,,,,,,,,,,
9,5,1001,A,42.539683806919506,58.11360323466852,2.126984190345975,0.9128463449783332,A,2246.3947909996023,Correct,sub_009_day_05_data.csv,1,300,40.0,Training at home,,,,,,,,,,,,,
9,5,1002,A,12.968978894790816,30.08543046632202,0.6484489447395407,0.472580836665419,A,3038.1356660000165,Correct,sub_009_day_05_data.csv,1,300,40.0,Training at home,,,,,,,,,,,,,
9,5,1003,B,75.28690060665842,63.536212984753824,3.764345030332921,0.998024499749095,B,1454.4614159999585,Correct,sub_009_day_05_data.csv,1,300,40.0,Training at home,,,,,,,,,,,,,
9,5,1004,B,66.09965365693613,45.67757438813044,3.3049826828468065,0.7175016606577593,B,1176.3632490001328,Correct,sub_009_day_05_data.csv,1,300,40.0,Training at home,,,,,,,,,,,,,
9,5,1005,A,60.44791867097449,79.51695636326264,3.0223959335487245,1.2490494297332302,A,1462.9491660002714,Correct,sub_009_day_05_data.csv,1,300,40.0,Training at home,,,,,,,,,,,,,
9,5,1006,B,73.8395834992417,52.70259971491121,3.691979174962085,0.827850500447243,B,1654.2250819998117,Correct,sub_009_day_05_data.csv,1,300,40.0,Training at home,,,,,,,,,,,,,
9,5,1007,B,60.55453825829245,30.069716915737544,3.0277269129146225,0.472334008790029,B,1105.6831239998246,Correct,sub_009_day_05_data.csv,1,300,40.0,Training at home,,,,,,,,,,,,,
9,5,1008,A,55.65505295859764,72.84255076476936,2.782752647929882,1.144208111756705,A,476.4854989998639,Correct,sub_009_day_05_data.csv,1,300,40.0,Training at home,,,,,,,,,,,,,
9,5,1009,B,36.728987632292984,19.22374262321714,1.8364493816146492,0.3019658429979998,B,2002.9455820003932,Correct,sub_009_day_05_data.csv,1,300,40.0,Training at home,,,,,,,,,,,,,
9,5,1010,A,36.13395711808611,44.41991744017097,1.806697855904306,0.6977464315155313,A,3780.815249999705,Correct,sub_009_day_05_data.csv,1,300,40.0,Training at home,,,,,,,,,,,,,
9,5,1011,B,38.332099600314535,19.34348681994704,1.9166049800157268,0.303846780441783,B,1172.3816240000815,Correct,sub_009_day_05_data.csv,1,300,40.0,Training at home,,,,,,,,,,,,,
9,5,1012,B,54.956578471790245,30.634437661668343,2.7478289235895126,0.4812046215237587,B,738.9271659999395,Correct,sub_009_day_05_data.csv,1,300,40.0,Training at home,,,,,,,,,,,,,
9,5,1013,A,20.313130268760354,44.474025638432494,1.0156565134380175,0.6985963611063182,A,873.759790999884,Correct,sub_009_day_05_data.csv,1,300,40.0,Training at home,,,,,,,,,,,,,
9,5,1014,B,59.72661167607262,31.45804226681796,2.986330583803631,0.4941417724087625,B,991.5167490003114,Correct,sub_009_day_05_data.csv,1,300,40.0,Training at home,,,,,,,,,,,,,
9,5,1015,B,65.4954455251655,52.68715895295534,3.274772276258275,0.827607957525611,B,1165.7575819999693,Correct,sub_009_day_05_data.csv,1,300,40.0,Training at home,,,,,,,,,,,,,
9,5,1016,B,53.28107533808496,21.82306221338747,2.664053766904248,0.3427958596420554,B,680.577123999683,Correct,sub_009_day_05_data.csv,1,300,40.0,Training at home,,,,,,,,,,,,,
9,5,1017,A,23.033491129453875,36.979402190652095,1.1516745564726938,0.5808710912814746,A,653.8706239998646,Correct,sub_009_day_05_data.csv,1,300,40.0,Training at home,,,,,,,,,,,,,
9,5,1018,A,45.82143587404113,67.47774108455778,2.2910717937020566,1.0599378783604043,B,1059.9637909999728,Incorrect,sub_009_day_05_data.csv,0,300,40.0,Training at home,,,,,,,,,,,,,
9,5,1019,A,34.56922581335748,55.58825632986148,1.728461290667874,0.8731782885587956,A,1032.993040999827,Correct,sub_009_day_05_data.csv,1,300,40.0,Training at home,,,,,,,,,,,,,
9,5,1020,B,56.80145572579041,35.55918514110844,2.8400727862895208,0.5585623740347281,B,1251.985416000025,Correct,sub_009_day_05_data.csv,1,300,40.0,Training at home,,,,,,,,,,,,,
9,5,1021,B,42.2180303692537,16.28138987489638,2.110901518462685,0.2557474741060285,B,666.5103740001541,Correct,sub_009_day_05_data.csv,1,300,40.0,Training at home,,,,,,,,,,,,,
9,5,1022,A,19.626562908962622,35.84058348451346,0.9813281454481312,0.5629825688765958,A,899.5412069998565,Correct,sub_009_day_05_data.csv,1,300,40.0,Training at home,,,,,,,,,,,,,
9,5,1023,A,59.56134244899532,76.02927527480963,2.978067122449766,1.1942650633054903,A,975.5092069999592,Correct,sub_009_day_05_data.csv,1,300,40.0,Training at home,,,,,,,,,,,,,
9,5,1024,B,73.09613084824701,57.196154990022,3.654806542412351,0.8984351016511816,B,604.9942909999118,Correct,sub_009_day_05_data.csv,1,300,40.0,Training at home,,,,,,,,,,,,,
9,5,1025,A,58.74413192084792,67.35914816946608,2.9372065960423956,1.058075025206305,A,1250.8229569998548,Correct,sub_009_day_05_data.csv,1,300,41.0,Training at home,,,,,,,,,,,,,
9,5,1026,A,53.60227613820645,70.90021725337542,2.680113806910322,1.1136980083056225,A,1300.0046239999392,Correct,sub_009_day_05_data.csv,1,300,41.0,Training at home,,,,,,,,,,,,,
9,5,1027,B,83.75232770807136,68.59246551659257,4.187616385403568,1.077447928792692,B,1065.0611249998292,Correct,sub_009_day_05_data.csv,1,300,41.0,Training at home,,,,,,,,,,,,,
9,5,1028,A,40.51453270019614,70.34757234241306,2.025726635009807,1.1050170823440069,A,1233.5729999999785,Correct,sub_009_day_05_data.csv,1,300,41.0,Training at home,,,,,,,,,,,,,
9,5,1029,A,39.639034867657784,59.163343748307774,1.9819517433828893,0.9293356304074566,A,979.2960409999978,Correct,sub_009_day_05_data.csv,1,300,41.0,Training at home,,,,,,,,,,,,,
9,5,1030,A,45.63924197685351,77.41399586479878,2.281962098842675,1.2160162034694122,A,703.4818739998627,Correct,sub_009_day_05_data.csv,1,300,41.0,Training at home,,,,,,,,,,,,,
9,5,1031,A,27.670054259911243,40.5345019398021,1.3835027129955622,0.6367144675550175,A,992.4460410002212,Correct,sub_009_day_05_data.csv,1,300,41.0,Training at home,,,,,,,,,,,,,
9,5,1032,B,33.92256796701714,20.42745317103787,1.6961283983508568,0.3208736840684105,B,1400.70116600009,Correct,sub_009_day_05_data.csv,1,300,41.0,Training at home,,,,,,,,,,,,,
9,5,1033,A,52.34617267655497,63.0322301030057,2.6173086338277485,0.9901079551549208,A,611.3603320000038,Correct,sub_009_day_05_data.csv,1,300,41.0,Training at home,,,,,,,,,,,,,
9,5,1034,B,60.32178842495245,52.54399790753305,3.0160894212476226,0.8253591890827163,B,3024.8946239998986,Correct,sub_009_day_05_data.csv,1,300,41.0,Training at home,,,,,,,,,,,,,
9,5,1035,A,41.70117656763392,67.50367007978315,2.085058828381696,1.0603451700649793,A,950.4154159999416,Correct,sub_009_day_05_data.csv,1,300,41.0,Training at home,,,,,,,,,,,,,
9,5,1036,A,52.34264038793222,74.20374977162136,2.6171320193966108,1.1655897757567046,A,960.0901660001,Correct,sub_009_day_05_data.csv,1,300,41.0,Training at home,,,,,,,,,,,,,
9,5,1037,A,43.859056705118114,71.86653837281835,2.192952835255906,1.1288769449548754,A,718.7415829998827,Correct,sub_009_day_05_data.csv,1,300,41.0,Training at home,,,,,,,,,,,,,
9,5,1038,A,18.85919085912468,38.46461308911826,0.942959542956234,0.6042007295197386,A,786.7524160001267,Correct,sub_009_day_05_data.csv,1,300,41.0,Training at home,,,,,,,,,,,,,
9,5,1039,B,51.95199518646149,42.36640999911486,2.5975997593230744,0.6654900120609619,B,1561.5695410001535,Correct,sub_009_day_05_data.csv,1,300,41.0,Training at home,,,,,,,,,,,,,
9,5,1040,A,44.24708453718682,73.83439626521667,2.212354226859341,1.1597879844452117,A,583.9882489999582,Correct,sub_009_day_05_data.csv,1,300,41.0,Training at home,,,,,,,,,,,,,
9,5,1041,B,74.92851472748175,48.1261018198454,3.7464257363740874,0.7559630396157034,B,588.3307910003168,Correct,sub_009_day_05_data.csv,1,300,41.0,Training at home,,,,,,,,,,,,,
9,5,1042,B,62.85186579171387,35.7774814213142,3.142593289585694,0.56199136398573,B,1045.0787909999235,Correct,sub_009_day_05_data.csv,1,300,41.0,Training at home,,,,,,,,,,,,,
9,5,1043,A,60.131531807565466,78.38255443945873,3.0065765903782733,1.231230285983028,A,777.9998329997397,Correct,sub_009_day_05_data.csv,1,300,41.0,Training at home,,,,,,,,,,,,,
9,5,1044,A,33.119569259036986,62.31461412913448,1.6559784629518493,0.978835669796858,A,708.1776660002106,Correct,sub_009_day_05_data.csv,1,300,41.0,Training at home,,,,,,,,,,,,,
9,5,1045,B,82.90545289014334,65.89461894264721,4.145272644507167,1.0350702539065966,B,479.74599999997736,Correct,sub_009_day_05_data.csv,1,300,41.0,Training at home,,,,,,,,,,,,,
9,5,1046,A,50.802986931615834,67.37370181233399,2.5401493465807916,1.058303633293889,A,591.9621240000197,Correct,sub_009_day_05_data.csv,1,300,41.0,Training at home,,,,,,,,,,,,,
9,5,1047,B,83.59719371281324,64.06770736153351,4.179859685640662,1.0063731938966718,B,650.0763740000366,Correct,sub_009_day_05_data.csv,1,300,41.0,Training at home,,,,,,,,,,,,,
9,5,1048,B,71.41103705723103,52.5892984274882,3.5705518528615516,0.8260707679861911,B,1039.3317069997463,Correct,sub_009_day_05_data.csv,1,300,41.0,Training at home,,,,,,,,,,,,,
9,5,1049,B,55.40731748141698,25.996515188617416,2.770365874070849,0.4083523056774797,B,720.0928329998533,Correct,sub_009_day_05_data.csv,1,300,41.0,Training at home,,,,,,,,,,,,,
9,5,1050,A,52.065872258564994,70.26294906104066,2.6032936129282493,1.103687822948596,A,763.0461660000947,Correct,sub_009_day_05_data.csv,1,300,42.0,Training at home,,,,,,,,,,,,,
9,5,1051,A,28.818722171752206,46.582093747585375,1.4409361085876102,0.7317098175312263,A,663.2269990000168,Correct,sub_009_day_05_data.csv,1,300,42.0,Training at home,,,,,,,,,,,,,
9,5,1052,A,59.655153946758745,85.65211934885536,2.982757697337937,1.3454203445538009,A,812.0229159999326,Correct,sub_009_day_05_data.csv,1,300,42.0,Training at home,,,,,,,,,,,,,
9,5,1053,A,47.71440836504274,68.43692779450228,2.385720418252137,1.0750047479673177,A,557.7698750003037,Correct,sub_009_day_05_data.csv,1,300,42.0,Training at home,,,,,,,,,,,,,
9,5,1054,A,48.91885737117339,72.50617677145438,2.445942868558669,1.13892436142542,A,707.3851659997672,Correct,sub_009_day_05_data.csv,1,300,42.0,Training at home,,,,,,,,,,,,,
9,5,1055,A,38.58809129152982,53.91420890975839,1.929404564576491,0.8468824131750117,A,3107.605166000212,Correct,sub_009_day_05_data.csv,1,300,42.0,Training at home,,,,,,,,,,,,,
9,5,1056,B,33.19847478416125,16.231332832300236,1.6599237392080624,0.2549611799196261,B,661.8462069995985,Correct,sub_009_day_05_data.csv,1,300,42.0,Training at home,,,,,,,,,,,,,
9,5,1057,B,43.97836488741568,27.465043537548674,2.198918244370784,0.4314198950404336,B,514.1569160000472,Correct,sub_009_day_05_data.csv,1,300,42.0,Training at home,,,,,,,,,,,,,
9,5,1058,A,53.950080224353314,77.72552475533828,2.697504011217666,1.220909687838912,A,1754.571790999762,Correct,sub_009_day_05_data.csv,1,300,42.0,Training at home,,,,,,,,,,,,,
9,5,1059,B,34.035130471318794,10.3270512606268,1.7017565235659395,0.1622169418681518,B,685.0195410002016,Correct,sub_009_day_05_data.csv,1,300,42.0,Training at home,,,,,,,,,,,,,
9,5,1060,B,77.97452511625313,66.21295089093681,3.898726255812656,1.040070600457344,B,565.588082999966,Correct,sub_009_day_05_data.csv,1,300,42.0,Training at home,,,,,,,,,,,,,
9,5,1061,B,46.51312220576648,26.775976317893885,2.325656110288324,0.4205960524649486,B,585.8302080000612,Correct,sub_009_day_05_data.csv,1,300,42.0,Training at home,,,,,,,,,,,,,
9,5,1062,A,32.52054382293507,46.86562050049022,1.6260271911467532,0.7361634453513364,B,1199.5331660000377,Incorrect,sub_009_day_05_data.csv,0,300,42.0,Training at home,,,,,,,,,,,,,
9,5,1063,B,35.40305808139915,19.800322251555116,1.7701529040699575,0.3110227346209803,B,530.1920829997471,Correct,sub_009_day_05_data.csv,1,300,42.0,Training at home,,,,,,,,,,,,,
9,5,1064,B,57.51132831767456,44.84403633108505,2.8755664158837284,0.7044084754752529,B,1760.988998999892,Correct,sub_009_day_05_data.csv,1,300,42.0,Training at home,,,,,,,,,,,,,
9,5,1065,B,81.73170470643626,58.30529205955539,4.086585235321813,0.9158573859985326,B,1070.3582070000266,Correct,sub_009_day_05_data.csv,1,300,42.0,Training at home,,,,,,,,,,,,,
9,5,1066,B,80.32491104171775,63.22065190628881,4.016245552085888,0.9930676779197724,B,1746.962290999818,Correct,sub_009_day_05_data.csv,1,300,42.0,Training at home,,,,,,,,,,,,,
9,5,1067,B,73.13163021296937,51.38054454866641,3.656581510648469,0.8070837064576675,B,1152.324375000262,Correct,sub_009_day_05_data.csv,1,300,42.0,Training at home,,,,,,,,,,,,,
9,5,1068,A,59.183191816888545,69.29421960197107,2.9591595908444273,1.0884710561889506,A,2617.951040999742,Correct,sub_009_day_05_data.csv,1,300,42.0,Training at home,,,,,,,,,,,,,
9,5,1069,B,59.37536440342283,26.815362033050516,2.968768220171142,0.4212147218319108,B,496.46500000017113,Correct,sub_009_day_05_data.csv,1,300,42.0,Training at home,,,,,,,,,,,,,
9,5,1070,B,68.71097731017763,51.40062418701545,3.4355488655088813,0.807399116679288,B,586.7733739996766,Correct,sub_009_day_05_data.csv,1,300,42.0,Training at home,,,,,,,,,,,,,
9,5,1071,A,28.172948364561577,39.19435967727654,1.408647418228079,0.6156635621214399,A,667.1804990000965,Correct,sub_009_day_05_data.csv,1,300,42.0,Training at home,,,,,,,,,,,,,
9,5,1072,B,48.585334595845616,35.98916055692351,2.4292667297922805,0.5653164120724722,B,476.1802500001977,Correct,sub_009_day_05_data.csv,1,300,42.0,Training at home,,,,,,,,,,,,,
9,5,1073,B,64.93574172396401,50.272356290759575,3.246787086198201,0.7896763260084945,B,1739.727706999929,Correct,sub_009_day_05_data.csv,1,300,42.0,Training at home,,,,,,,,,,,,,
9,5,1074,A,47.09803628493318,72.08456758638427,2.354901814246659,1.132301739832909,A,951.9714989996828,Correct,sub_009_day_05_data.csv,1,300,42.0,Training at home,,,,,,,,,,,,,
9,5,1075,B,47.527235403830126,26.63885695887231,2.3763617701915063,0.4184421866101129,B,472.2299159998329,Correct,sub_009_day_05_data.csv,1,300,43.0,Training at home,,,,,,,,,,,,,
9,5,1076,A,54.98280577519262,64.50808163861315,2.749140288759631,1.0132905768651883,A,943.2814990000224,Correct,sub_009_day_05_data.csv,1,300,43.0,Training at home,,,,,,,,,,,,,
9,5,1077,B,50.04791181890953,31.031372340010805,2.502395590945477,0.4874396568709372,B,692.7455409995673,Correct,sub_009_day_05_data.csv,1,300,43.0,Training at home,,,,,,,,,,,,,
9,5,1078,B,72.41161550020193,54.91516006355385,3.620580775010097,0.8626053171318417,B,649.9840830001631,Correct,sub_009_day_05_data.csv,1,300,43.0,Training at home,,,,,,,,,,,,,
9,5,1079,A,29.647734363590388,55.76757435080748,1.4823867181795194,0.8759950094450967,A,888.3557909998672,Correct,sub_009_day_05_data.csv,1,300,43.0,Training at home,,,,,,,,,,,,,
9,5,1080,B,85.36228103386532,59.41063359965646,4.268114051693265,0.9332200503089784,B,692.9804159999549,Correct,sub_009_day_05_data.csv,1,300,43.0,Training at home,,,,,,,,,,,,,
9,5,1081,A,33.789887942226876,43.87878751879352,1.6894943971113436,0.689246382587346,A,736.1230410001554,Correct,sub_009_day_05_data.csv,1,300,43.0,Training at home,,,,,,,,,,,,,
9,5,1082,A,30.10329345678018,44.62932465626752,1.5051646728390091,0.7010357923740194,A,1125.4420820000632,Correct,sub_009_day_05_data.csv,1,300,43.0,Training at home,,,,,,,,,,,,,
9,5,1083,A,54.93567772473581,78.52899737395512,2.7467838862367904,1.2335306062189475,A,843.7423329996818,Correct,sub_009_day_05_data.csv,1,300,43.0,Training at home,,,,,,,,,,,,,
9,5,1084,B,65.62193117356044,37.31020616105421,3.281096558678022,0.5860673478974429,B,843.2407489999605,Correct,sub_009_day_05_data.csv,1,300,43.0,Training at home,,,,,,,,,,,,,
9,5,1085,A,50.142846064659295,70.4642807843003,2.507142303232965,1.1068503342622311,A,840.195415999915,Correct,sub_009_day_05_data.csv,1,300,43.0,Training at home,,,,,,,,,,,,,
9,5,1086,B,70.65262680941659,47.005906854820765,3.532631340470829,0.7383670582521549,B,514.1107910003484,Correct,sub_009_day_05_data.csv,1,300,43.0,Training at home,,,,,,,,,,,,,
9,5,1087,A,46.79198541922554,66.83544754770742,2.339599270961277,1.0498487550763178,A,1420.0992069995664,Correct,sub_009_day_05_data.csv,1,300,43.0,Training at home,,,,,,,,,,,,,
9,5,1088,A,46.20905539603847,66.43533462801122,2.3104527698019237,1.0435637960306985,A,850.9007080001538,Correct,sub_009_day_05_data.csv,1,300,43.0,Training at home,,,,,,,,,,,,,
9,5,1089,A,31.693750670411745,59.5464571811043,1.5846875335205874,0.9353535621372824,B,1098.702081999818,Incorrect,sub_009_day_05_data.csv,0,300,43.0,Training at home,,,,,,,,,,,,,
9,5,1090,B,35.66524334477501,24.94566118230551,1.7832621672387503,0.3918455295463554,B,693.5187069998392,Correct,sub_009_day_05_data.csv,1,300,43.0,Training at home,,,,,,,,,,,,,
9,5,1091,A,60.91044407744675,70.69826036946914,3.0455222038723373,1.1105256769915135,A,755.1324579999346,Correct,sub_009_day_05_data.csv,1,300,43.0,Training at home,,,,,,,,,,,,,
9,5,1092,A,54.1051020289712,79.70780916739629,2.70525510144856,1.2520473385701467,A,821.0658749999311,Correct,sub_009_day_05_data.csv,1,300,43.0,Training at home,,,,,,,,,,,,,
9,5,1093,A,37.31582119437616,60.63204326173755,1.865791059718808,0.952405908416066,A,977.993915999832,Correct,sub_009_day_05_data.csv,1,300,43.0,Training at home,,,,,,,,,,,,,
9,5,1094,B,48.96772599991221,21.35558600894918,2.4483862999956103,0.3354527605940986,B,507.0625409998683,Correct,sub_009_day_05_data.csv,1,300,43.0,Training at home,,,,,,,,,,,,,
9,5,1095,A,20.11213561187495,42.272438218835994,1.0056067805937474,0.6640139067881177,A,791.6710829999829,Correct,sub_009_day_05_data.csv,1,300,43.0,Training at home,,,,,,,,,,,,,
9,5,1096,A,48.40087047455172,55.317588055232235,2.420043523727586,0.8689266412431205,A,6643.166249999922,Correct,sub_009_day_05_data.csv,1,300,43.0,Training at home,,,,,,,,,,,,,
9,5,1097,A,56.31661695431089,70.4046101493891,2.8158308477155445,1.1059130301208708,A,800.7188329997916,Correct,sub_009_day_05_data.csv,1,300,43.0,Training at home,,,,,,,,,,,,,
9,5,1098,A,42.1103398324345,52.013190006644784,2.105516991621725,0.8170212780732263,A,745.1635819998046,Correct,sub_009_day_05_data.csv,1,300,43.0,Training at home,,,,,,,,,,,,,
9,5,1099,A,49.28953952587001,59.81995624802306,2.4644769762935006,0.9396496754342604,A,864.2384579998179,Correct,sub_009_day_05_data.csv,1,300,43.0,Training at home,,,,,,,,,,,,,
9,5,1100,A,27.56470452110338,59.79640785765547,1.378235226055169,0.939279778183347,A,2211.413625000205,Correct,sub_009_day_05_data.csv,1,300,44.0,Training at home,,,,,,,,,,,,,
9,5,1101,B,52.45207740195555,33.882337525754146,2.622603870097777,0.532222513286795,B,775.3093750002336,Correct,sub_009_day_05_data.csv,1,300,44.0,Training at home,,,,,,,,,,,,,
9,5,1102,A,26.824371659179945,54.53649441136071,1.341218582958997,0.856657250976358,A,1491.67958299995,Correct,sub_009_day_05_data.csv,1,300,44.0,Training at home,,,,,,,,,,,,,
9,5,1103,B,78.15476968812149,64.43267282498624,3.907738484406075,1.0121060579906571,B,856.7940829998406,Correct,sub_009_day_05_data.csv,1,300,44.0,Training at home,,,,,,,,,,,,,
9,5,1104,A,45.692112127023016,75.44162870444434,2.284605606351151,1.185034332563656,A,1511.1479159995724,Correct,sub_009_day_05_data.csv,1,300,44.0,Training at home,,,,,,,,,,,,,
9,5,1105,A,27.57108781393471,52.910784845967,1.3785543906967357,0.8311206648388004,A,711.011666000104,Correct,sub_009_day_05_data.csv,1,300,44.0,Training at home,,,,,,,,,,,,,
9,5,1106,A,23.88186105654948,40.09116161514314,1.194093052827474,0.629750494020074,A,501.0277080000378,Correct,sub_009_day_05_data.csv,1,300,44.0,Training at home,,,,,,,,,,,,,
9,5,1107,B,81.20889879169053,67.63045176740435,4.060444939584527,1.0623366521571818,B,635.4852080003184,Correct,sub_009_day_05_data.csv,1,300,44.0,Training at home,,,,,,,,,,,,,
9,5,1108,A,25.18799434139112,52.64106905381474,1.259399717069556,0.826883979082887,A,844.3817489996945,Correct,sub_009_day_05_data.csv,1,300,44.0,Training at home,,,,,,,,,,,,,
9,5,1109,A,19.898101194672336,47.93132040141182,0.9949050597336168,0.7529034202496695,A,932.705833,Correct,sub_009_day_05_data.csv,1,300,44.0,Training at home,,,,,,,,,,,,,
9,5,1110,B,62.37409526041763,42.29612025316997,3.1187047630208813,0.6643859033135462,B,781.6109159998632,Correct,sub_009_day_05_data.csv,1,300,44.0,Training at home,,,,,,,,,,,,,
9,5,1111,A,57.17977774561507,82.37993106771535,2.8589888872807534,1.2940209312278406,A,918.9511250001487,Correct,sub_009_day_05_data.csv,1,300,44.0,Training at home,,,,,,,,,,,,,
9,5,1112,A,61.45793645051353,81.38675707689826,3.0728968225256765,1.2784201906614034,A,772.5500829997145,Correct,sub_009_day_05_data.csv,1,300,44.0,Training at home,,,,,,,,,,,,,
9,5,1113,A,53.17904525046179,78.18423881386849,2.6589522625230892,1.228115151420796,A,1194.5766660001027,Correct,sub_009_day_05_data.csv,1,300,44.0,Training at home,,,,,,,,,,,,,
9,5,1114,A,35.307820321740586,61.72976116093861,1.7653910160870294,0.9696488208552864,A,872.5968740000098,Correct,sub_009_day_05_data.csv,1,300,44.0,Training at home,,,,,,,,,,,,,
9,5,1115,B,71.2690763763234,42.229801753614595,3.5634538188161695,0.6633441747585448,B,542.6094580002427,Correct,sub_009_day_05_data.csv,1,300,44.0,Training at home,,,,,,,,,,,,,
9,5,1116,A,40.44015128175376,62.91461236634736,2.0220075640876876,0.988260420067832,A,868.3881249999104,Correct,sub_009_day_05_data.csv,1,300,44.0,Training at home,,,,,,,,,,,,,
9,5,1117,B,50.9408636877172,34.529339448261425,2.54704318438586,0.5423855957198316,B,606.3144989998364,Correct,sub_009_day_05_data.csv,1,300,44.0,Training at home,,,,,,,,,,,,,
9,5,1118,B,40.148790899187645,29.844379939843968,2.0074395449593823,0.468794423849782,B,556.0368750002453,Correct,sub_009_day_05_data.csv,1,300,44.0,Training at home,,,,,,,,,,,,,
9,5,1119,A,39.94389623451322,62.82444858553764,1.9971948117256608,0.9868441307107736,A,815.1729999999588,Correct,sub_009_day_05_data.csv,1,300,44.0,Training at home,,,,,,,,,,,,,
9,5,1120,B,54.21011653985967,43.03778702626085,2.7105058269929834,0.676035977742316,B,1834.6612499999535,Correct,sub_009_day_05_data.csv,1,300,44.0,Training at home,,,,,,,,,,,,,
9,5,1121,B,82.00756543189186,58.317212026901984,4.100378271594593,0.916044624407768,B,789.8220410002068,Correct,sub_009_day_05_data.csv,1,300,44.0,Training at home,,,,,,,,,,,,,
9,5,1122,B,37.35920069998582,20.533496946572576,1.867960034999291,0.3225394157993043,B,1926.1239990000831,Correct,sub_009_day_05_data.csv,1,300,44.0,Training at home,,,,,,,,,,,,,
9,5,1123,A,54.182334083585275,81.30436240056639,2.7091167041792636,1.2771259381121078,A,1037.9296240002986,Correct,sub_009_day_05_data.csv,1,300,44.0,Training at home,,,,,,,,,,,,,
9,5,1124,A,33.888565464698424,52.1202076306737,1.6944282732349212,0.8187023069804957,A,1446.361707000051,Correct,sub_009_day_05_data.csv,1,300,44.0,Training at home,,,,,,,,,,,,,
9,5,1125,A,62.5153487382579,88.03622520123187,3.125767436912895,1.3828697917098334,A,1240.5407500000365,Correct,sub_009_day_05_data.csv,1,300,45.0,Training at home,,,,,,,,,,,,,
9,5,1126,B,57.08258804579546,25.94590401563696,2.854129402289773,0.4075573072313549,B,646.9256659997882,Correct,sub_009_day_05_data.csv,1,300,45.0,Training at home,,,,,,,,,,,,,
9,5,1127,A,21.695474832087093,37.50915677616216,1.0847737416043546,0.5891924568516942,A,679.849624000326,Correct,sub_009_day_05_data.csv,1,300,45.0,Training at home,,,,,,,,,,,,,
9,5,1128,B,53.276650205600795,26.169921354958618,2.66383251028004,0.4110761633688031,B,943.9737910001896,Correct,sub_009_day_05_data.csv,1,300,45.0,Training at home,,,,,,,,,,,,,
9,5,1129,B,55.32548035225031,48.22103387270344,2.7662740176125156,0.7574542288149486,B,1274.50616599981,Correct,sub_009_day_05_data.csv,1,300,45.0,Training at home,,,,,,,,,,,,,
9,5,1130,A,17.466088961792455,33.72126573089905,0.8733044480896227,0.5296924034497086,A,779.6580829999584,Correct,sub_009_day_05_data.csv,1,300,45.0,Training at home,,,,,,,,,,,,,
9,5,1131,A,21.919602570142864,47.95161798452463,1.095980128507143,0.7532222539396339,A,2161.0475000002225,Correct,sub_009_day_05_data.csv,1,300,45.0,Training at home,,,,,,,,,,,,,
9,5,1132,B,40.058460638058335,15.031337082602487,2.0029230319029168,0.236111690761679,B,611.3775409999107,Correct,sub_009_day_05_data.csv,1,300,45.0,Training at home,,,,,,,,,,,,,
9,5,1133,B,62.615502629717874,36.91821121469193,3.130775131485894,0.5799099056787623,B,525.5183330000364,Correct,sub_009_day_05_data.csv,1,300,45.0,Training at home,,,,,,,,,,,,,
9,5,1134,A,19.629418887383455,38.034714320136686,0.9814709443691728,0.5974478954476395,A,662.7227499998298,Correct,sub_009_day_05_data.csv,1,300,45.0,Training at home,,,,,,,,,,,,,
9,5,1135,B,64.17498437474795,54.80924556385918,3.2087492187373976,0.8609416160610947,B,6242.271873999925,Correct,sub_009_day_05_data.csv,1,300,45.0,Training at home,,,,,,,,,,,,,
9,5,1136,A,53.13854473519616,63.85872537886471,2.656927236759808,1.0030905125892473,A,640.7949990002635,Correct,sub_009_day_05_data.csv,1,300,45.0,Training at home,,,,,,,,,,,,,
9,5,1137,B,60.38909449412723,43.27020662184759,3.0194547247063617,0.6796868162125441,B,722.0725409997613,Correct,sub_009_day_05_data.csv,1,300,45.0,Training at home,,,,,,,,,,,,,
9,5,1138,A,64.89532645850684,83.74397301036029,3.244766322925342,1.315447251958849,A,448.59595800016905,Correct,sub_009_day_05_data.csv,1,300,45.0,Training at home,,,,,,,,,,,,,
9,5,1139,A,52.002511543381544,69.1843109549865,2.600125577169077,1.0867446151992872,B,1465.6352490001154,Incorrect,sub_009_day_05_data.csv,0,300,45.0,Training at home,,,,,,,,,,,,,
9,5,1140,B,78.94288268851061,61.812319778567726,3.9471441344255305,0.9709456485884572,B,646.4557909998803,Correct,sub_009_day_05_data.csv,1,300,45.0,Training at home,,,,,,,,,,,,,
9,5,1141,B,55.93305227704725,41.3566971269827,2.796652613852362,0.6496294793543348,B,694.778832999873,Correct,sub_009_day_05_data.csv,1,300,45.0,Training at home,,,,,,,,,,,,,
9,5,1142,B,39.21306079416741,22.496256573362924,1.96065303970837,0.3533703719207403,B,515.7001239999772,Correct,sub_009_day_05_data.csv,1,300,45.0,Training at home,,,,,,,,,,,,,
9,5,1143,A,14.33412878995075,36.09306007319669,0.7167064394975375,0.566948461857649,A,758.2372499996382,Correct,sub_009_day_05_data.csv,1,300,45.0,Training at home,,,,,,,,,,,,,
9,5,1144,A,17.923993798363156,33.2078876597179,0.8961996899181578,0.5216282795650244,A,484.45479099973454,Correct,sub_009_day_05_data.csv,1,300,45.0,Training at home,,,,,,,,,,,,,
9,5,1145,B,76.43147517116482,50.873202155124005,3.821573758558241,0.7991143907756301,B,452.38958199979606,Correct,sub_009_day_05_data.csv,1,300,45.0,Training at home,,,,,,,,,,,,,
9,5,1146,A,39.50932636295709,58.94597429617719,1.975466318147855,0.9259211990378152,A,3988.737250000213,Correct,sub_009_day_05_data.csv,1,300,45.0,Training at home,,,,,,,,,,,,,
9,5,1147,B,46.45385429437394,22.618509134972086,2.322692714718697,0.3552907106679096,B,468.62712400024975,Correct,sub_009_day_05_data.csv,1,300,45.0,Training at home,,,,,,,,,,,,,
9,5,1148,B,55.04041816558048,31.882655119975617,2.752020908279024,0.500811575509262,B,518.1715830003668,Correct,sub_009_day_05_data.csv,1,300,45.0,Training at home,,,,,,,,,,,,,
9,5,1149,A,59.51894046635178,81.98169214976348,2.975947023317589,1.2877654089327848,A,598.1574989996261,Correct,sub_009_day_05_data.csv,1,300,45.0,Training at home,,,,,,,,,,,,,
9,5,1150,A,39.047254374827,59.68329433129834,1.95236271874135,0.9375029950662211,A,1501.1161239999635,Correct,sub_009_day_05_data.csv,1,300,46.0,Training at home,,,,,,,,,,,,,
9,5,1151,A,16.08821496205644,41.38668566137086,0.804410748102822,0.6501005381509637,A,486.4115820000734,Correct,sub_009_day_05_data.csv,1,300,46.0,Training at home,,,,,,,,,,,,,
9,5,1152,B,64.73529952682065,47.821888190779895,3.236764976341033,0.7511844631047331,B,501.3058330000604,Correct,sub_009_day_05_data.csv,1,300,46.0,Training at home,,,,,,,,,,,,,
9,5,1153,B,86.50266093152733,62.19463131124133,4.325133046576366,0.9769509841006072,B,581.4622910002072,Correct,sub_009_day_05_data.csv,1,300,46.0,Training at home,,,,,,,,,,,,,
9,5,1154,B,47.19050055977369,33.843738903976345,2.3595250279886844,0.5316162075537159,B,535.390582999753,Correct,sub_009_day_05_data.csv,1,300,46.0,Training at home,,,,,,,,,,,,,
9,5,1155,B,80.23320821100363,65.91150974264083,4.011660410550181,1.0353355739724626,B,500.8778739997979,Correct,sub_009_day_05_data.csv,1,300,46.0,Training at home,,,,,,,,,,,,,
9,5,1156,B,43.85660288953781,31.04311850054212,2.1928301444768907,0.4876241651291025,B,822.9529579998598,Correct,sub_009_day_05_data.csv,1,300,46.0,Training at home,,,,,,,,,,,,,
9,5,1157,B,67.04141546228799,44.03546165390673,3.3520707731143995,0.6917074141467422,B,2472.4802910000108,Correct,sub_009_day_05_data.csv,1,300,46.0,Training at home,,,,,,,,,,,,,
9,5,1158,B,67.60929186273286,35.162390957490835,3.380464593136643,0.5523295455735269,B,537.8843329999654,Correct,sub_009_day_05_data.csv,1,300,46.0,Training at home,,,,,,,,,,,,,
9,5,1159,B,62.69804208065884,32.21593644562448,3.134902104032942,0.5060467463304477,B,563.8439580002341,Correct,sub_009_day_05_data.csv,1,300,46.0,Training at home,,,,,,,,,,,,,
9,5,1160,B,71.30938168574932,47.75707171496272,3.5654690842874657,0.7501663282834391,B,686.9577500001469,Correct,sub_009_day_05_data.csv,1,300,46.0,Training at home,,,,,,,,,,,,,
9,5,1161,A,15.913128482626028,30.918656209897836,0.7956564241313014,0.4856691160394174,A,869.3924990002415,Correct,sub_009_day_05_data.csv,1,300,46.0,Training at home,,,,,,,,,,,,,
9,5,1162,A,43.41297769120816,52.06870928785323,2.1706488845604084,0.8178933729031117,A,905.9932079999272,Correct,sub_009_day_05_data.csv,1,300,46.0,Training at home,,,,,,,,,,,,,
9,5,1163,B,59.15186479862842,31.91105824511755,2.9575932399314206,0.5012577307556865,B,574.5317490000161,Correct,sub_009_day_05_data.csv,1,300,46.0,Training at home,,,,,,,,,,,,,
9,5,1164,B,63.73066343395477,32.64849363672556,3.1865331716977385,0.5128413387995506,B,1140.924541000004,Correct,sub_009_day_05_data.csv,1,300,46.0,Training at home,,,,,,,,,,,,,
9,5,1165,B,73.1686520764813,41.210276450176345,3.658432603824065,0.6473295087413924,B,1560.5001250000896,Correct,sub_009_day_05_data.csv,1,300,46.0,Training at home,,,,,,,,,,,,,
9,5,1166,A,43.98983061487672,70.06041897464921,2.199491530743836,1.1005064877909043,A,694.5388320000347,Correct,sub_009_day_05_data.csv,1,300,46.0,Training at home,,,,,,,,,,,,,
9,5,1167,A,45.06352367156714,75.99791487858428,2.253176183578357,1.193772455353514,A,957.1511239996652,Correct,sub_009_day_05_data.csv,1,300,46.0,Training at home,,,,,,,,,,,,,
9,5,1168,B,68.74504028452999,45.489375062466664,3.4372520142264995,0.71454543256318,B,1184.6742909997374,Correct,sub_009_day_05_data.csv,1,300,46.0,Training at home,,,,,,,,,,,,,
9,5,1169,A,42.79785503133371,75.22854225814467,2.1398927515666855,1.1816871784922829,A,873.2892079997328,Correct,sub_009_day_05_data.csv,1,300,46.0,Training at home,,,,,,,,,,,,,
9,5,1170,A,19.10317215936832,50.461641820198025,0.955158607968416,0.7926496161520679,A,937.6643739997236,Correct,sub_009_day_05_data.csv,1,300,46.0,Training at home,,,,,,,,,,,,,
9,5,1171,B,58.703252568470006,51.550810809912434,2.9351626284235004,0.809758242635091,B,1014.4486250001136,Correct,sub_009_day_05_data.csv,1,300,46.0,Training at home,,,,,,,,,,,,,
9,5,1172,B,45.42457493088968,24.029852473043753,2.2712287465444843,0.3774600399808039,B,1582.2817080002096,Correct,sub_009_day_05_data.csv,1,300,46.0,Training at home,,,,,,,,,,,,,
9,5,1173,A,14.769877085886048,36.15199732751859,0.7384938542943025,0.5678742460836513,A,1111.627415999919,Correct,sub_009_day_05_data.csv,1,300,46.0,Training at home,,,,,,,,,,,,,
9,5,1174,B,59.38687006159307,37.25863368469106,2.969343503079654,0.5852572493330932,B,936.975583000276,Correct,sub_009_day_05_data.csv,1,300,46.0,Training at home,,,,,,,,,,,,,
9,5,1175,A,56.36431924381896,83.64903104266313,2.818215962190948,1.3139559070176752,A,1073.6282910002046,Correct,sub_009_day_05_data.csv,1,300,47.0,Training at home,,,,,,,,,,,,,
9,5,1176,B,74.41257555741184,46.1371440944816,3.720628777870592,0.7247205647241856,B,873.08212500011,Correct,sub_009_day_05_data.csv,1,300,47.0,Training at home,,,,,,,,,,,,,
9,5,1177,A,17.53313243878022,33.23955968478742,0.8766566219390112,0.522125782571438,A,725.4038329997456,Correct,sub_009_day_05_data.csv,1,300,47.0,Training at home,,,,,,,,,,,,,
9,5,1178,A,34.164716619271346,54.160404855043296,1.7082358309635677,0.8507496500402649,A,1428.1824989998313,Correct,sub_009_day_05_data.csv,1,300,47.0,Training at home,,,,,,,,,,,,,
9,5,1179,A,21.88941097441753,46.306545118522905,1.0944705487208766,0.7273815097873794,A,721.0902070000884,Correct,sub_009_day_05_data.csv,1,300,47.0,Training at home,,,,,,,,,,,,,
9,5,1180,B,31.76655007331849,17.68340522826587,1.5883275036659246,0.2777702797778569,B,805.5468329998803,Correct,sub_009_day_05_data.csv,1,300,47.0,Training at home,,,,,,,,,,,,,
9,5,1181,B,71.68387864383561,54.459836487525216,3.5841939321917806,0.8554531111245528,B,1105.7606239996858,Correct,sub_009_day_05_data.csv,1,300,47.0,Training at home,,,,,,,,,,,,,
9,5,1182,B,59.70266002681623,48.32187547514804,2.9851330013408117,0.7590382450020295,B,1029.4226249998246,Correct,sub_009_day_05_data.csv,1,300,47.0,Training at home,,,,,,,,,,,,,
9,5,1183,A,25.52394986274532,55.48413326133878,1.276197493137266,0.8715427272230951,A,753.0167079999046,Correct,sub_009_day_05_data.csv,1,300,47.0,Training at home,,,,,,,,,,,,,
9,5,1184,B,65.04878289400992,53.13709240037304,3.2524391447004963,0.8346754955906699,B,804.7404989997631,Correct,sub_009_day_05_data.csv,1,300,47.0,Training at home,,,,,,,,,,,,,
9,5,1185,A,28.111486584944487,50.58717914399327,1.4055743292472245,0.7946215518230003,A,784.9886250000964,Correct,sub_009_day_05_data.csv,1,300,47.0,Training at home,,,,,,,,,,,,,
9,5,1186,A,39.44196211330606,54.031847694918085,1.972098105665303,0.8487302788911864,B,475.4842910001571,Incorrect,sub_009_day_05_data.csv,0,300,47.0,Training at home,,,,,,,,,,,,,
9,5,1187,A,21.419979485844777,44.75788684439681,1.0709989742922388,0.7030552425028014,A,834.9593329999152,Correct,sub_009_day_05_data.csv,1,300,47.0,Training at home,,,,,,,,,,,,,
9,5,1188,B,56.034869824850986,44.68279861820039,2.8017434912425494,0.7018757594038525,B,718.7299159995746,Correct,sub_009_day_05_data.csv,1,300,47.0,Training at home,,,,,,,,,,,,,
9,5,1189,A,26.308258172535645,40.104725075054006,1.3154129086267825,0.6299635483501402,A,1273.1067079998866,Correct,sub_009_day_05_data.csv,1,300,47.0,Training at home,,,,,,,,,,,,,
9,5,1190,A,27.19331106341415,41.46962305331563,1.3596655531707074,0.6514033156571716,A,2373.012832999848,Correct,sub_009_day_05_data.csv,1,300,47.0,Training at home,,,,,,,,,,,,,
9,5,1191,A,33.41787583819401,62.35602946427622,1.6708937919097002,0.9794862203599944,A,947.0435000002908,Correct,sub_009_day_05_data.csv,1,300,47.0,Training at home,,,,,,,,,,,,,
9,5,1192,A,50.538165138995254,59.05131854970076,2.5269082569497625,0.927575942702653,A,1075.9322909998446,Correct,sub_009_day_05_data.csv,1,300,47.0,Training at home,,,,,,,,,,,,,
9,5,1193,A,22.39877089199741,35.12987886790957,1.1199385445998704,0.5518188468646201,A,1235.9757079998417,Correct,sub_009_day_05_data.csv,1,300,47.0,Training at home,,,,,,,,,,,,,
9,5,1194,A,51.712269497257466,76.11689327096326,2.5856134748628734,1.1956413635706826,A,2311.205541000163,Correct,sub_009_day_05_data.csv,1,300,47.0,Training at home,,,,,,,,,,,,,
9,5,1195,B,44.04492797857591,33.97013984675609,2.2022463989287955,0.5336017089199342,B,3318.4875409997403,Correct,sub_009_day_05_data.csv,1,300,47.0,Training at home,,,,,,,,,,,,,
9,5,1196,B,37.34178000958675,18.498039267151817,1.867089000479338,0.2905665213374983,B,555.1692909998565,Correct,sub_009_day_05_data.csv,1,300,47.0,Training at home,,,,,,,,,,,,,
9,5,1197,A,30.54757593840194,47.748237516530224,1.527378796920097,0.7500275610189596,A,1798.951333000332,Correct,sub_009_day_05_data.csv,1,300,47.0,Training at home,,,,,,,,,,,,,
9,5,1198,A,36.42340277420335,68.93036969932903,1.8211701387101675,1.0827557152832028,A,859.0720000001966,Correct,sub_009_day_05_data.csv,1,300,47.0,Training at home,,,,,,,,,,,,,
9,5,1199,B,37.18938079526336,14.61787886016346,1.859469039763168,0.2296171041907753,B,744.9472490002336,Correct,sub_009_day_05_data.csv,1,300,47.0,Training at home,,,,,,,,,,,,,
