subject,day,trial,cat,x,y,xt,yt,resp,rt,fb,f_name,acc,n_trials,block,session_type,ns_left_digit,ns_right_digit,ns_left_size,ns_right_size,ns_congruent,ns_cue,ns_correct_side,ns_resp,ns_rt,ns_fb,acc_stroop,acc_stroop_mean,resp_key
9,17,3600,A,26.77617675303287,46.63801383390787,1.3388088376516436,0.7325882081931204,A,611.7028739972739,Correct,sub_009_day_17_data.csv,1,300,144.0,Training at home,,,,,,,,,,,,,
9,17,3601,A,28.04914479047577,53.80020119219565,1.4024572395237884,0.8450915841352734,A,394.6988329989835,Correct,sub_009_day_17_data.csv,1,300,144.0,Training at home,,,,,,,,,,,,,
9,17,3602,A,11.865047450512332,30.755901643170812,0.5932523725256167,0.4831125732835784,A,392.0814580051229,Correct,sub_009_day_17_data.csv,1,300,144.0,Training at home,,,,,,,,,,,,,
9,17,3603,A,59.53761678972687,76.7639852536207,2.9768808394863435,1.20580586066525,A,539.7329579864163,Correct,sub_009_day_17_data.csv,1,300,144.0,Training at home,,,,,,,,,,,,,
9,17,3604,B,61.077874463719326,29.13886479765958,3.053893723185966,0.4577122179113678,B,389.2091659945436,Correct,sub_009_day_17_data.csv,1,300,144.0,Training at home,,,,,,,,,,,,,
9,17,3605,B,42.05393670436267,31.403996739488704,2.1026968352181337,0.4932928272506776,B,1111.2501669995254,Correct,sub_009_day_17_data.csv,1,300,144.0,Training at home,,,,,,,,,,,,,
9,17,3606,B,64.71391611586661,36.891333913719386,3.2356958057933305,0.5794877180223441,B,435.1926669914974,Correct,sub_009_day_17_data.csv,1,300,144.0,Training at home,,,,,,,,,,,,,
9,17,3607,B,56.68032900686674,34.15286638722238,2.834016450343337,0.536471970705658,B,371.8139999982668,Correct,sub_009_day_17_data.csv,1,300,144.0,Training at home,,,,,,,,,,,,,
9,17,3608,A,46.91975348456998,56.047481439526344,2.345987674228499,0.8803917797131313,A,357.1517919917824,Correct,sub_009_day_17_data.csv,1,300,144.0,Training at home,,,,,,,,,,,,,
9,17,3609,A,30.62487359002296,42.71016558394241,1.531243679501148,0.6708897121605856,A,353.1843749951804,Correct,sub_009_day_17_data.csv,1,300,144.0,Training at home,,,,,,,,,,,,,
9,17,3610,B,68.68307666802909,41.96979239247221,3.4341538334014547,0.6592599572643975,B,383.4012909937883,Correct,sub_009_day_17_data.csv,1,300,144.0,Training at home,,,,,,,,,,,,,
9,17,3611,B,53.15642876321235,22.494296061866795,2.6578214381606178,0.3533395762781727,B,396.6491239989409,Correct,sub_009_day_17_data.csv,1,300,144.0,Training at home,,,,,,,,,,,,,
9,17,3612,B,62.03705628004845,41.535769483412935,3.101852814002423,0.652442341351446,A,577.1207079960732,Incorrect,sub_009_day_17_data.csv,0,300,144.0,Training at home,,,,,,,,,,,,,
9,17,3613,B,63.18720296740045,31.823555268170168,3.159360148370023,0.4998832372079608,B,432.83674999838695,Correct,sub_009_day_17_data.csv,1,300,144.0,Training at home,,,,,,,,,,,,,
9,17,3614,B,72.11583783650147,54.47122245506655,3.6057918918250738,0.8556319614844624,B,383.2969579962082,Correct,sub_009_day_17_data.csv,1,300,144.0,Training at home,,,,,,,,,,,,,
9,17,3615,B,45.37681690491312,18.755441442301336,2.268840845245656,0.2946097852498371,B,383.4466239932226,Correct,sub_009_day_17_data.csv,1,300,144.0,Training at home,,,,,,,,,,,,,
9,17,3616,A,55.76033220765035,84.48780694677409,2.7880166103825172,1.3271313681094907,A,406.027749995701,Correct,sub_009_day_17_data.csv,1,300,144.0,Training at home,,,,,,,,,,,,,
9,17,3617,A,36.76442321315611,64.89426633729018,1.8382211606578056,1.019356751926651,A,551.1053749942221,Correct,sub_009_day_17_data.csv,1,300,144.0,Training at home,,,,,,,,,,,,,
9,17,3618,A,55.71129766749308,85.0253748046787,2.785564883374654,1.3355754642754862,A,431.8865410023136,Correct,sub_009_day_17_data.csv,1,300,144.0,Training at home,,,,,,,,,,,,,
9,17,3619,B,44.99514098699322,24.867900175479384,2.249757049349661,0.3906240625074518,B,420.99770800268743,Correct,sub_009_day_17_data.csv,1,300,144.0,Training at home,,,,,,,,,,,,,
9,17,3620,B,61.10188473504944,29.503688881062736,3.0550942367524723,0.4634428612127277,B,447.71454100555275,Correct,sub_009_day_17_data.csv,1,300,144.0,Training at home,,,,,,,,,,,,,
9,17,3621,A,67.10611065794042,88.54842122147609,3.3553055328970207,1.390915347981819,A,459.61591599916574,Correct,sub_009_day_17_data.csv,1,300,144.0,Training at home,,,,,,,,,,,,,
9,17,3622,A,16.541232596253558,34.36857822256371,0.827061629812678,0.5398603642916615,A,1068.3415419916855,Correct,sub_009_day_17_data.csv,1,300,144.0,Training at home,,,,,,,,,,,,,
9,17,3623,B,69.52400083658878,56.80274081376298,3.476200041829439,0.8922553662214145,B,855.5732910026563,Correct,sub_009_day_17_data.csv,1,300,144.0,Training at home,,,,,,,,,,,,,
9,17,3624,B,33.83660327089793,12.916071227206114,1.691830163544897,0.2028851724031661,B,494.7185420023743,Correct,sub_009_day_17_data.csv,1,300,144.0,Training at home,,,,,,,,,,,,,
9,17,3625,B,48.930687504046816,33.93813789923835,2.446534375202341,0.5330990235038228,B,497.24245799006894,Correct,sub_009_day_17_data.csv,1,300,145.0,Training at home,,,,,,,,,,,,,
9,17,3626,B,57.385512474625074,27.651465101715935,2.8692756237312538,0.4343481981227265,B,457.5848329986911,Correct,sub_009_day_17_data.csv,1,300,145.0,Training at home,,,,,,,,,,,,,
9,17,3627,B,74.10488983395884,53.594636669776705,3.705244491697942,0.8418625841679231,B,531.2049580097664,Correct,sub_009_day_17_data.csv,1,300,145.0,Training at home,,,,,,,,,,,,,
9,17,3628,A,50.61325437054511,77.2662192287174,2.530662718527255,1.213694933497985,A,796.1318329907954,Correct,sub_009_day_17_data.csv,1,300,145.0,Training at home,,,,,,,,,,,,,
9,17,3629,A,50.2160581379387,79.84425596339497,2.5108029068969353,1.2541906398297236,A,529.0935410012025,Correct,sub_009_day_17_data.csv,1,300,145.0,Training at home,,,,,,,,,,,,,
9,17,3630,A,34.44939912592742,63.790821672068574,1.722469956296371,1.002023883657136,A,412.8637079993496,Correct,sub_009_day_17_data.csv,1,300,145.0,Training at home,,,,,,,,,,,,,
9,17,3631,B,58.69489221784231,45.42492699923248,2.934744610892116,0.713533084753207,B,661.708917003125,Correct,sub_009_day_17_data.csv,1,300,145.0,Training at home,,,,,,,,,,,,,
9,17,3632,A,34.60684585560608,65.01896966842097,1.730342292780304,1.0213155872714446,A,858.4642080095364,Correct,sub_009_day_17_data.csv,1,300,145.0,Training at home,,,,,,,,,,,,,
9,17,3633,A,50.195914390499,73.11527036131915,2.5097957195249503,1.1484919811617589,A,379.5523329899879,Correct,sub_009_day_17_data.csv,1,300,145.0,Training at home,,,,,,,,,,,,,
9,17,3634,B,63.83435322465359,51.76356818554838,3.1917176612326794,0.8131002276765656,B,659.543957997812,Correct,sub_009_day_17_data.csv,1,300,145.0,Training at home,,,,,,,,,,,,,
9,17,3635,A,11.160290311223498,32.67804617115323,0.5580145155611749,0.5133055489248152,A,591.3742910051951,Correct,sub_009_day_17_data.csv,1,300,145.0,Training at home,,,,,,,,,,,,,
9,17,3636,B,41.4739797392626,23.7157336894826,2.07369898696313,0.3725258736668525,B,441.3592079945374,Correct,sub_009_day_17_data.csv,1,300,145.0,Training at home,,,,,,,,,,,,,
9,17,3637,A,57.937337137524835,70.26490374215787,2.8968668568762417,1.1037185270077858,A,1021.9001660007052,Correct,sub_009_day_17_data.csv,1,300,145.0,Training at home,,,,,,,,,,,,,
9,17,3638,B,46.88926158414516,21.110546634993273,2.3444630792072583,0.331603691108798,B,501.23433300177567,Correct,sub_009_day_17_data.csv,1,300,145.0,Training at home,,,,,,,,,,,,,
9,17,3639,B,59.9447582230563,38.60340881177626,2.9972379111528147,0.6063809276329989,B,649.9759169964818,Correct,sub_009_day_17_data.csv,1,300,145.0,Training at home,,,,,,,,,,,,,
9,17,3640,B,63.255060642100474,55.40887111238662,3.162753032105024,0.8703605121518876,B,840.2280410082312,Correct,sub_009_day_17_data.csv,1,300,145.0,Training at home,,,,,,,,,,,,,
9,17,3641,A,42.75710766460382,56.173238253237685,2.137855383230191,0.8823671631236032,A,705.5779999936931,Correct,sub_009_day_17_data.csv,1,300,145.0,Training at home,,,,,,,,,,,,,
9,17,3642,A,37.01202385297862,56.68064747844964,1.850601192648931,0.8903375285950512,A,680.0557500100695,Correct,sub_009_day_17_data.csv,1,300,145.0,Training at home,,,,,,,,,,,,,
9,17,3643,B,70.02997584260629,42.802762935551264,3.5014987921303145,0.6723442279583668,B,635.3065830044216,Correct,sub_009_day_17_data.csv,1,300,145.0,Training at home,,,,,,,,,,,,,
9,17,3644,A,18.13149944688991,41.73737504978318,0.9065749723444956,0.6556091541826038,A,615.0805829965975,Correct,sub_009_day_17_data.csv,1,300,145.0,Training at home,,,,,,,,,,,,,
9,17,3645,B,63.671663176844355,46.10139019339305,3.1835831588422177,0.7241589437592009,B,587.1199999965029,Correct,sub_009_day_17_data.csv,1,300,145.0,Training at home,,,,,,,,,,,,,
9,17,3646,B,54.86913254707913,30.060273946441427,2.7434566273539565,0.4721856789751851,B,645.9133329917677,Correct,sub_009_day_17_data.csv,1,300,145.0,Training at home,,,,,,,,,,,,,
9,17,3647,B,83.70874870991351,64.76525119996869,4.185437435495675,1.017330186888596,B,674.5472909969976,Correct,sub_009_day_17_data.csv,1,300,145.0,Training at home,,,,,,,,,,,,,
9,17,3648,A,23.27550628603965,49.15909404375168,1.1637753143019824,0.7721892435249001,A,609.1835830011405,Correct,sub_009_day_17_data.csv,1,300,145.0,Training at home,,,,,,,,,,,,,
9,17,3649,B,68.23128315184591,42.96356900262024,3.4115641575922955,0.6748701637531495,B,656.0386249911971,Correct,sub_009_day_17_data.csv,1,300,145.0,Training at home,,,,,,,,,,,,,
9,17,3650,A,37.254096107635064,61.60720311782228,1.8627048053817532,0.9677236836158234,A,737.443500009249,Correct,sub_009_day_17_data.csv,1,300,146.0,Training at home,,,,,,,,,,,,,
9,17,3651,A,33.856472841177364,59.93233762411911,1.6928236420588685,0.9414149579619788,A,619.1617919976125,Correct,sub_009_day_17_data.csv,1,300,146.0,Training at home,,,,,,,,,,,,,
9,17,3652,B,64.06634121524974,55.54086810219012,3.203317060762487,0.8724339160192005,B,470.3222079988336,Correct,sub_009_day_17_data.csv,1,300,146.0,Training at home,,,,,,,,,,,,,
9,17,3653,A,55.05255962226897,82.40769390252655,2.7526279811134486,1.294457028817269,A,644.6460830047727,Correct,sub_009_day_17_data.csv,1,300,146.0,Training at home,,,,,,,,,,,,,
9,17,3654,B,59.93780617885789,33.84738604026484,2.9968903089428944,0.5316734966365686,B,718.7560830061557,Correct,sub_009_day_17_data.csv,1,300,146.0,Training at home,,,,,,,,,,,,,
9,17,3655,B,71.11669689060442,57.67495853230328,3.555834844530221,0.9059561301058996,B,550.40008299693,Correct,sub_009_day_17_data.csv,1,300,146.0,Training at home,,,,,,,,,,,,,
9,17,3656,A,59.13377614887153,73.0877715447406,2.956688807443577,1.1480600307610311,A,705.5010409967508,Correct,sub_009_day_17_data.csv,1,300,146.0,Training at home,,,,,,,,,,,,,
9,17,3657,A,56.27214508372616,77.39648681164539,2.813607254186308,1.2157411719056224,A,381.7786660074489,Correct,sub_009_day_17_data.csv,1,300,146.0,Training at home,,,,,,,,,,,,,
9,17,3658,B,57.651545870835015,47.83571484361587,2.882577293541751,0.7514016516595992,B,491.42970799584873,Correct,sub_009_day_17_data.csv,1,300,146.0,Training at home,,,,,,,,,,,,,
9,17,3659,B,87.1629017502444,61.18230548084526,4.35814508751222,0.96104940714155,B,342.6477920002071,Correct,sub_009_day_17_data.csv,1,300,146.0,Training at home,,,,,,,,,,,,,
9,17,3660,A,15.369430940183964,31.020998157794303,0.7684715470091982,0.4872766995977455,A,522.8884579992155,Correct,sub_009_day_17_data.csv,1,300,146.0,Training at home,,,,,,,,,,,,,
9,17,3661,B,42.80178281232971,21.801452700731662,2.1400891406164857,0.3424564182110197,B,482.00499899394345,Correct,sub_009_day_17_data.csv,1,300,146.0,Training at home,,,,,,,,,,,,,
9,17,3662,A,46.00852464806935,52.961175994966936,2.300426232403467,0.8319122071563211,A,574.6147080062656,Correct,sub_009_day_17_data.csv,1,300,146.0,Training at home,,,,,,,,,,,,,
9,17,3663,B,67.66646781348483,45.74038400634815,3.3833233906742413,0.718488271833597,B,539.0609579917509,Correct,sub_009_day_17_data.csv,1,300,146.0,Training at home,,,,,,,,,,,,,
9,17,3664,A,66.2055469875836,82.8168318205319,3.31027734937918,1.3008837522048222,A,433.84287499065977,Correct,sub_009_day_17_data.csv,1,300,146.0,Training at home,,,,,,,,,,,,,
9,17,3665,B,71.27380887742065,50.14369351444603,3.5636904438710326,0.787655295844209,B,393.5304990009172,Correct,sub_009_day_17_data.csv,1,300,146.0,Training at home,,,,,,,,,,,,,
9,17,3666,B,73.07580087155192,57.479044601440584,3.653790043577595,0.902878721276229,B,639.1201249934966,Correct,sub_009_day_17_data.csv,1,300,146.0,Training at home,,,,,,,,,,,,,
9,17,3667,A,28.239243777972245,43.50635839376557,1.4119621888986122,0.6833962795714926,A,414.29295801208355,Correct,sub_009_day_17_data.csv,1,300,146.0,Training at home,,,,,,,,,,,,,
9,17,3668,B,51.399638892341585,41.933983633355766,2.5699819446170795,0.6586974745915255,B,1056.8059999932302,Correct,sub_009_day_17_data.csv,1,300,146.0,Training at home,,,,,,,,,,,,,
9,17,3669,A,24.99316498466293,39.440010402728774,1.2496582492331465,0.6195222346935887,A,398.6032079992583,Correct,sub_009_day_17_data.csv,1,300,146.0,Training at home,,,,,,,,,,,,,
9,17,3670,B,65.52970715645145,34.44960904086791,3.276485357822572,0.5411331934091558,B,344.87954099313356,Correct,sub_009_day_17_data.csv,1,300,146.0,Training at home,,,,,,,,,,,,,
9,17,3671,A,16.550063550337693,41.434186382885805,0.8275031775168847,0.6508466777397215,A,411.8095409939997,Correct,sub_009_day_17_data.csv,1,300,146.0,Training at home,,,,,,,,,,,,,
9,17,3672,A,15.408173703642875,44.15192052464096,0.7704086851821438,0.6935367458104623,A,357.57983299845364,Correct,sub_009_day_17_data.csv,1,300,146.0,Training at home,,,,,,,,,,,,,
9,17,3673,A,69.00886236290029,89.28655231738418,3.4504431181450146,1.4025098841232742,A,481.15520799183287,Correct,sub_009_day_17_data.csv,1,300,146.0,Training at home,,,,,,,,,,,,,
9,17,3674,B,53.46165557455723,46.55603991290222,2.6730827787278613,0.7313005648530341,B,886.4229580067331,Correct,sub_009_day_17_data.csv,1,300,146.0,Training at home,,,,,,,,,,,,,
9,17,3675,B,48.3208912737481,21.37033217002989,2.416044563687405,0.3356843927506976,B,460.4081249999581,Correct,sub_009_day_17_data.csv,1,300,147.0,Training at home,,,,,,,,,,,,,
9,17,3676,B,70.25606402702854,50.19735568657924,3.512803201351427,0.7884982192729558,B,440.4057080100756,Correct,sub_009_day_17_data.csv,1,300,147.0,Training at home,,,,,,,,,,,,,
9,17,3677,B,48.07286632754884,20.72883517401435,2.4036433163774418,0.3256077815007859,B,392.2276250086725,Correct,sub_009_day_17_data.csv,1,300,147.0,Training at home,,,,,,,,,,,,,
9,17,3678,A,30.940335149024,43.85731877534691,1.5470167574512002,0.6889091523538778,A,399.46379099274054,Correct,sub_009_day_17_data.csv,1,300,147.0,Training at home,,,,,,,,,,,,,
9,17,3679,B,41.1737331239548,32.26676656373024,2.05868665619774,0.5068451839585586,B,1081.478457999765,Correct,sub_009_day_17_data.csv,1,300,147.0,Training at home,,,,,,,,,,,,,
9,17,3680,B,62.80686612624963,54.48726196742578,3.1403433063124817,0.8558839095554368,B,659.0602490032325,Correct,sub_009_day_17_data.csv,1,300,147.0,Training at home,,,,,,,,,,,,,
9,17,3681,B,72.49414300617514,56.09078565971505,3.624707150308757,0.8810720008132026,B,622.8687080001691,Correct,sub_009_day_17_data.csv,1,300,147.0,Training at home,,,,,,,,,,,,,
9,17,3682,B,84.0410943930848,64.85900966439996,4.20205471965424,1.0188029414039417,B,385.66583300416823,Correct,sub_009_day_17_data.csv,1,300,147.0,Training at home,,,,,,,,,,,,,
9,17,3683,A,20.389772520518967,39.70324719864823,1.0194886260259484,0.6236571486146639,A,434.03645799844526,Correct,sub_009_day_17_data.csv,1,300,147.0,Training at home,,,,,,,,,,,,,
9,17,3684,A,53.50313042946303,72.52907581388533,2.675156521473151,1.1392840587427964,A,492.5797909963876,Correct,sub_009_day_17_data.csv,1,300,147.0,Training at home,,,,,,,,,,,,,
9,17,3685,A,33.12170647663646,59.74193260672735,1.6560853238318232,0.9384240829427556,A,403.0573330092011,Correct,sub_009_day_17_data.csv,1,300,147.0,Training at home,,,,,,,,,,,,,
9,17,3686,A,23.83489873961707,41.852483480040206,1.1917449369808537,0.6574172731769125,A,481.67695800657384,Correct,sub_009_day_17_data.csv,1,300,147.0,Training at home,,,,,,,,,,,,,
9,17,3687,A,18.480437091383106,32.73572207275207,0.9240218545691552,0.5142115198685757,A,467.7725829969859,Correct,sub_009_day_17_data.csv,1,300,147.0,Training at home,,,,,,,,,,,,,
9,17,3688,A,44.449196022259315,53.97884290663251,2.222459801112966,0.8478976816237711,A,715.4856660054065,Correct,sub_009_day_17_data.csv,1,300,147.0,Training at home,,,,,,,,,,,,,
9,17,3689,B,65.71194998326844,37.29429516176696,3.285597499163422,0.5858174185050823,B,469.5825829985551,Correct,sub_009_day_17_data.csv,1,300,147.0,Training at home,,,,,,,,,,,,,
9,17,3690,A,66.0392167301208,80.30020492935927,3.30196083650604,1.2613526694391497,A,637.1547500020824,Correct,sub_009_day_17_data.csv,1,300,147.0,Training at home,,,,,,,,,,,,,
9,17,3691,A,62.72510335422781,86.85379061303887,3.136255167711391,1.3642961526317452,A,1066.8303749989718,Correct,sub_009_day_17_data.csv,1,300,147.0,Training at home,,,,,,,,,,,,,
9,17,3692,A,55.94281494232878,78.80909180472298,2.7971407471164387,1.2379303192490063,A,948.292290995596,Correct,sub_009_day_17_data.csv,1,300,147.0,Training at home,,,,,,,,,,,,,
9,17,3693,B,66.3677432626738,53.72815766566739,3.31838716313369,0.843959927066874,B,717.7549159969203,Correct,sub_009_day_17_data.csv,1,300,147.0,Training at home,,,,,,,,,,,,,
9,17,3694,A,24.36419867984325,50.36365210908438,1.2182099339921624,0.7911103973692579,A,504.49045799905434,Correct,sub_009_day_17_data.csv,1,300,147.0,Training at home,,,,,,,,,,,,,
9,17,3695,B,36.97652429874205,13.78117797885233,1.8488262149371024,0.2164742374808795,B,425.28337400290184,Correct,sub_009_day_17_data.csv,1,300,147.0,Training at home,,,,,,,,,,,,,
9,17,3696,A,48.7603397595907,75.22696961909733,2.438016987979535,1.1816624755358938,A,440.5502909939969,Correct,sub_009_day_17_data.csv,1,300,147.0,Training at home,,,,,,,,,,,,,
9,17,3697,A,41.993240781090165,61.82778222534297,2.099662039054508,0.9711885321344356,A,380.9849160024896,Correct,sub_009_day_17_data.csv,1,300,147.0,Training at home,,,,,,,,,,,,,
9,17,3698,A,45.76059603220018,73.15724960729581,2.288029801610009,1.1491513896155765,A,385.3105830057757,Correct,sub_009_day_17_data.csv,1,300,147.0,Training at home,,,,,,,,,,,,,
9,17,3699,A,61.16780927038559,81.96442733612339,3.0583904635192796,1.2874942138742982,A,427.7759990072809,Correct,sub_009_day_17_data.csv,1,300,147.0,Training at home,,,,,,,,,,,,,
9,17,3700,A,48.74706703896898,59.47009978681905,2.437353351948449,0.9341541429926132,A,466.2668329983717,Correct,sub_009_day_17_data.csv,1,300,148.0,Training at home,,,,,,,,,,,,,
9,17,3701,B,62.97481028004726,42.96056253537618,3.148740514002363,0.6748229382761134,B,451.64008300343994,Correct,sub_009_day_17_data.csv,1,300,148.0,Training at home,,,,,,,,,,,,,
9,17,3702,A,27.51961907849496,53.607865935728064,1.3759809539247485,0.8420703889915492,A,487.7360419923207,Correct,sub_009_day_17_data.csv,1,300,148.0,Training at home,,,,,,,,,,,,,
9,17,3703,A,16.51096176182852,42.22359885063169,0.825548088091426,0.6632467397863347,A,408.3139579888666,Correct,sub_009_day_17_data.csv,1,300,148.0,Training at home,,,,,,,,,,,,,
9,17,3704,B,82.90489545611604,61.74055218379631,4.1452447728058015,0.9698183258459588,B,494.8156239988748,Correct,sub_009_day_17_data.csv,1,300,148.0,Training at home,,,,,,,,,,,,,
9,17,3705,A,39.957256611485285,47.29841441960169,1.9978628305742645,0.742961756335331,A,414.43299999809824,Correct,sub_009_day_17_data.csv,1,300,148.0,Training at home,,,,,,,,,,,,,
9,17,3706,A,47.9976322401195,58.51529062936431,2.3998816120059754,0.9191560358194129,A,411.4541669987375,Correct,sub_009_day_17_data.csv,1,300,148.0,Training at home,,,,,,,,,,,,,
9,17,3707,B,37.87259529417324,18.424875398195713,1.893629764708662,0.2894172659713948,B,469.8862910008757,Correct,sub_009_day_17_data.csv,1,300,148.0,Training at home,,,,,,,,,,,,,
9,17,3708,B,56.76416152057013,48.0320551704128,2.8382080760285064,0.7544857583009426,B,681.5897490014322,Correct,sub_009_day_17_data.csv,1,300,148.0,Training at home,,,,,,,,,,,,,
9,17,3709,A,53.01307902771694,62.177643542300366,2.6506539513858467,0.9766841408500784,A,583.9144159981515,Correct,sub_009_day_17_data.csv,1,300,148.0,Training at home,,,,,,,,,,,,,
9,17,3710,B,77.42679267772876,54.52579925668024,3.871339633886438,0.8564892518794923,B,404.0603750036098,Correct,sub_009_day_17_data.csv,1,300,148.0,Training at home,,,,,,,,,,,,,
9,17,3711,B,51.42060768795143,43.717330688146575,2.5710303843975715,0.6867102246221845,B,558.3916659961687,Correct,sub_009_day_17_data.csv,1,300,148.0,Training at home,,,,,,,,,,,,,
9,17,3712,A,59.63529521589366,78.49515668389722,2.9817647607946833,1.2329990379025562,A,851.98558299453,Correct,sub_009_day_17_data.csv,1,300,148.0,Training at home,,,,,,,,,,,,,
9,17,3713,B,47.24307429362798,39.99282697124892,2.362153714681399,0.6282058570458168,B,942.822791999788,Correct,sub_009_day_17_data.csv,1,300,148.0,Training at home,,,,,,,,,,,,,
9,17,3714,A,38.28397191964457,59.90438955024254,1.9141985959822283,0.9409759506441157,A,404.0980410063639,Correct,sub_009_day_17_data.csv,1,300,148.0,Training at home,,,,,,,,,,,,,
9,17,3715,B,69.97316939896132,57.85947627740752,3.498658469948066,0.908854528068282,B,490.8907079952769,Correct,sub_009_day_17_data.csv,1,300,148.0,Training at home,,,,,,,,,,,,,
9,17,3716,A,48.30117039544538,70.2430602566419,2.415058519772269,1.1033754103396567,A,465.1093329885043,Correct,sub_009_day_17_data.csv,1,300,148.0,Training at home,,,,,,,,,,,,,
9,17,3717,A,48.04503158050579,62.91757040085577,2.4022515790252896,0.9883068847652356,A,553.3450410002843,Correct,sub_009_day_17_data.csv,1,300,148.0,Training at home,,,,,,,,,,,,,
9,17,3718,A,38.62944760027089,57.535332602134105,1.9314723800135447,0.9037628911235492,A,432.6024159963709,Correct,sub_009_day_17_data.csv,1,300,148.0,Training at home,,,,,,,,,,,,,
9,17,3719,B,55.895334109129706,33.66728269864876,2.7947667054564853,0.5288444399620285,B,600.7304999948246,Correct,sub_009_day_17_data.csv,1,300,148.0,Training at home,,,,,,,,,,,,,
9,17,3720,B,37.17697689545855,15.710048755524966,1.8588488447729277,0.2467728687894735,B,446.4773330109893,Correct,sub_009_day_17_data.csv,1,300,148.0,Training at home,,,,,,,,,,,,,
9,17,3721,B,73.13570722356937,58.10832132951384,3.6567853611784686,0.9127633770061788,B,565.4365420050453,Correct,sub_009_day_17_data.csv,1,300,148.0,Training at home,,,,,,,,,,,,,
9,17,3722,A,66.69200134743888,83.30360953120181,3.3346000673719436,1.3085300386036811,A,531.7743329942459,Correct,sub_009_day_17_data.csv,1,300,148.0,Training at home,,,,,,,,,,,,,
9,17,3723,A,56.549613863226654,85.6109266076235,2.8274806931613328,1.3447732904876246,A,452.8489160002209,Correct,sub_009_day_17_data.csv,1,300,148.0,Training at home,,,,,,,,,,,,,
9,17,3724,B,49.758587902789294,21.1712666098212,2.4879293951394645,0.3325574782430258,B,408.46187398710754,Correct,sub_009_day_17_data.csv,1,300,148.0,Training at home,,,,,,,,,,,,,
9,17,3725,A,42.47122788757173,49.60470652660855,2.1235613943785863,0.7791889080373555,A,525.590999997803,Correct,sub_009_day_17_data.csv,1,300,149.0,Training at home,,,,,,,,,,,,,
9,17,3726,B,65.52635209571802,43.4351132462151,3.2763176047859015,0.6822771634107504,B,344.9841249966994,Correct,sub_009_day_17_data.csv,1,300,149.0,Training at home,,,,,,,,,,,,,
9,17,3727,B,78.77902189547956,58.282661343709805,3.938951094773978,0.9155019035453028,A,220.74241600057576,Incorrect,sub_009_day_17_data.csv,0,300,149.0,Training at home,,,,,,,,,,,,,
9,17,3728,A,42.38131595439015,73.98948017085196,2.119065797719508,1.162224036738381,A,386.0315409983741,Correct,sub_009_day_17_data.csv,1,300,149.0,Training at home,,,,,,,,,,,,,
9,17,3729,B,50.19450305632779,34.510762391903896,2.5097251528163893,0.542093788000941,B,403.56191599857993,Correct,sub_009_day_17_data.csv,1,300,149.0,Training at home,,,,,,,,,,,,,
9,17,3730,A,27.95696755264143,41.88404509930286,1.3978483776320716,0.6579130419329672,A,424.6808330062777,Correct,sub_009_day_17_data.csv,1,300,149.0,Training at home,,,,,,,,,,,,,
9,17,3731,B,47.37815056173308,22.050503398546795,2.368907528086654,0.3463684974241569,B,383.4758750017499,Correct,sub_009_day_17_data.csv,1,300,149.0,Training at home,,,,,,,,,,,,,
9,17,3732,A,34.08839054058303,62.64238504411812,1.7044195270291511,0.9839842832897232,A,445.378125004936,Correct,sub_009_day_17_data.csv,1,300,149.0,Training at home,,,,,,,,,,,,,
9,17,3733,B,76.50767775694396,47.965147325068834,3.825383887847198,0.753434772323942,B,384.29224998981226,Correct,sub_009_day_17_data.csv,1,300,149.0,Training at home,,,,,,,,,,,,,
9,17,3734,A,53.9249425004725,73.18053849832606,2.6962471250236253,1.1495172106604308,A,447.4718749988824,Correct,sub_009_day_17_data.csv,1,300,149.0,Training at home,,,,,,,,,,,,,
9,17,3735,A,59.71737712513293,74.4632195892903,2.9858688562566464,1.16966551812179,A,407.211792000453,Correct,sub_009_day_17_data.csv,1,300,149.0,Training at home,,,,,,,,,,,,,
9,17,3736,B,47.13883323095314,26.450011714819816,2.356941661547657,0.4154758124532096,B,577.2697080101352,Correct,sub_009_day_17_data.csv,1,300,149.0,Training at home,,,,,,,,,,,,,
9,17,3737,B,54.938375484910765,47.7970992338656,2.746918774245538,0.7507950790800725,B,784.6522910112981,Correct,sub_009_day_17_data.csv,1,300,149.0,Training at home,,,,,,,,,,,,,
9,17,3738,A,50.983611363867944,58.72353335239252,2.549180568193397,0.9224271048635578,A,579.2187499901047,Correct,sub_009_day_17_data.csv,1,300,149.0,Training at home,,,,,,,,,,,,,
9,17,3739,A,48.196972132560845,77.50361360645788,2.4098486066280422,1.21742391566355,A,407.39762400335167,Correct,sub_009_day_17_data.csv,1,300,149.0,Training at home,,,,,,,,,,,,,
9,17,3740,B,46.44879070384725,22.375658621507917,2.3224395351923626,0.3514760237228119,B,418.29854100069497,Correct,sub_009_day_17_data.csv,1,300,149.0,Training at home,,,,,,,,,,,,,
9,17,3741,A,10.690428083501384,34.35972293990497,0.5345214041750692,0.5397212658369307,A,484.4614159956109,Correct,sub_009_day_17_data.csv,1,300,149.0,Training at home,,,,,,,,,,,,,
9,17,3742,A,46.946085363188736,78.21137025895372,2.3473042681594367,1.228541331163601,A,448.3194579952397,Correct,sub_009_day_17_data.csv,1,300,149.0,Training at home,,,,,,,,,,,,,
9,17,3743,A,65.67494689262628,86.81583621650817,3.283747344631314,1.363699966365184,A,476.81237499637064,Correct,sub_009_day_17_data.csv,1,300,149.0,Training at home,,,,,,,,,,,,,
9,17,3744,B,64.55532154632836,51.63596749459368,3.2277660773164176,0.8110958807100843,B,456.4046659943415,Correct,sub_009_day_17_data.csv,1,300,149.0,Training at home,,,,,,,,,,,,,
9,17,3745,A,64.8221232317076,80.0772599217018,3.2411061615853796,1.2578506574480937,A,707.839790993603,Correct,sub_009_day_17_data.csv,1,300,149.0,Training at home,,,,,,,,,,,,,
9,17,3746,B,43.028952162109874,18.00722195396807,2.1514476081054936,0.2828567810107346,B,834.295791995828,Correct,sub_009_day_17_data.csv,1,300,149.0,Training at home,,,,,,,,,,,,,
9,17,3747,A,24.7164902741961,52.991949528086856,1.2358245137098052,0.8323955966841937,A,388.3742079924559,Correct,sub_009_day_17_data.csv,1,300,149.0,Training at home,,,,,,,,,,,,,
9,17,3748,A,42.976358268722905,60.76657656444058,2.148817913436145,0.9545191525932408,A,507.5424989918247,Correct,sub_009_day_17_data.csv,1,300,149.0,Training at home,,,,,,,,,,,,,
9,17,3749,A,25.922878036766736,45.27054706984371,1.2961439018383367,0.7111080904930597,A,382.7752500073984,Correct,sub_009_day_17_data.csv,1,300,149.0,Training at home,,,,,,,,,,,,,
9,17,3750,B,80.1524788749397,62.635652702124425,4.007623943746985,0.983878531908979,B,485.5255830043461,Correct,sub_009_day_17_data.csv,1,300,150.0,Training at home,,,,,,,,,,,,,
9,17,3751,B,46.94220697686791,34.063846337393656,2.3471103488433953,0.5350736470328374,B,450.2892489981605,Correct,sub_009_day_17_data.csv,1,300,150.0,Training at home,,,,,,,,,,,,,
9,17,3752,B,69.38089198656147,36.9089660403473,3.469044599328073,0.5797646828197511,B,389.3441670079483,Correct,sub_009_day_17_data.csv,1,300,150.0,Training at home,,,,,,,,,,,,,
9,17,3753,A,13.678607019639228,34.05669254111449,0.6839303509819614,0.5349612754636578,A,449.26916700205766,Correct,sub_009_day_17_data.csv,1,300,150.0,Training at home,,,,,,,,,,,,,
9,17,3754,A,37.54839306256186,55.35967544469776,1.877419653128093,0.8695877484108886,A,423.89249899133574,Correct,sub_009_day_17_data.csv,1,300,150.0,Training at home,,,,,,,,,,,,,
9,17,3755,B,65.62407652890157,35.162104315915016,3.2812038264450787,0.5523250430181829,B,700.2245000039693,Correct,sub_009_day_17_data.csv,1,300,150.0,Training at home,,,,,,,,,,,,,
9,17,3756,A,23.76732147021264,41.54283310927457,1.1883660735106318,0.6525532965270191,A,478.04983299283776,Correct,sub_009_day_17_data.csv,1,300,150.0,Training at home,,,,,,,,,,,,,
9,17,3757,B,42.751006401776415,30.78056167499955,2.137550320088821,0.4834999321577306,B,469.08591699320823,Correct,sub_009_day_17_data.csv,1,300,150.0,Training at home,,,,,,,,,,,,,
9,17,3758,B,39.91485598296797,29.528763934082377,1.9957427991483985,0.4638367392245021,B,468.918123995536,Correct,sub_009_day_17_data.csv,1,300,150.0,Training at home,,,,,,,,,,,,,
9,17,3759,A,41.33136603138335,54.9424236406466,2.066568301569167,0.8630335723993678,A,940.046499003074,Correct,sub_009_day_17_data.csv,1,300,150.0,Training at home,,,,,,,,,,,,,
9,17,3760,A,48.47734799741267,61.54839502146622,2.4238673998706335,0.9667999281984044,A,534.0210410067812,Correct,sub_009_day_17_data.csv,1,300,150.0,Training at home,,,,,,,,,,,,,
9,17,3761,A,40.3423043085502,53.0379757073477,2.0171152154275096,0.8331185742173872,A,590.4137489997083,Correct,sub_009_day_17_data.csv,1,300,150.0,Training at home,,,,,,,,,,,,,
9,17,3762,B,36.963312878372385,24.420229976490855,1.8481656439186191,0.3835920754655846,B,415.2818330039736,Correct,sub_009_day_17_data.csv,1,300,150.0,Training at home,,,,,,,,,,,,,
9,17,3763,A,25.92978467716589,54.9755762271342,1.2964892338582945,0.8635543320101523,A,413.9966659859056,Correct,sub_009_day_17_data.csv,1,300,150.0,Training at home,,,,,,,,,,,,,
9,17,3764,B,83.80617652872797,66.78761732368613,4.190308826436398,1.0490974396742938,B,398.1374989962206,Correct,sub_009_day_17_data.csv,1,300,150.0,Training at home,,,,,,,,,,,,,
9,17,3765,A,51.29406422504665,67.05731700180918,2.564703211252332,1.0533338723116283,A,463.27637499780394,Correct,sub_009_day_17_data.csv,1,300,150.0,Training at home,,,,,,,,,,,,,
9,17,3766,B,83.41026929956699,53.171583842825534,4.17051346497835,0.8352172859017722,B,419.8686239978997,Correct,sub_009_day_17_data.csv,1,300,150.0,Training at home,,,,,,,,,,,,,
9,17,3767,A,60.53651686408253,85.38573756257779,3.026825843204126,1.341236029239702,A,435.99620800523553,Correct,sub_009_day_17_data.csv,1,300,150.0,Training at home,,,,,,,,,,,,,
9,17,3768,B,77.57984986224415,64.5381532779297,3.8789924931122073,1.0137629410709796,B,575.2759160095593,Correct,sub_009_day_17_data.csv,1,300,150.0,Training at home,,,,,,,,,,,,,
9,17,3769,A,21.79392510871598,43.47313726511145,1.0896962554357992,0.682874443302874,A,431.5724579937523,Correct,sub_009_day_17_data.csv,1,300,150.0,Training at home,,,,,,,,,,,,,
9,17,3770,B,46.05083247230901,27.21158145574176,2.30254162361545,0.4274385219695927,B,395.85116699163336,Correct,sub_009_day_17_data.csv,1,300,150.0,Training at home,,,,,,,,,,,,,
9,17,3771,B,41.508369974752725,15.05233051437181,2.075418498737636,0.2364414548167797,B,458.0035419930937,Correct,sub_009_day_17_data.csv,1,300,150.0,Training at home,,,,,,,,,,,,,
9,17,3772,B,46.45400706841262,17.649890704585758,2.322700353420631,0.2772438348709469,B,472.055291000288,Correct,sub_009_day_17_data.csv,1,300,150.0,Training at home,,,,,,,,,,,,,
9,17,3773,B,84.19409241263628,62.93627243811807,4.209704620631814,0.9886006556795875,B,407.41079099825583,Correct,sub_009_day_17_data.csv,1,300,150.0,Training at home,,,,,,,,,,,,,
9,17,3774,B,33.88952354375438,20.7235074221297,1.6944761771877188,0.3255240933698811,B,723.6104160110699,Correct,sub_009_day_17_data.csv,1,300,150.0,Training at home,,,,,,,,,,,,,
9,17,3775,B,38.78309537283155,19.730766274995815,1.9391547686415775,0.3099301518961205,B,418.4372080053435,Correct,sub_009_day_17_data.csv,1,300,151.0,Training at home,,,,,,,,,,,,,
9,17,3776,B,62.22771309145877,33.71110074847756,3.1113856545729384,0.5295327322792124,B,413.6650419968646,Correct,sub_009_day_17_data.csv,1,300,151.0,Training at home,,,,,,,,,,,,,
9,17,3777,A,60.87701836249184,84.34566825747021,3.0438509181245923,1.3248986587989513,A,563.5035830055131,Correct,sub_009_day_17_data.csv,1,300,151.0,Training at home,,,,,,,,,,,,,
9,17,3778,B,36.630737357049455,25.343889488839785,1.8315368678524728,0.3981008851576531,B,481.7360830056714,Correct,sub_009_day_17_data.csv,1,300,151.0,Training at home,,,,,,,,,,,,,
9,17,3779,B,78.228604848421,64.05332693181377,3.91143024242105,1.006147306634857,B,430.2801659941906,Correct,sub_009_day_17_data.csv,1,300,151.0,Training at home,,,,,,,,,,,,,
9,17,3780,B,61.7589226107623,52.42442408222129,3.0879461305381146,0.8234809278269111,B,469.3890409980668,Correct,sub_009_day_17_data.csv,1,300,151.0,Training at home,,,,,,,,,,,,,
9,17,3781,A,58.31676246979613,81.58449990966282,2.9158381234898063,1.2815263278149691,A,482.660666006268,Correct,sub_009_day_17_data.csv,1,300,151.0,Training at home,,,,,,,,,,,,,
9,17,3782,B,58.78267909189578,51.13847853426813,2.939133954594789,0.8032813423950805,B,722.2757909912616,Correct,sub_009_day_17_data.csv,1,300,151.0,Training at home,,,,,,,,,,,,,
9,17,3783,A,58.63015727299167,84.16637213073838,2.9315078636495833,1.322082281826162,A,491.30562400387134,Correct,sub_009_day_17_data.csv,1,300,151.0,Training at home,,,,,,,,,,,,,
9,17,3784,A,56.82864983681711,70.5638270864325,2.841432491840856,1.1084140039195838,A,487.5815830018837,Correct,sub_009_day_17_data.csv,1,300,151.0,Training at home,,,,,,,,,,,,,
9,17,3785,B,47.556643965730174,19.749992928060554,2.3778321982865087,0.3102321634562269,B,532.1443330030888,Correct,sub_009_day_17_data.csv,1,300,151.0,Training at home,,,,,,,,,,,,,
9,17,3786,B,63.39170180197129,50.05991570797322,3.1695850900985643,0.7863393171374647,B,655.6833749928046,Correct,sub_009_day_17_data.csv,1,300,151.0,Training at home,,,,,,,,,,,,,
9,17,3787,B,58.60733298568512,42.58020241737822,2.930366649284256,0.6688482555140087,B,442.2531659947708,Correct,sub_009_day_17_data.csv,1,300,151.0,Training at home,,,,,,,,,,,,,
9,17,3788,B,74.39925386430804,57.38933793786914,3.7199626932154017,0.9014696122999586,B,435.90716598555446,Correct,sub_009_day_17_data.csv,1,300,151.0,Training at home,,,,,,,,,,,,,
9,17,3789,B,46.21868122758335,30.56339032510469,2.3109340613791676,0.4800886125707313,B,419.7147079976275,Correct,sub_009_day_17_data.csv,1,300,151.0,Training at home,,,,,,,,,,,,,
9,17,3790,B,54.14288317389614,43.92334001001246,2.707144158694807,0.6899462114829089,B,669.5771240047179,Correct,sub_009_day_17_data.csv,1,300,151.0,Training at home,,,,,,,,,,,,,
9,17,3791,A,20.208454686292736,39.93116306631982,1.0104227343146368,0.6272372426922321,A,577.9934169986518,Correct,sub_009_day_17_data.csv,1,300,151.0,Training at home,,,,,,,,,,,,,
9,17,3792,A,33.910158298273636,63.72764257288168,1.6955079149136818,1.001031468687806,A,438.37695800175425,Correct,sub_009_day_17_data.csv,1,300,151.0,Training at home,,,,,,,,,,,,,
9,17,3793,A,35.67040256391394,66.94160621122923,1.783520128195697,1.051516291463493,A,402.6114580046851,Correct,sub_009_day_17_data.csv,1,300,151.0,Training at home,,,,,,,,,,,,,
9,17,3794,A,34.923480656120695,49.07704508211566,1.746174032806035,0.7709004214493482,A,522.0529579964932,Correct,sub_009_day_17_data.csv,1,300,151.0,Training at home,,,,,,,,,,,,,
9,17,3795,B,69.33812744267108,47.42178962278698,3.466906372133554,0.7448997294951414,B,635.9927500016056,Correct,sub_009_day_17_data.csv,1,300,151.0,Training at home,,,,,,,,,,,,,
9,17,3796,A,22.411584111132587,49.39830680697991,1.1205792055566293,0.7759467888229139,A,572.997374998522,Correct,sub_009_day_17_data.csv,1,300,151.0,Training at home,,,,,,,,,,,,,
9,17,3797,B,33.81010350702017,21.012630540261767,1.6905051753510087,0.3300656286894144,B,494.11054101074114,Correct,sub_009_day_17_data.csv,1,300,151.0,Training at home,,,,,,,,,,,,,
9,17,3798,B,47.6550524206395,23.01405560271641,2.3827526210319747,0.3615039400540044,B,424.3705830012914,Correct,sub_009_day_17_data.csv,1,300,151.0,Training at home,,,,,,,,,,,,,
9,17,3799,B,54.80201037197279,37.62134805875433,2.7401005185986396,0.5909547533976361,B,397.7894580020802,Correct,sub_009_day_17_data.csv,1,300,151.0,Training at home,,,,,,,,,,,,,
9,17,3800,B,42.6387934897089,14.028268101483352,2.1319396744854453,0.2203555200510406,B,455.5157909926493,Correct,sub_009_day_17_data.csv,1,300,152.0,Training at home,,,,,,,,,,,,,
9,17,3801,A,24.3980430481562,36.747749930837145,1.21990215240781,0.577232306093364,A,542.6129580009729,Correct,sub_009_day_17_data.csv,1,300,152.0,Training at home,,,,,,,,,,,,,
9,17,3802,B,31.959009825661916,19.4019411024139,1.597950491283096,0.3047649781636268,B,403.9876239985461,Correct,sub_009_day_17_data.csv,1,300,152.0,Training at home,,,,,,,,,,,,,
9,17,3803,B,54.44877506523088,45.123800302562955,2.722438753261544,0.7088029976629233,B,457.83933300117496,Correct,sub_009_day_17_data.csv,1,300,152.0,Training at home,,,,,,,,,,,,,
9,17,3804,B,69.7649813679608,58.592109668907824,3.48824906839804,0.9203627064708416,B,574.7201670019422,Correct,sub_009_day_17_data.csv,1,300,152.0,Training at home,,,,,,,,,,,,,
9,17,3805,A,60.42878712271696,72.25008152830848,3.021439356135848,1.1349016267529877,A,429.2324169946369,Correct,sub_009_day_17_data.csv,1,300,152.0,Training at home,,,,,,,,,,,,,
9,17,3806,B,76.9424552359307,55.73653075703072,3.847122761796535,0.8755073778143463,B,417.63758299930487,Correct,sub_009_day_17_data.csv,1,300,152.0,Training at home,,,,,,,,,,,,,
9,17,3807,A,65.41730539432376,80.88445934661854,3.270865269716188,1.2705301163645952,A,426.96554098802153,Correct,sub_009_day_17_data.csv,1,300,152.0,Training at home,,,,,,,,,,,,,
9,17,3808,A,62.5142241717831,87.0161969126774,3.1257112085891547,1.366847224820951,A,413.5526249883696,Correct,sub_009_day_17_data.csv,1,300,152.0,Training at home,,,,,,,,,,,,,
9,17,3809,B,68.75505665781591,54.82683175167838,3.4377528328907956,0.861217859253382,B,444.4633749953937,Correct,sub_009_day_17_data.csv,1,300,152.0,Training at home,,,,,,,,,,,,,
9,17,3810,A,20.426651937315658,44.73237924226778,1.021332596865783,0.702654570025505,A,386.26683299662545,Correct,sub_009_day_17_data.csv,1,300,152.0,Training at home,,,,,,,,,,,,,
9,17,3811,A,60.920791995758165,78.74919211533806,3.0460395997879086,1.2369894171283866,B,425.9874159906758,Incorrect,sub_009_day_17_data.csv,0,300,152.0,Training at home,,,,,,,,,,,,,
9,17,3812,B,58.54104341844246,44.38208566603448,2.927052170922123,0.697152171397034,B,474.9894159904215,Correct,sub_009_day_17_data.csv,1,300,152.0,Training at home,,,,,,,,,,,,,
9,17,3813,A,67.97844634295254,80.79584027529248,3.398922317147627,1.2691380912473658,A,507.09483299579006,Correct,sub_009_day_17_data.csv,1,300,152.0,Training at home,,,,,,,,,,,,,
9,17,3814,A,30.710568937183645,58.133277386836504,1.535528446859182,0.913155385837916,A,441.7464580037631,Correct,sub_009_day_17_data.csv,1,300,152.0,Training at home,,,,,,,,,,,,,
9,17,3815,A,51.50160633456832,73.67885542800127,2.575080316728416,1.157344754687566,A,380.429875003756,Correct,sub_009_day_17_data.csv,1,300,152.0,Training at home,,,,,,,,,,,,,
9,17,3816,B,73.28103103548074,54.01686185192912,3.664051551774037,0.8484948818199763,B,425.58387499593664,Correct,sub_009_day_17_data.csv,1,300,152.0,Training at home,,,,,,,,,,,,,
9,17,3817,B,46.51714634590981,37.42137945145575,2.3258573172954904,0.5878136538594471,B,449.69837499957066,Correct,sub_009_day_17_data.csv,1,300,152.0,Training at home,,,,,,,,,,,,,
9,17,3818,A,31.2492411656417,42.475822206135575,1.562462058282085,0.6672086549899087,A,542.4501250090543,Correct,sub_009_day_17_data.csv,1,300,152.0,Training at home,,,,,,,,,,,,,
9,17,3819,B,66.55764749260024,45.04274164982858,3.327882374630012,0.7075297313232223,B,436.3601250079227,Correct,sub_009_day_17_data.csv,1,300,152.0,Training at home,,,,,,,,,,,,,
9,17,3820,B,63.22600216467759,46.809464206474374,3.1613001082338794,0.7352813443476713,B,411.8947919923812,Correct,sub_009_day_17_data.csv,1,300,152.0,Training at home,,,,,,,,,,,,,
9,17,3821,A,36.978945600570086,45.77821936547681,1.8489472800285045,0.7190825882650197,A,408.49516598973423,Correct,sub_009_day_17_data.csv,1,300,152.0,Training at home,,,,,,,,,,,,,
9,17,3822,A,56.32852152899713,68.73613770936618,2.8164260764498565,1.0797047263194055,A,429.8955000122078,Correct,sub_009_day_17_data.csv,1,300,152.0,Training at home,,,,,,,,,,,,,
9,17,3823,B,47.71123893347398,35.28648987995752,2.3855619466736986,0.5542788868892257,B,391.9218749942957,Correct,sub_009_day_17_data.csv,1,300,152.0,Training at home,,,,,,,,,,,,,
9,17,3824,B,64.76108725624036,42.87107592420676,3.2380543628120178,0.673417285874891,B,400.3509159956593,Correct,sub_009_day_17_data.csv,1,300,152.0,Training at home,,,,,,,,,,,,,
9,17,3825,B,40.247763490837215,21.645536876164773,2.0123881745418606,0.3400072981658311,B,401.4614579937188,Correct,sub_009_day_17_data.csv,1,300,153.0,Training at home,,,,,,,,,,,,,
9,17,3826,A,22.578013073887377,37.0577866753508,1.1289006536943689,0.5821023518878989,A,403.6439579940634,Correct,sub_009_day_17_data.csv,1,300,153.0,Training at home,,,,,,,,,,,,,
9,17,3827,A,31.23276723611319,52.246256836959674,1.5616383618056595,0.8206822832827901,A,463.9120000065304,Correct,sub_009_day_17_data.csv,1,300,153.0,Training at home,,,,,,,,,,,,,
9,17,3828,A,27.9194227622657,44.977907884290026,1.395971138113285,0.70651132491562,A,364.2552919918671,Correct,sub_009_day_17_data.csv,1,300,153.0,Training at home,,,,,,,,,,,,,
9,17,3829,A,17.92508825036806,45.12950038955234,0.896254412518403,0.7088925344199768,A,396.70345799822826,Correct,sub_009_day_17_data.csv,1,300,153.0,Training at home,,,,,,,,,,,,,
9,17,3830,A,54.31459183210329,62.16531390191611,2.7157295916051645,0.9764904673118154,A,587.2594989923527,Correct,sub_009_day_17_data.csv,1,300,153.0,Training at home,,,,,,,,,,,,,
9,17,3831,A,52.94216846797289,65.33671940969421,2.647108423398645,1.0263067885357648,A,420.65133299911395,Correct,sub_009_day_17_data.csv,1,300,153.0,Training at home,,,,,,,,,,,,,
9,17,3832,B,71.59990300826533,49.64607467559296,3.579995150413266,0.7798387174020657,B,423.8792079995619,Correct,sub_009_day_17_data.csv,1,300,153.0,Training at home,,,,,,,,,,,,,
9,17,3833,B,39.67578325236808,16.905836361025045,1.983789162618404,0.2655562565729374,B,443.4044989902759,Correct,sub_009_day_17_data.csv,1,300,153.0,Training at home,,,,,,,,,,,,,
9,17,3834,B,41.21999148416961,18.32209088770454,2.060999574208481,0.2878027306560853,B,519.1660829877947,Correct,sub_009_day_17_data.csv,1,300,153.0,Training at home,,,,,,,,,,,,,
9,17,3835,B,53.20749708443036,30.858808605002658,2.660374854221518,0.4847290320600491,B,450.185749999946,Correct,sub_009_day_17_data.csv,1,300,153.0,Training at home,,,,,,,,,,,,,
9,17,3836,A,63.6972800028575,78.7530504993667,3.1848640001428747,1.2370500244829818,A,519.9365420121467,Correct,sub_009_day_17_data.csv,1,300,153.0,Training at home,,,,,,,,,,,,,
9,17,3837,A,61.030555069635994,70.45394577224113,3.0515277534817993,1.106687992272432,A,413.4133329935139,Correct,sub_009_day_17_data.csv,1,300,153.0,Training at home,,,,,,,,,,,,,
9,17,3838,B,49.66841182612637,23.85416616995968,2.4834205913063188,0.3747003659852775,B,386.8605410098098,Correct,sub_009_day_17_data.csv,1,300,153.0,Training at home,,,,,,,,,,,,,
9,17,3839,A,37.08949071534551,54.51106815714027,1.8544745357672756,0.856257856309022,A,436.9403750024503,Correct,sub_009_day_17_data.csv,1,300,153.0,Training at home,,,,,,,,,,,,,
9,17,3840,A,68.35044617411621,82.27967879112853,3.41752230870581,1.2924461721496865,A,454.4250829931116,Correct,sub_009_day_17_data.csv,1,300,153.0,Training at home,,,,,,,,,,,,,
9,17,3841,A,24.47320426259843,55.16247233120398,1.2236602131299217,0.8664900891478031,A,430.9262080059853,Correct,sub_009_day_17_data.csv,1,300,153.0,Training at home,,,,,,,,,,,,,
9,17,3842,B,47.0836268455533,20.44632751849034,2.3541813422776645,0.3211701616249003,B,406.8135830020765,Correct,sub_009_day_17_data.csv,1,300,153.0,Training at home,,,,,,,,,,,,,
9,17,3843,B,65.42339806309381,34.12448966284686,3.271169903154691,0.5360262301615027,B,402.0219579979312,Correct,sub_009_day_17_data.csv,1,300,153.0,Training at home,,,,,,,,,,,,,
9,17,3844,A,55.56139138771508,82.1410728859818,2.7780695693857536,1.290268955682921,A,478.94745800294913,Correct,sub_009_day_17_data.csv,1,300,153.0,Training at home,,,,,,,,,,,,,
9,17,3845,A,36.78943294626203,62.19931322335413,1.8394716473131016,0.977024527404099,A,434.94441600341816,Correct,sub_009_day_17_data.csv,1,300,153.0,Training at home,,,,,,,,,,,,,
9,17,3846,B,65.70525063325495,42.47700148565091,3.285262531662747,0.667227179069218,B,536.7348750005476,Correct,sub_009_day_17_data.csv,1,300,153.0,Training at home,,,,,,,,,,,,,
9,17,3847,B,54.71054235012717,39.6683682608398,2.7355271175063587,0.6231092715407442,B,455.1557079976192,Correct,sub_009_day_17_data.csv,1,300,153.0,Training at home,,,,,,,,,,,,,
9,17,3848,A,50.142492443753305,66.43484450581435,2.507124622187665,1.043556097209233,A,395.4301240009954,Correct,sub_009_day_17_data.csv,1,300,153.0,Training at home,,,,,,,,,,,,,
9,17,3849,A,29.248516408129255,59.761912850676005,1.4624258204064629,0.9387379318807858,A,476.24733300472144,Correct,sub_009_day_17_data.csv,1,300,153.0,Training at home,,,,,,,,,,,,,
9,17,3850,A,47.865343789423015,60.05834094685145,2.3932671894711506,0.9433942135270978,A,377.6297080039512,Correct,sub_009_day_17_data.csv,1,300,154.0,Training at home,,,,,,,,,,,,,
9,17,3851,A,37.03895087402342,68.24633962500336,1.851947543701171,1.0720109960015227,A,399.78629199322313,Correct,sub_009_day_17_data.csv,1,300,154.0,Training at home,,,,,,,,,,,,,
9,17,3852,B,74.67695886232076,55.67009725159662,3.733847943116038,0.8744638427512264,B,426.46633299591485,Correct,sub_009_day_17_data.csv,1,300,154.0,Training at home,,,,,,,,,,,,,
9,17,3853,B,48.34544640886646,41.22559865602652,2.417272320443322,0.6475701893880708,B,977.1564160037088,Correct,sub_009_day_17_data.csv,1,300,154.0,Training at home,,,,,,,,,,,,,
9,17,3854,A,52.77632474804025,71.86491087959044,2.6388162374020125,1.1288513803510327,A,391.35774900205433,Correct,sub_009_day_17_data.csv,1,300,154.0,Training at home,,,,,,,,,,,,,
9,17,3855,A,47.80443574365,60.64778659208273,2.3902217871825,0.9526532040708432,A,420.6520830048248,Correct,sub_009_day_17_data.csv,1,300,154.0,Training at home,,,,,,,,,,,,,
9,17,3856,A,34.33048680036014,49.938831557551595,1.7165243400180072,0.7844373317503112,A,387.75712499045767,Correct,sub_009_day_17_data.csv,1,300,154.0,Training at home,,,,,,,,,,,,,
9,17,3857,A,27.08460680889953,41.93079959062074,1.3542303404449765,0.6586474597652001,A,402.57724998809863,Correct,sub_009_day_17_data.csv,1,300,154.0,Training at home,,,,,,,,,,,,,
9,17,3858,B,80.19922583552844,49.99332523984431,4.009961291776421,0.7852933165101003,B,400.2277909894474,Correct,sub_009_day_17_data.csv,1,300,154.0,Training at home,,,,,,,,,,,,,
9,17,3859,B,34.41596897796895,15.006274181182032,1.7207984488984476,0.2357180036267782,B,574.2027910018805,Correct,sub_009_day_17_data.csv,1,300,154.0,Training at home,,,,,,,,,,,,,
9,17,3860,A,17.61534743844153,37.05619493359521,0.8807673719220764,0.5820773488668701,A,517.0472080062609,Correct,sub_009_day_17_data.csv,1,300,154.0,Training at home,,,,,,,,,,,,,
9,17,3861,B,64.02867078302262,54.48431362386031,3.201433539151131,0.8558375970830091,B,428.53366599592846,Correct,sub_009_day_17_data.csv,1,300,154.0,Training at home,,,,,,,,,,,,,
9,17,3862,A,31.64357094008815,63.60903310397617,1.5821785470044074,0.9991683555070074,A,367.0756670035189,Correct,sub_009_day_17_data.csv,1,300,154.0,Training at home,,,,,,,,,,,,,
9,17,3863,B,55.97372239540926,46.54672483140248,2.7986861197704633,0.7311542438949982,B,721.5212909941329,Correct,sub_009_day_17_data.csv,1,300,154.0,Training at home,,,,,,,,,,,,,
9,17,3864,A,25.623879645656356,40.6862402271846,1.2811939822828178,0.6390979669995632,A,566.2516250013141,Correct,sub_009_day_17_data.csv,1,300,154.0,Training at home,,,,,,,,,,,,,
9,17,3865,B,43.60993205994477,27.557961131057695,2.180496602997238,0.4328794411862195,B,519.041624997044,Correct,sub_009_day_17_data.csv,1,300,154.0,Training at home,,,,,,,,,,,,,
9,17,3866,A,45.526939070777715,65.13213058552252,2.2763469535388854,1.023093114800643,A,400.4828329925658,Correct,sub_009_day_17_data.csv,1,300,154.0,Training at home,,,,,,,,,,,,,
9,17,3867,A,48.58026240548115,73.56871589667905,2.4290131202740577,1.1556146869752075,A,394.2700409970712,Correct,sub_009_day_17_data.csv,1,300,154.0,Training at home,,,,,,,,,,,,,
9,17,3868,B,64.0953104431955,56.35789451206187,3.204765522159775,0.8852677368544104,B,445.9869580023223,Correct,sub_009_day_17_data.csv,1,300,154.0,Training at home,,,,,,,,,,,,,
9,17,3869,A,45.29391544190766,54.07949869055625,2.264695772095383,0.8494787789803518,B,390.35987500392366,Incorrect,sub_009_day_17_data.csv,0,300,154.0,Training at home,,,,,,,,,,,,,
9,17,3870,A,36.01307239600383,58.44294202482178,1.8006536198001912,0.9180195865967716,A,406.166332992143,Correct,sub_009_day_17_data.csv,1,300,154.0,Training at home,,,,,,,,,,,,,
9,17,3871,B,35.5873192546379,17.374469067572317,1.7793659627318947,0.2729175219135414,B,383.52320800186135,Correct,sub_009_day_17_data.csv,1,300,154.0,Training at home,,,,,,,,,,,,,
9,17,3872,B,62.791784951386475,33.884359503591625,3.139589247569324,0.5322542744403947,B,564.6597079903586,Correct,sub_009_day_17_data.csv,1,300,154.0,Training at home,,,,,,,,,,,,,
9,17,3873,A,34.063506445921355,54.84519737428514,1.7031753222960675,0.861506345778682,A,496.965917001944,Correct,sub_009_day_17_data.csv,1,300,154.0,Training at home,,,,,,,,,,,,,
9,17,3874,A,30.40832862656737,43.26388843062289,1.5204164313283686,0.6795875702968666,A,462.5378330092644,Correct,sub_009_day_17_data.csv,1,300,154.0,Training at home,,,,,,,,,,,,,
9,17,3875,B,75.04621719720876,61.53955972718387,3.752310859860438,0.9666611437203558,B,562.7925419976236,Correct,sub_009_day_17_data.csv,1,300,155.0,Training at home,,,,,,,,,,,,,
9,17,3876,B,64.87064122970047,56.45749481336149,3.2435320614850234,0.8868322547287015,B,472.48312400188297,Correct,sub_009_day_17_data.csv,1,300,155.0,Training at home,,,,,,,,,,,,,
9,17,3877,B,39.261386281389555,20.81593655384845,1.9630693140694777,0.3269759667758076,B,481.0480419982923,Correct,sub_009_day_17_data.csv,1,300,155.0,Training at home,,,,,,,,,,,,,
9,17,3878,A,31.648048022573747,53.477681565291626,1.5824024011286872,0.8400254576826723,A,1472.8900830086786,Correct,sub_009_day_17_data.csv,1,300,155.0,Training at home,,,,,,,,,,,,,
9,17,3879,A,40.9573949949474,55.441811523735566,2.04786974974737,0.870877938923388,A,473.6914160021115,Correct,sub_009_day_17_data.csv,1,300,155.0,Training at home,,,,,,,,,,,,,
9,17,3880,B,51.7326993446478,25.64938565078635,2.5866349672323903,0.4028996076480092,B,433.3840829931432,Correct,sub_009_day_17_data.csv,1,300,155.0,Training at home,,,,,,,,,,,,,
9,17,3881,B,32.858985447076435,20.008023976301335,1.6429492723538217,0.3142853056839836,B,895.0374989944976,Correct,sub_009_day_17_data.csv,1,300,155.0,Training at home,,,,,,,,,,,,,
9,17,3882,B,87.50427397263522,62.59375143293143,4.375213698631761,0.9832203483116148,B,701.253416002146,Correct,sub_009_day_17_data.csv,1,300,155.0,Training at home,,,,,,,,,,,,,
9,17,3883,A,29.56165459126923,47.9682873542578,1.4780827295634618,0.7534840957871024,A,418.9927489933325,Correct,sub_009_day_17_data.csv,1,300,155.0,Training at home,,,,,,,,,,,,,
9,17,3884,A,65.10122136238044,84.52016051995348,3.255061068119022,1.3276395768485794,A,517.5540829950478,Correct,sub_009_day_17_data.csv,1,300,155.0,Training at home,,,,,,,,,,,,,
9,17,3885,A,38.21107014914801,68.51019623754176,1.9105535074574005,1.0761556459792814,A,358.5781670117285,Correct,sub_009_day_17_data.csv,1,300,155.0,Training at home,,,,,,,,,,,,,
9,17,3886,B,58.080328279927826,40.86335576942175,2.9040164139963913,0.6418800914312073,B,414.29795800650027,Correct,sub_009_day_17_data.csv,1,300,155.0,Training at home,,,,,,,,,,,,,
9,17,3887,A,54.94855256416095,72.55058325700068,2.747427628208047,1.13962189686924,A,500.38825000228826,Correct,sub_009_day_17_data.csv,1,300,155.0,Training at home,,,,,,,,,,,,,
9,17,3888,A,42.97894877788144,67.00102336327848,2.148947438894072,1.0524496139053687,A,360.39141699438915,Correct,sub_009_day_17_data.csv,1,300,155.0,Training at home,,,,,,,,,,,,,
9,17,3889,B,74.72717500207065,55.99022475707478,3.7363587501035327,0.8794923938483374,B,849.7030410071602,Correct,sub_009_day_17_data.csv,1,300,155.0,Training at home,,,,,,,,,,,,,
9,17,3890,B,84.29246861802235,62.289435262133935,4.214623430901117,0.978440161078885,B,387.6941240014275,Correct,sub_009_day_17_data.csv,1,300,155.0,Training at home,,,,,,,,,,,,,
9,17,3891,B,76.45982148027045,45.21981364549383,3.822991074013522,0.7103111717269145,B,394.4772910035681,Correct,sub_009_day_17_data.csv,1,300,155.0,Training at home,,,,,,,,,,,,,
9,17,3892,A,67.82211586674332,80.59670154752551,3.391105793337166,1.2660100274263764,A,447.0929579983931,Correct,sub_009_day_17_data.csv,1,300,155.0,Training at home,,,,,,,,,,,,,
9,17,3893,B,30.658231919840745,14.407890833816449,1.5329115959920372,0.2263186199862073,B,509.1958740085829,Correct,sub_009_day_17_data.csv,1,300,155.0,Training at home,,,,,,,,,,,,,
9,17,3894,A,30.610635664023604,59.84189658763477,1.5305317832011804,0.9399943134829676,A,398.27979099936783,Correct,sub_009_day_17_data.csv,1,300,155.0,Training at home,,,,,,,,,,,,,
9,17,3895,B,55.65073946587441,40.5729516102599,2.78253697329372,0.6373184335662333,B,423.94991699256934,Correct,sub_009_day_17_data.csv,1,300,155.0,Training at home,,,,,,,,,,,,,
9,17,3896,A,26.736797907494324,53.82828328926935,1.3368398953747165,0.8455326966845941,A,482.0021670020651,Correct,sub_009_day_17_data.csv,1,300,155.0,Training at home,,,,,,,,,,,,,
9,17,3897,B,80.12172389755366,52.695411017977065,4.006086194877684,0.827737580659857,B,409.0011670050444,Correct,sub_009_day_17_data.csv,1,300,155.0,Training at home,,,,,,,,,,,,,
9,17,3898,B,74.37579743742579,56.39767154751745,3.718789871871289,0.8858925530662546,B,402.31849999690894,Correct,sub_009_day_17_data.csv,1,300,155.0,Training at home,,,,,,,,,,,,,
9,17,3899,A,42.20743641451072,74.2241912930197,2.110371820725536,1.165910870423971,A,434.4079159927787,Correct,sub_009_day_17_data.csv,1,300,155.0,Training at home,,,,,,,,,,,,,
