sub_id,group,trial,block,stim_freq,stim_orient,correct_category,response,correct,rt
17,RB,1,1,93.99,43.39,A,A,1,685.8
17,RB,2,1,63.75,77.15,A,A,1,631.2
17,RB,3,1,88.38,50.6,A,B,0,583.7
17,RB,4,1,70.86,70.61,A,B,0,600.2
17,RB,5,1,94.98,36.82,A,A,1,590.4
17,RB,6,1,17.52,74.85,B,A,0,776.0
17,RB,7,1,86.77,33.47,A,A,1,663.7
17,RB,8,1,92.54,10.69,A,A,1,689.3
17,RB,9,1,2.46,62.4,B,A,0,711.1
17,RB,10,1,3.49,38.34,B,B,1,652.6
17,RB,11,1,56.94,65.42,A,A,1,687.6
17,RB,12,1,34.35,1.63,B,A,0,593.4
17,RB,13,1,0.26,61.1,B,B,1,662.8
17,RB,14,1,47.86,67.48,B,A,0,656.5
17,RB,15,1,73.7,33.92,A,A,1,616.2
17,RB,16,1,48.14,20.29,B,B,1,647.3
17,RB,17,1,60.64,94.24,A,B,0,691.7
17,RB,18,1,18.12,18.02,B,B,1,721.9
17,RB,19,1,84.91,16.19,A,A,1,731.9
17,RB,20,1,39.6,60.7,B,A,0,680.9
17,RB,21,2,44.31,95.77,B,A,0,638.4
17,RB,22,2,48.78,81.06,B,B,1,654.2
17,RB,23,2,1.44,22.47,B,B,1,718.1
17,RB,24,2,72.51,23.63,A,B,0,590.2
17,RB,25,2,80.58,28.28,A,A,1,576.1
17,RB,26,2,28.8,10.06,B,B,1,593.3
17,RB,27,2,68.43,60.98,A,B,0,689.7
17,RB,28,2,65.29,16.5,A,B,0,867.2
17,RB,29,2,0.86,63.9,B,A,0,717.2
17,RB,30,2,72.44,74.14,A,A,1,668.5
17,RB,31,2,67.79,96.35,A,A,1,727.5
17,RB,32,2,96.16,70.74,A,B,0,704.1
17,RB,33,2,72.1,74.43,A,B,0,633.1
17,RB,34,2,4.08,81.04,B,A,0,653.9
17,RB,35,2,24.19,79.09,B,B,1,571.7
17,RB,36,2,97.58,98.63,A,B,0,631.4
17,RB,37,2,71.37,22.42,A,B,0,645.8
17,RB,38,2,75.93,18.51,A,B,0,593.0
17,RB,39,2,27.05,28.56,B,B,1,747.2
17,RB,40,2,9.18,80.22,B,A,0,578.8
17,RB,41,3,32.75,79.26,B,A,0,658.7
17,RB,42,3,17.75,8.27,B,B,1,731.5
17,RB,43,3,96.47,58.49,A,B,0,661.1
17,RB,44,3,80.2,34.68,A,B,0,641.2
17,RB,45,3,44.47,57.83,B,B,1,729.7
17,RB,46,3,41.83,79.46,B,A,0,492.3
17,RB,47,3,18.19,21.79,B,B,1,592.1
17,RB,48,3,95.74,24.21,A,B,0,627.2
17,RB,49,3,92.84,16.49,A,A,1,707.8
17,RB,50,3,21.72,77.55,B,B,1,584.9
17,RB,51,3,70.99,0.19,A,B,0,598.1
17,RB,52,3,24.23,82.04,B,A,0,626.4
17,RB,53,3,36.95,48.57,B,B,1,574.2
17,RB,54,3,63.92,13.44,A,A,1,745.7
17,RB,55,3,73.58,16.58,A,A,1,712.3
17,RB,56,3,7.74,88.18,B,A,0,784.9
17,RB,57,3,55.17,35.61,A,B,0,583.8
17,RB,58,3,15.06,79.68,B,A,0,589.4
17,RB,59,3,74.87,99.57,A,B,0,714.3
17,RB,60,3,58.58,61.3,A,B,0,537.9
17,RB,61,4,29.96,61.6,B,B,1,739.5
17,RB,62,4,71.75,64.01,A,B,0,666.8
17,RB,63,4,74.3,83.41,A,A,1,706.1
17,RB,64,4,66.99,90.76,A,B,0,528.8
17,RB,65,4,9.32,46.49,B,B,1,878.9
17,RB,66,4,95.98,36.63,A,A,1,692.6
17,RB,67,4,24.46,7.63,B,A,0,646.1
17,RB,68,4,61.67,68.95,A,A,1,718.6
17,RB,69,4,26.78,97.05,B,B,1,615.1
17,RB,70,4,34.33,98.74,B,B,1,632.6
17,RB,71,4,17.7,10.11,B,B,1,769.2
17,RB,72,4,64.2,18.14,A,A,1,592.2
17,RB,73,4,46.47,52.58,B,B,1,687.5
17,RB,74,4,17.66,43.63,B,B,1,630.1
17,RB,75,4,59.19,74.96,A,A,1,635.1
17,RB,76,4,4.02,98.49,B,B,1,734.1
17,RB,77,4,59.62,1.19,A,B,0,597.3
17,RB,78,4,75.19,47.88,A,A,1,643.0
17,RB,79,4,38.86,70.88,B,A,0,605.5
17,RB,80,4,21.76,98.19,B,B,1,696.0
17,RB,81,5,81.76,62.34,A,B,0,652.5
17,RB,82,5,95.74,79.51,A,B,0,694.8
17,RB,83,5,44.3,17.21,B,B,1,671.9
17,RB,84,5,31.82,2.52,B,B,1,750.1
17,RB,85,5,37.83,4.04,B,B,1,674.5
17,RB,86,5,57.78,20.84,A,B,0,672.9
17,RB,87,5,14.58,88.37,B,A,0,688.8
17,RB,88,5,20.12,48.04,B,A,0,649.6
17,RB,89,5,79.89,46.52,A,B,0,650.7
17,RB,90,5,83.39,18.78,A,A,1,697.7
17,RB,91,5,98.59,77.64,A,A,1,607.8
17,RB,92,5,65.92,29.03,A,A,1,681.1
17,RB,93,5,32.52,93.76,B,A,0,578.5
17,RB,94,5,95.07,95.56,A,B,0,704.9
17,RB,95,5,5.6,92.21,B,A,0,637.5
17,RB,96,5,52.04,2.25,A,A,1,614.7
17,RB,97,5,21.55,63.06,B,A,0,694.4
17,RB,98,5,98.86,42.76,A,A,1,632.4
17,RB,99,5,80.85,19.13,A,B,0,641.2
17,RB,100,5,84.9,79.25,A,B,0,579.8
17,RB,101,6,40.57,89.04,B,B,1,667.1
17,RB,102,6,98.7,49.12,A,A,1,668.8
17,RB,103,6,2.09,94.47,B,B,1,693.8
17,RB,104,6,15.97,3.18,B,B,1,563.5
17,RB,105,6,35.04,32.61,B,B,1,708.4
17,RB,106,6,64.79,80.84,A,B,0,640.1
17,RB,107,6,43.65,26.75,B,B,1,517.0
17,RB,108,6,1.17,32.73,B,B,1,554.5
17,RB,109,6,65.88,49.42,A,A,1,638.7
17,RB,110,6,69.85,49.22,A,B,0,697.1
17,RB,111,6,42.63,43.07,B,A,0,744.9
17,RB,112,6,19.77,16.15,B,B,1,566.6
17,RB,113,6,88.89,28.9,A,B,0,519.1
17,RB,114,6,43.31,54.38,B,A,0,654.4
17,RB,115,6,49.29,56.67,B,B,1,706.5
17,RB,116,6,6.61,17.74,B,A,0,652.4
17,RB,117,6,80.53,78.8,A,A,1,623.8
17,RB,118,6,11.75,60.43,B,A,0,670.7
17,RB,119,6,73.2,66.55,A,A,1,562.3
17,RB,120,6,15.07,20.39,B,B,1,540.9
17,RB,121,7,1.82,38.51,B,A,0,554.7
17,RB,122,7,35.93,29.94,B,B,1,581.6
17,RB,123,7,92.68,85.97,A,A,1,737.3
17,RB,124,7,69.26,4.02,A,B,0,575.1
17,RB,125,7,39.23,38.9,B,B,1,754.8
17,RB,126,7,34.83,19.12,B,B,1,625.0
17,RB,127,7,66.15,46.19,A,B,0,470.6
17,RB,128,7,84.39,12.19,A,A,1,525.2
17,RB,129,7,47.51,27.28,B,B,1,671.6
17,RB,130,7,20.18,26.33,B,B,1,599.1
17,RB,131,7,20.7,98.3,B,B,1,550.0
17,RB,132,7,80.08,45.91,A,A,1,535.2
17,RB,133,7,99.27,82.18,A,A,1,706.3
17,RB,134,7,27.46,87.15,B,B,1,645.8
17,RB,135,7,97.69,61.18,A,A,1,595.4
17,RB,136,7,14.55,14.44,B,B,1,762.2
17,RB,137,7,33.67,99.12,B,B,1,619.8
17,RB,138,7,43.41,89.17,B,B,1,698.4
17,RB,139,7,29.76,6.02,B,B,1,782.3
17,RB,140,7,76.36,20.62,A,A,1,719.4
17,RB,141,8,4.42,92.7,B,B,1,578.6
17,RB,142,8,5.63,4.71,B,A,0,827.7
17,RB,143,8,15.15,26.86,B,B,1,509.2
17,RB,144,8,34.33,13.3,B,B,1,682.5
17,RB,145,8,94.99,9.72,A,A,1,608.3
17,RB,146,8,69.34,34.12,A,A,1,609.0
17,RB,147,8,31.15,45.66,B,B,1,541.3
17,RB,148,8,96.64,63.24,A,A,1,594.0
17,RB,149,8,41.54,31.21,B,B,1,563.7
17,RB,150,8,76.57,53.2,A,A,1,639.8
17,RB,151,8,20.6,23.1,B,B,1,713.4
17,RB,152,8,40.52,45.6,B,B,1,647.2
17,RB,153,8,31.15,18.82,B,B,1,716.3
17,RB,154,8,60.63,56.93,A,A,1,733.7
17,RB,155,8,99.22,56.35,A,A,1,455.9
17,RB,156,8,51.84,45.79,A,A,1,584.3
17,RB,157,8,94.5,79.89,A,A,1,518.3
17,RB,158,8,78.25,32.83,A,A,1,778.6
17,RB,159,8,71.96,40.56,A,A,1,639.5
17,RB,160,8,98.27,30.6,A,A,1,610.2
17,RB,161,9,35.1,17.05,B,B,1,845.3
17,RB,162,9,51.05,49.29,A,A,1,655.8
17,RB,163,9,83.77,33.13,A,A,1,676.2
17,RB,164,9,4.65,44.96,B,A,0,697.9
17,RB,165,9,79.67,91.82,A,A,1,757.1
17,RB,166,9,60.51,4.23,A,A,1,742.2
17,RB,167,9,78.8,65.38,A,A,1,608.7
17,RB,168,9,4.52,11.09,B,B,1,650.7
17,RB,169,9,45.92,50.49,B,B,1,684.2
17,RB,170,9,9.62,11.21,B,B,1,734.5
17,RB,171,9,58.27,53.48,A,A,1,757.4
17,RB,172,9,34.79,9.61,B,B,1,646.8
17,RB,173,9,21.98,60.9,B,B,1,640.3
17,RB,174,9,34.54,8.32,B,B,1,567.5
17,RB,175,9,74.03,70.2,A,A,1,647.9
17,RB,176,9,36.63,82.44,B,B,1,610.1
17,RB,177,9,16.55,18.93,B,B,1,826.9
17,RB,178,9,37.15,93.38,B,B,1,679.9
17,RB,179,9,19.26,29.15,B,B,1,663.9
17,RB,180,9,15.66,34.24,B,B,1,763.5
17,RB,181,10,77.68,20.49,A,A,1,748.4
17,RB,182,10,74.32,41.12,A,A,1,578.0
17,RB,183,10,75.75,84.21,A,A,1,618.5
17,RB,184,10,0.54,68.52,B,B,1,575.6
17,RB,185,10,87.24,5.05,A,A,1,685.3
17,RB,186,10,71.49,31.21,A,A,1,604.9
17,RB,187,10,3.9,54.62,B,B,1,726.3
17,RB,188,10,6.2,78.94,B,A,0,591.7
17,RB,189,10,10.52,26.51,B,B,1,581.7
17,RB,190,10,59.57,0.81,A,A,1,667.8
17,RB,191,10,39.43,3.99,B,B,1,580.3
17,RB,192,10,21.57,98.43,B,A,0,721.8
17,RB,193,10,4.89,25.6,B,B,1,719.6
17,RB,194,10,10.02,45.69,B,B,1,700.5
17,RB,195,10,56.75,2.37,A,B,0,734.9
17,RB,196,10,22.67,9.23,B,B,1,603.7
17,RB,197,10,65.88,23.02,A,A,1,467.8
17,RB,198,10,66.12,97.42,A,A,1,578.1
17,RB,199,10,95.52,87.92,A,A,1,638.2
17,RB,200,10,15.12,25.8,B,B,1,751.5
17,RB,201,11,33.62,81.56,B,B,1,456.1
17,RB,202,11,87.05,32.17,A,A,1,719.1
17,RB,203,11,95.41,37.39,A,A,1,661.6
17,RB,204,11,55.09,9.67,A,B,0,719.3
17,RB,205,11,50.45,7.66,A,A,1,756.6
17,RB,206,11,19.49,71.16,B,B,1,612.6
17,RB,207,11,20.22,72.37,B,B,1,739.2
17,RB,208,11,83.39,12.44,A,A,1,698.7
17,RB,209,11,58.16,46.32,A,A,1,682.1
17,RB,210,11,65.58,93.15,A,A,1,671.4
17,RB,211,11,28.66,78.92,B,B,1,549.3
17,RB,212,11,85.98,74.3,A,A,1,688.8
17,RB,213,11,50.84,36.77,A,A,1,714.3
17,RB,214,11,15.62,1.04,B,B,1,764.6
17,RB,215,11,93.17,73.63,A,A,1,565.8
17,RB,216,11,91.54,89.66,A,A,1,622.9
17,RB,217,11,94.25,25.63,A,A,1,645.1
17,RB,218,11,57.36,29.78,A,A,1,570.5
17,RB,219,11,6.36,42.98,B,B,1,568.8
17,RB,220,11,32.8,28.57,B,B,1,660.3
17,RB,221,12,99.94,31.57,A,B,0,720.4
17,RB,222,12,72.13,70.3,A,A,1,599.7
17,RB,223,12,22.46,84.36,B,B,1,679.3
17,RB,224,12,52.9,35.4,A,A,1,597.4
17,RB,225,12,26.2,70.33,B,B,1,515.8
17,RB,226,12,41.21,23.15,B,B,1,746.6
17,RB,227,12,63.73,0.72,A,A,1,718.7
17,RB,228,12,73.79,51.35,A,A,1,670.9
17,RB,229,12,16.38,0.8,B,B,1,701.7
17,RB,230,12,25.77,74.2,B,B,1,733.9
17,RB,231,12,28.76,12.83,B,B,1,601.5
17,RB,232,12,88.37,65.97,A,A,1,637.8
17,RB,233,12,92.36,48.03,A,A,1,489.4
17,RB,234,12,34.5,20.76,B,B,1,817.4
17,RB,235,12,20.93,73.34,B,B,1,618.9
17,RB,236,12,99.85,57.24,A,A,1,647.9
17,RB,237,12,58.79,46.56,A,A,1,667.4
17,RB,238,12,76.24,86.99,A,A,1,702.1
17,RB,239,12,33.5,93.84,B,B,1,596.1
17,RB,240,12,66.96,20.62,A,A,1,756.6
17,RB,241,13,11.32,73.59,B,B,1,686.7
17,RB,242,13,78.31,73.85,A,A,1,585.6
17,RB,243,13,84.14,11.97,A,A,1,584.3
17,RB,244,13,65.23,47.59,A,A,1,485.7
17,RB,245,13,80.74,85.53,A,A,1,755.1
17,RB,246,13,53.94,38.08,A,A,1,478.9
17,RB,247,13,32.44,31.98,B,B,1,794.4
17,RB,248,13,93.06,39.54,A,A,1,673.3
17,RB,249,13,66.51,89.79,A,A,1,637.1
17,RB,250,13,33.1,55.85,B,B,1,690.1
17,RB,251,13,54.4,47.27,A,A,1,603.5
17,RB,252,13,40.67,79.8,B,B,1,683.2
17,RB,253,13,0.43,92.66,B,B,1,775.4
17,RB,254,13,55.88,18.27,A,A,1,588.1
17,RB,255,13,79.88,9.58,A,B,0,557.4
17,RB,256,13,41.42,0.58,B,B,1,744.0
17,RB,257,13,52.41,6.79,A,A,1,615.0
17,RB,258,13,37.02,78.61,B,B,1,660.8
17,RB,259,13,56.09,81.35,A,A,1,729.7
17,RB,260,13,68.46,43.59,A,A,1,711.4
17,RB,261,14,19.29,54.69,B,B,1,704.0
17,RB,262,14,81.32,94.68,A,A,1,572.7
17,RB,263,14,31.27,50.29,B,B,1,648.0
17,RB,264,14,44.07,52.55,B,B,1,698.2
17,RB,265,14,55.34,20.22,A,A,1,605.2
17,RB,266,14,32.58,16.94,B,B,1,780.0
17,RB,267,14,26.3,19.75,B,B,1,601.1
17,RB,268,14,58.93,17.79,A,A,1,805.3
17,RB,269,14,87.88,21.52,A,B,0,681.9
17,RB,270,14,32.45,60.98,B,B,1,696.2
17,RB,271,14,31.22,8.27,B,B,1,543.6
17,RB,272,14,5.68,40.88,B,B,1,733.5
17,RB,273,14,4.8,6.12,B,B,1,620.1
17,RB,274,14,8.07,67.97,B,B,1,639.3
17,RB,275,14,49.42,7.34,B,B,1,663.6
17,RB,276,14,89.64,50.46,A,A,1,757.0
17,RB,277,14,6.15,81.35,B,B,1,817.5
17,RB,278,14,74.17,38.58,A,A,1,565.6
17,RB,279,14,18.75,89.48,B,B,1,554.1
17,RB,280,14,18.53,25.89,B,B,1,689.3
17,RB,281,15,84.05,6.96,A,A,1,651.7
17,RB,282,15,43.31,92.08,B,B,1,663.8
17,RB,283,15,64.34,30.33,A,A,1,576.1
17,RB,284,15,75.64,28.12,A,A,1,751.1
17,RB,285,15,81.73,68.98,A,A,1,522.6
17,RB,286,15,60.45,80.48,A,A,1,600.0
17,RB,287,15,38.05,59.92,B,B,1,586.9
17,RB,288,15,96.07,4.89,A,A,1,705.2
17,RB,289,15,23.64,29.63,B,B,1,514.1
17,RB,290,15,2.45,25.8,B,B,1,613.8
17,RB,291,15,9.39,34.91,B,B,1,679.0
17,RB,292,15,68.24,39.82,A,B,0,608.9
17,RB,293,15,74.57,64.22,A,A,1,593.6
17,RB,294,15,45.42,70.77,B,B,1,652.4
17,RB,295,15,67.05,2.67,A,A,1,500.3
17,RB,296,15,54.23,85.13,A,A,1,601.4
17,RB,297,15,37.44,1.17,B,B,1,598.2
17,RB,298,15,70.88,96.03,A,A,1,711.5
17,RB,299,15,0.76,33.34,B,B,1,558.2
17,RB,300,15,11.17,41.21,B,B,1,597.9
17,RB,301,16,52.67,17.47,A,A,1,645.1
17,RB,302,16,69.35,22.48,A,A,1,588.8
17,RB,303,16,60.48,59.65,A,A,1,556.7
17,RB,304,16,38.46,85.58,B,B,1,633.1
17,RB,305,16,16.11,48.38,B,B,1,643.9
17,RB,306,16,46.93,49.75,B,B,1,638.5
17,RB,307,16,28.79,69.43,B,B,1,635.6
17,RB,308,16,52.91,4.33,A,A,1,598.3
17,RB,309,16,79.51,30.94,A,A,1,661.8
17,RB,310,16,20.7,50.25,B,A,0,648.6
17,RB,311,16,26.88,92.11,B,B,1,737.7
17,RB,312,16,29.0,58.96,B,B,1,595.6
17,RB,313,16,86.42,15.9,A,A,1,596.1
17,RB,314,16,48.31,46.29,B,B,1,738.3
17,RB,315,16,54.42,0.55,A,A,1,586.0
17,RB,316,16,41.3,74.17,B,B,1,533.1
17,RB,317,16,13.89,48.76,B,B,1,661.8
17,RB,318,16,26.28,31.13,B,B,1,493.3
17,RB,319,16,67.47,89.36,A,A,1,794.2
17,RB,320,16,18.22,91.56,B,B,1,700.7
17,RB,321,17,65.07,54.5,A,A,1,852.8
17,RB,322,17,14.09,78.44,B,B,1,733.7
17,RB,323,17,24.75,25.69,B,B,1,685.8
17,RB,324,17,13.81,4.15,B,B,1,692.6
17,RB,325,17,23.64,94.73,B,B,1,648.5
17,RB,326,17,17.87,57.25,B,B,1,605.2
17,RB,327,17,36.86,23.6,B,B,1,727.2
17,RB,328,17,13.94,63.4,B,A,0,578.1
17,RB,329,17,14.9,96.01,B,B,1,619.8
17,RB,330,17,60.7,73.31,A,A,1,708.1
17,RB,331,17,33.98,5.18,B,B,1,661.6
17,RB,332,17,67.43,22.98,A,A,1,661.6
17,RB,333,17,78.44,93.58,A,A,1,666.6
17,RB,334,17,56.72,29.36,A,A,1,635.8
17,RB,335,17,40.56,1.95,B,B,1,634.9
17,RB,336,17,60.91,54.22,A,A,1,723.5
17,RB,337,17,35.62,93.43,B,B,1,665.6
17,RB,338,17,49.92,37.05,B,B,1,732.6
17,RB,339,17,80.33,99.22,A,A,1,551.5
17,RB,340,17,58.92,91.09,A,A,1,563.1
17,RB,341,18,14.08,91.72,B,B,1,751.4
17,RB,342,18,18.22,75.33,B,B,1,705.8
17,RB,343,18,32.85,80.71,B,B,1,577.7
17,RB,344,18,24.3,43.03,B,B,1,764.1
17,RB,345,18,22.37,20.78,B,B,1,662.9
17,RB,346,18,43.56,38.85,B,B,1,597.5
17,RB,347,18,56.67,36.28,A,A,1,539.1
17,RB,348,18,73.56,4.63,A,A,1,763.9
17,RB,349,18,48.25,0.01,B,A,0,650.7
17,RB,350,18,0.65,56.82,B,B,1,770.7
17,RB,351,18,70.48,73.17,A,A,1,713.8
17,RB,352,18,63.3,82.63,A,A,1,610.7
17,RB,353,18,9.59,5.73,B,B,1,540.5
17,RB,354,18,25.53,90.14,B,B,1,635.4
17,RB,355,18,72.32,32.35,A,A,1,701.6
17,RB,356,18,20.79,26.72,B,B,1,635.3
17,RB,357,18,65.06,9.67,A,A,1,591.8
17,RB,358,18,32.04,48.95,B,B,1,654.4
17,RB,359,18,93.94,21.52,A,A,1,632.5
17,RB,360,18,64.88,57.15,A,A,1,691.2
17,RB,361,19,24.45,0.75,B,B,1,790.4
17,RB,362,19,29.46,62.09,B,B,1,485.9
17,RB,363,19,75.53,53.88,A,A,1,659.8
17,RB,364,19,54.71,41.32,A,B,0,685.9
17,RB,365,19,81.71,65.91,A,B,0,725.8
17,RB,366,19,82.49,54.17,A,A,1,738.8
17,RB,367,19,67.85,32.72,A,A,1,680.2
17,RB,368,19,8.29,30.93,B,B,1,661.3
17,RB,369,19,75.29,68.57,A,A,1,649.5
17,RB,370,19,3.09,89.87,B,B,1,596.2
17,RB,371,19,8.45,69.6,B,B,1,605.5
17,RB,372,19,11.2,40.16,B,A,0,645.8
17,RB,373,19,44.59,86.71,B,B,1,542.0
17,RB,374,19,51.22,18.64,A,A,1,724.6
17,RB,375,19,0.09,61.05,B,B,1,673.4
17,RB,376,19,44.71,97.26,B,A,0,663.6
17,RB,377,19,29.53,36.22,B,B,1,609.8
17,RB,378,19,63.55,49.86,A,A,1,593.4
17,RB,379,19,95.11,78.87,A,A,1,686.3
17,RB,380,19,32.39,12.63,B,B,1,831.2
17,RB,381,20,52.02,66.46,A,A,1,569.0
17,RB,382,20,77.76,11.68,A,A,1,607.2
17,RB,383,20,85.25,95.14,A,A,1,623.4
17,RB,384,20,69.47,98.04,A,A,1,629.9
17,RB,385,20,74.75,87.2,A,A,1,589.4
17,RB,386,20,57.0,90.25,A,A,1,657.4
17,RB,387,20,98.88,52.72,A,A,1,597.0
17,RB,388,20,54.27,28.96,A,A,1,627.1
17,RB,389,20,92.81,60.15,A,A,1,638.9
17,RB,390,20,12.65,97.96,B,B,1,640.6
17,RB,391,20,1.42,60.14,B,B,1,566.9
17,RB,392,20,99.07,51.23,A,A,1,657.2
17,RB,393,20,2.79,23.32,B,B,1,660.1
17,RB,394,20,37.06,4.6,B,B,1,647.1
17,RB,395,20,87.32,81.79,A,A,1,724.1
17,RB,396,20,67.19,53.25,A,A,1,726.0
17,RB,397,20,90.8,59.24,A,A,1,649.8
17,RB,398,20,90.04,48.67,A,A,1,537.4
17,RB,399,20,93.48,30.58,A,A,1,522.5
17,RB,400,20,39.78,32.13,B,B,1,500.7
17,RB,401,21,24.64,14.28,B,B,1,589.4
17,RB,402,21,76.79,83.87,A,A,1,723.4
17,RB,403,21,80.95,79.43,A,A,1,715.2
17,RB,404,21,37.37,5.94,B,A,0,621.8
17,RB,405,21,46.21,53.59,B,B,1,528.8
17,RB,406,21,42.09,38.89,B,B,1,744.2
17,RB,407,21,99.78,97.32,A,A,1,628.1
17,RB,408,21,80.33,76.24,A,A,1,727.3
17,RB,409,21,21.03,5.74,B,B,1,565.3
17,RB,410,21,84.58,77.07,A,A,1,733.2
17,RB,411,21,95.68,67.61,A,A,1,659.2
17,RB,412,21,17.56,88.05,B,B,1,591.9
17,RB,413,21,80.19,6.83,A,A,1,747.5
17,RB,414,21,15.87,51.6,B,B,1,533.3
17,RB,415,21,41.36,51.58,B,B,1,590.4
17,RB,416,21,27.43,83.12,B,B,1,693.0
17,RB,417,21,68.71,20.57,A,A,1,661.6
17,RB,418,21,17.62,25.74,B,A,0,901.4
17,RB,419,21,43.9,85.14,B,A,0,654.4
17,RB,420,21,55.19,79.11,A,A,1,569.2
17,RB,421,22,99.83,34.7,A,A,1,602.0
17,RB,422,22,46.38,96.16,B,B,1,679.6
17,RB,423,22,6.98,70.83,B,B,1,654.7
17,RB,424,22,71.94,75.26,A,A,1,584.6
17,RB,425,22,87.0,46.13,A,A,1,591.7
17,RB,426,22,17.98,37.17,B,B,1,715.2
17,RB,427,22,64.18,60.91,A,A,1,625.9
17,RB,428,22,91.43,69.57,A,A,1,632.3
17,RB,429,22,29.49,13.82,B,B,1,714.1
17,RB,430,22,6.12,33.9,B,B,1,694.5
17,RB,431,22,24.26,77.34,B,B,1,662.2
17,RB,432,22,35.92,10.01,B,B,1,679.1
17,RB,433,22,11.18,96.69,B,B,1,600.4
17,RB,434,22,55.51,71.65,A,A,1,542.3
17,RB,435,22,44.13,46.48,B,B,1,756.8
17,RB,436,22,32.95,62.87,B,B,1,598.1
17,RB,437,22,57.54,22.85,A,A,1,665.0
17,RB,438,22,83.37,23.98,A,A,1,597.5
17,RB,439,22,39.38,16.66,B,B,1,580.6
17,RB,440,22,48.62,44.63,B,B,1,757.0
17,RB,441,23,0.81,57.45,B,B,1,676.1
17,RB,442,23,91.75,3.97,A,A,1,630.1
17,RB,443,23,12.79,75.21,B,B,1,645.8
17,RB,444,23,52.58,69.35,A,A,1,571.4
17,RB,445,23,86.11,39.13,A,A,1,769.5
17,RB,446,23,68.4,23.93,A,B,0,618.5
17,RB,447,23,9.57,27.54,B,B,1,552.5
17,RB,448,23,32.32,81.42,B,B,1,598.9
17,RB,449,23,92.87,35.12,A,A,1,736.2
17,RB,450,23,91.76,67.23,A,A,1,561.2
17,RB,451,23,24.29,41.58,B,B,1,700.1
17,RB,452,23,71.95,42.53,A,A,1,722.6
17,RB,453,23,99.76,8.52,A,A,1,769.0
17,RB,454,23,51.57,44.78,A,A,1,666.1
17,RB,455,23,99.89,79.04,A,A,1,773.1
17,RB,456,23,58.88,0.74,A,A,1,637.0
17,RB,457,23,32.61,72.48,B,B,1,546.9
17,RB,458,23,25.41,94.59,B,B,1,564.6
17,RB,459,23,44.08,17.81,B,A,0,609.8
17,RB,460,23,68.21,39.17,A,B,0,750.1
17,RB,461,24,46.47,66.82,B,B,1,629.4
17,RB,462,24,13.55,31.03,B,B,1,784.5
17,RB,463,24,6.47,21.25,B,B,1,692.3
17,RB,464,24,66.87,67.66,A,A,1,538.9
17,RB,465,24,58.56,49.58,A,A,1,519.9
17,RB,466,24,63.07,40.6,A,B,0,610.7
17,RB,467,24,74.84,56.48,A,A,1,692.2
17,RB,468,24,31.81,97.6,B,B,1,807.3
17,RB,469,24,22.51,46.61,B,B,1,657.3
17,RB,470,24,23.18,25.57,B,B,1,613.9
17,RB,471,24,66.19,27.04,A,A,1,597.3
17,RB,472,24,64.8,20.03,A,B,0,642.0
17,RB,473,24,67.09,18.54,A,A,1,660.8
17,RB,474,24,94.21,68.59,A,A,1,579.1
17,RB,475,24,82.42,56.18,A,A,1,704.8
17,RB,476,24,8.51,95.98,B,B,1,727.1
17,RB,477,24,14.28,19.18,B,B,1,696.4
17,RB,478,24,87.2,79.51,A,B,0,581.7
17,RB,479,24,30.66,51.36,B,B,1,724.5
17,RB,480,24,62.63,38.81,A,A,1,647.7
17,RB,481,25,47.49,64.76,B,B,1,512.6
17,RB,482,25,9.78,48.48,B,B,1,710.1
17,RB,483,25,16.83,29.62,B,B,1,535.1
17,RB,484,25,77.54,80.47,A,A,1,616.0
17,RB,485,25,28.31,42.89,B,B,1,631.5
17,RB,486,25,10.39,63.6,B,B,1,504.8
17,RB,487,25,77.1,15.33,A,A,1,729.3
17,RB,488,25,61.0,71.87,A,A,1,608.2
17,RB,489,25,21.22,84.5,B,B,1,620.4
17,RB,490,25,75.85,53.08,A,A,1,622.0
17,RB,491,25,91.15,16.17,A,B,0,740.9
17,RB,492,25,31.4,57.87,B,B,1,661.2
17,RB,493,25,72.13,44.28,A,A,1,780.8
17,RB,494,25,37.46,58.31,B,B,1,709.3
17,RB,495,25,85.37,60.55,A,A,1,504.5
17,RB,496,25,44.09,30.41,B,A,0,767.9
17,RB,497,25,53.64,22.37,A,A,1,753.8
17,RB,498,25,25.01,17.92,B,A,0,733.3
17,RB,499,25,78.51,61.52,A,A,1,636.2
17,RB,500,25,96.69,99.63,A,A,1,601.2
