sub_id,group,trial,block,stim_freq,stim_orient,correct_category,response,correct,rt
30,II,1,1,34.63,37.17,B,B,1,846.8
30,II,2,1,43.37,45.22,B,B,1,716.2
30,II,3,1,99.89,69.28,A,A,1,881.7
30,II,4,1,74.31,6.96,B,A,0,667.5
30,II,5,1,98.97,22.02,A,A,1,730.4
30,II,6,1,56.32,18.12,B,B,1,834.6
30,II,7,1,7.75,82.26,B,A,0,548.7
30,II,8,1,59.67,43.84,A,B,0,689.0
30,II,9,1,3.05,82.32,B,A,0,866.7
30,II,10,1,46.63,49.43,B,B,1,671.6
30,II,11,1,80.04,12.92,B,A,0,587.7
30,II,12,1,23.76,1.12,B,A,0,643.3
30,II,13,1,30.39,80.93,A,B,0,718.2
30,II,14,1,7.53,69.54,B,A,0,586.1
30,II,15,1,55.21,96.24,A,B,0,800.1
30,II,16,1,98.15,30.23,A,B,0,785.6
30,II,17,1,87.65,14.99,A,A,1,823.4
30,II,18,1,30.08,51.4,B,B,1,579.2
30,II,19,1,77.84,48.67,A,B,0,731.8
30,II,20,1,32.41,89.82,A,A,1,840.9
30,II,21,2,44.1,56.45,A,A,1,651.0
30,II,22,2,54.25,52.38,A,B,0,685.3
30,II,23,2,62.33,24.56,B,A,0,693.2
30,II,24,2,49.46,97.54,A,B,0,734.9
30,II,25,2,94.73,84.54,A,A,1,825.1
30,II,26,2,22.02,63.53,B,A,0,719.6
30,II,27,2,35.29,48.92,B,A,0,809.4
30,II,28,2,96.48,48.15,A,B,0,684.8
30,II,29,2,32.98,38.76,B,B,1,787.8
30,II,30,2,42.78,40.34,B,A,0,697.8
30,II,31,2,63.63,89.9,A,B,0,609.1
30,II,32,2,70.6,10.44,B,B,1,804.3
30,II,33,2,65.73,11.24,B,A,0,793.3
30,II,34,2,28.84,63.97,B,A,0,750.9
30,II,35,2,1.83,43.9,B,A,0,667.7
30,II,36,2,89.9,93.77,A,A,1,741.7
30,II,37,2,80.55,32.2,A,B,0,731.1
30,II,38,2,91.96,25.52,A,A,1,787.0
30,II,39,2,89.92,78.49,A,A,1,614.4
30,II,40,2,42.99,13.81,B,B,1,735.5
30,II,41,3,69.26,13.06,B,B,1,626.3
30,II,42,3,82.65,41.17,A,A,1,740.9
30,II,43,3,48.91,85.88,A,A,1,693.9
30,II,44,3,51.54,13.97,B,A,0,721.2
30,II,45,3,30.32,47.98,B,A,0,824.2
30,II,46,3,41.29,39.32,B,A,0,702.4
30,II,47,3,3.13,57.97,B,B,1,562.0
30,II,48,3,50.43,3.63,B,A,0,718.8
30,II,49,3,30.07,94.74,A,B,0,796.0
30,II,50,3,14.34,84.56,B,A,0,669.9
30,II,51,3,44.27,17.26,B,B,1,654.6
30,II,52,3,45.66,20.89,B,B,1,566.6
30,II,53,3,64.86,75.96,A,A,1,705.2
30,II,54,3,38.03,50.14,B,A,0,786.8
30,II,55,3,45.48,57.4,A,A,1,632.5
30,II,56,3,70.57,69.6,A,A,1,613.5
30,II,57,3,94.53,15.09,A,A,1,759.9
30,II,58,3,5.45,66.05,B,B,1,809.5
30,II,59,3,28.82,21.05,B,A,0,593.5
30,II,60,3,56.4,25.54,B,A,0,676.7
30,II,61,4,76.37,32.55,A,B,0,827.8
30,II,62,4,14.9,73.93,B,B,1,699.5
30,II,63,4,9.89,77.21,B,B,1,576.9
30,II,64,4,89.35,72.93,A,A,1,751.4
30,II,65,4,77.36,94.56,A,A,1,700.2
30,II,66,4,81.99,84.19,A,A,1,759.3
30,II,67,4,77.79,13.6,B,A,0,909.8
30,II,68,4,10.61,53.88,B,B,1,750.2
30,II,69,4,89.5,33.51,A,B,0,633.6
30,II,70,4,15.34,95.89,A,B,0,706.3
30,II,71,4,60.34,5.19,B,B,1,588.7
30,II,72,4,39.52,70.04,A,B,0,594.4
30,II,73,4,94.49,23.51,A,B,0,850.5
30,II,74,4,51.89,30.76,B,A,0,745.4
30,II,75,4,21.73,56.18,B,A,0,670.5
30,II,76,4,68.73,33.14,A,B,0,672.0
30,II,77,4,91.7,80.06,A,A,1,757.2
30,II,78,4,66.92,76.51,A,A,1,470.3
30,II,79,4,17.74,44.96,B,B,1,808.3
30,II,80,4,47.44,27.53,B,B,1,708.3
30,II,81,5,54.89,2.33,B,A,0,721.0
30,II,82,5,79.72,25.06,A,A,1,773.4
30,II,83,5,6.27,83.0,B,A,0,777.4
30,II,84,5,63.19,78.68,A,A,1,675.5
30,II,85,5,82.19,91.23,A,B,0,594.2
30,II,86,5,56.09,39.93,B,A,0,644.2
30,II,87,5,87.79,64.57,A,B,0,489.6
30,II,88,5,39.23,62.97,A,B,0,784.4
30,II,89,5,93.15,14.57,A,A,1,787.0
30,II,90,5,30.3,42.11,B,B,1,610.2
30,II,91,5,48.71,52.57,A,A,1,810.5
30,II,92,5,64.19,83.45,A,A,1,568.2
30,II,93,5,10.04,32.82,B,B,1,604.0
30,II,94,5,85.36,68.97,A,A,1,681.7
30,II,95,5,86.54,95.07,A,B,0,634.4
30,II,96,5,68.33,83.43,A,A,1,713.6
30,II,97,5,31.87,54.95,B,B,1,588.0
30,II,98,5,78.46,25.81,A,A,1,667.5
30,II,99,5,73.59,63.23,A,A,1,852.9
30,II,100,5,42.63,31.92,B,B,1,622.6
30,II,101,6,99.68,93.03,A,B,0,850.8
30,II,102,6,77.17,36.04,A,A,1,712.7
30,II,103,6,61.38,0.44,B,B,1,718.4
30,II,104,6,1.1,57.56,B,B,1,809.0
30,II,105,6,70.42,59.43,A,B,0,751.9
30,II,106,6,13.34,78.28,B,B,1,653.7
30,II,107,6,98.62,26.9,A,A,1,667.1
30,II,108,6,21.43,24.54,B,A,0,607.0
30,II,109,6,19.05,77.81,B,A,0,739.1
30,II,110,6,22.19,73.54,B,A,0,586.9
30,II,111,6,29.95,15.62,B,A,0,848.7
30,II,112,6,93.67,90.68,A,B,0,773.7
30,II,113,6,7.68,87.63,B,B,1,781.2
30,II,114,6,91.02,44.56,A,B,0,710.2
30,II,115,6,75.9,42.37,A,B,0,772.4
30,II,116,6,41.23,12.7,B,A,0,733.4
30,II,117,6,80.41,87.03,A,B,0,707.0
30,II,118,6,82.65,0.13,B,B,1,706.2
30,II,119,6,7.48,57.23,B,B,1,837.3
30,II,120,6,10.16,48.03,B,B,1,670.6
30,II,121,7,28.93,51.68,B,A,0,732.4
30,II,122,7,59.5,27.97,B,A,0,765.5
30,II,123,7,74.0,94.94,A,A,1,585.5
30,II,124,7,45.92,44.53,B,B,1,578.0
30,II,125,7,5.68,90.77,B,B,1,726.8
30,II,126,7,67.45,79.93,A,A,1,725.1
30,II,127,7,17.16,5.34,B,B,1,670.9
30,II,128,7,92.9,53.04,A,B,0,590.2
30,II,129,7,2.07,53.22,B,A,0,703.9
30,II,130,7,98.3,56.04,A,B,0,688.8
30,II,131,7,91.16,68.44,A,B,0,686.4
30,II,132,7,82.38,15.89,B,B,1,619.3
30,II,133,7,39.28,43.8,B,B,1,568.6
30,II,134,7,52.3,55.46,A,A,1,717.8
30,II,135,7,60.72,82.18,A,A,1,829.6
30,II,136,7,14.82,35.95,B,B,1,724.8
30,II,137,7,36.74,97.5,A,A,1,749.4
30,II,138,7,78.6,47.66,A,B,0,429.7
30,II,139,7,79.24,25.44,A,B,0,703.7
30,II,140,7,17.69,92.73,A,B,0,662.7
30,II,141,8,40.14,61.08,A,A,1,757.1
30,II,142,8,15.87,73.8,B,A,0,764.5
30,II,143,8,64.6,18.24,B,A,0,774.2
30,II,144,8,44.53,90.08,A,B,0,884.0
30,II,145,8,8.73,56.15,B,B,1,645.2
30,II,146,8,46.78,77.0,A,B,0,736.2
30,II,147,8,31.82,83.35,A,A,1,674.8
30,II,148,8,51.48,14.11,B,B,1,661.4
30,II,149,8,75.84,75.6,A,A,1,730.0
30,II,150,8,78.23,14.45,B,B,1,603.2
30,II,151,8,78.03,4.42,B,A,0,639.6
30,II,152,8,1.96,73.77,B,A,0,603.5
30,II,153,8,20.19,86.21,A,A,1,790.5
30,II,154,8,0.99,50.2,B,A,0,763.7
30,II,155,8,35.99,52.27,B,B,1,748.6
30,II,156,8,79.5,35.3,A,B,0,789.2
30,II,157,8,6.72,93.13,B,B,1,705.4
30,II,158,8,44.41,78.38,A,A,1,757.8
30,II,159,8,53.27,1.75,B,B,1,761.2
30,II,160,8,18.77,39.42,B,B,1,613.1
30,II,161,9,87.21,65.91,A,A,1,694.5
30,II,162,9,4.12,39.5,B,A,0,771.6
30,II,163,9,92.11,92.46,A,A,1,733.2
30,II,164,9,11.45,7.64,B,B,1,713.2
30,II,165,9,66.72,30.87,B,A,0,711.2
30,II,166,9,42.71,75.23,A,B,0,650.8
30,II,167,9,36.51,99.49,A,B,0,715.1
30,II,168,9,37.7,46.01,B,B,1,636.8
30,II,169,9,74.6,92.13,A,A,1,645.2
30,II,170,9,82.02,96.39,A,A,1,775.3
30,II,171,9,80.27,0.66,B,B,1,767.4
30,II,172,9,45.82,54.97,A,B,0,688.8
30,II,173,9,94.22,42.72,A,B,0,710.6
30,II,174,9,10.48,46.42,B,B,1,646.3
30,II,175,9,54.86,36.66,B,A,0,731.4
30,II,176,9,1.28,89.31,B,B,1,733.8
30,II,177,9,63.76,42.74,A,B,0,489.4
30,II,178,9,83.63,67.13,A,B,0,568.6
30,II,179,9,98.35,58.71,A,A,1,642.0
30,II,180,9,57.46,9.37,B,B,1,666.0
30,II,181,10,83.02,34.57,A,A,1,820.5
30,II,182,10,12.62,3.85,B,A,0,632.2
30,II,183,10,80.39,85.61,A,A,1,743.8
30,II,184,10,41.82,3.69,B,A,0,804.2
30,II,185,10,72.5,73.94,A,B,0,757.2
30,II,186,10,47.82,33.85,B,A,0,628.2
30,II,187,10,42.43,5.94,B,B,1,724.4
30,II,188,10,19.7,84.75,A,A,1,761.0
30,II,189,10,99.65,36.05,A,A,1,683.4
30,II,190,10,21.51,70.87,B,B,1,791.5
30,II,191,10,64.76,43.79,A,A,1,658.2
30,II,192,10,93.08,41.57,A,B,0,645.7
30,II,193,10,6.9,15.78,B,B,1,709.7
30,II,194,10,76.12,98.27,A,A,1,753.3
30,II,195,10,2.85,97.36,A,A,1,648.7
30,II,196,10,43.65,75.43,A,A,1,721.9
30,II,197,10,5.86,44.78,B,A,0,622.5
30,II,198,10,58.2,16.41,B,A,0,731.9
30,II,199,10,26.34,64.24,B,A,0,737.6
30,II,200,10,54.94,3.34,B,A,0,806.8
30,II,201,11,99.09,42.32,A,A,1,742.1
30,II,202,11,3.05,10.72,B,A,0,680.7
30,II,203,11,56.43,79.46,A,B,0,608.8
30,II,204,11,51.78,6.93,B,B,1,677.0
30,II,205,11,3.0,13.39,B,B,1,682.8
30,II,206,11,34.51,19.64,B,B,1,752.5
30,II,207,11,73.24,19.35,B,B,1,598.5
30,II,208,11,57.77,11.81,B,A,0,718.0
30,II,209,11,1.71,20.41,B,B,1,646.9
30,II,210,11,1.37,42.18,B,A,0,607.6
30,II,211,11,92.92,72.83,A,A,1,699.0
30,II,212,11,52.99,7.39,B,A,0,498.6
30,II,213,11,52.81,84.44,A,A,1,667.9
30,II,214,11,29.06,28.91,B,B,1,782.9
30,II,215,11,33.22,91.8,A,B,0,537.9
30,II,216,11,81.88,12.59,B,B,1,537.2
30,II,217,11,4.25,34.95,B,B,1,785.2
30,II,218,11,7.55,81.23,B,A,0,690.0
30,II,219,11,96.28,1.28,B,A,0,775.1
30,II,220,11,99.99,35.17,A,B,0,750.3
30,II,221,12,57.87,6.12,B,B,1,668.3
30,II,222,12,75.63,59.72,A,A,1,599.6
30,II,223,12,96.38,1.64,B,B,1,726.7
30,II,224,12,73.7,12.5,B,B,1,824.4
30,II,225,12,22.19,62.91,B,A,0,537.8
30,II,226,12,65.47,89.86,A,A,1,658.2
30,II,227,12,18.54,15.28,B,A,0,631.8
30,II,228,12,24.12,15.7,B,B,1,713.6
30,II,229,12,79.7,99.04,A,B,0,864.7
30,II,230,12,19.26,61.37,B,B,1,766.8
30,II,231,12,24.43,49.78,B,B,1,716.2
30,II,232,12,22.47,68.45,B,B,1,532.2
30,II,233,12,56.81,52.08,A,A,1,759.0
30,II,234,12,39.36,62.04,A,A,1,654.7
30,II,235,12,93.83,0.52,B,B,1,669.2
30,II,236,12,84.02,21.38,A,B,0,709.0
30,II,237,12,67.55,59.52,A,A,1,682.0
30,II,238,12,52.44,13.71,B,B,1,686.5
30,II,239,12,22.95,97.87,A,A,1,623.3
30,II,240,12,6.7,27.55,B,B,1,691.1
30,II,241,13,89.07,20.57,A,A,1,786.6
30,II,242,13,45.96,50.23,B,B,1,638.4
30,II,243,13,88.89,98.91,A,A,1,690.1
30,II,244,13,51.01,37.22,B,B,1,469.1
30,II,245,13,36.36,59.41,B,B,1,570.9
30,II,246,13,25.02,68.07,B,B,1,776.3
30,II,247,13,49.85,65.01,A,B,0,742.6
30,II,248,13,18.63,39.04,B,B,1,732.4
30,II,249,13,84.52,83.84,A,A,1,628.2
30,II,250,13,90.06,79.24,A,B,0,676.6
30,II,251,13,10.25,35.74,B,B,1,643.3
30,II,252,13,19.02,67.54,B,B,1,557.8
30,II,253,13,1.82,77.52,B,A,0,625.5
30,II,254,13,98.3,17.26,A,A,1,653.6
30,II,255,13,56.8,48.37,A,A,1,741.8
30,II,256,13,36.38,78.63,A,A,1,688.6
30,II,257,13,22.44,18.78,B,B,1,605.9
30,II,258,13,28.78,49.23,B,B,1,619.0
30,II,259,13,63.52,91.77,A,A,1,828.6
30,II,260,13,24.99,68.97,B,B,1,618.7
30,II,261,14,62.8,72.8,A,A,1,677.1
30,II,262,14,87.84,43.94,A,A,1,749.5
30,II,263,14,46.52,22.24,B,B,1,723.6
30,II,264,14,61.91,88.53,A,B,0,697.0
30,II,265,14,84.43,84.17,A,B,0,826.4
30,II,266,14,51.49,7.11,B,B,1,687.5
30,II,267,14,57.28,82.4,A,B,0,649.4
30,II,268,14,96.4,38.63,A,A,1,621.3
30,II,269,14,47.33,30.68,B,A,0,737.4
30,II,270,14,18.72,37.83,B,B,1,670.8
30,II,271,14,50.88,43.37,B,B,1,804.7
30,II,272,14,37.16,8.1,B,A,0,640.4
30,II,273,14,70.27,57.25,A,A,1,715.9
30,II,274,14,13.89,9.25,B,B,1,614.3
30,II,275,14,63.71,9.99,B,B,1,575.9
30,II,276,14,58.12,50.54,A,A,1,706.1
30,II,277,14,43.27,35.06,B,A,0,755.5
30,II,278,14,4.54,87.14,B,B,1,580.2
30,II,279,14,0.65,2.83,B,B,1,608.6
30,II,280,14,80.83,62.43,A,B,0,644.4
30,II,281,15,17.35,39.79,B,B,1,696.2
30,II,282,15,87.26,47.5,A,A,1,617.6
30,II,283,15,45.08,34.82,B,B,1,793.1
30,II,284,15,95.93,77.08,A,A,1,744.2
30,II,285,15,46.72,59.01,A,A,1,675.2
30,II,286,15,42.16,27.6,B,B,1,586.9
30,II,287,15,36.86,38.01,B,B,1,740.0
30,II,288,15,51.99,23.91,B,B,1,734.8
30,II,289,15,68.49,50.75,A,B,0,743.3
30,II,290,15,3.83,63.37,B,B,1,883.7
30,II,291,15,22.4,12.5,B,A,0,680.0
30,II,292,15,40.14,39.93,B,B,1,700.1
30,II,293,15,5.28,49.67,B,B,1,643.4
30,II,294,15,58.99,26.42,B,A,0,624.8
30,II,295,15,60.88,11.41,B,B,1,698.7
30,II,296,15,70.73,79.93,A,A,1,694.5
30,II,297,15,99.21,95.37,A,A,1,574.6
30,II,298,15,77.11,47.34,A,A,1,618.7
30,II,299,15,84.33,69.26,A,A,1,668.7
30,II,300,15,75.33,2.85,B,B,1,739.1
30,II,301,16,25.22,75.11,A,A,1,853.8
30,II,302,16,15.41,94.2,A,A,1,705.3
30,II,303,16,2.77,5.89,B,B,1,728.8
30,II,304,16,87.81,60.46,A,A,1,682.6
30,II,305,16,17.18,69.39,B,B,1,644.5
30,II,306,16,17.85,63.13,B,A,0,572.3
30,II,307,16,90.73,56.17,A,A,1,678.5
30,II,308,16,85.9,1.76,B,B,1,664.6
30,II,309,16,20.65,39.6,B,B,1,659.4
30,II,310,16,15.95,70.17,B,B,1,707.9
30,II,311,16,79.92,41.39,A,A,1,645.2
30,II,312,16,4.26,74.29,B,B,1,533.5
30,II,313,16,35.8,24.82,B,B,1,696.1
30,II,314,16,10.31,44.34,B,B,1,586.8
30,II,315,16,99.31,9.15,A,A,1,762.7
30,II,316,16,75.9,49.07,A,A,1,546.3
30,II,317,16,64.75,3.63,B,B,1,572.2
30,II,318,16,26.27,13.76,B,B,1,709.3
30,II,319,16,34.86,76.33,A,B,0,775.7
30,II,320,16,5.43,24.94,B,B,1,559.2
30,II,321,17,32.85,60.19,B,B,1,707.5
30,II,322,17,67.83,80.9,A,A,1,915.6
30,II,323,17,94.79,8.98,A,A,1,735.9
30,II,324,17,25.67,23.73,B,B,1,710.1
30,II,325,17,91.74,84.18,A,A,1,613.7
30,II,326,17,67.24,41.37,A,A,1,694.3
30,II,327,17,36.1,22.59,B,B,1,604.2
30,II,328,17,81.4,64.39,A,A,1,668.0
30,II,329,17,72.59,55.55,A,A,1,632.6
30,II,330,17,46.07,75.11,A,A,1,699.1
30,II,331,17,0.59,45.71,B,B,1,569.1
30,II,332,17,62.3,31.26,B,A,0,535.9
30,II,333,17,49.34,4.26,B,B,1,667.6
30,II,334,17,80.19,1.76,B,B,1,639.1
30,II,335,17,66.17,70.81,A,A,1,631.9
30,II,336,17,96.75,31.09,A,A,1,658.8
30,II,337,17,25.1,89.99,A,A,1,780.0
30,II,338,17,4.73,77.48,B,B,1,824.5
30,II,339,17,10.08,42.82,B,B,1,575.4
30,II,340,17,80.78,99.6,A,A,1,775.2
30,II,341,18,13.82,28.48,B,B,1,680.9
30,II,342,18,39.35,26.65,B,B,1,616.4
30,II,343,18,89.84,56.11,A,A,1,603.1
30,II,344,18,1.31,68.63,B,B,1,681.8
30,II,345,18,62.23,79.24,A,B,0,656.0
30,II,346,18,82.37,13.86,B,B,1,599.6
30,II,347,18,42.58,53.91,B,B,1,608.0
30,II,348,18,97.48,74.05,A,A,1,643.4
30,II,349,18,0.13,26.94,B,B,1,571.1
30,II,350,18,2.67,16.74,B,A,0,454.4
30,II,351,18,89.42,99.63,A,A,1,708.5
30,II,352,18,98.29,8.98,A,A,1,557.9
30,II,353,18,68.11,52.32,A,B,0,617.2
30,II,354,18,97.87,39.94,A,A,1,650.4
30,II,355,18,41.86,82.02,A,A,1,833.8
30,II,356,18,46.7,1.05,B,B,1,600.6
30,II,357,18,26.94,23.81,B,A,0,686.6
30,II,358,18,40.69,22.88,B,B,1,731.6
30,II,359,18,12.38,16.45,B,B,1,542.1
30,II,360,18,77.5,3.66,B,B,1,716.8
30,II,361,19,29.15,25.14,B,A,0,493.0
30,II,362,19,96.19,40.89,A,A,1,563.9
30,II,363,19,92.38,52.61,A,A,1,755.6
30,II,364,19,12.01,13.67,B,B,1,599.8
30,II,365,19,32.69,98.26,A,A,1,632.3
30,II,366,19,40.11,81.89,A,A,1,680.0
30,II,367,19,30.19,69.25,B,A,0,725.4
30,II,368,19,18.9,69.17,B,B,1,776.6
30,II,369,19,73.81,18.72,B,B,1,835.2
30,II,370,19,65.09,1.1,B,A,0,656.8
30,II,371,19,39.29,13.72,B,B,1,576.9
30,II,372,19,91.53,72.7,A,A,1,665.3
30,II,373,19,35.38,19.6,B,B,1,708.8
30,II,374,19,90.04,86.45,A,A,1,719.5
30,II,375,19,81.45,54.44,A,A,1,779.5
30,II,376,19,9.07,71.75,B,B,1,631.7
30,II,377,19,44.31,30.6,B,B,1,721.6
30,II,378,19,59.34,17.45,B,A,0,650.5
30,II,379,19,51.57,34.26,B,B,1,709.8
30,II,380,19,78.69,70.95,A,A,1,683.2
30,II,381,20,65.71,69.5,A,A,1,657.2
30,II,382,20,78.37,90.9,A,A,1,554.0
30,II,383,20,38.19,73.04,A,A,1,800.3
30,II,384,20,2.96,80.09,B,B,1,647.1
30,II,385,20,99.4,70.85,A,A,1,565.1
30,II,386,20,33.32,96.09,A,B,0,803.9
30,II,387,20,92.24,37.7,A,A,1,769.5
30,II,388,20,34.49,65.01,B,B,1,734.8
30,II,389,20,90.84,16.13,A,A,1,724.3
30,II,390,20,80.89,54.81,A,A,1,644.4
30,II,391,20,54.99,38.87,B,B,1,633.4
30,II,392,20,75.15,82.89,A,A,1,596.8
30,II,393,20,70.3,87.04,A,A,1,721.1
30,II,394,20,98.81,38.93,A,A,1,640.6
30,II,395,20,29.28,36.37,B,B,1,574.4
30,II,396,20,2.7,11.87,B,B,1,568.5
30,II,397,20,69.49,51.46,A,A,1,647.2
30,II,398,20,1.31,89.13,B,B,1,747.4
30,II,399,20,57.38,40.57,B,B,1,630.8
30,II,400,20,94.49,91.54,A,B,0,589.3
30,II,401,21,74.76,50.86,A,A,1,644.5
30,II,402,21,58.81,71.36,A,A,1,579.9
30,II,403,21,94.5,69.6,A,A,1,644.8
30,II,404,21,63.77,19.34,B,A,0,629.0
30,II,405,21,27.74,19.49,B,B,1,677.9
30,II,406,21,80.58,88.23,A,A,1,738.0
30,II,407,21,63.91,37.39,A,A,1,717.7
30,II,408,21,14.57,64.57,B,B,1,631.8
30,II,409,21,47.69,95.18,A,B,0,723.7
30,II,410,21,68.67,53.04,A,A,1,675.2
30,II,411,21,5.84,35.88,B,B,1,552.9
30,II,412,21,86.01,69.02,A,A,1,692.6
30,II,413,21,87.12,31.84,A,A,1,498.6
30,II,414,21,31.29,91.5,A,A,1,742.1
30,II,415,21,77.09,60.57,A,A,1,605.2
30,II,416,21,44.18,19.62,B,B,1,612.4
30,II,417,21,63.06,43.44,A,A,1,619.9
30,II,418,21,89.89,21.04,A,A,1,773.5
30,II,419,21,22.84,9.39,B,B,1,599.2
30,II,420,21,17.05,99.48,A,A,1,626.1
30,II,421,22,67.84,24.23,B,B,1,688.6
30,II,422,22,52.58,34.93,B,A,0,744.9
30,II,423,22,90.96,60.21,A,B,0,659.4
30,II,424,22,64.2,52.54,A,A,1,596.1
30,II,425,22,95.25,49.53,A,A,1,602.8
30,II,426,22,21.98,90.46,A,A,1,766.0
30,II,427,22,4.63,40.12,B,A,0,715.6
30,II,428,22,23.82,33.17,B,B,1,586.2
30,II,429,22,62.34,36.4,B,A,0,533.3
30,II,430,22,50.88,29.45,B,B,1,729.6
30,II,431,22,47.78,21.14,B,B,1,689.9
30,II,432,22,86.53,78.66,A,B,0,831.2
30,II,433,22,36.29,74.3,A,B,0,546.5
30,II,434,22,10.25,72.13,B,B,1,508.8
30,II,435,22,81.56,15.89,B,B,1,748.2
30,II,436,22,90.75,59.4,A,A,1,700.3
30,II,437,22,87.01,63.41,A,A,1,507.9
30,II,438,22,90.45,24.99,A,A,1,720.1
30,II,439,22,82.38,53.93,A,A,1,578.6
30,II,440,22,22.25,75.23,B,B,1,595.6
30,II,441,23,62.7,64.04,A,B,0,669.0
30,II,442,23,80.41,39.79,A,A,1,567.2
30,II,443,23,50.87,36.76,B,B,1,619.9
30,II,444,23,29.69,2.36,B,B,1,724.4
30,II,445,23,64.47,85.02,A,A,1,662.2
30,II,446,23,41.16,15.79,B,B,1,700.3
30,II,447,23,26.9,88.26,A,A,1,642.4
30,II,448,23,36.04,74.32,A,B,0,527.8
30,II,449,23,41.09,40.96,B,B,1,582.1
30,II,450,23,74.27,75.99,A,A,1,683.1
30,II,451,23,73.74,79.7,A,B,0,639.1
30,II,452,23,32.78,82.58,A,A,1,758.5
30,II,453,23,79.38,48.05,A,A,1,728.0
30,II,454,23,0.73,54.39,B,B,1,599.6
30,II,455,23,7.86,44.83,B,B,1,613.5
30,II,456,23,29.46,74.99,A,A,1,692.0
30,II,457,23,91.85,12.66,A,A,1,631.6
30,II,458,23,71.84,59.82,A,B,0,736.1
30,II,459,23,91.88,77.75,A,A,1,566.5
30,II,460,23,5.21,67.21,B,B,1,671.7
30,II,461,24,42.9,59.26,A,A,1,616.3
30,II,462,24,67.94,88.68,A,A,1,652.3
30,II,463,24,86.55,81.35,A,A,1,625.6
30,II,464,24,31.96,37.4,B,B,1,605.6
30,II,465,24,54.05,6.94,B,B,1,656.2
30,II,466,24,4.88,64.64,B,B,1,575.2
30,II,467,24,65.66,28.84,B,B,1,716.2
30,II,468,24,92.73,86.56,A,A,1,616.1
30,II,469,24,99.68,90.09,A,A,1,543.3
30,II,470,24,85.18,41.22,A,A,1,480.7
30,II,471,24,18.51,4.32,B,B,1,670.7
30,II,472,24,4.09,55.21,B,B,1,645.4
30,II,473,24,47.19,45.96,B,A,0,614.8
30,II,474,24,39.78,91.65,A,A,1,661.0
30,II,475,24,29.35,57.52,B,B,1,619.4
30,II,476,24,82.08,13.72,B,B,1,744.8
30,II,477,24,95.77,21.67,A,A,1,680.1
30,II,478,24,94.56,1.63,B,B,1,625.3
30,II,479,24,62.59,25.28,B,B,1,436.7
30,II,480,24,32.16,27.65,B,B,1,595.3
30,II,481,25,3.73,44.3,B,B,1,673.6
30,II,482,25,34.03,37.01,B,B,1,784.7
30,II,483,25,15.1,37.59,B,B,1,677.4
30,II,484,25,25.08,74.72,B,B,1,605.3
30,II,485,25,24.44,15.0,B,B,1,806.5
30,II,486,25,21.4,79.37,A,A,1,610.0
30,II,487,25,96.75,54.39,A,A,1,678.7
30,II,488,25,34.81,35.02,B,B,1,596.3
30,II,489,25,30.77,46.92,B,A,0,559.3
30,II,490,25,45.27,5.96,B,B,1,610.6
30,II,491,25,36.57,11.75,B,A,0,562.0
30,II,492,25,34.42,71.72,A,A,1,584.8
30,II,493,25,5.24,96.89,A,A,1,647.3
30,II,494,25,14.45,43.77,B,B,1,691.1
30,II,495,25,16.26,89.64,A,B,0,597.0
30,II,496,25,40.93,44.09,B,B,1,581.9
30,II,497,25,43.01,53.56,B,B,1,589.8
30,II,498,25,5.6,39.05,B,B,1,661.0
30,II,499,25,62.94,16.98,B,B,1,641.8
30,II,500,25,84.99,41.22,A,A,1,714.1
