condition,subject,trial,sub_task,cat,x,y,xt,yt,resp,rt,fb
4F4K_incongruent,100,0,1,115,59.44,72.62,0.07,1.14,107,1649,Incorrect
4F4K_incongruent,100,1,2,108,14.69,37.99,0.02,0.6,108,1344,Correct
4F4K_incongruent,100,2,2,97,61.77,31.67,0.07,0.5,97,861,Correct
4F4K_incongruent,100,3,1,115,62.95,76.4,0.07,1.2,115,956,Correct
4F4K_incongruent,100,4,1,107,44.88,35.92,0.05,0.56,115,708,Incorrect
4F4K_incongruent,100,5,2,97,66.33,44.78,0.07,0.7,97,866,Correct
4F4K_incongruent,100,6,1,107,49.6,21.71,0.06,0.34,115,828,Incorrect
4F4K_incongruent,100,7,1,107,49.17,18.29,0.06,0.29,107,825,Correct
4F4K_incongruent,100,8,1,115,39.28,49.04,0.04,0.77,115,598,Correct
4F4K_incongruent,100,9,1,115,23.17,44.94,0.03,0.71,115,675,Correct
4F4K_incongruent,100,10,1,107,62.05,54.1,0.07,0.85,107,891,Correct
4F4K_incongruent,100,11,2,108,34.79,48.25,0.04,0.76,97,1179,Incorrect
4F4K_incongruent,100,12,1,107,40.18,21.24,0.04,0.33,115,607,Incorrect
4F4K_incongruent,100,13,2,108,11.32,33.14,0.01,0.52,97,747,Incorrect
4F4K_incongruent,100,14,1,107,84.94,64.86,0.1,1.02,107,866,Correct
4F4K_incongruent,100,15,2,108,24.03,35.58,0.03,0.56,108,754,Correct
4F4K_incongruent,100,16,2,108,43.41,66.21,0.05,1.04,97,636,Incorrect
4F4K_incongruent,100,17,1,115,14.65,33.5,0.02,0.53,115,739,Correct
4F4K_incongruent,100,18,1,115,33.48,63.17,0.04,0.99,115,647,Correct
4F4K_incongruent,100,19,2,108,21.6,47.06,0.02,0.74,97,1333,Incorrect
4F4K_incongruent,100,20,2,108,66.37,78.98,0.07,1.24,97,469,Incorrect
4F4K_incongruent,100,21,1,115,32.37,62.58,0.04,0.98,115,1535,Correct
4F4K_incongruent,100,22,1,115,67.22,86.29,0.08,1.36,107,498,Incorrect
4F4K_incongruent,100,23,2,108,64.76,83.77,0.07,1.32,108,1220,Correct
4F4K_incongruent,100,24,2,97,38.95,16.92,0.04,0.27,97,629,Correct
4F4K_incongruent,100,25,2,97,70.24,61.15,0.08,0.96,108,800,Incorrect
4F4K_incongruent,100,26,1,115,31.0,47.03,0.03,0.74,115,1004,Correct
4F4K_incongruent,100,27,1,107,41.26,27.58,0.05,0.43,115,550,Incorrect
4F4K_incongruent,100,28,1,107,72.51,53.64,0.08,0.84,107,920,Correct
4F4K_incongruent,100,29,2,108,57.01,69.96,0.06,1.1,108,613,Correct
4F4K_incongruent,100,30,2,97,40.32,31.25,0.05,0.49,97,832,Correct
4F4K_incongruent,100,31,1,115,62.18,82.82,0.07,1.3,107,842,Incorrect
4F4K_incongruent,100,32,2,97,87.2,64.66,0.1,1.02,108,564,Incorrect
4F4K_incongruent,100,33,2,97,61.7,36.62,0.07,0.58,97,765,Correct
4F4K_incongruent,100,34,1,107,63.17,34.04,0.07,0.53,107,871,Correct
4F4K_incongruent,100,35,1,115,61.42,77.72,0.07,1.22,107,785,Incorrect
4F4K_incongruent,100,36,2,108,68.63,84.49,0.08,1.33,108,775,Correct
4F4K_incongruent,100,37,2,97,82.24,57.13,0.09,0.9,108,752,Incorrect
4F4K_incongruent,100,38,1,107,34.29,16.76,0.04,0.26,115,648,Incorrect
4F4K_incongruent,100,39,1,107,55.89,36.61,0.06,0.58,107,3814,Correct
4F4K_incongruent,100,40,1,107,79.74,60.65,0.09,0.95,107,1788,Correct
4F4K_incongruent,100,41,2,97,79.5,50.36,0.09,0.79,108,1756,Incorrect
4F4K_incongruent,100,42,2,108,30.22,43.57,0.03,0.68,97,1105,Incorrect
4F4K_incongruent,100,43,1,115,24.42,42.8,0.03,0.67,115,1073,Correct
4F4K_incongruent,100,44,2,108,33.58,48.89,0.04,0.77,97,958,Incorrect
4F4K_incongruent,100,45,1,107,41.46,14.93,0.05,0.23,107,851,Correct
4F4K_incongruent,100,46,1,115,60.73,75.38,0.07,1.18,115,3128,Correct
4F4K_incongruent,100,47,2,97,62.94,32.79,0.07,0.52,97,975,Correct
4F4K_incongruent,100,48,1,107,59.13,51.27,0.07,0.81,107,2694,Correct
4F4K_incongruent,100,49,1,107,85.59,59.66,0.1,0.94,107,1692,Correct
4F4K_incongruent,100,50,1,115,12.15,34.89,0.01,0.55,115,1197,Correct
4F4K_incongruent,100,51,1,115,57.1,80.42,0.06,1.26,115,1287,Correct
4F4K_incongruent,100,52,2,108,49.62,71.48,0.06,1.12,97,1327,Incorrect
4F4K_incongruent,100,53,2,108,30.41,59.33,0.03,0.93,108,773,Correct
4F4K_incongruent,100,54,2,108,12.06,36.44,0.01,0.57,97,843,Incorrect
4F4K_incongruent,100,55,1,107,57.09,28.65,0.06,0.45,115,1593,Incorrect
4F4K_incongruent,100,56,1,115,26.36,45.48,0.03,0.71,107,852,Incorrect
4F4K_incongruent,100,57,1,107,58.71,36.21,0.07,0.57,115,773,Incorrect
4F4K_incongruent,100,58,2,108,18.57,32.59,0.02,0.51,97,944,Incorrect
4F4K_incongruent,100,59,2,97,59.59,44.79,0.07,0.7,108,625,Incorrect
4F4K_incongruent,100,60,2,97,54.06,24.04,0.06,0.38,97,631,Correct
4F4K_incongruent,100,61,1,115,31.11,59.5,0.03,0.93,115,2923,Correct
4F4K_incongruent,100,62,1,115,41.26,50.99,0.05,0.8,115,1059,Correct
4F4K_incongruent,100,63,1,115,57.11,71.47,0.06,1.12,107,932,Incorrect
4F4K_incongruent,100,64,1,115,30.27,62.4,0.03,0.98,115,1181,Correct
4F4K_incongruent,100,65,2,97,89.0,63.97,0.1,1.0,108,842,Incorrect
4F4K_incongruent,100,66,2,97,39.99,22.95,0.04,0.36,108,1364,Incorrect
4F4K_incongruent,100,67,2,97,76.27,57.22,0.09,0.9,97,864,Correct
4F4K_incongruent,100,68,2,97,57.95,46.66,0.06,0.73,97,554,Correct
4F4K_incongruent,100,69,1,115,26.23,49.74,0.03,0.78,115,844,Correct
4F4K_incongruent,100,70,1,115,53.52,69.31,0.06,1.09,115,468,Correct
4F4K_incongruent,100,71,2,108,48.2,74.56,0.05,1.17,97,1210,Incorrect
4F4K_incongruent,100,72,2,108,67.82,81.69,0.08,1.28,108,384,Correct
4F4K_incongruent,100,73,2,97,54.22,42.24,0.06,0.66,108,580,Incorrect
4F4K_incongruent,100,74,1,115,36.33,60.29,0.04,0.95,115,886,Correct
4F4K_incongruent,100,75,1,115,47.4,66.07,0.05,1.04,115,910,Correct
4F4K_incongruent,100,76,1,107,88.84,62.77,0.1,0.99,107,1409,Correct
4F4K_incongruent,100,77,2,97,57.64,47.76,0.06,0.75,97,1040,Correct
4F4K_incongruent,100,78,1,107,54.39,27.36,0.06,0.43,115,991,Incorrect
4F4K_incongruent,100,79,1,115,31.43,44.43,0.04,0.7,115,1009,Correct
4F4K_incongruent,100,80,2,108,13.79,40.94,0.02,0.64,97,1195,Incorrect
4F4K_incongruent,100,81,1,107,60.74,44.39,0.07,0.7,107,861,Correct
4F4K_incongruent,100,82,1,107,80.4,50.79,0.09,0.8,107,782,Correct
4F4K_incongruent,100,83,2,108,57.41,81.46,0.06,1.28,108,654,Correct
4F4K_incongruent,100,84,2,108,12.33,38.54,0.01,0.61,108,913,Correct
4F4K_incongruent,100,85,2,97,66.57,55.59,0.07,0.87,108,573,Incorrect
4F4K_incongruent,100,86,1,107,75.86,62.21,0.08,0.98,107,1011,Correct
4F4K_incongruent,100,87,1,107,84.3,63.48,0.09,1.0,107,496,Correct
4F4K_incongruent,100,88,2,108,21.02,52.72,0.02,0.83,97,937,Incorrect
4F4K_incongruent,100,89,2,108,21.27,39.27,0.02,0.62,108,704,Correct
4F4K_incongruent,100,90,2,97,65.05,42.08,0.07,0.66,108,944,Incorrect
4F4K_incongruent,100,91,1,107,84.21,64.09,0.09,1.01,107,749,Correct
4F4K_incongruent,100,92,2,108,42.96,71.02,0.05,1.12,108,858,Correct
4F4K_incongruent,100,93,2,108,32.38,50.46,0.04,0.79,108,634,Correct
4F4K_incongruent,100,94,1,107,63.45,43.43,0.07,0.68,107,663,Correct
4F4K_incongruent,100,95,2,108,63.78,74.76,0.07,1.17,108,790,Correct
4F4K_incongruent,100,96,2,97,52.17,34.12,0.06,0.54,97,715,Correct
4F4K_incongruent,100,97,1,115,60.57,78.89,0.07,1.24,107,584,Incorrect
4F4K_incongruent,100,98,2,97,39.24,25.41,0.04,0.4,108,573,Incorrect
4F4K_incongruent,100,99,1,107,40.42,14.74,0.05,0.23,115,719,Incorrect
4F4K_incongruent,100,100,1,115,39.97,69.53,0.04,1.09,107,823,Incorrect
4F4K_incongruent,100,101,2,97,60.41,29.05,0.07,0.46,108,752,Incorrect
4F4K_incongruent,100,102,2,97,40.63,28.18,0.05,0.44,97,890,Correct
4F4K_incongruent,100,103,2,97,58.15,27.12,0.07,0.43,97,782,Correct
4F4K_incongruent,100,104,1,107,75.86,48.64,0.08,0.76,107,812,Correct
4F4K_incongruent,100,105,2,97,50.57,33.02,0.06,0.52,97,683,Correct
4F4K_incongruent,100,106,2,108,37.59,66.69,0.04,1.05,108,825,Correct
4F4K_incongruent,100,107,1,107,61.62,35.25,0.07,0.55,107,760,Correct
4F4K_incongruent,100,108,1,115,26.7,45.72,0.03,0.72,115,1151,Correct
4F4K_incongruent,100,109,1,107,38.82,14.55,0.04,0.23,115,775,Incorrect
4F4K_incongruent,100,110,2,97,64.75,39.97,0.07,0.63,108,764,Incorrect
4F4K_incongruent,100,111,1,115,33.18,54.75,0.04,0.86,115,1192,Correct
4F4K_incongruent,100,112,1,107,47.27,22.1,0.05,0.35,115,825,Incorrect
4F4K_incongruent,100,113,2,97,69.28,51.94,0.08,0.82,108,911,Incorrect
4F4K_incongruent,100,114,2,108,52.08,70.9,0.06,1.11,108,682,Correct
4F4K_incongruent,100,115,1,107,83.73,55.72,0.09,0.88,107,1082,Correct
4F4K_incongruent,100,116,1,115,12.59,39.73,0.01,0.62,115,1126,Correct
4F4K_incongruent,100,117,1,115,45.63,54.44,0.05,0.86,107,790,Incorrect
4F4K_incongruent,100,118,2,108,34.7,42.76,0.04,0.67,97,792,Incorrect
4F4K_incongruent,100,119,1,115,57.77,80.44,0.06,1.26,107,870,Incorrect
4F4K_incongruent,100,120,1,115,39.03,54.04,0.04,0.85,115,835,Correct
4F4K_incongruent,100,121,2,108,60.65,72.66,0.07,1.14,108,957,Correct
4F4K_incongruent,100,122,1,115,54.83,83.13,0.06,1.31,107,1008,Incorrect
4F4K_incongruent,100,123,1,107,80.95,58.53,0.09,0.92,107,682,Correct
4F4K_incongruent,100,124,2,108,37.81,67.71,0.04,1.06,108,1407,Correct
4F4K_incongruent,100,125,1,107,37.68,18.19,0.04,0.29,115,1717,Incorrect
4F4K_incongruent,100,126,1,107,63.21,37.26,0.07,0.59,107,943,Correct
4F4K_incongruent,100,127,2,108,31.34,62.38,0.04,0.98,108,1710,Correct
4F4K_incongruent,100,128,1,107,71.8,45.82,0.08,0.72,107,1189,Correct
4F4K_incongruent,100,129,2,108,32.11,53.83,0.04,0.85,97,1052,Incorrect
4F4K_incongruent,100,130,1,115,14.95,44.24,0.02,0.69,115,859,Correct
4F4K_incongruent,100,131,2,97,35.78,17.22,0.04,0.27,97,1060,Correct
4F4K_incongruent,100,132,1,107,56.93,39.31,0.06,0.62,107,503,Correct
4F4K_incongruent,100,133,1,107,82.45,59.31,0.09,0.93,107,438,Correct
4F4K_incongruent,100,134,1,115,25.91,48.68,0.03,0.76,115,465,Correct
4F4K_incongruent,100,135,2,97,31.25,15.58,0.03,0.24,97,882,Correct
4F4K_incongruent,100,136,2,97,48.66,22.47,0.05,0.35,97,780,Correct
4F4K_incongruent,100,137,2,108,58.22,78.39,0.07,1.23,108,577,Correct
4F4K_incongruent,100,138,2,108,62.97,76.05,0.07,1.19,108,566,Correct
4F4K_incongruent,100,139,1,115,34.58,58.74,0.04,0.92,107,612,Incorrect
4F4K_incongruent,100,140,2,108,39.88,47.52,0.04,0.75,97,846,Incorrect
4F4K_incongruent,100,141,1,115,55.12,82.15,0.06,1.29,107,485,Incorrect
4F4K_incongruent,100,142,2,108,20.73,36.29,0.02,0.57,108,755,Correct
4F4K_incongruent,100,143,2,97,48.19,36.37,0.05,0.57,108,486,Incorrect
4F4K_incongruent,100,144,2,108,36.03,62.97,0.04,0.99,108,501,Correct
4F4K_incongruent,100,145,1,107,73.0,44.05,0.08,0.69,107,438,Correct
4F4K_incongruent,100,146,1,115,62.76,72.04,0.07,1.13,107,479,Incorrect
4F4K_incongruent,100,147,2,97,73.16,41.72,0.08,0.66,108,786,Incorrect
4F4K_incongruent,100,148,1,107,33.32,12.48,0.04,0.2,115,678,Incorrect
4F4K_incongruent,100,149,2,97,48.23,28.28,0.05,0.44,108,1922,Incorrect
4F4K_incongruent,100,150,1,107,62.3,30.99,0.07,0.49,107,452,Correct
4F4K_incongruent,100,151,2,108,49.5,77.75,0.06,1.22,108,617,Correct
4F4K_incongruent,100,152,2,97,74.59,45.26,0.08,0.71,108,1436,Incorrect
4F4K_incongruent,100,153,1,107,72.95,47.58,0.08,0.75,107,442,Correct
4F4K_incongruent,100,154,1,115,66.42,81.79,0.07,1.28,115,848,Correct
4F4K_incongruent,100,155,1,115,51.42,79.5,0.06,1.25,115,950,Correct
4F4K_incongruent,100,156,2,108,41.37,66.22,0.05,1.04,108,1417,Correct
4F4K_incongruent,100,157,1,115,33.29,57.77,0.04,0.91,107,491,Incorrect
4F4K_incongruent,100,158,1,107,51.3,43.37,0.06,0.68,107,1946,Correct
4F4K_incongruent,100,159,2,108,53.32,75.78,0.06,1.19,108,817,Correct
4F4K_incongruent,100,160,1,115,42.03,62.35,0.05,0.98,107,1064,Incorrect
4F4K_incongruent,100,161,1,115,27.2,42.81,0.03,0.67,107,748,Incorrect
4F4K_incongruent,100,162,1,107,80.01,54.61,0.09,0.86,115,432,Incorrect
4F4K_incongruent,100,163,1,115,23.94,43.16,0.03,0.68,107,845,Incorrect
4F4K_incongruent,100,164,1,107,79.76,64.82,0.09,1.02,107,480,Correct
4F4K_incongruent,100,165,2,97,42.83,22.38,0.05,0.35,97,1060,Correct
4F4K_incongruent,100,166,1,115,18.77,42.54,0.02,0.67,107,675,Incorrect
4F4K_incongruent,100,167,2,108,17.54,42.58,0.02,0.67,108,635,Correct
4F4K_incongruent,100,168,1,115,40.55,71.95,0.05,1.13,107,490,Incorrect
4F4K_incongruent,100,169,1,107,81.02,64.86,0.09,1.02,107,436,Correct
4F4K_incongruent,100,170,1,107,48.04,19.38,0.05,0.3,115,620,Incorrect
4F4K_incongruent,100,171,1,107,48.99,25.53,0.05,0.4,107,637,Correct
4F4K_incongruent,100,172,1,107,46.47,22.42,0.05,0.35,107,829,Correct
4F4K_incongruent,100,173,2,108,44.44,59.05,0.05,0.93,108,899,Correct
4F4K_incongruent,100,174,1,107,57.73,44.6,0.06,0.7,107,606,Correct
4F4K_incongruent,100,175,1,107,43.55,24.31,0.05,0.38,107,1680,Correct
4F4K_incongruent,100,176,1,107,66.26,52.17,0.07,0.82,107,786,Correct
4F4K_incongruent,100,177,1,115,20.05,33.19,0.02,0.52,115,485,Correct
4F4K_incongruent,100,178,1,115,56.41,83.37,0.06,1.31,107,559,Incorrect
4F4K_incongruent,100,179,2,97,58.64,43.72,0.07,0.69,108,1220,Incorrect
4F4K_incongruent,100,180,1,115,14.68,41.99,0.02,0.66,115,561,Correct
4F4K_incongruent,100,181,1,107,57.82,28.37,0.06,0.45,107,655,Correct
4F4K_incongruent,100,182,1,107,54.15,34.0,0.06,0.53,107,651,Correct
4F4K_incongruent,100,183,1,115,22.57,38.04,0.03,0.6,115,538,Correct
4F4K_incongruent,100,184,2,97,80.13,57.67,0.09,0.91,108,832,Incorrect
4F4K_incongruent,100,185,1,107,45.85,36.98,0.05,0.58,107,613,Correct
4F4K_incongruent,100,186,1,107,86.5,59.8,0.1,0.94,107,563,Correct
4F4K_incongruent,100,187,2,97,38.93,25.41,0.04,0.4,108,669,Incorrect
4F4K_incongruent,100,188,1,115,62.46,78.19,0.07,1.23,107,642,Incorrect
4F4K_incongruent,100,189,1,115,35.17,57.02,0.04,0.9,115,855,Correct
4F4K_incongruent,100,190,2,97,75.03,50.24,0.08,0.79,108,731,Incorrect
4F4K_incongruent,100,191,2,97,55.08,39.26,0.06,0.62,108,740,Incorrect
4F4K_incongruent,100,192,1,107,47.09,28.26,0.05,0.44,115,751,Incorrect
4F4K_incongruent,100,193,1,115,35.97,63.55,0.04,1.0,107,711,Incorrect
4F4K_incongruent,100,194,1,115,29.53,38.34,0.03,0.6,115,424,Correct
4F4K_incongruent,100,195,1,107,31.44,13.18,0.04,0.21,115,543,Incorrect
4F4K_incongruent,100,196,2,97,55.61,41.39,0.06,0.65,108,707,Incorrect
4F4K_incongruent,100,197,1,115,37.0,70.16,0.04,1.1,107,749,Incorrect
4F4K_incongruent,100,198,2,97,82.6,52.19,0.09,0.82,108,745,Incorrect
4F4K_incongruent,100,199,2,97,68.93,43.54,0.08,0.68,97,399,Correct
4F4K_incongruent,100,200,2,97,67.78,38.82,0.08,0.61,97,527,Correct
4F4K_incongruent,100,201,2,108,17.41,46.33,0.02,0.73,108,681,Correct
4F4K_incongruent,100,202,1,115,21.72,43.57,0.02,0.68,115,638,Correct
4F4K_incongruent,100,203,2,108,33.88,50.39,0.04,0.79,97,590,Incorrect
4F4K_incongruent,100,204,1,115,29.1,55.02,0.03,0.86,115,774,Correct
4F4K_incongruent,100,205,1,115,47.12,73.4,0.05,1.15,107,480,Incorrect
4F4K_incongruent,100,206,1,115,27.36,53.48,0.03,0.84,115,441,Correct
4F4K_incongruent,100,207,2,97,59.98,32.11,0.07,0.5,97,462,Correct
4F4K_incongruent,100,208,1,115,48.27,73.88,0.05,1.16,107,857,Incorrect
4F4K_incongruent,100,209,1,115,19.51,38.67,0.02,0.61,115,517,Correct
4F4K_incongruent,100,210,2,108,65.92,85.28,0.07,1.34,108,854,Correct
4F4K_incongruent,100,211,2,97,32.12,13.17,0.04,0.21,97,634,Correct
4F4K_incongruent,100,212,2,97,51.65,24.45,0.06,0.38,97,705,Correct
4F4K_incongruent,100,213,1,107,88.29,68.77,0.1,1.08,115,544,Incorrect
4F4K_incongruent,100,214,2,97,70.08,51.67,0.08,0.81,97,887,Correct
4F4K_incongruent,100,215,1,107,70.16,50.49,0.08,0.79,107,515,Correct
4F4K_incongruent,100,216,2,97,75.12,42.39,0.08,0.67,97,523,Correct
4F4K_incongruent,100,217,2,97,70.02,52.59,0.08,0.83,97,695,Correct
4F4K_incongruent,100,218,1,107,51.93,26.36,0.06,0.41,115,687,Incorrect
4F4K_incongruent,100,219,2,108,61.51,78.19,0.07,1.23,97,659,Incorrect
4F4K_incongruent,100,220,1,115,16.64,40.64,0.02,0.64,115,1089,Correct
4F4K_incongruent,100,221,1,107,50.77,43.32,0.06,0.68,107,975,Correct
4F4K_incongruent,100,222,2,97,63.87,42.83,0.07,0.67,108,1062,Incorrect
4F4K_incongruent,100,223,2,97,82.41,65.53,0.09,1.03,97,786,Correct
4F4K_incongruent,100,224,2,108,39.88,62.32,0.04,0.98,97,763,Incorrect
4F4K_incongruent,100,225,1,115,59.94,82.64,0.07,1.3,115,1700,Correct
4F4K_incongruent,100,226,1,107,71.75,54.96,0.08,0.86,107,722,Correct
4F4K_incongruent,100,227,2,97,43.09,19.34,0.05,0.3,108,1154,Incorrect
4F4K_incongruent,100,228,2,97,53.39,36.75,0.06,0.58,97,685,Correct
4F4K_incongruent,100,229,2,108,53.51,61.42,0.06,0.96,97,1324,Incorrect
4F4K_incongruent,100,230,2,108,20.23,43.02,0.02,0.68,108,843,Correct
4F4K_incongruent,100,231,1,115,43.6,62.84,0.05,0.99,115,2754,Correct
4F4K_incongruent,100,232,1,115,54.35,76.82,0.06,1.21,107,697,Incorrect
4F4K_incongruent,100,233,2,108,58.85,67.86,0.07,1.07,97,2947,Incorrect
4F4K_incongruent,100,234,1,107,67.25,44.85,0.08,0.7,107,1653,Correct
4F4K_incongruent,100,235,1,115,28.72,50.64,0.03,0.8,115,1229,Correct
4F4K_incongruent,100,236,2,97,54.68,24.17,0.06,0.38,97,1686,Correct
4F4K_incongruent,100,237,1,115,23.1,37.44,0.03,0.59,107,2266,Incorrect
4F4K_incongruent,100,238,1,107,75.74,44.88,0.08,0.7,107,652,Correct
4F4K_incongruent,100,239,1,107,61.88,37.13,0.07,0.58,107,519,Correct
4F4K_incongruent,100,240,2,97,64.72,52.75,0.07,0.83,108,880,Incorrect
4F4K_incongruent,100,241,1,115,39.21,65.34,0.04,1.03,115,830,Correct
4F4K_incongruent,100,242,2,108,54.64,84.07,0.06,1.32,97,928,Incorrect
4F4K_incongruent,100,243,1,115,58.15,72.02,0.07,1.13,107,2151,Incorrect
4F4K_incongruent,100,244,2,97,61.14,39.68,0.07,0.62,97,2254,Correct
4F4K_incongruent,100,245,2,108,51.73,65.42,0.06,1.03,108,719,Correct
4F4K_incongruent,100,246,2,108,12.19,36.12,0.01,0.57,97,723,Incorrect
4F4K_incongruent,100,247,1,115,51.25,64.1,0.06,1.01,107,952,Incorrect
4F4K_incongruent,100,248,1,115,32.86,63.17,0.04,0.99,115,836,Correct
4F4K_incongruent,100,249,1,115,54.32,70.21,0.06,1.1,107,893,Incorrect
4F4K_incongruent,100,250,2,108,49.63,70.61,0.06,1.11,97,2050,Incorrect
4F4K_incongruent,100,251,2,97,70.57,56.83,0.08,0.89,108,772,Incorrect
4F4K_incongruent,100,252,1,107,47.96,36.59,0.05,0.57,115,777,Incorrect
4F4K_incongruent,100,253,2,108,53.21,78.54,0.06,1.23,97,852,Incorrect
4F4K_incongruent,100,254,1,115,40.44,67.0,0.05,1.05,107,346,Incorrect
4F4K_incongruent,100,255,1,115,18.81,36.61,0.02,0.58,107,508,Incorrect
4F4K_incongruent,100,256,1,115,29.83,46.06,0.03,0.72,115,407,Correct
4F4K_incongruent,100,257,2,97,52.06,22.78,0.06,0.36,97,534,Correct
4F4K_incongruent,100,258,2,108,54.44,81.94,0.06,1.29,108,673,Correct
4F4K_incongruent,100,259,1,115,44.04,61.77,0.05,0.97,107,516,Incorrect
4F4K_incongruent,100,260,2,97,59.98,30.99,0.07,0.49,97,736,Correct
4F4K_incongruent,100,261,1,115,46.21,54.43,0.05,0.85,107,1112,Incorrect
4F4K_incongruent,100,262,2,108,45.69,64.41,0.05,1.01,108,557,Correct
4F4K_incongruent,100,263,1,107,67.29,46.13,0.08,0.72,115,497,Incorrect
4F4K_incongruent,100,264,2,108,32.97,43.92,0.04,0.69,97,1158,Incorrect
4F4K_incongruent,100,265,1,107,41.75,27.57,0.05,0.43,115,707,Incorrect
4F4K_incongruent,100,266,1,115,62.18,78.48,0.07,1.23,107,482,Incorrect
4F4K_incongruent,100,267,1,107,45.06,19.1,0.05,0.3,115,587,Incorrect
4F4K_incongruent,100,268,1,115,20.35,34.25,0.02,0.54,107,895,Incorrect
4F4K_incongruent,100,269,2,108,28.41,59.3,0.03,0.93,108,829,Correct
4F4K_incongruent,100,270,1,107,65.93,56.95,0.07,0.89,107,1324,Correct
4F4K_incongruent,100,271,1,107,34.53,22.78,0.04,0.36,115,926,Incorrect
4F4K_incongruent,100,272,2,108,41.33,56.29,0.05,0.88,108,503,Correct
4F4K_incongruent,100,273,2,97,47.47,18.42,0.05,0.29,97,545,Correct
4F4K_incongruent,100,274,1,115,18.6,36.76,0.02,0.58,115,1345,Correct
4F4K_incongruent,100,275,1,107,71.18,60.87,0.08,0.96,107,458,Correct
4F4K_incongruent,100,276,1,115,44.56,60.96,0.05,0.96,115,674,Correct
4F4K_incongruent,100,277,1,115,48.57,75.91,0.05,1.19,107,938,Incorrect
4F4K_incongruent,100,278,2,97,89.24,66.69,0.1,1.05,108,590,Incorrect
4F4K_incongruent,100,279,2,97,38.36,18.17,0.04,0.29,97,486,Correct
4F4K_incongruent,100,280,1,107,42.71,29.68,0.05,0.47,115,476,Incorrect
4F4K_incongruent,100,281,2,97,45.89,34.31,0.05,0.54,97,1533,Correct
4F4K_incongruent,100,282,2,108,36.5,49.86,0.04,0.78,108,1405,Correct
4F4K_incongruent,100,283,2,108,66.24,82.55,0.07,1.3,108,804,Correct
4F4K_incongruent,100,284,1,107,53.13,42.77,0.06,0.67,107,2317,Correct
4F4K_incongruent,100,285,1,115,49.63,62.3,0.06,0.98,115,881,Correct
4F4K_incongruent,100,286,1,115,45.39,57.3,0.05,0.9,115,559,Correct
4F4K_incongruent,100,287,1,107,52.46,37.56,0.06,0.59,107,736,Correct
4F4K_incongruent,100,288,1,107,46.75,22.71,0.05,0.36,115,781,Incorrect
4F4K_incongruent,100,289,2,97,44.75,19.3,0.05,0.3,97,666,Correct
4F4K_incongruent,100,290,2,108,18.99,33.62,0.02,0.53,97,967,Incorrect
4F4K_incongruent,100,291,1,115,34.79,64.84,0.04,1.02,115,984,Correct
4F4K_incongruent,100,292,1,107,87.53,64.21,0.1,1.01,107,472,Correct
4F4K_incongruent,100,293,2,108,52.74,76.48,0.06,1.2,108,744,Correct
4F4K_incongruent,100,294,1,107,56.97,24.41,0.06,0.38,107,942,Correct
4F4K_incongruent,100,295,2,108,28.83,58.84,0.03,0.92,108,784,Correct
4F4K_incongruent,100,296,2,97,46.81,32.71,0.05,0.51,97,1293,Correct
4F4K_incongruent,100,297,2,108,26.21,38.53,0.03,0.61,108,849,Correct
4F4K_incongruent,100,298,1,115,59.81,87.64,0.07,1.38,107,548,Incorrect
4F4K_incongruent,100,299,2,97,84.58,64.13,0.09,1.01,108,704,Incorrect
4F4K_incongruent,100,300,1,115,13.62,42.24,0.02,0.66,115,546,Correct
4F4K_incongruent,100,301,1,107,41.51,19.3,0.05,0.3,115,1074,Incorrect
4F4K_incongruent,100,302,2,97,45.03,21.56,0.05,0.34,97,1478,Correct
4F4K_incongruent,100,303,1,115,40.45,71.22,0.05,1.12,115,816,Correct
4F4K_incongruent,100,304,1,107,48.35,35.96,0.05,0.56,107,817,Correct
4F4K_incongruent,100,305,2,108,44.46,61.28,0.05,0.96,108,537,Correct
4F4K_incongruent,100,306,2,97,36.52,15.55,0.04,0.24,97,618,Correct
4F4K_incongruent,100,307,2,97,72.45,39.39,0.08,0.62,108,574,Incorrect
4F4K_incongruent,100,308,2,97,67.48,39.56,0.08,0.62,97,1719,Correct
4F4K_incongruent,100,309,1,107,77.72,55.71,0.09,0.88,107,1028,Correct
4F4K_incongruent,100,310,2,97,47.85,27.66,0.05,0.43,97,549,Correct
4F4K_incongruent,100,311,2,108,33.8,43.83,0.04,0.69,108,704,Correct
4F4K_incongruent,100,312,1,107,47.27,19.79,0.05,0.31,115,1745,Incorrect
4F4K_incongruent,100,313,1,115,41.0,50.09,0.05,0.79,107,834,Incorrect
4F4K_incongruent,100,314,1,107,78.16,65.58,0.09,1.03,107,824,Correct
4F4K_incongruent,100,315,1,115,64.22,84.95,0.07,1.33,107,687,Incorrect
4F4K_incongruent,100,316,2,97,69.57,39.68,0.08,0.62,108,3031,Incorrect
4F4K_incongruent,100,317,2,97,58.63,26.59,0.07,0.42,97,610,Correct
4F4K_incongruent,100,318,2,97,88.76,68.23,0.1,1.07,108,707,Incorrect
4F4K_incongruent,100,319,1,107,44.07,25.72,0.05,0.4,115,1037,Incorrect
4F4K_incongruent,100,320,1,115,44.53,62.92,0.05,0.99,107,746,Incorrect
4F4K_incongruent,100,321,2,108,16.22,35.45,0.02,0.56,97,1845,Incorrect
4F4K_incongruent,100,322,2,108,65.65,78.65,0.07,1.24,108,667,Correct
4F4K_incongruent,100,323,1,107,43.04,14.54,0.05,0.23,115,1410,Incorrect
4F4K_incongruent,100,324,1,107,57.43,47.32,0.06,0.74,107,3563,Correct
4F4K_incongruent,100,325,1,107,82.16,51.85,0.09,0.81,107,2032,Correct
4F4K_incongruent,100,326,1,107,83.35,54.93,0.09,0.86,107,1737,Correct
4F4K_incongruent,100,327,1,115,68.57,84.09,0.08,1.32,107,821,Incorrect
4F4K_incongruent,100,328,1,107,58.07,48.41,0.06,0.76,107,606,Correct
4F4K_incongruent,100,329,1,107,57.42,37.63,0.06,0.59,107,703,Correct
4F4K_incongruent,100,330,1,115,66.24,79.89,0.07,1.25,115,756,Correct
4F4K_incongruent,100,331,2,108,62.28,72.33,0.07,1.14,108,745,Correct
4F4K_incongruent,100,332,1,107,81.73,55.94,0.09,0.88,107,578,Correct
4F4K_incongruent,100,333,1,115,54.63,80.51,0.06,1.26,115,641,Correct
4F4K_incongruent,100,334,2,97,83.57,69.26,0.09,1.09,108,744,Incorrect
4F4K_incongruent,100,335,1,115,34.9,63.21,0.04,0.99,107,1013,Incorrect
4F4K_incongruent,100,336,1,107,56.34,27.62,0.06,0.43,115,742,Incorrect
4F4K_incongruent,100,337,2,97,84.33,64.94,0.09,1.02,108,2198,Incorrect
4F4K_incongruent,100,338,2,97,36.42,16.08,0.04,0.25,97,944,Correct
4F4K_incongruent,100,339,1,107,69.16,57.68,0.08,0.91,107,1324,Correct
4F4K_incongruent,100,340,1,115,63.95,86.33,0.07,1.36,115,1231,Correct
4F4K_incongruent,100,341,1,115,52.85,74.41,0.06,1.17,115,726,Correct
4F4K_incongruent,100,342,2,108,62.8,76.02,0.07,1.19,108,644,Correct
4F4K_incongruent,100,343,1,107,41.46,18.68,0.05,0.29,115,1077,Incorrect
4F4K_incongruent,100,344,2,97,76.48,65.12,0.09,1.02,108,1750,Incorrect
4F4K_incongruent,100,345,1,115,62.28,75.27,0.07,1.18,107,676,Incorrect
4F4K_incongruent,100,346,2,108,33.57,49.33,0.04,0.77,97,1403,Incorrect
4F4K_incongruent,100,347,1,107,73.11,52.31,0.08,0.82,107,746,Correct
4F4K_incongruent,100,348,2,97,47.19,23.92,0.05,0.38,108,1664,Incorrect
4F4K_incongruent,100,349,1,107,48.95,32.16,0.05,0.51,107,3432,Correct
4F4K_incongruent,100,350,1,107,63.3,36.62,0.07,0.58,107,629,Correct
4F4K_incongruent,100,351,2,108,32.97,64.84,0.04,1.02,97,821,Incorrect
4F4K_incongruent,100,352,1,107,68.1,46.13,0.08,0.72,107,876,Correct
4F4K_incongruent,100,353,1,107,71.53,56.17,0.08,0.88,107,693,Correct
4F4K_incongruent,100,354,1,107,34.46,15.65,0.04,0.25,115,553,Incorrect
4F4K_incongruent,100,355,2,108,14.68,39.46,0.02,0.62,108,2161,Correct
4F4K_incongruent,100,356,2,108,46.37,71.62,0.05,1.13,108,571,Correct
4F4K_incongruent,100,357,2,97,40.34,32.18,0.05,0.51,108,687,Incorrect
4F4K_incongruent,100,358,1,107,41.32,13.16,0.05,0.21,115,1243,Incorrect
4F4K_incongruent,100,359,1,115,38.3,51.45,0.04,0.81,107,447,Incorrect
4F4K_incongruent,100,360,1,115,29.43,48.46,0.03,0.76,107,1225,Incorrect
4F4K_incongruent,100,361,2,97,49.0,29.76,0.05,0.47,108,641,Incorrect
4F4K_incongruent,100,362,2,97,43.25,19.95,0.05,0.31,97,697,Correct
4F4K_incongruent,100,363,1,115,66.77,86.62,0.07,1.36,107,718,Incorrect
4F4K_incongruent,100,364,1,115,61.14,74.92,0.07,1.18,115,934,Correct
4F4K_incongruent,100,365,2,108,32.2,63.08,0.04,0.99,108,1750,Correct
4F4K_incongruent,100,366,2,108,53.33,75.55,0.06,1.19,108,718,Correct
4F4K_incongruent,100,367,1,115,41.09,65.92,0.05,1.04,115,751,Correct
4F4K_incongruent,100,368,1,107,57.27,35.3,0.06,0.55,107,642,Correct
4F4K_incongruent,100,369,1,115,52.22,72.88,0.06,1.14,107,1768,Incorrect
4F4K_incongruent,100,370,1,115,26.31,48.35,0.03,0.76,115,896,Correct
4F4K_incongruent,100,371,1,107,48.52,26.09,0.05,0.41,107,830,Correct
4F4K_incongruent,100,372,2,97,62.16,34.8,0.07,0.55,108,1024,Incorrect
4F4K_incongruent,100,373,2,97,44.44,32.03,0.05,0.5,97,700,Correct
4F4K_incongruent,100,374,1,107,55.43,41.15,0.06,0.65,107,3754,Correct
4F4K_incongruent,100,375,1,115,47.69,63.45,0.05,1.0,115,3275,Correct
4F4K_incongruent,100,376,2,97,88.41,63.32,0.1,0.99,108,9209,Incorrect
4F4K_incongruent,100,377,1,115,15.48,32.69,0.02,0.51,115,4163,Correct
4F4K_incongruent,100,378,2,97,70.06,48.6,0.08,0.76,108,3386,Incorrect
4F4K_incongruent,100,379,1,115,51.86,73.96,0.06,1.16,115,1519,Correct
4F4K_incongruent,100,380,1,115,52.76,77.57,0.06,1.22,115,905,Correct
4F4K_incongruent,100,381,2,108,36.73,54.26,0.04,0.85,108,2866,Correct
4F4K_incongruent,100,382,1,115,29.97,60.54,0.03,0.95,115,1363,Correct
4F4K_incongruent,100,383,1,115,54.72,66.7,0.06,1.05,107,708,Incorrect
4F4K_incongruent,100,384,1,115,38.27,64.83,0.04,1.02,115,1257,Correct
4F4K_incongruent,100,385,1,115,57.91,66.6,0.06,1.05,115,502,Correct
4F4K_incongruent,100,386,1,107,56.3,32.45,0.06,0.51,107,731,Correct
4F4K_incongruent,100,387,2,97,78.4,53.6,0.09,0.84,97,2480,Correct
4F4K_incongruent,100,388,1,107,75.46,50.08,0.08,0.79,107,1668,Correct
4F4K_incongruent,100,389,1,115,47.95,64.86,0.05,1.02,115,1186,Correct
4F4K_incongruent,100,390,2,108,15.91,36.57,0.02,0.57,97,1079,Incorrect
4F4K_incongruent,100,391,2,97,39.62,23.41,0.04,0.37,108,568,Incorrect
4F4K_incongruent,100,392,1,107,40.2,13.36,0.04,0.21,115,1154,Incorrect
4F4K_incongruent,100,393,1,107,53.12,39.08,0.06,0.61,107,1337,Correct
4F4K_incongruent,100,394,2,97,49.53,19.55,0.06,0.31,108,2399,Incorrect
4F4K_incongruent,100,395,2,108,41.6,49.43,0.05,0.78,97,734,Incorrect
4F4K_incongruent,100,396,1,115,58.9,80.34,0.07,1.26,115,1507,Correct
4F4K_incongruent,100,397,1,115,64.41,87.04,0.07,1.37,115,504,Correct
4F4K_incongruent,100,398,1,107,48.4,38.94,0.05,0.61,107,730,Correct
